SpectraSuite Data File
++++++++++++++++++++++++++++++++++++
Date: Fri Feb 01 16:56:29 EST 2013
User: group
Dark Spectrum Present: No
Reference Spectrum Present: No
Number of Sampled Component Spectra: 1
Spectrometers: USB2E7196
Integration Time (usec): 35000 (USB2E7196)
Spectra Averaged: 100 (USB2E7196)
Boxcar Smoothing: 10 (USB2E7196)
Correct for Electrical Dark: No (USB2E7196)
Strobe/Lamp Enabled: No (USB2E7196)
Correct for Detector Non-linearity: No (USB2E7196)
Correct for Stray Light: No (USB2E7196)
Number of Pixels in Processed Spectrum: 2048
>>>>>Begin Processed Spectral Data<<<<<
339.09	0.00
339.48	213.48
339.86	215.21
340.24	216.00
340.63	217.70
341.01	220.24
341.39	220.34
341.78	222.16
342.16	222.40
342.54	223.45
342.93	211.82
343.31	222.52
343.69	223.05
344.07	223.49
344.46	223.93
344.84	224.29
345.22	224.54
345.60	224.78
345.99	224.96
346.37	225.10
346.75	225.20
347.13	225.27
347.52	225.35
347.90	225.39
348.28	225.36
348.66	225.37
349.05	225.39
349.43	225.43
349.81	225.48
350.19	225.49
350.57	225.55
350.96	225.62
351.34	225.72
351.72	225.77
352.10	225.87
352.48	225.93
352.87	225.97
353.25	226.06
353.63	226.12
354.01	226.17
354.39	226.25
354.77	226.29
355.15	226.39
355.54	226.43
355.92	226.49
356.30	226.59
356.68	226.73
357.06	226.81
357.44	226.85
357.82	226.93
358.20	227.03
358.58	227.09
358.97	227.14
359.35	227.17
359.73	227.25
360.11	227.34
360.49	227.43
360.87	227.51
361.25	227.55
361.63	227.63
362.01	227.70
362.39	227.72
362.77	227.80
363.15	227.85
363.53	227.90
363.91	227.91
364.29	227.94
364.67	227.88
365.05	227.89
365.43	227.93
365.81	227.97
366.19	228.02
366.57	228.05
366.95	228.09
367.33	228.10
367.71	228.10
368.09	228.08
368.47	228.07
368.85	228.05
369.23	228.04
369.61	227.97
369.99	227.97
370.37	227.94
370.75	227.97
371.13	227.89
371.51	227.81
371.89	227.80
372.27	227.77
372.65	227.71
373.03	227.66
373.41	227.60
373.78	227.53
374.16	227.46
374.54	227.36
374.92	227.28
375.30	227.23
375.68	227.17
376.06	227.10
376.44	227.00
376.82	226.95
377.19	226.92
377.57	226.86
377.95	226.76
378.33	226.67
378.71	226.53
379.09	226.50
379.47	226.47
379.84	226.37
380.22	226.29
380.60	226.23
380.98	226.15
381.36	226.07
381.73	225.98
382.11	225.89
382.49	225.82
382.87	225.75
383.25	225.71
383.62	225.78
384.00	225.72
384.38	225.67
384.76	225.63
385.13	225.58
385.51	225.54
385.89	225.48
386.27	225.46
386.64	225.43
387.02	225.41
387.40	225.36
387.78	225.34
388.15	225.32
388.53	225.28
388.91	225.24
389.29	225.22
389.66	225.26
390.04	225.23
390.42	225.24
390.79	225.24
391.17	225.19
391.55	225.04
391.92	225.05
392.30	225.06
392.68	225.05
393.05	225.03
393.43	225.04
393.81	225.03
394.18	225.02
394.56	225.05
394.94	225.04
395.31	225.01
395.69	225.07
396.06	225.08
396.44	225.13
396.82	225.15
397.19	225.24
397.57	225.22
397.95	225.24
398.32	225.26
398.70	225.29
399.07	225.39
399.45	225.43
399.82	225.47
400.20	225.52
400.58	225.59
400.95	225.64
401.33	225.71
401.70	225.87
402.08	225.94
402.45	225.98
402.83	226.09
403.20	226.23
403.58	226.31
403.95	226.42
404.33	226.53
404.71	226.65
405.08	226.79
405.46	226.91
405.83	227.07
406.21	227.20
406.58	227.37
406.96	227.50
407.33	227.68
407.70	227.88
408.08	228.12
408.45	228.32
408.83	228.56
409.20	228.78
409.58	228.94
409.95	229.24
410.33	229.53
410.70	229.74
411.08	230.03
411.45	230.35
411.82	230.65
412.20	231.00
412.57	231.41
412.95	231.72
413.32	232.12
413.69	232.52
414.07	232.95
414.44	233.39
414.82	233.88
415.19	234.41
415.56	234.93
415.94	235.46
416.31	236.09
416.68	236.69
417.06	237.41
417.43	238.07
417.81	238.79
418.18	239.52
418.55	240.38
418.93	241.23
419.30	242.09
419.67	243.01
420.04	243.95
420.42	244.93
420.79	246.12
421.16	247.28
421.54	248.46
421.91	249.66
422.28	250.90
422.66	252.20
423.03	253.52
423.40	254.84
423.77	256.26
424.15	257.64
424.52	259.11
424.89	260.69
425.26	262.25
425.64	263.69
426.01	265.29
426.38	266.93
426.75	268.61
427.13	270.34
427.50	272.16
427.87	274.01
428.24	275.85
428.61	277.53
428.99	279.45
429.36	281.56
429.73	283.60
430.10	285.61
430.47	287.67
430.85	289.74
431.22	291.98
431.59	294.35
431.96	296.60
432.33	299.06
432.70	301.44
433.08	304.23
433.45	306.88
433.82	309.52
434.19	312.42
434.56	315.21
434.93	317.83
435.30	320.43
435.68	323.25
436.05	326.09
436.42	328.85
436.79	331.37
437.16	334.04
437.53	336.87
437.90	339.60
438.27	342.28
438.64	345.07
439.01	347.63
439.38	349.82
439.75	351.95
440.13	354.44
440.50	356.72
440.87	358.52
441.24	360.41
441.61	362.55
441.98	364.04
442.35	365.81
442.72	367.64
443.09	369.41
443.46	370.46
443.83	371.02
444.20	371.61
444.57	372.45
444.94	372.75
445.31	373.13
445.68	373.54
446.05	373.66
446.42	373.35
446.79	372.94
447.16	372.53
447.53	372.20
447.90	371.04
448.27	369.93
448.64	368.41
449.01	367.35
449.37	365.38
449.74	363.48
450.11	361.32
450.48	358.92
450.85	356.46
451.22	354.36
451.59	352.35
451.96	350.39
452.33	347.79
452.70	345.47
453.07	342.65
453.43	339.81
453.80	337.08
454.17	334.41
454.54	331.88
454.91	329.19
455.28	326.55
455.65	324.09
456.02	321.68
456.38	319.52
456.75	316.87
457.12	314.64
457.49	312.37
457.86	310.17
458.23	308.29
458.59	306.26
458.96	304.18
459.33	302.43
459.70	300.57
460.07	299.08
460.43	297.37
460.80	295.71
461.17	294.29
461.54	292.83
461.91	291.41
462.27	289.98
462.64	288.73
463.01	287.40
463.38	286.13
463.74	284.78
464.11	283.62
464.48	282.61
464.85	281.52
465.21	280.70
465.58	279.81
465.95	278.75
466.32	277.84
466.68	276.92
467.05	276.00
467.42	275.14
467.78	274.22
468.15	273.30
468.52	272.68
468.88	271.86
469.25	271.09
469.62	270.49
469.98	269.83
470.35	269.22
470.72	268.68
471.08	268.02
471.45	267.47
471.82	266.97
472.18	266.35
472.55	265.95
472.92	265.44
473.28	265.00
473.65	264.54
474.02	264.14
474.38	263.78
474.75	263.46
475.11	263.11
475.48	262.84
475.85	262.67
476.21	262.47
476.58	262.27
476.94	262.12
477.31	261.97
477.67	261.87
478.04	261.75
478.41	261.69
478.77	261.73
479.14	261.65
479.50	261.66
479.87	261.74
480.23	261.82
480.60	261.92
480.96	262.02
481.33	262.24
481.69	262.43
482.06	262.65
482.42	262.88
482.79	263.17
483.15	263.51
483.52	263.90
483.88	264.23
484.25	264.64
484.61	265.08
484.98	265.53
485.34	266.08
485.71	266.69
486.07	267.30
486.44	267.86
486.80	268.58
487.17	269.32
487.53	270.12
487.90	270.95
488.26	271.86
488.62	272.84
488.99	273.80
489.35	274.83
489.72	275.95
490.08	277.15
490.44	278.35
490.81	279.66
491.17	281.03
491.54	282.56
491.90	284.07
492.26	285.70
492.63	287.44
492.99	289.19
493.36	291.08
493.72	293.12
494.08	295.24
494.45	297.49
494.81	299.83
495.17	302.30
495.54	304.86
495.90	307.54
496.26	310.30
496.63	313.29
496.99	316.39
497.35	319.65
497.72	323.06
498.08	326.55
498.44	330.21
498.80	334.08
499.17	338.07
499.53	342.21
499.89	346.56
500.26	351.06
500.62	355.73
500.98	360.64
501.34	365.70
501.71	370.99
502.07	376.42
502.43	381.98
502.79	387.79
503.16	393.82
503.52	400.06
503.88	406.48
504.24	413.07
504.60	419.95
504.97	427.02
505.33	434.20
505.69	441.90
506.05	449.66
506.41	457.46
506.78	465.57
507.14	473.96
507.50	482.53
507.86	491.48
508.22	500.59
508.59	509.76
508.95	519.21
509.31	528.93
509.67	538.99
510.03	549.24
510.39	559.66
510.75	570.35
511.12	581.22
511.48	592.40
511.84	603.68
512.20	615.04
512.56	626.83
512.92	638.97
513.28	651.21
513.64	663.51
514.00	676.09
514.37	688.90
514.73	701.78
515.09	714.73
515.45	727.85
515.81	741.25
516.17	754.99
516.53	768.97
516.89	782.97
517.25	796.87
517.61	811.00
517.97	825.21
518.33	839.39
518.69	853.94
519.05	868.59
519.41	883.61
519.77	898.99
520.13	914.19
520.49	929.35
520.85	944.48
521.21	959.94
521.57	975.95
521.93	991.40
522.29	1007.53
522.65	1023.53
523.01	1039.38
523.37	1055.16
523.73	1071.08
524.09	1086.80
524.45	1102.77
524.81	1119.17
525.17	1135.69
525.53	1152.33
525.89	1168.96
526.25	1185.44
526.61	1201.69
526.97	1218.03
527.33	1234.21
527.68	1250.54
528.04	1266.70
528.40	1282.93
528.76	1299.65
529.12	1315.92
529.48	1332.61
529.84	1348.25
530.20	1364.59
530.56	1381.25
530.91	1398.24
531.27	1414.79
531.63	1431.00
531.99	1447.32
532.35	1463.00
532.71	1478.69
533.07	1494.53
533.42	1510.22
533.78	1526.04
534.14	1542.00
534.50	1557.12
534.86	1572.59
535.21	1587.51
535.57	1603.12
535.93	1618.27
536.29	1632.87
536.65	1647.60
537.00	1661.90
537.36	1676.86
537.72	1691.09
538.08	1705.36
538.44	1718.96
538.79	1732.46
539.15	1745.89
539.51	1759.30
539.87	1773.26
540.22	1786.66
540.58	1800.29
540.94	1813.26
541.29	1825.81
541.65	1838.19
542.01	1850.96
542.37	1863.14
542.72	1875.40
543.08	1886.94
543.44	1899.11
543.79	1910.13
544.15	1920.83
544.51	1932.29
544.87	1943.27
545.22	1953.80
545.58	1963.82
545.94	1973.42
546.29	1983.23
546.65	1992.91
547.01	2002.04
547.36	2010.60
547.72	2018.90
548.07	2026.65
548.43	2034.71
548.79	2042.48
549.14	2049.98
549.50	2057.31
549.86	2064.79
550.21	2072.00
550.57	2079.15
550.92	2085.75
551.28	2092.69
551.64	2099.79
551.99	2106.22
552.35	2112.38
552.70	2118.51
553.06	2124.40
553.41	2130.68
553.77	2136.51
554.13	2142.52
554.48	2148.78
554.84	2154.39
555.19	2159.63
555.55	2164.74
555.90	2169.22
556.26	2174.44
556.61	2179.15
556.97	2183.62
557.32	2187.68
557.68	2191.81
558.03	2196.07
558.39	2199.87
558.74	2204.59
559.10	2208.49
559.45	2212.21
559.81	2216.30
560.16	2220.30
560.52	2223.69
560.87	2227.23
561.23	2230.12
561.58	2233.15
561.94	2235.67
562.29	2238.11
562.64	2241.13
563.00	2243.84
563.35	2247.43
563.71	2250.49
564.06	2253.68
564.42	2256.71
564.77	2259.47
565.12	2261.95
565.48	2264.05
565.83	2265.94
566.19	2267.41
566.54	2268.43
566.89	2269.71
567.25	2270.61
567.60	2271.87
567.96	2273.75
568.31	2274.63
568.66	2275.91
569.02	2276.53
569.37	2277.06
569.72	2278.15
570.08	2278.35
570.43	2278.56
570.78	2278.18
571.14	2276.92
571.49	2275.81
571.84	2275.69
572.20	2274.81
572.55	2273.73
572.90	2272.15
573.26	2271.09
573.61	2269.42
573.96	2267.99
574.31	2265.27
574.67	2262.46
575.02	2259.09
575.37	2255.77
575.72	2252.20
576.08	2248.86
576.43	2245.71
576.78	2242.24
577.13	2239.07
577.49	2236.17
577.84	2232.81
578.19	2229.38
578.54	2225.98
578.90	2222.04
579.25	2216.53
579.60	2211.84
579.95	2207.13
580.30	2202.36
580.66	2197.29
581.01	2192.42
581.36	2187.59
581.71	2183.65
582.06	2179.43
582.42	2175.24
582.77	2170.41
583.12	2166.26
583.47	2161.84
583.82	2157.18
584.17	2152.12
584.53	2146.91
584.88	2141.40
585.23	2135.91
585.58	2130.43
585.93	2124.98
586.28	2120.15
586.63	2115.24
586.98	2110.22
587.34	2105.65
587.69	2100.88
588.04	2095.81
588.39	2090.54
588.74	2084.17
589.09	2078.14
589.44	2071.56
589.79	2065.59
590.14	2060.03
590.49	2053.47
590.84	2047.17
591.19	2041.39
591.54	2035.00
591.89	2027.92
592.25	2021.35
592.60	2014.21
592.95	2006.77
593.30	1999.59
593.65	1992.19
594.00	1985.30
594.35	1978.16
594.70	1970.14
595.05	1963.19
595.40	1956.06
595.75	1948.57
596.10	1942.61
596.45	1936.11
596.80	1929.98
597.15	1923.64
597.50	1916.66
597.85	1910.33
598.19	1903.92
598.54	1896.85
598.89	1890.39
599.24	1884.46
599.59	1877.97
599.94	1871.99
600.29	1865.78
600.64	1859.37
600.99	1852.22
601.34	1845.50
601.69	1838.62
602.04	1832.11
602.39	1824.81
602.74	1818.13
603.08	1811.59
603.43	1804.95
603.78	1797.61
604.13	1790.50
604.48	1783.28
604.83	1776.65
605.18	1769.92
605.53	1762.10
605.87	1754.16
606.22	1747.00
606.57	1739.09
606.92	1731.68
607.27	1724.61
607.62	1717.90
607.96	1710.68
608.31	1704.21
608.66	1696.76
609.01	1689.45
609.36	1682.04
609.70	1674.19
610.05	1666.24
610.40	1658.59
610.75	1650.35
611.10	1642.82
611.44	1634.53
611.79	1626.55
612.14	1617.88
612.49	1608.68
612.83	1600.24
613.18	1592.27
613.53	1584.27
613.88	1575.89
614.22	1567.75
614.57	1559.10
614.92	1551.15
615.27	1543.78
615.61	1535.46
615.96	1527.37
616.31	1519.68
616.65	1512.24
617.00	1504.77
617.35	1497.12
617.70	1488.88
618.04	1480.47
618.39	1472.35
618.74	1464.76
619.08	1456.54
619.43	1448.88
619.78	1441.96
620.12	1434.88
620.47	1427.32
620.82	1419.11
621.16	1411.63
621.51	1404.04
621.85	1396.43
622.20	1387.98
622.55	1379.58
622.89	1371.81
623.24	1364.24
623.59	1356.87
623.93	1349.37
624.28	1342.14
624.62	1334.60
624.97	1327.43
625.32	1320.67
625.66	1313.52
626.01	1306.35
626.35	1298.97
626.70	1291.28
627.04	1283.66
627.39	1275.88
627.73	1268.59
628.08	1261.74
628.43	1254.53
628.77	1247.28
629.12	1239.79
629.46	1232.61
629.81	1225.24
630.15	1217.94
630.50	1210.59
630.84	1202.43
631.19	1194.52
631.53	1187.00
631.88	1179.49
632.22	1171.89
632.57	1164.55
632.91	1157.02
633.26	1149.66
633.60	1142.28
633.95	1135.14
634.29	1127.97
634.64	1121.29
634.98	1113.84
635.32	1106.67
635.67	1100.01
636.01	1093.29
636.36	1086.53
636.70	1079.96
637.05	1073.34
637.39	1066.91
637.73	1060.47
638.08	1054.54
638.42	1048.52
638.77	1042.05
639.11	1035.58
639.45	1029.18
639.80	1022.49
640.14	1016.21
640.49	1009.72
640.83	1003.40
641.17	997.19
641.52	990.95
641.86	984.46
642.20	978.71
642.55	972.38
642.89	966.03
643.23	959.45
643.58	953.70
643.92	947.58
644.26	941.62
644.61	935.52
644.95	929.56
645.29	923.17
645.64	916.46
645.98	910.15
646.32	904.11
646.66	898.20
647.01	892.48
647.35	886.75
647.69	880.92
648.04	875.42
648.38	869.67
648.72	863.76
649.06	857.79
649.41	851.86
649.75	846.01
650.09	840.02
650.43	834.34
650.78	828.18
651.12	822.21
651.46	816.48
651.80	810.93
652.14	805.55
652.49	800.10
652.83	794.98
653.17	789.43
653.51	783.83
653.85	778.38
654.20	772.84
654.54	766.88
654.88	761.11
655.22	755.16
655.56	749.49
655.90	743.97
656.25	738.75
656.59	733.48
656.93	728.43
657.27	723.34
657.61	717.85
657.95	712.85
658.29	707.76
658.64	702.44
658.98	697.03
659.32	691.53
659.66	686.39
660.00	681.12
660.34	676.20
660.68	671.26
661.02	666.24
661.36	661.45
661.70	656.89
662.05	652.60
662.39	648.34
662.73	643.84
663.07	639.53
663.41	635.11
663.75	630.63
664.09	626.04
664.43	621.67
664.77	617.63
665.11	613.34
665.45	609.23
665.79	605.20
666.13	601.09
666.47	597.01
666.81	592.83
667.15	588.74
667.49	584.77
667.83	580.98
668.17	577.04
668.51	573.04
668.85	569.11
669.19	565.22
669.53	561.46
669.87	557.70
670.21	553.99
670.55	550.30
670.89	546.82
671.23	543.40
671.57	539.93
671.91	536.39
672.25	532.83
672.58	529.33
672.92	525.91
673.26	522.72
673.60	519.56
673.94	516.46
674.28	513.49
674.62	510.59
674.96	507.47
675.30	504.62
675.64	501.66
675.97	498.86
676.31	496.02
676.65	492.99
676.99	490.31
677.33	487.45
677.67	484.71
678.01	481.69
678.34	478.67
678.68	475.76
679.02	472.90
679.36	470.17
679.70	467.43
680.04	464.70
680.37	461.85
680.71	459.10
681.05	456.51
681.39	453.76
681.73	451.05
682.06	448.61
682.40	446.06
682.74	443.53
683.08	440.94
683.42	438.31
683.75	435.86
684.09	433.25
684.43	430.76
684.77	428.24
685.10	425.87
685.44	423.57
685.78	421.25
686.12	419.07
686.45	416.75
686.79	414.47
687.13	412.26
687.46	410.12
687.80	407.88
688.14	405.62
688.48	403.56
688.81	401.33
689.15	399.15
689.49	396.95
689.82	394.89
690.16	392.82
690.50	390.90
690.83	389.01
691.17	386.98
691.51	385.08
691.84	383.26
692.18	381.36
692.52	379.39
692.85	377.46
693.19	375.56
693.52	373.77
693.86	371.95
694.20	370.12
694.53	368.34
694.87	366.54
695.21	364.75
695.54	362.94
695.88	361.24
696.21	359.51
696.55	357.88
696.88	356.14
697.22	354.50
697.56	352.88
697.89	351.17
698.23	349.61
698.56	348.03
698.90	346.44
699.23	344.80
699.57	343.29
699.90	341.77
700.24	340.25
700.58	338.74
700.91	337.24
701.25	335.85
701.58	334.50
701.92	333.12
702.25	331.78
702.59	330.42
702.92	329.07
703.26	327.76
703.59	326.49
703.93	325.35
704.26	324.14
704.60	322.81
704.93	321.55
705.26	320.32
705.60	319.15
705.93	317.96
706.27	316.95
706.60	315.89
706.94	314.81
707.27	313.66
707.61	312.56
707.94	311.55
708.27	310.49
708.61	309.37
708.94	308.37
709.28	307.39
709.61	306.44
709.94	305.49
710.28	304.52
710.61	303.52
710.95	302.44
711.28	301.49
711.61	300.56
711.95	299.65
712.28	298.70
712.61	297.70
712.95	296.79
713.28	295.90
713.61	295.01
713.95	294.18
714.28	293.32
714.61	292.48
714.95	291.64
715.28	290.77
715.61	289.90
715.95	289.06
716.28	288.22
716.61	287.40
716.95	286.58
717.28	285.80
717.61	285.04
717.94	284.31
718.28	283.51
718.61	282.79
718.94	282.12
719.27	281.42
719.61	280.78
719.94	280.12
720.27	279.35
720.60	278.70
720.94	278.01
721.27	277.47
721.60	276.87
721.93	276.27
722.27	275.72
722.60	275.16
722.93	274.58
723.26	274.01
723.59	273.44
723.93	272.87
724.26	272.28
724.59	271.69
724.92	271.14
725.25	270.66
725.59	270.13
725.92	269.59
726.25	269.13
726.58	268.64
726.91	268.16
727.24	267.70
727.57	267.19
727.91	266.69
728.24	266.17
728.57	265.66
728.90	265.22
729.23	264.70
729.56	264.27
729.89	263.76
730.22	263.33
730.55	262.83
730.89	262.42
731.22	262.01
731.55	261.57
731.88	261.13
732.21	260.67
732.54	260.27
732.87	259.82
733.20	259.41
733.53	259.01
733.86	258.64
734.19	258.27
734.52	257.92
734.85	257.59
735.18	257.16
735.51	256.74
735.84	256.35
736.17	256.01
736.50	255.64
736.83	255.44
737.16	255.10
737.49	254.78
737.82	254.42
738.15	254.06
738.48	253.71
738.81	253.41
739.14	253.08
739.47	252.74
739.80	252.47
740.13	252.17
740.46	251.87
740.79	251.53
741.12	251.27
741.45	250.92
741.78	250.59
742.11	250.33
742.44	250.04
742.77	249.74
743.10	249.43
743.43	249.12
743.75	248.71
744.08	248.57
744.41	248.26
744.74	248.02
745.07	247.75
745.40	247.54
745.73	247.28
746.06	246.99
746.39	246.73
746.71	246.44
747.04	246.17
747.37	245.89
747.70	245.64
748.03	245.30
748.36	245.09
748.68	244.85
749.01	244.61
749.34	244.40
749.67	244.20
750.00	243.98
750.33	243.80
750.65	243.58
750.98	243.26
751.31	243.04
751.64	242.83
751.97	242.64
752.29	242.43
752.62	242.19
752.95	241.99
753.28	241.81
753.60	241.58
753.93	241.41
754.26	241.21
754.59	241.00
754.91	240.81
755.24	240.59
755.57	240.36
755.90	240.19
756.22	240.00
756.55	239.79
756.88	239.57
757.20	239.34
757.53	239.13
757.86	238.91
758.19	238.79
758.51	238.60
758.84	238.40
759.17	238.21
759.49	238.09
759.82	237.98
760.15	237.81
760.47	237.70
760.80	237.47
761.13	237.35
761.45	237.21
761.78	237.07
762.11	236.98
762.43	236.86
762.76	236.71
763.08	236.58
763.41	236.48
763.74	236.38
764.06	236.25
764.39	236.12
764.71	235.99
765.04	235.83
765.37	235.69
765.69	235.57
766.02	235.44
766.34	235.31
766.67	235.18
767.00	235.07
767.32	235.00
767.65	234.99
767.97	234.85
768.30	234.71
768.62	234.60
768.95	234.47
769.27	234.35
769.60	234.26
769.92	234.15
770.25	233.99
770.57	233.85
770.90	233.77
771.22	233.67
771.55	233.58
771.87	233.51
772.20	233.40
772.52	233.41
772.85	233.44
773.17	233.37
773.50	233.24
773.82	233.13
774.15	232.98
774.47	232.84
774.80	232.75
775.12	232.68
775.45	232.61
775.77	232.52
776.09	232.45
776.42	232.35
776.74	232.29
777.07	232.23
777.39	232.18
777.72	232.11
778.04	232.07
778.36	232.01
778.69	231.92
779.01	231.86
779.33	231.68
779.66	231.50
779.98	231.40
780.31	231.34
780.63	231.34
780.95	231.30
781.28	231.24
781.60	231.17
781.92	231.08
782.25	231.03
782.57	230.96
782.89	230.90
783.22	230.88
783.54	230.79
783.86	230.76
784.19	230.71
784.51	230.68
784.83	230.64
785.16	230.58
785.48	230.54
785.80	230.52
786.12	230.50
786.45	230.49
786.77	230.44
787.09	230.41
787.42	230.31
787.74	230.27
788.06	230.21
788.38	230.18
788.71	230.14
789.03	230.10
789.35	230.08
789.67	230.02
789.99	229.98
790.32	229.92
790.64	229.89
790.96	229.93
791.28	229.86
791.61	229.80
791.93	229.74
792.25	229.70
792.57	229.72
792.89	229.65
793.21	229.60
793.54	229.56
793.86	229.50
794.18	229.49
794.50	229.44
794.82	229.42
795.14	229.40
795.47	229.37
795.79	229.34
796.11	229.28
796.43	229.24
796.75	229.22
797.07	229.21
797.39	229.16
797.71	229.03
798.04	228.97
798.36	228.94
798.68	228.91
799.00	228.88
799.32	228.82
799.64	228.82
799.96	228.79
800.28	228.75
800.60	228.72
800.92	228.68
801.24	228.61
801.56	228.60
801.89	228.55
802.21	228.53
802.53	228.46
802.85	228.47
803.17	228.50
803.49	228.44
803.81	228.39
804.13	228.37
804.45	228.35
804.77	228.33
805.09	228.30
805.41	228.25
805.73	228.18
806.05	228.09
806.37	228.02
806.69	227.98
807.01	227.94
807.33	227.94
807.65	227.87
807.97	227.90
808.28	227.84
808.60	227.79
808.92	227.75
809.24	227.81
809.56	227.74
809.88	227.66
810.20	227.60
810.52	227.59
810.84	227.57
811.16	227.48
811.48	227.41
811.80	227.44
812.12	227.41
812.43	227.41
812.75	227.40
813.07	227.39
813.39	227.39
813.71	227.35
814.03	227.31
814.35	227.31
814.67	227.26
814.98	227.25
815.30	227.23
815.62	227.19
815.94	227.07
816.26	227.09
816.58	227.07
816.89	227.08
817.21	227.05
817.53	227.05
817.85	227.07
818.17	227.08
818.48	227.00
818.80	226.98
819.12	226.95
819.44	226.90
819.76	226.87
820.07	226.83
820.39	226.82
820.71	226.82
821.03	226.77
821.34	226.72
821.66	226.70
821.98	226.73
822.30	226.72
822.61	226.79
822.93	226.72
823.25	226.72
823.57	226.69
823.88	226.69
824.20	226.66
824.52	226.68
824.83	226.68
825.15	226.68
825.47	226.70
825.79	226.72
826.10	226.75
826.42	226.74
826.74	226.74
827.05	226.73
827.37	226.71
827.69	226.69
828.00	226.70
828.32	226.71
828.64	226.63
828.95	226.69
829.27	226.66
829.58	226.66
829.90	226.65
830.22	226.66
830.53	226.64
830.85	226.60
831.17	226.54
831.48	226.53
831.80	226.50
832.11	226.45
832.43	226.40
832.75	226.38
833.06	226.43
833.38	226.39
833.69	226.38
834.01	226.39
834.32	226.38
834.64	226.35
834.96	226.33
835.27	226.33
835.59	226.29
835.90	226.26
836.22	226.24
836.53	226.23
836.85	226.20
837.16	226.27
837.48	226.27
837.79	226.29
838.11	226.28
838.42	226.26
838.74	226.29
839.05	226.27
839.37	226.26
839.68	226.18
840.00	226.16
840.31	226.16
840.63	226.11
840.94	226.09
841.26	226.04
841.57	226.06
841.88	226.07
842.20	226.02
842.51	225.99
842.83	225.96
843.14	226.03
843.46	226.03
843.77	226.00
844.08	226.00
844.40	225.98
844.71	225.99
845.03	225.96
845.34	225.92
845.65	225.92
845.97	225.90
846.28	225.93
846.60	225.98
846.91	225.95
847.22	225.98
847.54	226.01
847.85	226.05
848.16	226.02
848.48	226.00
848.79	226.04
849.10	226.06
849.42	226.08
849.73	226.01
850.04	226.00
850.36	225.93
850.67	225.95
850.98	225.93
851.30	225.92
851.61	225.95
851.92	225.94
852.23	225.97
852.55	225.95
852.86	225.93
853.17	225.89
853.49	225.92
853.80	225.93
854.11	225.94
854.42	225.93
854.74	225.91
855.05	225.91
855.36	225.85
855.67	225.84
855.99	225.83
856.30	225.92
856.61	225.89
856.92	225.90
857.23	225.89
857.55	225.93
857.86	225.90
858.17	225.94
858.48	225.93
858.79	225.91
859.11	225.96
859.42	225.92
859.73	225.91
860.04	225.88
860.35	225.85
860.66	225.82
860.98	225.80
861.29	225.82
861.60	225.77
861.91	225.80
862.22	225.77
862.53	225.77
862.84	225.66
863.16	225.68
863.47	225.65
863.78	225.64
864.09	225.61
864.40	225.63
864.71	225.60
865.02	225.62
865.33	225.60
865.64	225.56
865.95	225.57
866.27	225.66
866.58	225.63
866.89	225.66
867.20	225.65
867.51	225.64
867.82	225.65
868.13	225.72
868.44	225.69
868.75	225.72
869.06	225.71
869.37	225.72
869.68	225.70
869.99	225.70
870.30	225.65
870.61	225.66
870.92	225.63
871.23	225.59
871.54	225.58
871.85	225.59
872.16	225.62
872.47	225.61
872.78	225.55
873.09	225.57
873.40	225.55
873.71	225.56
874.02	225.59
874.33	225.54
874.64	225.53
874.95	225.55
875.26	225.53
875.56	225.53
875.87	225.50
876.18	225.51
876.49	225.62
876.80	225.66
877.11	225.62
877.42	225.64
877.73	225.67
878.04	225.67
878.35	225.69
878.66	225.66
878.96	225.65
879.27	225.66
879.58	225.65
879.89	225.67
880.20	225.70
880.51	225.66
880.82	225.69
881.12	225.70
881.43	225.69
881.74	225.70
882.05	225.70
882.36	225.72
882.67	225.75
882.97	225.64
883.28	225.65
883.59	225.66
883.90	225.70
884.21	225.72
884.51	225.71
884.82	225.69
885.13	225.72
885.44	225.71
885.74	225.71
886.05	225.72
886.36	225.71
886.67	225.69
886.98	225.76
887.28	225.75
887.59	225.74
887.90	225.72
888.20	225.71
888.51	225.73
888.82	225.71
889.13	225.69
889.43	225.79
889.74	225.79
890.05	225.81
890.35	225.80
890.66	225.79
890.97	225.81
891.28	225.80
891.58	225.81
891.89	225.86
892.20	225.79
892.50	225.77
892.81	225.78
893.12	225.75
893.42	225.69
893.73	225.70
894.04	225.72
894.34	225.75
894.65	225.74
894.95	225.72
895.26	225.72
895.57	225.76
895.87	225.66
896.18	225.67
896.48	225.66
896.79	225.65
897.10	225.67
897.40	225.66
897.71	225.68
898.01	225.66
898.32	225.66
898.63	225.69
898.93	225.69
899.24	225.69
899.54	225.68
899.85	225.70
900.15	225.68
900.46	225.66
900.76	225.67
901.07	225.67
901.38	225.66
901.68	225.68
901.99	225.61
902.29	225.61
902.60	225.58
902.90	225.56
903.21	225.54
903.51	225.52
903.82	225.52
904.12	225.50
904.43	225.53
904.73	225.53
905.03	225.54
905.34	225.65
905.64	225.63
905.95	225.62
906.25	225.61
906.56	225.61
906.86	225.61
907.17	225.59
907.47	225.61
907.77	225.59
908.08	225.55
908.38	225.58
908.69	225.58
908.99	225.59
909.30	225.58
909.60	225.60
909.90	225.57
910.21	225.55
910.51	225.53
910.81	225.52
911.12	225.50
911.42	225.49
911.73	225.34
912.03	225.34
912.33	225.37
912.64	225.34
912.94	225.38
913.24	225.34
913.55	225.31
913.85	225.29
914.15	225.32
914.46	225.33
914.76	225.31
915.06	225.31
915.37	225.29
915.67	225.27
915.97	225.26
916.27	225.25
916.58	225.26
916.88	225.23
917.18	225.21
917.49	225.25
917.79	225.27
918.09	225.32
918.39	225.38
918.70	225.37
919.00	225.38
919.30	225.35
919.60	225.37
919.91	225.37
920.21	225.37
920.51	225.37
920.81	225.38
921.12	225.40
921.42	225.39
921.72	225.41
922.02	225.46
922.32	225.47
922.63	225.48
922.93	225.54
923.23	225.57
923.53	225.59
923.83	225.55
924.13	225.53
924.44	225.52
924.74	225.54
925.04	225.60
925.34	225.62
925.64	225.61
925.94	225.64
926.24	225.71
926.55	225.71
926.85	225.71
927.15	225.72
927.45	225.73
927.75	225.75
928.05	225.79
928.35	225.78
928.65	225.80
928.95	225.80
929.26	225.80
929.56	225.82
929.86	225.84
930.16	225.86
930.46	225.88
930.76	225.87
931.06	225.81
931.36	225.77
931.66	225.77
931.96	225.82
932.26	225.81
932.56	225.80
932.86	225.80
933.16	225.84
933.46	225.83
933.76	225.81
934.06	225.83
934.36	225.86
934.66	225.86
934.96	225.85
935.26	225.87
935.56	225.88
935.86	225.88
936.16	225.84
936.46	225.80
936.76	225.77
937.06	225.78
937.36	225.78
937.66	225.77
937.96	225.78
938.26	225.73
938.56	225.72
938.86	225.69
939.16	225.70
939.46	225.66
939.76	225.67
940.06	225.69
940.35	225.64
940.65	225.56
940.95	225.56
941.25	225.52
941.55	225.47
941.85	225.40
942.15	225.40
942.45	225.42
942.75	225.41
943.04	225.42
943.34	225.45
943.64	225.42
943.94	225.41
944.24	225.39
944.54	225.38
944.84	225.38
945.13	225.38
945.43	225.33
945.73	225.35
946.03	225.30
946.33	225.25
946.62	225.22
946.92	225.21
947.22	225.16
947.52	225.13
947.82	225.14
948.11	225.13
948.41	225.09
948.71	225.04
949.01	225.03
949.31	225.02
949.60	224.96
949.90	225.00
950.20	225.01
950.50	224.99
950.79	224.99
951.09	224.99
951.39	224.94
951.69	224.96
951.98	224.96
952.28	224.97
952.58	224.99
952.87	225.01
953.17	225.03
953.47	225.05
953.76	225.09
954.06	225.09
954.36	225.10
954.66	225.10
954.95	225.13
955.25	225.11
955.55	225.12
955.84	225.14
956.14	225.13
956.44	225.12
956.73	225.10
957.03	225.11
957.32	225.12
957.62	225.15
957.92	225.17
958.21	225.17
958.51	225.28
958.81	225.30
959.10	225.31
959.40	225.32
959.69	225.35
959.99	225.36
960.29	225.37
960.58	225.35
960.88	225.42
961.17	225.42
961.47	225.49
961.76	225.46
962.06	225.47
962.36	225.47
962.65	225.50
962.95	225.50
963.24	225.51
963.54	225.50
963.83	225.53
964.13	225.52
964.42	225.50
964.72	225.45
965.01	225.45
965.31	225.43
965.60	225.43
965.90	225.48
966.19	225.41
966.49	225.40
966.78	225.43
967.08	225.42
967.37	225.42
967.67	225.40
967.96	225.44
968.26	225.45
968.55	225.46
968.85	225.44
969.14	225.45
969.43	225.45
969.73	225.45
970.02	225.42
970.32	225.42
970.61	225.39
970.91	225.35
971.20	225.33
971.49	225.36
971.79	225.36
972.08	225.30
972.38	225.34
972.67	225.35
972.96	225.34
973.26	225.31
973.55	225.34
973.85	225.31
974.14	225.29
974.43	225.30
974.73	225.26
975.02	225.25
975.31	225.28
975.61	225.25
975.90	225.23
976.19	225.23
976.49	225.24
976.78	225.22
977.07	225.22
977.37	225.21
977.66	225.20
977.95	225.19
978.24	225.18
978.54	225.21
978.83	225.19
979.12	225.18
979.42	225.18
979.71	225.17
980.00	225.15
980.29	225.15
980.59	225.09
980.88	225.11
981.17	225.10
981.46	225.07
981.76	225.07
982.05	225.11
982.34	225.14
982.63	225.09
982.93	225.15
983.22	225.17
983.51	225.18
983.80	225.20
984.09	225.20
984.39	225.20
984.68	225.16
984.97	225.18
985.26	225.23
985.55	225.22
985.85	225.18
986.14	225.21
986.43	225.26
986.72	225.25
987.01	225.24
987.30	225.24
987.59	225.22
987.89	225.22
988.18	225.17
988.47	225.12
988.76	225.17
989.05	225.14
989.34	225.11
989.63	225.14
989.92	225.13
990.22	225.14
990.51	225.13
990.80	225.12
991.09	225.08
991.38	225.05
991.67	225.07
991.96	225.03
992.25	225.05
992.54	225.01
992.83	225.01
993.12	225.00
993.41	225.03
993.70	225.08
993.99	225.12
994.28	225.15
994.58	225.17
994.87	225.15
995.16	225.12
995.45	225.14
995.74	225.10
996.03	225.11
996.32	225.10
996.61	225.12
996.90	225.13
997.19	225.17
997.48	225.19
997.77	225.14
998.06	225.21
998.34	225.21
998.63	225.19
998.92	225.21
999.21	225.23
999.50	225.19
999.79	225.16
1000.08	225.14
1000.37	225.13
1000.66	225.13
1000.95	225.18
1001.24	225.21
1001.53	225.20
1001.82	225.20
1002.11	225.17
1002.40	225.19
1002.68	225.22
1002.97	225.30
1003.26	225.27
1003.55	225.23
1003.84	225.25
1004.13	225.26
1004.42	225.24
1004.71	225.26
1004.99	225.22
1005.28	225.26
1005.57	225.28
1005.86	225.27
1006.15	225.27
1006.44	225.27
1006.72	225.28
1007.01	225.22
1007.30	225.26
1007.59	225.25
1007.88	225.25
1008.17	225.26
1008.45	225.26
1008.74	225.25
1009.03	225.20
1009.32	225.22
1009.60	225.26
1009.89	225.26
1010.18	225.19
1010.47	225.19
1010.76	225.18
1011.04	225.21
1011.33	225.22
1011.62	225.22
1011.91	225.25
1012.19	225.26
1012.48	225.26
1012.77	225.25
1013.05	225.32
1013.34	225.30
1013.63	225.29
1013.92	225.28
1014.20	225.30
1014.49	225.26
1014.78	225.28
1015.06	225.23
1015.35	225.22
1015.64	225.22
1015.92	225.22
1016.21	225.28
1016.50	225.26
1016.78	225.27
1017.07	225.26
1017.36	225.20
1017.64	225.19
1017.93	225.18
1018.22	225.14
1018.50	225.13
1018.79	225.14
1019.08	225.09
1019.36	225.09
1019.65	225.09
1019.93	225.12
1020.22	225.11
1020.51	225.15
1020.79	225.10
1021.08	224.60
1021.36	225.06
1021.65	225.41
1021.94	224.97
1022.22	225.31
1022.51	225.15
1022.79	225.49
1023.08	225.13
1023.36	226.08
1023.65	224.64
>>>>>End Processed Spectral Data<<<<<
