SpectraSuite Data File
++++++++++++++++++++++++++++++++++++
Date: Fri Feb 01 16:25:00 EST 2013
User: group
Dark Spectrum Present: No
Reference Spectrum Present: No
Number of Sampled Component Spectra: 1
Spectrometers: USB2E7196
Integration Time (usec): 35000 (USB2E7196)
Spectra Averaged: 100 (USB2E7196)
Boxcar Smoothing: 10 (USB2E7196)
Correct for Electrical Dark: No (USB2E7196)
Strobe/Lamp Enabled: No (USB2E7196)
Correct for Detector Non-linearity: No (USB2E7196)
Correct for Stray Light: No (USB2E7196)
Number of Pixels in Processed Spectrum: 2048
>>>>>Begin Processed Spectral Data<<<<<
339.09	0.00
339.48	213.58
339.86	214.87
340.24	216.69
340.63	217.65
341.01	220.27
341.39	220.46
341.78	221.50
342.16	223.42
342.54	223.85
342.93	212.10
343.31	222.81
343.69	223.38
344.07	223.85
344.46	224.27
344.84	224.65
345.22	224.94
345.60	225.20
345.99	225.42
346.37	225.54
346.75	225.63
347.13	225.67
347.52	225.73
347.90	225.80
348.28	225.83
348.66	225.87
349.05	225.84
349.43	225.89
349.81	225.96
350.19	226.01
350.57	226.12
350.96	226.24
351.34	226.35
351.72	226.40
352.10	226.51
352.48	226.62
352.87	226.70
353.25	226.77
353.63	226.83
354.01	226.91
354.39	227.01
354.77	227.11
355.15	227.25
355.54	227.32
355.92	227.37
356.30	227.44
356.68	227.57
357.06	227.67
357.44	227.74
357.82	227.79
358.20	227.89
358.58	227.93
358.97	227.96
359.35	228.04
359.73	228.15
360.11	228.24
360.49	228.30
360.87	228.36
361.25	228.44
361.63	228.54
362.01	228.60
362.39	228.63
362.77	228.69
363.15	228.71
363.53	228.73
363.91	228.78
364.29	228.79
364.67	228.75
365.05	228.77
365.43	228.82
365.81	228.83
366.19	228.87
366.57	228.96
366.95	228.98
367.33	228.96
367.71	228.93
368.09	228.90
368.47	228.88
368.85	228.85
369.23	228.82
369.61	228.76
369.99	228.78
370.37	228.72
370.75	228.71
371.13	228.65
371.51	228.61
371.89	228.58
372.27	228.58
372.65	228.51
373.03	228.47
373.41	228.42
373.78	228.35
374.16	228.25
374.54	228.08
374.92	228.00
375.30	227.95
375.68	227.88
376.06	227.85
376.44	227.76
376.82	227.68
377.19	227.60
377.57	227.51
377.95	227.37
378.33	227.33
378.71	227.23
379.09	227.19
379.47	227.12
379.84	227.02
380.22	226.88
380.60	226.82
380.98	226.74
381.36	226.63
381.73	226.57
382.11	226.52
382.49	226.49
382.87	226.39
383.25	226.30
383.62	226.32
384.00	226.20
384.38	226.12
384.76	226.09
385.13	226.07
385.51	226.05
385.89	225.99
386.27	225.94
386.64	225.88
387.02	225.81
387.40	225.75
387.78	225.72
388.15	225.72
388.53	225.69
388.91	225.65
389.29	225.61
389.66	225.58
390.04	225.55
390.42	225.53
390.79	225.56
391.17	225.54
391.55	225.42
391.92	225.43
392.30	225.49
392.68	225.45
393.05	225.42
393.43	225.42
393.81	225.43
394.18	225.42
394.56	225.46
394.94	225.49
395.31	225.48
395.69	225.52
396.06	225.55
396.44	225.57
396.82	225.60
397.19	225.70
397.57	225.75
397.95	225.82
398.32	225.86
398.70	225.91
399.07	225.98
399.45	226.06
399.82	226.15
400.20	226.16
400.58	226.25
400.95	226.27
401.33	226.35
401.70	226.51
402.08	226.61
402.45	226.66
402.83	226.78
403.20	226.91
403.58	226.99
403.95	227.16
404.33	227.32
404.71	227.44
405.08	227.62
405.46	227.75
405.83	227.91
406.21	228.05
406.58	228.17
406.96	228.37
407.33	228.58
407.70	228.77
408.08	229.07
408.45	229.31
408.83	229.58
409.20	229.83
409.58	230.00
409.95	230.27
410.33	230.56
410.70	230.79
411.08	231.12
411.45	231.42
411.82	231.71
412.20	232.05
412.57	232.47
412.95	232.76
413.32	233.18
413.69	233.57
414.07	234.03
414.44	234.53
414.82	235.01
415.19	235.54
415.56	236.11
415.94	236.62
416.31	237.26
416.68	237.89
417.06	238.57
417.43	239.30
417.81	240.06
418.18	240.82
418.55	241.68
418.93	242.57
419.30	243.49
419.67	244.46
420.04	245.42
420.42	246.39
420.79	247.58
421.16	248.72
421.54	249.90
421.91	251.09
422.28	252.35
422.66	253.66
423.03	254.97
423.40	256.26
423.77	257.66
424.15	259.04
424.52	260.54
424.89	262.13
425.26	263.62
425.64	265.06
426.01	266.66
426.38	268.28
426.75	269.88
427.13	271.60
427.50	273.36
427.87	275.20
428.24	277.07
428.61	278.80
428.99	280.76
429.36	282.84
429.73	284.89
430.10	286.90
430.47	288.95
430.85	291.04
431.22	293.28
431.59	295.67
431.96	297.91
432.33	300.39
432.70	302.73
433.08	305.56
433.45	308.22
433.82	310.79
434.19	313.64
434.56	316.44
434.93	319.05
435.30	321.64
435.68	324.57
436.05	327.37
436.42	330.14
436.79	332.63
437.16	335.31
437.53	338.13
437.90	340.88
438.27	343.62
438.64	346.45
439.01	348.97
439.38	351.15
439.75	353.27
440.13	355.72
440.50	358.05
440.87	359.90
441.24	361.78
441.61	363.92
441.98	365.46
442.35	367.24
442.72	369.09
443.09	370.91
443.46	371.89
443.83	372.48
444.20	373.00
444.57	373.79
444.94	374.04
445.31	374.37
445.68	374.73
446.05	374.79
446.42	374.40
446.79	374.04
447.16	373.65
447.53	373.39
447.90	372.22
448.27	371.06
448.64	369.49
449.01	368.38
449.37	366.43
449.74	364.56
450.11	362.36
450.48	359.89
450.85	357.39
451.22	355.24
451.59	353.22
451.96	351.28
452.33	348.72
452.70	346.39
453.07	343.55
453.43	340.68
453.80	337.92
454.17	335.23
454.54	332.64
454.91	329.87
455.28	327.22
455.65	324.75
456.02	322.32
456.38	320.18
456.75	317.52
457.12	315.33
457.49	313.10
457.86	310.97
458.23	309.14
458.59	307.09
458.96	305.03
459.33	303.18
459.70	301.37
460.07	299.89
460.43	298.21
460.80	296.63
461.17	295.25
461.54	293.78
461.91	292.41
462.27	291.01
462.64	289.80
463.01	288.46
463.38	287.20
463.74	285.87
464.11	284.73
464.48	283.73
464.85	282.60
465.21	281.71
465.58	280.76
465.95	279.66
466.32	278.74
466.68	277.80
467.05	276.91
467.42	276.02
467.78	275.08
468.15	274.22
468.52	273.59
468.88	272.70
469.25	271.95
469.62	271.32
469.98	270.68
470.35	270.04
470.72	269.49
471.08	268.85
471.45	268.29
471.82	267.73
472.18	267.14
472.55	266.71
472.92	266.22
473.28	265.77
473.65	265.31
474.02	264.89
474.38	264.56
474.75	264.29
475.11	263.94
475.48	263.65
475.85	263.41
476.21	263.18
476.58	263.02
476.94	262.85
477.31	262.68
477.67	262.55
478.04	262.47
478.41	262.37
478.77	262.39
479.14	262.36
479.50	262.34
479.87	262.41
480.23	262.51
480.60	262.57
480.96	262.65
481.33	262.92
481.69	263.10
482.06	263.31
482.42	263.48
482.79	263.74
483.15	264.05
483.52	264.45
483.88	264.78
484.25	265.14
484.61	265.55
484.98	265.98
485.34	266.53
485.71	267.10
486.07	267.71
486.44	268.29
486.80	268.97
487.17	269.71
487.53	270.53
487.90	271.38
488.26	272.32
488.62	273.32
488.99	274.27
489.35	275.32
489.72	276.45
490.08	277.68
490.44	278.90
490.81	280.28
491.17	281.63
491.54	283.11
491.90	284.65
492.26	286.33
492.63	288.09
492.99	289.88
493.36	291.78
493.72	293.82
494.08	295.94
494.45	298.18
494.81	300.58
495.17	303.03
495.54	305.58
495.90	308.28
496.26	311.09
496.63	314.07
496.99	317.18
497.35	320.43
497.72	323.79
498.08	327.34
498.44	331.01
498.80	334.94
499.17	338.98
499.53	343.17
499.89	347.56
500.26	352.07
500.62	356.72
500.98	361.67
501.34	366.79
501.71	372.13
502.07	377.61
502.43	383.20
502.79	389.05
503.16	395.17
503.52	401.46
503.88	407.90
504.24	414.53
504.60	421.38
504.97	428.53
505.33	435.91
505.69	443.66
506.05	451.42
506.41	459.29
506.78	467.47
507.14	475.91
507.50	484.66
507.86	493.64
508.22	502.87
508.59	512.18
508.95	521.80
509.31	531.61
509.67	541.73
510.03	552.05
510.39	562.60
510.75	573.36
511.12	584.27
511.48	595.59
511.84	607.03
512.20	618.59
512.56	630.56
512.92	642.70
513.28	655.00
513.64	667.47
514.00	680.21
514.37	693.12
514.73	706.16
515.09	719.13
515.45	732.44
515.81	746.00
516.17	759.90
516.53	773.89
516.89	788.04
517.25	802.13
517.61	816.46
517.97	830.86
518.33	845.19
518.69	859.86
519.05	874.77
519.41	889.93
519.77	905.44
520.13	920.74
520.49	936.02
520.85	951.39
521.21	967.04
521.57	983.18
521.93	998.88
522.29	1015.22
522.65	1031.36
523.01	1047.44
523.37	1063.32
523.73	1079.50
524.09	1095.63
524.45	1111.78
524.81	1128.28
525.17	1145.07
525.53	1161.96
525.89	1178.80
526.25	1195.63
526.61	1211.90
526.97	1228.53
527.33	1244.90
527.68	1261.44
528.04	1277.85
528.40	1294.43
528.76	1311.49
529.12	1327.97
529.48	1344.78
529.84	1360.65
530.20	1377.32
530.56	1394.29
530.91	1411.73
531.27	1428.33
531.63	1444.66
531.99	1461.22
532.35	1477.30
532.71	1493.19
533.07	1509.33
533.42	1525.07
533.78	1541.07
534.14	1557.41
534.50	1572.63
534.86	1588.37
535.21	1603.51
535.57	1619.35
535.93	1634.71
536.29	1649.36
536.65	1664.42
537.00	1679.05
537.36	1694.31
537.72	1708.77
538.08	1723.13
538.44	1736.70
538.79	1750.51
539.15	1763.99
539.51	1777.61
539.87	1791.67
540.22	1805.20
540.58	1818.79
540.94	1832.11
541.29	1844.91
541.65	1857.38
542.01	1870.55
542.37	1882.81
542.72	1895.10
543.08	1906.84
543.44	1919.11
543.79	1930.23
544.15	1941.08
544.51	1952.65
544.87	1963.55
545.22	1974.34
545.58	1984.54
545.94	1994.40
546.29	2004.18
546.65	2014.09
547.01	2023.32
547.36	2032.02
547.72	2040.52
548.07	2048.37
548.43	2056.48
548.79	2064.47
549.14	2072.02
549.50	2079.32
549.86	2087.00
550.21	2094.32
550.57	2101.48
550.92	2107.96
551.28	2115.03
551.64	2122.15
551.99	2128.67
552.35	2134.87
552.70	2141.03
553.06	2146.96
553.41	2153.21
553.77	2159.25
554.13	2165.33
554.48	2171.60
554.84	2177.20
555.19	2182.38
555.55	2187.42
555.90	2191.87
556.26	2196.77
556.61	2201.61
556.97	2206.02
557.32	2210.21
557.68	2214.32
558.03	2218.48
558.39	2222.21
558.74	2226.82
559.10	2230.61
559.45	2234.23
559.81	2238.50
560.16	2242.27
560.52	2245.56
560.87	2248.86
561.23	2251.58
561.58	2254.59
561.94	2257.00
562.29	2259.35
562.64	2262.08
563.00	2264.78
563.35	2268.22
563.71	2271.21
564.06	2274.30
564.42	2277.13
564.77	2279.65
565.12	2281.96
565.48	2283.90
565.83	2285.86
566.19	2287.32
566.54	2288.18
566.89	2289.40
567.25	2290.05
567.60	2291.26
567.96	2292.92
568.31	2293.96
568.66	2295.06
569.02	2295.52
569.37	2295.79
569.72	2296.55
570.08	2296.80
570.43	2296.87
570.78	2296.56
571.14	2295.17
571.49	2293.74
571.84	2293.39
572.20	2292.27
572.55	2291.38
572.90	2289.99
573.26	2288.68
573.61	2286.80
573.96	2285.24
574.31	2282.31
574.67	2279.33
575.02	2275.83
575.37	2272.36
575.72	2268.51
576.08	2265.11
576.43	2261.88
576.78	2258.38
577.13	2255.23
577.49	2252.16
577.84	2248.72
578.19	2245.00
578.54	2241.38
578.90	2237.35
579.25	2231.85
579.60	2226.85
579.95	2221.75
580.30	2216.83
580.66	2211.68
581.01	2206.81
581.36	2201.93
581.71	2197.86
582.06	2193.41
582.42	2189.00
582.77	2183.91
583.12	2179.62
583.47	2175.01
583.82	2170.02
584.17	2164.76
584.53	2159.47
584.88	2153.93
585.23	2148.27
585.58	2142.90
585.93	2137.45
586.28	2132.65
586.63	2127.66
586.98	2122.87
587.34	2118.28
587.69	2113.45
588.04	2108.16
588.39	2102.59
588.74	2096.20
589.09	2090.02
589.44	2083.42
589.79	2077.49
590.14	2072.03
590.49	2065.26
590.84	2059.05
591.19	2053.05
591.54	2046.75
591.89	2039.39
592.25	2032.54
592.60	2025.37
592.95	2017.80
593.30	2010.49
593.65	2002.93
594.00	1995.96
594.35	1988.63
594.70	1980.64
595.05	1973.44
595.40	1966.27
595.75	1958.86
596.10	1952.62
596.45	1945.95
596.80	1939.77
597.15	1933.23
597.50	1926.07
597.85	1919.75
598.19	1913.00
598.54	1906.00
598.89	1899.39
599.24	1893.55
599.59	1886.94
599.94	1880.76
600.29	1874.41
600.64	1867.97
600.99	1860.63
601.34	1853.95
601.69	1847.16
602.04	1840.38
602.39	1833.13
602.74	1826.39
603.08	1819.57
603.43	1812.93
603.78	1805.67
604.13	1798.36
604.48	1791.00
604.83	1784.26
605.18	1777.31
605.53	1769.50
605.87	1761.60
606.22	1754.39
606.57	1746.44
606.92	1739.23
607.27	1732.06
607.62	1725.17
607.96	1717.97
608.31	1711.41
608.66	1703.70
609.01	1695.97
609.36	1688.32
609.70	1680.27
610.05	1672.12
610.40	1664.55
610.75	1656.22
611.10	1648.48
611.44	1640.08
611.79	1632.13
612.14	1623.52
612.49	1614.40
612.83	1605.88
613.18	1597.77
613.53	1589.64
613.88	1581.10
614.22	1572.70
614.57	1564.07
614.92	1556.06
615.27	1548.35
615.61	1540.04
615.96	1531.99
616.31	1524.40
616.65	1517.07
617.00	1509.51
617.35	1501.91
617.70	1493.62
618.04	1485.06
618.39	1476.82
618.74	1469.31
619.08	1461.01
619.43	1453.29
619.78	1446.38
620.12	1439.31
620.47	1431.68
620.82	1423.50
621.16	1416.08
621.51	1408.52
621.85	1400.96
622.20	1392.44
622.55	1384.13
622.89	1376.27
623.24	1368.64
623.59	1361.14
623.93	1353.58
624.28	1346.38
624.62	1338.84
624.97	1331.58
625.32	1324.86
625.66	1317.95
626.01	1310.76
626.35	1303.22
626.70	1295.44
627.04	1287.81
627.39	1279.90
627.73	1272.57
628.08	1265.70
628.43	1258.48
628.77	1251.08
629.12	1243.53
629.46	1236.35
629.81	1228.95
630.15	1221.64
630.50	1214.26
630.84	1206.21
631.19	1198.27
631.53	1190.69
631.88	1183.16
632.22	1175.56
632.57	1168.21
632.91	1160.57
633.26	1153.11
633.60	1145.85
633.95	1138.77
634.29	1131.57
634.64	1124.88
634.98	1117.40
635.32	1110.22
635.67	1103.55
636.01	1097.00
636.36	1090.07
636.70	1083.55
637.05	1076.89
637.39	1070.44
637.73	1063.88
638.08	1058.00
638.42	1052.07
638.77	1045.58
639.11	1039.01
639.45	1032.62
639.80	1025.97
640.14	1019.60
640.49	1013.14
640.83	1006.76
641.17	1000.48
641.52	994.17
641.86	987.78
642.20	982.00
642.55	975.73
642.89	969.30
643.23	962.68
643.58	957.09
643.92	950.90
644.26	944.86
644.61	938.82
644.95	932.81
645.29	926.23
645.64	919.43
645.98	913.18
646.32	907.32
646.66	901.26
647.01	895.49
647.35	889.76
647.69	883.85
648.04	878.29
648.38	872.52
648.72	866.53
649.06	860.45
649.41	854.62
649.75	848.62
650.09	842.66
650.43	836.90
650.78	830.66
651.12	824.63
651.46	818.95
651.80	813.18
652.14	807.76
652.49	802.35
652.83	797.15
653.17	791.39
653.51	785.65
653.85	780.20
654.20	774.52
654.54	768.49
654.88	762.78
655.22	756.94
655.56	751.30
655.90	745.88
656.25	740.65
656.59	735.20
656.93	730.12
657.27	724.93
657.61	719.46
657.95	714.37
658.29	709.34
658.64	704.08
658.98	698.74
659.32	693.30
659.66	688.08
660.00	682.82
660.34	677.87
660.68	672.98
661.02	668.00
661.36	663.35
661.70	658.85
662.05	654.50
662.39	650.18
662.73	645.67
663.07	641.26
663.41	636.79
663.75	632.26
664.09	627.63
664.43	623.26
664.77	619.10
665.11	614.83
665.45	610.69
665.79	606.61
666.13	602.55
666.47	598.43
666.81	594.25
667.15	590.07
667.49	586.15
667.83	582.29
668.17	578.37
668.51	574.27
668.85	570.27
669.19	566.41
669.53	562.56
669.87	558.68
670.21	554.99
670.55	551.35
670.89	547.93
671.23	544.50
671.57	540.94
671.91	537.41
672.25	533.91
672.58	530.37
672.92	526.95
673.26	523.79
673.60	520.67
673.94	517.50
674.28	514.66
674.62	511.77
674.96	508.66
675.30	505.71
675.64	502.77
675.97	499.96
676.31	497.08
676.65	494.15
676.99	491.48
677.33	488.61
677.67	485.75
678.01	482.74
678.34	479.77
678.68	476.93
679.02	474.12
679.36	471.36
679.70	468.65
680.04	465.92
680.37	463.05
680.71	460.22
681.05	457.62
681.39	454.85
681.73	452.19
682.06	449.62
682.40	447.05
682.74	444.53
683.08	442.00
683.42	439.44
683.75	436.88
684.09	434.31
684.43	431.78
684.77	429.32
685.10	426.97
685.44	424.68
685.78	422.39
686.12	420.06
686.45	417.77
686.79	415.46
687.13	413.27
687.46	411.11
687.80	408.96
688.14	406.76
688.48	404.72
688.81	402.45
689.15	400.36
689.49	398.23
689.82	396.14
690.16	393.98
690.50	392.01
690.83	390.10
691.17	388.11
691.51	386.22
691.84	384.37
692.18	382.44
692.52	380.46
692.85	378.52
693.19	376.70
693.52	374.86
693.86	373.04
694.20	371.21
694.53	369.38
694.87	367.52
695.21	365.75
695.54	363.90
695.88	362.17
696.21	360.40
696.55	358.77
696.88	357.09
697.22	355.48
697.56	353.85
697.89	352.18
698.23	350.57
698.56	348.99
698.90	347.38
699.23	345.76
699.57	344.20
699.90	342.63
700.24	341.07
700.58	339.48
700.91	337.99
701.25	336.56
701.58	335.18
701.92	333.80
702.25	332.43
702.59	331.05
702.92	329.74
703.26	328.45
703.59	327.14
703.93	325.91
704.26	324.67
704.60	323.35
704.93	322.10
705.26	320.85
705.60	319.66
705.93	318.48
706.27	317.44
706.60	316.36
706.94	315.29
707.27	314.14
707.61	313.12
707.94	312.10
708.27	310.99
708.61	309.88
708.94	308.86
709.28	307.89
709.61	306.96
709.94	306.00
710.28	304.94
710.61	303.90
710.95	302.85
711.28	301.95
711.61	300.99
711.95	300.05
712.28	299.08
712.61	298.09
712.95	297.20
713.28	296.30
713.61	295.44
713.95	294.55
714.28	293.70
714.61	292.80
714.95	291.93
715.28	291.06
715.61	290.22
715.95	289.36
716.28	288.46
716.61	287.60
716.95	286.79
717.28	286.09
717.61	285.39
717.94	284.63
718.28	283.80
718.61	283.12
718.94	282.40
719.27	281.80
719.61	281.16
719.94	280.52
720.27	279.78
720.60	279.06
720.94	278.44
721.27	277.84
721.60	277.27
721.93	276.69
722.27	276.16
722.60	275.63
722.93	275.09
723.26	274.56
723.59	274.00
723.93	273.46
724.26	272.87
724.59	272.29
724.92	271.79
725.25	271.29
725.59	270.71
725.92	270.22
726.25	269.70
726.58	269.21
726.91	268.71
727.24	268.24
727.57	267.83
727.91	267.33
728.24	266.87
728.57	266.40
728.90	265.97
729.23	265.49
729.56	265.07
729.89	264.61
730.22	264.17
730.55	263.72
730.89	263.24
731.22	262.81
731.55	262.41
731.88	261.99
732.21	261.58
732.54	261.19
732.87	260.77
733.20	260.35
733.53	259.95
733.86	259.56
734.19	259.18
734.52	258.80
734.85	258.50
735.18	258.10
735.51	257.75
735.84	257.32
736.17	256.97
736.50	256.57
736.83	256.33
737.16	255.99
737.49	255.67
737.82	255.34
738.15	255.03
738.48	254.67
738.81	254.36
739.14	254.04
739.47	253.71
739.80	253.41
740.13	253.11
740.46	252.79
740.79	252.49
741.12	252.18
741.45	251.85
741.78	251.49
742.11	251.19
742.44	250.87
742.77	250.61
743.10	250.31
743.43	249.97
743.75	249.58
744.08	249.43
744.41	249.14
744.74	248.87
745.07	248.60
745.40	248.34
745.73	248.07
746.06	247.81
746.39	247.57
746.71	247.28
747.04	246.98
747.37	246.72
747.70	246.45
748.03	246.21
748.36	245.98
748.68	245.69
749.01	245.46
749.34	245.21
749.67	244.98
750.00	244.72
750.33	244.60
750.65	244.37
750.98	243.99
751.31	243.73
751.64	243.53
751.97	243.37
752.29	243.16
752.62	242.94
752.95	242.70
753.28	242.47
753.60	242.28
753.93	242.09
754.26	241.88
754.59	241.64
754.91	241.38
755.24	241.20
755.57	241.00
755.90	240.81
756.22	240.58
756.55	240.37
756.88	240.18
757.20	239.95
757.53	239.75
757.86	239.62
758.19	239.49
758.51	239.33
758.84	239.09
759.17	238.93
759.49	238.76
759.82	238.67
760.15	238.51
760.47	238.36
760.80	238.21
761.13	238.09
761.45	237.96
761.78	237.83
762.11	237.67
762.43	237.56
762.76	237.44
763.08	237.35
763.41	237.21
763.74	237.09
764.06	236.93
764.39	236.80
764.71	236.66
765.04	236.51
765.37	236.36
765.69	236.21
766.02	236.08
766.34	235.93
766.67	235.78
767.00	235.70
767.32	235.66
767.65	235.60
767.97	235.50
768.30	235.38
768.62	235.26
768.95	235.14
769.27	235.03
769.60	234.94
769.92	234.81
770.25	234.72
770.57	234.60
770.90	234.54
771.22	234.46
771.55	234.38
771.87	234.30
772.20	234.23
772.52	234.25
772.85	234.31
773.17	234.22
773.50	234.15
773.82	234.05
774.15	233.93
774.47	233.74
774.80	233.65
775.12	233.57
775.45	233.49
775.77	233.42
776.09	233.34
776.42	233.26
776.74	233.25
777.07	233.16
777.39	233.10
777.72	232.99
778.04	232.93
778.36	232.87
778.69	232.78
779.01	232.71
779.33	232.52
779.66	232.31
779.98	232.26
780.31	232.16
780.63	232.10
780.95	232.03
781.28	232.00
781.60	231.93
781.92	231.86
782.25	231.79
782.57	231.75
782.89	231.68
783.22	231.61
783.54	231.51
783.86	231.48
784.19	231.43
784.51	231.40
784.83	231.29
785.16	231.21
785.48	231.16
785.80	231.11
786.12	231.11
786.45	231.03
786.77	230.98
787.09	230.93
787.42	230.83
787.74	230.76
788.06	230.70
788.38	230.65
788.71	230.56
789.03	230.56
789.35	230.51
789.67	230.42
789.99	230.36
790.32	230.29
790.64	230.24
790.96	230.26
791.28	230.19
791.61	230.17
791.93	230.10
792.25	230.09
792.57	230.12
792.89	230.07
793.21	230.05
793.54	229.97
793.86	229.90
794.18	229.90
794.50	229.88
794.82	229.83
795.14	229.80
795.47	229.83
795.79	229.77
796.11	229.65
796.43	229.66
796.75	229.66
797.07	229.64
797.39	229.62
797.71	229.53
798.04	229.48
798.36	229.42
798.68	229.41
799.00	229.34
799.32	229.24
799.64	229.17
799.96	229.13
800.28	229.11
800.60	229.10
800.92	229.08
801.24	229.04
801.56	229.03
801.89	229.00
802.21	228.95
802.53	228.92
802.85	228.97
803.17	228.96
803.49	228.90
803.81	228.86
804.13	228.82
804.45	228.80
804.77	228.79
805.09	228.77
805.41	228.74
805.73	228.70
806.05	228.64
806.37	228.65
806.69	228.64
807.01	228.62
807.33	228.61
807.65	228.59
807.97	228.61
808.28	228.59
808.60	228.58
808.92	228.57
809.24	228.61
809.56	228.57
809.88	228.52
810.20	228.49
810.52	228.50
810.84	228.45
811.16	228.40
811.48	228.38
811.80	228.40
812.12	228.39
812.43	228.41
812.75	228.42
813.07	228.39
813.39	228.39
813.71	228.38
814.03	228.36
814.35	228.32
814.67	228.23
814.98	228.23
815.30	228.17
815.62	228.13
815.94	228.06
816.26	228.11
816.58	228.11
816.89	228.10
817.21	228.08
817.53	228.10
817.85	228.09
818.17	228.08
818.48	228.03
818.80	228.03
819.12	228.01
819.44	227.96
819.76	227.93
820.07	227.87
820.39	227.84
820.71	227.84
821.03	227.82
821.34	227.87
821.66	227.84
821.98	227.83
822.30	227.83
822.61	227.88
822.93	227.80
823.25	227.76
823.57	227.74
823.88	227.73
824.20	227.74
824.52	227.75
824.83	227.72
825.15	227.73
825.47	227.70
825.79	227.69
826.10	227.67
826.42	227.64
826.74	227.65
827.05	227.62
827.37	227.60
827.69	227.57
828.00	227.49
828.32	227.48
828.64	227.47
828.95	227.49
829.27	227.41
829.58	227.37
829.90	227.39
830.22	227.38
830.53	227.35
830.85	227.27
831.17	227.22
831.48	227.21
831.80	227.17
832.11	227.15
832.43	227.13
832.75	227.09
833.06	227.16
833.38	227.11
833.69	227.11
834.01	227.06
834.32	227.05
834.64	227.03
834.96	227.04
835.27	227.03
835.59	227.00
835.90	226.98
836.22	226.98
836.53	226.95
836.85	226.91
837.16	227.00
837.48	227.01
837.79	227.03
838.11	227.07
838.42	227.03
838.74	227.04
839.05	226.99
839.37	227.02
839.68	226.96
840.00	226.98
840.31	227.00
840.63	227.01
840.94	227.01
841.26	227.01
841.57	226.98
841.88	226.98
842.20	226.93
842.51	226.93
842.83	226.94
843.14	227.00
843.46	227.03
843.77	226.96
844.08	226.95
844.40	226.89
844.71	226.85
845.03	226.86
845.34	226.84
845.65	226.85
845.97	226.85
846.28	226.84
846.60	226.85
846.91	226.84
847.22	226.83
847.54	226.88
847.85	226.88
848.16	226.88
848.48	226.86
848.79	226.92
849.10	226.93
849.42	226.91
849.73	226.83
850.04	226.82
850.36	226.80
850.67	226.84
850.98	226.87
851.30	226.89
851.61	226.89
851.92	226.91
852.23	226.94
852.55	226.95
852.86	226.95
853.17	226.98
853.49	226.99
853.80	227.00
854.11	227.02
854.42	227.04
854.74	227.02
855.05	227.04
855.36	226.97
855.67	226.99
855.99	227.03
856.30	227.16
856.61	227.17
856.92	227.15
857.23	227.13
857.55	227.11
857.86	227.08
858.17	227.09
858.48	227.03
858.79	227.04
859.11	227.03
859.42	227.02
859.73	226.98
860.04	226.96
860.35	226.94
860.66	226.87
860.98	226.85
861.29	226.88
861.60	226.86
861.91	226.90
862.22	226.91
862.53	226.88
862.84	226.74
863.16	226.74
863.47	226.76
863.78	226.78
864.09	226.82
864.40	226.84
864.71	226.82
865.02	226.85
865.33	226.82
865.64	226.82
865.95	226.84
866.27	226.90
866.58	226.90
866.89	226.89
867.20	226.89
867.51	226.88
867.82	226.87
868.13	226.90
868.44	226.83
868.75	226.79
869.06	226.78
869.37	226.80
869.68	226.73
869.99	226.70
870.30	226.69
870.61	226.65
870.92	226.62
871.23	226.62
871.54	226.60
871.85	226.63
872.16	226.62
872.47	226.57
872.78	226.50
873.09	226.52
873.40	226.53
873.71	226.51
874.02	226.52
874.33	226.48
874.64	226.42
874.95	226.45
875.26	226.44
875.56	226.41
875.87	226.38
876.18	226.39
876.49	226.48
876.80	226.47
877.11	226.44
877.42	226.44
877.73	226.44
878.04	226.40
878.35	226.37
878.66	226.34
878.96	226.32
879.27	226.31
879.58	226.25
879.89	226.22
880.20	226.25
880.51	226.19
880.82	226.18
881.12	226.18
881.43	226.15
881.74	226.11
882.05	226.09
882.36	226.08
882.67	226.07
882.97	225.96
883.28	225.94
883.59	225.92
883.90	225.92
884.21	225.92
884.51	225.93
884.82	225.89
885.13	225.88
885.44	225.87
885.74	225.87
886.05	225.86
886.36	225.87
886.67	225.82
886.98	225.89
887.28	225.89
887.59	225.87
887.90	225.88
888.20	225.89
888.51	225.92
888.82	225.91
889.13	225.92
889.43	226.01
889.74	226.02
890.05	226.02
890.35	226.01
890.66	226.00
890.97	225.99
891.28	226.02
891.58	226.05
891.89	226.10
892.20	226.07
892.50	226.10
892.81	226.12
893.12	226.14
893.42	226.09
893.73	226.10
894.04	226.13
894.34	226.17
894.65	226.18
894.95	226.17
895.26	226.23
895.57	226.28
895.87	226.21
896.18	226.19
896.48	226.24
896.79	226.27
897.10	226.28
897.40	226.31
897.71	226.33
898.01	226.32
898.32	226.33
898.63	226.36
898.93	226.37
899.24	226.38
899.54	226.40
899.85	226.43
900.15	226.45
900.46	226.46
900.76	226.45
901.07	226.45
901.38	226.48
901.68	226.47
901.99	226.45
902.29	226.45
902.60	226.50
902.90	226.49
903.21	226.48
903.51	226.49
903.82	226.49
904.12	226.52
904.43	226.54
904.73	226.56
905.03	226.56
905.34	226.63
905.64	226.59
905.95	226.55
906.25	226.53
906.56	226.52
906.86	226.52
907.17	226.49
907.47	226.52
907.77	226.48
908.08	226.44
908.38	226.41
908.69	226.41
908.99	226.35
909.30	226.37
909.60	226.35
909.90	226.33
910.21	226.30
910.51	226.25
910.81	226.22
911.12	226.19
911.42	226.17
911.73	226.11
912.03	226.13
912.33	226.17
912.64	226.12
912.94	226.12
913.24	226.10
913.55	226.10
913.85	226.06
914.15	226.06
914.46	226.06
914.76	226.06
915.06	226.06
915.37	226.06
915.67	226.00
915.97	226.03
916.27	226.01
916.58	226.00
916.88	225.99
917.18	225.98
917.49	226.00
917.79	226.00
918.09	225.99
918.39	225.98
918.70	225.97
919.00	226.02
919.30	226.04
919.60	226.03
919.91	225.98
920.21	225.98
920.51	225.94
920.81	225.92
921.12	225.91
921.42	225.91
921.72	225.93
922.02	225.95
922.32	225.95
922.63	225.94
922.93	225.99
923.23	226.00
923.53	225.99
923.83	225.97
924.13	225.96
924.44	225.93
924.74	225.96
925.04	225.95
925.34	225.94
925.64	225.89
925.94	225.88
926.24	225.95
926.55	225.97
926.85	225.98
927.15	226.01
927.45	225.99
927.75	225.98
928.05	225.97
928.35	225.99
928.65	225.98
928.95	226.01
929.26	225.95
929.56	225.96
929.86	226.00
930.16	226.00
930.46	226.00
930.76	226.03
931.06	225.99
931.36	226.00
931.66	226.03
931.96	226.07
932.26	226.10
932.56	226.07
932.86	226.09
933.16	226.15
933.46	226.14
933.76	226.15
934.06	226.20
934.36	226.25
934.66	226.25
934.96	226.26
935.26	226.28
935.56	226.33
935.86	226.34
936.16	226.32
936.46	226.34
936.76	226.37
937.06	226.36
937.36	226.37
937.66	226.42
937.96	226.41
938.26	226.42
938.56	226.43
938.86	226.45
939.16	226.47
939.46	226.47
939.76	226.50
940.06	226.51
940.35	226.50
940.65	226.43
940.95	226.44
941.25	226.41
941.55	226.38
941.85	226.38
942.15	226.38
942.45	226.40
942.75	226.39
943.04	226.36
943.34	226.38
943.64	226.38
943.94	226.34
944.24	226.33
944.54	226.32
944.84	226.31
945.13	226.32
945.43	226.31
945.73	226.32
946.03	226.30
946.33	226.30
946.62	226.27
946.92	226.29
947.22	226.28
947.52	226.29
947.82	226.30
948.11	226.29
948.41	226.28
948.71	226.23
949.01	226.24
949.31	226.23
949.60	226.21
949.90	226.22
950.20	226.19
950.50	226.19
950.79	226.16
951.09	226.18
951.39	226.13
951.69	226.09
951.98	226.12
952.28	226.10
952.58	226.06
952.87	226.08
953.17	226.11
953.47	226.09
953.76	226.09
954.06	226.06
954.36	226.04
954.66	226.05
954.95	226.09
955.25	226.03
955.55	226.03
955.84	226.00
956.14	226.00
956.44	226.02
956.73	225.99
957.03	226.03
957.32	226.01
957.62	226.03
957.92	226.04
958.21	225.99
958.51	226.09
958.81	226.15
959.10	226.12
959.40	226.09
959.69	226.10
959.99	226.10
960.29	226.11
960.58	226.08
960.88	226.09
961.17	226.06
961.47	226.09
961.76	226.05
962.06	226.04
962.36	226.01
962.65	226.01
962.95	226.00
963.24	225.97
963.54	225.98
963.83	225.99
964.13	225.97
964.42	225.96
964.72	225.86
965.01	225.85
965.31	225.84
965.60	225.82
965.90	225.89
966.19	225.89
966.49	225.92
966.78	225.93
967.08	225.93
967.37	225.93
967.67	225.91
967.96	225.97
968.26	226.02
968.55	226.04
968.85	226.02
969.14	226.04
969.43	226.04
969.73	226.05
970.02	226.05
970.32	226.06
970.61	226.04
970.91	226.03
971.20	226.00
971.49	226.03
971.79	226.07
972.08	225.97
972.38	225.97
972.67	225.94
972.96	225.96
973.26	225.94
973.55	226.01
973.85	226.04
974.14	226.04
974.43	226.02
974.73	226.01
975.02	226.04
975.31	226.05
975.61	226.06
975.90	226.03
976.19	226.00
976.49	226.01
976.78	226.03
977.07	226.04
977.37	226.10
977.66	226.09
977.95	226.07
978.24	226.13
978.54	226.17
978.83	226.20
979.12	226.19
979.42	226.20
979.71	226.17
980.00	226.18
980.29	226.18
980.59	226.19
980.88	226.25
981.17	226.26
981.46	226.25
981.76	226.26
982.05	226.30
982.34	226.34
982.63	226.34
982.93	226.36
983.22	226.41
983.51	226.41
983.80	226.40
984.09	226.40
984.39	226.38
984.68	226.34
984.97	226.34
985.26	226.33
985.55	226.35
985.85	226.32
986.14	226.34
986.43	226.36
986.72	226.35
987.01	226.33
987.30	226.30
987.59	226.29
987.89	226.32
988.18	226.29
988.47	226.27
988.76	226.30
989.05	226.29
989.34	226.27
989.63	226.27
989.92	226.23
990.22	226.25
990.51	226.22
990.80	226.21
991.09	226.25
991.38	226.27
991.67	226.25
991.96	226.26
992.25	226.26
992.54	226.22
992.83	226.23
993.12	226.22
993.41	226.24
993.70	226.28
993.99	226.24
994.28	226.22
994.58	226.24
994.87	226.19
995.16	226.20
995.45	226.18
995.74	226.16
996.03	226.23
996.32	226.23
996.61	226.24
996.90	226.21
997.19	226.16
997.48	226.15
997.77	226.11
998.06	226.09
998.34	226.07
998.63	226.04
998.92	226.01
999.21	226.00
999.50	225.96
999.79	225.93
1000.08	225.92
1000.37	225.88
1000.66	225.84
1000.95	225.86
1001.24	225.85
1001.53	225.82
1001.82	225.79
1002.11	225.74
1002.40	225.75
1002.68	225.79
1002.97	225.85
1003.26	225.84
1003.55	225.83
1003.84	225.83
1004.13	225.85
1004.42	225.84
1004.71	225.84
1004.99	225.83
1005.28	225.83
1005.57	225.83
1005.86	225.82
1006.15	225.81
1006.44	225.84
1006.72	225.87
1007.01	225.85
1007.30	225.83
1007.59	225.86
1007.88	225.87
1008.17	225.86
1008.45	225.81
1008.74	225.75
1009.03	225.73
1009.32	225.73
1009.60	225.71
1009.89	225.72
1010.18	225.68
1010.47	225.70
1010.76	225.74
1011.04	225.76
1011.33	225.77
1011.62	225.77
1011.91	225.78
1012.19	225.81
1012.48	225.82
1012.77	225.79
1013.05	225.88
1013.34	225.87
1013.63	225.87
1013.92	225.89
1014.20	225.87
1014.49	225.90
1014.78	225.91
1015.06	225.90
1015.35	225.91
1015.64	225.94
1015.92	225.99
1016.21	226.00
1016.50	225.99
1016.78	225.99
1017.07	226.02
1017.36	226.01
1017.64	225.99
1017.93	226.03
1018.22	226.02
1018.50	226.04
1018.79	226.04
1019.08	225.96
1019.36	225.98
1019.65	225.99
1019.93	226.02
1020.22	226.05
1020.51	226.09
1020.79	226.11
1021.08	225.67
1021.36	226.03
1021.65	225.94
1021.94	225.67
1022.22	226.16
1022.51	226.20
1022.79	226.79
1023.08	226.06
1023.36	226.68
1023.65	226.29
>>>>>End Processed Spectral Data<<<<<
