SpectraSuite Data File
++++++++++++++++++++++++++++++++++++
Date: Fri Feb 01 15:15:49 EST 2013
User: group
Dark Spectrum Present: No
Reference Spectrum Present: No
Number of Sampled Component Spectra: 1
Spectrometers: USB2E7196
Integration Time (usec): 35000 (USB2E7196)
Spectra Averaged: 100 (USB2E7196)
Boxcar Smoothing: 10 (USB2E7196)
Correct for Electrical Dark: No (USB2E7196)
Strobe/Lamp Enabled: No (USB2E7196)
Correct for Detector Non-linearity: No (USB2E7196)
Correct for Stray Light: No (USB2E7196)
Number of Pixels in Processed Spectrum: 2048
>>>>>Begin Processed Spectral Data<<<<<
339.09	0.00
339.48	215.42
339.86	216.64
340.24	218.59
340.63	219.46
341.01	222.07
341.39	222.40
341.78	224.11
342.16	224.86
342.54	225.68
342.93	213.53
343.31	224.35
343.69	224.88
344.07	225.35
344.46	225.75
344.84	226.09
345.22	226.34
345.60	226.56
345.99	226.70
346.37	226.83
346.75	226.89
347.13	226.97
347.52	227.01
347.90	227.10
348.28	227.10
348.66	227.13
349.05	227.11
349.43	227.17
349.81	227.22
350.19	227.29
350.57	227.34
350.96	227.39
351.34	227.43
351.72	227.52
352.10	227.59
352.48	227.67
352.87	227.72
353.25	227.74
353.63	227.80
354.01	227.87
354.39	227.89
354.77	227.95
355.15	228.03
355.54	228.09
355.92	228.08
356.30	228.14
356.68	228.26
357.06	228.36
357.44	228.40
357.82	228.45
358.20	228.48
358.58	228.54
358.97	228.59
359.35	228.67
359.73	228.69
360.11	228.75
360.49	228.79
360.87	228.84
361.25	228.89
361.63	228.95
362.01	228.96
362.39	229.01
362.77	229.05
363.15	229.05
363.53	229.06
363.91	229.11
364.29	229.10
364.67	229.04
365.05	229.03
365.43	229.02
365.81	229.02
366.19	229.07
366.57	229.08
366.95	229.07
367.33	229.00
367.71	228.97
368.09	228.94
368.47	228.92
368.85	228.91
369.23	228.90
369.61	228.87
369.99	228.86
370.37	228.83
370.75	228.85
371.13	228.80
371.51	228.75
371.89	228.74
372.27	228.75
372.65	228.68
373.03	228.62
373.41	228.57
373.78	228.52
374.16	228.43
374.54	228.36
374.92	228.33
375.30	228.31
375.68	228.25
376.06	228.22
376.44	228.12
376.82	228.06
377.19	227.99
377.57	227.90
377.95	227.80
378.33	227.74
378.71	227.60
379.09	227.52
379.47	227.48
379.84	227.33
380.22	227.22
380.60	227.17
380.98	227.12
381.36	227.06
381.73	226.97
382.11	226.93
382.49	226.86
382.87	226.77
383.25	226.69
383.62	226.75
384.00	226.64
384.38	226.60
384.76	226.56
385.13	226.56
385.51	226.50
385.89	226.44
386.27	226.38
386.64	226.35
387.02	226.35
387.40	226.28
387.78	226.29
388.15	226.27
388.53	226.21
388.91	226.15
389.29	226.13
389.66	226.14
390.04	226.10
390.42	226.10
390.79	226.08
391.17	226.09
391.55	225.98
391.92	226.01
392.30	226.01
392.68	225.98
393.05	225.95
393.43	225.98
393.81	226.02
394.18	226.02
394.56	226.05
394.94	226.12
395.31	226.15
395.69	226.20
396.06	226.24
396.44	226.32
396.82	226.41
397.19	226.49
397.57	226.50
397.95	226.56
398.32	226.60
398.70	226.69
399.07	226.75
399.45	226.83
399.82	226.90
400.20	226.96
400.58	227.05
400.95	227.14
401.33	227.24
401.70	227.40
402.08	227.51
402.45	227.60
402.83	227.70
403.20	227.80
403.58	227.88
403.95	228.03
404.33	228.13
404.71	228.21
405.08	228.37
405.46	228.55
405.83	228.67
406.21	228.84
406.58	229.01
406.96	229.18
407.33	229.34
407.70	229.53
408.08	229.82
408.45	230.06
408.83	230.29
409.20	230.52
409.58	230.70
409.95	230.95
410.33	231.25
410.70	231.48
411.08	231.82
411.45	232.13
411.82	232.41
412.20	232.80
412.57	233.23
412.95	233.52
413.32	233.90
413.69	234.34
414.07	234.79
414.44	235.23
414.82	235.70
415.19	236.25
415.56	236.79
415.94	237.31
416.31	237.92
416.68	238.57
417.06	239.30
417.43	239.97
417.81	240.75
418.18	241.51
418.55	242.36
418.93	243.22
419.30	244.17
419.67	245.12
420.04	246.04
420.42	247.04
420.79	248.29
421.16	249.45
421.54	250.65
421.91	251.81
422.28	253.09
422.66	254.42
423.03	255.71
423.40	257.06
423.77	258.50
424.15	259.97
424.52	261.46
424.89	263.04
425.26	264.62
425.64	266.07
426.01	267.68
426.38	269.32
426.75	270.98
427.13	272.65
427.50	274.45
427.87	276.39
428.24	278.25
428.61	279.97
428.99	281.91
429.36	284.02
429.73	286.09
430.10	288.14
430.47	290.22
430.85	292.37
431.22	294.64
431.59	296.99
431.96	299.22
432.33	301.71
432.70	304.08
433.08	306.89
433.45	309.56
433.82	312.17
434.19	315.10
434.56	317.92
434.93	320.64
435.30	323.27
435.68	326.17
436.05	329.01
436.42	331.83
436.79	334.39
437.16	337.11
437.53	339.99
437.90	342.78
438.27	345.50
438.64	348.38
439.01	350.94
439.38	353.24
439.75	355.42
440.13	357.88
440.50	360.26
440.87	362.10
441.24	364.05
441.61	366.21
441.98	367.73
442.35	369.52
442.72	371.34
443.09	373.16
443.46	374.14
443.83	374.69
444.20	375.18
444.57	376.00
444.94	376.28
445.31	376.59
445.68	376.97
446.05	377.09
446.42	376.63
446.79	376.21
447.16	375.70
447.53	375.36
447.90	374.19
448.27	373.02
448.64	371.45
449.01	370.29
449.37	368.33
449.74	366.35
450.11	364.10
450.48	361.64
450.85	359.15
451.22	357.01
451.59	355.02
451.96	353.06
452.33	350.47
452.70	348.08
453.07	345.25
453.43	342.33
453.80	339.53
454.17	336.87
454.54	334.31
454.91	331.64
455.28	328.97
455.65	326.52
456.02	324.05
456.38	321.88
456.75	319.20
457.12	316.91
457.49	314.73
457.86	312.56
458.23	310.68
458.59	308.58
458.96	306.44
459.33	304.58
459.70	302.75
460.07	301.19
460.43	299.46
460.80	297.83
461.17	296.39
461.54	294.91
461.91	293.45
462.27	292.02
462.64	290.73
463.01	289.34
463.38	288.01
463.74	286.63
464.11	285.49
464.48	284.48
464.85	283.37
465.21	282.46
465.58	281.50
465.95	280.40
466.32	279.49
466.68	278.61
467.05	277.66
467.42	276.71
467.78	275.78
468.15	274.92
468.52	274.29
468.88	273.44
469.25	272.61
469.62	272.03
469.98	271.35
470.35	270.72
470.72	270.13
471.08	269.49
471.45	268.96
471.82	268.39
472.18	267.78
472.55	267.33
472.92	266.82
473.28	266.35
473.65	265.90
474.02	265.44
474.38	265.05
474.75	264.77
475.11	264.46
475.48	264.20
475.85	263.95
476.21	263.67
476.58	263.47
476.94	263.33
477.31	263.14
477.67	262.98
478.04	262.86
478.41	262.81
478.77	262.83
479.14	262.73
479.50	262.74
479.87	262.82
480.23	262.92
480.60	262.99
480.96	263.08
481.33	263.30
481.69	263.54
482.06	263.76
482.42	263.94
482.79	264.19
483.15	264.49
483.52	264.89
483.88	265.24
484.25	265.61
484.61	266.06
484.98	266.49
485.34	267.09
485.71	267.67
486.07	268.24
486.44	268.83
486.80	269.56
487.17	270.30
487.53	271.09
487.90	271.93
488.26	272.86
488.62	273.86
488.99	274.86
489.35	275.89
489.72	276.99
490.08	278.17
490.44	279.41
490.81	280.76
491.17	282.07
491.54	283.56
491.90	285.10
492.26	286.75
492.63	288.51
492.99	290.23
493.36	292.15
493.72	294.19
494.08	296.26
494.45	298.51
494.81	300.79
495.17	303.23
495.54	305.75
495.90	308.45
496.26	311.23
496.63	314.11
496.99	317.21
497.35	320.47
497.72	323.90
498.08	327.42
498.44	331.09
498.80	335.01
499.17	339.02
499.53	343.21
499.89	347.54
500.26	352.01
500.62	356.68
500.98	361.62
501.34	366.68
501.71	372.06
502.07	377.46
502.43	383.15
502.79	388.94
503.16	395.02
503.52	401.29
503.88	407.75
504.24	414.38
504.60	421.25
504.97	428.38
505.33	435.68
505.69	443.39
506.05	451.12
506.41	459.04
506.78	467.16
507.14	475.61
507.50	484.34
507.86	493.36
508.22	502.58
508.59	511.75
508.95	521.29
509.31	531.10
509.67	541.17
510.03	551.49
510.39	562.06
510.75	572.89
511.12	583.89
511.48	595.13
511.84	606.63
512.20	618.14
512.56	630.09
512.92	642.27
513.28	654.57
513.64	667.08
514.00	679.78
514.37	692.72
514.73	705.84
515.09	718.83
515.45	732.13
515.81	745.68
516.17	759.75
516.53	773.89
516.89	788.04
517.25	802.32
517.61	816.71
517.97	831.20
518.33	845.60
518.69	860.40
519.05	875.41
519.41	890.63
519.77	906.24
520.13	921.71
520.49	937.08
520.85	952.55
521.21	968.28
521.57	984.52
521.93	1000.44
522.29	1016.85
522.65	1033.19
523.01	1049.54
523.37	1065.71
523.73	1081.96
524.09	1098.05
524.45	1114.50
524.81	1131.16
525.17	1148.09
525.53	1165.06
525.89	1182.02
526.25	1198.77
526.61	1215.32
526.97	1232.08
527.33	1248.61
527.68	1265.33
528.04	1281.93
528.40	1298.62
528.76	1315.73
529.12	1332.47
529.48	1349.34
529.84	1365.44
530.20	1382.21
530.56	1399.31
530.91	1416.71
531.27	1433.51
531.63	1450.13
531.99	1466.72
532.35	1482.68
532.71	1498.59
533.07	1514.96
533.42	1530.90
533.78	1546.98
534.14	1563.27
534.50	1578.71
534.86	1594.74
535.21	1609.91
535.57	1625.94
535.93	1641.50
536.29	1656.34
536.65	1671.47
537.00	1686.40
537.36	1701.74
537.72	1716.28
538.08	1730.72
538.44	1744.67
538.79	1758.62
539.15	1772.45
539.51	1786.33
539.87	1800.78
540.22	1814.66
540.58	1828.63
540.94	1842.16
541.29	1855.32
541.65	1868.06
542.01	1881.33
542.37	1893.66
542.72	1906.21
543.08	1918.07
543.44	1930.59
543.79	1941.92
544.15	1952.95
544.51	1964.49
544.87	1975.60
545.22	1986.50
545.58	1996.75
545.94	2006.56
546.29	2016.53
546.65	2026.26
547.01	2035.38
547.36	2044.30
547.72	2052.75
548.07	2060.50
548.43	2068.66
548.79	2076.78
549.14	2084.40
549.50	2091.87
549.86	2099.56
550.21	2106.69
550.57	2113.91
550.92	2120.43
551.28	2127.67
551.64	2134.74
551.99	2141.45
552.35	2147.46
552.70	2153.62
553.06	2159.56
553.41	2165.89
553.77	2171.78
554.13	2177.96
554.48	2184.28
554.84	2189.62
555.19	2194.97
555.55	2200.01
555.90	2204.41
556.26	2208.97
556.61	2213.74
556.97	2217.83
557.32	2222.00
557.68	2226.37
558.03	2230.56
558.39	2234.29
558.74	2238.77
559.10	2242.54
559.45	2245.99
559.81	2250.35
560.16	2254.10
560.52	2257.45
560.87	2260.83
561.23	2263.53
561.58	2266.41
561.94	2268.92
562.29	2271.32
562.64	2273.99
563.00	2276.67
563.35	2280.14
563.71	2283.30
564.06	2286.37
564.42	2289.26
564.77	2291.57
565.12	2293.73
565.48	2295.48
565.83	2297.20
566.19	2298.53
566.54	2299.51
566.89	2300.69
567.25	2301.19
567.60	2302.40
567.96	2303.89
568.31	2304.72
568.66	2305.69
569.02	2306.30
569.37	2306.42
569.72	2307.07
570.08	2307.13
570.43	2306.90
570.78	2306.12
571.14	2304.54
571.49	2303.24
571.84	2302.88
572.20	2301.69
572.55	2300.53
572.90	2299.09
573.26	2297.68
573.61	2295.86
573.96	2293.89
574.31	2290.67
574.67	2287.64
575.02	2283.93
575.37	2280.36
575.72	2276.44
576.08	2273.08
576.43	2269.70
576.78	2265.92
577.13	2262.96
577.49	2259.81
577.84	2256.38
578.19	2252.65
578.54	2248.92
578.90	2244.45
579.25	2238.74
579.60	2233.75
579.95	2228.56
580.30	2223.31
580.66	2218.13
581.01	2213.09
581.36	2208.09
581.71	2203.90
582.06	2199.37
582.42	2194.91
582.77	2189.74
583.12	2185.06
583.47	2180.07
583.82	2174.80
584.17	2169.47
584.53	2163.71
584.88	2157.81
585.23	2151.81
585.58	2146.40
585.93	2140.95
586.28	2136.17
586.63	2131.00
586.98	2125.75
587.34	2121.17
587.69	2116.24
588.04	2110.87
588.39	2104.87
588.74	2098.36
589.09	2092.19
589.44	2085.27
589.79	2079.18
590.14	2073.54
590.49	2066.73
590.84	2060.33
591.19	2054.36
591.54	2047.86
591.89	2040.19
592.25	2033.39
592.60	2026.23
592.95	2018.45
593.30	2010.95
593.65	2003.24
594.00	1996.17
594.35	1988.90
594.70	1980.80
595.05	1973.48
595.40	1966.13
595.75	1958.75
596.10	1952.43
596.45	1945.39
596.80	1938.99
597.15	1932.12
597.50	1924.73
597.85	1918.43
598.19	1911.79
598.54	1904.58
598.89	1897.95
599.24	1892.16
599.59	1885.37
599.94	1879.09
600.29	1872.62
600.64	1866.04
600.99	1858.55
601.34	1851.59
601.69	1844.56
602.04	1837.48
602.39	1830.11
602.74	1823.18
603.08	1816.45
603.43	1809.68
603.78	1802.51
604.13	1795.39
604.48	1788.04
604.83	1781.26
605.18	1774.14
605.53	1766.12
605.87	1757.99
606.22	1750.67
606.57	1742.69
606.92	1735.42
607.27	1728.25
607.62	1721.34
607.96	1713.92
608.31	1707.37
608.66	1699.74
609.01	1692.26
609.36	1684.57
609.70	1676.51
610.05	1668.37
610.40	1660.73
610.75	1652.33
611.10	1644.67
611.44	1636.30
611.79	1628.50
612.14	1619.75
612.49	1610.71
612.83	1602.32
613.18	1594.25
613.53	1586.07
613.88	1577.47
614.22	1569.17
614.57	1560.52
614.92	1552.54
615.27	1545.06
615.61	1536.65
615.96	1528.69
616.31	1521.07
616.65	1513.81
617.00	1506.24
617.35	1498.76
617.70	1490.19
618.04	1481.77
618.39	1473.44
618.74	1465.84
619.08	1457.44
619.43	1449.96
619.78	1443.02
620.12	1435.86
620.47	1428.35
620.82	1420.30
621.16	1413.08
621.51	1405.48
621.85	1397.99
622.20	1389.44
622.55	1381.12
622.89	1373.28
623.24	1365.73
623.59	1358.30
623.93	1350.87
624.28	1343.65
624.62	1336.03
624.97	1328.89
625.32	1322.15
625.66	1315.17
626.01	1307.88
626.35	1300.45
626.70	1292.66
627.04	1284.81
627.39	1277.06
627.73	1269.61
628.08	1262.68
628.43	1255.21
628.77	1247.67
629.12	1240.05
629.46	1232.82
629.81	1225.38
630.15	1218.15
630.50	1210.69
630.84	1202.50
631.19	1194.49
631.53	1187.02
631.88	1179.52
632.22	1172.03
632.57	1164.78
632.91	1157.37
633.26	1150.04
633.60	1142.70
633.95	1135.61
634.29	1128.69
634.64	1122.01
634.98	1114.78
635.32	1107.64
635.67	1101.16
636.01	1094.64
636.36	1087.82
636.70	1081.44
637.05	1074.94
637.39	1068.45
637.73	1062.01
638.08	1056.12
638.42	1050.26
638.77	1043.88
639.11	1037.27
639.45	1030.87
639.80	1024.13
640.14	1017.68
640.49	1011.23
640.83	1004.96
641.17	998.72
641.52	992.36
641.86	985.98
642.20	980.08
642.55	973.82
642.89	967.34
643.23	960.86
643.58	955.11
643.92	948.87
644.26	942.74
644.61	936.81
644.95	930.82
645.29	924.26
645.64	917.45
645.98	911.16
646.32	905.31
646.66	899.30
647.01	893.52
647.35	887.77
647.69	881.88
648.04	876.38
648.38	870.57
648.72	864.57
649.06	858.52
649.41	852.67
649.75	846.61
650.09	840.63
650.43	834.78
650.78	828.54
651.12	822.60
651.46	816.91
651.80	811.09
652.14	805.61
652.49	800.26
652.83	795.09
653.17	789.35
653.51	783.65
653.85	778.29
654.20	772.65
654.54	766.64
654.88	760.86
655.22	754.97
655.56	749.29
655.90	743.86
656.25	738.58
656.59	733.17
656.93	728.07
657.27	722.86
657.61	717.46
657.95	712.37
658.29	707.31
658.64	702.12
658.98	696.88
659.32	691.45
659.66	686.22
660.00	680.95
660.34	675.98
660.68	671.14
661.02	666.15
661.36	661.49
661.70	657.07
662.05	652.81
662.39	648.49
662.73	644.12
663.07	639.79
663.41	635.35
663.75	630.89
664.09	626.46
664.43	622.19
664.77	618.08
665.11	613.89
665.45	609.84
665.79	605.77
666.13	601.63
666.47	597.54
666.81	593.40
667.15	589.26
667.49	585.40
667.83	581.57
668.17	577.55
668.51	573.46
668.85	569.53
669.19	565.64
669.53	561.79
669.87	557.89
670.21	554.15
670.55	550.55
670.89	547.16
671.23	543.71
671.57	540.17
671.91	536.71
672.25	533.26
672.58	529.72
672.92	526.33
673.26	523.18
673.60	520.01
673.94	516.97
674.28	514.07
674.62	511.14
674.96	508.02
675.30	505.19
675.64	502.32
675.97	499.55
676.31	496.72
676.65	493.85
676.99	491.16
677.33	488.37
677.67	485.53
678.01	482.48
678.34	479.49
678.68	476.61
679.02	473.76
679.36	470.97
679.70	468.30
680.04	465.54
680.37	462.60
680.71	459.85
681.05	457.19
681.39	454.47
681.73	451.88
682.06	449.38
682.40	446.84
682.74	444.31
683.08	441.70
683.42	439.10
683.75	436.61
684.09	434.09
684.43	431.61
684.77	429.14
685.10	426.86
685.44	424.58
685.78	422.30
686.12	420.06
686.45	417.81
686.79	415.46
687.13	413.24
687.46	411.21
687.80	409.05
688.14	406.86
688.48	404.86
688.81	402.54
689.15	400.36
689.49	398.19
689.82	396.03
690.16	393.98
690.50	392.01
690.83	390.04
691.17	388.06
691.51	386.16
691.84	384.34
692.18	382.35
692.52	380.33
692.85	378.40
693.19	376.53
693.52	374.69
693.86	372.89
694.20	371.11
694.53	369.27
694.87	367.41
695.21	365.64
695.54	363.81
695.88	362.14
696.21	360.43
696.55	358.76
696.88	357.14
697.22	355.52
697.56	353.91
697.89	352.29
698.23	350.66
698.56	349.06
698.90	347.49
699.23	345.89
699.57	344.40
699.90	342.85
700.24	341.31
700.58	339.75
700.91	338.27
701.25	336.83
701.58	335.44
701.92	334.11
702.25	332.77
702.59	331.39
702.92	330.02
703.26	328.73
703.59	327.46
703.93	326.24
704.26	325.00
704.60	323.68
704.93	322.38
705.26	321.12
705.60	319.92
705.93	318.72
706.27	317.65
706.60	316.62
706.94	315.60
707.27	314.47
707.61	313.47
707.94	312.43
708.27	311.37
708.61	310.32
708.94	309.31
709.28	308.33
709.61	307.41
709.94	306.53
710.28	305.52
710.61	304.56
710.95	303.50
711.28	302.61
711.61	301.68
711.95	300.77
712.28	299.88
712.61	298.92
712.95	298.04
713.28	297.19
713.61	296.25
713.95	295.33
714.28	294.55
714.61	293.68
714.95	292.87
715.28	291.99
715.61	291.11
715.95	290.27
716.28	289.38
716.61	288.52
716.95	287.71
717.28	286.98
717.61	286.22
717.94	285.53
718.28	284.68
718.61	283.99
718.94	283.33
719.27	282.66
719.61	282.06
719.94	281.41
720.27	280.65
720.60	280.04
720.94	279.43
721.27	278.80
721.60	278.21
721.93	277.60
722.27	277.07
722.60	276.55
722.93	276.00
723.26	275.43
723.59	274.85
723.93	274.29
724.26	273.74
724.59	273.17
724.92	272.63
725.25	272.11
725.59	271.55
725.92	271.07
726.25	270.56
726.58	270.01
726.91	269.50
727.24	269.05
727.57	268.60
727.91	268.08
728.24	267.63
728.57	267.14
728.90	266.70
729.23	266.19
729.56	265.71
729.89	265.24
730.22	264.78
730.55	264.37
730.89	263.91
731.22	263.46
731.55	263.04
731.88	262.64
732.21	262.22
732.54	261.79
732.87	261.33
733.20	260.94
733.53	260.57
733.86	260.21
734.19	259.84
734.52	259.43
734.85	259.11
735.18	258.68
735.51	258.32
735.84	257.93
736.17	257.59
736.50	257.17
736.83	256.93
737.16	256.62
737.49	256.28
737.82	255.91
738.15	255.58
738.48	255.20
738.81	254.84
739.14	254.51
739.47	254.19
739.80	253.92
740.13	253.57
740.46	253.23
740.79	252.90
741.12	252.57
741.45	252.25
741.78	251.91
742.11	251.62
742.44	251.30
742.77	251.00
743.10	250.67
743.43	250.41
743.75	250.03
744.08	249.87
744.41	249.58
744.74	249.31
745.07	248.99
745.40	248.75
745.73	248.49
746.06	248.28
746.39	248.02
746.71	247.70
747.04	247.47
747.37	247.20
747.70	246.96
748.03	246.71
748.36	246.47
748.68	246.25
749.01	246.02
749.34	245.79
749.67	245.54
750.00	245.35
750.33	245.19
750.65	244.97
750.98	244.65
751.31	244.43
751.64	244.26
751.97	244.12
752.29	243.94
752.62	243.70
752.95	243.47
753.28	243.30
753.60	243.15
753.93	242.94
754.26	242.81
754.59	242.57
754.91	242.38
755.24	242.22
755.57	242.00
755.90	241.84
756.22	241.67
756.55	241.51
756.88	241.35
757.20	241.13
757.53	240.95
757.86	240.80
758.19	240.63
758.51	240.46
758.84	240.27
759.17	240.07
759.49	239.97
759.82	239.85
760.15	239.67
760.47	239.51
760.80	239.36
761.13	239.21
761.45	239.07
761.78	238.92
762.11	238.76
762.43	238.64
762.76	238.50
763.08	238.39
763.41	238.28
763.74	238.14
764.06	238.00
764.39	237.83
764.71	237.67
765.04	237.53
765.37	237.41
765.69	237.30
766.02	237.17
766.34	237.03
766.67	236.87
767.00	236.78
767.32	236.74
767.65	236.70
767.97	236.56
768.30	236.47
768.62	236.37
768.95	236.29
769.27	236.17
769.60	236.07
769.92	235.94
770.25	235.81
770.57	235.66
770.90	235.54
771.22	235.46
771.55	235.36
771.87	235.27
772.20	235.18
772.52	235.14
772.85	235.19
773.17	235.10
773.50	235.01
773.82	234.91
774.15	234.73
774.47	234.58
774.80	234.46
775.12	234.32
775.45	234.23
775.77	234.12
776.09	234.06
776.42	233.96
776.74	233.87
777.07	233.80
777.39	233.72
777.72	233.65
778.04	233.57
778.36	233.47
778.69	233.40
779.01	233.32
779.33	233.17
779.66	232.97
779.98	232.87
780.31	232.80
780.63	232.76
780.95	232.75
781.28	232.69
781.60	232.64
781.92	232.58
782.25	232.50
782.57	232.44
782.89	232.34
783.22	232.27
783.54	232.21
783.86	232.15
784.19	232.07
784.51	232.05
784.83	232.00
785.16	231.93
785.48	231.90
785.80	231.82
786.12	231.78
786.45	231.71
786.77	231.67
787.09	231.60
787.42	231.50
787.74	231.44
788.06	231.37
788.38	231.30
788.71	231.28
789.03	231.23
789.35	231.19
789.67	231.14
789.99	231.12
790.32	231.06
790.64	231.00
790.96	231.04
791.28	230.98
791.61	230.94
791.93	230.94
792.25	230.84
792.57	230.89
792.89	230.83
793.21	230.82
793.54	230.79
793.86	230.73
794.18	230.73
794.50	230.67
794.82	230.64
795.14	230.64
795.47	230.61
795.79	230.61
796.11	230.54
796.43	230.50
796.75	230.45
797.07	230.41
797.39	230.38
797.71	230.32
798.04	230.28
798.36	230.24
798.68	230.21
799.00	230.23
799.32	230.17
799.64	230.17
799.96	230.14
800.28	230.16
800.60	230.15
800.92	230.10
801.24	230.09
801.56	230.07
801.89	230.01
802.21	230.00
802.53	229.94
802.85	229.97
803.17	230.02
803.49	229.99
803.81	229.99
804.13	230.01
804.45	229.97
804.77	229.95
805.09	229.97
805.41	229.93
805.73	229.90
806.05	229.84
806.37	229.82
806.69	229.78
807.01	229.74
807.33	229.74
807.65	229.71
807.97	229.71
808.28	229.69
808.60	229.71
808.92	229.68
809.24	229.71
809.56	229.67
809.88	229.62
810.20	229.58
810.52	229.56
810.84	229.51
811.16	229.48
811.48	229.44
811.80	229.43
812.12	229.41
812.43	229.39
812.75	229.35
813.07	229.29
813.39	229.26
813.71	229.23
814.03	229.19
814.35	229.16
814.67	229.10
814.98	229.05
815.30	229.02
815.62	228.97
815.94	228.88
816.26	228.89
816.58	228.85
816.89	228.83
817.21	228.77
817.53	228.73
817.85	228.73
818.17	228.68
818.48	228.65
818.80	228.65
819.12	228.63
819.44	228.63
819.76	228.62
820.07	228.62
820.39	228.57
820.71	228.60
821.03	228.57
821.34	228.53
821.66	228.54
821.98	228.52
822.30	228.50
822.61	228.57
822.93	228.47
823.25	228.49
823.57	228.45
823.88	228.46
824.20	228.45
824.52	228.44
824.83	228.42
825.15	228.38
825.47	228.34
825.79	228.29
826.10	228.27
826.42	228.23
826.74	228.17
827.05	228.16
827.37	228.15
827.69	228.11
828.00	228.13
828.32	228.09
828.64	228.08
828.95	228.13
829.27	228.06
829.58	228.08
829.90	228.06
830.22	228.07
830.53	228.08
830.85	228.10
831.17	228.06
831.48	228.07
831.80	228.08
832.11	228.04
832.43	228.04
832.75	228.03
833.06	228.09
833.38	228.12
833.69	228.10
834.01	228.08
834.32	228.09
834.64	228.03
834.96	228.04
835.27	228.05
835.59	228.03
835.90	228.02
836.22	228.00
836.53	227.97
836.85	227.98
837.16	228.03
837.48	227.99
837.79	228.04
838.11	228.00
838.42	227.99
838.74	228.03
839.05	228.02
839.37	228.00
839.68	227.94
840.00	227.89
840.31	227.94
840.63	227.90
840.94	227.87
841.26	227.90
841.57	227.90
841.88	227.87
842.20	227.84
842.51	227.81
842.83	227.81
843.14	227.89
843.46	227.87
843.77	227.82
844.08	227.82
844.40	227.78
844.71	227.82
845.03	227.85
845.34	227.83
845.65	227.84
845.97	227.83
846.28	227.85
846.60	227.88
846.91	227.83
847.22	227.86
847.54	227.87
847.85	227.86
848.16	227.84
848.48	227.81
848.79	227.85
849.10	227.89
849.42	227.89
849.73	227.81
850.04	227.82
850.36	227.76
850.67	227.74
850.98	227.74
851.30	227.72
851.61	227.72
851.92	227.73
852.23	227.73
852.55	227.78
852.86	227.74
853.17	227.74
853.49	227.77
853.80	227.81
854.11	227.81
854.42	227.83
854.74	227.80
855.05	227.82
855.36	227.76
855.67	227.77
855.99	227.75
856.30	227.83
856.61	227.82
856.92	227.82
857.23	227.84
857.55	227.80
857.86	227.79
858.17	227.75
858.48	227.73
858.79	227.72
859.11	227.71
859.42	227.71
859.73	227.71
860.04	227.68
860.35	227.61
860.66	227.56
860.98	227.54
861.29	227.56
861.60	227.54
861.91	227.57
862.22	227.51
862.53	227.53
862.84	227.43
863.16	227.44
863.47	227.41
863.78	227.39
864.09	227.43
864.40	227.42
864.71	227.43
865.02	227.41
865.33	227.40
865.64	227.39
865.95	227.38
866.27	227.41
866.58	227.39
866.89	227.40
867.20	227.37
867.51	227.35
867.82	227.33
868.13	227.35
868.44	227.32
868.75	227.32
869.06	227.29
869.37	227.27
869.68	227.26
869.99	227.32
870.30	227.34
870.61	227.32
870.92	227.30
871.23	227.28
871.54	227.30
871.85	227.29
872.16	227.30
872.47	227.30
872.78	227.25
873.09	227.27
873.40	227.27
873.71	227.32
874.02	227.33
874.33	227.31
874.64	227.31
874.95	227.28
875.26	227.27
875.56	227.30
875.87	227.31
876.18	227.31
876.49	227.36
876.80	227.31
877.11	227.29
877.42	227.29
877.73	227.28
878.04	227.24
878.35	227.25
878.66	227.22
878.96	227.21
879.27	227.18
879.58	227.17
879.89	227.14
880.20	227.18
880.51	227.21
880.82	227.23
881.12	227.20
881.43	227.24
881.74	227.26
882.05	227.24
882.36	227.24
882.67	227.25
882.97	227.18
883.28	227.20
883.59	227.20
883.90	227.22
884.21	227.27
884.51	227.33
884.82	227.34
885.13	227.35
885.44	227.37
885.74	227.41
886.05	227.42
886.36	227.43
886.67	227.39
886.98	227.42
887.28	227.42
887.59	227.41
887.90	227.38
888.20	227.38
888.51	227.40
888.82	227.41
889.13	227.37
889.43	227.44
889.74	227.46
890.05	227.48
890.35	227.48
890.66	227.43
890.97	227.39
891.28	227.36
891.58	227.34
891.89	227.33
892.20	227.29
892.50	227.27
892.81	227.28
893.12	227.27
893.42	227.21
893.73	227.22
894.04	227.23
894.34	227.26
894.65	227.26
894.95	227.25
895.26	227.25
895.57	227.33
895.87	227.23
896.18	227.23
896.48	227.22
896.79	227.19
897.10	227.20
897.40	227.21
897.71	227.20
898.01	227.20
898.32	227.21
898.63	227.19
898.93	227.19
899.24	227.20
899.54	227.16
899.85	227.14
900.15	227.15
900.46	227.16
900.76	227.15
901.07	227.14
901.38	227.10
901.68	227.07
901.99	227.02
902.29	227.01
902.60	226.99
902.90	226.96
903.21	226.95
903.51	226.92
903.82	226.92
904.12	226.95
904.43	226.94
904.73	226.92
905.03	226.96
905.34	227.04
905.64	227.04
905.95	227.05
906.25	227.04
906.56	227.01
906.86	226.99
907.17	226.98
907.47	226.95
907.77	226.97
908.08	226.98
908.38	226.97
908.69	226.99
908.99	227.02
909.30	227.04
909.60	227.05
909.90	227.08
910.21	227.06
910.51	227.03
910.81	227.04
911.12	227.04
911.42	227.07
911.73	226.98
912.03	226.99
912.33	227.05
912.64	227.05
912.94	227.02
913.24	227.01
913.55	227.01
913.85	226.98
914.15	227.01
914.46	227.02
914.76	227.01
915.06	227.00
915.37	226.96
915.67	226.95
915.97	226.99
916.27	226.99
916.58	226.99
916.88	226.96
917.18	226.98
917.49	227.06
917.79	227.02
918.09	227.02
918.39	227.02
918.70	226.99
919.00	227.01
919.30	227.06
919.60	227.07
919.91	227.10
920.21	227.15
920.51	227.12
920.81	227.12
921.12	227.15
921.42	227.17
921.72	227.19
922.02	227.18
922.32	227.20
922.63	227.20
922.93	227.24
923.23	227.27
923.53	227.23
923.83	227.16
924.13	227.19
924.44	227.20
924.74	227.23
925.04	227.24
925.34	227.23
925.64	227.18
925.94	227.20
926.24	227.22
926.55	227.18
926.85	227.19
927.15	227.17
927.45	227.16
927.75	227.12
928.05	227.12
928.35	227.14
928.65	227.16
928.95	227.15
929.26	227.13
929.56	227.14
929.86	227.19
930.16	227.17
930.46	227.15
930.76	227.19
931.06	227.16
931.36	227.11
931.66	227.13
931.96	227.18
932.26	227.17
932.56	227.15
932.86	227.15
933.16	227.16
933.46	227.15
933.76	227.13
934.06	227.13
934.36	227.16
934.66	227.17
934.96	227.12
935.26	227.10
935.56	227.12
935.86	227.10
936.16	227.09
936.46	227.08
936.76	227.07
937.06	227.05
937.36	227.04
937.66	227.05
937.96	227.06
938.26	227.03
938.56	227.00
938.86	226.97
939.16	227.00
939.46	227.00
939.76	227.04
940.06	227.04
940.35	227.07
940.65	227.02
940.95	227.01
941.25	226.97
941.55	226.99
941.85	226.98
942.15	226.98
942.45	226.97
942.75	226.98
943.04	226.96
943.34	226.98
943.64	226.94
943.94	226.93
944.24	226.89
944.54	226.91
944.84	226.90
945.13	226.90
945.43	226.87
945.73	226.86
946.03	226.83
946.33	226.80
946.62	226.78
946.92	226.79
947.22	226.80
947.52	226.80
947.82	226.81
948.11	226.79
948.41	226.79
948.71	226.79
949.01	226.79
949.31	226.81
949.60	226.79
949.90	226.83
950.20	226.82
950.50	226.84
950.79	226.82
951.09	226.86
951.39	226.87
951.69	226.87
951.98	226.90
952.28	226.90
952.58	226.95
952.87	226.94
953.17	226.95
953.47	226.95
953.76	226.98
954.06	226.96
954.36	226.94
954.66	226.94
954.95	226.96
955.25	226.97
955.55	226.96
955.84	226.95
956.14	226.97
956.44	226.99
956.73	226.99
957.03	227.01
957.32	227.01
957.62	227.02
957.92	227.05
958.21	227.03
958.51	227.15
958.81	227.14
959.10	227.15
959.40	227.17
959.69	227.13
959.99	227.13
960.29	227.15
960.58	227.19
960.88	227.20
961.17	227.20
961.47	227.23
961.76	227.20
962.06	227.23
962.36	227.19
962.65	227.18
962.95	227.15
963.24	227.16
963.54	227.16
963.83	227.15
964.13	227.14
964.42	227.10
964.72	227.02
965.01	227.02
965.31	227.05
965.60	227.04
965.90	227.08
966.19	227.02
966.49	227.02
966.78	226.97
967.08	226.97
967.37	226.94
967.67	226.91
967.96	226.93
968.26	226.86
968.55	226.88
968.85	226.85
969.14	226.87
969.43	226.84
969.73	226.80
970.02	226.79
970.32	226.77
970.61	226.78
970.91	226.74
971.20	226.74
971.49	226.68
971.79	226.68
972.08	226.62
972.38	226.63
972.67	226.60
972.96	226.60
973.26	226.58
973.55	226.60
973.85	226.62
974.14	226.61
974.43	226.68
974.73	226.65
975.02	226.64
975.31	226.66
975.61	226.66
975.90	226.66
976.19	226.66
976.49	226.68
976.78	226.65
977.07	226.63
977.37	226.63
977.66	226.63
977.95	226.61
978.24	226.66
978.54	226.68
978.83	226.65
979.12	226.63
979.42	226.64
979.71	226.64
980.00	226.62
980.29	226.60
980.59	226.57
980.88	226.61
981.17	226.61
981.46	226.57
981.76	226.57
982.05	226.58
982.34	226.56
982.63	226.54
982.93	226.58
983.22	226.59
983.51	226.60
983.80	226.61
984.09	226.63
984.39	226.63
984.68	226.64
984.97	226.65
985.26	226.66
985.55	226.68
985.85	226.64
986.14	226.66
986.43	226.69
986.72	226.68
987.01	226.66
987.30	226.68
987.59	226.69
987.89	226.69
988.18	226.67
988.47	226.69
988.76	226.70
989.05	226.71
989.34	226.70
989.63	226.73
989.92	226.74
990.22	226.72
990.51	226.71
990.80	226.71
991.09	226.76
991.38	226.79
991.67	226.81
991.96	226.82
992.25	226.80
992.54	226.77
992.83	226.76
993.12	226.78
993.41	226.78
993.70	226.83
993.99	226.86
994.28	226.90
994.58	226.93
994.87	226.95
995.16	226.94
995.45	226.94
995.74	226.88
996.03	226.88
996.32	226.93
996.61	226.96
996.90	226.99
997.19	226.95
997.48	226.93
997.77	226.91
998.06	226.94
998.34	226.96
998.63	226.99
998.92	226.98
999.21	226.98
999.50	226.98
999.79	226.96
1000.08	226.93
1000.37	226.94
1000.66	226.91
1000.95	226.88
1001.24	226.88
1001.53	226.89
1001.82	226.90
1002.11	226.89
1002.40	226.87
1002.68	226.87
1002.97	226.89
1003.26	226.87
1003.55	226.87
1003.84	226.88
1004.13	226.91
1004.42	226.85
1004.71	226.85
1004.99	226.89
1005.28	226.92
1005.57	226.94
1005.86	226.91
1006.15	226.90
1006.44	226.88
1006.72	226.86
1007.01	226.84
1007.30	226.85
1007.59	226.85
1007.88	226.88
1008.17	226.87
1008.45	226.86
1008.74	226.83
1009.03	226.78
1009.32	226.80
1009.60	226.76
1009.89	226.72
1010.18	226.65
1010.47	226.67
1010.76	226.64
1011.04	226.57
1011.33	226.56
1011.62	226.54
1011.91	226.54
1012.19	226.56
1012.48	226.56
1012.77	226.58
1013.05	226.67
1013.34	226.63
1013.63	226.62
1013.92	226.62
1014.20	226.62
1014.49	226.60
1014.78	226.59
1015.06	226.56
1015.35	226.55
1015.64	226.59
1015.92	226.60
1016.21	226.62
1016.50	226.61
1016.78	226.62
1017.07	226.66
1017.36	226.61
1017.64	226.58
1017.93	226.59
1018.22	226.56
1018.50	226.56
1018.79	226.56
1019.08	226.47
1019.36	226.51
1019.65	226.49
1019.93	226.53
1020.22	226.56
1020.51	226.61
1020.79	226.61
1021.08	226.27
1021.36	226.58
1021.65	226.82
1021.94	226.19
1022.22	227.07
1022.51	226.38
1022.79	227.59
1023.08	227.01
1023.36	227.69
1023.65	226.33
>>>>>End Processed Spectral Data<<<<<
