SpectraSuite Data File
++++++++++++++++++++++++++++++++++++
Date: Fri Feb 01 15:25:29 EST 2013
User: group
Dark Spectrum Present: No
Reference Spectrum Present: No
Number of Sampled Component Spectra: 1
Spectrometers: USB2E7196
Integration Time (usec): 35000 (USB2E7196)
Spectra Averaged: 100 (USB2E7196)
Boxcar Smoothing: 10 (USB2E7196)
Correct for Electrical Dark: No (USB2E7196)
Strobe/Lamp Enabled: No (USB2E7196)
Correct for Detector Non-linearity: No (USB2E7196)
Correct for Stray Light: No (USB2E7196)
Number of Pixels in Processed Spectrum: 2048
>>>>>Begin Processed Spectral Data<<<<<
339.09	0.00
339.48	215.11
339.86	216.17
340.24	217.62
340.63	219.41
341.01	222.46
341.39	221.69
341.78	223.36
342.16	224.73
342.54	224.78
342.93	213.30
343.31	224.12
343.69	224.64
344.07	225.13
344.46	225.57
344.84	225.95
345.22	226.18
345.60	226.43
345.99	226.62
346.37	226.74
346.75	226.86
347.13	226.95
347.52	227.02
347.90	227.11
348.28	227.17
348.66	227.20
349.05	227.19
349.43	227.24
349.81	227.33
350.19	227.35
350.57	227.45
350.96	227.53
351.34	227.61
351.72	227.71
352.10	227.80
352.48	227.87
352.87	227.92
353.25	228.01
353.63	228.08
354.01	228.14
354.39	228.22
354.77	228.29
355.15	228.39
355.54	228.44
355.92	228.45
356.30	228.55
356.68	228.73
357.06	228.78
357.44	228.87
357.82	228.92
358.20	229.01
358.58	229.08
358.97	229.13
359.35	229.16
359.73	229.25
360.11	229.34
360.49	229.40
360.87	229.47
361.25	229.52
361.63	229.59
362.01	229.66
362.39	229.69
362.77	229.74
363.15	229.78
363.53	229.82
363.91	229.86
364.29	229.86
364.67	229.74
365.05	229.76
365.43	229.76
365.81	229.79
366.19	229.81
366.57	229.82
366.95	229.83
367.33	229.83
367.71	229.81
368.09	229.80
368.47	229.77
368.85	229.72
369.23	229.70
369.61	229.63
369.99	229.61
370.37	229.57
370.75	229.59
371.13	229.53
371.51	229.46
371.89	229.40
372.27	229.39
372.65	229.36
373.03	229.30
373.41	229.24
373.78	229.16
374.16	229.04
374.54	228.95
374.92	228.84
375.30	228.75
375.68	228.64
376.06	228.57
376.44	228.48
376.82	228.43
377.19	228.34
377.57	228.27
377.95	228.17
378.33	228.11
378.71	227.94
379.09	227.91
379.47	227.87
379.84	227.82
380.22	227.72
380.60	227.62
380.98	227.57
381.36	227.50
381.73	227.41
382.11	227.38
382.49	227.33
382.87	227.28
383.25	227.23
383.62	227.26
384.00	227.15
384.38	227.15
384.76	227.09
385.13	227.08
385.51	227.04
385.89	226.97
386.27	226.91
386.64	226.88
387.02	226.78
387.40	226.73
387.78	226.67
388.15	226.59
388.53	226.57
388.91	226.54
389.29	226.52
389.66	226.51
390.04	226.46
390.42	226.44
390.79	226.44
391.17	226.43
391.55	226.35
391.92	226.39
392.30	226.36
392.68	226.34
393.05	226.32
393.43	226.28
393.81	226.31
394.18	226.30
394.56	226.32
394.94	226.37
395.31	226.39
395.69	226.43
396.06	226.49
396.44	226.52
396.82	226.53
397.19	226.61
397.57	226.67
397.95	226.75
398.32	226.79
398.70	226.84
399.07	226.90
399.45	226.94
399.82	226.99
400.20	227.05
400.58	227.14
400.95	227.17
401.33	227.29
401.70	227.43
402.08	227.57
402.45	227.67
402.83	227.81
403.20	227.92
403.58	228.02
403.95	228.17
404.33	228.30
404.71	228.43
405.08	228.59
405.46	228.70
405.83	228.81
406.21	228.94
406.58	229.11
406.96	229.28
407.33	229.47
407.70	229.66
408.08	229.93
408.45	230.17
408.83	230.44
409.20	230.66
409.58	230.86
409.95	231.11
410.33	231.36
410.70	231.56
411.08	231.83
411.45	232.14
411.82	232.45
412.20	232.77
412.57	233.18
412.95	233.46
413.32	233.89
413.69	234.32
414.07	234.77
414.44	235.22
414.82	235.73
415.19	236.27
415.56	236.79
415.94	237.33
416.31	237.96
416.68	238.56
417.06	239.30
417.43	239.98
417.81	240.76
418.18	241.55
418.55	242.40
418.93	243.30
419.30	244.19
419.67	245.09
420.04	246.04
420.42	247.06
420.79	248.26
421.16	249.41
421.54	250.62
421.91	251.82
422.28	253.08
422.66	254.40
423.03	255.74
423.40	257.12
423.77	258.52
424.15	259.90
424.52	261.39
424.89	263.02
425.26	264.57
425.64	266.05
426.01	267.66
426.38	269.31
426.75	271.01
427.13	272.74
427.50	274.58
427.87	276.49
428.24	278.32
428.61	280.06
428.99	282.03
429.36	284.13
429.73	286.19
430.10	288.21
430.47	290.26
430.85	292.37
431.22	294.59
431.59	296.99
431.96	299.24
432.33	301.75
432.70	304.09
433.08	306.89
433.45	309.50
433.82	312.11
434.19	315.02
434.56	317.84
434.93	320.51
435.30	323.17
435.68	326.08
436.05	328.94
436.42	331.75
436.79	334.22
437.16	336.92
437.53	339.77
437.90	342.63
438.27	345.38
438.64	348.20
439.01	350.82
439.38	353.07
439.75	355.29
440.13	357.79
440.50	360.14
440.87	362.02
441.24	363.96
441.61	366.13
441.98	367.65
442.35	369.44
442.72	371.30
443.09	373.15
443.46	374.12
443.83	374.70
444.20	375.21
444.57	376.04
444.94	376.35
445.31	376.75
445.68	377.08
446.05	377.13
446.42	376.71
446.79	376.29
447.16	375.89
447.53	375.56
447.90	374.37
448.27	373.18
448.64	371.58
449.01	370.47
449.37	368.46
449.74	366.54
450.11	364.29
450.48	361.83
450.85	359.22
451.22	357.09
451.59	355.07
451.96	353.12
452.33	350.56
452.70	348.17
453.07	345.30
453.43	342.39
453.80	339.66
454.17	337.04
454.54	334.46
454.91	331.68
455.28	329.02
455.65	326.51
456.02	324.13
456.38	322.00
456.75	319.27
457.12	317.02
457.49	314.78
457.86	312.58
458.23	310.70
458.59	308.65
458.96	306.56
459.33	304.67
459.70	302.77
460.07	301.24
460.43	299.52
460.80	297.87
461.17	296.45
461.54	294.91
461.91	293.45
462.27	291.96
462.64	290.68
463.01	289.36
463.38	288.10
463.74	286.69
464.11	285.50
464.48	284.53
464.85	283.41
465.21	282.54
465.58	281.61
465.95	280.46
466.32	279.55
466.68	278.65
467.05	277.77
467.42	276.90
467.78	275.92
468.15	275.06
468.52	274.38
468.88	273.48
469.25	272.69
469.62	272.06
469.98	271.41
470.35	270.78
470.72	270.11
471.08	269.44
471.45	268.92
471.82	268.35
472.18	267.73
472.55	267.33
472.92	266.82
473.28	266.36
473.65	265.96
474.02	265.51
474.38	265.14
474.75	264.79
475.11	264.40
475.48	264.18
475.85	263.92
476.21	263.70
476.58	263.50
476.94	263.36
477.31	263.17
477.67	263.03
478.04	262.92
478.41	262.88
478.77	262.91
479.14	262.84
479.50	262.87
479.87	262.95
480.23	263.01
480.60	263.09
480.96	263.15
481.33	263.35
481.69	263.55
482.06	263.78
482.42	264.00
482.79	264.32
483.15	264.63
483.52	265.04
483.88	265.39
484.25	265.78
484.61	266.24
484.98	266.71
485.34	267.28
485.71	267.84
486.07	268.46
486.44	269.02
486.80	269.70
487.17	270.44
487.53	271.24
487.90	272.10
488.26	273.02
488.62	274.05
488.99	275.05
489.35	276.11
489.72	277.26
490.08	278.49
490.44	279.73
490.81	281.04
491.17	282.39
491.54	283.88
491.90	285.45
492.26	287.08
492.63	288.82
492.99	290.55
493.36	292.52
493.72	294.51
494.08	296.65
494.45	298.86
494.81	301.25
495.17	303.67
495.54	306.21
495.90	308.90
496.26	311.69
496.63	314.66
496.99	317.75
497.35	320.94
497.72	324.33
498.08	327.90
498.44	331.61
498.80	335.48
499.17	339.47
499.53	343.59
499.89	347.95
500.26	352.45
500.62	357.17
500.98	362.09
501.34	367.20
501.71	372.55
502.07	377.97
502.43	383.53
502.79	389.37
503.16	395.44
503.52	401.73
503.88	408.13
504.24	414.74
504.60	421.60
504.97	428.74
505.33	436.02
505.69	443.67
506.05	451.42
506.41	459.36
506.78	467.56
507.14	476.08
507.50	484.83
507.86	493.89
508.22	503.11
508.59	512.31
508.95	521.85
509.31	531.64
509.67	541.84
510.03	552.16
510.39	562.70
510.75	573.51
511.12	584.45
511.48	595.80
511.84	607.21
512.20	618.81
512.56	630.84
512.92	643.05
513.28	655.34
513.64	667.93
514.00	680.56
514.37	693.49
514.73	706.54
515.09	719.57
515.45	732.82
515.81	746.35
516.17	760.28
516.53	774.43
516.89	788.60
517.25	802.77
517.61	817.27
517.97	831.74
518.33	846.18
518.69	860.97
519.05	875.87
519.41	891.15
519.77	906.69
520.13	922.12
520.49	937.53
520.85	953.03
521.21	968.64
521.57	985.06
521.93	1000.96
522.29	1017.36
522.65	1033.63
523.01	1049.93
523.37	1066.02
523.73	1082.38
524.09	1098.41
524.45	1114.78
524.81	1131.44
525.17	1148.30
525.53	1165.31
525.89	1182.27
526.25	1199.10
526.61	1215.60
526.97	1232.35
527.33	1248.85
527.68	1265.51
528.04	1282.06
528.40	1298.70
528.76	1315.88
529.12	1332.43
529.48	1349.21
529.84	1365.27
530.20	1382.08
530.56	1399.17
530.91	1416.63
531.27	1433.39
531.63	1450.04
531.99	1466.65
532.35	1482.71
532.71	1498.65
533.07	1514.90
533.42	1530.86
533.78	1547.04
534.14	1563.40
534.50	1578.85
534.86	1594.77
535.21	1609.87
535.57	1625.86
535.93	1641.50
536.29	1656.27
536.65	1671.52
537.00	1686.48
537.36	1701.95
537.72	1716.49
538.08	1730.94
538.44	1744.87
538.79	1758.87
539.15	1772.68
539.51	1786.58
539.87	1800.92
540.22	1814.53
540.58	1828.42
540.94	1841.90
541.29	1855.02
541.65	1867.82
542.01	1881.21
542.37	1893.61
542.72	1906.17
543.08	1918.02
543.44	1930.42
543.79	1941.89
544.15	1952.85
544.51	1964.41
544.87	1975.35
545.22	1986.13
545.58	1996.38
545.94	2006.06
546.29	2015.91
546.65	2025.73
547.01	2034.88
547.36	2043.62
547.72	2052.32
548.07	2060.23
548.43	2068.27
548.79	2076.23
549.14	2083.74
549.50	2091.09
549.86	2098.81
550.21	2106.12
550.57	2113.21
550.92	2119.86
551.28	2126.89
551.64	2133.92
551.99	2140.54
552.35	2146.71
552.70	2152.87
553.06	2158.89
553.41	2165.30
553.77	2171.39
554.13	2177.46
554.48	2183.74
554.84	2189.18
555.19	2194.48
555.55	2199.61
555.90	2204.03
556.26	2208.89
556.61	2213.68
556.97	2217.74
557.32	2221.94
557.68	2226.11
558.03	2230.55
558.39	2234.30
558.74	2238.92
559.10	2242.74
559.45	2246.34
559.81	2250.78
560.16	2254.62
560.52	2257.82
560.87	2261.44
561.23	2264.10
561.58	2267.05
561.94	2269.58
562.29	2272.09
562.64	2274.56
563.00	2277.03
563.35	2280.78
563.71	2283.78
564.06	2286.82
564.42	2289.73
564.77	2292.18
565.12	2294.41
565.48	2296.18
565.83	2297.91
566.19	2299.18
566.54	2300.25
566.89	2301.40
567.25	2301.87
567.60	2303.13
567.96	2304.74
568.31	2305.46
568.66	2306.55
569.02	2307.06
569.37	2307.26
569.72	2307.91
570.08	2308.13
570.43	2308.25
570.78	2307.31
571.14	2305.76
571.49	2304.53
571.84	2304.22
572.20	2302.93
572.55	2301.87
572.90	2300.31
573.26	2298.97
573.61	2297.08
573.96	2295.11
574.31	2291.94
574.67	2288.75
575.02	2285.14
575.37	2281.65
575.72	2277.63
576.08	2274.13
576.43	2270.75
576.78	2266.98
577.13	2263.80
577.49	2260.55
577.84	2256.92
578.19	2253.38
578.54	2249.74
578.90	2245.30
579.25	2239.74
579.60	2234.71
579.95	2229.71
580.30	2224.65
580.66	2219.35
581.01	2214.40
581.36	2209.41
581.71	2205.26
582.06	2200.75
582.42	2196.19
582.77	2190.86
583.12	2186.32
583.47	2181.50
583.82	2176.37
584.17	2170.98
584.53	2165.45
584.88	2159.77
585.23	2153.88
585.58	2148.40
585.93	2142.85
586.28	2138.18
586.63	2132.90
586.98	2127.76
587.34	2123.03
587.69	2118.02
588.04	2112.59
588.39	2106.81
588.74	2100.32
589.09	2094.11
589.44	2087.30
589.79	2081.22
590.14	2075.60
590.49	2068.84
590.84	2062.33
591.19	2056.26
591.54	2049.87
591.89	2042.38
592.25	2035.62
592.60	2028.43
592.95	2020.56
593.30	2013.15
593.65	2005.42
594.00	1998.19
594.35	1990.96
594.70	1982.82
595.05	1975.42
595.40	1968.18
595.75	1960.59
596.10	1954.27
596.45	1947.33
596.80	1941.06
597.15	1934.25
597.50	1926.98
597.85	1920.61
598.19	1913.99
598.54	1906.84
598.89	1900.07
599.24	1894.21
599.59	1887.43
599.94	1881.11
600.29	1874.80
600.64	1868.23
600.99	1860.63
601.34	1853.92
601.69	1846.87
602.04	1839.82
602.39	1832.59
602.74	1825.75
603.08	1819.12
603.43	1812.28
603.78	1804.92
604.13	1797.72
604.48	1790.34
604.83	1783.60
605.18	1776.45
605.53	1768.37
605.87	1760.29
606.22	1752.95
606.57	1744.89
606.92	1737.48
607.27	1730.27
607.62	1723.31
607.96	1715.92
608.31	1709.30
608.66	1701.54
609.01	1693.93
609.36	1686.31
609.70	1678.17
610.05	1669.98
610.40	1662.23
610.75	1653.98
611.10	1646.27
611.44	1637.94
611.79	1630.03
612.14	1621.28
612.49	1612.24
612.83	1603.89
613.18	1595.87
613.53	1587.79
613.88	1579.29
614.22	1571.03
614.57	1562.52
614.92	1554.50
615.27	1546.91
615.61	1538.46
615.96	1530.53
616.31	1522.86
616.65	1515.54
617.00	1508.03
617.35	1500.53
617.70	1491.99
618.04	1483.38
618.39	1475.26
618.74	1467.54
619.08	1459.21
619.43	1451.63
619.78	1444.67
620.12	1437.57
620.47	1429.99
620.82	1421.90
621.16	1414.46
621.51	1406.89
621.85	1399.24
622.20	1390.62
622.55	1382.27
622.89	1374.41
623.24	1366.82
623.59	1359.53
623.93	1351.91
624.28	1344.65
624.62	1336.97
624.97	1329.99
625.32	1323.36
625.66	1316.39
626.01	1309.15
626.35	1301.69
626.70	1293.93
627.04	1286.15
627.39	1278.43
627.73	1270.97
628.08	1263.95
628.43	1256.63
628.77	1249.17
629.12	1241.48
629.46	1234.27
629.81	1226.89
630.15	1219.79
630.50	1212.36
630.84	1204.10
631.19	1196.25
631.53	1188.77
631.88	1181.16
632.22	1173.58
632.57	1166.17
632.91	1158.60
633.26	1151.25
633.60	1144.00
633.95	1137.07
634.29	1130.06
634.64	1123.28
634.98	1115.99
635.32	1108.92
635.67	1102.35
636.01	1095.75
636.36	1089.02
636.70	1082.64
637.05	1076.09
637.39	1069.57
637.73	1063.04
638.08	1057.27
638.42	1051.32
638.77	1044.85
639.11	1038.40
639.45	1031.92
639.80	1025.32
640.14	1018.85
640.49	1012.32
640.83	1006.01
641.17	999.61
641.52	993.29
641.86	986.81
642.20	980.96
642.55	974.71
642.89	968.23
643.23	961.76
643.58	955.95
643.92	949.74
644.26	943.63
644.61	937.70
644.95	931.69
645.29	925.07
645.64	918.31
645.98	912.06
646.32	906.22
646.66	900.19
647.01	894.43
647.35	888.82
647.69	882.98
648.04	877.49
648.38	871.69
648.72	865.64
649.06	859.65
649.41	853.71
649.75	847.63
650.09	841.72
650.43	835.87
650.78	829.77
651.12	823.74
651.46	818.02
651.80	812.22
652.14	806.83
652.49	801.42
652.83	796.27
653.17	790.46
653.51	784.59
653.85	779.20
654.20	773.46
654.54	767.36
654.88	761.64
655.22	755.69
655.56	750.08
655.90	744.65
656.25	739.37
656.59	734.05
656.93	729.05
657.27	723.86
657.61	718.43
657.95	713.26
658.29	708.18
658.64	702.92
658.98	697.66
659.32	692.17
659.66	686.94
660.00	681.63
660.34	676.77
660.68	671.92
661.02	666.92
661.36	662.22
661.70	657.85
662.05	653.50
662.39	649.16
662.73	644.71
663.07	640.35
663.41	635.84
663.75	631.38
664.09	626.82
664.43	622.46
664.77	618.36
665.11	614.14
665.45	610.06
665.79	606.02
666.13	601.85
666.47	597.85
666.81	593.73
667.15	589.60
667.49	585.68
667.83	581.89
668.17	577.94
668.51	573.95
668.85	569.85
669.19	566.04
669.53	562.16
669.87	558.22
670.21	554.54
670.55	550.92
670.89	547.43
671.23	543.98
671.57	540.45
671.91	536.92
672.25	533.53
672.58	529.98
672.92	526.57
673.26	523.43
673.60	520.26
673.94	517.15
674.28	514.27
674.62	511.33
674.96	508.25
675.30	505.35
675.64	502.45
675.97	499.74
676.31	496.91
676.65	494.05
676.99	491.45
677.33	488.63
677.67	485.86
678.01	482.87
678.34	479.90
678.68	477.04
679.02	474.23
679.36	471.37
679.70	468.71
680.04	465.99
680.37	463.12
680.71	460.32
681.05	457.72
681.39	455.00
681.73	452.41
682.06	449.88
682.40	447.34
682.74	444.77
683.08	442.18
683.42	439.55
683.75	437.09
684.09	434.48
684.43	432.02
684.77	429.62
685.10	427.33
685.44	425.03
685.78	422.78
686.12	420.57
686.45	418.34
686.79	416.02
687.13	413.80
687.46	411.64
687.80	409.51
688.14	407.36
688.48	405.31
688.81	403.04
689.15	400.89
689.49	398.77
689.82	396.70
690.16	394.67
690.50	392.75
690.83	390.79
691.17	388.85
691.51	386.95
691.84	385.08
692.18	383.10
692.52	381.09
692.85	379.18
693.19	377.25
693.52	375.49
693.86	373.74
694.20	372.00
694.53	370.20
694.87	368.34
695.21	366.46
695.54	364.66
695.88	362.95
696.21	361.21
696.55	359.51
696.88	357.85
697.22	356.19
697.56	354.54
697.89	352.85
698.23	351.21
698.56	349.59
698.90	347.97
699.23	346.35
699.57	344.84
699.90	343.28
700.24	341.76
700.58	340.18
700.91	338.61
701.25	337.15
701.58	335.81
701.92	334.47
702.25	333.12
702.59	331.71
702.92	330.40
703.26	329.07
703.59	327.78
703.93	326.64
704.26	325.37
704.60	324.12
704.93	322.84
705.26	321.62
705.60	320.43
705.93	319.27
706.27	318.24
706.60	317.18
706.94	316.10
707.27	314.95
707.61	313.89
707.94	312.90
708.27	311.78
708.61	310.70
708.94	309.69
709.28	308.72
709.61	307.78
709.94	306.80
710.28	305.78
710.61	304.81
710.95	303.68
711.28	302.77
711.61	301.77
711.95	300.87
712.28	299.91
712.61	298.97
712.95	298.04
713.28	297.14
713.61	296.25
713.95	295.36
714.28	294.55
714.61	293.67
714.95	292.85
715.28	292.00
715.61	291.13
715.95	290.27
716.28	289.36
716.61	288.54
716.95	287.72
717.28	287.06
717.61	286.28
717.94	285.57
718.28	284.77
718.61	284.12
718.94	283.42
719.27	282.78
719.61	282.11
719.94	281.47
720.27	280.75
720.60	280.11
720.94	279.48
721.27	278.89
721.60	278.33
721.93	277.70
722.27	277.20
722.60	276.68
722.93	276.13
723.26	275.66
723.59	275.11
723.93	274.55
724.26	273.96
724.59	273.42
724.92	272.90
725.25	272.38
725.59	271.84
725.92	271.35
726.25	270.86
726.58	270.40
726.91	269.93
727.24	269.48
727.57	269.02
727.91	268.54
728.24	268.07
728.57	267.61
728.90	267.21
729.23	266.69
729.56	266.27
729.89	265.79
730.22	265.31
730.55	264.81
730.89	264.41
731.22	264.00
731.55	263.57
731.88	263.16
732.21	262.77
732.54	262.33
732.87	261.90
733.20	261.50
733.53	261.11
733.86	260.73
734.19	260.30
734.52	259.92
734.85	259.62
735.18	259.19
735.51	258.80
735.84	258.39
736.17	258.06
736.50	257.61
736.83	257.39
737.16	257.03
737.49	256.77
737.82	256.38
738.15	256.04
738.48	255.70
738.81	255.34
739.14	254.99
739.47	254.66
739.80	254.32
740.13	253.96
740.46	253.61
740.79	253.28
741.12	252.97
741.45	252.62
741.78	252.21
742.11	251.95
742.44	251.64
742.77	251.35
743.10	251.02
743.43	250.72
743.75	250.30
744.08	250.16
744.41	249.82
744.74	249.58
745.07	249.23
745.40	249.00
745.73	248.77
746.06	248.48
746.39	248.24
746.71	247.99
747.04	247.74
747.37	247.45
747.70	247.19
748.03	246.94
748.36	246.76
748.68	246.55
749.01	246.28
749.34	246.05
749.67	245.80
750.00	245.55
750.33	245.46
750.65	245.24
750.98	244.90
751.31	244.70
751.64	244.47
751.97	244.35
752.29	244.13
752.62	243.85
752.95	243.63
753.28	243.41
753.60	243.20
753.93	243.02
754.26	242.84
754.59	242.63
754.91	242.44
755.24	242.21
755.57	242.02
755.90	241.83
756.22	241.63
756.55	241.42
756.88	241.26
757.20	240.99
757.53	240.81
757.86	240.63
758.19	240.47
758.51	240.31
758.84	240.11
759.17	239.95
759.49	239.82
759.82	239.71
760.15	239.55
760.47	239.40
760.80	239.27
761.13	239.15
761.45	239.01
761.78	238.84
762.11	238.69
762.43	238.55
762.76	238.39
763.08	238.28
763.41	238.19
763.74	238.05
764.06	237.93
764.39	237.80
764.71	237.69
765.04	237.56
765.37	237.41
765.69	237.29
766.02	237.13
766.34	237.03
766.67	236.90
767.00	236.82
767.32	236.74
767.65	236.66
767.97	236.54
768.30	236.44
768.62	236.34
768.95	236.25
769.27	236.13
769.60	236.08
769.92	235.97
770.25	235.83
770.57	235.73
770.90	235.62
771.22	235.48
771.55	235.38
771.87	235.28
772.20	235.21
772.52	235.21
772.85	235.25
773.17	235.15
773.50	235.04
773.82	234.91
774.15	234.80
774.47	234.64
774.80	234.56
775.12	234.48
775.45	234.38
775.77	234.31
776.09	234.25
776.42	234.13
776.74	234.06
777.07	234.00
777.39	233.90
777.72	233.81
778.04	233.77
778.36	233.70
778.69	233.63
779.01	233.55
779.33	233.38
779.66	233.17
779.98	233.07
780.31	233.00
780.63	232.98
780.95	232.94
781.28	232.87
781.60	232.79
781.92	232.70
782.25	232.62
782.57	232.53
782.89	232.46
783.22	232.41
783.54	232.34
783.86	232.28
784.19	232.22
784.51	232.21
784.83	232.10
785.16	232.06
785.48	232.01
785.80	231.94
786.12	231.88
786.45	231.86
786.77	231.85
787.09	231.82
787.42	231.72
787.74	231.66
788.06	231.59
788.38	231.54
788.71	231.52
789.03	231.50
789.35	231.48
789.67	231.41
789.99	231.38
790.32	231.31
790.64	231.28
790.96	231.31
791.28	231.22
791.61	231.23
791.93	231.17
792.25	231.13
792.57	231.16
792.89	231.10
793.21	231.04
793.54	230.99
793.86	230.92
794.18	230.91
794.50	230.85
794.82	230.82
795.14	230.75
795.47	230.70
795.79	230.67
796.11	230.62
796.43	230.59
796.75	230.53
797.07	230.53
797.39	230.49
797.71	230.43
798.04	230.39
798.36	230.35
798.68	230.33
799.00	230.31
799.32	230.23
799.64	230.25
799.96	230.22
800.28	230.19
800.60	230.19
800.92	230.14
801.24	230.12
801.56	230.13
801.89	230.11
802.21	230.09
802.53	230.06
802.85	230.05
803.17	230.09
803.49	230.05
803.81	230.02
804.13	229.99
804.45	229.94
804.77	229.94
805.09	229.92
805.41	229.89
805.73	229.85
806.05	229.79
806.37	229.78
806.69	229.74
807.01	229.72
807.33	229.71
807.65	229.69
807.97	229.74
808.28	229.68
808.60	229.70
808.92	229.68
809.24	229.72
809.56	229.66
809.88	229.58
810.20	229.60
810.52	229.56
810.84	229.53
811.16	229.49
811.48	229.48
811.80	229.47
812.12	229.42
812.43	229.45
812.75	229.47
813.07	229.40
813.39	229.39
813.71	229.36
814.03	229.32
814.35	229.27
814.67	229.18
814.98	229.18
815.30	229.12
815.62	229.04
815.94	228.95
816.26	229.01
816.58	229.01
816.89	228.97
817.21	228.95
817.53	228.95
817.85	228.93
818.17	228.87
818.48	228.83
818.80	228.86
819.12	228.79
819.44	228.75
819.76	228.72
820.07	228.73
820.39	228.69
820.71	228.66
821.03	228.69
821.34	228.66
821.66	228.65
821.98	228.67
822.30	228.68
822.61	228.73
822.93	228.67
823.25	228.65
823.57	228.62
823.88	228.62
824.20	228.62
824.52	228.64
824.83	228.65
825.15	228.62
825.47	228.58
825.79	228.62
826.10	228.57
826.42	228.55
826.74	228.55
827.05	228.54
827.37	228.52
827.69	228.48
828.00	228.46
828.32	228.46
828.64	228.44
828.95	228.43
829.27	228.40
829.58	228.35
829.90	228.40
830.22	228.41
830.53	228.39
830.85	228.33
831.17	228.28
831.48	228.28
831.80	228.28
832.11	228.27
832.43	228.24
832.75	228.24
833.06	228.32
833.38	228.27
833.69	228.29
834.01	228.27
834.32	228.26
834.64	228.24
834.96	228.23
835.27	228.19
835.59	228.21
835.90	228.14
836.22	228.17
836.53	228.07
836.85	228.04
837.16	228.12
837.48	228.13
837.79	228.19
838.11	228.17
838.42	228.19
838.74	228.19
839.05	228.17
839.37	228.16
839.68	228.08
840.00	228.08
840.31	228.07
840.63	228.07
840.94	228.05
841.26	228.04
841.57	228.03
841.88	228.03
842.20	228.01
842.51	228.03
842.83	228.00
843.14	228.11
843.46	228.13
843.77	228.09
844.08	228.10
844.40	228.05
844.71	228.02
845.03	227.99
845.34	227.95
845.65	227.93
845.97	227.92
846.28	227.92
846.60	227.92
846.91	227.88
847.22	227.90
847.54	227.90
847.85	227.91
848.16	227.89
848.48	227.91
848.79	227.91
849.10	227.92
849.42	227.92
849.73	227.77
850.04	227.76
850.36	227.70
850.67	227.69
850.98	227.66
851.30	227.68
851.61	227.66
851.92	227.65
852.23	227.67
852.55	227.70
852.86	227.68
853.17	227.72
853.49	227.75
853.80	227.74
854.11	227.77
854.42	227.78
854.74	227.78
855.05	227.77
855.36	227.74
855.67	227.74
855.99	227.75
856.30	227.89
856.61	227.86
856.92	227.86
857.23	227.84
857.55	227.83
857.86	227.80
858.17	227.84
858.48	227.84
858.79	227.84
859.11	227.83
859.42	227.83
859.73	227.78
860.04	227.75
860.35	227.73
860.66	227.69
860.98	227.65
861.29	227.66
861.60	227.67
861.91	227.68
862.22	227.66
862.53	227.63
862.84	227.51
863.16	227.54
863.47	227.50
863.78	227.50
864.09	227.52
864.40	227.53
864.71	227.51
865.02	227.54
865.33	227.50
865.64	227.46
865.95	227.49
866.27	227.55
866.58	227.56
866.89	227.55
867.20	227.59
867.51	227.60
867.82	227.59
868.13	227.59
868.44	227.57
868.75	227.60
869.06	227.62
869.37	227.62
869.68	227.57
869.99	227.60
870.30	227.62
870.61	227.63
870.92	227.63
871.23	227.62
871.54	227.62
871.85	227.67
872.16	227.69
872.47	227.64
872.78	227.57
873.09	227.59
873.40	227.58
873.71	227.59
874.02	227.56
874.33	227.54
874.64	227.52
874.95	227.53
875.26	227.49
875.56	227.48
875.87	227.49
876.18	227.49
876.49	227.60
876.80	227.58
877.11	227.54
877.42	227.56
877.73	227.53
878.04	227.49
878.35	227.47
878.66	227.47
878.96	227.52
879.27	227.51
879.58	227.48
879.89	227.46
880.20	227.44
880.51	227.44
880.82	227.43
881.12	227.43
881.43	227.39
881.74	227.38
882.05	227.35
882.36	227.33
882.67	227.35
882.97	227.22
883.28	227.19
883.59	227.17
883.90	227.15
884.21	227.18
884.51	227.16
884.82	227.10
885.13	227.10
885.44	227.08
885.74	227.08
886.05	227.05
886.36	227.07
886.67	227.05
886.98	227.13
887.28	227.16
887.59	227.15
887.90	227.14
888.20	227.15
888.51	227.19
888.82	227.17
889.13	227.16
889.43	227.21
889.74	227.23
890.05	227.20
890.35	227.19
890.66	227.16
890.97	227.15
891.28	227.16
891.58	227.13
891.89	227.12
892.20	227.11
892.50	227.13
892.81	227.13
893.12	227.11
893.42	227.01
893.73	227.01
894.04	227.01
894.34	227.02
894.65	226.99
894.95	226.97
895.26	226.98
895.57	227.00
895.87	226.93
896.18	226.93
896.48	226.96
896.79	227.00
897.10	227.03
897.40	227.07
897.71	227.11
898.01	227.13
898.32	227.13
898.63	227.13
898.93	227.14
899.24	227.12
899.54	227.13
899.85	227.16
900.15	227.14
900.46	227.15
900.76	227.19
901.07	227.21
901.38	227.22
901.68	227.25
901.99	227.24
902.29	227.26
902.60	227.27
902.90	227.26
903.21	227.24
903.51	227.22
903.82	227.23
904.12	227.22
904.43	227.22
904.73	227.22
905.03	227.25
905.34	227.33
905.64	227.32
905.95	227.36
906.25	227.36
906.56	227.38
906.86	227.39
907.17	227.37
907.47	227.37
907.77	227.36
908.08	227.34
908.38	227.36
908.69	227.36
908.99	227.42
909.30	227.47
909.60	227.49
909.90	227.49
910.21	227.45
910.51	227.47
910.81	227.52
911.12	227.54
911.42	227.55
911.73	227.47
912.03	227.49
912.33	227.46
912.64	227.48
912.94	227.45
913.24	227.43
913.55	227.42
913.85	227.41
914.15	227.41
914.46	227.44
914.76	227.45
915.06	227.44
915.37	227.37
915.67	227.33
915.97	227.30
916.27	227.26
916.58	227.29
916.88	227.27
917.18	227.20
917.49	227.25
917.79	227.21
918.09	227.22
918.39	227.22
918.70	227.22
919.00	227.20
919.30	227.24
919.60	227.19
919.91	227.19
920.21	227.16
920.51	227.14
920.81	227.12
921.12	227.09
921.42	227.09
921.72	227.11
922.02	227.10
922.32	227.11
922.63	227.12
922.93	227.15
923.23	227.11
923.53	227.11
923.83	227.03
924.13	227.05
924.44	227.04
924.74	227.08
925.04	227.12
925.34	227.10
925.64	227.05
925.94	227.10
926.24	227.16
926.55	227.16
926.85	227.18
927.15	227.14
927.45	227.14
927.75	227.14
928.05	227.15
928.35	227.12
928.65	227.13
928.95	227.16
929.26	227.11
929.56	227.16
929.86	227.18
930.16	227.16
930.46	227.13
930.76	227.11
931.06	227.05
931.36	227.02
931.66	227.04
931.96	227.04
932.26	227.02
932.56	226.96
932.86	226.98
933.16	227.02
933.46	227.05
933.76	227.03
934.06	227.06
934.36	227.10
934.66	227.13
934.96	227.10
935.26	227.12
935.56	227.14
935.86	227.11
936.16	227.10
936.46	227.11
936.76	227.14
937.06	227.12
937.36	227.14
937.66	227.13
937.96	227.13
938.26	227.13
938.56	227.14
938.86	227.18
939.16	227.20
939.46	227.20
939.76	227.19
940.06	227.20
940.35	227.17
940.65	227.14
940.95	227.15
941.25	227.16
941.55	227.14
941.85	227.12
942.15	227.15
942.45	227.20
942.75	227.21
943.04	227.23
943.34	227.28
943.64	227.27
943.94	227.26
944.24	227.27
944.54	227.29
944.84	227.30
945.13	227.27
945.43	227.26
945.73	227.26
946.03	227.27
946.33	227.26
946.62	227.28
946.92	227.26
947.22	227.27
947.52	227.30
947.82	227.31
948.11	227.34
948.41	227.34
948.71	227.30
949.01	227.29
949.31	227.28
949.60	227.27
949.90	227.28
950.20	227.33
950.50	227.32
950.79	227.33
951.09	227.34
951.39	227.36
951.69	227.37
951.98	227.39
952.28	227.40
952.58	227.43
952.87	227.44
953.17	227.43
953.47	227.43
953.76	227.42
954.06	227.43
954.36	227.39
954.66	227.36
954.95	227.40
955.25	227.44
955.55	227.44
955.84	227.42
956.14	227.44
956.44	227.41
956.73	227.42
957.03	227.41
957.32	227.39
957.62	227.37
957.92	227.35
958.21	227.32
958.51	227.41
958.81	227.41
959.10	227.39
959.40	227.42
959.69	227.39
959.99	227.40
960.29	227.37
960.58	227.38
960.88	227.42
961.17	227.40
961.47	227.36
961.76	227.34
962.06	227.33
962.36	227.30
962.65	227.28
962.95	227.23
963.24	227.20
963.54	227.21
963.83	227.20
964.13	227.19
964.42	227.17
964.72	227.10
965.01	227.10
965.31	227.09
965.60	227.07
965.90	227.13
966.19	227.08
966.49	227.10
966.78	227.07
967.08	227.07
967.37	227.04
967.67	227.02
967.96	227.02
968.26	227.00
968.55	227.02
968.85	227.03
969.14	227.06
969.43	227.05
969.73	227.05
970.02	227.05
970.32	227.05
970.61	227.04
970.91	227.00
971.20	226.95
971.49	226.96
971.79	226.94
972.08	226.87
972.38	226.91
972.67	226.91
972.96	226.95
973.26	226.94
973.55	226.94
973.85	226.93
974.14	226.96
974.43	226.99
974.73	226.95
975.02	226.93
975.31	226.92
975.61	226.92
975.90	226.85
976.19	226.86
976.49	226.89
976.78	226.92
977.07	226.92
977.37	226.92
977.66	226.94
977.95	226.92
978.24	226.91
978.54	226.92
978.83	226.92
979.12	226.91
979.42	226.89
979.71	226.93
980.00	226.92
980.29	226.92
980.59	226.89
980.88	226.94
981.17	226.96
981.46	226.96
981.76	226.98
982.05	227.06
982.34	227.05
982.63	227.01
982.93	226.99
983.22	227.01
983.51	227.00
983.80	227.01
984.09	227.05
984.39	227.04
984.68	227.03
984.97	227.01
985.26	227.02
985.55	227.00
985.85	226.96
986.14	226.99
986.43	227.02
986.72	227.03
987.01	226.97
987.30	226.93
987.59	226.95
987.89	226.94
988.18	226.92
988.47	226.92
988.76	226.93
989.05	226.90
989.34	226.89
989.63	226.91
989.92	226.88
990.22	226.85
990.51	226.86
990.80	226.86
991.09	226.85
991.38	226.86
991.67	226.88
991.96	226.90
992.25	226.88
992.54	226.84
992.83	226.84
993.12	226.87
993.41	226.89
993.70	226.92
993.99	226.95
994.28	226.95
994.58	226.97
994.87	226.93
995.16	226.94
995.45	226.95
995.74	226.92
996.03	226.93
996.32	226.95
996.61	226.99
996.90	226.98
997.19	226.99
997.48	226.98
997.77	226.95
998.06	226.94
998.34	226.96
998.63	226.96
998.92	226.94
999.21	226.96
999.50	226.98
999.79	226.93
1000.08	226.94
1000.37	226.94
1000.66	226.91
1000.95	226.97
1001.24	227.00
1001.53	227.00
1001.82	226.99
1002.11	226.99
1002.40	227.02
1002.68	227.03
1002.97	227.09
1003.26	227.07
1003.55	227.05
1003.84	227.02
1004.13	227.06
1004.42	227.04
1004.71	227.04
1004.99	227.04
1005.28	227.04
1005.57	227.04
1005.86	227.07
1006.15	227.03
1006.44	226.98
1006.72	227.00
1007.01	226.97
1007.30	226.94
1007.59	226.93
1007.88	226.92
1008.17	226.91
1008.45	226.84
1008.74	226.78
1009.03	226.74
1009.32	226.73
1009.60	226.75
1009.89	226.76
1010.18	226.72
1010.47	226.73
1010.76	226.75
1011.04	226.75
1011.33	226.75
1011.62	226.77
1011.91	226.75
1012.19	226.75
1012.48	226.75
1012.77	226.74
1013.05	226.80
1013.34	226.79
1013.63	226.78
1013.92	226.80
1014.20	226.82
1014.49	226.85
1014.78	226.89
1015.06	226.84
1015.35	226.88
1015.64	226.90
1015.92	226.90
1016.21	226.91
1016.50	226.92
1016.78	226.92
1017.07	226.90
1017.36	226.88
1017.64	226.84
1017.93	226.86
1018.22	226.88
1018.50	226.91
1018.79	226.91
1019.08	226.86
1019.36	226.90
1019.65	226.89
1019.93	226.95
1020.22	226.94
1020.51	227.00
1020.79	226.96
1021.08	226.86
1021.36	226.85
1021.65	226.94
1021.94	227.00
1022.22	227.36
1022.51	226.35
1022.79	227.88
1023.08	226.97
1023.36	228.16
1023.65	226.70
>>>>>End Processed Spectral Data<<<<<
