SpectraSuite Data File
++++++++++++++++++++++++++++++++++++
Date: Fri Feb 01 14:52:51 EST 2013
User: group
Dark Spectrum Present: No
Reference Spectrum Present: No
Number of Sampled Component Spectra: 1
Spectrometers: USB2E7196
Integration Time (usec): 35000 (USB2E7196)
Spectra Averaged: 100 (USB2E7196)
Boxcar Smoothing: 10 (USB2E7196)
Correct for Electrical Dark: No (USB2E7196)
Strobe/Lamp Enabled: No (USB2E7196)
Correct for Detector Non-linearity: No (USB2E7196)
Correct for Stray Light: No (USB2E7196)
Number of Pixels in Processed Spectrum: 2048
>>>>>Begin Processed Spectral Data<<<<<
339.09	0.00
339.48	215.17
339.86	216.99
340.24	218.51
340.63	219.47
341.01	222.83
341.39	222.53
341.78	223.83
342.16	224.93
342.54	225.82
342.93	213.87
343.31	224.69
343.69	225.24
344.07	225.72
344.46	226.12
344.84	226.53
345.22	226.76
345.60	226.99
345.99	227.17
346.37	227.29
346.75	227.39
347.13	227.45
347.52	227.54
347.90	227.59
348.28	227.66
348.66	227.68
349.05	227.68
349.43	227.75
349.81	227.79
350.19	227.81
350.57	227.87
350.96	227.96
351.34	228.06
351.72	228.14
352.10	228.22
352.48	228.31
352.87	228.34
353.25	228.41
353.63	228.46
354.01	228.55
354.39	228.64
354.77	228.69
355.15	228.80
355.54	228.87
355.92	228.91
356.30	228.93
356.68	229.05
357.06	229.15
357.44	229.14
357.82	229.21
358.20	229.26
358.58	229.33
358.97	229.35
359.35	229.41
359.73	229.48
360.11	229.53
360.49	229.56
360.87	229.61
361.25	229.62
361.63	229.73
362.01	229.74
362.39	229.77
362.77	229.80
363.15	229.78
363.53	229.77
363.91	229.82
364.29	229.84
364.67	229.79
365.05	229.78
365.43	229.81
365.81	229.78
366.19	229.85
366.57	229.88
366.95	229.86
367.33	229.79
367.71	229.78
368.09	229.77
368.47	229.72
368.85	229.70
369.23	229.73
369.61	229.65
369.99	229.66
370.37	229.62
370.75	229.61
371.13	229.52
371.51	229.45
371.89	229.38
372.27	229.36
372.65	229.30
373.03	229.24
373.41	229.17
373.78	229.13
374.16	228.99
374.54	228.86
374.92	228.77
375.30	228.72
375.68	228.63
376.06	228.57
376.44	228.52
376.82	228.44
377.19	228.34
377.57	228.23
377.95	228.09
378.33	228.01
378.71	227.87
379.09	227.81
379.47	227.72
379.84	227.62
380.22	227.49
380.60	227.40
380.98	227.31
381.36	227.22
381.73	227.15
382.11	227.10
382.49	227.03
382.87	226.96
383.25	226.86
383.62	226.91
384.00	226.81
384.38	226.73
384.76	226.67
385.13	226.65
385.51	226.63
385.89	226.58
386.27	226.56
386.64	226.54
387.02	226.53
387.40	226.52
387.78	226.48
388.15	226.45
388.53	226.36
388.91	226.34
389.29	226.32
389.66	226.28
390.04	226.26
390.42	226.29
390.79	226.30
391.17	226.34
391.55	226.23
391.92	226.24
392.30	226.25
392.68	226.25
393.05	226.27
393.43	226.26
393.81	226.29
394.18	226.25
394.56	226.30
394.94	226.36
395.31	226.38
395.69	226.47
396.06	226.54
396.44	226.65
396.82	226.71
397.19	226.83
397.57	226.90
397.95	226.93
398.32	226.97
398.70	227.08
399.07	227.15
399.45	227.21
399.82	227.32
400.20	227.42
400.58	227.52
400.95	227.57
401.33	227.72
401.70	227.90
402.08	228.06
402.45	228.16
402.83	228.27
403.20	228.45
403.58	228.57
403.95	228.72
404.33	228.84
404.71	229.00
405.08	229.17
405.46	229.32
405.83	229.53
406.21	229.71
406.58	229.90
406.96	230.06
407.33	230.29
407.70	230.48
408.08	230.75
408.45	230.96
408.83	231.22
409.20	231.44
409.58	231.59
409.95	231.86
410.33	232.15
410.70	232.43
411.08	232.73
411.45	233.03
411.82	233.32
412.20	233.71
412.57	234.13
412.95	234.45
413.32	234.86
413.69	235.26
414.07	235.67
414.44	236.13
414.82	236.62
415.19	237.12
415.56	237.72
415.94	238.24
416.31	238.89
416.68	239.51
417.06	240.22
417.43	240.95
417.81	241.71
418.18	242.46
418.55	243.29
418.93	244.15
419.30	245.05
419.67	245.96
420.04	246.89
420.42	247.84
420.79	249.01
421.16	250.16
421.54	251.34
421.91	252.58
422.28	253.82
422.66	255.14
423.03	256.46
423.40	257.73
423.77	259.17
424.15	260.60
424.52	262.09
424.89	263.70
425.26	265.20
425.64	266.65
426.01	268.25
426.38	269.90
426.75	271.53
427.13	273.21
427.50	275.01
427.87	276.86
428.24	278.71
428.61	280.44
428.99	282.35
429.36	284.41
429.73	286.45
430.10	288.43
430.47	290.47
430.85	292.54
431.22	294.77
431.59	297.15
431.96	299.37
432.33	301.84
432.70	304.18
433.08	306.96
433.45	309.53
433.82	312.09
434.19	314.96
434.56	317.76
434.93	320.42
435.30	323.09
435.68	326.00
436.05	328.86
436.42	331.64
436.79	334.17
437.16	336.88
437.53	339.69
437.90	342.50
438.27	345.26
438.64	348.10
439.01	350.72
439.38	352.98
439.75	355.13
440.13	357.59
440.50	359.93
440.87	361.85
441.24	363.84
441.61	366.05
441.98	367.54
442.35	369.37
442.72	371.22
443.09	373.02
443.46	374.02
443.83	374.61
444.20	375.13
444.57	375.93
444.94	376.22
445.31	376.55
445.68	376.93
446.05	377.03
446.42	376.66
446.79	376.21
447.16	375.71
447.53	375.41
447.90	374.30
448.27	373.18
448.64	371.57
449.01	370.44
449.37	368.46
449.74	366.60
450.11	364.34
450.48	361.93
450.85	359.40
451.22	357.28
451.59	355.22
451.96	353.31
452.33	350.78
452.70	348.44
453.07	345.63
453.43	342.77
453.80	340.03
454.17	337.40
454.54	334.88
454.91	332.20
455.28	329.53
455.65	327.04
456.02	324.58
456.38	322.40
456.75	319.73
457.12	317.52
457.49	315.25
457.86	313.09
458.23	311.20
458.59	309.15
458.96	307.05
459.33	305.19
459.70	303.34
460.07	301.84
460.43	300.14
460.80	298.51
461.17	297.05
461.54	295.51
461.91	294.04
462.27	292.59
462.64	291.32
463.01	289.94
463.38	288.63
463.74	287.25
464.11	286.10
464.48	285.04
464.85	283.89
465.21	283.01
465.58	282.11
465.95	281.04
466.32	280.15
466.68	279.24
467.05	278.34
467.42	277.41
467.78	276.42
468.15	275.54
468.52	274.85
468.88	273.97
469.25	273.19
469.62	272.56
469.98	271.89
470.35	271.23
470.72	270.63
471.08	269.95
471.45	269.42
471.82	268.85
472.18	268.26
472.55	267.80
472.92	267.27
473.28	266.75
473.65	266.26
474.02	265.78
474.38	265.37
474.75	265.01
475.11	264.64
475.48	264.38
475.85	264.14
476.21	263.90
476.58	263.69
476.94	263.51
477.31	263.33
477.67	263.12
478.04	262.98
478.41	262.90
478.77	262.92
479.14	262.85
479.50	262.87
479.87	262.95
480.23	263.01
480.60	263.04
480.96	263.13
481.33	263.28
481.69	263.45
482.06	263.68
482.42	263.89
482.79	264.13
483.15	264.45
483.52	264.81
483.88	265.17
484.25	265.56
484.61	265.99
484.98	266.44
485.34	266.99
485.71	267.58
486.07	268.16
486.44	268.70
486.80	269.36
487.17	270.09
487.53	270.85
487.90	271.69
488.26	272.67
488.62	273.65
488.99	274.70
489.35	275.75
489.72	276.87
490.08	278.04
490.44	279.27
490.81	280.59
491.17	281.92
491.54	283.38
491.90	284.90
492.26	286.54
492.63	288.26
492.99	290.01
493.36	291.87
493.72	293.92
494.08	296.01
494.45	298.26
494.81	300.57
495.17	303.01
495.54	305.58
495.90	308.23
496.26	310.98
496.63	313.88
496.99	316.98
497.35	320.17
497.72	323.56
498.08	327.07
498.44	330.69
498.80	334.60
499.17	338.65
499.53	342.73
499.89	347.07
500.26	351.52
500.62	356.17
500.98	361.11
501.34	366.15
501.71	371.41
502.07	376.79
502.43	382.42
502.79	388.23
503.16	394.28
503.52	400.51
503.88	406.88
504.24	413.46
504.60	420.30
504.97	427.39
505.33	434.67
505.69	442.33
506.05	450.10
506.41	457.94
506.78	466.00
507.14	474.42
507.50	483.11
507.86	492.01
508.22	501.17
508.59	510.38
508.95	519.97
509.31	529.74
509.67	539.80
510.03	549.98
510.39	560.47
510.75	571.19
511.12	582.12
511.48	593.41
511.84	604.79
512.20	616.24
512.56	628.20
512.92	640.37
513.28	652.65
513.64	665.09
514.00	677.82
514.37	690.76
514.73	703.81
515.09	716.84
515.45	730.18
515.81	743.78
516.17	757.73
516.53	771.80
516.89	785.97
517.25	800.11
517.61	814.55
517.97	828.95
518.33	843.39
518.69	858.12
519.05	873.17
519.41	888.39
519.77	903.92
520.13	919.40
520.49	934.95
520.85	950.40
521.21	966.15
521.57	982.39
521.93	998.26
522.29	1014.66
522.65	1030.90
523.01	1047.12
523.37	1063.21
523.73	1079.49
524.09	1095.76
524.45	1112.23
524.81	1128.96
525.17	1145.83
525.53	1162.77
525.89	1179.63
526.25	1196.55
526.61	1212.89
526.97	1229.74
527.33	1246.40
527.68	1263.06
528.04	1279.44
528.40	1296.23
528.76	1313.38
529.12	1329.97
529.48	1346.80
529.84	1362.88
530.20	1379.66
530.56	1396.77
530.91	1414.18
531.27	1430.88
531.63	1447.23
531.99	1463.83
532.35	1479.91
532.71	1495.73
533.07	1512.25
533.42	1528.31
533.78	1544.30
534.14	1560.66
534.50	1575.97
534.86	1591.79
535.21	1606.97
535.57	1623.06
535.93	1638.53
536.29	1653.27
536.65	1668.49
537.00	1683.40
537.36	1698.81
537.72	1713.31
538.08	1727.67
538.44	1741.52
538.79	1755.52
539.15	1769.32
539.51	1783.20
539.87	1797.72
540.22	1811.61
540.58	1825.28
540.94	1838.66
541.29	1851.66
541.65	1864.47
542.01	1877.73
542.37	1890.17
542.72	1902.70
543.08	1914.39
543.44	1926.83
543.79	1938.17
544.15	1949.20
544.51	1960.76
544.87	1971.71
545.22	1982.57
545.58	1992.97
545.94	2002.77
546.29	2012.75
546.65	2022.57
547.01	2031.71
547.36	2040.32
547.72	2048.93
548.07	2056.88
548.43	2065.12
548.79	2073.20
549.14	2080.78
549.50	2088.30
549.86	2096.12
550.21	2103.37
550.57	2110.58
550.92	2117.20
551.28	2124.40
551.64	2131.37
551.99	2137.85
552.35	2143.99
552.70	2150.09
553.06	2156.01
553.41	2162.35
553.77	2168.14
554.13	2174.14
554.48	2180.18
554.84	2185.65
555.19	2190.79
555.55	2195.87
555.90	2200.13
556.26	2204.91
556.61	2209.51
556.97	2213.66
557.32	2217.61
557.68	2221.71
558.03	2226.07
558.39	2229.53
558.74	2233.85
559.10	2237.52
559.45	2241.09
559.81	2245.39
560.16	2249.13
560.52	2252.18
560.87	2255.54
561.23	2258.11
561.58	2260.97
561.94	2263.39
562.29	2265.60
562.64	2268.24
563.00	2270.73
563.35	2274.31
563.71	2277.36
564.06	2280.40
564.42	2283.05
564.77	2285.44
565.12	2287.57
565.48	2289.21
565.83	2291.08
566.19	2292.31
566.54	2293.19
566.89	2294.35
567.25	2294.76
567.60	2295.84
567.96	2297.42
568.31	2297.96
568.66	2298.84
569.02	2299.19
569.37	2299.39
569.72	2299.95
570.08	2299.86
570.43	2299.55
570.78	2298.49
571.14	2296.58
571.49	2294.99
571.84	2294.50
572.20	2293.08
572.55	2291.68
572.90	2289.71
573.26	2287.94
573.61	2285.95
573.96	2284.01
574.31	2280.68
574.67	2277.40
575.02	2273.60
575.37	2269.81
575.72	2265.85
576.08	2262.50
576.43	2259.00
576.78	2255.22
577.13	2251.77
577.49	2248.34
577.84	2244.72
578.19	2240.97
578.54	2237.20
578.90	2232.80
579.25	2227.03
579.60	2221.84
579.95	2216.70
580.30	2211.57
580.66	2206.28
581.01	2200.98
581.36	2195.76
581.71	2191.52
582.06	2186.99
582.42	2182.24
582.77	2176.98
583.12	2172.21
583.47	2167.16
583.82	2162.09
584.17	2156.61
584.53	2151.05
584.88	2145.26
585.23	2139.30
585.58	2133.60
585.93	2127.98
586.28	2122.90
586.63	2117.76
586.98	2112.58
587.34	2107.71
587.69	2102.62
588.04	2097.29
588.39	2091.72
588.74	2085.13
589.09	2078.72
589.44	2071.75
589.79	2065.51
590.14	2059.72
590.49	2052.92
590.84	2046.42
591.19	2040.12
591.54	2033.48
591.89	2026.02
592.25	2019.14
592.60	2011.89
592.95	2004.14
593.30	1996.80
593.65	1989.18
594.00	1982.05
594.35	1974.48
594.70	1966.41
595.05	1959.22
595.40	1951.80
595.75	1944.19
596.10	1937.90
596.45	1931.02
596.80	1924.65
597.15	1918.08
597.50	1911.13
597.85	1904.82
598.19	1898.19
598.54	1891.25
598.89	1884.60
599.24	1878.61
599.59	1871.95
599.94	1865.60
600.29	1859.24
600.64	1852.57
600.99	1845.07
601.34	1838.22
601.69	1831.37
602.04	1824.43
602.39	1817.11
602.74	1810.35
603.08	1803.70
603.43	1796.96
603.78	1789.76
604.13	1782.67
604.48	1775.56
604.83	1768.57
605.18	1761.58
605.53	1753.65
605.87	1745.55
606.22	1738.38
606.57	1730.51
606.92	1723.27
607.27	1716.07
607.62	1709.24
607.96	1702.01
608.31	1695.56
608.66	1687.94
609.01	1680.50
609.36	1673.12
609.70	1665.17
610.05	1657.12
610.40	1649.55
610.75	1641.34
611.10	1633.63
611.44	1625.36
611.79	1617.29
612.14	1608.65
612.49	1599.57
612.83	1591.26
613.18	1583.22
613.53	1575.23
613.88	1566.74
614.22	1558.48
614.57	1550.00
614.92	1542.12
615.27	1534.71
615.61	1526.46
615.96	1518.54
616.31	1510.89
616.65	1503.47
617.00	1495.99
617.35	1488.18
617.70	1479.82
618.04	1471.34
618.39	1463.23
618.74	1455.73
619.08	1447.55
619.43	1440.05
619.78	1433.25
620.12	1426.09
620.47	1418.59
620.82	1410.38
621.16	1402.93
621.51	1395.28
621.85	1387.75
622.20	1379.29
622.55	1371.02
622.89	1363.20
623.24	1355.55
623.59	1348.35
623.93	1340.99
624.28	1333.78
624.62	1326.53
624.97	1319.44
625.32	1312.74
625.66	1305.81
626.01	1298.51
626.35	1291.10
626.70	1283.47
627.04	1275.83
627.39	1268.13
627.73	1260.75
628.08	1253.94
628.43	1246.83
628.77	1239.66
629.12	1232.18
629.46	1225.08
629.81	1217.63
630.15	1210.47
630.50	1203.19
630.84	1195.02
631.19	1187.10
631.53	1179.71
631.88	1172.11
632.22	1164.65
632.57	1157.40
632.91	1150.00
633.26	1142.73
633.60	1135.50
633.95	1128.44
634.29	1121.30
634.64	1114.65
634.98	1107.46
635.32	1100.52
635.67	1093.98
636.01	1087.44
636.36	1080.85
636.70	1074.41
637.05	1067.97
637.39	1061.63
637.73	1055.21
638.08	1049.44
638.42	1043.53
638.77	1037.13
639.11	1030.74
639.45	1024.36
639.80	1017.79
640.14	1011.43
640.49	1005.03
640.83	998.91
641.17	992.71
641.52	986.62
641.86	980.38
642.20	974.64
642.55	968.24
642.89	961.82
643.23	955.29
643.58	949.63
643.92	943.49
644.26	937.51
644.61	931.54
644.95	925.62
645.29	919.09
645.64	912.41
645.98	906.15
646.32	900.34
646.66	894.33
647.01	888.59
647.35	882.92
647.69	877.13
648.04	871.55
648.38	865.89
648.72	859.90
649.06	853.86
649.41	847.96
649.75	842.09
650.09	836.15
650.43	830.48
650.78	824.28
651.12	818.39
651.46	812.67
651.80	807.06
652.14	801.67
652.49	796.33
652.83	791.17
653.17	785.53
653.51	779.83
653.85	774.45
654.20	768.88
654.54	762.90
654.88	757.18
655.22	751.34
655.56	745.70
655.90	740.29
656.25	735.11
656.59	729.83
656.93	724.81
657.27	719.82
657.61	714.37
657.95	709.32
658.29	704.23
658.64	699.02
658.98	693.67
659.32	688.25
659.66	683.14
660.00	677.89
660.34	673.03
660.68	668.23
661.02	663.24
661.36	658.58
661.70	654.17
662.05	649.91
662.39	645.61
662.73	641.15
663.07	636.81
663.41	632.34
663.75	627.91
664.09	623.40
664.43	619.04
664.77	614.95
665.11	610.71
665.45	606.69
665.79	602.71
666.13	598.62
666.47	594.54
666.81	590.36
667.15	586.30
667.49	582.42
667.83	578.59
668.17	574.75
668.51	570.80
668.85	566.81
669.19	562.98
669.53	559.17
669.87	555.35
670.21	551.75
670.55	548.15
670.89	544.75
671.23	541.32
671.57	537.78
671.91	534.37
672.25	530.94
672.58	527.45
672.92	524.03
673.26	520.94
673.60	517.83
673.94	514.84
674.28	511.98
674.62	509.06
674.96	506.03
675.30	503.14
675.64	500.26
675.97	497.54
676.31	494.72
676.65	491.86
676.99	489.20
677.33	486.33
677.67	483.55
678.01	480.55
678.34	477.68
678.68	474.92
679.02	472.06
679.36	469.31
679.70	466.60
680.04	463.85
680.37	460.97
680.71	458.28
681.05	455.64
681.39	453.00
681.73	450.43
682.06	447.93
682.40	445.44
682.74	442.89
683.08	440.39
683.42	437.81
683.75	435.38
684.09	432.86
684.43	430.44
684.77	428.03
685.10	425.70
685.44	423.39
685.78	421.12
686.12	418.92
686.45	416.74
686.79	414.48
687.13	412.37
687.46	410.29
687.80	408.13
688.14	406.01
688.48	403.97
688.81	401.73
689.15	399.60
689.49	397.50
689.82	395.44
690.16	393.36
690.50	391.42
690.83	389.47
691.17	387.53
691.51	385.67
691.84	383.88
692.18	382.00
692.52	380.04
692.85	378.11
693.19	376.27
693.52	374.41
693.86	372.64
694.20	370.88
694.53	369.09
694.87	367.28
695.21	365.49
695.54	363.67
695.88	361.95
696.21	360.29
696.55	358.64
696.88	356.99
697.22	355.34
697.56	353.70
697.89	352.06
698.23	350.44
698.56	348.83
698.90	347.23
699.23	345.60
699.57	344.07
699.90	342.54
700.24	341.00
700.58	339.51
700.91	338.02
701.25	336.58
701.58	335.27
701.92	333.91
702.25	332.53
702.59	331.22
702.92	329.93
703.26	328.60
703.59	327.31
703.93	326.16
704.26	324.97
704.60	323.74
704.93	322.49
705.26	321.31
705.60	320.12
705.93	318.98
706.27	317.98
706.60	316.94
706.94	315.88
707.27	314.83
707.61	313.77
707.94	312.76
708.27	311.67
708.61	310.53
708.94	309.56
709.28	308.62
709.61	307.66
709.94	306.70
710.28	305.70
710.61	304.78
710.95	303.71
711.28	302.78
711.61	301.81
711.95	300.93
712.28	299.96
712.61	298.99
712.95	298.04
713.28	297.15
713.61	296.25
713.95	295.35
714.28	294.50
714.61	293.64
714.95	292.79
715.28	291.94
715.61	291.09
715.95	290.26
716.28	289.36
716.61	288.51
716.95	287.73
717.28	286.99
717.61	286.18
717.94	285.41
718.28	284.60
718.61	283.91
718.94	283.18
719.27	282.55
719.61	281.92
719.94	281.30
720.27	280.58
720.60	279.95
720.94	279.39
721.27	278.80
721.60	278.21
721.93	277.65
722.27	277.13
722.60	276.60
722.93	276.02
723.26	275.49
723.59	274.93
723.93	274.41
724.26	273.85
724.59	273.34
724.92	272.84
725.25	272.32
725.59	271.77
725.92	271.30
726.25	270.80
726.58	270.34
726.91	269.84
727.24	269.36
727.57	268.91
727.91	268.39
728.24	267.96
728.57	267.47
728.90	267.01
729.23	266.50
729.56	266.09
729.89	265.63
730.22	265.17
730.55	264.72
730.89	264.25
731.22	263.80
731.55	263.35
731.88	262.94
732.21	262.55
732.54	262.14
732.87	261.69
733.20	261.32
733.53	260.94
733.86	260.59
734.19	260.21
734.52	259.80
734.85	259.46
735.18	259.00
735.51	258.66
735.84	258.29
736.17	257.97
736.50	257.54
736.83	257.30
737.16	256.99
737.49	256.67
737.82	256.31
738.15	256.03
738.48	255.68
738.81	255.31
739.14	254.99
739.47	254.67
739.80	254.42
740.13	254.10
740.46	253.76
740.79	253.41
741.12	253.09
741.45	252.77
741.78	252.41
742.11	252.13
742.44	251.80
742.77	251.54
743.10	251.22
743.43	250.96
743.75	250.57
744.08	250.43
744.41	250.15
744.74	249.89
745.07	249.55
745.40	249.35
745.73	249.14
746.06	248.85
746.39	248.61
746.71	248.32
747.04	248.04
747.37	247.75
747.70	247.50
748.03	247.26
748.36	247.06
748.68	246.83
749.01	246.57
749.34	246.35
749.67	246.08
750.00	245.86
750.33	245.69
750.65	245.47
750.98	245.10
751.31	244.87
751.64	244.68
751.97	244.54
752.29	244.30
752.62	244.10
752.95	243.89
753.28	243.67
753.60	243.49
753.93	243.29
754.26	243.15
754.59	242.93
754.91	242.73
755.24	242.51
755.57	242.34
755.90	242.17
756.22	241.99
756.55	241.81
756.88	241.61
757.20	241.39
757.53	241.20
757.86	241.08
758.19	240.96
758.51	240.81
758.84	240.60
759.17	240.43
759.49	240.28
759.82	240.19
760.15	240.04
760.47	239.88
760.80	239.72
761.13	239.55
761.45	239.43
761.78	239.29
762.11	239.17
762.43	239.01
762.76	238.86
763.08	238.74
763.41	238.61
763.74	238.53
764.06	238.40
764.39	238.29
764.71	238.14
765.04	237.98
765.37	237.82
765.69	237.72
766.02	237.59
766.34	237.43
766.67	237.23
767.00	237.15
767.32	237.09
767.65	237.02
767.97	236.93
768.30	236.84
768.62	236.74
768.95	236.62
769.27	236.53
769.60	236.45
769.92	236.34
770.25	236.23
770.57	236.08
770.90	235.96
771.22	235.85
771.55	235.75
771.87	235.70
772.20	235.64
772.52	235.63
772.85	235.64
773.17	235.56
773.50	235.49
773.82	235.38
774.15	235.24
774.47	235.12
774.80	235.01
775.12	234.89
775.45	234.80
775.77	234.77
776.09	234.70
776.42	234.60
776.74	234.53
777.07	234.44
777.39	234.39
777.72	234.30
778.04	234.20
778.36	234.15
778.69	234.04
779.01	233.98
779.33	233.82
779.66	233.66
779.98	233.57
780.31	233.52
780.63	233.49
780.95	233.37
781.28	233.32
781.60	233.25
781.92	233.20
782.25	233.14
782.57	233.04
782.89	233.00
783.22	232.95
783.54	232.88
783.86	232.84
784.19	232.77
784.51	232.75
784.83	232.72
785.16	232.62
785.48	232.59
785.80	232.51
786.12	232.41
786.45	232.34
786.77	232.31
787.09	232.25
787.42	232.17
787.74	232.18
788.06	232.14
788.38	232.12
788.71	232.04
789.03	232.02
789.35	231.96
789.67	231.88
789.99	231.81
790.32	231.78
790.64	231.74
790.96	231.76
791.28	231.69
791.61	231.66
791.93	231.64
792.25	231.60
792.57	231.65
792.89	231.63
793.21	231.62
793.54	231.60
793.86	231.53
794.18	231.52
794.50	231.44
794.82	231.40
795.14	231.33
795.47	231.30
795.79	231.26
796.11	231.22
796.43	231.19
796.75	231.17
797.07	231.12
797.39	231.11
797.71	230.99
798.04	230.95
798.36	230.91
798.68	230.91
799.00	230.86
799.32	230.77
799.64	230.74
799.96	230.67
800.28	230.62
800.60	230.60
800.92	230.55
801.24	230.53
801.56	230.52
801.89	230.48
802.21	230.46
802.53	230.41
802.85	230.40
803.17	230.39
803.49	230.31
803.81	230.26
804.13	230.19
804.45	230.20
804.77	230.19
805.09	230.14
805.41	230.05
805.73	230.00
806.05	229.94
806.37	229.90
806.69	229.88
807.01	229.83
807.33	229.82
807.65	229.77
807.97	229.78
808.28	229.70
808.60	229.69
808.92	229.67
809.24	229.69
809.56	229.64
809.88	229.60
810.20	229.62
810.52	229.64
810.84	229.60
811.16	229.54
811.48	229.51
811.80	229.50
812.12	229.47
812.43	229.47
812.75	229.44
813.07	229.41
813.39	229.39
813.71	229.38
814.03	229.31
814.35	229.30
814.67	229.24
814.98	229.24
815.30	229.20
815.62	229.15
815.94	229.08
816.26	229.10
816.58	229.06
816.89	229.03
817.21	229.00
817.53	228.97
817.85	228.94
818.17	228.94
818.48	228.91
818.80	228.93
819.12	228.92
819.44	228.89
819.76	228.89
820.07	228.87
820.39	228.84
820.71	228.84
821.03	228.82
821.34	228.81
821.66	228.83
821.98	228.85
822.30	228.82
822.61	228.90
822.93	228.87
823.25	228.87
823.57	228.87
823.88	228.85
824.20	228.87
824.52	228.93
824.83	228.89
825.15	228.86
825.47	228.84
825.79	228.83
826.10	228.83
826.42	228.81
826.74	228.82
827.05	228.85
827.37	228.83
827.69	228.81
828.00	228.81
828.32	228.79
828.64	228.76
828.95	228.84
829.27	228.80
829.58	228.77
829.90	228.79
830.22	228.78
830.53	228.77
830.85	228.77
831.17	228.68
831.48	228.68
831.80	228.68
832.11	228.69
832.43	228.66
832.75	228.65
833.06	228.69
833.38	228.67
833.69	228.67
834.01	228.71
834.32	228.74
834.64	228.72
834.96	228.70
835.27	228.70
835.59	228.65
835.90	228.60
836.22	228.61
836.53	228.58
836.85	228.57
837.16	228.68
837.48	228.66
837.79	228.71
838.11	228.71
838.42	228.70
838.74	228.73
839.05	228.72
839.37	228.69
839.68	228.66
840.00	228.66
840.31	228.66
840.63	228.59
840.94	228.56
841.26	228.55
841.57	228.53
841.88	228.54
842.20	228.52
842.51	228.47
842.83	228.46
843.14	228.53
843.46	228.52
843.77	228.45
844.08	228.42
844.40	228.37
844.71	228.35
845.03	228.33
845.34	228.29
845.65	228.26
845.97	228.26
846.28	228.26
846.60	228.21
846.91	228.16
847.22	228.17
847.54	228.19
847.85	228.20
848.16	228.19
848.48	228.15
848.79	228.17
849.10	228.19
849.42	228.17
849.73	228.06
850.04	228.07
850.36	228.01
850.67	228.04
850.98	228.02
851.30	228.04
851.61	228.02
851.92	227.99
852.23	228.03
852.55	228.01
852.86	227.97
853.17	227.96
853.49	227.98
853.80	228.02
854.11	228.00
854.42	227.99
854.74	228.02
855.05	228.00
855.36	227.94
855.67	227.91
855.99	227.93
856.30	228.04
856.61	228.01
856.92	228.01
857.23	228.00
857.55	228.00
857.86	227.97
858.17	227.98
858.48	227.96
858.79	227.95
859.11	227.97
859.42	228.02
859.73	228.02
860.04	228.01
860.35	227.97
860.66	227.93
860.98	227.90
861.29	227.88
861.60	227.89
861.91	227.91
862.22	227.91
862.53	227.91
862.84	227.83
863.16	227.84
863.47	227.81
863.78	227.80
864.09	227.80
864.40	227.82
864.71	227.83
865.02	227.84
865.33	227.82
865.64	227.79
865.95	227.76
866.27	227.86
866.58	227.85
866.89	227.85
867.20	227.87
867.51	227.88
867.82	227.87
868.13	227.91
868.44	227.92
868.75	227.97
869.06	227.95
869.37	227.94
869.68	227.93
869.99	227.96
870.30	228.00
870.61	228.01
870.92	228.00
871.23	227.98
871.54	228.04
871.85	228.05
872.16	228.10
872.47	228.11
872.78	228.07
873.09	228.08
873.40	228.09
873.71	228.12
874.02	228.16
874.33	228.14
874.64	228.11
874.95	228.10
875.26	228.07
875.56	228.06
875.87	228.06
876.18	228.08
876.49	228.18
876.80	228.17
877.11	228.15
877.42	228.15
877.73	228.18
878.04	228.14
878.35	228.17
878.66	228.13
878.96	228.10
879.27	228.11
879.58	228.11
879.89	228.11
880.20	228.10
880.51	228.08
880.82	228.11
881.12	228.10
881.43	228.07
881.74	228.08
882.05	228.10
882.36	228.11
882.67	228.10
882.97	228.01
883.28	227.96
883.59	227.97
883.90	228.00
884.21	227.97
884.51	227.98
884.82	227.93
885.13	227.96
885.44	227.96
885.74	227.93
886.05	227.93
886.36	227.90
886.67	227.87
886.98	227.92
887.28	227.90
887.59	227.92
887.90	227.92
888.20	227.88
888.51	227.87
888.82	227.88
889.13	227.90
889.43	227.95
889.74	227.95
890.05	227.93
890.35	227.90
890.66	227.90
890.97	227.88
891.28	227.87
891.58	227.84
891.89	227.85
892.20	227.81
892.50	227.77
892.81	227.79
893.12	227.76
893.42	227.71
893.73	227.72
894.04	227.68
894.34	227.68
894.65	227.69
894.95	227.67
895.26	227.62
895.57	227.63
895.87	227.52
896.18	227.54
896.48	227.53
896.79	227.53
897.10	227.53
897.40	227.55
897.71	227.56
898.01	227.54
898.32	227.56
898.63	227.56
898.93	227.59
899.24	227.53
899.54	227.54
899.85	227.54
900.15	227.53
900.46	227.54
900.76	227.56
901.07	227.54
901.38	227.52
901.68	227.56
901.99	227.54
902.29	227.57
902.60	227.55
902.90	227.55
903.21	227.58
903.51	227.58
903.82	227.58
904.12	227.58
904.43	227.62
904.73	227.58
905.03	227.59
905.34	227.70
905.64	227.73
905.95	227.71
906.25	227.70
906.56	227.69
906.86	227.70
907.17	227.67
907.47	227.70
907.77	227.72
908.08	227.69
908.38	227.67
908.69	227.66
908.99	227.71
909.30	227.72
909.60	227.68
909.90	227.70
910.21	227.66
910.51	227.67
910.81	227.65
911.12	227.68
911.42	227.68
911.73	227.56
912.03	227.57
912.33	227.60
912.64	227.58
912.94	227.60
913.24	227.61
913.55	227.60
913.85	227.61
914.15	227.64
914.46	227.66
914.76	227.69
915.06	227.68
915.37	227.63
915.67	227.64
915.97	227.66
916.27	227.64
916.58	227.65
916.88	227.65
917.18	227.66
917.49	227.71
917.79	227.73
918.09	227.76
918.39	227.78
918.70	227.80
919.00	227.84
919.30	227.87
919.60	227.83
919.91	227.84
920.21	227.88
920.51	227.84
920.81	227.84
921.12	227.83
921.42	227.86
921.72	227.87
922.02	227.89
922.32	227.89
922.63	227.92
922.93	227.98
923.23	227.94
923.53	227.95
923.83	227.88
924.13	227.88
924.44	227.86
924.74	227.89
925.04	227.86
925.34	227.84
925.64	227.80
925.94	227.82
926.24	227.87
926.55	227.84
926.85	227.86
927.15	227.84
927.45	227.85
927.75	227.84
928.05	227.82
928.35	227.79
928.65	227.81
928.95	227.80
929.26	227.73
929.56	227.78
929.86	227.74
930.16	227.74
930.46	227.69
930.76	227.67
931.06	227.59
931.36	227.58
931.66	227.61
931.96	227.60
932.26	227.59
932.56	227.51
932.86	227.48
933.16	227.46
933.46	227.43
933.76	227.42
934.06	227.41
934.36	227.48
934.66	227.46
934.96	227.44
935.26	227.41
935.56	227.41
935.86	227.37
936.16	227.37
936.46	227.34
936.76	227.32
937.06	227.33
937.36	227.35
937.66	227.32
937.96	227.32
938.26	227.31
938.56	227.28
938.86	227.30
939.16	227.32
939.46	227.32
939.76	227.35
940.06	227.33
940.35	227.29
940.65	227.22
940.95	227.24
941.25	227.22
941.55	227.23
941.85	227.25
942.15	227.27
942.45	227.31
942.75	227.34
943.04	227.37
943.34	227.39
943.64	227.38
943.94	227.41
944.24	227.38
944.54	227.39
944.84	227.43
945.13	227.45
945.43	227.43
945.73	227.42
946.03	227.39
946.33	227.42
946.62	227.43
946.92	227.44
947.22	227.45
947.52	227.43
947.82	227.45
948.11	227.41
948.41	227.41
948.71	227.42
949.01	227.42
949.31	227.42
949.60	227.42
949.90	227.46
950.20	227.45
950.50	227.48
950.79	227.47
951.09	227.48
951.39	227.46
951.69	227.48
951.98	227.54
952.28	227.55
952.58	227.54
952.87	227.56
953.17	227.59
953.47	227.57
953.76	227.60
954.06	227.58
954.36	227.57
954.66	227.55
954.95	227.55
955.25	227.56
955.55	227.56
955.84	227.54
956.14	227.53
956.44	227.52
956.73	227.49
957.03	227.52
957.32	227.50
957.62	227.49
957.92	227.50
958.21	227.49
958.51	227.58
958.81	227.61
959.10	227.61
959.40	227.59
959.69	227.59
959.99	227.59
960.29	227.57
960.58	227.60
960.88	227.65
961.17	227.64
961.47	227.65
961.76	227.66
962.06	227.68
962.36	227.67
962.65	227.71
962.95	227.70
963.24	227.67
963.54	227.67
963.83	227.71
964.13	227.69
964.42	227.63
964.72	227.56
965.01	227.51
965.31	227.46
965.60	227.45
965.90	227.50
966.19	227.48
966.49	227.51
966.78	227.51
967.08	227.50
967.37	227.48
967.67	227.44
967.96	227.45
968.26	227.45
968.55	227.46
968.85	227.44
969.14	227.45
969.43	227.41
969.73	227.42
970.02	227.37
970.32	227.35
970.61	227.35
970.91	227.32
971.20	227.32
971.49	227.36
971.79	227.37
972.08	227.30
972.38	227.32
972.67	227.28
972.96	227.29
973.26	227.22
973.55	227.26
973.85	227.25
974.14	227.24
974.43	227.21
974.73	227.22
975.02	227.22
975.31	227.21
975.61	227.22
975.90	227.22
976.19	227.25
976.49	227.28
976.78	227.29
977.07	227.29
977.37	227.30
977.66	227.31
977.95	227.30
978.24	227.31
978.54	227.28
978.83	227.28
979.12	227.27
979.42	227.33
979.71	227.31
980.00	227.33
980.29	227.33
980.59	227.34
980.88	227.35
981.17	227.30
981.46	227.29
981.76	227.31
982.05	227.34
982.34	227.31
982.63	227.30
982.93	227.30
983.22	227.36
983.51	227.34
983.80	227.33
984.09	227.38
984.39	227.41
984.68	227.44
984.97	227.46
985.26	227.44
985.55	227.41
985.85	227.42
986.14	227.43
986.43	227.45
986.72	227.44
987.01	227.43
987.30	227.47
987.59	227.47
987.89	227.47
988.18	227.42
988.47	227.43
988.76	227.43
989.05	227.44
989.34	227.39
989.63	227.41
989.92	227.39
990.22	227.36
990.51	227.33
990.80	227.34
991.09	227.35
991.38	227.37
991.67	227.35
991.96	227.31
992.25	227.31
992.54	227.28
992.83	227.28
993.12	227.26
993.41	227.27
993.70	227.30
993.99	227.30
994.28	227.30
994.58	227.31
994.87	227.29
995.16	227.28
995.45	227.30
995.74	227.31
996.03	227.33
996.32	227.35
996.61	227.39
996.90	227.35
997.19	227.32
997.48	227.30
997.77	227.33
998.06	227.32
998.34	227.31
998.63	227.30
998.92	227.31
999.21	227.32
999.50	227.31
999.79	227.29
1000.08	227.25
1000.37	227.25
1000.66	227.26
1000.95	227.25
1001.24	227.26
1001.53	227.27
1001.82	227.26
1002.11	227.27
1002.40	227.26
1002.68	227.28
1002.97	227.35
1003.26	227.39
1003.55	227.40
1003.84	227.38
1004.13	227.42
1004.42	227.40
1004.71	227.40
1004.99	227.38
1005.28	227.39
1005.57	227.40
1005.86	227.38
1006.15	227.41
1006.44	227.43
1006.72	227.42
1007.01	227.47
1007.30	227.51
1007.59	227.50
1007.88	227.51
1008.17	227.49
1008.45	227.47
1008.74	227.43
1009.03	227.40
1009.32	227.36
1009.60	227.36
1009.89	227.36
1010.18	227.36
1010.47	227.39
1010.76	227.41
1011.04	227.43
1011.33	227.47
1011.62	227.49
1011.91	227.52
1012.19	227.56
1012.48	227.55
1012.77	227.57
1013.05	227.61
1013.34	227.57
1013.63	227.54
1013.92	227.54
1014.20	227.54
1014.49	227.57
1014.78	227.58
1015.06	227.57
1015.35	227.57
1015.64	227.60
1015.92	227.64
1016.21	227.65
1016.50	227.64
1016.78	227.66
1017.07	227.67
1017.36	227.65
1017.64	227.60
1017.93	227.62
1018.22	227.62
1018.50	227.63
1018.79	227.62
1019.08	227.55
1019.36	227.56
1019.65	227.56
1019.93	227.57
1020.22	227.57
1020.51	227.62
1020.79	227.61
1021.08	227.82
1021.36	227.51
1021.65	227.48
1021.94	227.10
1022.22	227.62
1022.51	227.12
1022.79	227.60
1023.08	227.33
1023.36	228.80
1023.65	227.33
>>>>>End Processed Spectral Data<<<<<
