SpectraSuite Data File
++++++++++++++++++++++++++++++++++++
Date: Fri Feb 01 16:38:20 EST 2013
User: group
Dark Spectrum Present: No
Reference Spectrum Present: No
Number of Sampled Component Spectra: 1
Spectrometers: USB2E7196
Integration Time (usec): 35000 (USB2E7196)
Spectra Averaged: 100 (USB2E7196)
Boxcar Smoothing: 10 (USB2E7196)
Correct for Electrical Dark: No (USB2E7196)
Strobe/Lamp Enabled: No (USB2E7196)
Correct for Detector Non-linearity: No (USB2E7196)
Correct for Stray Light: No (USB2E7196)
Number of Pixels in Processed Spectrum: 2048
>>>>>Begin Processed Spectral Data<<<<<
339.09	0.00
339.48	214.39
339.86	216.00
340.24	215.95
340.63	217.90
341.01	221.46
341.39	221.46
341.78	222.39
342.16	223.44
342.54	223.90
342.93	212.42
343.31	223.18
343.69	223.69
344.07	224.14
344.46	224.62
344.84	225.02
345.22	225.22
345.60	225.46
345.99	225.67
346.37	225.82
346.75	225.90
347.13	225.95
347.52	226.02
347.90	226.10
348.28	226.11
348.66	226.16
349.05	226.14
349.43	226.19
349.81	226.20
350.19	226.25
350.57	226.30
350.96	226.38
351.34	226.44
351.72	226.50
352.10	226.59
352.48	226.65
352.87	226.68
353.25	226.77
353.63	226.79
354.01	226.82
354.39	226.88
354.77	226.95
355.15	227.06
355.54	227.11
355.92	227.10
356.30	227.16
356.68	227.27
357.06	227.34
357.44	227.41
357.82	227.45
358.20	227.49
358.58	227.52
358.97	227.56
359.35	227.65
359.73	227.75
360.11	227.79
360.49	227.84
360.87	227.88
361.25	227.96
361.63	228.05
362.01	228.09
362.39	228.12
362.77	228.16
363.15	228.18
363.53	228.17
363.91	228.26
364.29	228.31
364.67	228.21
365.05	228.20
365.43	228.23
365.81	228.24
366.19	228.29
366.57	228.31
366.95	228.32
367.33	228.28
367.71	228.25
368.09	228.25
368.47	228.22
368.85	228.20
369.23	228.15
369.61	228.09
369.99	228.09
370.37	228.06
370.75	228.08
371.13	228.00
371.51	227.97
371.89	227.89
372.27	227.82
372.65	227.78
373.03	227.74
373.41	227.62
373.78	227.59
374.16	227.52
374.54	227.46
374.92	227.38
375.30	227.29
375.68	227.20
376.06	227.14
376.44	227.07
376.82	226.99
377.19	226.93
377.57	226.86
377.95	226.81
378.33	226.73
378.71	226.61
379.09	226.57
379.47	226.53
379.84	226.48
380.22	226.43
380.60	226.39
380.98	226.34
381.36	226.33
381.73	226.23
382.11	226.17
382.49	226.12
382.87	226.05
383.25	226.02
383.62	226.09
384.00	226.00
384.38	225.95
384.76	225.94
385.13	225.92
385.51	225.90
385.89	225.80
386.27	225.75
386.64	225.72
387.02	225.68
387.40	225.62
387.78	225.56
388.15	225.51
388.53	225.47
388.91	225.43
389.29	225.40
389.66	225.41
390.04	225.37
390.42	225.36
390.79	225.37
391.17	225.35
391.55	225.22
391.92	225.22
392.30	225.25
392.68	225.21
393.05	225.20
393.43	225.19
393.81	225.22
394.18	225.24
394.56	225.22
394.94	225.27
395.31	225.28
395.69	225.33
396.06	225.35
396.44	225.33
396.82	225.38
397.19	225.46
397.57	225.50
397.95	225.56
398.32	225.57
398.70	225.61
399.07	225.66
399.45	225.70
399.82	225.74
400.20	225.75
400.58	225.83
400.95	225.85
401.33	225.93
401.70	226.06
402.08	226.13
402.45	226.24
402.83	226.34
403.20	226.46
403.58	226.55
403.95	226.65
404.33	226.81
404.71	226.91
405.08	227.08
405.46	227.18
405.83	227.32
406.21	227.45
406.58	227.60
406.96	227.79
407.33	227.99
407.70	228.22
408.08	228.50
408.45	228.69
408.83	228.93
409.20	229.11
409.58	229.27
409.95	229.48
410.33	229.72
410.70	229.93
411.08	230.24
411.45	230.52
411.82	230.87
412.20	231.21
412.57	231.63
412.95	231.93
413.32	232.32
413.69	232.69
414.07	233.11
414.44	233.57
414.82	234.04
415.19	234.57
415.56	235.12
415.94	235.67
416.31	236.31
416.68	236.93
417.06	237.68
417.43	238.37
417.81	239.15
418.18	239.97
418.55	240.82
418.93	241.67
419.30	242.57
419.67	243.49
420.04	244.41
420.42	245.41
420.79	246.58
421.16	247.73
421.54	248.93
421.91	250.14
422.28	251.39
422.66	252.70
423.03	254.02
423.40	255.33
423.77	256.72
424.15	258.12
424.52	259.61
424.89	261.21
425.26	262.76
425.64	264.21
426.01	265.77
426.38	267.42
426.75	269.09
427.13	270.80
427.50	272.61
427.87	274.50
428.24	276.35
428.61	278.04
428.99	279.99
429.36	282.09
429.73	284.15
430.10	286.14
430.47	288.20
430.85	290.29
431.22	292.50
431.59	294.88
431.96	297.09
432.33	299.56
432.70	301.91
433.08	304.73
433.45	307.35
433.82	309.91
434.19	312.79
434.56	315.61
434.93	318.24
435.30	320.85
435.68	323.73
436.05	326.54
436.42	329.33
436.79	331.82
437.16	334.46
437.53	337.32
437.90	340.12
438.27	342.79
438.64	345.56
439.01	348.15
439.38	350.38
439.75	352.59
440.13	355.05
440.50	357.32
440.87	359.16
441.24	361.06
441.61	363.22
441.98	364.70
442.35	366.47
442.72	368.33
443.09	370.11
443.46	371.11
443.83	371.67
444.20	372.15
444.57	373.03
444.94	373.37
445.31	373.69
445.68	374.09
446.05	374.21
446.42	373.89
446.79	373.48
447.16	373.03
447.53	372.71
447.90	371.62
448.27	370.51
448.64	368.93
449.01	367.83
449.37	365.87
449.74	363.96
450.11	361.75
450.48	359.30
450.85	356.79
451.22	354.68
451.59	352.69
451.96	350.81
452.33	348.24
452.70	345.90
453.07	343.12
453.43	340.21
453.80	337.47
454.17	334.82
454.54	332.30
454.91	329.61
455.28	326.98
455.65	324.48
456.02	322.04
456.38	319.90
456.75	317.28
457.12	315.05
457.49	312.86
457.86	310.70
458.23	308.85
458.59	306.82
458.96	304.75
459.33	302.92
459.70	301.06
460.07	299.54
460.43	297.85
460.80	296.19
461.17	294.74
461.54	293.26
461.91	291.83
462.27	290.37
462.64	289.12
463.01	287.78
463.38	286.50
463.74	285.16
464.11	284.03
464.48	283.00
464.85	281.92
465.21	281.10
465.58	280.17
465.95	279.11
466.32	278.20
466.68	277.32
467.05	276.46
467.42	275.55
467.78	274.64
468.15	273.77
468.52	273.16
468.88	272.34
469.25	271.56
469.62	270.94
469.98	270.31
470.35	269.68
470.72	269.10
471.08	268.43
471.45	267.89
471.82	267.36
472.18	266.77
472.55	266.36
472.92	265.82
473.28	265.36
473.65	264.92
474.02	264.51
474.38	264.14
474.75	263.81
475.11	263.50
475.48	263.25
475.85	263.04
476.21	262.77
476.58	262.58
476.94	262.48
477.31	262.37
477.67	262.22
478.04	262.12
478.41	262.03
478.77	262.08
479.14	262.05
479.50	262.06
479.87	262.15
480.23	262.25
480.60	262.30
480.96	262.40
481.33	262.62
481.69	262.80
482.06	262.98
482.42	263.18
482.79	263.42
483.15	263.72
483.52	264.11
483.88	264.45
484.25	264.83
484.61	265.22
484.98	265.64
485.34	266.22
485.71	266.81
486.07	267.41
486.44	267.98
486.80	268.67
487.17	269.40
487.53	270.21
487.90	271.04
488.26	271.98
488.62	273.00
488.99	273.96
489.35	275.05
489.72	276.18
490.08	277.38
490.44	278.65
490.81	279.98
491.17	281.33
491.54	282.83
491.90	284.37
492.26	286.04
492.63	287.76
492.99	289.51
493.36	291.41
493.72	293.49
494.08	295.58
494.45	297.83
494.81	300.19
495.17	302.58
495.54	305.15
495.90	307.86
496.26	310.64
496.63	313.61
496.99	316.67
497.35	319.93
497.72	323.37
498.08	326.85
498.44	330.54
498.80	334.48
499.17	338.53
499.53	342.71
499.89	347.12
500.26	351.60
500.62	356.30
500.98	361.29
501.34	366.35
501.71	371.70
502.07	377.16
502.43	382.79
502.79	388.61
503.16	394.71
503.52	400.95
503.88	407.37
504.24	413.96
504.60	420.87
504.97	428.01
505.33	435.34
505.69	443.08
506.05	450.89
506.41	458.81
506.78	466.95
507.14	475.38
507.50	484.06
507.86	493.06
508.22	502.24
508.59	511.41
508.95	520.92
509.31	530.70
509.67	540.83
510.03	551.07
510.39	561.67
510.75	572.41
511.12	583.29
511.48	594.52
511.84	606.03
512.20	617.49
512.56	629.42
512.92	641.52
513.28	653.84
513.64	666.27
514.00	678.87
514.37	691.76
514.73	704.91
515.09	717.83
515.45	731.13
515.81	744.68
516.17	758.68
516.53	772.75
516.89	786.94
517.25	801.04
517.61	815.41
517.97	829.71
518.33	844.08
518.69	858.88
519.05	873.82
519.41	888.89
519.77	904.34
520.13	919.70
520.49	935.06
520.85	950.41
521.21	965.95
521.57	982.13
521.93	997.79
522.29	1013.87
522.65	1030.05
523.01	1046.08
523.37	1062.02
523.73	1078.01
524.09	1094.08
524.45	1110.25
524.81	1126.84
525.17	1143.54
525.53	1160.33
525.89	1177.11
526.25	1193.91
526.61	1210.32
526.97	1226.98
527.33	1243.44
527.68	1259.84
528.04	1276.18
528.40	1292.49
528.76	1309.50
529.12	1325.93
529.48	1342.72
529.84	1358.72
530.20	1375.35
530.56	1392.26
530.91	1409.55
531.27	1426.21
531.63	1442.52
531.99	1458.96
532.35	1474.84
532.71	1490.65
533.07	1506.88
533.42	1522.73
533.78	1538.60
534.14	1554.67
534.50	1569.82
534.86	1585.57
535.21	1600.61
535.57	1616.30
535.93	1631.63
536.29	1646.28
536.65	1661.27
537.00	1675.79
537.36	1691.01
537.72	1705.32
538.08	1719.66
538.44	1733.22
538.79	1746.93
539.15	1760.36
539.51	1773.96
539.87	1788.02
540.22	1801.50
540.58	1814.97
540.94	1827.80
541.29	1840.44
541.65	1852.84
542.01	1865.93
542.37	1878.07
542.72	1890.34
543.08	1902.01
543.44	1914.39
543.79	1925.49
544.15	1936.29
544.51	1947.80
544.87	1958.63
545.22	1969.36
545.58	1979.53
545.94	1989.31
546.29	1998.93
546.65	2008.79
547.01	2018.12
547.36	2026.77
547.72	2035.30
548.07	2043.35
548.43	2051.74
548.79	2059.55
549.14	2067.25
549.50	2074.50
549.86	2082.22
550.21	2089.56
550.57	2096.90
550.92	2103.44
551.28	2110.54
551.64	2117.52
551.99	2123.99
552.35	2130.08
552.70	2136.22
553.06	2142.16
553.41	2148.39
553.77	2154.46
554.13	2160.44
554.48	2166.32
554.84	2171.83
555.19	2176.90
555.55	2181.94
555.90	2186.27
556.26	2191.29
556.61	2195.89
556.97	2200.31
557.32	2204.37
557.68	2208.53
558.03	2212.68
558.39	2216.20
558.74	2220.79
559.10	2224.64
559.45	2228.43
559.81	2232.65
560.16	2236.45
560.52	2239.63
560.87	2243.12
561.23	2245.94
561.58	2248.70
561.94	2251.26
562.29	2253.50
562.64	2256.59
563.00	2259.16
563.35	2262.72
563.71	2265.89
564.06	2269.10
564.42	2272.08
564.77	2274.63
565.12	2277.19
565.48	2279.14
565.83	2281.23
566.19	2282.66
566.54	2283.57
566.89	2284.67
567.25	2285.43
567.60	2286.73
567.96	2288.58
568.31	2289.35
568.66	2290.37
569.02	2291.17
569.37	2291.60
569.72	2292.75
570.08	2292.76
570.43	2292.77
570.78	2292.49
571.14	2291.06
571.49	2289.73
571.84	2289.16
572.20	2288.04
572.55	2286.73
572.90	2284.95
573.26	2283.62
573.61	2281.77
573.96	2280.30
574.31	2277.32
574.67	2274.36
575.02	2270.68
575.37	2267.17
575.72	2263.65
576.08	2260.33
576.43	2257.04
576.78	2253.46
577.13	2250.03
577.49	2246.77
577.84	2243.45
578.19	2239.51
578.54	2236.12
578.90	2232.10
579.25	2226.73
579.60	2222.04
579.95	2217.29
580.30	2212.45
580.66	2207.37
581.01	2202.56
581.36	2197.64
581.71	2193.79
582.06	2189.45
582.42	2185.21
582.77	2180.24
583.12	2175.75
583.47	2171.39
583.82	2166.61
584.17	2161.60
584.53	2156.21
584.88	2150.89
585.23	2145.28
585.58	2139.88
585.93	2134.27
586.28	2129.41
586.63	2124.55
586.98	2119.31
587.34	2114.60
587.69	2109.87
588.04	2104.72
588.39	2099.09
588.74	2092.63
589.09	2086.29
589.44	2079.64
589.79	2073.55
590.14	2067.79
590.49	2061.28
590.84	2054.76
591.19	2048.69
591.54	2042.06
591.89	2035.03
592.25	2028.27
592.60	2021.12
592.95	2013.79
593.30	2006.55
593.65	1998.87
594.00	1991.72
594.35	1984.60
594.70	1976.58
595.05	1969.69
595.40	1962.44
595.75	1955.15
596.10	1949.19
596.45	1942.78
596.80	1936.67
597.15	1930.22
597.50	1923.40
597.85	1916.90
598.19	1910.41
598.54	1903.55
598.89	1897.05
599.24	1891.02
599.59	1884.54
599.94	1878.26
600.29	1871.89
600.64	1865.24
600.99	1858.07
601.34	1851.35
601.69	1844.33
602.04	1837.57
602.39	1830.10
602.74	1823.40
603.08	1816.63
603.43	1809.93
603.78	1802.54
604.13	1795.25
604.48	1788.11
604.83	1781.39
605.18	1774.70
605.53	1766.75
605.87	1758.65
606.22	1751.36
606.57	1743.37
606.92	1735.80
607.27	1728.78
607.62	1721.93
607.96	1714.91
608.31	1708.52
608.66	1701.00
609.01	1693.62
609.36	1686.09
609.70	1677.98
610.05	1669.97
610.40	1662.34
610.75	1653.96
611.10	1646.30
611.44	1637.88
611.79	1629.78
612.14	1621.12
612.49	1611.81
612.83	1603.35
613.18	1595.23
613.53	1587.26
613.88	1578.82
614.22	1570.73
614.57	1562.10
614.92	1554.12
615.27	1546.54
615.61	1538.11
615.96	1530.04
616.31	1522.32
616.65	1514.89
617.00	1507.53
617.35	1499.70
617.70	1491.48
618.04	1483.12
618.39	1474.85
618.74	1467.52
619.08	1459.23
619.43	1451.48
619.78	1444.58
620.12	1437.56
620.47	1430.10
620.82	1421.84
621.16	1414.45
621.51	1406.80
621.85	1399.20
622.20	1390.67
622.55	1382.29
622.89	1374.41
623.24	1366.81
623.59	1359.40
623.93	1351.89
624.28	1344.58
624.62	1337.16
624.97	1329.97
625.32	1323.04
625.66	1316.10
626.01	1308.79
626.35	1301.55
626.70	1293.86
627.04	1286.20
627.39	1278.28
627.73	1270.87
628.08	1264.06
628.43	1256.86
628.77	1249.58
629.12	1242.08
629.46	1235.02
629.81	1227.43
630.15	1220.26
630.50	1212.94
630.84	1204.88
631.19	1196.88
631.53	1189.31
631.88	1181.81
632.22	1174.11
632.57	1166.76
632.91	1159.26
633.26	1151.90
633.60	1144.35
633.95	1137.11
634.29	1129.98
634.64	1123.26
634.98	1116.02
635.32	1108.83
635.67	1102.07
636.01	1095.37
636.36	1088.58
636.70	1081.86
637.05	1075.40
637.39	1069.00
637.73	1062.48
638.08	1056.53
638.42	1050.68
638.77	1044.33
639.11	1037.83
639.45	1031.49
639.80	1024.86
640.14	1018.36
640.49	1011.83
640.83	1005.53
641.17	999.46
641.52	993.25
641.86	986.82
642.20	980.98
642.55	974.66
642.89	968.38
643.23	961.73
643.58	955.94
643.92	949.83
644.26	943.94
644.61	937.74
644.95	931.76
645.29	925.25
645.64	918.50
645.98	912.19
646.32	906.21
646.66	900.23
647.01	894.48
647.35	888.90
647.69	883.09
648.04	877.57
648.38	871.71
648.72	865.71
649.06	859.78
649.41	853.75
649.75	847.92
650.09	841.89
650.43	836.22
650.78	830.06
651.12	824.14
651.46	818.34
651.80	812.77
652.14	807.31
652.49	801.94
652.83	796.77
653.17	791.07
653.51	785.50
653.85	779.99
654.20	774.35
654.54	768.29
654.88	762.46
655.22	756.58
655.56	750.86
655.90	745.34
656.25	740.05
656.59	734.76
656.93	729.60
657.27	724.51
657.61	719.09
657.95	713.97
658.29	708.88
658.64	703.59
658.98	698.10
659.32	692.65
659.66	687.36
660.00	682.13
660.34	677.17
660.68	672.12
661.02	667.12
661.36	662.42
661.70	657.98
662.05	653.66
662.39	649.37
662.73	644.97
663.07	640.59
663.41	636.10
663.75	631.62
664.09	627.09
664.43	622.66
664.77	618.55
665.11	614.28
665.45	610.12
665.79	606.08
666.13	601.99
666.47	597.85
666.81	593.78
667.15	589.62
667.49	585.68
667.83	581.84
668.17	577.87
668.51	573.83
668.85	569.77
669.19	565.88
669.53	562.04
669.87	558.12
670.21	554.42
670.55	550.88
670.89	547.43
671.23	543.96
671.57	540.42
671.91	536.91
672.25	533.47
672.58	529.98
672.92	526.52
673.26	523.39
673.60	520.22
673.94	517.16
674.28	514.18
674.62	511.26
674.96	508.25
675.30	505.42
675.64	502.47
675.97	499.72
676.31	496.83
676.65	493.92
676.99	491.23
677.33	488.43
677.67	485.60
678.01	482.56
678.34	479.64
678.68	476.85
679.02	474.03
679.36	471.23
679.70	468.52
680.04	465.76
680.37	462.94
680.71	460.15
681.05	457.46
681.39	454.80
681.73	452.18
682.06	449.61
682.40	447.06
682.74	444.53
683.08	441.92
683.42	439.33
683.75	436.84
684.09	434.25
684.43	431.72
684.77	429.22
685.10	426.90
685.44	424.52
685.78	422.16
686.12	419.82
686.45	417.47
686.79	415.16
687.13	412.96
687.46	410.78
687.80	408.66
688.14	406.44
688.48	404.41
688.81	402.14
689.15	399.99
689.49	397.77
689.82	395.68
690.16	393.58
690.50	391.64
690.83	389.72
691.17	387.71
691.51	385.77
691.84	383.93
692.18	382.02
692.52	380.07
692.85	378.13
693.19	376.28
693.52	374.45
693.86	372.64
694.20	370.90
694.53	369.10
694.87	367.21
695.21	365.42
695.54	363.54
695.88	361.80
696.21	360.08
696.55	358.42
696.88	356.69
697.22	355.00
697.56	353.36
697.89	351.72
698.23	350.17
698.56	348.62
698.90	347.05
699.23	345.43
699.57	343.86
699.90	342.35
700.24	340.78
700.58	339.30
700.91	337.84
701.25	336.34
701.58	334.96
701.92	333.60
702.25	332.20
702.59	330.86
702.92	329.53
703.26	328.23
703.59	326.96
703.93	325.79
704.26	324.57
704.60	323.30
704.93	321.99
705.26	320.71
705.60	319.49
705.93	318.29
706.27	317.26
706.60	316.25
706.94	315.17
707.27	314.03
707.61	312.92
707.94	311.86
708.27	310.80
708.61	309.71
708.94	308.69
709.28	307.71
709.61	306.74
709.94	305.79
710.28	304.77
710.61	303.77
710.95	302.70
711.28	301.78
711.61	300.83
711.95	299.90
712.28	299.02
712.61	298.08
712.95	297.17
713.28	296.23
713.61	295.29
713.95	294.42
714.28	293.59
714.61	292.73
714.95	291.85
715.28	291.00
715.61	290.14
715.95	289.32
716.28	288.46
716.61	287.63
716.95	286.83
717.28	286.05
717.61	285.28
717.94	284.56
718.28	283.78
718.61	283.03
718.94	282.34
719.27	281.63
719.61	280.98
719.94	280.30
720.27	279.55
720.60	278.89
720.94	278.20
721.27	277.61
721.60	277.06
721.93	276.48
722.27	275.92
722.60	275.35
722.93	274.76
723.26	274.22
723.59	273.66
723.93	273.11
724.26	272.56
724.59	271.99
724.92	271.45
725.25	270.91
725.59	270.40
725.92	269.83
726.25	269.28
726.58	268.78
726.91	268.28
727.24	267.86
727.57	267.40
727.91	266.96
728.24	266.48
728.57	265.97
728.90	265.50
729.23	265.05
729.56	264.63
729.89	264.20
730.22	263.78
730.55	263.33
730.89	262.91
731.22	262.48
731.55	262.06
731.88	261.63
732.21	261.21
732.54	260.77
732.87	260.40
733.20	260.05
733.53	259.66
733.86	259.30
734.19	258.90
734.52	258.50
734.85	258.17
735.18	257.79
735.51	257.46
735.84	257.10
736.17	256.73
736.50	256.33
736.83	256.12
737.16	255.76
737.49	255.46
737.82	255.09
738.15	254.77
738.48	254.45
738.81	254.14
739.14	253.87
739.47	253.58
739.80	253.27
740.13	252.95
740.46	252.63
740.79	252.28
741.12	251.97
741.45	251.67
741.78	251.31
742.11	251.04
742.44	250.70
742.77	250.41
743.10	250.08
743.43	249.81
743.75	249.38
744.08	249.23
744.41	248.94
744.74	248.65
745.07	248.36
745.40	248.11
745.73	247.87
746.06	247.55
746.39	247.26
746.71	247.01
747.04	246.75
747.37	246.52
747.70	246.32
748.03	246.05
748.36	245.85
748.68	245.58
749.01	245.29
749.34	245.05
749.67	244.83
750.00	244.63
750.33	244.44
750.65	244.24
750.98	243.89
751.31	243.65
751.64	243.46
751.97	243.30
752.29	243.07
752.62	242.79
752.95	242.56
753.28	242.35
753.60	242.11
753.93	241.94
754.26	241.69
754.59	241.41
754.91	241.23
755.24	240.98
755.57	240.82
755.90	240.64
756.22	240.43
756.55	240.22
756.88	240.01
757.20	239.77
757.53	239.56
757.86	239.38
758.19	239.22
758.51	239.04
758.84	238.81
759.17	238.65
759.49	238.53
759.82	238.42
760.15	238.29
760.47	238.14
760.80	237.94
761.13	237.81
761.45	237.67
761.78	237.51
762.11	237.39
762.43	237.24
762.76	237.10
763.08	237.00
763.41	236.88
763.74	236.76
764.06	236.59
764.39	236.45
764.71	236.31
765.04	236.14
765.37	236.01
765.69	235.88
766.02	235.75
766.34	235.60
766.67	235.45
767.00	235.33
767.32	235.25
767.65	235.20
767.97	235.10
768.30	234.99
768.62	234.88
768.95	234.76
769.27	234.62
769.60	234.53
769.92	234.39
770.25	234.25
770.57	234.16
770.90	234.11
771.22	233.98
771.55	233.89
771.87	233.84
772.20	233.74
772.52	233.75
772.85	233.76
773.17	233.71
773.50	233.63
773.82	233.54
774.15	233.42
774.47	233.24
774.80	233.15
775.12	233.08
775.45	233.02
775.77	232.96
776.09	232.93
776.42	232.84
776.74	232.79
777.07	232.71
777.39	232.60
777.72	232.48
778.04	232.45
778.36	232.41
778.69	232.32
779.01	232.24
779.33	232.07
779.66	231.92
779.98	231.83
780.31	231.81
780.63	231.78
780.95	231.73
781.28	231.70
781.60	231.63
781.92	231.57
782.25	231.53
782.57	231.44
782.89	231.36
783.22	231.31
783.54	231.26
783.86	231.23
784.19	231.19
784.51	231.19
784.83	231.11
785.16	231.04
785.48	230.98
785.80	230.96
786.12	230.91
786.45	230.86
786.77	230.83
787.09	230.73
787.42	230.64
787.74	230.58
788.06	230.54
788.38	230.51
788.71	230.45
789.03	230.37
789.35	230.37
789.67	230.30
789.99	230.32
790.32	230.23
790.64	230.18
790.96	230.23
791.28	230.15
791.61	230.09
791.93	230.06
792.25	230.03
792.57	230.03
792.89	230.00
793.21	229.92
793.54	229.87
793.86	229.80
794.18	229.77
794.50	229.75
794.82	229.72
795.14	229.68
795.47	229.67
795.79	229.65
796.11	229.55
796.43	229.51
796.75	229.43
797.07	229.40
797.39	229.36
797.71	229.24
798.04	229.21
798.36	229.18
798.68	229.13
799.00	229.14
799.32	229.07
799.64	229.05
799.96	229.04
800.28	229.04
800.60	229.00
800.92	228.99
801.24	228.97
801.56	228.95
801.89	228.90
802.21	228.87
802.53	228.84
802.85	228.86
803.17	228.91
803.49	228.84
803.81	228.84
804.13	228.82
804.45	228.78
804.77	228.72
805.09	228.71
805.41	228.69
805.73	228.60
806.05	228.53
806.37	228.49
806.69	228.46
807.01	228.42
807.33	228.43
807.65	228.36
807.97	228.34
808.28	228.33
808.60	228.33
808.92	228.29
809.24	228.30
809.56	228.23
809.88	228.17
810.20	228.17
810.52	228.13
810.84	228.09
811.16	228.07
811.48	228.07
811.80	228.09
812.12	228.07
812.43	228.06
812.75	228.03
813.07	227.99
813.39	227.97
813.71	227.98
814.03	227.93
814.35	227.91
814.67	227.86
814.98	227.78
815.30	227.74
815.62	227.71
815.94	227.66
816.26	227.74
816.58	227.70
816.89	227.70
817.21	227.69
817.53	227.71
817.85	227.69
818.17	227.69
818.48	227.63
818.80	227.64
819.12	227.64
819.44	227.66
819.76	227.64
820.07	227.63
820.39	227.59
820.71	227.62
821.03	227.63
821.34	227.60
821.66	227.62
821.98	227.62
822.30	227.62
822.61	227.66
822.93	227.55
823.25	227.55
823.57	227.54
823.88	227.53
824.20	227.49
824.52	227.50
824.83	227.48
825.15	227.47
825.47	227.46
825.79	227.46
826.10	227.42
826.42	227.42
826.74	227.40
827.05	227.39
827.37	227.35
827.69	227.33
828.00	227.32
828.32	227.32
828.64	227.28
828.95	227.33
829.27	227.30
829.58	227.31
829.90	227.32
830.22	227.31
830.53	227.29
830.85	227.28
831.17	227.26
831.48	227.24
831.80	227.24
832.11	227.25
832.43	227.21
832.75	227.18
833.06	227.25
833.38	227.24
833.69	227.20
834.01	227.17
834.32	227.16
834.64	227.16
834.96	227.13
835.27	227.12
835.59	227.06
835.90	227.00
836.22	227.00
836.53	226.92
836.85	226.91
837.16	226.98
837.48	226.96
837.79	226.95
838.11	226.94
838.42	226.93
838.74	226.89
839.05	226.87
839.37	226.89
839.68	226.80
840.00	226.77
840.31	226.78
840.63	226.80
840.94	226.77
841.26	226.74
841.57	226.73
841.88	226.70
842.20	226.66
842.51	226.66
842.83	226.61
843.14	226.71
843.46	226.70
843.77	226.62
844.08	226.60
844.40	226.55
844.71	226.52
845.03	226.49
845.34	226.49
845.65	226.46
845.97	226.42
846.28	226.44
846.60	226.42
846.91	226.38
847.22	226.32
847.54	226.36
847.85	226.35
848.16	226.32
848.48	226.34
848.79	226.37
849.10	226.36
849.42	226.41
849.73	226.32
850.04	226.30
850.36	226.28
850.67	226.29
850.98	226.31
851.30	226.31
851.61	226.27
851.92	226.23
852.23	226.26
852.55	226.27
852.86	226.25
853.17	226.26
853.49	226.29
853.80	226.32
854.11	226.30
854.42	226.30
854.74	226.32
855.05	226.31
855.36	226.26
855.67	226.25
855.99	226.22
856.30	226.31
856.61	226.30
856.92	226.30
857.23	226.30
857.55	226.29
857.86	226.32
858.17	226.39
858.48	226.43
858.79	226.39
859.11	226.39
859.42	226.37
859.73	226.38
860.04	226.39
860.35	226.34
860.66	226.32
860.98	226.32
861.29	226.35
861.60	226.34
861.91	226.34
862.22	226.35
862.53	226.34
862.84	226.25
863.16	226.28
863.47	226.24
863.78	226.26
864.09	226.25
864.40	226.27
864.71	226.25
865.02	226.24
865.33	226.23
865.64	226.24
865.95	226.25
866.27	226.30
866.58	226.27
866.89	226.32
867.20	226.31
867.51	226.28
867.82	226.26
868.13	226.30
868.44	226.29
868.75	226.30
869.06	226.32
869.37	226.35
869.68	226.34
869.99	226.34
870.30	226.34
870.61	226.38
870.92	226.33
871.23	226.32
871.54	226.32
871.85	226.36
872.16	226.37
872.47	226.38
872.78	226.32
873.09	226.33
873.40	226.31
873.71	226.31
874.02	226.31
874.33	226.32
874.64	226.28
874.95	226.32
875.26	226.30
875.56	226.27
875.87	226.25
876.18	226.26
876.49	226.37
876.80	226.33
877.11	226.26
877.42	226.28
877.73	226.29
878.04	226.25
878.35	226.25
878.66	226.22
878.96	226.20
879.27	226.16
879.58	226.13
879.89	226.12
880.20	226.17
880.51	226.17
880.82	226.13
881.12	226.12
881.43	226.08
881.74	226.07
882.05	226.07
882.36	226.07
882.67	226.05
882.97	225.91
883.28	225.91
883.59	225.92
883.90	225.91
884.21	225.91
884.51	225.91
884.82	225.89
885.13	225.89
885.44	225.88
885.74	225.90
886.05	225.94
886.36	225.95
886.67	225.88
886.98	225.94
887.28	225.95
887.59	225.96
887.90	225.93
888.20	225.93
888.51	225.95
888.82	225.90
889.13	225.91
889.43	226.00
889.74	226.00
890.05	225.96
890.35	225.94
890.66	225.89
890.97	225.87
891.28	225.83
891.58	225.83
891.89	225.83
892.20	225.83
892.50	225.82
892.81	225.82
893.12	225.85
893.42	225.78
893.73	225.79
894.04	225.83
894.34	225.88
894.65	225.89
894.95	225.87
895.26	225.89
895.57	225.94
895.87	225.82
896.18	225.85
896.48	225.91
896.79	225.95
897.10	225.97
897.40	225.98
897.71	226.00
898.01	225.98
898.32	226.04
898.63	226.04
898.93	226.01
899.24	225.99
899.54	225.98
899.85	225.96
900.15	225.94
900.46	225.92
900.76	225.93
901.07	225.90
901.38	225.93
901.68	225.97
901.99	225.92
902.29	225.97
902.60	225.97
902.90	225.95
903.21	225.95
903.51	225.95
903.82	226.01
904.12	226.04
904.43	226.07
904.73	226.04
905.03	226.04
905.34	226.16
905.64	226.19
905.95	226.22
906.25	226.24
906.56	226.25
906.86	226.22
907.17	226.20
907.47	226.27
907.77	226.26
908.08	226.22
908.38	226.21
908.69	226.20
908.99	226.22
909.30	226.22
909.60	226.23
909.90	226.24
910.21	226.19
910.51	226.20
910.81	226.18
911.12	226.18
911.42	226.16
911.73	226.07
912.03	226.03
912.33	226.05
912.64	226.10
912.94	226.09
913.24	226.10
913.55	226.09
913.85	226.03
914.15	226.03
914.46	226.07
914.76	226.03
915.06	226.02
915.37	225.98
915.67	225.99
915.97	225.93
916.27	225.89
916.58	225.92
916.88	225.90
917.18	225.91
917.49	225.97
917.79	225.96
918.09	225.98
918.39	226.02
918.70	226.03
919.00	226.01
919.30	226.04
919.60	226.03
919.91	226.04
920.21	226.07
920.51	226.03
920.81	225.99
921.12	226.01
921.42	226.01
921.72	226.05
922.02	226.05
922.32	226.09
922.63	226.14
922.93	226.19
923.23	226.18
923.53	226.15
923.83	226.07
924.13	226.10
924.44	226.09
924.74	226.06
925.04	226.03
925.34	226.01
925.64	225.98
925.94	225.97
926.24	225.99
926.55	225.95
926.85	225.97
927.15	225.98
927.45	226.00
927.75	225.98
928.05	225.93
928.35	225.91
928.65	225.91
928.95	225.88
929.26	225.80
929.56	225.78
929.86	225.81
930.16	225.80
930.46	225.78
930.76	225.78
931.06	225.75
931.36	225.73
931.66	225.75
931.96	225.74
932.26	225.73
932.56	225.70
932.86	225.70
933.16	225.71
933.46	225.69
933.76	225.68
934.06	225.71
934.36	225.77
934.66	225.75
934.96	225.75
935.26	225.74
935.56	225.76
935.86	225.77
936.16	225.74
936.46	225.77
936.76	225.76
937.06	225.74
937.36	225.74
937.66	225.74
937.96	225.73
938.26	225.71
938.56	225.73
938.86	225.72
939.16	225.78
939.46	225.78
939.76	225.80
940.06	225.82
940.35	225.81
940.65	225.76
940.95	225.78
941.25	225.78
941.55	225.80
941.85	225.79
942.15	225.81
942.45	225.83
942.75	225.82
943.04	225.82
943.34	225.82
943.64	225.81
943.94	225.81
944.24	225.81
944.54	225.83
944.84	225.83
945.13	225.81
945.43	225.78
945.73	225.78
946.03	225.72
946.33	225.71
946.62	225.69
946.92	225.71
947.22	225.70
947.52	225.72
947.82	225.73
948.11	225.73
948.41	225.72
948.71	225.68
949.01	225.69
949.31	225.69
949.60	225.70
949.90	225.72
950.20	225.70
950.50	225.71
950.79	225.69
951.09	225.72
951.39	225.73
951.69	225.67
951.98	225.68
952.28	225.73
952.58	225.72
952.87	225.70
953.17	225.70
953.47	225.71
953.76	225.69
954.06	225.64
954.36	225.62
954.66	225.61
954.95	225.65
955.25	225.64
955.55	225.66
955.84	225.64
956.14	225.67
956.44	225.71
956.73	225.69
957.03	225.70
957.32	225.67
957.62	225.66
957.92	225.70
958.21	225.70
958.51	225.80
958.81	225.81
959.10	225.84
959.40	225.85
959.69	225.83
959.99	225.85
960.29	225.89
960.58	225.91
960.88	225.94
961.17	225.89
961.47	225.92
961.76	225.87
962.06	225.91
962.36	225.87
962.65	225.85
962.95	225.84
963.24	225.81
963.54	225.82
963.83	225.84
964.13	225.85
964.42	225.84
964.72	225.73
965.01	225.77
965.31	225.74
965.60	225.71
965.90	225.75
966.19	225.71
966.49	225.69
966.78	225.68
967.08	225.70
967.37	225.69
967.67	225.66
967.96	225.70
968.26	225.67
968.55	225.68
968.85	225.67
969.14	225.68
969.43	225.69
969.73	225.66
970.02	225.66
970.32	225.65
970.61	225.66
970.91	225.64
971.20	225.61
971.49	225.59
971.79	225.60
972.08	225.56
972.38	225.57
972.67	225.57
972.96	225.61
973.26	225.58
973.55	225.60
973.85	225.61
974.14	225.62
974.43	225.63
974.73	225.61
975.02	225.61
975.31	225.62
975.61	225.61
975.90	225.61
976.19	225.60
976.49	225.63
976.78	225.63
977.07	225.62
977.37	225.63
977.66	225.70
977.95	225.70
978.24	225.71
978.54	225.71
978.83	225.70
979.12	225.68
979.42	225.64
979.71	225.67
980.00	225.66
980.29	225.63
980.59	225.63
980.88	225.65
981.17	225.67
981.46	225.68
981.76	225.69
982.05	225.76
982.34	225.81
982.63	225.76
982.93	225.79
983.22	225.84
983.51	225.82
983.80	225.82
984.09	225.85
984.39	225.82
984.68	225.87
984.97	225.88
985.26	225.90
985.55	225.92
985.85	225.89
986.14	225.93
986.43	225.96
986.72	225.98
987.01	225.98
987.30	225.95
987.59	225.94
987.89	225.96
988.18	225.91
988.47	225.90
988.76	225.93
989.05	225.90
989.34	225.88
989.63	225.90
989.92	225.91
990.22	225.86
990.51	225.87
990.80	225.84
991.09	225.85
991.38	225.83
991.67	225.85
991.96	225.85
992.25	225.87
992.54	225.88
992.83	225.85
993.12	225.84
993.41	225.88
993.70	225.93
993.99	225.91
994.28	225.93
994.58	225.92
994.87	225.91
995.16	225.92
995.45	225.92
995.74	225.92
996.03	225.92
996.32	225.96
996.61	225.99
996.90	225.98
997.19	225.97
997.48	225.97
997.77	225.95
998.06	225.95
998.34	225.94
998.63	225.93
998.92	225.96
999.21	225.96
999.50	225.97
999.79	225.93
1000.08	225.93
1000.37	225.95
1000.66	225.93
1000.95	225.95
1001.24	225.94
1001.53	225.95
1001.82	225.95
1002.11	225.94
1002.40	225.92
1002.68	225.93
1002.97	226.00
1003.26	225.97
1003.55	225.93
1003.84	225.94
1004.13	225.94
1004.42	225.91
1004.71	225.87
1004.99	225.86
1005.28	225.90
1005.57	225.87
1005.86	225.86
1006.15	225.84
1006.44	225.79
1006.72	225.80
1007.01	225.79
1007.30	225.79
1007.59	225.77
1007.88	225.77
1008.17	225.73
1008.45	225.71
1008.74	225.65
1009.03	225.59
1009.32	225.61
1009.60	225.63
1009.89	225.61
1010.18	225.58
1010.47	225.58
1010.76	225.60
1011.04	225.63
1011.33	225.59
1011.62	225.61
1011.91	225.60
1012.19	225.60
1012.48	225.61
1012.77	225.61
1013.05	225.64
1013.34	225.64
1013.63	225.64
1013.92	225.63
1014.20	225.62
1014.49	225.67
1014.78	225.67
1015.06	225.67
1015.35	225.67
1015.64	225.69
1015.92	225.70
1016.21	225.75
1016.50	225.74
1016.78	225.74
1017.07	225.71
1017.36	225.71
1017.64	225.69
1017.93	225.72
1018.22	225.73
1018.50	225.76
1018.79	225.77
1019.08	225.74
1019.36	225.76
1019.65	225.79
1019.93	225.84
1020.22	225.85
1020.51	225.88
1020.79	225.91
1021.08	225.88
1021.36	225.93
1021.65	226.24
1021.94	226.04
1022.22	225.88
1022.51	226.33
1022.79	226.68
1023.08	225.60
1023.36	226.90
1023.65	225.78
>>>>>End Processed Spectral Data<<<<<
