SpectraSuite Data File
++++++++++++++++++++++++++++++++++++
Date: Fri Feb 01 15:18:16 EST 2013
User: group
Dark Spectrum Present: No
Reference Spectrum Present: No
Number of Sampled Component Spectra: 1
Spectrometers: USB2E7196
Integration Time (usec): 35000 (USB2E7196)
Spectra Averaged: 100 (USB2E7196)
Boxcar Smoothing: 10 (USB2E7196)
Correct for Electrical Dark: No (USB2E7196)
Strobe/Lamp Enabled: No (USB2E7196)
Correct for Detector Non-linearity: No (USB2E7196)
Correct for Stray Light: No (USB2E7196)
Number of Pixels in Processed Spectrum: 2048
>>>>>Begin Processed Spectral Data<<<<<
339.09	0.00
339.48	214.57
339.86	216.38
340.24	218.13
340.63	219.43
341.01	221.92
341.39	222.13
341.78	223.10
342.16	224.72
342.54	224.96
342.93	213.27
343.31	224.08
343.69	224.65
344.07	225.12
344.46	225.54
344.84	225.91
345.22	226.17
345.60	226.41
345.99	226.62
346.37	226.72
346.75	226.82
347.13	226.89
347.52	226.96
347.90	227.01
348.28	227.06
348.66	227.09
349.05	227.07
349.43	227.14
349.81	227.22
350.19	227.27
350.57	227.35
350.96	227.41
351.34	227.46
351.72	227.53
352.10	227.65
352.48	227.70
352.87	227.76
353.25	227.82
353.63	227.89
354.01	227.95
354.39	228.03
354.77	228.10
355.15	228.21
355.54	228.27
355.92	228.31
356.30	228.37
356.68	228.48
357.06	228.57
357.44	228.62
357.82	228.66
358.20	228.75
358.58	228.80
358.97	228.86
359.35	228.92
359.73	228.95
360.11	228.99
360.49	229.04
360.87	229.09
361.25	229.15
361.63	229.20
362.01	229.24
362.39	229.25
362.77	229.32
363.15	229.34
363.53	229.38
363.91	229.40
364.29	229.44
364.67	229.39
365.05	229.40
365.43	229.40
365.81	229.43
366.19	229.46
366.57	229.51
366.95	229.51
367.33	229.50
367.71	229.53
368.09	229.54
368.47	229.51
368.85	229.49
369.23	229.47
369.61	229.42
369.99	229.45
370.37	229.43
370.75	229.40
371.13	229.35
371.51	229.27
371.89	229.26
372.27	229.20
372.65	229.16
373.03	229.13
373.41	229.08
373.78	229.02
374.16	228.93
374.54	228.86
374.92	228.78
375.30	228.71
375.68	228.64
376.06	228.55
376.44	228.51
376.82	228.41
377.19	228.34
377.57	228.26
377.95	228.15
378.33	228.11
378.71	228.00
379.09	227.94
379.47	227.89
379.84	227.81
380.22	227.74
380.60	227.61
380.98	227.53
381.36	227.46
381.73	227.35
382.11	227.31
382.49	227.20
382.87	227.14
383.25	227.09
383.62	227.09
384.00	227.03
384.38	226.97
384.76	226.94
385.13	226.93
385.51	226.86
385.89	226.77
386.27	226.69
386.64	226.65
387.02	226.57
387.40	226.49
387.78	226.46
388.15	226.42
388.53	226.40
388.91	226.37
389.29	226.31
389.66	226.32
390.04	226.28
390.42	226.29
390.79	226.30
391.17	226.29
391.55	226.22
391.92	226.20
392.30	226.21
392.68	226.19
393.05	226.16
393.43	226.17
393.81	226.19
394.18	226.19
394.56	226.21
394.94	226.24
395.31	226.30
395.69	226.36
396.06	226.41
396.44	226.44
396.82	226.44
397.19	226.54
397.57	226.58
397.95	226.65
398.32	226.65
398.70	226.67
399.07	226.74
399.45	226.81
399.82	226.87
400.20	226.95
400.58	227.04
400.95	227.10
401.33	227.25
401.70	227.43
402.08	227.54
402.45	227.63
402.83	227.78
403.20	227.85
403.58	227.92
403.95	228.05
404.33	228.19
404.71	228.33
405.08	228.52
405.46	228.69
405.83	228.79
406.21	228.98
406.58	229.19
406.96	229.37
407.33	229.53
407.70	229.74
408.08	230.02
408.45	230.22
408.83	230.48
409.20	230.69
409.58	230.85
409.95	231.12
410.33	231.42
410.70	231.63
411.08	231.95
411.45	232.31
411.82	232.61
412.20	233.00
412.57	233.44
412.95	233.73
413.32	234.12
413.69	234.55
414.07	235.01
414.44	235.46
414.82	235.93
415.19	236.49
415.56	237.06
415.94	237.57
416.31	238.24
416.68	238.85
417.06	239.56
417.43	240.30
417.81	241.06
418.18	241.88
418.55	242.74
418.93	243.65
419.30	244.53
419.67	245.48
420.04	246.44
420.42	247.42
420.79	248.58
421.16	249.73
421.54	250.91
421.91	252.12
422.28	253.36
422.66	254.72
423.03	256.01
423.40	257.33
423.77	258.75
424.15	260.16
424.52	261.65
424.89	263.29
425.26	264.80
425.64	266.23
426.01	267.75
426.38	269.38
426.75	271.04
427.13	272.76
427.50	274.56
427.87	276.45
428.24	278.35
428.61	280.15
428.99	282.08
429.36	284.20
429.73	286.26
430.10	288.28
430.47	290.30
430.85	292.41
431.22	294.66
431.59	297.05
431.96	299.30
432.33	301.77
432.70	304.14
433.08	306.94
433.45	309.60
433.82	312.30
434.19	315.20
434.56	318.03
434.93	320.68
435.30	323.33
435.68	326.22
436.05	329.04
436.42	331.82
436.79	334.39
437.16	337.10
437.53	339.94
437.90	342.78
438.27	345.57
438.64	348.46
439.01	351.05
439.38	353.28
439.75	355.47
440.13	358.00
440.50	360.34
440.87	362.21
441.24	364.17
441.61	366.29
441.98	367.83
442.35	369.59
442.72	371.51
443.09	373.30
443.46	374.27
443.83	374.87
444.20	375.40
444.57	376.22
444.94	376.55
445.31	376.88
445.68	377.18
446.05	377.29
446.42	376.84
446.79	376.41
447.16	375.98
447.53	375.67
447.90	374.43
448.27	373.23
448.64	371.66
449.01	370.51
449.37	368.51
449.74	366.57
450.11	364.37
450.48	361.83
450.85	359.30
451.22	357.16
451.59	355.12
451.96	353.15
452.33	350.51
452.70	348.08
453.07	345.29
453.43	342.43
453.80	339.64
454.17	336.92
454.54	334.39
454.91	331.65
455.28	328.94
455.65	326.49
456.02	324.06
456.38	321.88
456.75	319.21
457.12	317.00
457.49	314.80
457.86	312.60
458.23	310.74
458.59	308.65
458.96	306.58
459.33	304.72
459.70	302.81
460.07	301.33
460.43	299.60
460.80	297.94
461.17	296.47
461.54	294.96
461.91	293.57
462.27	292.15
462.64	290.87
463.01	289.52
463.38	288.24
463.74	286.83
464.11	285.65
464.48	284.63
464.85	283.47
465.21	282.56
465.58	281.66
465.95	280.55
466.32	279.64
466.68	278.72
467.05	277.81
467.42	276.94
467.78	275.96
468.15	275.10
468.52	274.40
468.88	273.53
469.25	272.75
469.62	272.14
469.98	271.45
470.35	270.81
470.72	270.23
471.08	269.56
471.45	269.06
471.82	268.53
472.18	267.90
472.55	267.45
472.92	266.95
473.28	266.46
473.65	266.03
474.02	265.62
474.38	265.26
474.75	264.92
475.11	264.59
475.48	264.34
475.85	264.13
476.21	263.91
476.58	263.68
476.94	263.53
477.31	263.36
477.67	263.20
478.04	263.06
478.41	262.97
478.77	263.02
479.14	262.93
479.50	262.94
479.87	263.03
480.23	263.10
480.60	263.20
480.96	263.28
481.33	263.48
481.69	263.66
482.06	263.87
482.42	264.08
482.79	264.37
483.15	264.69
483.52	265.05
483.88	265.41
484.25	265.84
484.61	266.26
484.98	266.68
485.34	267.24
485.71	267.83
486.07	268.45
486.44	269.01
486.80	269.67
487.17	270.37
487.53	271.19
487.90	272.04
488.26	272.96
488.62	273.94
488.99	274.90
489.35	275.93
489.72	277.06
490.08	278.23
490.44	279.43
490.81	280.75
491.17	282.08
491.54	283.55
491.90	285.07
492.26	286.70
492.63	288.42
492.99	290.21
493.36	292.12
493.72	294.13
494.08	296.23
494.45	298.52
494.81	300.91
495.17	303.32
495.54	305.88
495.90	308.54
496.26	311.32
496.63	314.29
496.99	317.41
497.35	320.63
497.72	324.06
498.08	327.59
498.44	331.28
498.80	335.19
499.17	339.19
499.53	343.37
499.89	347.78
500.26	352.27
500.62	356.95
500.98	361.89
501.34	366.93
501.71	372.25
502.07	377.65
502.43	383.24
502.79	389.07
503.16	395.13
503.52	401.46
503.88	407.88
504.24	414.50
504.60	421.38
504.97	428.51
505.33	435.77
505.69	443.47
506.05	451.25
506.41	459.15
506.78	467.35
507.14	475.85
507.50	484.53
507.86	493.59
508.22	502.70
508.59	511.87
508.95	521.47
509.31	531.27
509.67	541.32
510.03	551.64
510.39	562.19
510.75	573.00
511.12	583.91
511.48	595.24
511.84	606.64
512.20	618.17
512.56	630.16
512.92	642.39
513.28	654.61
513.64	667.09
514.00	679.79
514.37	692.72
514.73	705.78
515.09	718.86
515.45	732.16
515.81	745.82
516.17	759.92
516.53	774.03
516.89	788.24
517.25	802.51
517.61	816.84
517.97	831.33
518.33	845.77
518.69	860.45
519.05	875.44
519.41	890.75
519.77	906.32
520.13	921.72
520.49	937.11
520.85	952.72
521.21	968.48
521.57	984.72
521.93	1000.60
522.29	1017.00
522.65	1033.25
523.01	1049.51
523.37	1065.61
523.73	1081.84
524.09	1098.04
524.45	1114.45
524.81	1131.20
525.17	1148.21
525.53	1165.13
525.89	1182.01
526.25	1198.88
526.61	1215.32
526.97	1232.07
527.33	1248.61
527.68	1265.35
528.04	1282.01
528.40	1298.75
528.76	1315.90
529.12	1332.56
529.48	1349.55
529.84	1365.63
530.20	1382.30
530.56	1399.47
530.91	1416.90
531.27	1433.68
531.63	1450.14
531.99	1466.81
532.35	1482.82
532.71	1498.69
533.07	1515.02
533.42	1530.99
533.78	1547.23
534.14	1563.57
534.50	1578.86
534.86	1594.91
535.21	1610.08
535.57	1626.15
535.93	1641.58
536.29	1656.48
536.65	1671.76
537.00	1686.58
537.36	1701.89
537.72	1716.53
538.08	1730.84
538.44	1744.75
538.79	1758.83
539.15	1772.76
539.51	1786.41
539.87	1800.78
540.22	1814.63
540.58	1828.59
540.94	1842.16
541.29	1855.20
541.65	1868.03
542.01	1881.44
542.37	1893.62
542.72	1906.09
543.08	1917.84
543.44	1930.29
543.79	1941.49
544.15	1952.42
544.51	1963.97
544.87	1975.21
545.22	1985.95
545.58	1996.19
545.94	2005.97
546.29	2015.71
546.65	2025.53
547.01	2034.85
547.36	2043.56
547.72	2052.04
548.07	2059.94
548.43	2068.00
548.79	2076.04
549.14	2083.53
549.50	2090.99
549.86	2098.89
550.21	2106.41
550.57	2113.40
550.92	2119.93
551.28	2127.10
551.64	2134.14
551.99	2140.83
552.35	2146.77
552.70	2152.91
553.06	2158.93
553.41	2165.23
553.77	2171.30
554.13	2177.33
554.48	2183.49
554.84	2188.94
555.19	2194.25
555.55	2199.28
555.90	2203.76
556.26	2208.59
556.61	2213.29
556.97	2217.25
557.32	2221.27
557.68	2225.34
558.03	2229.79
558.39	2233.74
558.74	2238.27
559.10	2242.07
559.45	2245.61
559.81	2250.00
560.16	2253.88
560.52	2257.17
560.87	2260.57
561.23	2263.13
561.58	2266.25
561.94	2268.85
562.29	2271.28
562.64	2273.92
563.00	2276.60
563.35	2280.14
563.71	2283.28
564.06	2286.51
564.42	2289.50
564.77	2291.88
565.12	2294.08
565.48	2295.88
565.83	2297.55
566.19	2298.66
566.54	2299.74
566.89	2300.77
567.25	2301.24
567.60	2302.61
567.96	2304.24
568.31	2305.00
568.66	2305.98
569.02	2306.30
569.37	2306.57
569.72	2307.34
570.08	2307.37
570.43	2307.29
570.78	2306.58
571.14	2304.90
571.49	2303.45
571.84	2303.10
572.20	2301.83
572.55	2300.72
572.90	2299.15
573.26	2297.68
573.61	2296.19
573.96	2294.21
574.31	2291.15
574.67	2288.09
575.02	2284.29
575.37	2280.84
575.72	2276.85
576.08	2273.70
576.43	2270.35
576.78	2266.45
577.13	2263.35
577.49	2260.31
577.84	2256.76
578.19	2253.00
578.54	2249.19
578.90	2244.80
579.25	2239.21
579.60	2234.29
579.95	2229.28
580.30	2224.14
580.66	2218.87
581.01	2213.70
581.36	2208.74
581.71	2204.40
582.06	2199.88
582.42	2195.32
582.77	2189.91
583.12	2185.45
583.47	2180.59
583.82	2175.28
584.17	2169.99
584.53	2164.23
584.88	2158.41
585.23	2152.44
585.58	2146.73
585.93	2141.29
586.28	2136.73
586.63	2131.47
586.98	2126.28
587.34	2121.32
587.69	2116.33
588.04	2110.94
588.39	2105.10
588.74	2098.62
589.09	2092.53
589.44	2085.78
589.79	2079.77
590.14	2074.14
590.49	2067.32
590.84	2060.74
591.19	2054.77
591.54	2048.31
591.89	2040.82
592.25	2033.84
592.60	2026.59
592.95	2018.98
593.30	2011.49
593.65	2003.63
594.00	1996.59
594.35	1989.33
594.70	1981.21
595.05	1973.92
595.40	1966.61
595.75	1959.09
596.10	1952.65
596.45	1945.73
596.80	1939.51
597.15	1932.72
597.50	1925.52
597.85	1919.18
598.19	1912.47
598.54	1905.36
598.89	1898.58
599.24	1892.65
599.59	1886.02
599.94	1879.78
600.29	1873.44
600.64	1866.87
600.99	1859.46
601.34	1852.50
601.69	1845.59
602.04	1838.58
602.39	1831.25
602.74	1824.28
603.08	1817.54
603.43	1810.94
603.78	1803.54
604.13	1796.21
604.48	1788.95
604.83	1782.11
605.18	1775.02
605.53	1766.91
605.87	1758.84
606.22	1751.57
606.57	1743.61
606.92	1736.29
607.27	1728.95
607.62	1722.02
607.96	1714.66
608.31	1707.85
608.66	1700.15
609.01	1692.53
609.36	1684.98
609.70	1676.91
610.05	1668.91
610.40	1661.13
610.75	1652.70
611.10	1645.05
611.44	1636.68
611.79	1628.64
612.14	1619.91
612.49	1610.78
612.83	1602.52
613.18	1594.39
613.53	1586.36
613.88	1577.90
614.22	1569.58
614.57	1561.12
614.92	1553.04
615.27	1545.42
615.61	1537.11
615.96	1529.24
616.31	1521.57
616.65	1514.28
617.00	1506.71
617.35	1499.09
617.70	1490.66
618.04	1482.08
618.39	1473.93
618.74	1466.30
619.08	1458.00
619.43	1450.47
619.78	1443.61
620.12	1436.48
620.47	1428.97
620.82	1420.82
621.16	1413.39
621.51	1405.85
621.85	1398.24
622.20	1389.71
622.55	1381.54
622.89	1373.76
623.24	1366.10
623.59	1358.70
623.93	1351.13
624.28	1343.85
624.62	1336.27
624.97	1329.23
625.32	1322.57
625.66	1315.45
626.01	1308.15
626.35	1300.72
626.70	1292.98
627.04	1285.21
627.39	1277.40
627.73	1270.02
628.08	1263.12
628.43	1255.70
628.77	1248.26
629.12	1240.71
629.46	1233.55
629.81	1226.00
630.15	1218.72
630.50	1211.35
630.84	1203.14
631.19	1195.33
631.53	1187.90
631.88	1180.40
632.22	1172.78
632.57	1165.49
632.91	1158.02
633.26	1150.59
633.60	1143.22
633.95	1136.14
634.29	1129.18
634.64	1122.50
634.98	1115.12
635.32	1107.86
635.67	1101.36
636.01	1094.75
636.36	1087.97
636.70	1081.48
637.05	1074.97
637.39	1068.65
637.73	1062.15
638.08	1056.34
638.42	1050.22
638.77	1043.73
639.11	1037.16
639.45	1030.84
639.80	1024.19
640.14	1017.76
640.49	1011.29
640.83	1005.02
641.17	998.84
641.52	992.45
641.86	986.11
642.20	980.35
642.55	974.10
642.89	967.63
643.23	961.08
643.58	955.21
643.92	948.97
644.26	942.89
644.61	936.83
644.95	930.77
645.29	924.14
645.64	917.53
645.98	911.23
646.32	905.44
646.66	899.44
647.01	893.60
647.35	887.96
647.69	882.17
648.04	876.71
648.38	870.81
648.72	864.79
649.06	858.64
649.41	852.71
649.75	846.73
650.09	840.83
650.43	835.08
650.78	828.95
651.12	823.03
651.46	817.25
651.80	811.44
652.14	806.11
652.49	800.77
652.83	795.57
653.17	789.89
653.51	784.04
653.85	778.63
654.20	773.00
654.54	766.98
654.88	761.20
655.22	755.21
655.56	749.51
655.90	744.05
656.25	738.76
656.59	733.43
656.93	728.40
657.27	723.15
657.61	717.73
657.95	712.61
658.29	707.54
658.64	702.36
658.98	697.06
659.32	691.55
659.66	686.33
660.00	681.01
660.34	676.04
660.68	671.27
661.02	666.24
661.36	661.52
661.70	657.02
662.05	652.74
662.39	648.44
662.73	644.04
663.07	639.74
663.41	635.44
663.75	630.90
664.09	626.32
664.43	622.08
664.77	617.95
665.11	613.72
665.45	609.61
665.79	605.57
666.13	601.53
666.47	597.49
666.81	593.33
667.15	589.19
667.49	585.26
667.83	581.41
668.17	577.48
668.51	573.48
668.85	569.50
669.19	565.63
669.53	561.83
669.87	557.97
670.21	554.27
670.55	550.57
670.89	547.20
671.23	543.83
671.57	540.31
671.91	536.83
672.25	533.43
672.58	529.96
672.92	526.58
673.26	523.36
673.60	520.18
673.94	517.09
674.28	514.23
674.62	511.35
674.96	508.28
675.30	505.32
675.64	502.42
675.97	499.69
676.31	496.83
676.65	493.92
676.99	491.23
677.33	488.39
677.67	485.60
678.01	482.54
678.34	479.53
678.68	476.59
679.02	473.71
679.36	470.90
679.70	468.20
680.04	465.46
680.37	462.61
680.71	459.88
681.05	457.27
681.39	454.57
681.73	452.01
682.06	449.44
682.40	446.95
682.74	444.39
683.08	441.82
683.42	439.24
683.75	436.74
684.09	434.20
684.43	431.70
684.77	429.25
685.10	426.91
685.44	424.61
685.78	422.36
686.12	420.20
686.45	417.94
686.79	415.65
687.13	413.44
687.46	411.29
687.80	409.14
688.14	406.93
688.48	404.86
688.81	402.53
689.15	400.42
689.49	398.33
689.82	396.29
690.16	394.20
690.50	392.24
690.83	390.29
691.17	388.35
691.51	386.48
691.84	384.67
692.18	382.75
692.52	380.81
692.85	378.89
693.19	376.96
693.52	375.18
693.86	373.34
694.20	371.57
694.53	369.80
694.87	367.96
695.21	366.19
695.54	364.42
695.88	362.72
696.21	361.01
696.55	359.28
696.88	357.58
697.22	355.96
697.56	354.38
697.89	352.73
698.23	351.08
698.56	349.48
698.90	347.85
699.23	346.19
699.57	344.60
699.90	343.06
700.24	341.53
700.58	339.94
700.91	338.46
701.25	337.01
701.58	335.65
701.92	334.30
702.25	332.93
702.59	331.53
702.92	330.18
703.26	328.89
703.59	327.65
703.93	326.46
704.26	325.22
704.60	323.89
704.93	322.62
705.26	321.40
705.60	320.19
705.93	319.02
706.27	317.98
706.60	316.94
706.94	315.87
707.27	314.72
707.61	313.67
707.94	312.68
708.27	311.57
708.61	310.42
708.94	309.39
709.28	308.43
709.61	307.51
709.94	306.57
710.28	305.55
710.61	304.56
710.95	303.49
711.28	302.55
711.61	301.64
711.95	300.73
712.28	299.78
712.61	298.81
712.95	297.90
713.28	297.02
713.61	296.14
713.95	295.27
714.28	294.45
714.61	293.65
714.95	292.77
715.28	291.94
715.61	291.10
715.95	290.27
716.28	289.39
716.61	288.53
716.95	287.76
717.28	287.00
717.61	286.24
717.94	285.52
718.28	284.72
718.61	284.01
718.94	283.30
719.27	282.68
719.61	282.09
719.94	281.46
720.27	280.75
720.60	280.05
720.94	279.41
721.27	278.82
721.60	278.19
721.93	277.61
722.27	277.06
722.60	276.55
722.93	275.98
723.26	275.46
723.59	274.95
723.93	274.38
724.26	273.81
724.59	273.24
724.92	272.73
725.25	272.19
725.59	271.65
725.92	271.15
726.25	270.61
726.58	270.09
726.91	269.59
727.24	269.15
727.57	268.72
727.91	268.20
728.24	267.77
728.57	267.32
728.90	266.89
729.23	266.40
729.56	265.97
729.89	265.48
730.22	264.96
730.55	264.47
730.89	264.02
731.22	263.62
731.55	263.22
731.88	262.78
732.21	262.37
732.54	261.94
732.87	261.52
733.20	261.12
733.53	260.71
733.86	260.32
734.19	259.89
734.52	259.49
734.85	259.21
735.18	258.76
735.51	258.41
735.84	258.01
736.17	257.67
736.50	257.27
736.83	257.05
737.16	256.72
737.49	256.41
737.82	256.07
738.15	255.71
738.48	255.36
738.81	255.03
739.14	254.70
739.47	254.43
739.80	254.11
740.13	253.83
740.46	253.50
740.79	253.18
741.12	252.86
741.45	252.56
741.78	252.17
742.11	251.89
742.44	251.55
742.77	251.27
743.10	250.95
743.43	250.64
743.75	250.27
744.08	250.15
744.41	249.85
744.74	249.59
745.07	249.31
745.40	249.06
745.73	248.83
746.06	248.57
746.39	248.27
746.71	248.02
747.04	247.72
747.37	247.44
747.70	247.19
748.03	246.97
748.36	246.73
748.68	246.50
749.01	246.23
749.34	245.99
749.67	245.78
750.00	245.57
750.33	245.42
750.65	245.20
750.98	244.85
751.31	244.67
751.64	244.46
751.97	244.31
752.29	244.07
752.62	243.81
752.95	243.60
753.28	243.40
753.60	243.19
753.93	243.05
754.26	242.88
754.59	242.65
754.91	242.46
755.24	242.26
755.57	242.07
755.90	241.94
756.22	241.76
756.55	241.54
756.88	241.35
757.20	241.10
757.53	240.88
757.86	240.72
758.19	240.54
758.51	240.38
758.84	240.17
759.17	240.02
759.49	239.87
759.82	239.74
760.15	239.59
760.47	239.46
760.80	239.27
761.13	239.16
761.45	239.04
761.78	238.91
762.11	238.79
762.43	238.69
762.76	238.52
763.08	238.37
763.41	238.27
763.74	238.13
764.06	238.03
764.39	237.90
764.71	237.75
765.04	237.61
765.37	237.44
765.69	237.32
766.02	237.20
766.34	237.08
766.67	236.95
767.00	236.84
767.32	236.75
767.65	236.69
767.97	236.55
768.30	236.43
768.62	236.28
768.95	236.18
769.27	236.04
769.60	235.96
769.92	235.85
770.25	235.72
770.57	235.62
770.90	235.49
771.22	235.40
771.55	235.32
771.87	235.26
772.20	235.14
772.52	235.12
772.85	235.13
773.17	235.01
773.50	234.93
773.82	234.83
774.15	234.66
774.47	234.50
774.80	234.40
775.12	234.31
775.45	234.24
775.77	234.13
776.09	234.04
776.42	233.94
776.74	233.88
777.07	233.79
777.39	233.72
777.72	233.66
778.04	233.61
778.36	233.52
778.69	233.44
779.01	233.40
779.33	233.24
779.66	233.10
779.98	233.03
780.31	232.96
780.63	232.95
780.95	232.93
781.28	232.88
781.60	232.83
781.92	232.78
782.25	232.73
782.57	232.70
782.89	232.63
783.22	232.57
783.54	232.48
783.86	232.44
784.19	232.38
784.51	232.35
784.83	232.25
785.16	232.21
785.48	232.15
785.80	232.09
786.12	232.04
786.45	231.97
786.77	231.94
787.09	231.90
787.42	231.80
787.74	231.78
788.06	231.74
788.38	231.70
788.71	231.63
789.03	231.59
789.35	231.57
789.67	231.53
789.99	231.52
790.32	231.49
790.64	231.46
790.96	231.53
791.28	231.45
791.61	231.45
791.93	231.44
792.25	231.41
792.57	231.46
792.89	231.43
793.21	231.41
793.54	231.37
793.86	231.31
794.18	231.30
794.50	231.22
794.82	231.20
795.14	231.19
795.47	231.21
795.79	231.16
796.11	231.08
796.43	231.05
796.75	231.00
797.07	230.99
797.39	230.96
797.71	230.80
798.04	230.76
798.36	230.73
798.68	230.66
799.00	230.61
799.32	230.51
799.64	230.53
799.96	230.52
800.28	230.52
800.60	230.51
800.92	230.45
801.24	230.43
801.56	230.42
801.89	230.36
802.21	230.29
802.53	230.27
802.85	230.25
803.17	230.29
803.49	230.22
803.81	230.18
804.13	230.12
804.45	230.12
804.77	230.10
805.09	230.04
805.41	230.00
805.73	229.95
806.05	229.91
806.37	229.83
806.69	229.77
807.01	229.74
807.33	229.73
807.65	229.68
807.97	229.67
808.28	229.60
808.60	229.59
808.92	229.56
809.24	229.57
809.56	229.54
809.88	229.46
810.20	229.42
810.52	229.39
810.84	229.36
811.16	229.32
811.48	229.27
811.80	229.28
812.12	229.25
812.43	229.26
812.75	229.25
813.07	229.23
813.39	229.20
813.71	229.16
814.03	229.10
814.35	229.08
814.67	229.02
814.98	229.00
815.30	228.93
815.62	228.91
815.94	228.81
816.26	228.86
816.58	228.82
816.89	228.85
817.21	228.83
817.53	228.82
817.85	228.81
818.17	228.82
818.48	228.76
818.80	228.80
819.12	228.72
819.44	228.66
819.76	228.64
820.07	228.63
820.39	228.58
820.71	228.56
821.03	228.51
821.34	228.49
821.66	228.49
821.98	228.52
822.30	228.47
822.61	228.52
822.93	228.42
823.25	228.40
823.57	228.35
823.88	228.37
824.20	228.35
824.52	228.34
824.83	228.31
825.15	228.30
825.47	228.26
825.79	228.29
826.10	228.31
826.42	228.30
826.74	228.30
827.05	228.29
827.37	228.30
827.69	228.32
828.00	228.32
828.32	228.33
828.64	228.32
828.95	228.36
829.27	228.34
829.58	228.36
829.90	228.35
830.22	228.36
830.53	228.32
830.85	228.31
831.17	228.27
831.48	228.28
831.80	228.28
832.11	228.25
832.43	228.23
832.75	228.18
833.06	228.20
833.38	228.18
833.69	228.16
834.01	228.16
834.32	228.17
834.64	228.17
834.96	228.15
835.27	228.12
835.59	228.11
835.90	228.07
836.22	228.04
836.53	228.06
836.85	228.02
837.16	228.11
837.48	228.12
837.79	228.16
838.11	228.14
838.42	228.10
838.74	228.10
839.05	228.11
839.37	228.13
839.68	228.09
840.00	228.07
840.31	228.08
840.63	228.07
840.94	228.03
841.26	228.00
841.57	227.94
841.88	227.92
842.20	227.89
842.51	227.89
842.83	227.91
843.14	227.97
843.46	227.98
843.77	227.88
844.08	227.82
844.40	227.79
844.71	227.78
845.03	227.77
845.34	227.78
845.65	227.76
845.97	227.76
846.28	227.76
846.60	227.74
846.91	227.70
847.22	227.70
847.54	227.70
847.85	227.70
848.16	227.73
848.48	227.73
848.79	227.74
849.10	227.76
849.42	227.75
849.73	227.65
850.04	227.65
850.36	227.63
850.67	227.66
850.98	227.64
851.30	227.62
851.61	227.62
851.92	227.59
852.23	227.61
852.55	227.60
852.86	227.60
853.17	227.59
853.49	227.58
853.80	227.56
854.11	227.57
854.42	227.56
854.74	227.54
855.05	227.52
855.36	227.45
855.67	227.43
855.99	227.41
856.30	227.53
856.61	227.50
856.92	227.47
857.23	227.48
857.55	227.48
857.86	227.46
858.17	227.46
858.48	227.44
858.79	227.42
859.11	227.41
859.42	227.39
859.73	227.39
860.04	227.41
860.35	227.40
860.66	227.37
860.98	227.37
861.29	227.35
861.60	227.35
861.91	227.42
862.22	227.41
862.53	227.41
862.84	227.28
863.16	227.30
863.47	227.31
863.78	227.31
864.09	227.32
864.40	227.34
864.71	227.33
865.02	227.37
865.33	227.35
865.64	227.35
865.95	227.37
866.27	227.44
866.58	227.46
866.89	227.47
867.20	227.46
867.51	227.44
867.82	227.46
868.13	227.50
868.44	227.44
868.75	227.46
869.06	227.49
869.37	227.50
869.68	227.49
869.99	227.55
870.30	227.54
870.61	227.56
870.92	227.55
871.23	227.56
871.54	227.56
871.85	227.59
872.16	227.60
872.47	227.57
872.78	227.49
873.09	227.48
873.40	227.46
873.71	227.47
874.02	227.49
874.33	227.47
874.64	227.44
874.95	227.46
875.26	227.42
875.56	227.40
875.87	227.39
876.18	227.37
876.49	227.43
876.80	227.42
877.11	227.40
877.42	227.38
877.73	227.38
878.04	227.38
878.35	227.35
878.66	227.37
878.96	227.36
879.27	227.36
879.58	227.36
879.89	227.38
880.20	227.42
880.51	227.42
880.82	227.41
881.12	227.41
881.43	227.41
881.74	227.41
882.05	227.38
882.36	227.38
882.67	227.39
882.97	227.29
883.28	227.24
883.59	227.22
883.90	227.23
884.21	227.24
884.51	227.21
884.82	227.21
885.13	227.18
885.44	227.20
885.74	227.18
886.05	227.15
886.36	227.11
886.67	227.05
886.98	227.08
887.28	227.10
887.59	227.09
887.90	227.07
888.20	227.08
888.51	227.10
888.82	227.07
889.13	227.07
889.43	227.17
889.74	227.18
890.05	227.16
890.35	227.15
890.66	227.14
890.97	227.13
891.28	227.10
891.58	227.09
891.89	227.05
892.20	227.07
892.50	227.04
892.81	227.04
893.12	227.01
893.42	226.98
893.73	227.00
894.04	227.00
894.34	227.01
894.65	227.01
894.95	227.02
895.26	227.04
895.57	227.07
895.87	226.93
896.18	226.96
896.48	226.99
896.79	226.97
897.10	227.00
897.40	226.97
897.71	226.97
898.01	226.97
898.32	227.00
898.63	227.02
898.93	227.06
899.24	227.09
899.54	227.11
899.85	227.09
900.15	227.08
900.46	227.08
900.76	227.10
901.07	227.10
901.38	227.06
901.68	227.08
901.99	227.03
902.29	227.07
902.60	227.08
902.90	227.07
903.21	227.10
903.51	227.07
903.82	227.13
904.12	227.16
904.43	227.21
904.73	227.21
905.03	227.20
905.34	227.26
905.64	227.24
905.95	227.25
906.25	227.28
906.56	227.27
906.86	227.28
907.17	227.26
907.47	227.27
907.77	227.31
908.08	227.27
908.38	227.29
908.69	227.32
908.99	227.31
909.30	227.35
909.60	227.33
909.90	227.35
910.21	227.34
910.51	227.32
910.81	227.29
911.12	227.28
911.42	227.29
911.73	227.22
912.03	227.24
912.33	227.25
912.64	227.25
912.94	227.27
913.24	227.27
913.55	227.28
913.85	227.26
914.15	227.27
914.46	227.29
914.76	227.29
915.06	227.30
915.37	227.30
915.67	227.28
915.97	227.31
916.27	227.29
916.58	227.30
916.88	227.31
917.18	227.32
917.49	227.40
917.79	227.37
918.09	227.37
918.39	227.39
918.70	227.41
919.00	227.41
919.30	227.45
919.60	227.40
919.91	227.39
920.21	227.42
920.51	227.36
920.81	227.36
921.12	227.37
921.42	227.33
921.72	227.30
922.02	227.27
922.32	227.26
922.63	227.24
922.93	227.26
923.23	227.25
923.53	227.21
923.83	227.11
924.13	227.13
924.44	227.13
924.74	227.13
925.04	227.14
925.34	227.14
925.64	227.06
925.94	227.11
926.24	227.17
926.55	227.11
926.85	227.16
927.15	227.13
927.45	227.12
927.75	227.11
928.05	227.13
928.35	227.13
928.65	227.13
928.95	227.14
929.26	227.12
929.56	227.13
929.86	227.15
930.16	227.17
930.46	227.14
930.76	227.12
931.06	227.09
931.36	227.04
931.66	227.02
931.96	227.06
932.26	227.03
932.56	227.01
932.86	227.03
933.16	227.01
933.46	227.02
933.76	226.97
934.06	227.01
934.36	227.05
934.66	227.02
934.96	227.03
935.26	227.03
935.56	227.02
935.86	227.00
936.16	226.97
936.46	226.96
936.76	226.97
937.06	226.96
937.36	226.93
937.66	226.92
937.96	226.94
938.26	226.89
938.56	226.87
938.86	226.84
939.16	226.87
939.46	226.88
939.76	226.89
940.06	226.93
940.35	226.87
940.65	226.80
940.95	226.81
941.25	226.77
941.55	226.75
941.85	226.77
942.15	226.79
942.45	226.81
942.75	226.82
943.04	226.81
943.34	226.85
943.64	226.85
943.94	226.85
944.24	226.85
944.54	226.86
944.84	226.89
945.13	226.89
945.43	226.86
945.73	226.86
946.03	226.83
946.33	226.80
946.62	226.85
946.92	226.85
947.22	226.87
947.52	226.89
947.82	226.91
948.11	226.89
948.41	226.89
948.71	226.89
949.01	226.89
949.31	226.91
949.60	226.91
949.90	226.91
950.20	226.90
950.50	226.91
950.79	226.90
951.09	226.93
951.39	226.94
951.69	226.92
951.98	226.93
952.28	226.95
952.58	226.95
952.87	226.93
953.17	226.95
953.47	226.95
953.76	226.96
954.06	226.94
954.36	226.91
954.66	226.92
954.95	226.93
955.25	226.95
955.55	226.93
955.84	226.93
956.14	226.96
956.44	226.98
956.73	226.95
957.03	226.98
957.32	226.96
957.62	226.93
957.92	226.96
958.21	226.95
958.51	227.03
958.81	227.06
959.10	227.08
959.40	227.12
959.69	227.11
959.99	227.10
960.29	227.11
960.58	227.12
960.88	227.16
961.17	227.14
961.47	227.13
961.76	227.13
962.06	227.14
962.36	227.11
962.65	227.10
962.95	227.12
963.24	227.08
963.54	227.08
963.83	227.07
964.13	227.07
964.42	227.08
964.72	227.03
965.01	227.04
965.31	227.02
965.60	227.01
965.90	227.06
966.19	227.02
966.49	227.01
966.78	227.03
967.08	226.98
967.37	226.99
967.67	227.01
967.96	227.02
968.26	227.03
968.55	227.09
968.85	227.08
969.14	227.06
969.43	227.08
969.73	227.06
970.02	227.07
970.32	227.07
970.61	227.08
970.91	227.09
971.20	227.04
971.49	227.04
971.79	227.06
972.08	227.02
972.38	227.06
972.67	227.07
972.96	227.12
973.26	227.13
973.55	227.16
973.85	227.13
974.14	227.14
974.43	227.11
974.73	227.09
975.02	227.09
975.31	227.12
975.61	227.13
975.90	227.15
976.19	227.17
976.49	227.16
976.78	227.16
977.07	227.11
977.37	227.15
977.66	227.14
977.95	227.12
978.24	227.12
978.54	227.12
978.83	227.12
979.12	227.08
979.42	227.08
979.71	227.04
980.00	227.05
980.29	227.04
980.59	227.02
980.88	227.03
981.17	227.05
981.46	227.05
981.76	227.06
982.05	227.11
982.34	227.13
982.63	227.16
982.93	227.16
983.22	227.19
983.51	227.21
983.80	227.22
984.09	227.25
984.39	227.26
984.68	227.26
984.97	227.24
985.26	227.24
985.55	227.23
985.85	227.23
986.14	227.26
986.43	227.28
986.72	227.28
987.01	227.29
987.30	227.29
987.59	227.31
987.89	227.28
988.18	227.22
988.47	227.18
988.76	227.14
989.05	227.13
989.34	227.13
989.63	227.14
989.92	227.11
990.22	227.09
990.51	227.08
990.80	227.04
991.09	227.05
991.38	227.06
991.67	227.04
991.96	227.05
992.25	227.03
992.54	227.02
992.83	227.04
993.12	227.00
993.41	227.00
993.70	226.99
993.99	227.01
994.28	227.04
994.58	227.06
994.87	227.05
995.16	227.05
995.45	227.02
995.74	226.97
996.03	227.01
996.32	227.05
996.61	227.05
996.90	227.05
997.19	227.07
997.48	227.07
997.77	227.06
998.06	227.06
998.34	227.07
998.63	227.05
998.92	227.02
999.21	227.03
999.50	227.03
999.79	227.01
1000.08	227.02
1000.37	227.00
1000.66	226.99
1000.95	227.00
1001.24	226.99
1001.53	226.99
1001.82	226.96
1002.11	226.93
1002.40	226.87
1002.68	226.90
1002.97	226.98
1003.26	226.96
1003.55	226.92
1003.84	226.94
1004.13	226.99
1004.42	226.96
1004.71	226.96
1004.99	226.95
1005.28	226.96
1005.57	226.96
1005.86	226.96
1006.15	226.95
1006.44	226.92
1006.72	226.92
1007.01	226.91
1007.30	226.93
1007.59	226.93
1007.88	226.97
1008.17	226.98
1008.45	226.99
1008.74	226.93
1009.03	226.89
1009.32	226.89
1009.60	226.92
1009.89	226.91
1010.18	226.84
1010.47	226.83
1010.76	226.82
1011.04	226.84
1011.33	226.84
1011.62	226.84
1011.91	226.82
1012.19	226.81
1012.48	226.82
1012.77	226.84
1013.05	226.89
1013.34	226.88
1013.63	226.88
1013.92	226.89
1014.20	226.86
1014.49	226.85
1014.78	226.86
1015.06	226.86
1015.35	226.85
1015.64	226.84
1015.92	226.87
1016.21	226.88
1016.50	226.89
1016.78	226.91
1017.07	226.90
1017.36	226.89
1017.64	226.86
1017.93	226.89
1018.22	226.88
1018.50	226.86
1018.79	226.85
1019.08	226.80
1019.36	226.78
1019.65	226.78
1019.93	226.81
1020.22	226.83
1020.51	226.89
1020.79	226.89
1021.08	226.61
1021.36	226.28
1021.65	227.00
1021.94	226.64
1022.22	226.82
1022.51	226.85
1022.79	227.54
1023.08	227.00
1023.36	228.03
1023.65	226.50
>>>>>End Processed Spectral Data<<<<<
