SpectraSuite Data File
++++++++++++++++++++++++++++++++++++
Date: Fri Feb 01 16:30:16 EST 2013
User: group
Dark Spectrum Present: No
Reference Spectrum Present: No
Number of Sampled Component Spectra: 1
Spectrometers: USB2E7196
Integration Time (usec): 35000 (USB2E7196)
Spectra Averaged: 100 (USB2E7196)
Boxcar Smoothing: 10 (USB2E7196)
Correct for Electrical Dark: No (USB2E7196)
Strobe/Lamp Enabled: No (USB2E7196)
Correct for Detector Non-linearity: No (USB2E7196)
Correct for Stray Light: No (USB2E7196)
Number of Pixels in Processed Spectrum: 2048
>>>>>Begin Processed Spectral Data<<<<<
339.09	0.00
339.48	213.94
339.86	215.56
340.24	216.70
340.63	217.94
341.01	221.61
341.39	221.06
341.78	222.45
342.16	223.80
342.54	223.74
342.93	212.35
343.31	223.09
343.69	223.63
344.07	224.11
344.46	224.55
344.84	224.95
345.22	225.16
345.60	225.37
345.99	225.52
346.37	225.63
346.75	225.75
347.13	225.85
347.52	225.92
347.90	225.99
348.28	226.00
348.66	226.02
349.05	226.04
349.43	226.11
349.81	226.17
350.19	226.21
350.57	226.29
350.96	226.33
351.34	226.43
351.72	226.50
352.10	226.59
352.48	226.63
352.87	226.74
353.25	226.81
353.63	226.92
354.01	227.01
354.39	227.12
354.77	227.19
355.15	227.29
355.54	227.36
355.92	227.40
356.30	227.50
356.68	227.67
357.06	227.74
357.44	227.76
357.82	227.84
358.20	227.91
358.58	227.99
358.97	228.07
359.35	228.16
359.73	228.27
360.11	228.31
360.49	228.41
360.87	228.43
361.25	228.50
361.63	228.58
362.01	228.63
362.39	228.68
362.77	228.74
363.15	228.76
363.53	228.78
363.91	228.84
364.29	228.84
364.67	228.80
365.05	228.82
365.43	228.84
365.81	228.84
366.19	228.89
366.57	228.89
366.95	228.93
367.33	228.87
367.71	228.85
368.09	228.91
368.47	228.87
368.85	228.83
369.23	228.83
369.61	228.76
369.99	228.73
370.37	228.68
370.75	228.67
371.13	228.62
371.51	228.57
371.89	228.52
372.27	228.51
372.65	228.48
373.03	228.43
373.41	228.40
373.78	228.33
374.16	228.23
374.54	228.13
374.92	228.05
375.30	227.98
375.68	227.89
376.06	227.78
376.44	227.73
376.82	227.66
377.19	227.56
377.57	227.47
377.95	227.41
378.33	227.35
378.71	227.21
379.09	227.17
379.47	227.11
379.84	227.03
380.22	226.95
380.60	226.85
380.98	226.78
381.36	226.70
381.73	226.61
382.11	226.55
382.49	226.52
382.87	226.44
383.25	226.40
383.62	226.44
384.00	226.39
384.38	226.29
384.76	226.31
385.13	226.30
385.51	226.26
385.89	226.20
386.27	226.15
386.64	226.14
387.02	226.06
387.40	226.01
387.78	225.96
388.15	225.94
388.53	225.88
388.91	225.83
389.29	225.80
389.66	225.80
390.04	225.77
390.42	225.76
390.79	225.75
391.17	225.71
391.55	225.60
391.92	225.57
392.30	225.60
392.68	225.53
393.05	225.52
393.43	225.50
393.81	225.47
394.18	225.46
394.56	225.47
394.94	225.53
395.31	225.54
395.69	225.59
396.06	225.60
396.44	225.62
396.82	225.65
397.19	225.73
397.57	225.73
397.95	225.78
398.32	225.79
398.70	225.83
399.07	225.92
399.45	225.98
399.82	226.05
400.20	226.08
400.58	226.17
400.95	226.21
401.33	226.34
401.70	226.50
402.08	226.60
402.45	226.70
402.83	226.79
403.20	226.87
403.58	226.95
403.95	227.12
404.33	227.28
404.71	227.38
405.08	227.56
405.46	227.71
405.83	227.84
406.21	227.96
406.58	228.15
406.96	228.30
407.33	228.47
407.70	228.66
408.08	228.93
408.45	229.17
408.83	229.39
409.20	229.58
409.58	229.79
409.95	230.04
410.33	230.27
410.70	230.54
411.08	230.87
411.45	231.20
411.82	231.47
412.20	231.83
412.57	232.28
412.95	232.60
413.32	233.01
413.69	233.42
414.07	233.89
414.44	234.35
414.82	234.83
415.19	235.41
415.56	235.95
415.94	236.47
416.31	237.05
416.68	237.67
417.06	238.37
417.43	239.02
417.81	239.79
418.18	240.57
418.55	241.42
418.93	242.28
419.30	243.16
419.67	244.10
420.04	245.04
420.42	246.03
420.79	247.16
421.16	248.32
421.54	249.49
421.91	250.71
422.28	251.96
422.66	253.27
423.03	254.54
423.40	255.86
423.77	257.30
424.15	258.77
424.52	260.28
424.89	261.92
425.26	263.47
425.64	264.88
426.01	266.45
426.38	268.06
426.75	269.68
427.13	271.42
427.50	273.21
427.87	275.04
428.24	276.88
428.61	278.65
428.99	280.54
429.36	282.68
429.73	284.70
430.10	286.71
430.47	288.76
430.85	290.86
431.22	293.08
431.59	295.41
431.96	297.60
432.33	300.08
432.70	302.41
433.08	305.20
433.45	307.84
433.82	310.46
434.19	313.35
434.56	316.15
434.93	318.78
435.30	321.42
435.68	324.34
436.05	327.16
436.42	329.92
436.79	332.47
437.16	335.15
437.53	337.99
437.90	340.76
438.27	343.45
438.64	346.26
439.01	348.83
439.38	351.07
439.75	353.26
440.13	355.75
440.50	358.05
440.87	359.83
441.24	361.74
441.61	363.84
441.98	365.33
442.35	367.16
442.72	368.97
443.09	370.69
443.46	371.64
443.83	372.25
444.20	372.79
444.57	373.59
444.94	373.86
445.31	374.20
445.68	374.57
446.05	374.68
446.42	374.28
446.79	373.89
447.16	373.47
447.53	373.14
447.90	371.94
448.27	370.79
448.64	369.26
449.01	368.11
449.37	366.17
449.74	364.24
450.11	361.96
450.48	359.55
450.85	357.07
451.22	354.95
451.59	352.92
451.96	350.94
452.33	348.35
452.70	346.01
453.07	343.17
453.43	340.24
453.80	337.48
454.17	334.87
454.54	332.31
454.91	329.61
455.28	326.94
455.65	324.52
456.02	322.07
456.38	319.95
456.75	317.35
457.12	315.15
457.49	312.97
457.86	310.85
458.23	309.00
458.59	306.94
458.96	304.87
459.33	303.03
459.70	301.19
460.07	299.65
460.43	297.96
460.80	296.37
461.17	294.98
461.54	293.49
461.91	292.07
462.27	290.65
462.64	289.38
463.01	288.07
463.38	286.76
463.74	285.43
464.11	284.29
464.48	283.27
464.85	282.15
465.21	281.29
465.58	280.38
465.95	279.29
466.32	278.40
466.68	277.51
467.05	276.61
467.42	275.71
467.78	274.80
468.15	273.93
468.52	273.24
468.88	272.39
469.25	271.68
469.62	271.04
469.98	270.38
470.35	269.73
470.72	269.08
471.08	268.44
471.45	267.95
471.82	267.41
472.18	266.78
472.55	266.37
472.92	265.88
473.28	265.43
473.65	264.99
474.02	264.57
474.38	264.22
474.75	263.93
475.11	263.62
475.48	263.38
475.85	263.18
476.21	262.97
476.58	262.79
476.94	262.64
477.31	262.51
477.67	262.37
478.04	262.30
478.41	262.31
478.77	262.37
479.14	262.30
479.50	262.33
479.87	262.46
480.23	262.53
480.60	262.61
480.96	262.70
481.33	262.92
481.69	263.11
482.06	263.27
482.42	263.49
482.79	263.75
483.15	264.07
483.52	264.46
483.88	264.79
484.25	265.20
484.61	265.60
484.98	266.07
485.34	266.63
485.71	267.22
486.07	267.80
486.44	268.38
486.80	269.09
487.17	269.78
487.53	270.61
487.90	271.51
488.26	272.43
488.62	273.45
488.99	274.42
489.35	275.49
489.72	276.67
490.08	277.89
490.44	279.10
490.81	280.46
491.17	281.79
491.54	283.33
491.90	284.87
492.26	286.54
492.63	288.29
492.99	290.09
493.36	291.99
493.72	294.08
494.08	296.17
494.45	298.41
494.81	300.79
495.17	303.24
495.54	305.79
495.90	308.44
496.26	311.20
496.63	314.17
496.99	317.29
497.35	320.55
497.72	323.97
498.08	327.51
498.44	331.17
498.80	335.08
499.17	339.13
499.53	343.35
499.89	347.75
500.26	352.27
500.62	356.89
500.98	361.87
501.34	366.92
501.71	372.22
502.07	377.71
502.43	383.34
502.79	389.18
503.16	395.23
503.52	401.61
503.88	408.07
504.24	414.68
504.60	421.58
504.97	428.75
505.33	436.07
505.69	443.80
506.05	451.59
506.41	459.49
506.78	467.67
507.14	476.10
507.50	484.79
507.86	493.75
508.22	502.96
508.59	512.13
508.95	521.72
509.31	531.53
509.67	541.60
510.03	551.89
510.39	562.40
510.75	573.18
511.12	584.02
511.48	595.36
511.84	606.87
512.20	618.38
512.56	630.36
512.92	642.53
513.28	654.82
513.64	667.31
514.00	679.97
514.37	692.84
514.73	705.89
515.09	718.87
515.45	732.24
515.81	745.88
516.17	759.86
516.53	773.94
516.89	788.17
517.25	802.31
517.61	816.73
517.97	831.18
518.33	845.59
518.69	860.37
519.05	875.27
519.41	890.37
519.77	905.86
520.13	921.20
520.49	936.54
520.85	951.89
521.21	967.52
521.57	983.73
521.93	999.49
522.29	1015.78
522.65	1031.95
523.01	1047.96
523.37	1063.92
523.73	1080.05
524.09	1096.01
524.45	1112.17
524.81	1128.72
525.17	1145.49
525.53	1162.33
525.89	1179.10
526.25	1195.81
526.61	1212.05
526.97	1228.71
527.33	1245.06
527.68	1261.56
528.04	1277.85
528.40	1294.35
528.76	1311.39
529.12	1327.88
529.48	1344.68
529.84	1360.65
530.20	1377.20
530.56	1394.14
530.91	1411.45
531.27	1428.10
531.63	1444.59
531.99	1461.18
532.35	1477.01
532.71	1492.87
533.07	1508.97
533.42	1524.89
533.78	1540.95
534.14	1557.19
534.50	1572.58
534.86	1588.45
535.21	1603.63
535.57	1619.52
535.93	1635.05
536.29	1649.67
536.65	1664.63
537.00	1679.29
537.36	1694.42
537.72	1708.95
538.08	1723.30
538.44	1736.88
538.79	1750.64
539.15	1764.12
539.51	1777.72
539.87	1791.92
540.22	1805.36
540.58	1819.03
540.94	1832.21
541.29	1844.91
541.65	1857.42
542.01	1870.47
542.37	1882.69
542.72	1894.94
543.08	1906.63
543.44	1918.89
543.79	1930.09
544.15	1941.13
544.51	1952.52
544.87	1963.37
545.22	1973.96
545.58	1984.18
545.94	1994.03
546.29	2003.72
546.65	2013.60
547.01	2022.76
547.36	2031.54
547.72	2039.96
548.07	2047.75
548.43	2055.80
548.79	2063.79
549.14	2071.25
549.50	2078.41
549.86	2085.94
550.21	2093.18
550.57	2100.19
550.92	2106.62
551.28	2113.46
551.64	2120.40
551.99	2126.90
552.35	2133.13
552.70	2139.30
553.06	2145.12
553.41	2151.48
553.77	2157.56
554.13	2163.53
554.48	2169.70
554.84	2175.02
555.19	2180.33
555.55	2185.36
555.90	2189.81
556.26	2194.61
556.61	2199.38
556.97	2203.77
557.32	2207.88
557.68	2211.98
558.03	2216.32
558.39	2220.05
558.74	2224.78
559.10	2228.55
559.45	2232.28
559.81	2236.61
560.16	2240.55
560.52	2243.95
560.87	2247.09
561.23	2249.80
561.58	2252.77
561.94	2255.32
562.29	2257.80
562.64	2260.59
563.00	2263.28
563.35	2266.82
563.71	2269.98
564.06	2273.27
564.42	2276.10
564.77	2278.62
565.12	2280.92
565.48	2282.93
565.83	2284.82
566.19	2286.18
566.54	2287.10
566.89	2288.22
567.25	2288.73
567.60	2289.91
567.96	2291.48
568.31	2292.52
568.66	2293.70
569.02	2294.26
569.37	2294.59
569.72	2295.47
570.08	2295.58
570.43	2295.80
570.78	2295.27
571.14	2293.89
571.49	2292.44
571.84	2292.07
572.20	2291.09
572.55	2290.25
572.90	2288.75
573.26	2287.62
573.61	2286.07
573.96	2284.36
574.31	2281.50
574.67	2278.70
575.02	2275.31
575.37	2272.04
575.72	2268.34
576.08	2265.04
576.43	2261.93
576.78	2258.22
577.13	2255.14
577.49	2251.94
577.84	2248.36
578.19	2244.78
578.54	2241.16
578.90	2237.07
579.25	2231.70
579.60	2226.80
579.95	2221.89
580.30	2216.94
580.66	2211.72
581.01	2206.78
581.36	2202.05
581.71	2197.81
582.06	2193.35
582.42	2188.89
582.77	2183.63
583.12	2179.04
583.47	2174.39
583.82	2169.37
584.17	2164.17
584.53	2158.81
584.88	2153.42
585.23	2147.85
585.58	2142.33
585.93	2136.98
586.28	2132.35
586.63	2127.27
586.98	2122.17
587.34	2117.47
587.69	2112.58
588.04	2107.33
588.39	2101.62
588.74	2095.23
589.09	2089.29
589.44	2082.53
589.79	2076.64
590.14	2071.25
590.49	2064.67
590.84	2058.34
591.19	2052.42
591.54	2046.01
591.89	2038.60
592.25	2031.75
592.60	2024.49
592.95	2017.03
593.30	2009.72
593.65	2002.19
594.00	1995.31
594.35	1988.18
594.70	1980.19
595.05	1973.16
595.40	1965.97
595.75	1958.62
596.10	1952.42
596.45	1945.73
596.80	1939.68
597.15	1933.06
597.50	1925.96
597.85	1919.69
598.19	1913.09
598.54	1905.88
598.89	1899.37
599.24	1893.66
599.59	1887.03
599.94	1880.95
600.29	1874.59
600.64	1868.09
600.99	1860.81
601.34	1854.04
601.69	1847.06
602.04	1840.23
602.39	1832.78
602.74	1825.92
603.08	1819.11
603.43	1812.32
603.78	1804.97
604.13	1797.72
604.48	1790.37
604.83	1783.58
605.18	1776.60
605.53	1768.71
605.87	1760.89
606.22	1753.80
606.57	1745.75
606.92	1738.54
607.27	1731.41
607.62	1724.64
607.96	1717.36
608.31	1710.73
608.66	1703.06
609.01	1695.58
609.36	1688.00
609.70	1680.02
610.05	1672.10
610.40	1664.51
610.75	1656.35
611.10	1648.77
611.44	1640.42
611.79	1632.57
612.14	1623.94
612.49	1614.86
612.83	1606.51
613.18	1598.36
613.53	1590.09
613.88	1581.57
614.22	1573.22
614.57	1564.58
614.92	1556.48
615.27	1548.85
615.61	1540.49
615.96	1532.52
616.31	1524.84
616.65	1517.52
617.00	1509.90
617.35	1502.14
617.70	1493.86
618.04	1485.22
618.39	1476.95
618.74	1469.40
619.08	1460.96
619.43	1453.27
619.78	1446.47
620.12	1439.16
620.47	1431.56
620.82	1423.47
621.16	1416.08
621.51	1408.48
621.85	1400.86
622.20	1392.29
622.55	1383.98
622.89	1376.07
623.24	1368.37
623.59	1361.05
623.93	1353.40
624.28	1346.24
624.62	1338.77
624.97	1331.57
625.32	1324.78
625.66	1317.75
626.01	1310.55
626.35	1303.16
626.70	1295.38
627.04	1287.39
627.39	1279.60
627.73	1272.33
628.08	1265.42
628.43	1258.04
628.77	1250.70
629.12	1243.15
629.46	1235.96
629.81	1228.46
630.15	1221.19
630.50	1213.80
630.84	1205.54
631.19	1197.78
631.53	1190.18
631.88	1182.58
632.22	1174.89
632.57	1167.61
632.91	1160.08
633.26	1152.61
633.60	1145.21
633.95	1138.13
634.29	1131.19
634.64	1124.61
634.98	1117.13
635.32	1109.89
635.67	1103.39
636.01	1096.71
636.36	1089.83
636.70	1083.33
637.05	1076.77
637.39	1070.30
637.73	1063.78
638.08	1057.91
638.42	1051.91
638.77	1045.51
639.11	1038.94
639.45	1032.67
639.80	1026.12
640.14	1019.71
640.49	1013.07
640.83	1006.81
641.17	1000.54
641.52	994.06
641.86	987.57
642.20	981.75
642.55	975.49
642.89	969.03
643.23	962.47
643.58	956.76
643.92	950.55
644.26	944.55
644.61	938.58
644.95	932.52
645.29	925.93
645.64	919.11
645.98	912.82
646.32	906.97
646.66	900.92
647.01	895.06
647.35	889.33
647.69	883.64
648.04	878.10
648.38	872.33
648.72	866.53
649.06	860.45
649.41	854.58
649.75	848.64
650.09	842.63
650.43	836.96
650.78	830.85
651.12	824.96
651.46	819.23
651.80	813.44
652.14	808.06
652.49	802.67
652.83	797.51
653.17	791.79
653.51	786.03
653.85	780.58
654.20	774.92
654.54	769.02
654.88	763.26
655.22	757.30
655.56	751.64
655.90	746.13
656.25	740.90
656.59	735.54
656.93	730.47
657.27	725.33
657.61	719.87
657.95	714.77
658.29	709.64
658.64	704.40
658.98	699.19
659.32	693.73
659.66	688.58
660.00	683.23
660.34	678.32
660.68	673.39
661.02	668.39
661.36	663.67
661.70	659.09
662.05	654.76
662.39	650.55
662.73	646.07
663.07	641.69
663.41	637.25
663.75	632.76
664.09	628.15
664.43	623.75
664.77	619.67
665.11	615.36
665.45	611.24
665.79	607.06
666.13	602.86
666.47	598.83
666.81	594.61
667.15	590.48
667.49	586.50
667.83	582.70
668.17	578.70
668.51	574.62
668.85	570.59
669.19	566.70
669.53	562.81
669.87	558.96
670.21	555.23
670.55	551.54
670.89	548.11
671.23	544.67
671.57	541.08
671.91	537.43
672.25	533.91
672.58	530.42
672.92	527.09
673.26	523.89
673.60	520.69
673.94	517.57
674.28	514.69
674.62	511.72
674.96	508.63
675.30	505.76
675.64	502.84
675.97	500.00
676.31	497.12
676.65	494.12
676.99	491.39
677.33	488.51
677.67	485.69
678.01	482.57
678.34	479.52
678.68	476.63
679.02	473.82
679.36	471.06
679.70	468.29
680.04	465.47
680.37	462.54
680.71	459.76
681.05	457.12
681.39	454.43
681.73	451.81
682.06	449.23
682.40	446.66
682.74	444.16
683.08	441.63
683.42	439.03
683.75	436.57
684.09	433.96
684.43	431.48
684.77	429.08
685.10	426.76
685.44	424.55
685.78	422.32
686.12	420.05
686.45	417.78
686.79	415.52
687.13	413.35
687.46	411.23
687.80	409.11
688.14	406.98
688.48	404.87
688.81	402.61
689.15	400.47
689.49	398.33
689.82	396.21
690.16	394.14
690.50	392.20
690.83	390.23
691.17	388.28
691.51	386.41
691.84	384.52
692.18	382.58
692.52	380.52
692.85	378.59
693.19	376.75
693.52	374.90
693.86	373.07
694.20	371.32
694.53	369.52
694.87	367.63
695.21	365.77
695.54	363.96
695.88	362.23
696.21	360.50
696.55	358.85
696.88	357.17
697.22	355.53
697.56	353.92
697.89	352.29
698.23	350.69
698.56	349.05
698.90	347.49
699.23	345.87
699.57	344.38
699.90	342.87
700.24	341.33
700.58	339.81
700.91	338.28
701.25	336.80
701.58	335.43
701.92	334.07
702.25	332.69
702.59	331.31
702.92	329.99
703.26	328.71
703.59	327.37
703.93	326.20
704.26	324.92
704.60	323.59
704.93	322.33
705.26	321.08
705.60	319.89
705.93	318.68
706.27	317.63
706.60	316.56
706.94	315.45
707.27	314.28
707.61	313.18
707.94	312.15
708.27	311.05
708.61	309.92
708.94	308.89
709.28	307.92
709.61	306.92
709.94	305.98
710.28	304.93
710.61	303.96
710.95	302.84
711.28	301.95
711.61	300.99
711.95	300.03
712.28	299.06
712.61	298.06
712.95	297.12
713.28	296.22
713.61	295.31
713.95	294.42
714.28	293.61
714.61	292.75
714.95	291.94
715.28	291.07
715.61	290.26
715.95	289.41
716.28	288.55
716.61	287.75
716.95	286.88
717.28	286.13
717.61	285.35
717.94	284.56
718.28	283.72
718.61	282.98
718.94	282.27
719.27	281.61
719.61	281.00
719.94	280.34
720.27	279.60
720.60	278.93
720.94	278.31
721.27	277.68
721.60	277.07
721.93	276.43
722.27	275.86
722.60	275.27
722.93	274.68
723.26	274.12
723.59	273.53
723.93	273.04
724.26	272.46
724.59	271.91
724.92	271.46
725.25	270.98
725.59	270.48
725.92	270.01
726.25	269.51
726.58	268.99
726.91	268.50
727.24	268.08
727.57	267.61
727.91	267.07
728.24	266.59
728.57	266.14
728.90	265.66
729.23	265.21
729.56	264.80
729.89	264.32
730.22	263.81
730.55	263.39
730.89	262.93
731.22	262.49
731.55	262.07
731.88	261.63
732.21	261.16
732.54	260.73
732.87	260.25
733.20	259.85
733.53	259.48
733.86	259.12
734.19	258.68
734.52	258.27
734.85	258.01
735.18	257.62
735.51	257.26
735.84	256.92
736.17	256.55
736.50	256.13
736.83	255.93
737.16	255.65
737.49	255.30
737.82	254.95
738.15	254.65
738.48	254.33
738.81	254.02
739.14	253.73
739.47	253.43
739.80	253.16
740.13	252.86
740.46	252.55
740.79	252.17
741.12	251.88
741.45	251.59
741.78	251.24
742.11	250.96
742.44	250.63
742.77	250.37
743.10	250.10
743.43	249.80
743.75	249.39
744.08	249.24
744.41	248.97
744.74	248.71
745.07	248.44
745.40	248.17
745.73	247.93
746.06	247.66
746.39	247.40
746.71	247.14
747.04	246.86
747.37	246.61
747.70	246.41
748.03	246.16
748.36	245.93
748.68	245.67
749.01	245.41
749.34	245.21
749.67	244.96
750.00	244.75
750.33	244.60
750.65	244.41
750.98	244.05
751.31	243.83
751.64	243.63
751.97	243.48
752.29	243.28
752.62	242.99
752.95	242.80
753.28	242.59
753.60	242.39
753.93	242.18
754.26	241.97
754.59	241.75
754.91	241.55
755.24	241.37
755.57	241.21
755.90	241.02
756.22	240.81
756.55	240.63
756.88	240.39
757.20	240.17
757.53	239.98
757.86	239.85
758.19	239.67
758.51	239.48
758.84	239.24
759.17	239.04
759.49	238.91
759.82	238.80
760.15	238.61
760.47	238.45
760.80	238.31
761.13	238.18
761.45	238.01
761.78	237.85
762.11	237.71
762.43	237.56
762.76	237.43
763.08	237.34
763.41	237.20
763.74	237.08
764.06	236.91
764.39	236.78
764.71	236.63
765.04	236.52
765.37	236.40
765.69	236.29
766.02	236.17
766.34	236.04
766.67	235.89
767.00	235.82
767.32	235.74
767.65	235.66
767.97	235.53
768.30	235.42
768.62	235.32
768.95	235.20
769.27	235.06
769.60	234.94
769.92	234.79
770.25	234.67
770.57	234.57
770.90	234.52
771.22	234.38
771.55	234.28
771.87	234.18
772.20	234.06
772.52	234.05
772.85	234.10
773.17	234.02
773.50	233.89
773.82	233.78
774.15	233.68
774.47	233.56
774.80	233.47
775.12	233.39
775.45	233.29
775.77	233.19
776.09	233.15
776.42	233.08
776.74	233.04
777.07	232.94
777.39	232.85
777.72	232.70
778.04	232.65
778.36	232.57
778.69	232.48
779.01	232.44
779.33	232.27
779.66	232.10
779.98	231.98
780.31	231.94
780.63	231.89
780.95	231.83
781.28	231.74
781.60	231.65
781.92	231.59
782.25	231.54
782.57	231.46
782.89	231.36
783.22	231.31
783.54	231.19
783.86	231.16
784.19	231.11
784.51	231.11
784.83	231.06
785.16	231.00
785.48	230.96
785.80	230.89
786.12	230.83
786.45	230.76
786.77	230.72
787.09	230.65
787.42	230.59
787.74	230.50
788.06	230.48
788.38	230.47
788.71	230.44
789.03	230.40
789.35	230.39
789.67	230.36
789.99	230.31
790.32	230.28
790.64	230.23
790.96	230.27
791.28	230.21
791.61	230.12
791.93	230.11
792.25	230.05
792.57	230.08
792.89	230.07
793.21	230.02
793.54	229.95
793.86	229.93
794.18	229.89
794.50	229.85
794.82	229.82
795.14	229.81
795.47	229.76
795.79	229.72
796.11	229.64
796.43	229.61
796.75	229.57
797.07	229.54
797.39	229.52
797.71	229.41
798.04	229.39
798.36	229.39
798.68	229.35
799.00	229.34
799.32	229.24
799.64	229.23
799.96	229.23
800.28	229.25
800.60	229.22
800.92	229.22
801.24	229.21
801.56	229.21
801.89	229.16
802.21	229.14
802.53	229.11
802.85	229.14
803.17	229.15
803.49	229.14
803.81	229.10
804.13	229.10
804.45	229.11
804.77	229.07
805.09	229.04
805.41	229.01
805.73	228.96
806.05	228.96
806.37	228.89
806.69	228.86
807.01	228.83
807.33	228.80
807.65	228.74
807.97	228.76
808.28	228.70
808.60	228.66
808.92	228.61
809.24	228.65
809.56	228.59
809.88	228.51
810.20	228.50
810.52	228.48
810.84	228.43
811.16	228.38
811.48	228.33
811.80	228.34
812.12	228.29
812.43	228.28
812.75	228.23
813.07	228.21
813.39	228.18
813.71	228.11
814.03	228.10
814.35	228.04
814.67	227.96
814.98	227.93
815.30	227.93
815.62	227.87
815.94	227.80
816.26	227.85
816.58	227.84
816.89	227.81
817.21	227.76
817.53	227.76
817.85	227.73
818.17	227.77
818.48	227.71
818.80	227.73
819.12	227.70
819.44	227.64
819.76	227.62
820.07	227.60
820.39	227.59
820.71	227.56
821.03	227.59
821.34	227.55
821.66	227.53
821.98	227.51
822.30	227.55
822.61	227.58
822.93	227.50
823.25	227.49
823.57	227.45
823.88	227.49
824.20	227.43
824.52	227.40
824.83	227.34
825.15	227.36
825.47	227.33
825.79	227.32
826.10	227.35
826.42	227.33
826.74	227.31
827.05	227.32
827.37	227.30
827.69	227.27
828.00	227.29
828.32	227.30
828.64	227.29
828.95	227.34
829.27	227.31
829.58	227.30
829.90	227.29
830.22	227.31
830.53	227.28
830.85	227.32
831.17	227.34
831.48	227.36
831.80	227.33
832.11	227.33
832.43	227.28
832.75	227.27
833.06	227.31
833.38	227.29
833.69	227.27
834.01	227.29
834.32	227.28
834.64	227.28
834.96	227.27
835.27	227.26
835.59	227.21
835.90	227.17
836.22	227.12
836.53	227.11
836.85	227.06
837.16	227.17
837.48	227.13
837.79	227.13
838.11	227.14
838.42	227.16
838.74	227.16
839.05	227.18
839.37	227.18
839.68	227.15
840.00	227.15
840.31	227.18
840.63	227.16
840.94	227.16
841.26	227.14
841.57	227.12
841.88	227.12
842.20	227.10
842.51	227.12
842.83	227.10
843.14	227.19
843.46	227.19
843.77	227.13
844.08	227.11
844.40	227.05
844.71	227.03
845.03	226.99
845.34	226.97
845.65	226.94
845.97	226.92
846.28	226.90
846.60	226.93
846.91	226.93
847.22	226.92
847.54	226.91
847.85	226.93
848.16	226.90
848.48	226.89
848.79	226.92
849.10	226.88
849.42	226.92
849.73	226.83
850.04	226.81
850.36	226.72
850.67	226.75
850.98	226.75
851.30	226.74
851.61	226.72
851.92	226.71
852.23	226.73
852.55	226.73
852.86	226.73
853.17	226.71
853.49	226.68
853.80	226.68
854.11	226.67
854.42	226.63
854.74	226.59
855.05	226.58
855.36	226.52
855.67	226.50
855.99	226.49
856.30	226.58
856.61	226.58
856.92	226.57
857.23	226.58
857.55	226.58
857.86	226.58
858.17	226.59
858.48	226.57
858.79	226.56
859.11	226.57
859.42	226.56
859.73	226.56
860.04	226.55
860.35	226.52
860.66	226.49
860.98	226.52
861.29	226.56
861.60	226.52
861.91	226.51
862.22	226.53
862.53	226.48
862.84	226.35
863.16	226.35
863.47	226.35
863.78	226.30
864.09	226.31
864.40	226.29
864.71	226.28
865.02	226.31
865.33	226.27
865.64	226.26
865.95	226.25
866.27	226.27
866.58	226.24
866.89	226.21
867.20	226.21
867.51	226.19
867.82	226.19
868.13	226.23
868.44	226.22
868.75	226.20
869.06	226.25
869.37	226.27
869.68	226.26
869.99	226.27
870.30	226.32
870.61	226.32
870.92	226.33
871.23	226.32
871.54	226.30
871.85	226.37
872.16	226.39
872.47	226.37
872.78	226.38
873.09	226.42
873.40	226.43
873.71	226.43
874.02	226.45
874.33	226.41
874.64	226.40
874.95	226.41
875.26	226.41
875.56	226.40
875.87	226.40
876.18	226.40
876.49	226.49
876.80	226.49
877.11	226.49
877.42	226.47
877.73	226.46
878.04	226.46
878.35	226.47
878.66	226.47
878.96	226.49
879.27	226.44
879.58	226.44
879.89	226.45
880.20	226.54
880.51	226.52
880.82	226.55
881.12	226.54
881.43	226.54
881.74	226.54
882.05	226.54
882.36	226.57
882.67	226.61
882.97	226.52
883.28	226.51
883.59	226.48
883.90	226.52
884.21	226.56
884.51	226.55
884.82	226.52
885.13	226.52
885.44	226.55
885.74	226.55
886.05	226.56
886.36	226.56
886.67	226.50
886.98	226.55
887.28	226.56
887.59	226.59
887.90	226.60
888.20	226.58
888.51	226.60
888.82	226.52
889.13	226.51
889.43	226.58
889.74	226.54
890.05	226.58
890.35	226.54
890.66	226.54
890.97	226.52
891.28	226.52
891.58	226.51
891.89	226.48
892.20	226.45
892.50	226.41
892.81	226.38
893.12	226.39
893.42	226.33
893.73	226.34
894.04	226.34
894.34	226.35
894.65	226.35
894.95	226.32
895.26	226.35
895.57	226.37
895.87	226.26
896.18	226.26
896.48	226.23
896.79	226.25
897.10	226.21
897.40	226.20
897.71	226.20
898.01	226.15
898.32	226.15
898.63	226.14
898.93	226.16
899.24	226.15
899.54	226.12
899.85	226.12
900.15	226.11
900.46	226.12
900.76	226.10
901.07	226.10
901.38	226.09
901.68	226.12
901.99	226.07
902.29	226.09
902.60	226.09
902.90	226.08
903.21	226.04
903.51	226.02
903.82	226.06
904.12	226.08
904.43	226.10
904.73	226.08
905.03	226.12
905.34	226.23
905.64	226.24
905.95	226.22
906.25	226.21
906.56	226.19
906.86	226.15
907.17	226.13
907.47	226.15
907.77	226.13
908.08	226.10
908.38	226.11
908.69	226.12
908.99	226.13
909.30	226.15
909.60	226.17
909.90	226.21
910.21	226.18
910.51	226.14
910.81	226.14
911.12	226.17
911.42	226.13
911.73	226.02
912.03	226.01
912.33	226.04
912.64	226.04
912.94	226.05
913.24	226.06
913.55	226.04
913.85	226.04
914.15	226.12
914.46	226.10
914.76	226.11
915.06	226.12
915.37	226.12
915.67	226.11
915.97	226.13
916.27	226.13
916.58	226.13
916.88	226.15
917.18	226.16
917.49	226.23
917.79	226.26
918.09	226.27
918.39	226.33
918.70	226.34
919.00	226.34
919.30	226.38
919.60	226.35
919.91	226.35
920.21	226.37
920.51	226.31
920.81	226.32
921.12	226.35
921.42	226.36
921.72	226.36
922.02	226.36
922.32	226.37
922.63	226.37
922.93	226.43
923.23	226.44
923.53	226.43
923.83	226.36
924.13	226.33
924.44	226.36
924.74	226.35
925.04	226.37
925.34	226.34
925.64	226.34
925.94	226.36
926.24	226.42
926.55	226.40
926.85	226.41
927.15	226.40
927.45	226.36
927.75	226.32
928.05	226.32
928.35	226.30
928.65	226.28
928.95	226.31
929.26	226.26
929.56	226.29
929.86	226.28
930.16	226.26
930.46	226.27
930.76	226.26
931.06	226.20
931.36	226.16
931.66	226.22
931.96	226.18
932.26	226.18
932.56	226.13
932.86	226.14
933.16	226.14
933.46	226.12
933.76	226.12
934.06	226.14
934.36	226.11
934.66	226.12
934.96	226.15
935.26	226.11
935.56	226.09
935.86	226.02
936.16	226.01
936.46	226.00
936.76	225.97
937.06	225.94
937.36	225.93
937.66	225.93
937.96	225.89
938.26	225.87
938.56	225.82
938.86	225.80
939.16	225.80
939.46	225.81
939.76	225.85
940.06	225.85
940.35	225.84
940.65	225.83
940.95	225.81
941.25	225.77
941.55	225.75
941.85	225.77
942.15	225.80
942.45	225.81
942.75	225.79
943.04	225.82
943.34	225.85
943.64	225.85
943.94	225.84
944.24	225.86
944.54	225.87
944.84	225.91
945.13	225.93
945.43	225.92
945.73	225.91
946.03	225.89
946.33	225.91
946.62	225.91
946.92	225.92
947.22	225.97
947.52	225.99
947.82	226.03
948.11	226.01
948.41	226.00
948.71	226.01
949.01	226.08
949.31	226.06
949.60	226.06
949.90	226.09
950.20	226.11
950.50	226.09
950.79	226.08
951.09	226.10
951.39	226.12
951.69	226.10
951.98	226.13
952.28	226.12
952.58	226.16
952.87	226.18
953.17	226.22
953.47	226.23
953.76	226.23
954.06	226.23
954.36	226.20
954.66	226.22
954.95	226.25
955.25	226.22
955.55	226.26
955.84	226.24
956.14	226.27
956.44	226.25
956.73	226.25
957.03	226.28
957.32	226.25
957.62	226.26
957.92	226.27
958.21	226.23
958.51	226.35
958.81	226.34
959.10	226.29
959.40	226.30
959.69	226.27
959.99	226.30
960.29	226.28
960.58	226.32
960.88	226.34
961.17	226.30
961.47	226.32
961.76	226.30
962.06	226.30
962.36	226.28
962.65	226.27
962.95	226.28
963.24	226.25
963.54	226.28
963.83	226.24
964.13	226.26
964.42	226.26
964.72	226.21
965.01	226.21
965.31	226.24
965.60	226.20
965.90	226.22
966.19	226.18
966.49	226.18
966.78	226.16
967.08	226.15
967.37	226.14
967.67	226.10
967.96	226.09
968.26	226.09
968.55	226.08
968.85	226.09
969.14	226.07
969.43	226.07
969.73	226.03
970.02	226.02
970.32	225.99
970.61	225.98
970.91	225.90
971.20	225.90
971.49	225.86
971.79	225.85
972.08	225.79
972.38	225.79
972.67	225.77
972.96	225.75
973.26	225.75
973.55	225.77
973.85	225.77
974.14	225.77
974.43	225.78
974.73	225.75
975.02	225.71
975.31	225.74
975.61	225.76
975.90	225.75
976.19	225.76
976.49	225.77
976.78	225.76
977.07	225.77
977.37	225.71
977.66	225.71
977.95	225.68
978.24	225.72
978.54	225.71
978.83	225.70
979.12	225.71
979.42	225.70
979.71	225.67
980.00	225.62
980.29	225.62
980.59	225.59
980.88	225.61
981.17	225.63
981.46	225.62
981.76	225.64
982.05	225.68
982.34	225.70
982.63	225.68
982.93	225.72
983.22	225.73
983.51	225.77
983.80	225.80
984.09	225.82
984.39	225.81
984.68	225.80
984.97	225.80
985.26	225.79
985.55	225.81
985.85	225.77
986.14	225.85
986.43	225.87
986.72	225.89
987.01	225.86
987.30	225.90
987.59	225.91
987.89	225.88
988.18	225.86
988.47	225.85
988.76	225.87
989.05	225.88
989.34	225.89
989.63	225.94
989.92	225.91
990.22	225.95
990.51	225.98
990.80	226.00
991.09	226.04
991.38	226.07
991.67	226.06
991.96	226.09
992.25	226.07
992.54	226.06
992.83	226.05
993.12	226.08
993.41	226.06
993.70	226.10
993.99	226.12
994.28	226.12
994.58	226.13
994.87	226.13
995.16	226.11
995.45	226.09
995.74	226.05
996.03	226.09
996.32	226.07
996.61	226.09
996.90	226.10
997.19	226.08
997.48	226.09
997.77	226.08
998.06	226.10
998.34	226.09
998.63	226.06
998.92	226.10
999.21	226.10
999.50	226.12
999.79	226.11
1000.08	226.11
1000.37	226.12
1000.66	226.10
1000.95	226.11
1001.24	226.08
1001.53	226.08
1001.82	226.05
1002.11	226.03
1002.40	226.00
1002.68	225.97
1002.97	226.01
1003.26	226.00
1003.55	226.00
1003.84	226.00
1004.13	226.03
1004.42	226.06
1004.71	226.11
1004.99	226.10
1005.28	226.12
1005.57	226.07
1005.86	226.03
1006.15	226.00
1006.44	225.96
1006.72	225.96
1007.01	225.92
1007.30	225.94
1007.59	225.92
1007.88	225.93
1008.17	225.95
1008.45	225.95
1008.74	225.93
1009.03	225.87
1009.32	225.88
1009.60	225.88
1009.89	225.87
1010.18	225.81
1010.47	225.78
1010.76	225.76
1011.04	225.76
1011.33	225.78
1011.62	225.79
1011.91	225.79
1012.19	225.81
1012.48	225.84
1012.77	225.85
1013.05	225.91
1013.34	225.90
1013.63	225.90
1013.92	225.89
1014.20	225.85
1014.49	225.86
1014.78	225.87
1015.06	225.83
1015.35	225.79
1015.64	225.76
1015.92	225.76
1016.21	225.77
1016.50	225.78
1016.78	225.77
1017.07	225.75
1017.36	225.70
1017.64	225.68
1017.93	225.67
1018.22	225.67
1018.50	225.65
1018.79	225.66
1019.08	225.62
1019.36	225.64
1019.65	225.60
1019.93	225.66
1020.22	225.67
1020.51	225.72
1020.79	225.69
1021.08	225.83
1021.36	225.39
1021.65	226.19
1021.94	225.82
1022.22	225.98
1022.51	225.00
1022.79	226.62
1023.08	225.56
1023.36	226.96
1023.65	225.05
>>>>>End Processed Spectral Data<<<<<
