SpectraSuite Data File
++++++++++++++++++++++++++++++++++++
Date: Fri Feb 01 16:29:18 EST 2013
User: group
Dark Spectrum Present: No
Reference Spectrum Present: No
Number of Sampled Component Spectra: 1
Spectrometers: USB2E7196
Integration Time (usec): 35000 (USB2E7196)
Spectra Averaged: 100 (USB2E7196)
Boxcar Smoothing: 10 (USB2E7196)
Correct for Electrical Dark: No (USB2E7196)
Strobe/Lamp Enabled: No (USB2E7196)
Correct for Detector Non-linearity: No (USB2E7196)
Correct for Stray Light: No (USB2E7196)
Number of Pixels in Processed Spectrum: 2048
>>>>>Begin Processed Spectral Data<<<<<
339.09	0.00
339.48	214.14
339.86	215.16
340.24	217.07
340.63	218.53
341.01	221.75
341.39	220.63
341.78	222.07
342.16	222.83
342.54	224.35
342.93	212.35
343.31	223.08
343.69	223.62
344.07	224.09
344.46	224.50
344.84	224.88
345.22	225.07
345.60	225.34
345.99	225.53
346.37	225.69
346.75	225.78
347.13	225.83
347.52	225.87
347.90	225.93
348.28	225.97
348.66	226.00
349.05	226.02
349.43	226.05
349.81	226.10
350.19	226.11
350.57	226.21
350.96	226.27
351.34	226.32
351.72	226.40
352.10	226.49
352.48	226.56
352.87	226.62
353.25	226.72
353.63	226.76
354.01	226.85
354.39	226.90
354.77	226.97
355.15	227.08
355.54	227.15
355.92	227.19
356.30	227.23
356.68	227.40
357.06	227.48
357.44	227.55
357.82	227.62
358.20	227.72
358.58	227.73
358.97	227.82
359.35	227.91
359.73	227.99
360.11	228.04
360.49	228.09
360.87	228.13
361.25	228.18
361.63	228.26
362.01	228.32
362.39	228.38
362.77	228.42
363.15	228.42
363.53	228.43
363.91	228.45
364.29	228.50
364.67	228.39
365.05	228.40
365.43	228.44
365.81	228.46
366.19	228.51
366.57	228.58
366.95	228.57
367.33	228.54
367.71	228.52
368.09	228.51
368.47	228.51
368.85	228.46
369.23	228.42
369.61	228.37
369.99	228.37
370.37	228.32
370.75	228.31
371.13	228.28
371.51	228.25
371.89	228.26
372.27	228.23
372.65	228.19
373.03	228.14
373.41	228.06
373.78	227.99
374.16	227.89
374.54	227.80
374.92	227.73
375.30	227.67
375.68	227.61
376.06	227.57
376.44	227.49
376.82	227.47
377.19	227.45
377.57	227.37
377.95	227.24
378.33	227.18
378.71	227.07
379.09	227.05
379.47	226.98
379.84	226.87
380.22	226.79
380.60	226.73
380.98	226.68
381.36	226.61
381.73	226.54
382.11	226.48
382.49	226.40
382.87	226.31
383.25	226.27
383.62	226.30
384.00	226.24
384.38	226.20
384.76	226.14
385.13	226.09
385.51	226.04
385.89	225.98
386.27	225.93
386.64	225.88
387.02	225.84
387.40	225.82
387.78	225.79
388.15	225.76
388.53	225.67
388.91	225.63
389.29	225.63
389.66	225.63
390.04	225.62
390.42	225.62
390.79	225.61
391.17	225.60
391.55	225.48
391.92	225.47
392.30	225.46
392.68	225.42
393.05	225.44
393.43	225.46
393.81	225.47
394.18	225.50
394.56	225.53
394.94	225.54
395.31	225.55
395.69	225.62
396.06	225.66
396.44	225.73
396.82	225.74
397.19	225.82
397.57	225.82
397.95	225.89
398.32	225.92
398.70	226.01
399.07	226.06
399.45	226.10
399.82	226.17
400.20	226.23
400.58	226.32
400.95	226.38
401.33	226.46
401.70	226.66
402.08	226.71
402.45	226.81
402.83	226.91
403.20	226.99
403.58	227.07
403.95	227.21
404.33	227.36
404.71	227.51
405.08	227.67
405.46	227.84
405.83	227.99
406.21	228.15
406.58	228.29
406.96	228.45
407.33	228.68
407.70	228.87
408.08	229.15
408.45	229.37
408.83	229.57
409.20	229.79
409.58	229.95
409.95	230.23
410.33	230.52
410.70	230.75
411.08	231.06
411.45	231.37
411.82	231.66
412.20	232.00
412.57	232.42
412.95	232.71
413.32	233.10
413.69	233.49
414.07	233.90
414.44	234.38
414.82	234.85
415.19	235.39
415.56	235.94
415.94	236.47
416.31	237.11
416.68	237.72
417.06	238.44
417.43	239.13
417.81	239.88
418.18	240.64
418.55	241.49
418.93	242.32
419.30	243.18
419.67	244.10
420.04	245.05
420.42	246.02
420.79	247.16
421.16	248.32
421.54	249.49
421.91	250.74
422.28	251.96
422.66	253.31
423.03	254.61
423.40	255.92
423.77	257.32
424.15	258.71
424.52	260.17
424.89	261.76
425.26	263.27
425.64	264.73
426.01	266.31
426.38	267.99
426.75	269.69
427.13	271.42
427.50	273.22
427.87	275.04
428.24	276.86
428.61	278.59
428.99	280.50
429.36	282.58
429.73	284.59
430.10	286.63
430.47	288.65
430.85	290.73
431.22	292.96
431.59	295.29
431.96	297.56
432.33	300.03
432.70	302.42
433.08	305.19
433.45	307.81
433.82	310.40
434.19	313.22
434.56	316.00
434.93	318.64
435.30	321.24
435.68	324.14
436.05	326.96
436.42	329.79
436.79	332.29
437.16	335.00
437.53	337.87
437.90	340.61
438.27	343.34
438.64	346.14
439.01	348.73
439.38	350.97
439.75	353.11
440.13	355.61
440.50	357.87
440.87	359.73
441.24	361.66
441.61	363.80
441.98	365.28
442.35	367.10
442.72	368.96
443.09	370.80
443.46	371.79
443.83	372.40
444.20	372.90
444.57	373.76
444.94	374.02
445.31	374.30
445.68	374.70
446.05	374.78
446.42	374.45
446.79	374.03
447.16	373.59
447.53	373.29
447.90	372.12
448.27	370.99
448.64	369.42
449.01	368.31
449.37	366.30
449.74	364.43
450.11	362.21
450.48	359.80
450.85	357.25
451.22	355.14
451.59	353.15
451.96	351.23
452.33	348.63
452.70	346.34
453.07	343.54
453.43	340.64
453.80	337.89
454.17	335.21
454.54	332.69
454.91	329.98
455.28	327.33
455.65	324.91
456.02	322.49
456.38	320.37
456.75	317.71
457.12	315.50
457.49	313.33
457.86	311.19
458.23	309.32
458.59	307.28
458.96	305.18
459.33	303.30
459.70	301.44
460.07	299.91
460.43	298.18
460.80	296.59
461.17	295.15
461.54	293.66
461.91	292.26
462.27	290.80
462.64	289.55
463.01	288.21
463.38	286.89
463.74	285.52
464.11	284.34
464.48	283.29
464.85	282.22
465.21	281.32
465.58	280.36
465.95	279.29
466.32	278.36
466.68	277.45
467.05	276.55
467.42	275.64
467.78	274.72
468.15	273.84
468.52	273.16
468.88	272.34
469.25	271.54
469.62	270.91
469.98	270.24
470.35	269.63
470.72	269.00
471.08	268.36
471.45	267.83
471.82	267.28
472.18	266.72
472.55	266.25
472.92	265.75
473.28	265.32
473.65	264.87
474.02	264.44
474.38	264.13
474.75	263.83
475.11	263.51
475.48	263.25
475.85	263.02
476.21	262.80
476.58	262.61
476.94	262.52
477.31	262.31
477.67	262.19
478.04	262.07
478.41	262.02
478.77	262.08
479.14	262.01
479.50	262.03
479.87	262.12
480.23	262.23
480.60	262.27
480.96	262.39
481.33	262.59
481.69	262.81
482.06	262.97
482.42	263.15
482.79	263.42
483.15	263.77
483.52	264.13
483.88	264.49
484.25	264.88
484.61	265.31
484.98	265.79
485.34	266.37
485.71	266.96
486.07	267.60
486.44	268.18
486.80	268.89
487.17	269.66
487.53	270.48
487.90	271.34
488.26	272.33
488.62	273.31
488.99	274.31
489.35	275.38
489.72	276.51
490.08	277.76
490.44	278.99
490.81	280.33
491.17	281.72
491.54	283.20
491.90	284.73
492.26	286.36
492.63	288.15
492.99	289.94
493.36	291.87
493.72	293.92
494.08	296.00
494.45	298.27
494.81	300.66
495.17	303.15
495.54	305.74
495.90	308.43
496.26	311.25
496.63	314.23
496.99	317.30
497.35	320.59
497.72	324.02
498.08	327.60
498.44	331.30
498.80	335.24
499.17	339.29
499.53	343.52
499.89	347.90
500.26	352.39
500.62	357.07
500.98	362.03
501.34	367.19
501.71	372.54
502.07	377.96
502.43	383.59
502.79	389.35
503.16	395.44
503.52	401.72
503.88	408.13
504.24	414.76
504.60	421.68
504.97	428.80
505.33	436.13
505.69	443.77
506.05	451.57
506.41	459.49
506.78	467.66
507.14	476.12
507.50	484.82
507.86	493.87
508.22	503.02
508.59	512.22
508.95	521.70
509.31	531.49
509.67	541.63
510.03	551.92
510.39	562.47
510.75	573.23
511.12	584.11
511.48	595.37
511.84	606.84
512.20	618.39
512.56	630.28
512.92	642.37
513.28	654.76
513.64	667.25
514.00	679.93
514.37	692.80
514.73	705.81
515.09	718.83
515.45	732.10
515.81	745.66
516.17	759.63
516.53	773.73
516.89	787.90
517.25	802.04
517.61	816.38
517.97	830.81
518.33	845.16
518.69	859.96
519.05	874.89
519.41	890.03
519.77	905.46
520.13	920.93
520.49	936.25
520.85	951.58
521.21	967.16
521.57	983.29
521.93	999.03
522.29	1015.35
522.65	1031.53
523.01	1047.62
523.37	1063.61
523.73	1079.64
524.09	1095.72
524.45	1111.99
524.81	1128.51
525.17	1145.14
525.53	1161.93
525.89	1178.75
526.25	1195.35
526.61	1211.65
526.97	1228.24
527.33	1244.54
527.68	1260.92
528.04	1277.38
528.40	1293.86
528.76	1310.74
529.12	1327.23
529.48	1344.01
529.84	1359.94
530.20	1376.53
530.56	1393.50
530.91	1410.84
531.27	1427.55
531.63	1443.88
531.99	1460.36
532.35	1476.22
532.71	1492.15
533.07	1508.41
533.42	1524.25
533.78	1540.30
534.14	1556.62
534.50	1571.83
534.86	1587.67
535.21	1602.87
535.57	1618.66
535.93	1634.09
536.29	1648.85
536.65	1663.81
537.00	1678.38
537.36	1693.55
537.72	1707.90
538.08	1722.13
538.44	1735.83
538.79	1749.59
539.15	1763.12
539.51	1776.66
539.87	1790.90
540.22	1804.52
540.58	1818.06
540.94	1831.25
541.29	1843.98
541.65	1856.45
542.01	1869.66
542.37	1881.95
542.72	1894.20
543.08	1905.94
543.44	1918.18
543.79	1929.35
544.15	1940.27
544.51	1952.00
544.87	1962.97
545.22	1973.65
545.58	1983.74
545.94	1993.45
546.29	2003.24
546.65	2013.06
547.01	2022.30
547.36	2031.05
547.72	2039.32
548.07	2047.14
548.43	2055.28
548.79	2063.38
549.14	2070.77
549.50	2078.02
549.86	2085.72
550.21	2093.09
550.57	2100.15
550.92	2106.73
551.28	2113.62
551.64	2120.68
551.99	2127.05
552.35	2133.16
552.70	2139.44
553.06	2145.52
553.41	2151.82
553.77	2157.84
554.13	2163.84
554.48	2169.94
554.84	2175.39
555.19	2180.82
555.55	2186.05
555.90	2190.58
556.26	2195.38
556.61	2200.18
556.97	2204.31
557.32	2208.37
557.68	2212.39
558.03	2216.76
558.39	2220.44
558.74	2225.16
559.10	2228.97
559.45	2232.54
559.81	2236.76
560.16	2240.63
560.52	2243.96
560.87	2247.32
561.23	2250.04
561.58	2252.90
561.94	2255.47
562.29	2257.78
562.64	2260.41
563.00	2262.90
563.35	2266.30
563.71	2269.43
564.06	2272.59
564.42	2275.49
564.77	2277.97
565.12	2280.42
565.48	2282.32
565.83	2284.27
566.19	2285.64
566.54	2286.61
566.89	2287.82
567.25	2288.49
567.60	2289.68
567.96	2291.21
568.31	2292.17
568.66	2293.34
569.02	2294.09
569.37	2294.43
569.72	2295.33
570.08	2295.53
570.43	2295.77
570.78	2295.39
571.14	2293.76
571.49	2292.60
571.84	2292.41
572.20	2291.50
572.55	2290.50
572.90	2289.06
573.26	2287.70
573.61	2286.05
573.96	2284.48
574.31	2281.70
574.67	2278.92
575.02	2275.49
575.37	2272.27
575.72	2268.41
576.08	2265.02
576.43	2261.73
576.78	2258.21
577.13	2255.21
577.49	2252.18
577.84	2248.60
578.19	2244.96
578.54	2241.54
578.90	2237.35
579.25	2231.79
579.60	2226.79
579.95	2221.84
580.30	2216.84
580.66	2211.80
581.01	2206.99
581.36	2202.03
581.71	2197.79
582.06	2193.25
582.42	2188.75
582.77	2183.61
583.12	2179.33
583.47	2174.72
583.82	2169.76
584.17	2164.62
584.53	2159.05
584.88	2153.57
585.23	2147.88
585.58	2142.35
585.93	2137.01
586.28	2132.34
586.63	2127.42
586.98	2122.51
587.34	2117.76
587.69	2112.94
588.04	2107.72
588.39	2102.08
588.74	2095.68
589.09	2089.63
589.44	2082.99
589.79	2077.15
590.14	2071.59
590.49	2064.88
590.84	2058.64
591.19	2052.59
591.54	2046.15
591.89	2039.05
592.25	2032.22
592.60	2025.18
592.95	2017.57
593.30	2010.23
593.65	2002.73
594.00	1995.76
594.35	1988.51
594.70	1980.52
595.05	1973.34
595.40	1966.19
595.75	1958.76
596.10	1952.67
596.45	1946.00
596.80	1939.91
597.15	1933.32
597.50	1926.34
597.85	1920.07
598.19	1913.41
598.54	1906.48
598.89	1899.95
599.24	1894.06
599.59	1887.39
599.94	1881.19
600.29	1874.91
600.64	1868.40
600.99	1861.09
601.34	1854.27
601.69	1847.35
602.04	1840.63
602.39	1833.37
602.74	1826.44
603.08	1819.67
603.43	1812.86
603.78	1805.57
604.13	1798.20
604.48	1790.80
604.83	1783.82
605.18	1776.78
605.53	1768.78
605.87	1760.94
606.22	1753.69
606.57	1745.67
606.92	1738.39
607.27	1731.16
607.62	1724.36
607.96	1717.07
608.31	1710.29
608.66	1702.71
609.01	1695.16
609.36	1687.50
609.70	1679.36
610.05	1671.42
610.40	1663.72
610.75	1655.38
611.10	1647.63
611.44	1639.28
611.79	1631.42
612.14	1622.71
612.49	1613.56
612.83	1605.22
613.18	1597.04
613.53	1588.83
613.88	1580.22
614.22	1572.03
614.57	1563.50
614.92	1555.51
615.27	1547.94
615.61	1539.60
615.96	1531.54
616.31	1523.91
616.65	1516.58
617.00	1509.11
617.35	1501.40
617.70	1493.06
618.04	1484.60
618.39	1476.56
618.74	1468.98
619.08	1460.56
619.43	1452.99
619.78	1446.13
620.12	1438.77
620.47	1431.13
620.82	1423.03
621.16	1415.72
621.51	1408.04
621.85	1400.39
622.20	1391.78
622.55	1383.37
622.89	1375.56
623.24	1368.07
623.59	1360.63
623.93	1353.11
624.28	1345.81
624.62	1338.23
624.97	1331.15
625.32	1324.41
625.66	1317.36
626.01	1310.17
626.35	1302.69
626.70	1295.01
627.04	1287.31
627.39	1279.65
627.73	1272.37
628.08	1265.42
628.43	1258.01
628.77	1250.59
629.12	1242.98
629.46	1235.83
629.81	1228.46
630.15	1221.33
630.50	1213.84
630.84	1205.67
631.19	1197.71
631.53	1190.26
631.88	1182.75
632.22	1175.14
632.57	1167.84
632.91	1160.20
633.26	1152.84
633.60	1145.46
633.95	1138.32
634.29	1131.14
634.64	1124.58
634.98	1117.14
635.32	1109.96
635.67	1103.45
636.01	1096.94
636.36	1090.27
636.70	1083.69
637.05	1077.17
637.39	1070.64
637.73	1064.11
638.08	1058.16
638.42	1052.22
638.77	1045.79
639.11	1039.09
639.45	1032.61
639.80	1026.04
640.14	1019.59
640.49	1013.04
640.83	1006.81
641.17	1000.55
641.52	994.33
641.86	987.79
642.20	981.88
642.55	975.57
642.89	969.04
643.23	962.43
643.58	956.53
643.92	950.38
644.26	944.21
644.61	938.12
644.95	932.04
645.29	925.53
645.64	918.74
645.98	912.37
646.32	906.65
646.66	900.63
647.01	894.77
647.35	889.09
647.69	883.20
648.04	877.68
648.38	871.84
648.72	865.82
649.06	859.70
649.41	853.94
649.75	847.99
650.09	842.11
650.43	836.29
650.78	830.15
651.12	824.20
651.46	818.56
651.80	812.87
652.14	807.50
652.49	802.08
652.83	796.97
653.17	791.29
653.51	785.50
653.85	780.13
654.20	774.43
654.54	768.45
654.88	762.75
655.22	756.85
655.56	751.25
655.90	745.78
656.25	740.53
656.59	735.09
656.93	730.07
657.27	724.89
657.61	719.48
657.95	714.47
658.29	709.40
658.64	704.10
658.98	698.81
659.32	693.33
659.66	688.12
660.00	682.83
660.34	677.86
660.68	672.94
661.02	667.86
661.36	663.17
661.70	658.66
662.05	654.26
662.39	649.89
662.73	645.39
663.07	640.99
663.41	636.50
663.75	631.99
664.09	627.38
664.43	622.94
664.77	618.77
665.11	614.45
665.45	610.25
665.79	606.20
666.13	602.04
666.47	597.94
666.81	593.79
667.15	589.59
667.49	585.73
667.83	581.92
668.17	577.98
668.51	573.90
668.85	569.86
669.19	566.07
669.53	562.24
669.87	558.36
670.21	554.66
670.55	551.09
670.89	547.73
671.23	544.28
671.57	540.77
671.91	537.21
672.25	533.68
672.58	530.23
672.92	526.80
673.26	523.62
673.60	520.51
673.94	517.44
674.28	514.55
674.62	511.60
674.96	508.50
675.30	505.61
675.64	502.69
675.97	499.95
676.31	497.07
676.65	494.17
676.99	491.50
677.33	488.69
677.67	485.85
678.01	482.77
678.34	479.80
678.68	476.90
679.02	474.12
679.36	471.42
679.70	468.65
680.04	465.92
680.37	463.03
680.71	460.23
681.05	457.59
681.39	454.82
681.73	452.16
682.06	449.67
682.40	447.11
682.74	444.59
683.08	442.01
683.42	439.39
683.75	436.87
684.09	434.31
684.43	431.79
684.77	429.33
685.10	426.99
685.44	424.66
685.78	422.37
686.12	420.08
686.45	417.78
686.79	415.52
687.13	413.33
687.46	411.24
687.80	409.08
688.14	406.82
688.48	404.78
688.81	402.51
689.15	400.36
689.49	398.21
689.82	396.09
690.16	393.98
690.50	392.02
690.83	390.09
691.17	388.13
691.51	386.26
691.84	384.45
692.18	382.49
692.52	380.54
692.85	378.62
693.19	376.80
693.52	374.93
693.86	373.05
694.20	371.25
694.53	369.40
694.87	367.56
695.21	365.79
695.54	364.00
695.88	362.26
696.21	360.52
696.55	358.82
696.88	357.15
697.22	355.47
697.56	353.83
697.89	352.15
698.23	350.52
698.56	348.84
698.90	347.23
699.23	345.58
699.57	344.00
699.90	342.46
700.24	340.88
700.58	339.37
700.91	337.86
701.25	336.40
701.58	335.03
701.92	333.69
702.25	332.28
702.59	330.90
702.92	329.58
703.26	328.26
703.59	326.94
703.93	325.74
704.26	324.50
704.60	323.19
704.93	321.89
705.26	320.64
705.60	319.49
705.93	318.30
706.27	317.28
706.60	316.21
706.94	315.13
707.27	313.97
707.61	312.93
707.94	311.93
708.27	310.84
708.61	309.74
708.94	308.73
709.28	307.80
709.61	306.80
709.94	305.88
710.28	304.86
710.61	303.89
710.95	302.81
711.28	301.92
711.61	301.01
711.95	300.13
712.28	299.18
712.61	298.20
712.95	297.26
713.28	296.40
713.61	295.49
713.95	294.58
714.28	293.78
714.61	292.90
714.95	292.05
715.28	291.24
715.61	290.39
715.95	289.48
716.28	288.58
716.61	287.83
716.95	286.99
717.28	286.27
717.61	285.54
717.94	284.79
718.28	283.99
718.61	283.30
718.94	282.61
719.27	282.02
719.61	281.37
719.94	280.72
720.27	279.97
720.60	279.33
720.94	278.72
721.27	278.12
721.60	277.57
721.93	277.00
722.27	276.40
722.60	275.86
722.93	275.30
723.26	274.76
723.59	274.15
723.93	273.59
724.26	273.05
724.59	272.51
724.92	272.03
725.25	271.52
725.59	270.98
725.92	270.49
726.25	269.95
726.58	269.46
726.91	268.97
727.24	268.49
727.57	268.05
727.91	267.55
728.24	267.06
728.57	266.54
728.90	266.05
729.23	265.56
729.56	265.09
729.89	264.64
730.22	264.19
730.55	263.76
730.89	263.33
731.22	262.85
731.55	262.37
731.88	261.95
732.21	261.54
732.54	261.10
732.87	260.66
733.20	260.25
733.53	259.85
733.86	259.46
734.19	259.07
734.52	258.64
734.85	258.31
735.18	257.89
735.51	257.54
735.84	257.17
736.17	256.82
736.50	256.41
736.83	256.18
737.16	255.80
737.49	255.45
737.82	255.12
738.15	254.81
738.48	254.48
738.81	254.11
739.14	253.75
739.47	253.42
739.80	253.11
740.13	252.76
740.46	252.44
740.79	252.12
741.12	251.81
741.45	251.47
741.78	251.10
742.11	250.82
742.44	250.48
742.77	250.17
743.10	249.85
743.43	249.57
743.75	249.16
744.08	249.04
744.41	248.73
744.74	248.41
745.07	248.12
745.40	247.89
745.73	247.66
746.06	247.42
746.39	247.16
746.71	246.89
747.04	246.61
747.37	246.34
747.70	246.12
748.03	245.93
748.36	245.75
748.68	245.51
749.01	245.29
749.34	245.07
749.67	244.85
750.00	244.63
750.33	244.46
750.65	244.24
750.98	243.91
751.31	243.71
751.64	243.54
751.97	243.37
752.29	243.12
752.62	242.90
752.95	242.71
753.28	242.49
753.60	242.29
753.93	242.14
754.26	241.96
754.59	241.72
754.91	241.48
755.24	241.27
755.57	241.12
755.90	240.94
756.22	240.77
756.55	240.59
756.88	240.43
757.20	240.24
757.53	240.09
757.86	239.91
758.19	239.75
758.51	239.53
758.84	239.34
759.17	239.19
759.49	238.99
759.82	238.87
760.15	238.72
760.47	238.57
760.80	238.40
761.13	238.26
761.45	238.11
761.78	237.98
762.11	237.86
762.43	237.71
762.76	237.57
763.08	237.44
763.41	237.31
763.74	237.18
764.06	237.03
764.39	236.88
764.71	236.74
765.04	236.63
765.37	236.55
765.69	236.42
766.02	236.28
766.34	236.18
766.67	236.04
767.00	235.93
767.32	235.90
767.65	235.85
767.97	235.75
768.30	235.64
768.62	235.55
768.95	235.40
769.27	235.28
769.60	235.18
769.92	235.07
770.25	234.93
770.57	234.79
770.90	234.68
771.22	234.59
771.55	234.47
771.87	234.38
772.20	234.26
772.52	234.25
772.85	234.26
773.17	234.20
773.50	234.08
773.82	233.95
774.15	233.76
774.47	233.60
774.80	233.50
775.12	233.38
775.45	233.27
775.77	233.18
776.09	233.13
776.42	233.03
776.74	232.96
777.07	232.90
777.39	232.82
777.72	232.73
778.04	232.64
778.36	232.59
778.69	232.51
779.01	232.45
779.33	232.31
779.66	232.12
779.98	232.00
780.31	231.93
780.63	231.93
780.95	231.88
781.28	231.83
781.60	231.77
781.92	231.72
782.25	231.61
782.57	231.54
782.89	231.45
783.22	231.38
783.54	231.32
783.86	231.27
784.19	231.20
784.51	231.19
784.83	231.14
785.16	231.06
785.48	230.98
785.80	230.92
786.12	230.86
786.45	230.83
786.77	230.81
787.09	230.78
787.42	230.69
787.74	230.65
788.06	230.59
788.38	230.52
788.71	230.45
789.03	230.45
789.35	230.44
789.67	230.39
789.99	230.35
790.32	230.27
790.64	230.26
790.96	230.30
791.28	230.20
791.61	230.14
791.93	230.13
792.25	230.10
792.57	230.10
792.89	230.04
793.21	230.01
793.54	229.91
793.86	229.86
794.18	229.81
794.50	229.75
794.82	229.72
795.14	229.70
795.47	229.71
795.79	229.66
796.11	229.60
796.43	229.54
796.75	229.51
797.07	229.49
797.39	229.45
797.71	229.37
798.04	229.35
798.36	229.35
798.68	229.28
799.00	229.26
799.32	229.19
799.64	229.19
799.96	229.14
800.28	229.16
800.60	229.11
800.92	229.10
801.24	229.08
801.56	229.02
801.89	228.97
802.21	228.92
802.53	228.90
802.85	228.89
803.17	228.93
803.49	228.86
803.81	228.84
804.13	228.76
804.45	228.72
804.77	228.71
805.09	228.67
805.41	228.63
805.73	228.58
806.05	228.54
806.37	228.49
806.69	228.49
807.01	228.46
807.33	228.44
807.65	228.38
807.97	228.39
808.28	228.40
808.60	228.38
808.92	228.36
809.24	228.38
809.56	228.34
809.88	228.27
810.20	228.28
810.52	228.27
810.84	228.26
811.16	228.22
811.48	228.21
811.80	228.19
812.12	228.20
812.43	228.19
812.75	228.18
813.07	228.16
813.39	228.11
813.71	228.06
814.03	228.03
814.35	228.03
814.67	228.00
814.98	227.97
815.30	227.96
815.62	227.92
815.94	227.85
816.26	227.89
816.58	227.85
816.89	227.85
817.21	227.82
817.53	227.80
817.85	227.81
818.17	227.79
818.48	227.78
818.80	227.76
819.12	227.73
819.44	227.71
819.76	227.70
820.07	227.71
820.39	227.72
820.71	227.73
821.03	227.70
821.34	227.66
821.66	227.66
821.98	227.64
822.30	227.61
822.61	227.66
822.93	227.60
823.25	227.61
823.57	227.59
823.88	227.60
824.20	227.61
824.52	227.61
824.83	227.55
825.15	227.52
825.47	227.50
825.79	227.51
826.10	227.46
826.42	227.45
826.74	227.41
827.05	227.38
827.37	227.37
827.69	227.38
828.00	227.38
828.32	227.34
828.64	227.32
828.95	227.38
829.27	227.32
829.58	227.28
829.90	227.24
830.22	227.20
830.53	227.15
830.85	227.11
831.17	227.04
831.48	227.06
831.80	227.05
832.11	227.03
832.43	226.98
832.75	226.99
833.06	227.04
833.38	227.05
833.69	227.02
834.01	226.97
834.32	226.94
834.64	226.93
834.96	226.93
835.27	226.92
835.59	226.86
835.90	226.81
836.22	226.84
836.53	226.84
836.85	226.86
837.16	226.97
837.48	226.95
837.79	227.00
838.11	227.00
838.42	227.02
838.74	227.03
839.05	227.02
839.37	227.02
839.68	226.98
840.00	226.96
840.31	226.98
840.63	227.00
840.94	226.98
841.26	226.96
841.57	226.97
841.88	226.99
842.20	226.97
842.51	226.98
842.83	226.97
843.14	227.07
843.46	227.08
843.77	227.01
844.08	226.99
844.40	226.96
844.71	226.99
845.03	226.98
845.34	226.95
845.65	226.97
845.97	226.97
846.28	226.95
846.60	226.96
846.91	226.97
847.22	226.98
847.54	227.01
847.85	227.00
848.16	226.98
848.48	226.95
848.79	226.99
849.10	227.02
849.42	227.01
849.73	226.90
850.04	226.83
850.36	226.82
850.67	226.83
850.98	226.80
851.30	226.74
851.61	226.73
851.92	226.74
852.23	226.74
852.55	226.72
852.86	226.67
853.17	226.67
853.49	226.66
853.80	226.65
854.11	226.64
854.42	226.64
854.74	226.62
855.05	226.63
855.36	226.58
855.67	226.55
855.99	226.54
856.30	226.64
856.61	226.66
856.92	226.62
857.23	226.64
857.55	226.64
857.86	226.63
858.17	226.62
858.48	226.60
858.79	226.57
859.11	226.59
859.42	226.63
859.73	226.61
860.04	226.59
860.35	226.53
860.66	226.51
860.98	226.52
861.29	226.53
861.60	226.51
861.91	226.53
862.22	226.49
862.53	226.49
862.84	226.37
863.16	226.38
863.47	226.37
863.78	226.33
864.09	226.37
864.40	226.41
864.71	226.43
865.02	226.46
865.33	226.43
865.64	226.38
865.95	226.34
866.27	226.41
866.58	226.41
866.89	226.43
867.20	226.44
867.51	226.39
867.82	226.37
868.13	226.38
868.44	226.37
868.75	226.39
869.06	226.36
869.37	226.36
869.68	226.35
869.99	226.36
870.30	226.35
870.61	226.31
870.92	226.25
871.23	226.22
871.54	226.19
871.85	226.20
872.16	226.23
872.47	226.26
872.78	226.19
873.09	226.21
873.40	226.18
873.71	226.16
874.02	226.17
874.33	226.16
874.64	226.13
874.95	226.15
875.26	226.14
875.56	226.13
875.87	226.11
876.18	226.09
876.49	226.21
876.80	226.20
877.11	226.22
877.42	226.25
877.73	226.26
878.04	226.29
878.35	226.31
878.66	226.33
878.96	226.31
879.27	226.33
879.58	226.34
879.89	226.36
880.20	226.39
880.51	226.42
880.82	226.43
881.12	226.46
881.43	226.44
881.74	226.43
882.05	226.46
882.36	226.48
882.67	226.50
882.97	226.37
883.28	226.35
883.59	226.32
883.90	226.33
884.21	226.35
884.51	226.32
884.82	226.32
885.13	226.30
885.44	226.31
885.74	226.31
886.05	226.30
886.36	226.33
886.67	226.30
886.98	226.35
887.28	226.37
887.59	226.37
887.90	226.37
888.20	226.37
888.51	226.38
888.82	226.40
889.13	226.39
889.43	226.50
889.74	226.48
890.05	226.50
890.35	226.49
890.66	226.49
890.97	226.50
891.28	226.45
891.58	226.43
891.89	226.41
892.20	226.40
892.50	226.38
892.81	226.36
893.12	226.36
893.42	226.31
893.73	226.29
894.04	226.28
894.34	226.26
894.65	226.27
894.95	226.27
895.26	226.25
895.57	226.29
895.87	226.21
896.18	226.27
896.48	226.28
896.79	226.29
897.10	226.30
897.40	226.31
897.71	226.31
898.01	226.30
898.32	226.33
898.63	226.34
898.93	226.40
899.24	226.39
899.54	226.37
899.85	226.35
900.15	226.36
900.46	226.35
900.76	226.39
901.07	226.38
901.38	226.35
901.68	226.35
901.99	226.29
902.29	226.30
902.60	226.26
902.90	226.24
903.21	226.22
903.51	226.20
903.82	226.22
904.12	226.22
904.43	226.24
904.73	226.23
905.03	226.22
905.34	226.23
905.64	226.18
905.95	226.19
906.25	226.18
906.56	226.19
906.86	226.17
907.17	226.14
907.47	226.14
907.77	226.13
908.08	226.11
908.38	226.14
908.69	226.16
908.99	226.17
909.30	226.14
909.60	226.15
909.90	226.15
910.21	226.10
910.51	226.09
910.81	226.06
911.12	226.06
911.42	226.05
911.73	225.96
912.03	225.97
912.33	225.98
912.64	225.98
912.94	225.94
913.24	225.97
913.55	225.99
913.85	226.01
914.15	226.02
914.46	226.02
914.76	226.02
915.06	225.97
915.37	225.97
915.67	225.99
915.97	225.99
916.27	225.98
916.58	226.02
916.88	226.05
917.18	226.06
917.49	226.13
917.79	226.13
918.09	226.16
918.39	226.20
918.70	226.23
919.00	226.27
919.30	226.32
919.60	226.33
919.91	226.34
920.21	226.34
920.51	226.36
920.81	226.36
921.12	226.38
921.42	226.39
921.72	226.39
922.02	226.39
922.32	226.41
922.63	226.41
922.93	226.45
923.23	226.44
923.53	226.43
923.83	226.36
924.13	226.38
924.44	226.39
924.74	226.42
925.04	226.42
925.34	226.39
925.64	226.35
925.94	226.33
926.24	226.36
926.55	226.34
926.85	226.33
927.15	226.35
927.45	226.32
927.75	226.34
928.05	226.35
928.35	226.36
928.65	226.35
928.95	226.32
929.26	226.29
929.56	226.30
929.86	226.33
930.16	226.34
930.46	226.33
930.76	226.30
931.06	226.24
931.36	226.24
931.66	226.23
931.96	226.25
932.26	226.25
932.56	226.21
932.86	226.20
933.16	226.23
933.46	226.20
933.76	226.20
934.06	226.20
934.36	226.20
934.66	226.19
934.96	226.17
935.26	226.20
935.56	226.19
935.86	226.17
936.16	226.15
936.46	226.11
936.76	226.12
937.06	226.11
937.36	226.11
937.66	226.07
937.96	226.04
938.26	226.00
938.56	225.95
938.86	225.94
939.16	225.97
939.46	225.97
939.76	225.96
940.06	225.92
940.35	225.89
940.65	225.83
940.95	225.82
941.25	225.79
941.55	225.77
941.85	225.77
942.15	225.79
942.45	225.80
942.75	225.82
943.04	225.78
943.34	225.80
943.64	225.79
943.94	225.82
944.24	225.87
944.54	225.89
944.84	225.92
945.13	225.93
945.43	225.92
945.73	225.90
946.03	225.90
946.33	225.92
946.62	225.91
946.92	225.93
947.22	225.97
947.52	226.01
947.82	226.05
948.11	226.06
948.41	226.03
948.71	226.00
949.01	226.00
949.31	225.99
949.60	226.01
949.90	226.05
950.20	226.05
950.50	226.02
950.79	226.03
951.09	226.00
951.39	226.01
951.69	225.99
951.98	226.00
952.28	226.01
952.58	225.98
952.87	225.98
953.17	226.01
953.47	225.99
953.76	225.96
954.06	225.94
954.36	225.89
954.66	225.93
954.95	225.96
955.25	225.96
955.55	225.96
955.84	225.92
956.14	225.93
956.44	225.93
956.73	225.94
957.03	225.94
957.32	225.97
957.62	225.96
957.92	225.98
958.21	225.98
958.51	226.09
958.81	226.14
959.10	226.18
959.40	226.19
959.69	226.21
959.99	226.23
960.29	226.24
960.58	226.24
960.88	226.25
961.17	226.25
961.47	226.28
961.76	226.33
962.06	226.36
962.36	226.32
962.65	226.32
962.95	226.30
963.24	226.28
963.54	226.26
963.83	226.26
964.13	226.25
964.42	226.21
964.72	226.14
965.01	226.12
965.31	226.07
965.60	226.04
965.90	226.07
966.19	226.04
966.49	226.04
966.78	226.06
967.08	226.05
967.37	226.04
967.67	226.03
967.96	225.98
968.26	225.96
968.55	225.99
968.85	225.96
969.14	226.00
969.43	226.00
969.73	225.98
970.02	225.98
970.32	225.97
970.61	225.99
970.91	225.94
971.20	225.91
971.49	225.90
971.79	225.94
972.08	225.87
972.38	225.90
972.67	225.84
972.96	225.84
973.26	225.82
973.55	225.84
973.85	225.83
974.14	225.83
974.43	225.82
974.73	225.79
975.02	225.80
975.31	225.76
975.61	225.73
975.90	225.75
976.19	225.66
976.49	225.68
976.78	225.67
977.07	225.68
977.37	225.69
977.66	225.75
977.95	225.71
978.24	225.70
978.54	225.70
978.83	225.71
979.12	225.70
979.42	225.73
979.71	225.70
980.00	225.65
980.29	225.64
980.59	225.65
980.88	225.67
981.17	225.71
981.46	225.72
981.76	225.77
982.05	225.80
982.34	225.86
982.63	225.86
982.93	225.86
983.22	225.87
983.51	225.90
983.80	225.87
984.09	225.92
984.39	225.92
984.68	225.89
984.97	225.92
985.26	225.91
985.55	225.92
985.85	225.90
986.14	225.94
986.43	225.97
986.72	225.94
987.01	225.91
987.30	225.90
987.59	225.88
987.89	225.88
988.18	225.88
988.47	225.85
988.76	225.88
989.05	225.91
989.34	225.94
989.63	225.98
989.92	225.98
990.22	225.97
990.51	226.00
990.80	226.04
991.09	226.07
991.38	226.09
991.67	226.08
991.96	226.09
992.25	226.12
992.54	226.12
992.83	226.13
993.12	226.14
993.41	226.16
993.70	226.22
993.99	226.27
994.28	226.26
994.58	226.28
994.87	226.27
995.16	226.24
995.45	226.25
995.74	226.22
996.03	226.23
996.32	226.24
996.61	226.26
996.90	226.24
997.19	226.21
997.48	226.20
997.77	226.17
998.06	226.15
998.34	226.14
998.63	226.10
998.92	226.12
999.21	226.12
999.50	226.10
999.79	226.07
1000.08	226.01
1000.37	226.01
1000.66	226.00
1000.95	226.02
1001.24	226.00
1001.53	225.98
1001.82	225.96
1002.11	225.95
1002.40	225.95
1002.68	225.94
1002.97	226.01
1003.26	225.98
1003.55	225.97
1003.84	225.96
1004.13	226.01
1004.42	226.02
1004.71	226.02
1004.99	226.03
1005.28	226.04
1005.57	226.01
1005.86	226.01
1006.15	226.00
1006.44	225.97
1006.72	226.01
1007.01	225.98
1007.30	225.99
1007.59	226.00
1007.88	225.98
1008.17	225.98
1008.45	225.93
1008.74	225.92
1009.03	225.85
1009.32	225.88
1009.60	225.89
1009.89	225.89
1010.18	225.82
1010.47	225.79
1010.76	225.78
1011.04	225.77
1011.33	225.77
1011.62	225.78
1011.91	225.77
1012.19	225.79
1012.48	225.79
1012.77	225.76
1013.05	225.77
1013.34	225.76
1013.63	225.71
1013.92	225.72
1014.20	225.72
1014.49	225.73
1014.78	225.71
1015.06	225.70
1015.35	225.69
1015.64	225.73
1015.92	225.75
1016.21	225.76
1016.50	225.78
1016.78	225.80
1017.07	225.79
1017.36	225.78
1017.64	225.78
1017.93	225.78
1018.22	225.78
1018.50	225.78
1018.79	225.78
1019.08	225.75
1019.36	225.75
1019.65	225.74
1019.93	225.77
1020.22	225.77
1020.51	225.84
1020.79	225.84
1021.08	225.57
1021.36	225.67
1021.65	225.74
1021.94	225.46
1022.22	225.63
1022.51	225.24
1022.79	226.20
1023.08	225.82
1023.36	227.41
1023.65	225.59
>>>>>End Processed Spectral Data<<<<<
