SpectraSuite Data File
++++++++++++++++++++++++++++++++++++
Date: Fri Feb 01 15:06:22 EST 2013
User: group
Dark Spectrum Present: No
Reference Spectrum Present: No
Number of Sampled Component Spectra: 1
Spectrometers: USB2E7196
Integration Time (usec): 35000 (USB2E7196)
Spectra Averaged: 100 (USB2E7196)
Boxcar Smoothing: 10 (USB2E7196)
Correct for Electrical Dark: No (USB2E7196)
Strobe/Lamp Enabled: No (USB2E7196)
Correct for Detector Non-linearity: No (USB2E7196)
Correct for Stray Light: No (USB2E7196)
Number of Pixels in Processed Spectrum: 2048
>>>>>Begin Processed Spectral Data<<<<<
339.09	0.00
339.48	214.80
339.86	216.70
340.24	217.83
340.63	218.78
341.01	221.93
341.39	221.52
341.78	223.00
342.16	224.58
342.54	224.75
342.93	213.43
343.31	224.23
343.69	224.78
344.07	225.24
344.46	225.67
344.84	226.09
345.22	226.35
345.60	226.63
345.99	226.82
346.37	226.96
346.75	227.07
347.13	227.14
347.52	227.19
347.90	227.25
348.28	227.28
348.66	227.33
349.05	227.32
349.43	227.37
349.81	227.40
350.19	227.45
350.57	227.50
350.96	227.57
351.34	227.61
351.72	227.69
352.10	227.77
352.48	227.84
352.87	227.89
353.25	227.96
353.63	228.03
354.01	228.11
354.39	228.17
354.77	228.25
355.15	228.36
355.54	228.45
355.92	228.49
356.30	228.54
356.68	228.67
357.06	228.78
357.44	228.82
357.82	228.90
358.20	228.98
358.58	229.02
358.97	229.05
359.35	229.18
359.73	229.26
360.11	229.32
360.49	229.38
360.87	229.43
361.25	229.49
361.63	229.53
362.01	229.56
362.39	229.58
362.77	229.63
363.15	229.62
363.53	229.64
363.91	229.68
364.29	229.72
364.67	229.59
365.05	229.59
365.43	229.61
365.81	229.62
366.19	229.63
366.57	229.66
366.95	229.67
367.33	229.55
367.71	229.52
368.09	229.51
368.47	229.44
368.85	229.37
369.23	229.34
369.61	229.29
369.99	229.28
370.37	229.24
370.75	229.22
371.13	229.17
371.51	229.09
371.89	229.05
372.27	229.00
372.65	228.99
373.03	228.92
373.41	228.85
373.78	228.76
374.16	228.63
374.54	228.48
374.92	228.42
375.30	228.37
375.68	228.33
376.06	228.26
376.44	228.22
376.82	228.17
377.19	228.08
377.57	227.99
377.95	227.88
378.33	227.84
378.71	227.72
379.09	227.67
379.47	227.62
379.84	227.50
380.22	227.40
380.60	227.32
380.98	227.22
381.36	227.13
381.73	227.05
382.11	227.00
382.49	226.97
382.87	226.89
383.25	226.85
383.62	226.86
384.00	226.79
384.38	226.73
384.76	226.68
385.13	226.67
385.51	226.61
385.89	226.55
386.27	226.51
386.64	226.46
387.02	226.42
387.40	226.35
387.78	226.34
388.15	226.32
388.53	226.27
388.91	226.26
389.29	226.24
389.66	226.24
390.04	226.25
390.42	226.27
390.79	226.25
391.17	226.23
391.55	226.15
391.92	226.17
392.30	226.22
392.68	226.25
393.05	226.26
393.43	226.31
393.81	226.36
394.18	226.35
394.56	226.43
394.94	226.46
395.31	226.51
395.69	226.61
396.06	226.67
396.44	226.73
396.82	226.79
397.19	226.88
397.57	226.97
397.95	227.02
398.32	227.08
398.70	227.17
399.07	227.29
399.45	227.36
399.82	227.41
400.20	227.46
400.58	227.53
400.95	227.56
401.33	227.65
401.70	227.81
402.08	227.93
402.45	228.03
402.83	228.17
403.20	228.32
403.58	228.41
403.95	228.53
404.33	228.68
404.71	228.84
405.08	229.03
405.46	229.15
405.83	229.33
406.21	229.47
406.58	229.62
406.96	229.79
407.33	229.95
407.70	230.18
408.08	230.46
408.45	230.69
408.83	230.94
409.20	231.18
409.58	231.33
409.95	231.61
410.33	231.87
410.70	232.12
411.08	232.40
411.45	232.70
411.82	233.00
412.20	233.33
412.57	233.74
412.95	234.00
413.32	234.39
413.69	234.77
414.07	235.19
414.44	235.67
414.82	236.11
415.19	236.68
415.56	237.20
415.94	237.72
416.31	238.32
416.68	238.93
417.06	239.64
417.43	240.33
417.81	241.05
418.18	241.82
418.55	242.64
418.93	243.50
419.30	244.38
419.67	245.30
420.04	246.24
420.42	247.20
420.79	248.42
421.16	249.55
421.54	250.73
421.91	251.92
422.28	253.16
422.66	254.51
423.03	255.77
423.40	257.11
423.77	258.53
424.15	259.97
424.52	261.46
424.89	263.03
425.26	264.58
425.64	266.03
426.01	267.59
426.38	269.27
426.75	270.97
427.13	272.66
427.50	274.47
427.87	276.33
428.24	278.16
428.61	279.87
428.99	281.81
429.36	283.91
429.73	285.99
430.10	288.04
430.47	290.11
430.85	292.24
431.22	294.47
431.59	296.85
431.96	299.10
432.33	301.54
432.70	303.94
433.08	306.77
433.45	309.42
433.82	312.03
434.19	314.89
434.56	317.67
434.93	320.36
435.30	322.98
435.68	325.92
436.05	328.80
436.42	331.62
436.79	334.16
437.16	336.89
437.53	339.72
437.90	342.59
438.27	345.29
438.64	348.13
439.01	350.73
439.38	352.95
439.75	355.13
440.13	357.71
440.50	360.11
440.87	361.93
441.24	363.97
441.61	366.16
441.98	367.68
442.35	369.50
442.72	371.38
443.09	373.24
443.46	374.25
443.83	374.86
444.20	375.37
444.57	376.27
444.94	376.57
445.31	376.95
445.68	377.25
446.05	377.40
446.42	377.08
446.79	376.69
447.16	376.30
447.53	376.00
447.90	374.83
448.27	373.62
448.64	372.06
449.01	370.86
449.37	368.89
449.74	367.01
450.11	364.75
450.48	362.28
450.85	359.69
451.22	357.56
451.59	355.51
451.96	353.59
452.33	350.96
452.70	348.59
453.07	345.75
453.43	342.84
453.80	340.04
454.17	337.33
454.54	334.80
454.91	332.07
455.28	329.38
455.65	326.86
456.02	324.40
456.38	322.21
456.75	319.54
457.12	317.28
457.49	315.05
457.86	312.89
458.23	311.02
458.59	309.02
458.96	306.91
459.33	305.05
459.70	303.18
460.07	301.67
460.43	299.94
460.80	298.27
461.17	296.83
461.54	295.34
461.91	293.90
462.27	292.41
462.64	291.12
463.01	289.75
463.38	288.44
463.74	287.05
464.11	285.89
464.48	284.91
464.85	283.79
465.21	282.87
465.58	281.90
465.95	280.81
466.32	279.90
466.68	278.97
467.05	278.04
467.42	277.09
467.78	276.13
468.15	275.22
468.52	274.57
468.88	273.67
469.25	272.86
469.62	272.20
469.98	271.50
470.35	270.86
470.72	270.24
471.08	269.59
471.45	269.06
471.82	268.49
472.18	267.83
472.55	267.38
472.92	266.86
473.28	266.40
473.65	265.92
474.02	265.43
474.38	265.07
474.75	264.73
475.11	264.41
475.48	264.13
475.85	263.90
476.21	263.64
476.58	263.46
476.94	263.34
477.31	263.15
477.67	263.00
478.04	262.88
478.41	262.82
478.77	262.82
479.14	262.77
479.50	262.78
479.87	262.85
480.23	262.93
480.60	262.98
480.96	263.10
481.33	263.31
481.69	263.52
482.06	263.70
482.42	263.89
482.79	264.13
483.15	264.49
483.52	264.86
483.88	265.18
484.25	265.58
484.61	265.98
484.98	266.46
485.34	267.02
485.71	267.61
486.07	268.22
486.44	268.82
486.80	269.49
487.17	270.25
487.53	271.04
487.90	271.89
488.26	272.83
488.62	273.81
488.99	274.79
489.35	275.83
489.72	276.96
490.08	278.18
490.44	279.44
490.81	280.72
491.17	282.08
491.54	283.63
491.90	285.15
492.26	286.80
492.63	288.51
492.99	290.30
493.36	292.21
493.72	294.20
494.08	296.30
494.45	298.56
494.81	300.91
495.17	303.36
495.54	305.93
495.90	308.62
496.26	311.40
496.63	314.35
496.99	317.42
497.35	320.70
497.72	324.10
498.08	327.60
498.44	331.24
498.80	335.20
499.17	339.17
499.53	343.31
499.89	347.66
500.26	352.18
500.62	356.87
500.98	361.82
501.34	366.94
501.71	372.26
502.07	377.69
502.43	383.24
502.79	388.99
503.16	395.01
503.52	401.20
503.88	407.61
504.24	414.25
504.60	421.19
504.97	428.26
505.33	435.55
505.69	443.21
506.05	451.02
506.41	458.80
506.78	466.93
507.14	475.37
507.50	484.07
507.86	493.04
508.22	502.12
508.59	511.27
508.95	520.77
509.31	530.50
509.67	540.55
510.03	550.82
510.39	561.31
510.75	572.12
511.12	583.08
511.48	594.38
511.84	605.77
512.20	617.28
512.56	629.21
512.92	641.36
513.28	653.68
513.64	666.20
514.00	678.95
514.37	691.89
514.73	704.97
515.09	717.98
515.45	731.33
515.81	744.95
516.17	759.00
516.53	773.17
516.89	787.34
517.25	801.55
517.61	816.05
517.97	830.67
518.33	845.17
518.69	860.06
519.05	875.05
519.41	890.29
519.77	905.91
520.13	921.36
520.49	936.78
520.85	952.31
521.21	967.95
521.57	984.24
521.93	1000.11
522.29	1016.56
522.65	1032.93
523.01	1049.15
523.37	1065.30
523.73	1081.59
524.09	1097.73
524.45	1114.19
524.81	1130.86
525.17	1147.73
525.53	1164.66
525.89	1181.51
526.25	1198.30
526.61	1214.78
526.97	1231.55
527.33	1248.09
527.68	1264.79
528.04	1281.35
528.40	1298.05
528.76	1315.22
529.12	1331.78
529.48	1348.77
529.84	1364.96
530.20	1381.72
530.56	1398.79
530.91	1416.18
531.27	1432.96
531.63	1449.52
531.99	1466.13
532.35	1482.27
532.71	1498.20
533.07	1514.49
533.42	1530.46
533.78	1546.61
534.14	1562.97
534.50	1578.51
534.86	1594.46
535.21	1609.67
535.57	1625.72
535.93	1641.32
536.29	1656.21
536.65	1671.48
537.00	1686.41
537.36	1701.80
537.72	1716.43
538.08	1730.95
538.44	1744.80
538.79	1758.80
539.15	1772.72
539.51	1786.57
539.87	1801.07
540.22	1814.82
540.58	1828.71
540.94	1842.22
541.29	1855.18
541.65	1867.97
542.01	1881.17
542.37	1893.52
542.72	1906.02
543.08	1917.81
543.44	1930.20
543.79	1941.53
544.15	1952.51
544.51	1963.91
544.87	1974.84
545.22	1985.68
545.58	1995.92
545.94	2005.81
546.29	2015.75
546.65	2025.51
547.01	2034.75
547.36	2043.43
547.72	2052.03
548.07	2059.98
548.43	2068.20
548.79	2076.36
549.14	2083.82
549.50	2091.18
549.86	2098.90
550.21	2106.35
550.57	2113.52
550.92	2120.01
551.28	2127.07
551.64	2134.19
551.99	2140.90
552.35	2147.13
552.70	2153.15
553.06	2159.13
553.41	2165.56
553.77	2171.52
554.13	2177.54
554.48	2183.57
554.84	2188.97
555.19	2194.36
555.55	2199.42
555.90	2203.82
556.26	2208.61
556.61	2213.40
556.97	2217.52
557.32	2221.60
557.68	2225.69
558.03	2230.06
558.39	2233.77
558.74	2238.44
559.10	2242.28
559.45	2245.88
559.81	2250.10
560.16	2253.85
560.52	2257.10
560.87	2260.44
561.23	2262.96
561.58	2265.96
561.94	2268.51
562.29	2270.93
562.64	2273.40
563.00	2276.01
563.35	2279.58
563.71	2282.64
564.06	2285.78
564.42	2288.70
564.77	2291.03
565.12	2293.19
565.48	2294.90
565.83	2296.62
566.19	2297.61
566.54	2298.51
566.89	2299.55
567.25	2300.03
567.60	2301.40
567.96	2302.87
568.31	2303.59
568.66	2304.59
569.02	2304.96
569.37	2305.13
569.72	2305.67
570.08	2305.72
570.43	2305.54
570.78	2304.67
571.14	2302.95
571.49	2301.60
571.84	2301.12
572.20	2299.97
572.55	2298.76
572.90	2297.15
573.26	2295.66
573.61	2294.02
573.96	2292.08
574.31	2288.97
574.67	2285.84
575.02	2282.03
575.37	2278.56
575.72	2274.61
576.08	2271.14
576.43	2267.74
576.78	2264.02
577.13	2260.92
577.49	2257.63
577.84	2254.03
578.19	2250.29
578.54	2246.48
578.90	2241.93
579.25	2236.31
579.60	2231.12
579.95	2226.07
580.30	2220.97
580.66	2215.79
581.01	2210.68
581.36	2205.70
581.71	2201.29
582.06	2196.71
582.42	2191.98
582.77	2186.63
583.12	2181.88
583.47	2177.06
583.82	2171.84
584.17	2166.53
584.53	2160.87
584.88	2155.17
585.23	2149.22
585.58	2143.42
585.93	2137.99
586.28	2133.29
586.63	2128.10
586.98	2122.98
587.34	2118.21
587.69	2113.25
588.04	2107.85
588.39	2102.12
588.74	2095.51
589.09	2089.32
589.44	2082.42
589.79	2076.53
590.14	2070.92
590.49	2064.22
590.84	2057.77
591.19	2051.72
591.54	2045.14
591.89	2037.45
592.25	2030.71
592.60	2023.53
592.95	2015.93
593.30	2008.40
593.65	2000.68
594.00	1993.60
594.35	1986.31
594.70	1978.07
595.05	1970.62
595.40	1963.31
595.75	1955.64
596.10	1949.19
596.45	1942.31
596.80	1936.16
597.15	1929.29
597.50	1922.02
597.85	1915.61
598.19	1908.88
598.54	1901.82
598.89	1895.22
599.24	1889.46
599.59	1882.61
599.94	1876.32
600.29	1870.02
600.64	1863.43
600.99	1855.86
601.34	1848.75
601.69	1841.71
602.04	1834.74
602.39	1827.37
602.74	1820.49
603.08	1813.80
603.43	1807.15
603.78	1799.81
604.13	1792.55
604.48	1785.24
604.83	1778.41
605.18	1771.30
605.53	1763.26
605.87	1755.20
606.22	1747.78
606.57	1739.66
606.92	1732.32
607.27	1724.96
607.62	1717.98
607.96	1710.75
608.31	1704.00
608.66	1696.51
609.01	1688.95
609.36	1681.47
609.70	1673.50
610.05	1665.30
610.40	1657.60
610.75	1649.21
611.10	1641.63
611.44	1633.20
611.79	1625.18
612.14	1616.47
612.49	1607.47
612.83	1599.03
613.18	1590.90
613.53	1582.90
613.88	1574.54
614.22	1566.33
614.57	1557.91
614.92	1549.89
615.27	1542.20
615.61	1533.90
615.96	1525.93
616.31	1518.34
616.65	1510.98
617.00	1503.35
617.35	1495.77
617.70	1487.36
618.04	1478.83
618.39	1470.51
618.74	1462.86
619.08	1454.66
619.43	1447.07
619.78	1440.21
620.12	1433.05
620.47	1425.52
620.82	1417.34
621.16	1409.96
621.51	1402.26
621.85	1394.55
622.20	1386.12
622.55	1377.95
622.89	1370.16
623.24	1362.60
623.59	1355.28
623.93	1347.87
624.28	1340.67
624.62	1333.19
624.97	1326.07
625.32	1319.47
625.66	1312.50
626.01	1305.42
626.35	1297.94
626.70	1290.30
627.04	1282.47
627.39	1274.84
627.73	1267.49
628.08	1260.65
628.43	1253.29
628.77	1245.96
629.12	1238.38
629.46	1231.19
629.81	1223.73
630.15	1216.66
630.50	1209.27
630.84	1200.95
631.19	1192.92
631.53	1185.53
631.88	1178.01
632.22	1170.39
632.57	1163.13
632.91	1155.65
633.26	1148.23
633.60	1141.02
633.95	1133.91
634.29	1126.90
634.64	1120.29
634.98	1113.04
635.32	1105.85
635.67	1099.38
636.01	1092.87
636.36	1086.21
636.70	1079.71
637.05	1073.19
637.39	1066.68
637.73	1060.16
638.08	1054.57
638.42	1048.67
638.77	1042.16
639.11	1035.60
639.45	1029.35
639.80	1022.71
640.14	1016.37
640.49	1009.90
640.83	1003.55
641.17	997.44
641.52	991.33
641.86	984.90
642.20	979.02
642.55	972.81
642.89	966.24
643.23	959.75
643.58	953.97
643.92	947.81
644.26	941.72
644.61	935.79
644.95	929.76
645.29	923.04
645.64	916.35
645.98	910.07
646.32	904.29
646.66	898.32
647.01	892.55
647.35	886.78
647.69	880.97
648.04	875.54
648.38	869.65
648.72	863.51
649.06	857.41
649.41	851.52
649.75	845.50
650.09	839.70
650.43	833.84
650.78	827.69
651.12	821.72
651.46	815.99
651.80	810.13
652.14	804.71
652.49	799.38
652.83	794.21
653.17	788.55
653.51	782.84
653.85	777.41
654.20	771.69
654.54	765.74
654.88	760.01
655.22	754.04
655.56	748.36
655.90	742.99
656.25	737.78
656.59	732.46
656.93	727.44
657.27	722.19
657.61	716.80
657.95	711.71
658.29	706.64
658.64	701.49
658.98	696.26
659.32	690.89
659.66	685.69
660.00	680.42
660.34	675.52
660.68	670.66
661.02	665.58
661.36	660.93
661.70	656.52
662.05	652.19
662.39	647.92
662.73	643.53
663.07	639.08
663.41	634.67
663.75	630.08
664.09	625.57
664.43	621.21
664.77	617.15
665.11	612.93
665.45	608.89
665.79	604.81
666.13	600.80
666.47	596.70
666.81	592.53
667.15	588.43
667.49	584.49
667.83	580.68
668.17	576.78
668.51	572.79
668.85	568.75
669.19	564.93
669.53	561.09
669.87	557.20
670.21	553.60
670.55	549.99
670.89	546.65
671.23	543.19
671.57	539.75
671.91	536.21
672.25	532.78
672.58	529.31
672.92	525.97
673.26	522.77
673.60	519.62
673.94	516.56
674.28	513.70
674.62	510.83
674.96	507.73
675.30	504.80
675.64	501.85
675.97	499.12
676.31	496.25
676.65	493.36
676.99	490.66
677.33	487.79
677.67	484.97
678.01	481.93
678.34	478.99
678.68	476.20
679.02	473.36
679.36	470.61
679.70	467.86
680.04	465.09
680.37	462.21
680.71	459.52
681.05	456.94
681.39	454.17
681.73	451.53
682.06	449.00
682.40	446.53
682.74	444.01
683.08	441.47
683.42	438.92
683.75	436.40
684.09	433.91
684.43	431.49
684.77	429.05
685.10	426.76
685.44	424.47
685.78	422.11
686.12	419.99
686.45	417.76
686.79	415.47
687.13	413.26
687.46	411.08
687.80	408.90
688.14	406.69
688.48	404.70
688.81	402.44
689.15	400.29
689.49	398.18
689.82	396.09
690.16	393.99
690.50	392.02
690.83	390.11
691.17	388.12
691.51	386.20
691.84	384.32
692.18	382.38
692.52	380.36
692.85	378.48
693.19	376.54
693.52	374.67
693.86	372.87
694.20	371.09
694.53	369.34
694.87	367.48
695.21	365.71
695.54	363.84
695.88	362.14
696.21	360.42
696.55	358.71
696.88	357.06
697.22	355.40
697.56	353.80
697.89	352.14
698.23	350.52
698.56	348.88
698.90	347.29
699.23	345.65
699.57	344.12
699.90	342.60
700.24	341.06
700.58	339.57
700.91	338.08
701.25	336.63
701.58	335.21
701.92	333.88
702.25	332.52
702.59	331.15
702.92	329.85
703.26	328.59
703.59	327.30
703.93	326.12
704.26	324.91
704.60	323.60
704.93	322.39
705.26	321.17
705.60	320.05
705.93	318.94
706.27	317.94
706.60	316.91
706.94	315.79
707.27	314.69
707.61	313.64
707.94	312.65
708.27	311.58
708.61	310.58
708.94	309.59
709.28	308.61
709.61	307.69
709.94	306.70
710.28	305.69
710.61	304.74
710.95	303.70
711.28	302.83
711.61	301.95
711.95	301.01
712.28	300.07
712.61	299.07
712.95	298.18
713.28	297.31
713.61	296.42
713.95	295.54
714.28	294.70
714.61	293.84
714.95	292.99
715.28	292.16
715.61	291.26
715.95	290.42
716.28	289.56
716.61	288.69
716.95	287.89
717.28	287.18
717.61	286.42
717.94	285.69
718.28	284.86
718.61	284.10
718.94	283.41
719.27	282.75
719.61	282.15
719.94	281.46
720.27	280.71
720.60	280.04
720.94	279.42
721.27	278.84
721.60	278.28
721.93	277.67
722.27	277.13
722.60	276.59
722.93	276.02
723.26	275.51
723.59	275.00
723.93	274.46
724.26	273.90
724.59	273.32
724.92	272.81
725.25	272.32
725.59	271.80
725.92	271.32
726.25	270.83
726.58	270.34
726.91	269.83
727.24	269.40
727.57	268.92
727.91	268.42
728.24	267.94
728.57	267.45
728.90	267.00
729.23	266.51
729.56	266.08
729.89	265.65
730.22	265.16
730.55	264.68
730.89	264.22
731.22	263.76
731.55	263.36
731.88	262.92
732.21	262.48
732.54	262.08
732.87	261.62
733.20	261.25
733.53	260.84
733.86	260.45
734.19	260.04
734.52	259.68
734.85	259.35
735.18	258.95
735.51	258.57
735.84	258.20
736.17	257.83
736.50	257.43
736.83	257.18
737.16	256.87
737.49	256.53
737.82	256.20
738.15	255.89
738.48	255.51
738.81	255.17
739.14	254.85
739.47	254.49
739.80	254.15
740.13	253.82
740.46	253.48
740.79	253.17
741.12	252.81
741.45	252.49
741.78	252.17
742.11	251.89
742.44	251.54
742.77	251.26
743.10	250.95
743.43	250.63
743.75	250.22
744.08	250.03
744.41	249.76
744.74	249.46
745.07	249.19
745.40	248.95
745.73	248.72
746.06	248.41
746.39	248.17
746.71	247.94
747.04	247.65
747.37	247.41
747.70	247.17
748.03	246.92
748.36	246.73
748.68	246.50
749.01	246.22
749.34	246.02
749.67	245.77
750.00	245.55
750.33	245.44
750.65	245.22
750.98	244.89
751.31	244.64
751.64	244.46
751.97	244.25
752.29	244.02
752.62	243.77
752.95	243.58
753.28	243.35
753.60	243.14
753.93	242.94
754.26	242.73
754.59	242.52
754.91	242.34
755.24	242.10
755.57	241.89
755.90	241.69
756.22	241.50
756.55	241.31
756.88	241.13
757.20	240.88
757.53	240.69
757.86	240.54
758.19	240.40
758.51	240.24
758.84	240.07
759.17	239.92
759.49	239.74
759.82	239.64
760.15	239.52
760.47	239.42
760.80	239.27
761.13	239.17
761.45	239.02
761.78	238.88
762.11	238.76
762.43	238.62
762.76	238.52
763.08	238.39
763.41	238.26
763.74	238.16
764.06	238.01
764.39	237.90
764.71	237.75
765.04	237.61
765.37	237.49
765.69	237.36
766.02	237.22
766.34	237.13
766.67	236.97
767.00	236.88
767.32	236.77
767.65	236.69
767.97	236.56
768.30	236.46
768.62	236.36
768.95	236.23
769.27	236.13
769.60	236.03
769.92	235.94
770.25	235.81
770.57	235.67
770.90	235.59
771.22	235.47
771.55	235.38
771.87	235.28
772.20	235.17
772.52	235.17
772.85	235.21
773.17	235.11
773.50	235.03
773.82	234.92
774.15	234.81
774.47	234.71
774.80	234.63
775.12	234.51
775.45	234.45
775.77	234.40
776.09	234.35
776.42	234.28
776.74	234.22
777.07	234.17
777.39	234.09
777.72	233.99
778.04	233.92
778.36	233.85
778.69	233.81
779.01	233.74
779.33	233.55
779.66	233.38
779.98	233.31
780.31	233.25
780.63	233.21
780.95	233.14
781.28	233.04
781.60	232.95
781.92	232.91
782.25	232.82
782.57	232.72
782.89	232.65
783.22	232.58
783.54	232.47
783.86	232.41
784.19	232.34
784.51	232.33
784.83	232.27
785.16	232.23
785.48	232.18
785.80	232.11
786.12	232.07
786.45	231.99
786.77	231.94
787.09	231.87
787.42	231.81
787.74	231.75
788.06	231.72
788.38	231.69
788.71	231.65
789.03	231.61
789.35	231.57
789.67	231.48
789.99	231.43
790.32	231.37
790.64	231.33
790.96	231.39
791.28	231.31
791.61	231.24
791.93	231.17
792.25	231.14
792.57	231.16
792.89	231.12
793.21	231.09
793.54	231.04
793.86	231.00
794.18	230.94
794.50	230.87
794.82	230.84
795.14	230.81
795.47	230.75
795.79	230.71
796.11	230.69
796.43	230.66
796.75	230.61
797.07	230.61
797.39	230.57
797.71	230.48
798.04	230.44
798.36	230.44
798.68	230.40
799.00	230.32
799.32	230.26
799.64	230.25
799.96	230.19
800.28	230.19
800.60	230.14
800.92	230.13
801.24	230.08
801.56	230.06
801.89	230.04
802.21	230.03
802.53	230.00
802.85	229.97
803.17	230.03
803.49	230.00
803.81	229.96
804.13	229.93
804.45	229.89
804.77	229.86
805.09	229.84
805.41	229.83
805.73	229.80
806.05	229.76
806.37	229.74
806.69	229.74
807.01	229.70
807.33	229.70
807.65	229.63
807.97	229.66
808.28	229.64
808.60	229.61
808.92	229.60
809.24	229.66
809.56	229.61
809.88	229.53
810.20	229.49
810.52	229.48
810.84	229.46
811.16	229.42
811.48	229.40
811.80	229.42
812.12	229.38
812.43	229.40
812.75	229.36
813.07	229.32
813.39	229.30
813.71	229.29
814.03	229.26
814.35	229.27
814.67	229.20
814.98	229.17
815.30	229.12
815.62	229.06
815.94	228.94
816.26	228.98
816.58	228.93
816.89	228.95
817.21	228.86
817.53	228.88
817.85	228.85
818.17	228.84
818.48	228.76
818.80	228.77
819.12	228.71
819.44	228.70
819.76	228.66
820.07	228.64
820.39	228.62
820.71	228.61
821.03	228.55
821.34	228.56
821.66	228.54
821.98	228.53
822.30	228.55
822.61	228.56
822.93	228.48
823.25	228.49
823.57	228.48
823.88	228.55
824.20	228.46
824.52	228.44
824.83	228.43
825.15	228.41
825.47	228.37
825.79	228.39
826.10	228.36
826.42	228.36
826.74	228.34
827.05	228.29
827.37	228.28
827.69	228.28
828.00	228.24
828.32	228.22
828.64	228.22
828.95	228.21
829.27	228.17
829.58	228.18
829.90	228.16
830.22	228.13
830.53	228.05
830.85	228.04
831.17	228.01
831.48	227.99
831.80	227.98
832.11	227.99
832.43	227.95
832.75	227.93
833.06	227.98
833.38	227.95
833.69	227.95
834.01	227.94
834.32	227.90
834.64	227.91
834.96	227.89
835.27	227.89
835.59	227.86
835.90	227.86
836.22	227.84
836.53	227.82
836.85	227.83
837.16	227.93
837.48	227.95
837.79	227.99
838.11	227.99
838.42	227.97
838.74	227.95
839.05	227.96
839.37	227.97
839.68	227.90
840.00	227.89
840.31	227.88
840.63	227.88
840.94	227.89
841.26	227.85
841.57	227.89
841.88	227.86
842.20	227.83
842.51	227.81
842.83	227.81
843.14	227.86
843.46	227.82
843.77	227.78
844.08	227.78
844.40	227.73
844.71	227.72
845.03	227.68
845.34	227.68
845.65	227.66
845.97	227.64
846.28	227.64
846.60	227.63
846.91	227.63
847.22	227.63
847.54	227.65
847.85	227.67
848.16	227.59
848.48	227.57
848.79	227.61
849.10	227.60
849.42	227.60
849.73	227.55
850.04	227.54
850.36	227.50
850.67	227.50
850.98	227.52
851.30	227.54
851.61	227.57
851.92	227.58
852.23	227.62
852.55	227.62
852.86	227.62
853.17	227.64
853.49	227.65
853.80	227.67
854.11	227.65
854.42	227.69
854.74	227.73
855.05	227.76
855.36	227.74
855.67	227.75
855.99	227.73
856.30	227.82
856.61	227.83
856.92	227.81
857.23	227.80
857.55	227.83
857.86	227.83
858.17	227.84
858.48	227.84
858.79	227.77
859.11	227.80
859.42	227.78
859.73	227.77
860.04	227.79
860.35	227.77
860.66	227.75
860.98	227.70
861.29	227.70
861.60	227.70
861.91	227.67
862.22	227.66
862.53	227.64
862.84	227.53
863.16	227.56
863.47	227.54
863.78	227.52
864.09	227.49
864.40	227.47
864.71	227.43
865.02	227.44
865.33	227.44
865.64	227.40
865.95	227.39
866.27	227.46
866.58	227.44
866.89	227.41
867.20	227.40
867.51	227.41
867.82	227.38
868.13	227.35
868.44	227.35
868.75	227.33
869.06	227.34
869.37	227.35
869.68	227.31
869.99	227.34
870.30	227.34
870.61	227.34
870.92	227.34
871.23	227.35
871.54	227.34
871.85	227.37
872.16	227.36
872.47	227.34
872.78	227.26
873.09	227.27
873.40	227.26
873.71	227.25
874.02	227.24
874.33	227.23
874.64	227.24
874.95	227.25
875.26	227.26
875.56	227.23
875.87	227.23
876.18	227.22
876.49	227.28
876.80	227.30
877.11	227.27
877.42	227.23
877.73	227.24
878.04	227.22
878.35	227.22
878.66	227.25
878.96	227.25
879.27	227.27
879.58	227.23
879.89	227.22
880.20	227.26
880.51	227.26
880.82	227.29
881.12	227.33
881.43	227.33
881.74	227.31
882.05	227.31
882.36	227.31
882.67	227.31
882.97	227.21
883.28	227.19
883.59	227.23
883.90	227.25
884.21	227.25
884.51	227.26
884.82	227.25
885.13	227.23
885.44	227.28
885.74	227.31
886.05	227.35
886.36	227.37
886.67	227.35
886.98	227.38
887.28	227.38
887.59	227.36
887.90	227.37
888.20	227.38
888.51	227.40
888.82	227.41
889.13	227.44
889.43	227.57
889.74	227.57
890.05	227.54
890.35	227.55
890.66	227.55
890.97	227.55
891.28	227.54
891.58	227.55
891.89	227.53
892.20	227.51
892.50	227.50
892.81	227.50
893.12	227.52
893.42	227.49
893.73	227.50
894.04	227.51
894.34	227.54
894.65	227.53
894.95	227.54
895.26	227.53
895.57	227.60
895.87	227.46
896.18	227.50
896.48	227.53
896.79	227.50
897.10	227.51
897.40	227.54
897.71	227.57
898.01	227.56
898.32	227.56
898.63	227.55
898.93	227.54
899.24	227.53
899.54	227.54
899.85	227.55
900.15	227.53
900.46	227.53
900.76	227.53
901.07	227.55
901.38	227.55
901.68	227.57
901.99	227.47
902.29	227.50
902.60	227.48
902.90	227.46
903.21	227.48
903.51	227.48
903.82	227.43
904.12	227.42
904.43	227.41
904.73	227.43
905.03	227.41
905.34	227.50
905.64	227.48
905.95	227.44
906.25	227.43
906.56	227.43
906.86	227.43
907.17	227.37
907.47	227.33
907.77	227.32
908.08	227.29
908.38	227.29
908.69	227.31
908.99	227.28
909.30	227.27
909.60	227.25
909.90	227.24
910.21	227.21
910.51	227.18
910.81	227.21
911.12	227.16
911.42	227.14
911.73	227.05
912.03	227.07
912.33	227.07
912.64	227.03
912.94	227.01
913.24	226.94
913.55	226.94
913.85	226.95
914.15	226.94
914.46	226.93
914.76	226.92
915.06	226.87
915.37	226.90
915.67	226.88
915.97	226.87
916.27	226.84
916.58	226.86
916.88	226.86
917.18	226.83
917.49	226.92
917.79	226.92
918.09	226.91
918.39	226.90
918.70	226.91
919.00	226.94
919.30	226.94
919.60	226.95
919.91	226.95
920.21	226.97
920.51	226.94
920.81	226.94
921.12	226.96
921.42	226.97
921.72	226.92
922.02	226.94
922.32	226.96
922.63	226.97
922.93	227.04
923.23	227.06
923.53	227.06
923.83	227.00
924.13	227.02
924.44	227.01
924.74	227.04
925.04	227.06
925.34	227.07
925.64	227.07
925.94	227.11
926.24	227.15
926.55	227.13
926.85	227.18
927.15	227.21
927.45	227.18
927.75	227.20
928.05	227.22
928.35	227.22
928.65	227.26
928.95	227.24
929.26	227.19
929.56	227.21
929.86	227.21
930.16	227.18
930.46	227.17
930.76	227.18
931.06	227.14
931.36	227.10
931.66	227.13
931.96	227.12
932.26	227.13
932.56	227.12
932.86	227.11
933.16	227.10
933.46	227.09
933.76	227.10
934.06	227.15
934.36	227.18
934.66	227.19
934.96	227.18
935.26	227.18
935.56	227.20
935.86	227.17
936.16	227.18
936.46	227.22
936.76	227.23
937.06	227.21
937.36	227.22
937.66	227.23
937.96	227.20
938.26	227.22
938.56	227.19
938.86	227.22
939.16	227.25
939.46	227.24
939.76	227.25
940.06	227.23
940.35	227.22
940.65	227.16
940.95	227.17
941.25	227.15
941.55	227.19
941.85	227.18
942.15	227.23
942.45	227.24
942.75	227.22
943.04	227.21
943.34	227.25
943.64	227.26
943.94	227.28
944.24	227.29
944.54	227.26
944.84	227.29
945.13	227.27
945.43	227.26
945.73	227.26
946.03	227.26
946.33	227.27
946.62	227.23
946.92	227.23
947.22	227.22
947.52	227.23
947.82	227.23
948.11	227.21
948.41	227.18
948.71	227.18
949.01	227.20
949.31	227.20
949.60	227.18
949.90	227.17
950.20	227.13
950.50	227.11
950.79	227.13
951.09	227.09
951.39	227.08
951.69	227.07
951.98	227.08
952.28	227.05
952.58	227.08
952.87	227.08
953.17	227.13
953.47	227.12
953.76	227.11
954.06	227.08
954.36	227.08
954.66	227.05
954.95	227.05
955.25	227.04
955.55	227.07
955.84	227.06
956.14	227.07
956.44	227.06
956.73	227.05
957.03	227.04
957.32	227.05
957.62	227.07
957.92	227.11
958.21	227.08
958.51	227.17
958.81	227.15
959.10	227.13
959.40	227.11
959.69	227.13
959.99	227.13
960.29	227.15
960.58	227.13
960.88	227.18
961.17	227.18
961.47	227.18
961.76	227.16
962.06	227.15
962.36	227.14
962.65	227.16
962.95	227.19
963.24	227.16
963.54	227.19
963.83	227.17
964.13	227.14
964.42	227.14
964.72	227.11
965.01	227.09
965.31	227.10
965.60	227.08
965.90	227.17
966.19	227.13
966.49	227.12
966.78	227.11
967.08	227.10
967.37	227.11
967.67	227.09
967.96	227.10
968.26	227.07
968.55	227.11
968.85	227.12
969.14	227.12
969.43	227.14
969.73	227.13
970.02	227.12
970.32	227.13
970.61	227.10
970.91	227.03
971.20	227.01
971.49	227.04
971.79	227.08
972.08	226.97
972.38	226.97
972.67	226.97
972.96	226.99
973.26	226.95
973.55	226.98
973.85	226.99
974.14	226.97
974.43	227.00
974.73	226.99
975.02	226.99
975.31	226.98
975.61	226.98
975.90	226.96
976.19	226.93
976.49	226.96
976.78	226.95
977.07	227.00
977.37	227.04
977.66	227.04
977.95	226.98
978.24	227.00
978.54	227.03
978.83	227.04
979.12	227.07
979.42	227.07
979.71	227.04
980.00	227.00
980.29	227.01
980.59	227.00
980.88	227.03
981.17	227.03
981.46	227.02
981.76	226.99
982.05	227.03
982.34	227.06
982.63	227.04
982.93	227.08
983.22	227.08
983.51	227.10
983.80	227.12
984.09	227.16
984.39	227.13
984.68	227.12
984.97	227.12
985.26	227.09
985.55	227.10
985.85	227.05
986.14	227.09
986.43	227.13
986.72	227.13
987.01	227.09
987.30	227.06
987.59	227.07
987.89	227.12
988.18	227.10
988.47	227.10
988.76	227.13
989.05	227.13
989.34	227.12
989.63	227.09
989.92	227.06
990.22	227.05
990.51	227.08
990.80	227.08
991.09	227.10
991.38	227.13
991.67	227.14
991.96	227.18
992.25	227.17
992.54	227.13
992.83	227.12
993.12	227.09
993.41	227.11
993.70	227.15
993.99	227.14
994.28	227.15
994.58	227.15
994.87	227.10
995.16	227.07
995.45	227.07
995.74	227.07
996.03	227.07
996.32	227.05
996.61	227.06
996.90	227.06
997.19	227.04
997.48	227.03
997.77	227.02
998.06	227.00
998.34	226.99
998.63	227.01
998.92	227.03
999.21	227.07
999.50	227.08
999.79	227.00
1000.08	226.98
1000.37	226.99
1000.66	226.98
1000.95	227.00
1001.24	227.03
1001.53	227.03
1001.82	227.05
1002.11	227.03
1002.40	227.07
1002.68	227.11
1002.97	227.19
1003.26	227.17
1003.55	227.13
1003.84	227.13
1004.13	227.15
1004.42	227.14
1004.71	227.10
1004.99	227.07
1005.28	227.07
1005.57	227.08
1005.86	227.11
1006.15	227.11
1006.44	227.06
1006.72	227.06
1007.01	227.08
1007.30	227.07
1007.59	227.05
1007.88	227.06
1008.17	227.05
1008.45	227.03
1008.74	226.96
1009.03	226.91
1009.32	226.91
1009.60	226.93
1009.89	226.90
1010.18	226.88
1010.47	226.90
1010.76	226.90
1011.04	226.90
1011.33	226.92
1011.62	226.91
1011.91	226.92
1012.19	226.90
1012.48	226.95
1012.77	226.94
1013.05	226.94
1013.34	226.99
1013.63	227.00
1013.92	226.98
1014.20	227.00
1014.49	227.03
1014.78	227.03
1015.06	227.01
1015.35	227.02
1015.64	227.04
1015.92	227.09
1016.21	227.08
1016.50	227.07
1016.78	227.09
1017.07	227.08
1017.36	227.04
1017.64	227.05
1017.93	227.02
1018.22	227.02
1018.50	226.98
1018.79	227.00
1019.08	226.96
1019.36	226.90
1019.65	226.88
1019.93	226.90
1020.22	226.89
1020.51	226.90
1020.79	226.91
1021.08	226.44
1021.36	226.45
1021.65	227.30
1021.94	226.69
1022.22	226.48
1022.51	226.55
1022.79	227.37
1023.08	226.94
1023.36	227.97
1023.65	226.89
>>>>>End Processed Spectral Data<<<<<
