SpectraSuite Data File
++++++++++++++++++++++++++++++++++++
Date: Fri Feb 01 15:29:34 EST 2013
User: group
Dark Spectrum Present: No
Reference Spectrum Present: No
Number of Sampled Component Spectra: 1
Spectrometers: USB2E7196
Integration Time (usec): 35000 (USB2E7196)
Spectra Averaged: 100 (USB2E7196)
Boxcar Smoothing: 10 (USB2E7196)
Correct for Electrical Dark: No (USB2E7196)
Strobe/Lamp Enabled: No (USB2E7196)
Correct for Detector Non-linearity: No (USB2E7196)
Correct for Stray Light: No (USB2E7196)
Number of Pixels in Processed Spectrum: 2048
>>>>>Begin Processed Spectral Data<<<<<
339.09	0.00
339.48	215.08
339.86	216.67
340.24	218.02
340.63	219.21
341.01	221.72
341.39	222.73
341.78	223.26
342.16	224.61
342.54	225.01
342.93	213.46
343.31	224.26
343.69	224.80
344.07	225.28
344.46	225.71
344.84	226.10
345.22	226.35
345.60	226.58
345.99	226.75
346.37	226.86
346.75	226.97
347.13	227.03
347.52	227.08
347.90	227.13
348.28	227.15
348.66	227.20
349.05	227.21
349.43	227.25
349.81	227.31
350.19	227.36
350.57	227.46
350.96	227.54
351.34	227.61
351.72	227.68
352.10	227.74
352.48	227.78
352.87	227.85
353.25	227.92
353.63	227.99
354.01	228.07
354.39	228.16
354.77	228.22
355.15	228.34
355.54	228.39
355.92	228.43
356.30	228.50
356.68	228.64
357.06	228.71
357.44	228.79
357.82	228.83
358.20	228.88
358.58	228.90
358.97	228.98
359.35	229.09
359.73	229.18
360.11	229.24
360.49	229.31
360.87	229.37
361.25	229.47
361.63	229.54
362.01	229.60
362.39	229.61
362.77	229.67
363.15	229.68
363.53	229.67
363.91	229.73
364.29	229.74
364.67	229.62
365.05	229.64
365.43	229.62
365.81	229.64
366.19	229.63
366.57	229.68
366.95	229.63
367.33	229.58
367.71	229.54
368.09	229.54
368.47	229.51
368.85	229.46
369.23	229.38
369.61	229.28
369.99	229.25
370.37	229.23
370.75	229.21
371.13	229.14
371.51	229.10
371.89	229.02
372.27	228.97
372.65	228.93
373.03	228.88
373.41	228.79
373.78	228.72
374.16	228.64
374.54	228.52
374.92	228.44
375.30	228.35
375.68	228.26
376.06	228.20
376.44	228.13
376.82	228.04
377.19	227.97
377.57	227.89
377.95	227.79
378.33	227.71
378.71	227.58
379.09	227.52
379.47	227.46
379.84	227.37
380.22	227.28
380.60	227.21
380.98	227.11
381.36	227.07
381.73	226.97
382.11	226.91
382.49	226.88
382.87	226.78
383.25	226.76
383.62	226.84
384.00	226.73
384.38	226.66
384.76	226.60
385.13	226.58
385.51	226.53
385.89	226.49
386.27	226.45
386.64	226.42
387.02	226.37
387.40	226.30
387.78	226.30
388.15	226.26
388.53	226.24
388.91	226.23
389.29	226.20
389.66	226.23
390.04	226.20
390.42	226.20
390.79	226.21
391.17	226.19
391.55	226.05
391.92	226.07
392.30	226.09
392.68	226.10
393.05	226.09
393.43	226.12
393.81	226.14
394.18	226.12
394.56	226.15
394.94	226.21
395.31	226.21
395.69	226.24
396.06	226.30
396.44	226.35
396.82	226.38
397.19	226.46
397.57	226.46
397.95	226.55
398.32	226.59
398.70	226.66
399.07	226.71
399.45	226.83
399.82	226.93
400.20	227.02
400.58	227.11
400.95	227.18
401.33	227.31
401.70	227.46
402.08	227.60
402.45	227.72
402.83	227.81
403.20	227.95
403.58	228.09
403.95	228.22
404.33	228.36
404.71	228.46
405.08	228.64
405.46	228.83
405.83	229.02
406.21	229.17
406.58	229.36
406.96	229.51
407.33	229.67
407.70	229.84
408.08	230.08
408.45	230.32
408.83	230.56
409.20	230.76
409.58	230.93
409.95	231.18
410.33	231.43
410.70	231.72
411.08	232.04
411.45	232.34
411.82	232.65
412.20	232.98
412.57	233.39
412.95	233.69
413.32	234.08
413.69	234.43
414.07	234.83
414.44	235.28
414.82	235.78
415.19	236.32
415.56	236.86
415.94	237.42
416.31	238.05
416.68	238.67
417.06	239.37
417.43	240.05
417.81	240.82
418.18	241.59
418.55	242.40
418.93	243.25
419.30	244.14
419.67	245.09
420.04	246.05
420.42	247.05
420.79	248.26
421.16	249.39
421.54	250.57
421.91	251.81
422.28	253.07
422.66	254.37
423.03	255.68
423.40	257.02
423.77	258.44
424.15	259.86
424.52	261.38
424.89	263.01
425.26	264.54
425.64	265.97
426.01	267.56
426.38	269.20
426.75	270.88
427.13	272.58
427.50	274.39
427.87	276.28
428.24	278.14
428.61	279.88
428.99	281.81
429.36	283.96
429.73	286.03
430.10	288.04
430.47	290.08
430.85	292.19
431.22	294.40
431.59	296.77
431.96	299.00
432.33	301.47
432.70	303.83
433.08	306.66
433.45	309.33
433.82	311.96
434.19	314.88
434.56	317.71
434.93	320.41
435.30	323.03
435.68	325.94
436.05	328.80
436.42	331.60
436.79	334.15
437.16	336.84
437.53	339.67
437.90	342.51
438.27	345.31
438.64	348.12
439.01	350.77
439.38	353.01
439.75	355.17
440.13	357.66
440.50	360.07
440.87	361.92
441.24	363.87
441.61	366.01
441.98	367.48
442.35	369.25
442.72	371.14
443.09	372.95
443.46	373.95
443.83	374.54
444.20	375.02
444.57	375.86
444.94	376.15
445.31	376.48
445.68	376.84
446.05	376.93
446.42	376.57
446.79	376.13
447.16	375.67
447.53	375.34
447.90	374.18
448.27	372.95
448.64	371.39
449.01	370.26
449.37	368.28
449.74	366.39
450.11	364.18
450.48	361.65
450.85	359.13
451.22	356.95
451.59	354.92
451.96	352.98
452.33	350.36
452.70	348.00
453.07	345.17
453.43	342.28
453.80	339.44
454.17	336.78
454.54	334.26
454.91	331.54
455.28	328.89
455.65	326.40
456.02	323.98
456.38	321.77
456.75	319.11
457.12	316.86
457.49	314.67
457.86	312.49
458.23	310.64
458.59	308.55
458.96	306.51
459.33	304.62
459.70	302.75
460.07	301.27
460.43	299.56
460.80	297.95
461.17	296.48
461.54	294.97
461.91	293.52
462.27	292.06
462.64	290.86
463.01	289.49
463.38	288.19
463.74	286.81
464.11	285.64
464.48	284.60
464.85	283.46
465.21	282.54
465.58	281.59
465.95	280.50
466.32	279.61
466.68	278.66
467.05	277.75
467.42	276.85
467.78	275.90
468.15	274.98
468.52	274.30
468.88	273.42
469.25	272.66
469.62	272.00
469.98	271.31
470.35	270.59
470.72	270.00
471.08	269.34
471.45	268.81
471.82	268.31
472.18	267.70
472.55	267.27
472.92	266.76
473.28	266.28
473.65	265.80
474.02	265.32
474.38	264.94
474.75	264.64
475.11	264.29
475.48	264.01
475.85	263.79
476.21	263.55
476.58	263.36
476.94	263.23
477.31	263.08
477.67	262.91
478.04	262.82
478.41	262.76
478.77	262.79
479.14	262.71
479.50	262.71
479.87	262.80
480.23	262.90
480.60	262.99
480.96	263.10
481.33	263.36
481.69	263.56
482.06	263.76
482.42	263.99
482.79	264.24
483.15	264.54
483.52	264.94
483.88	265.29
484.25	265.68
484.61	266.11
484.98	266.54
485.34	267.10
485.71	267.71
486.07	268.32
486.44	268.87
486.80	269.58
487.17	270.31
487.53	271.12
487.90	272.00
488.26	272.92
488.62	273.93
488.99	274.86
489.35	275.93
489.72	277.07
490.08	278.24
490.44	279.51
490.81	280.86
491.17	282.21
491.54	283.71
491.90	285.26
492.26	286.90
492.63	288.66
492.99	290.47
493.36	292.34
493.72	294.39
494.08	296.54
494.45	298.79
494.81	301.15
495.17	303.63
495.54	306.17
495.90	308.84
496.26	311.61
496.63	314.63
496.99	317.75
497.35	321.02
497.72	324.42
498.08	327.92
498.44	331.59
498.80	335.56
499.17	339.58
499.53	343.80
499.89	348.16
500.26	352.68
500.62	357.37
500.98	362.33
501.34	367.42
501.71	372.81
502.07	378.23
502.43	383.83
502.79	389.61
503.16	395.66
503.52	401.92
503.88	408.34
504.24	414.97
504.60	421.89
504.97	429.03
505.33	436.37
505.69	444.06
506.05	451.88
506.41	459.76
506.78	467.94
507.14	476.39
507.50	485.14
507.86	494.09
508.22	503.24
508.59	512.47
508.95	522.07
509.31	531.77
509.67	541.91
510.03	552.22
510.39	562.83
510.75	573.62
511.12	584.65
511.48	595.97
511.84	607.43
512.20	618.92
512.56	630.88
512.92	643.02
513.28	655.39
513.64	667.78
514.00	680.46
514.37	693.34
514.73	706.45
515.09	719.60
515.45	732.98
515.81	746.58
516.17	760.56
516.53	774.68
516.89	788.91
517.25	803.11
517.61	817.60
517.97	832.02
518.33	846.47
518.69	861.16
519.05	876.24
519.41	891.41
519.77	907.02
520.13	922.47
520.49	937.90
520.85	953.42
521.21	969.28
521.57	985.53
521.93	1001.41
522.29	1017.84
522.65	1034.03
523.01	1050.38
523.37	1066.52
523.73	1082.78
524.09	1098.95
524.45	1115.34
524.81	1132.04
525.17	1148.87
525.53	1165.90
525.89	1182.81
526.25	1199.67
526.61	1216.03
526.97	1232.81
527.33	1249.29
527.68	1266.01
528.04	1282.46
528.40	1299.09
528.76	1316.13
529.12	1332.77
529.48	1349.72
529.84	1365.81
530.20	1382.56
530.56	1399.74
530.91	1417.08
531.27	1433.93
531.63	1450.41
531.99	1467.04
532.35	1483.00
532.71	1498.94
533.07	1515.33
533.42	1531.35
533.78	1547.61
534.14	1563.89
534.50	1579.35
534.86	1595.31
535.21	1610.41
535.57	1626.61
535.93	1642.14
536.29	1657.05
536.65	1672.22
537.00	1687.17
537.36	1702.48
537.72	1717.06
538.08	1731.33
538.44	1745.27
538.79	1759.16
539.15	1773.03
539.51	1786.81
539.87	1801.18
540.22	1815.01
540.58	1828.81
540.94	1842.22
541.29	1855.17
541.65	1868.00
542.01	1881.26
542.37	1893.61
542.72	1906.26
543.08	1918.03
543.44	1930.48
543.79	1941.83
544.15	1952.88
544.51	1964.42
544.87	1975.35
545.22	1986.12
545.58	1996.39
545.94	2006.27
546.29	2016.28
546.65	2026.04
547.01	2035.27
547.36	2044.24
547.72	2052.73
548.07	2060.46
548.43	2068.71
548.79	2076.75
549.14	2084.39
549.50	2091.86
549.86	2099.60
550.21	2106.85
550.57	2114.14
550.92	2120.79
551.28	2127.81
551.64	2134.84
551.99	2141.43
552.35	2147.76
552.70	2153.84
553.06	2159.73
553.41	2166.02
553.77	2172.03
554.13	2178.08
554.48	2184.28
554.84	2189.57
555.19	2194.93
555.55	2200.07
555.90	2204.46
556.26	2209.19
556.61	2213.85
556.97	2217.96
557.32	2222.11
557.68	2226.27
558.03	2230.36
558.39	2234.12
558.74	2238.69
559.10	2242.48
559.45	2246.06
559.81	2250.25
560.16	2254.24
560.52	2257.54
560.87	2260.92
561.23	2263.44
561.58	2266.36
561.94	2268.80
562.29	2271.28
562.64	2273.85
563.00	2276.61
563.35	2280.23
563.71	2283.40
564.06	2286.62
564.42	2289.45
564.77	2291.86
565.12	2293.98
565.48	2295.98
565.83	2297.76
566.19	2298.94
566.54	2300.02
566.89	2301.18
567.25	2301.88
567.60	2303.28
567.96	2304.95
568.31	2305.81
568.66	2306.85
569.02	2307.52
569.37	2307.95
569.72	2308.71
570.08	2308.82
570.43	2308.61
570.78	2307.81
571.14	2306.24
571.49	2304.78
571.84	2304.48
572.20	2303.28
572.55	2302.34
572.90	2300.68
573.26	2299.11
573.61	2297.52
573.96	2295.70
574.31	2292.65
574.67	2289.42
575.02	2285.60
575.37	2282.32
575.72	2278.46
576.08	2275.17
576.43	2271.80
576.78	2267.98
577.13	2264.82
577.49	2261.71
577.84	2258.19
578.19	2254.39
578.54	2250.60
578.90	2246.30
579.25	2240.81
579.60	2235.85
579.95	2230.85
580.30	2225.72
580.66	2220.59
581.01	2215.54
581.36	2210.61
581.71	2206.31
582.06	2201.99
582.42	2197.43
582.77	2192.04
583.12	2187.28
583.47	2182.47
583.82	2177.21
584.17	2171.94
584.53	2166.22
584.88	2160.54
585.23	2154.71
585.58	2149.39
585.93	2143.91
586.28	2139.18
586.63	2133.84
586.98	2128.82
587.34	2124.03
587.69	2119.11
588.04	2113.81
588.39	2108.08
588.74	2101.48
589.09	2095.31
589.44	2088.33
589.79	2082.21
590.14	2076.39
590.49	2069.71
590.84	2063.40
591.19	2057.37
591.54	2050.86
591.89	2043.35
592.25	2036.47
592.60	2029.17
592.95	2021.28
593.30	2013.98
593.65	2006.17
594.00	1999.23
594.35	1991.85
594.70	1983.61
595.05	1976.40
595.40	1969.07
595.75	1961.54
596.10	1955.17
596.45	1948.32
596.80	1941.97
597.15	1935.21
597.50	1928.14
597.85	1921.90
598.19	1915.05
598.54	1907.87
598.89	1901.21
599.24	1895.37
599.59	1888.56
599.94	1882.29
600.29	1876.15
600.64	1869.54
600.99	1862.04
601.34	1855.08
601.69	1848.06
602.04	1841.08
602.39	1833.61
602.74	1826.66
603.08	1819.90
603.43	1813.03
603.78	1805.76
604.13	1798.64
604.48	1791.46
604.83	1784.50
605.18	1777.33
605.53	1769.35
605.87	1761.35
606.22	1754.06
606.57	1746.01
606.92	1738.77
607.27	1731.60
607.62	1724.51
607.96	1717.12
608.31	1710.52
608.66	1702.83
609.01	1695.30
609.36	1687.78
609.70	1679.77
610.05	1671.69
610.40	1663.85
610.75	1655.61
611.10	1647.81
611.44	1639.44
611.79	1631.45
612.14	1622.77
612.49	1613.59
612.83	1605.08
613.18	1597.05
613.53	1588.93
613.88	1580.44
614.22	1572.08
614.57	1563.49
614.92	1555.42
615.27	1547.81
615.61	1539.57
615.96	1531.62
616.31	1523.82
616.65	1516.42
617.00	1508.85
617.35	1501.23
617.70	1492.85
618.04	1484.27
618.39	1476.07
618.74	1468.40
619.08	1460.04
619.43	1452.56
619.78	1445.80
620.12	1438.74
620.47	1431.14
620.82	1422.95
621.16	1415.61
621.51	1408.02
621.85	1400.45
622.20	1392.02
622.55	1383.64
622.89	1375.76
623.24	1368.12
623.59	1360.70
623.93	1353.28
624.28	1346.08
624.62	1338.55
624.97	1331.41
625.32	1324.77
625.66	1317.72
626.01	1310.58
626.35	1303.12
626.70	1295.29
627.04	1287.42
627.39	1279.56
627.73	1272.09
628.08	1265.17
628.43	1257.76
628.77	1250.48
629.12	1242.80
629.46	1235.49
629.81	1228.14
630.15	1220.97
630.50	1213.59
630.84	1205.49
631.19	1197.52
631.53	1190.06
631.88	1182.40
632.22	1174.89
632.57	1167.55
632.91	1160.07
633.26	1152.63
633.60	1145.28
633.95	1138.19
634.29	1131.16
634.64	1124.45
634.98	1117.21
635.32	1110.05
635.67	1103.55
636.01	1096.89
636.36	1090.13
636.70	1083.63
637.05	1077.08
637.39	1070.52
637.73	1064.04
638.08	1058.25
638.42	1052.26
638.77	1045.78
639.11	1039.23
639.45	1032.82
639.80	1026.15
640.14	1019.64
640.49	1013.04
640.83	1006.77
641.17	1000.52
641.52	994.09
641.86	987.77
642.20	981.82
642.55	975.52
642.89	968.89
643.23	962.27
643.58	956.56
643.92	950.38
644.26	944.33
644.61	938.36
644.95	932.22
645.29	925.56
645.64	918.84
645.98	912.48
646.32	906.67
646.66	900.65
647.01	894.82
647.35	889.14
647.69	883.32
648.04	877.73
648.38	871.94
648.72	866.01
649.06	859.88
649.41	854.05
649.75	848.05
650.09	842.16
650.43	836.34
650.78	830.12
651.12	824.18
651.46	818.37
651.80	812.58
652.14	807.20
652.49	801.88
652.83	796.65
653.17	790.92
653.51	785.12
653.85	779.77
654.20	774.20
654.54	768.29
654.88	762.54
655.22	756.67
655.56	751.03
655.90	745.63
656.25	740.41
656.59	735.08
656.93	730.00
657.27	724.84
657.61	719.44
657.95	714.36
658.29	709.21
658.64	704.00
658.98	698.64
659.32	693.21
659.66	687.91
660.00	682.55
660.34	677.67
660.68	672.81
661.02	667.74
661.36	662.94
661.70	658.43
662.05	654.16
662.39	649.80
662.73	645.36
663.07	640.96
663.41	636.53
663.75	632.00
664.09	627.50
664.43	623.11
664.77	619.04
665.11	614.80
665.45	610.74
665.79	606.76
666.13	602.69
666.47	598.57
666.81	594.42
667.15	590.36
667.49	586.47
667.83	582.71
668.17	578.80
668.51	574.80
668.85	570.75
669.19	566.87
669.53	563.04
669.87	559.12
670.21	555.43
670.55	551.79
670.89	548.31
671.23	544.89
671.57	541.42
671.91	537.83
672.25	534.37
672.58	530.86
672.92	527.41
673.26	524.22
673.60	521.12
673.94	518.04
674.28	515.15
674.62	512.22
674.96	509.11
675.30	506.14
675.64	503.25
675.97	500.48
676.31	497.61
676.65	494.69
676.99	491.98
677.33	489.13
677.67	486.31
678.01	483.30
678.34	480.29
678.68	477.41
679.02	474.57
679.36	471.77
679.70	469.06
680.04	466.30
680.37	463.42
680.71	460.57
681.05	457.97
681.39	455.24
681.73	452.56
682.06	450.03
682.40	447.53
682.74	444.98
683.08	442.37
683.42	439.75
683.75	437.28
684.09	434.74
684.43	432.28
684.77	429.81
685.10	427.49
685.44	425.26
685.78	422.96
686.12	420.76
686.45	418.46
686.79	416.14
687.13	413.92
687.46	411.79
687.80	409.64
688.14	407.42
688.48	405.38
688.81	403.09
689.15	400.87
689.49	398.70
689.82	396.59
690.16	394.54
690.50	392.59
690.83	390.60
691.17	388.60
691.51	386.70
691.84	384.80
692.18	382.83
692.52	380.76
692.85	378.86
693.19	376.95
693.52	375.15
693.86	373.38
694.20	371.60
694.53	369.82
694.87	368.01
695.21	366.21
695.54	364.33
695.88	362.66
696.21	360.97
696.55	359.34
696.88	357.66
697.22	356.01
697.56	354.44
697.89	352.76
698.23	351.14
698.56	349.50
698.90	347.94
699.23	346.30
699.57	344.76
699.90	343.21
700.24	341.68
700.58	340.14
700.91	338.61
701.25	337.17
701.58	335.76
701.92	334.41
702.25	333.01
702.59	331.72
702.92	330.41
703.26	329.12
703.59	327.81
703.93	326.63
704.26	325.41
704.60	324.09
704.93	322.88
705.26	321.63
705.60	320.47
705.93	319.32
706.27	318.32
706.60	317.30
706.94	316.23
707.27	315.14
707.61	314.09
707.94	313.10
708.27	312.01
708.61	310.95
708.94	309.94
709.28	309.02
709.61	308.07
709.94	307.10
710.28	306.10
710.61	305.11
710.95	304.06
711.28	303.13
711.61	302.18
711.95	301.22
712.28	300.29
712.61	299.32
712.95	298.39
713.28	297.50
713.61	296.59
713.95	295.69
714.28	294.85
714.61	293.96
714.95	293.13
715.28	292.26
715.61	291.40
715.95	290.57
716.28	289.69
716.61	288.81
716.95	287.99
717.28	287.23
717.61	286.51
717.94	285.78
718.28	284.99
718.61	284.27
718.94	283.60
719.27	282.98
719.61	282.33
719.94	281.66
720.27	280.92
720.60	280.28
720.94	279.68
721.27	279.08
721.60	278.52
721.93	277.87
722.27	277.38
722.60	276.84
722.93	276.23
723.26	275.69
723.59	275.15
723.93	274.58
724.26	273.96
724.59	273.37
724.92	272.81
725.25	272.32
725.59	271.83
725.92	271.37
726.25	270.84
726.58	270.37
726.91	269.88
727.24	269.41
727.57	268.91
727.91	268.38
728.24	267.90
728.57	267.41
728.90	267.01
729.23	266.48
729.56	266.02
729.89	265.52
730.22	264.98
730.55	264.55
730.89	264.10
731.22	263.70
731.55	263.25
731.88	262.83
732.21	262.37
732.54	261.89
732.87	261.42
733.20	261.02
733.53	260.62
733.86	260.20
734.19	259.80
734.52	259.44
734.85	259.12
735.18	258.68
735.51	258.32
735.84	257.89
736.17	257.55
736.50	257.17
736.83	256.99
737.16	256.71
737.49	256.34
737.82	255.97
738.15	255.63
738.48	255.34
738.81	254.99
739.14	254.66
739.47	254.33
739.80	254.02
740.13	253.70
740.46	253.38
740.79	253.06
741.12	252.78
741.45	252.46
741.78	252.11
742.11	251.83
742.44	251.53
742.77	251.23
743.10	250.90
743.43	250.62
743.75	250.19
744.08	250.04
744.41	249.78
744.74	249.55
745.07	249.28
745.40	249.01
745.73	248.76
746.06	248.50
746.39	248.26
746.71	248.01
747.04	247.73
747.37	247.47
747.70	247.25
748.03	247.00
748.36	246.76
748.68	246.53
749.01	246.27
749.34	246.03
749.67	245.83
750.00	245.61
750.33	245.46
750.65	245.23
750.98	244.89
751.31	244.68
751.64	244.46
751.97	244.32
752.29	244.10
752.62	243.90
752.95	243.69
753.28	243.47
753.60	243.29
753.93	243.12
754.26	242.91
754.59	242.67
754.91	242.45
755.24	242.27
755.57	242.09
755.90	241.94
756.22	241.79
756.55	241.59
756.88	241.41
757.20	241.16
757.53	241.00
757.86	240.84
758.19	240.68
758.51	240.55
758.84	240.34
759.17	240.20
759.49	240.06
759.82	239.96
760.15	239.78
760.47	239.59
760.80	239.41
761.13	239.30
761.45	239.17
761.78	239.06
762.11	238.93
762.43	238.77
762.76	238.61
763.08	238.45
763.41	238.32
763.74	238.20
764.06	238.07
764.39	237.96
764.71	237.80
765.04	237.68
765.37	237.50
765.69	237.33
766.02	237.16
766.34	237.01
766.67	236.82
767.00	236.77
767.32	236.70
767.65	236.64
767.97	236.51
768.30	236.35
768.62	236.21
768.95	236.04
769.27	235.90
769.60	235.79
769.92	235.67
770.25	235.55
770.57	235.42
770.90	235.28
771.22	235.15
771.55	235.04
771.87	234.92
772.20	234.82
772.52	234.83
772.85	234.86
773.17	234.79
773.50	234.72
773.82	234.57
774.15	234.43
774.47	234.27
774.80	234.20
775.12	234.14
775.45	234.04
775.77	233.98
776.09	233.92
776.42	233.83
776.74	233.77
777.07	233.70
777.39	233.64
777.72	233.57
778.04	233.47
778.36	233.42
778.69	233.35
779.01	233.33
779.33	233.15
779.66	232.98
779.98	232.87
780.31	232.82
780.63	232.81
780.95	232.80
781.28	232.80
781.60	232.71
781.92	232.67
782.25	232.61
782.57	232.56
782.89	232.52
783.22	232.47
783.54	232.41
783.86	232.37
784.19	232.31
784.51	232.28
784.83	232.25
785.16	232.16
785.48	232.09
785.80	232.02
786.12	231.98
786.45	231.95
786.77	231.92
787.09	231.86
787.42	231.77
787.74	231.70
788.06	231.63
788.38	231.58
788.71	231.53
789.03	231.51
789.35	231.48
789.67	231.43
789.99	231.38
790.32	231.35
790.64	231.31
790.96	231.35
791.28	231.30
791.61	231.23
791.93	231.25
792.25	231.22
792.57	231.25
792.89	231.22
793.21	231.19
793.54	231.16
793.86	231.13
794.18	231.10
794.50	231.07
794.82	231.04
795.14	231.03
795.47	231.00
795.79	231.00
796.11	230.97
796.43	230.94
796.75	230.91
797.07	230.89
797.39	230.85
797.71	230.75
798.04	230.71
798.36	230.74
798.68	230.69
799.00	230.67
799.32	230.60
799.64	230.59
799.96	230.54
800.28	230.50
800.60	230.45
800.92	230.45
801.24	230.43
801.56	230.40
801.89	230.36
802.21	230.35
802.53	230.27
802.85	230.24
803.17	230.26
803.49	230.21
803.81	230.17
804.13	230.17
804.45	230.12
804.77	230.11
805.09	230.07
805.41	230.06
805.73	230.02
806.05	229.97
806.37	229.91
806.69	229.88
807.01	229.87
807.33	229.80
807.65	229.70
807.97	229.71
808.28	229.66
808.60	229.61
808.92	229.54
809.24	229.55
809.56	229.50
809.88	229.43
810.20	229.41
810.52	229.39
810.84	229.33
811.16	229.30
811.48	229.25
811.80	229.23
812.12	229.16
812.43	229.15
812.75	229.10
813.07	229.06
813.39	229.03
813.71	228.99
814.03	228.99
814.35	228.97
814.67	228.90
814.98	228.87
815.30	228.86
815.62	228.82
815.94	228.75
816.26	228.76
816.58	228.70
816.89	228.69
817.21	228.63
817.53	228.61
817.85	228.56
818.17	228.53
818.48	228.45
818.80	228.46
819.12	228.39
819.44	228.38
819.76	228.33
820.07	228.28
820.39	228.25
820.71	228.22
821.03	228.23
821.34	228.19
821.66	228.17
821.98	228.17
822.30	228.15
822.61	228.20
822.93	228.13
823.25	228.10
823.57	228.06
823.88	228.09
824.20	228.07
824.52	228.09
824.83	228.11
825.15	228.12
825.47	228.13
825.79	228.13
826.10	228.12
826.42	228.13
826.74	228.16
827.05	228.19
827.37	228.19
827.69	228.18
828.00	228.19
828.32	228.16
828.64	228.14
828.95	228.20
829.27	228.15
829.58	228.13
829.90	228.16
830.22	228.15
830.53	228.10
830.85	228.11
831.17	228.09
831.48	228.06
831.80	228.08
832.11	228.05
832.43	228.04
832.75	228.05
833.06	228.12
833.38	228.10
833.69	228.07
834.01	228.09
834.32	228.10
834.64	228.11
834.96	228.15
835.27	228.14
835.59	228.11
835.90	228.10
836.22	228.12
836.53	228.15
836.85	228.17
837.16	228.29
837.48	228.27
837.79	228.28
838.11	228.29
838.42	228.30
838.74	228.31
839.05	228.30
839.37	228.29
839.68	228.23
840.00	228.22
840.31	228.22
840.63	228.18
840.94	228.18
841.26	228.14
841.57	228.14
841.88	228.19
842.20	228.15
842.51	228.11
842.83	228.15
843.14	228.18
843.46	228.18
843.77	228.11
844.08	228.10
844.40	228.06
844.71	228.04
845.03	228.05
845.34	228.06
845.65	228.07
845.97	228.06
846.28	228.05
846.60	228.08
846.91	228.05
847.22	228.09
847.54	228.05
847.85	228.06
848.16	228.02
848.48	227.96
848.79	227.99
849.10	228.01
849.42	227.99
849.73	227.90
850.04	227.89
850.36	227.83
850.67	227.84
850.98	227.82
851.30	227.84
851.61	227.81
851.92	227.77
852.23	227.78
852.55	227.77
852.86	227.76
853.17	227.72
853.49	227.73
853.80	227.69
854.11	227.71
854.42	227.69
854.74	227.67
855.05	227.66
855.36	227.58
855.67	227.55
855.99	227.53
856.30	227.61
856.61	227.59
856.92	227.60
857.23	227.60
857.55	227.56
857.86	227.52
858.17	227.52
858.48	227.48
858.79	227.44
859.11	227.43
859.42	227.40
859.73	227.37
860.04	227.33
860.35	227.30
860.66	227.25
860.98	227.23
861.29	227.23
861.60	227.20
861.91	227.23
862.22	227.23
862.53	227.20
862.84	227.08
863.16	227.08
863.47	227.03
863.78	227.00
864.09	227.06
864.40	227.07
864.71	227.04
865.02	227.07
865.33	227.07
865.64	227.06
865.95	227.05
866.27	227.10
866.58	227.12
866.89	227.13
867.20	227.14
867.51	227.11
867.82	227.12
868.13	227.14
868.44	227.12
868.75	227.14
869.06	227.16
869.37	227.16
869.68	227.15
869.99	227.18
870.30	227.17
870.61	227.15
870.92	227.14
871.23	227.14
871.54	227.13
871.85	227.14
872.16	227.15
872.47	227.16
872.78	227.10
873.09	227.13
873.40	227.14
873.71	227.19
874.02	227.24
874.33	227.22
874.64	227.20
874.95	227.25
875.26	227.26
875.56	227.25
875.87	227.25
876.18	227.23
876.49	227.36
876.80	227.37
877.11	227.40
877.42	227.40
877.73	227.43
878.04	227.44
878.35	227.44
878.66	227.45
878.96	227.47
879.27	227.51
879.58	227.49
879.89	227.49
880.20	227.50
880.51	227.48
880.82	227.52
881.12	227.53
881.43	227.52
881.74	227.51
882.05	227.50
882.36	227.55
882.67	227.58
882.97	227.44
883.28	227.45
883.59	227.43
883.90	227.46
884.21	227.45
884.51	227.42
884.82	227.44
885.13	227.45
885.44	227.46
885.74	227.45
886.05	227.46
886.36	227.47
886.67	227.45
886.98	227.52
887.28	227.49
887.59	227.52
887.90	227.51
888.20	227.50
888.51	227.54
888.82	227.53
889.13	227.50
889.43	227.56
889.74	227.53
890.05	227.52
890.35	227.51
890.66	227.51
890.97	227.50
891.28	227.50
891.58	227.50
891.89	227.47
892.20	227.43
892.50	227.39
892.81	227.37
893.12	227.36
893.42	227.27
893.73	227.25
894.04	227.25
894.34	227.28
894.65	227.27
894.95	227.25
895.26	227.23
895.57	227.26
895.87	227.19
896.18	227.22
896.48	227.22
896.79	227.20
897.10	227.19
897.40	227.18
897.71	227.17
898.01	227.12
898.32	227.14
898.63	227.15
898.93	227.17
899.24	227.16
899.54	227.12
899.85	227.12
900.15	227.11
900.46	227.09
900.76	227.05
901.07	227.04
901.38	227.04
901.68	227.04
901.99	227.00
902.29	227.00
902.60	226.97
902.90	226.97
903.21	226.96
903.51	226.97
903.82	226.99
904.12	226.94
904.43	226.96
904.73	226.96
905.03	226.97
905.34	227.06
905.64	227.07
905.95	227.06
906.25	227.10
906.56	227.12
906.86	227.12
907.17	227.13
907.47	227.14
907.77	227.12
908.08	227.11
908.38	227.11
908.69	227.15
908.99	227.17
909.30	227.16
909.60	227.18
909.90	227.19
910.21	227.18
910.51	227.21
910.81	227.23
911.12	227.25
911.42	227.28
911.73	227.19
912.03	227.21
912.33	227.24
912.64	227.24
912.94	227.22
913.24	227.21
913.55	227.20
913.85	227.19
914.15	227.22
914.46	227.24
914.76	227.26
915.06	227.24
915.37	227.25
915.67	227.28
915.97	227.32
916.27	227.28
916.58	227.29
916.88	227.27
917.18	227.23
917.49	227.30
917.79	227.28
918.09	227.29
918.39	227.29
918.70	227.33
919.00	227.31
919.30	227.34
919.60	227.34
919.91	227.35
920.21	227.35
920.51	227.31
920.81	227.29
921.12	227.26
921.42	227.24
921.72	227.23
922.02	227.20
922.32	227.20
922.63	227.20
922.93	227.25
923.23	227.27
923.53	227.27
923.83	227.21
924.13	227.17
924.44	227.17
924.74	227.17
925.04	227.15
925.34	227.15
925.64	227.12
925.94	227.14
926.24	227.17
926.55	227.13
926.85	227.16
927.15	227.17
927.45	227.21
927.75	227.21
928.05	227.22
928.35	227.21
928.65	227.20
928.95	227.17
929.26	227.12
929.56	227.11
929.86	227.11
930.16	227.05
930.46	227.05
930.76	227.03
931.06	227.00
931.36	226.96
931.66	226.98
931.96	226.98
932.26	226.94
932.56	226.88
932.86	226.93
933.16	226.93
933.46	226.89
933.76	226.85
934.06	226.87
934.36	226.87
934.66	226.84
934.96	226.82
935.26	226.84
935.56	226.84
935.86	226.80
936.16	226.79
936.46	226.81
936.76	226.82
937.06	226.79
937.36	226.78
937.66	226.81
937.96	226.79
938.26	226.76
938.56	226.78
938.86	226.80
939.16	226.76
939.46	226.76
939.76	226.78
940.06	226.78
940.35	226.76
940.65	226.73
940.95	226.77
941.25	226.75
941.55	226.74
941.85	226.75
942.15	226.76
942.45	226.81
942.75	226.82
943.04	226.82
943.34	226.84
943.64	226.85
943.94	226.82
944.24	226.82
944.54	226.85
944.84	226.85
945.13	226.85
945.43	226.89
945.73	226.88
946.03	226.90
946.33	226.88
946.62	226.89
946.92	226.90
947.22	226.92
947.52	226.95
947.82	226.99
948.11	227.02
948.41	227.06
948.71	227.02
949.01	227.03
949.31	227.02
949.60	227.01
949.90	227.03
950.20	227.07
950.50	227.09
950.79	227.12
951.09	227.13
951.39	227.12
951.69	227.11
951.98	227.15
952.28	227.16
952.58	227.17
952.87	227.16
953.17	227.19
953.47	227.17
953.76	227.14
954.06	227.11
954.36	227.03
954.66	227.04
954.95	227.06
955.25	227.07
955.55	227.11
955.84	227.14
956.14	227.16
956.44	227.13
956.73	227.09
957.03	227.05
957.32	227.05
957.62	227.07
957.92	227.07
958.21	227.04
958.51	227.15
958.81	227.17
959.10	227.17
959.40	227.17
959.69	227.21
959.99	227.23
960.29	227.21
960.58	227.24
960.88	227.26
961.17	227.23
961.47	227.22
961.76	227.18
962.06	227.19
962.36	227.14
962.65	227.17
962.95	227.14
963.24	227.13
963.54	227.12
963.83	227.12
964.13	227.09
964.42	227.06
964.72	226.96
965.01	226.96
965.31	226.95
965.60	226.92
965.90	226.92
966.19	226.87
966.49	226.89
966.78	226.87
967.08	226.82
967.37	226.81
967.67	226.81
967.96	226.82
968.26	226.78
968.55	226.78
968.85	226.74
969.14	226.78
969.43	226.77
969.73	226.74
970.02	226.68
970.32	226.67
970.61	226.66
970.91	226.61
971.20	226.59
971.49	226.57
971.79	226.56
972.08	226.51
972.38	226.50
972.67	226.50
972.96	226.52
973.26	226.52
973.55	226.54
973.85	226.55
974.14	226.53
974.43	226.54
974.73	226.51
975.02	226.52
975.31	226.50
975.61	226.49
975.90	226.49
976.19	226.53
976.49	226.54
976.78	226.54
977.07	226.57
977.37	226.57
977.66	226.58
977.95	226.56
978.24	226.58
978.54	226.62
978.83	226.58
979.12	226.56
979.42	226.56
979.71	226.53
980.00	226.50
980.29	226.51
980.59	226.52
980.88	226.57
981.17	226.59
981.46	226.59
981.76	226.61
982.05	226.66
982.34	226.65
982.63	226.66
982.93	226.69
983.22	226.72
983.51	226.75
983.80	226.78
984.09	226.83
984.39	226.82
984.68	226.84
984.97	226.86
985.26	226.88
985.55	226.91
985.85	226.93
986.14	226.99
986.43	227.00
986.72	226.99
987.01	226.99
987.30	227.00
987.59	226.98
987.89	226.96
988.18	226.95
988.47	226.99
988.76	226.99
989.05	227.00
989.34	227.00
989.63	227.02
989.92	227.02
990.22	226.99
990.51	227.02
990.80	226.99
991.09	227.02
991.38	227.03
991.67	227.02
991.96	227.01
992.25	226.99
992.54	226.99
992.83	226.98
993.12	226.96
993.41	226.94
993.70	227.00
993.99	227.04
994.28	227.05
994.58	227.07
994.87	227.06
995.16	227.04
995.45	227.04
995.74	227.04
996.03	227.05
996.32	227.10
996.61	227.13
996.90	227.14
997.19	227.16
997.48	227.17
997.77	227.17
998.06	227.20
998.34	227.17
998.63	227.18
998.92	227.19
999.21	227.22
999.50	227.22
999.79	227.20
1000.08	227.19
1000.37	227.17
1000.66	227.14
1000.95	227.15
1001.24	227.13
1001.53	227.13
1001.82	227.09
1002.11	227.04
1002.40	227.00
1002.68	226.99
1002.97	227.03
1003.26	227.01
1003.55	226.95
1003.84	226.95
1004.13	226.93
1004.42	226.95
1004.71	226.91
1004.99	226.91
1005.28	226.89
1005.57	226.91
1005.86	226.87
1006.15	226.87
1006.44	226.87
1006.72	226.88
1007.01	226.88
1007.30	226.90
1007.59	226.85
1007.88	226.84
1008.17	226.85
1008.45	226.85
1008.74	226.79
1009.03	226.75
1009.32	226.74
1009.60	226.76
1009.89	226.77
1010.18	226.73
1010.47	226.72
1010.76	226.75
1011.04	226.76
1011.33	226.75
1011.62	226.74
1011.91	226.76
1012.19	226.79
1012.48	226.78
1012.77	226.74
1013.05	226.74
1013.34	226.73
1013.63	226.76
1013.92	226.76
1014.20	226.77
1014.49	226.79
1014.78	226.81
1015.06	226.80
1015.35	226.79
1015.64	226.82
1015.92	226.81
1016.21	226.82
1016.50	226.84
1016.78	226.84
1017.07	226.84
1017.36	226.86
1017.64	226.84
1017.93	226.85
1018.22	226.81
1018.50	226.81
1018.79	226.83
1019.08	226.84
1019.36	226.81
1019.65	226.82
1019.93	226.88
1020.22	226.89
1020.51	226.93
1020.79	226.92
1021.08	226.64
1021.36	226.45
1021.65	226.78
1021.94	227.14
1022.22	226.43
1022.51	226.93
1022.79	228.02
1023.08	226.94
1023.36	228.03
1023.65	226.54
>>>>>End Processed Spectral Data<<<<<
