SpectraSuite Data File
++++++++++++++++++++++++++++++++++++
Date: Fri Feb 01 16:17:12 EST 2013
User: group
Dark Spectrum Present: No
Reference Spectrum Present: No
Number of Sampled Component Spectra: 1
Spectrometers: USB2E7196
Integration Time (usec): 35000 (USB2E7196)
Spectra Averaged: 100 (USB2E7196)
Boxcar Smoothing: 10 (USB2E7196)
Correct for Electrical Dark: No (USB2E7196)
Strobe/Lamp Enabled: No (USB2E7196)
Correct for Detector Non-linearity: No (USB2E7196)
Correct for Stray Light: No (USB2E7196)
Number of Pixels in Processed Spectrum: 2048
>>>>>Begin Processed Spectral Data<<<<<
339.09	0.00
339.48	213.78
339.86	215.59
340.24	216.66
340.63	218.13
341.01	221.30
341.39	220.96
341.78	222.05
342.16	222.98
342.54	224.00
342.93	212.34
343.31	223.07
343.69	223.62
344.07	224.08
344.46	224.52
344.84	224.93
345.22	225.15
345.60	225.39
345.99	225.58
346.37	225.75
346.75	225.83
347.13	225.91
347.52	225.97
347.90	226.01
348.28	226.05
348.66	226.09
349.05	226.08
349.43	226.15
349.81	226.22
350.19	226.29
350.57	226.33
350.96	226.41
351.34	226.47
351.72	226.54
352.10	226.63
352.48	226.70
352.87	226.73
353.25	226.79
353.63	226.85
354.01	226.95
354.39	227.02
354.77	227.10
355.15	227.18
355.54	227.27
355.92	227.34
356.30	227.41
356.68	227.53
357.06	227.61
357.44	227.64
357.82	227.70
358.20	227.74
358.58	227.79
358.97	227.85
359.35	227.91
359.73	227.99
360.11	228.01
360.49	228.05
360.87	228.08
361.25	228.15
361.63	228.23
362.01	228.24
362.39	228.27
362.77	228.30
363.15	228.33
363.53	228.32
363.91	228.34
364.29	228.40
364.67	228.31
365.05	228.33
365.43	228.37
365.81	228.36
366.19	228.42
366.57	228.46
366.95	228.43
367.33	228.43
367.71	228.42
368.09	228.47
368.47	228.46
368.85	228.46
369.23	228.43
369.61	228.38
369.99	228.37
370.37	228.33
370.75	228.33
371.13	228.28
371.51	228.24
371.89	228.18
372.27	228.11
372.65	228.07
373.03	228.03
373.41	227.97
373.78	227.92
374.16	227.81
374.54	227.72
374.92	227.63
375.30	227.59
375.68	227.48
376.06	227.40
376.44	227.32
376.82	227.25
377.19	227.21
377.57	227.12
377.95	227.06
378.33	226.97
378.71	226.86
379.09	226.78
379.47	226.72
379.84	226.67
380.22	226.61
380.60	226.55
380.98	226.48
381.36	226.43
381.73	226.37
382.11	226.33
382.49	226.29
382.87	226.24
383.25	226.15
383.62	226.24
384.00	226.18
384.38	226.15
384.76	226.10
385.13	226.05
385.51	226.04
385.89	225.97
386.27	225.96
386.64	225.94
387.02	225.92
387.40	225.89
387.78	225.87
388.15	225.85
388.53	225.81
388.91	225.78
389.29	225.73
389.66	225.73
390.04	225.67
390.42	225.64
390.79	225.62
391.17	225.63
391.55	225.48
391.92	225.49
392.30	225.52
392.68	225.51
393.05	225.51
393.43	225.51
393.81	225.53
394.18	225.53
394.56	225.54
394.94	225.56
395.31	225.58
395.69	225.61
396.06	225.64
396.44	225.66
396.82	225.67
397.19	225.75
397.57	225.75
397.95	225.83
398.32	225.83
398.70	225.92
399.07	225.98
399.45	226.06
399.82	226.07
400.20	226.08
400.58	226.17
400.95	226.21
401.33	226.31
401.70	226.45
402.08	226.53
402.45	226.63
402.83	226.75
403.20	226.85
403.58	226.95
403.95	227.09
404.33	227.22
404.71	227.37
405.08	227.54
405.46	227.70
405.83	227.84
406.21	228.01
406.58	228.17
406.96	228.33
407.33	228.51
407.70	228.76
408.08	229.07
408.45	229.28
408.83	229.49
409.20	229.69
409.58	229.87
409.95	230.12
410.33	230.37
410.70	230.61
411.08	230.95
411.45	231.25
411.82	231.55
412.20	231.91
412.57	232.32
412.95	232.59
413.32	233.00
413.69	233.40
414.07	233.84
414.44	234.30
414.82	234.79
415.19	235.33
415.56	235.88
415.94	236.40
416.31	237.02
416.68	237.65
417.06	238.41
417.43	239.08
417.81	239.87
418.18	240.67
418.55	241.50
418.93	242.34
419.30	243.22
419.67	244.14
420.04	245.13
420.42	246.08
420.79	247.29
421.16	248.44
421.54	249.66
421.91	250.91
422.28	252.15
422.66	253.48
423.03	254.80
423.40	256.12
423.77	257.54
424.15	258.98
424.52	260.45
424.89	262.04
425.26	263.59
425.64	265.01
426.01	266.63
426.38	268.31
426.75	269.97
427.13	271.69
427.50	273.53
427.87	275.38
428.24	277.25
428.61	278.96
428.99	280.91
429.36	282.97
429.73	285.00
430.10	287.04
430.47	289.08
430.85	291.21
431.22	293.40
431.59	295.75
431.96	298.00
432.33	300.49
432.70	302.89
433.08	305.65
433.45	308.30
433.82	310.88
434.19	313.74
434.56	316.58
434.93	319.25
435.30	321.83
435.68	324.67
436.05	327.53
436.42	330.37
436.79	332.88
437.16	335.54
437.53	338.38
437.90	341.15
438.27	343.92
438.64	346.71
439.01	349.32
439.38	351.58
439.75	353.72
440.13	356.19
440.50	358.50
440.87	360.41
441.24	362.34
441.61	364.52
441.98	366.00
442.35	367.77
442.72	369.61
443.09	371.47
443.46	372.51
443.83	373.07
444.20	373.56
444.57	374.40
444.94	374.71
445.31	375.02
445.68	375.40
446.05	375.44
446.42	375.05
446.79	374.65
447.16	374.20
447.53	373.91
447.90	372.75
448.27	371.58
448.64	369.96
449.01	368.83
449.37	366.85
449.74	364.96
450.11	362.70
450.48	360.22
450.85	357.61
451.22	355.47
451.59	353.45
451.96	351.49
452.33	348.90
452.70	346.54
453.07	343.79
453.43	340.86
453.80	338.09
454.17	335.44
454.54	332.88
454.91	330.12
455.28	327.42
455.65	324.94
456.02	322.46
456.38	320.34
456.75	317.65
457.12	315.35
457.49	313.12
457.86	310.98
458.23	309.14
458.59	307.12
458.96	305.04
459.33	303.18
459.70	301.30
460.07	299.79
460.43	298.07
460.80	296.41
461.17	294.99
461.54	293.52
461.91	292.10
462.27	290.65
462.64	289.43
463.01	288.07
463.38	286.80
463.74	285.44
464.11	284.26
464.48	283.28
464.85	282.19
465.21	281.34
465.58	280.39
465.95	279.27
466.32	278.39
466.68	277.45
467.05	276.56
467.42	275.69
467.78	274.76
468.15	273.86
468.52	273.17
468.88	272.32
469.25	271.56
469.62	270.93
469.98	270.28
470.35	269.66
470.72	269.09
471.08	268.47
471.45	267.98
471.82	267.45
472.18	266.87
472.55	266.47
472.92	265.94
473.28	265.55
473.65	265.09
474.02	264.64
474.38	264.32
474.75	263.99
475.11	263.65
475.48	263.40
475.85	263.19
476.21	263.00
476.58	262.81
476.94	262.69
477.31	262.54
477.67	262.42
478.04	262.28
478.41	262.26
478.77	262.26
479.14	262.18
479.50	262.19
479.87	262.27
480.23	262.33
480.60	262.41
480.96	262.46
481.33	262.72
481.69	262.96
482.06	263.12
482.42	263.34
482.79	263.60
483.15	263.94
483.52	264.34
483.88	264.70
484.25	265.09
484.61	265.50
484.98	265.96
485.34	266.52
485.71	267.14
486.07	267.72
486.44	268.33
486.80	269.04
487.17	269.79
487.53	270.57
487.90	271.42
488.26	272.37
488.62	273.37
488.99	274.36
489.35	275.39
489.72	276.55
490.08	277.73
490.44	278.98
490.81	280.31
491.17	281.69
491.54	283.14
491.90	284.68
492.26	286.34
492.63	288.08
492.99	289.84
493.36	291.77
493.72	293.83
494.08	295.95
494.45	298.20
494.81	300.59
495.17	303.01
495.54	305.59
495.90	308.29
496.26	311.11
496.63	314.08
496.99	317.19
497.35	320.44
497.72	323.84
498.08	327.35
498.44	331.06
498.80	334.97
499.17	339.00
499.53	343.19
499.89	347.54
500.26	352.06
500.62	356.73
500.98	361.71
501.34	366.77
501.71	372.08
502.07	377.53
502.43	383.11
502.79	388.98
503.16	395.01
503.52	401.28
503.88	407.67
504.24	414.29
504.60	421.19
504.97	428.34
505.33	435.75
505.69	443.50
506.05	451.24
506.41	459.12
506.78	467.31
507.14	475.79
507.50	484.50
507.86	493.49
508.22	502.69
508.59	511.86
508.95	521.44
509.31	531.23
509.67	541.34
510.03	551.74
510.39	562.31
510.75	573.18
511.12	584.09
511.48	595.44
511.84	606.86
512.20	618.35
512.56	630.27
512.92	642.47
513.28	654.77
513.64	667.32
514.00	680.02
514.37	693.01
514.73	706.01
515.09	719.10
515.45	732.44
515.81	745.97
516.17	759.96
516.53	774.11
516.89	788.28
517.25	802.50
517.61	816.78
517.97	831.17
518.33	845.54
518.69	860.29
519.05	875.20
519.41	890.41
519.77	905.89
520.13	921.29
520.49	936.51
520.85	951.86
521.21	967.49
521.57	983.77
521.93	999.41
522.29	1015.82
522.65	1031.99
523.01	1048.14
523.37	1064.21
523.73	1080.38
524.09	1096.42
524.45	1112.70
524.81	1129.26
525.17	1146.05
525.53	1162.93
525.89	1179.79
526.25	1196.62
526.61	1212.96
526.97	1229.57
527.33	1246.05
527.68	1262.68
528.04	1279.22
528.40	1295.76
528.76	1312.80
529.12	1329.25
529.48	1346.08
529.84	1362.01
530.20	1378.73
530.56	1395.72
530.91	1413.13
531.27	1429.88
531.63	1446.23
531.99	1462.71
532.35	1478.55
532.71	1494.37
533.07	1510.56
533.42	1526.39
533.78	1542.38
534.14	1558.60
534.50	1573.99
534.86	1589.80
535.21	1604.88
535.57	1620.75
535.93	1636.22
536.29	1650.92
536.65	1666.00
537.00	1680.77
537.36	1696.09
537.72	1710.47
538.08	1724.80
538.44	1738.42
538.79	1752.13
539.15	1765.73
539.51	1779.46
539.87	1793.77
540.22	1807.42
540.58	1821.17
540.94	1834.40
541.29	1847.17
541.65	1859.82
542.01	1872.94
542.37	1885.22
542.72	1897.65
543.08	1909.30
543.44	1921.54
543.79	1932.76
544.15	1943.61
544.51	1955.11
544.87	1965.88
545.22	1976.64
545.58	1986.88
545.94	1996.63
546.29	2006.46
546.65	2016.36
547.01	2025.50
547.36	2034.09
547.72	2042.59
548.07	2050.32
548.43	2058.52
548.79	2066.62
549.14	2074.05
549.50	2081.31
549.86	2088.87
550.21	2096.12
550.57	2103.21
550.92	2109.77
551.28	2116.70
551.64	2123.74
551.99	2130.30
552.35	2136.56
552.70	2142.73
553.06	2148.58
553.41	2154.98
553.77	2160.89
554.13	2166.89
554.48	2173.03
554.84	2178.56
555.19	2183.89
555.55	2189.07
555.90	2193.41
556.26	2198.24
556.61	2203.08
556.97	2207.42
557.32	2211.58
557.68	2215.63
558.03	2219.99
558.39	2223.80
558.74	2228.55
559.10	2232.43
559.45	2235.99
559.81	2240.25
560.16	2244.06
560.52	2247.21
560.87	2250.40
561.23	2253.27
561.58	2256.31
561.94	2258.90
562.29	2261.15
562.64	2263.82
563.00	2266.43
563.35	2269.94
563.71	2273.06
564.06	2276.18
564.42	2279.08
564.77	2281.57
565.12	2283.90
565.48	2285.83
565.83	2287.84
566.19	2288.97
566.54	2289.90
566.89	2291.10
567.25	2291.77
567.60	2292.99
567.96	2294.81
568.31	2295.76
568.66	2296.85
569.02	2297.22
569.37	2297.50
569.72	2298.54
570.08	2298.73
570.43	2298.73
570.78	2298.26
571.14	2296.72
571.49	2295.55
571.84	2295.24
572.20	2294.25
572.55	2293.20
572.90	2291.69
573.26	2290.08
573.61	2288.46
573.96	2286.83
574.31	2283.92
574.67	2280.91
575.02	2277.45
575.37	2274.17
575.72	2270.57
576.08	2267.18
576.43	2264.05
576.78	2260.56
577.13	2257.46
577.49	2254.17
577.84	2250.73
578.19	2247.13
578.54	2243.60
578.90	2239.36
579.25	2233.77
579.60	2228.77
579.95	2223.75
580.30	2218.77
580.66	2213.72
581.01	2209.00
581.36	2204.11
581.71	2199.86
582.06	2195.46
582.42	2191.06
582.77	2185.86
583.12	2181.11
583.47	2176.51
583.82	2171.63
584.17	2166.43
584.53	2160.92
584.88	2155.43
585.23	2149.68
585.58	2144.21
585.93	2138.74
586.28	2133.95
586.63	2128.98
586.98	2123.96
587.34	2119.36
587.69	2114.40
588.04	2109.24
588.39	2103.55
588.74	2097.04
589.09	2090.95
589.44	2084.24
589.79	2078.12
590.14	2072.42
590.49	2065.99
590.84	2059.57
591.19	2053.49
591.54	2046.94
591.89	2039.60
592.25	2032.95
592.60	2025.70
592.95	2018.02
593.30	2010.73
593.65	2003.16
594.00	1996.13
594.35	1988.90
594.70	1981.00
595.05	1973.98
595.40	1966.78
595.75	1959.32
596.10	1953.20
596.45	1946.59
596.80	1940.36
597.15	1933.75
597.50	1926.76
597.85	1920.36
598.19	1913.78
598.54	1906.64
598.89	1900.11
599.24	1894.24
599.59	1887.47
599.94	1881.39
600.29	1875.24
600.64	1868.62
600.99	1861.14
601.34	1854.32
601.69	1847.38
602.04	1840.50
602.39	1833.17
602.74	1826.35
603.08	1819.52
603.43	1812.76
603.78	1805.36
604.13	1798.23
604.48	1790.96
604.83	1784.11
605.18	1777.11
605.53	1769.15
605.87	1761.31
606.22	1753.93
606.57	1746.01
606.92	1738.61
607.27	1731.60
607.62	1724.64
607.96	1717.34
608.31	1710.89
608.66	1703.30
609.01	1695.81
609.36	1688.24
609.70	1680.06
610.05	1671.98
610.40	1664.29
610.75	1656.04
611.10	1648.46
611.44	1639.99
611.79	1631.93
612.14	1623.26
612.49	1614.14
612.83	1605.78
613.18	1597.57
613.53	1589.64
613.88	1581.10
614.22	1572.85
614.57	1564.11
614.92	1556.13
615.27	1548.78
615.61	1540.37
615.96	1532.22
616.31	1524.55
616.65	1517.21
617.00	1509.72
617.35	1502.02
617.70	1493.75
618.04	1485.17
618.39	1476.91
618.74	1469.29
619.08	1461.04
619.43	1453.36
619.78	1446.49
620.12	1439.29
620.47	1431.80
620.82	1423.57
621.16	1416.09
621.51	1408.54
621.85	1400.96
622.20	1392.34
622.55	1383.85
622.89	1376.07
623.24	1368.62
623.59	1361.16
623.93	1353.52
624.28	1346.31
624.62	1338.73
624.97	1331.55
625.32	1324.81
625.66	1317.80
626.01	1310.68
626.35	1303.22
626.70	1295.50
627.04	1287.76
627.39	1280.00
627.73	1272.56
628.08	1265.73
628.43	1258.47
628.77	1251.14
629.12	1243.56
629.46	1236.48
629.81	1228.99
630.15	1221.83
630.50	1214.35
630.84	1206.16
631.19	1198.17
631.53	1190.61
631.88	1183.12
632.22	1175.46
632.57	1168.13
632.91	1160.55
633.26	1153.07
633.60	1145.67
633.95	1138.59
634.29	1131.44
634.64	1124.70
634.98	1117.31
635.32	1110.08
635.67	1103.50
636.01	1096.87
636.36	1090.05
636.70	1083.38
637.05	1076.84
637.39	1070.29
637.73	1063.82
638.08	1057.99
638.42	1052.10
638.77	1045.73
639.11	1039.16
639.45	1032.75
639.80	1026.09
640.14	1019.77
640.49	1013.25
640.83	1007.02
641.17	1000.78
641.52	994.48
641.86	988.01
642.20	982.15
642.55	975.86
642.89	969.39
643.23	962.80
643.58	957.00
643.92	950.79
644.26	944.71
644.61	938.55
644.95	932.53
645.29	925.99
645.64	919.20
645.98	912.85
646.32	906.92
646.66	900.91
647.01	895.14
647.35	889.36
647.69	883.54
648.04	878.01
648.38	872.28
648.72	866.33
649.06	860.27
649.41	854.41
649.75	848.38
650.09	842.48
650.43	836.70
650.78	830.58
651.12	824.71
651.46	818.94
651.80	813.31
652.14	807.84
652.49	802.46
652.83	797.28
653.17	791.64
653.51	785.90
653.85	780.50
654.20	774.86
654.54	768.88
654.88	763.11
655.22	757.16
655.56	751.50
655.90	746.04
656.25	740.84
656.59	735.43
656.93	730.37
657.27	725.22
657.61	719.79
657.95	714.66
658.29	709.60
658.64	704.39
658.98	699.03
659.32	693.60
659.66	688.36
660.00	683.11
660.34	678.17
660.68	673.28
661.02	668.23
661.36	663.50
661.70	658.96
662.05	654.62
662.39	650.29
662.73	645.74
663.07	641.31
663.41	636.79
663.75	632.35
664.09	627.77
664.43	623.34
664.77	619.11
665.11	614.88
665.45	610.71
665.79	606.62
666.13	602.48
666.47	598.34
666.81	594.19
667.15	589.99
667.49	585.99
667.83	582.10
668.17	578.06
668.51	574.01
668.85	570.00
669.19	566.15
669.53	562.32
669.87	558.49
670.21	554.78
670.55	551.16
670.89	547.71
671.23	544.24
671.57	540.73
671.91	537.26
672.25	533.75
672.58	530.21
672.92	526.76
673.26	523.62
673.60	520.45
673.94	517.30
674.28	514.43
674.62	511.50
674.96	508.43
675.30	505.61
675.64	502.59
675.97	499.79
676.31	496.93
676.65	494.01
676.99	491.23
677.33	488.35
677.67	485.50
678.01	482.44
678.34	479.50
678.68	476.59
679.02	473.80
679.36	470.99
679.70	468.28
680.04	465.57
680.37	462.63
680.71	459.88
681.05	457.32
681.39	454.58
681.73	451.92
682.06	449.43
682.40	446.89
682.74	444.39
683.08	441.83
683.42	439.22
683.75	436.69
684.09	434.11
684.43	431.68
684.77	429.25
685.10	426.91
685.44	424.57
685.78	422.31
686.12	420.02
686.45	417.76
686.79	415.44
687.13	413.26
687.46	411.13
687.80	408.97
688.14	406.71
688.48	404.69
688.81	402.45
689.15	400.29
689.49	398.15
689.82	396.06
690.16	393.97
690.50	391.98
690.83	390.03
691.17	388.06
691.51	386.16
691.84	384.30
692.18	382.37
692.52	380.39
692.85	378.45
693.19	376.55
693.52	374.70
693.86	372.91
694.20	371.09
694.53	369.27
694.87	367.43
695.21	365.66
695.54	363.80
695.88	362.05
696.21	360.36
696.55	358.68
696.88	357.00
697.22	355.32
697.56	353.69
697.89	352.01
698.23	350.43
698.56	348.80
698.90	347.21
699.23	345.57
699.57	344.04
699.90	342.51
700.24	340.98
700.58	339.44
700.91	337.94
701.25	336.48
701.58	335.15
701.92	333.76
702.25	332.38
702.59	331.01
702.92	329.71
703.26	328.35
703.59	327.04
703.93	325.85
704.26	324.62
704.60	323.31
704.93	322.05
705.26	320.79
705.60	319.61
705.93	318.46
706.27	317.43
706.60	316.34
706.94	315.22
707.27	314.11
707.61	313.09
707.94	312.06
708.27	311.02
708.61	309.93
708.94	308.98
709.28	308.01
709.61	307.06
709.94	306.12
710.28	305.13
710.61	304.17
710.95	303.09
711.28	302.20
711.61	301.31
711.95	300.42
712.28	299.52
712.61	298.54
712.95	297.59
713.28	296.69
713.61	295.82
713.95	294.94
714.28	294.10
714.61	293.25
714.95	292.42
715.28	291.55
715.61	290.67
715.95	289.78
716.28	288.91
716.61	288.07
716.95	287.26
717.28	286.50
717.61	285.74
717.94	285.04
718.28	284.23
718.61	283.49
718.94	282.81
719.27	282.15
719.61	281.52
719.94	280.87
720.27	280.15
720.60	279.51
720.94	278.90
721.27	278.31
721.60	277.72
721.93	277.12
722.27	276.55
722.60	276.02
722.93	275.47
723.26	274.94
723.59	274.38
723.93	273.82
724.26	273.26
724.59	272.70
724.92	272.16
725.25	271.69
725.59	271.18
725.92	270.64
726.25	270.12
726.58	269.59
726.91	269.11
727.24	268.61
727.57	268.12
727.91	267.58
728.24	267.11
728.57	266.60
728.90	266.13
729.23	265.63
729.56	265.20
729.89	264.70
730.22	264.17
730.55	263.70
730.89	263.25
731.22	262.80
731.55	262.35
731.88	261.92
732.21	261.45
732.54	261.00
732.87	260.60
733.20	260.18
733.53	259.84
733.86	259.43
734.19	259.04
734.52	258.67
734.85	258.40
735.18	257.95
735.51	257.61
735.84	257.24
736.17	256.86
736.50	256.44
736.83	256.19
737.16	255.87
737.49	255.55
737.82	255.19
738.15	254.85
738.48	254.51
738.81	254.15
739.14	253.81
739.47	253.48
739.80	253.17
740.13	252.85
740.46	252.49
740.79	252.19
741.12	251.88
741.45	251.58
741.78	251.17
742.11	250.93
742.44	250.56
742.77	250.27
743.10	249.99
743.43	249.68
743.75	249.28
744.08	249.13
744.41	248.85
744.74	248.55
745.07	248.26
745.40	248.00
745.73	247.75
746.06	247.45
746.39	247.19
746.71	246.91
747.04	246.62
747.37	246.35
747.70	246.10
748.03	245.86
748.36	245.61
748.68	245.39
749.01	245.13
749.34	244.93
749.67	244.66
750.00	244.45
750.33	244.31
750.65	244.12
750.98	243.78
751.31	243.58
751.64	243.41
751.97	243.30
752.29	243.08
752.62	242.86
752.95	242.71
753.28	242.51
753.60	242.30
753.93	242.14
754.26	241.95
754.59	241.72
754.91	241.53
755.24	241.31
755.57	241.13
755.90	240.97
756.22	240.77
756.55	240.62
756.88	240.44
757.20	240.20
757.53	240.00
757.86	239.85
758.19	239.67
758.51	239.50
758.84	239.25
759.17	239.10
759.49	238.93
759.82	238.79
760.15	238.65
760.47	238.53
760.80	238.39
761.13	238.24
761.45	238.09
761.78	237.94
762.11	237.84
762.43	237.67
762.76	237.54
763.08	237.42
763.41	237.28
763.74	237.15
764.06	237.01
764.39	236.88
764.71	236.72
765.04	236.60
765.37	236.45
765.69	236.34
766.02	236.20
766.34	236.10
766.67	235.95
767.00	235.85
767.32	235.78
767.65	235.71
767.97	235.61
768.30	235.52
768.62	235.41
768.95	235.26
769.27	235.15
769.60	235.02
769.92	234.90
770.25	234.79
770.57	234.66
770.90	234.54
771.22	234.45
771.55	234.35
771.87	234.24
772.20	234.15
772.52	234.14
772.85	234.17
773.17	234.08
773.50	234.00
773.82	233.91
774.15	233.74
774.47	233.59
774.80	233.49
775.12	233.36
775.45	233.28
775.77	233.21
776.09	233.15
776.42	233.06
776.74	233.01
777.07	232.91
777.39	232.82
777.72	232.73
778.04	232.63
778.36	232.54
778.69	232.46
779.01	232.41
779.33	232.24
779.66	232.06
779.98	231.95
780.31	231.87
780.63	231.82
780.95	231.80
781.28	231.74
781.60	231.66
781.92	231.59
782.25	231.55
782.57	231.48
782.89	231.41
783.22	231.31
783.54	231.19
783.86	231.14
784.19	231.10
784.51	231.09
784.83	231.05
785.16	231.01
785.48	230.92
785.80	230.84
786.12	230.79
786.45	230.74
786.77	230.70
787.09	230.64
787.42	230.56
787.74	230.49
788.06	230.44
788.38	230.42
788.71	230.40
789.03	230.33
789.35	230.32
789.67	230.23
789.99	230.23
790.32	230.22
790.64	230.21
790.96	230.22
791.28	230.17
791.61	230.10
791.93	230.08
792.25	230.08
792.57	230.13
792.89	230.09
793.21	230.04
793.54	230.01
793.86	229.98
794.18	229.99
794.50	229.91
794.82	229.90
795.14	229.86
795.47	229.82
795.79	229.80
796.11	229.75
796.43	229.74
796.75	229.71
797.07	229.66
797.39	229.65
797.71	229.57
798.04	229.51
798.36	229.52
798.68	229.48
799.00	229.47
799.32	229.42
799.64	229.39
799.96	229.36
800.28	229.35
800.60	229.30
800.92	229.28
801.24	229.29
801.56	229.26
801.89	229.23
802.21	229.24
802.53	229.20
802.85	229.17
803.17	229.20
803.49	229.18
803.81	229.15
804.13	229.08
804.45	229.07
804.77	229.07
805.09	229.05
805.41	229.01
805.73	228.96
806.05	228.90
806.37	228.90
806.69	228.91
807.01	228.90
807.33	228.90
807.65	228.81
807.97	228.83
808.28	228.78
808.60	228.75
808.92	228.70
809.24	228.75
809.56	228.72
809.88	228.67
810.20	228.65
810.52	228.66
810.84	228.63
811.16	228.61
811.48	228.53
811.80	228.54
812.12	228.52
812.43	228.50
812.75	228.49
813.07	228.43
813.39	228.40
813.71	228.33
814.03	228.33
814.35	228.34
814.67	228.27
814.98	228.22
815.30	228.21
815.62	228.19
815.94	228.10
816.26	228.12
816.58	228.08
816.89	228.06
817.21	228.04
817.53	228.03
817.85	227.97
818.17	227.97
818.48	227.93
818.80	227.92
819.12	227.90
819.44	227.88
819.76	227.89
820.07	227.87
820.39	227.87
820.71	227.84
821.03	227.79
821.34	227.74
821.66	227.75
821.98	227.73
822.30	227.68
822.61	227.71
822.93	227.64
823.25	227.62
823.57	227.59
823.88	227.59
824.20	227.58
824.52	227.60
824.83	227.60
825.15	227.56
825.47	227.55
825.79	227.55
826.10	227.55
826.42	227.48
826.74	227.51
827.05	227.51
827.37	227.53
827.69	227.51
828.00	227.56
828.32	227.55
828.64	227.56
828.95	227.64
829.27	227.63
829.58	227.61
829.90	227.64
830.22	227.66
830.53	227.60
830.85	227.59
831.17	227.54
831.48	227.51
831.80	227.47
832.11	227.45
832.43	227.41
832.75	227.38
833.06	227.43
833.38	227.34
833.69	227.28
834.01	227.24
834.32	227.22
834.64	227.18
834.96	227.14
835.27	227.13
835.59	227.06
835.90	227.02
836.22	227.03
836.53	226.96
836.85	226.96
837.16	227.06
837.48	227.07
837.79	227.12
838.11	227.11
838.42	227.14
838.74	227.13
839.05	227.13
839.37	227.11
839.68	227.04
840.00	227.03
840.31	227.06
840.63	227.04
840.94	227.05
841.26	227.00
841.57	227.00
841.88	226.99
842.20	226.96
842.51	226.94
842.83	226.88
843.14	226.99
843.46	226.93
843.77	226.89
844.08	226.86
844.40	226.80
844.71	226.76
845.03	226.76
845.34	226.76
845.65	226.74
845.97	226.73
846.28	226.74
846.60	226.74
846.91	226.73
847.22	226.71
847.54	226.68
847.85	226.70
848.16	226.70
848.48	226.71
848.79	226.74
849.10	226.74
849.42	226.76
849.73	226.69
850.04	226.69
850.36	226.63
850.67	226.62
850.98	226.61
851.30	226.65
851.61	226.61
851.92	226.60
852.23	226.60
852.55	226.63
852.86	226.63
853.17	226.65
853.49	226.65
853.80	226.69
854.11	226.71
854.42	226.72
854.74	226.67
855.05	226.62
855.36	226.62
855.67	226.61
855.99	226.64
856.30	226.71
856.61	226.73
856.92	226.73
857.23	226.73
857.55	226.72
857.86	226.71
858.17	226.74
858.48	226.74
858.79	226.73
859.11	226.69
859.42	226.71
859.73	226.69
860.04	226.70
860.35	226.70
860.66	226.69
860.98	226.66
861.29	226.70
861.60	226.70
861.91	226.68
862.22	226.67
862.53	226.64
862.84	226.54
863.16	226.56
863.47	226.53
863.78	226.53
864.09	226.55
864.40	226.57
864.71	226.56
865.02	226.56
865.33	226.55
865.64	226.56
865.95	226.53
866.27	226.59
866.58	226.60
866.89	226.57
867.20	226.60
867.51	226.60
867.82	226.59
868.13	226.64
868.44	226.62
868.75	226.66
869.06	226.65
869.37	226.69
869.68	226.64
869.99	226.68
870.30	226.69
870.61	226.69
870.92	226.69
871.23	226.70
871.54	226.70
871.85	226.74
872.16	226.75
872.47	226.76
872.78	226.72
873.09	226.71
873.40	226.69
873.71	226.68
874.02	226.73
874.33	226.72
874.64	226.68
874.95	226.68
875.26	226.65
875.56	226.66
875.87	226.65
876.18	226.66
876.49	226.73
876.80	226.72
877.11	226.72
877.42	226.70
877.73	226.65
878.04	226.65
878.35	226.64
878.66	226.68
878.96	226.68
879.27	226.63
879.58	226.63
879.89	226.62
880.20	226.63
880.51	226.55
880.82	226.57
881.12	226.55
881.43	226.54
881.74	226.53
882.05	226.51
882.36	226.50
882.67	226.48
882.97	226.39
883.28	226.36
883.59	226.36
883.90	226.39
884.21	226.38
884.51	226.37
884.82	226.39
885.13	226.35
885.44	226.32
885.74	226.34
886.05	226.30
886.36	226.30
886.67	226.28
886.98	226.41
887.28	226.42
887.59	226.40
887.90	226.41
888.20	226.43
888.51	226.43
888.82	226.41
889.13	226.41
889.43	226.48
889.74	226.48
890.05	226.42
890.35	226.41
890.66	226.43
890.97	226.43
891.28	226.37
891.58	226.36
891.89	226.35
892.20	226.36
892.50	226.39
892.81	226.41
893.12	226.39
893.42	226.31
893.73	226.30
894.04	226.32
894.34	226.30
894.65	226.24
894.95	226.24
895.26	226.25
895.57	226.30
895.87	226.21
896.18	226.24
896.48	226.27
896.79	226.25
897.10	226.25
897.40	226.26
897.71	226.27
898.01	226.27
898.32	226.29
898.63	226.26
898.93	226.26
899.24	226.22
899.54	226.22
899.85	226.22
900.15	226.21
900.46	226.23
900.76	226.27
901.07	226.35
901.38	226.34
901.68	226.36
901.99	226.31
902.29	226.34
902.60	226.34
902.90	226.36
903.21	226.36
903.51	226.35
903.82	226.35
904.12	226.36
904.43	226.34
904.73	226.30
905.03	226.33
905.34	226.38
905.64	226.39
905.95	226.40
906.25	226.39
906.56	226.41
906.86	226.39
907.17	226.34
907.47	226.30
907.77	226.29
908.08	226.27
908.38	226.28
908.69	226.24
908.99	226.26
909.30	226.23
909.60	226.22
909.90	226.21
910.21	226.19
910.51	226.20
910.81	226.24
911.12	226.28
911.42	226.27
911.73	226.19
912.03	226.20
912.33	226.19
912.64	226.19
912.94	226.18
913.24	226.18
913.55	226.21
913.85	226.20
914.15	226.21
914.46	226.19
914.76	226.18
915.06	226.20
915.37	226.15
915.67	226.17
915.97	226.15
916.27	226.17
916.58	226.17
916.88	226.15
917.18	226.13
917.49	226.19
917.79	226.21
918.09	226.22
918.39	226.25
918.70	226.26
919.00	226.27
919.30	226.29
919.60	226.30
919.91	226.29
920.21	226.32
920.51	226.30
920.81	226.30
921.12	226.28
921.42	226.29
921.72	226.32
922.02	226.32
922.32	226.33
922.63	226.32
922.93	226.37
923.23	226.37
923.53	226.33
923.83	226.26
924.13	226.25
924.44	226.28
924.74	226.30
925.04	226.34
925.34	226.32
925.64	226.27
925.94	226.25
926.24	226.28
926.55	226.26
926.85	226.29
927.15	226.30
927.45	226.30
927.75	226.30
928.05	226.29
928.35	226.26
928.65	226.29
928.95	226.32
929.26	226.28
929.56	226.32
929.86	226.35
930.16	226.32
930.46	226.33
930.76	226.32
931.06	226.27
931.36	226.24
931.66	226.27
931.96	226.31
932.26	226.31
932.56	226.30
932.86	226.28
933.16	226.26
933.46	226.26
933.76	226.25
934.06	226.27
934.36	226.30
934.66	226.33
934.96	226.31
935.26	226.30
935.56	226.30
935.86	226.24
936.16	226.24
936.46	226.23
936.76	226.17
937.06	226.18
937.36	226.19
937.66	226.19
937.96	226.17
938.26	226.13
938.56	226.11
938.86	226.09
939.16	226.11
939.46	226.14
939.76	226.12
940.06	226.13
940.35	226.11
940.65	226.11
940.95	226.11
941.25	226.11
941.55	226.08
941.85	226.08
942.15	226.11
942.45	226.12
942.75	226.14
943.04	226.19
943.34	226.19
943.64	226.19
943.94	226.17
944.24	226.19
944.54	226.20
944.84	226.21
945.13	226.21
945.43	226.20
945.73	226.16
946.03	226.20
946.33	226.19
946.62	226.16
946.92	226.15
947.22	226.15
947.52	226.14
947.82	226.16
948.11	226.14
948.41	226.14
948.71	226.12
949.01	226.13
949.31	226.12
949.60	226.11
949.90	226.09
950.20	226.09
950.50	226.04
950.79	226.04
951.09	226.05
951.39	226.02
951.69	226.01
951.98	226.04
952.28	226.03
952.58	226.00
952.87	226.00
953.17	225.97
953.47	225.93
953.76	225.94
954.06	225.92
954.36	225.93
954.66	225.87
954.95	225.90
955.25	225.87
955.55	225.88
955.84	225.86
956.14	225.85
956.44	225.87
956.73	225.86
957.03	225.85
957.32	225.86
957.62	225.87
957.92	225.89
958.21	225.87
958.51	225.94
958.81	225.97
959.10	226.02
959.40	226.05
959.69	226.06
959.99	226.07
960.29	226.06
960.58	226.05
960.88	226.12
961.17	226.11
961.47	226.13
961.76	226.11
962.06	226.13
962.36	226.11
962.65	226.09
962.95	226.13
963.24	226.14
963.54	226.14
963.83	226.17
964.13	226.18
964.42	226.14
964.72	226.10
965.01	226.11
965.31	226.07
965.60	226.06
965.90	226.12
966.19	226.10
966.49	226.12
966.78	226.11
967.08	226.10
967.37	226.09
967.67	226.10
967.96	226.16
968.26	226.14
968.55	226.20
968.85	226.22
969.14	226.19
969.43	226.19
969.73	226.16
970.02	226.11
970.32	226.08
970.61	226.11
970.91	226.05
971.20	226.04
971.49	226.01
971.79	226.04
972.08	226.01
972.38	226.03
972.67	226.05
972.96	226.09
973.26	226.09
973.55	226.11
973.85	226.08
974.14	226.08
974.43	226.10
974.73	226.09
975.02	226.06
975.31	226.09
975.61	226.11
975.90	226.11
976.19	226.13
976.49	226.15
976.78	226.19
977.07	226.23
977.37	226.23
977.66	226.26
977.95	226.22
978.24	226.21
978.54	226.22
978.83	226.21
979.12	226.19
979.42	226.17
979.71	226.16
980.00	226.16
980.29	226.13
980.59	226.12
980.88	226.13
981.17	226.14
981.46	226.15
981.76	226.13
982.05	226.15
982.34	226.13
982.63	226.14
982.93	226.09
983.22	226.10
983.51	226.10
983.80	226.13
984.09	226.17
984.39	226.13
984.68	226.11
984.97	226.11
985.26	226.09
985.55	226.10
985.85	226.07
986.14	226.08
986.43	226.08
986.72	226.05
987.01	226.00
987.30	226.04
987.59	226.01
987.89	226.01
988.18	225.99
988.47	225.96
988.76	225.96
989.05	225.98
989.34	225.92
989.63	225.94
989.92	225.90
990.22	225.86
990.51	225.86
990.80	225.83
991.09	225.83
991.38	225.89
991.67	225.86
991.96	225.84
992.25	225.80
992.54	225.79
992.83	225.80
993.12	225.81
993.41	225.82
993.70	225.84
993.99	225.85
994.28	225.85
994.58	225.88
994.87	225.85
995.16	225.83
995.45	225.85
995.74	225.82
996.03	225.81
996.32	225.82
996.61	225.85
996.90	225.88
997.19	225.85
997.48	225.81
997.77	225.84
998.06	225.84
998.34	225.88
998.63	225.92
998.92	225.93
999.21	225.95
999.50	225.90
999.79	225.87
1000.08	225.85
1000.37	225.89
1000.66	225.89
1000.95	225.93
1001.24	225.95
1001.53	225.96
1001.82	225.96
1002.11	225.96
1002.40	225.98
1002.68	225.99
1002.97	226.06
1003.26	226.08
1003.55	226.06
1003.84	226.06
1004.13	226.09
1004.42	226.11
1004.71	226.11
1004.99	226.10
1005.28	226.10
1005.57	226.13
1005.86	226.12
1006.15	226.15
1006.44	226.11
1006.72	226.14
1007.01	226.11
1007.30	226.11
1007.59	226.14
1007.88	226.13
1008.17	226.18
1008.45	226.16
1008.74	226.11
1009.03	226.08
1009.32	226.07
1009.60	226.11
1009.89	226.09
1010.18	226.08
1010.47	226.08
1010.76	226.07
1011.04	226.11
1011.33	226.11
1011.62	226.13
1011.91	226.13
1012.19	226.11
1012.48	226.12
1012.77	226.07
1013.05	226.17
1013.34	226.18
1013.63	226.14
1013.92	226.14
1014.20	226.12
1014.49	226.15
1014.78	226.19
1015.06	226.12
1015.35	226.13
1015.64	226.13
1015.92	226.15
1016.21	226.14
1016.50	226.11
1016.78	226.12
1017.07	226.08
1017.36	226.10
1017.64	226.07
1017.93	226.08
1018.22	226.08
1018.50	226.06
1018.79	226.08
1019.08	226.03
1019.36	226.03
1019.65	226.02
1019.93	226.07
1020.22	226.08
1020.51	226.10
1020.79	226.08
1021.08	225.95
1021.36	225.56
1021.65	225.88
1021.94	226.51
1022.22	225.91
1022.51	225.88
1022.79	226.68
1023.08	226.27
1023.36	226.90
1023.65	225.70
>>>>>End Processed Spectral Data<<<<<
