SpectraSuite Data File
++++++++++++++++++++++++++++++++++++
Date: Fri Feb 01 15:10:03 EST 2013
User: group
Dark Spectrum Present: No
Reference Spectrum Present: No
Number of Sampled Component Spectra: 1
Spectrometers: USB2E7196
Integration Time (usec): 35000 (USB2E7196)
Spectra Averaged: 100 (USB2E7196)
Boxcar Smoothing: 10 (USB2E7196)
Correct for Electrical Dark: No (USB2E7196)
Strobe/Lamp Enabled: No (USB2E7196)
Correct for Detector Non-linearity: No (USB2E7196)
Correct for Stray Light: No (USB2E7196)
Number of Pixels in Processed Spectrum: 2048
>>>>>Begin Processed Spectral Data<<<<<
339.09	0.00
339.48	215.21
339.86	216.13
340.24	217.81
340.63	219.40
341.01	221.21
341.39	221.69
341.78	223.62
342.16	224.60
342.54	224.94
342.93	213.31
343.31	224.10
343.69	224.61
344.07	225.09
344.46	225.50
344.84	225.88
345.22	226.13
345.60	226.39
345.99	226.57
346.37	226.70
346.75	226.79
347.13	226.86
347.52	226.88
347.90	226.99
348.28	227.04
348.66	227.11
349.05	227.10
349.43	227.17
349.81	227.18
350.19	227.24
350.57	227.31
350.96	227.42
351.34	227.50
351.72	227.60
352.10	227.72
352.48	227.80
352.87	227.87
353.25	227.96
353.63	228.02
354.01	228.09
354.39	228.16
354.77	228.27
355.15	228.40
355.54	228.48
355.92	228.52
356.30	228.59
356.68	228.72
357.06	228.79
357.44	228.81
357.82	228.90
358.20	228.97
358.58	229.02
358.97	229.09
359.35	229.18
359.73	229.27
360.11	229.29
360.49	229.36
360.87	229.39
361.25	229.46
361.63	229.55
362.01	229.58
362.39	229.63
362.77	229.64
363.15	229.63
363.53	229.63
363.91	229.62
364.29	229.60
364.67	229.54
365.05	229.55
365.43	229.60
365.81	229.60
366.19	229.61
366.57	229.64
366.95	229.63
367.33	229.59
367.71	229.59
368.09	229.62
368.47	229.60
368.85	229.56
369.23	229.53
369.61	229.47
369.99	229.47
370.37	229.40
370.75	229.41
371.13	229.38
371.51	229.36
371.89	229.34
372.27	229.29
372.65	229.22
373.03	229.17
373.41	229.10
373.78	229.04
374.16	228.98
374.54	228.86
374.92	228.77
375.30	228.69
375.68	228.58
376.06	228.49
376.44	228.43
376.82	228.40
377.19	228.33
377.57	228.23
377.95	228.12
378.33	228.06
378.71	227.94
379.09	227.84
379.47	227.76
379.84	227.70
380.22	227.64
380.60	227.54
380.98	227.46
381.36	227.37
381.73	227.30
382.11	227.21
382.49	227.14
382.87	227.09
383.25	227.00
383.62	227.08
384.00	227.01
384.38	226.91
384.76	226.82
385.13	226.79
385.51	226.75
385.89	226.71
386.27	226.65
386.64	226.60
387.02	226.54
387.40	226.50
387.78	226.44
388.15	226.39
388.53	226.37
388.91	226.36
389.29	226.34
389.66	226.35
390.04	226.31
390.42	226.34
390.79	226.29
391.17	226.30
391.55	226.17
391.92	226.15
392.30	226.20
392.68	226.24
393.05	226.22
393.43	226.21
393.81	226.25
394.18	226.27
394.56	226.32
394.94	226.37
395.31	226.39
395.69	226.49
396.06	226.56
396.44	226.62
396.82	226.64
397.19	226.71
397.57	226.74
397.95	226.83
398.32	226.85
398.70	226.98
399.07	227.05
399.45	227.11
399.82	227.19
400.20	227.26
400.58	227.36
400.95	227.43
401.33	227.56
401.70	227.69
402.08	227.79
402.45	227.88
402.83	228.03
403.20	228.16
403.58	228.25
403.95	228.35
404.33	228.49
404.71	228.65
405.08	228.84
405.46	229.00
405.83	229.17
406.21	229.35
406.58	229.48
406.96	229.66
407.33	229.86
407.70	230.08
408.08	230.34
408.45	230.52
408.83	230.75
409.20	230.94
409.58	231.10
409.95	231.38
410.33	231.65
410.70	231.87
411.08	232.16
411.45	232.43
411.82	232.79
412.20	233.15
412.57	233.53
412.95	233.82
413.32	234.20
413.69	234.60
414.07	235.02
414.44	235.50
414.82	235.98
415.19	236.54
415.56	237.06
415.94	237.62
416.31	238.24
416.68	238.83
417.06	239.57
417.43	240.29
417.81	241.03
418.18	241.79
418.55	242.64
418.93	243.50
419.30	244.41
419.67	245.29
420.04	246.22
420.42	247.25
420.79	248.42
421.16	249.57
421.54	250.76
421.91	251.95
422.28	253.18
422.66	254.49
423.03	255.75
423.40	257.10
423.77	258.51
424.15	259.96
424.52	261.47
424.89	263.09
425.26	264.59
425.64	266.05
426.01	267.66
426.38	269.33
426.75	271.01
427.13	272.73
427.50	274.53
427.87	276.38
428.24	278.26
428.61	280.02
428.99	281.99
429.36	284.10
429.73	286.18
430.10	288.24
430.47	290.31
430.85	292.42
431.22	294.63
431.59	297.00
431.96	299.25
432.33	301.76
432.70	304.14
433.08	306.97
433.45	309.65
433.82	312.29
434.19	315.16
434.56	317.97
434.93	320.60
435.30	323.27
435.68	326.17
436.05	328.99
436.42	331.75
436.79	334.23
437.16	336.92
437.53	339.79
437.90	342.61
438.27	345.36
438.64	348.20
439.01	350.79
439.38	353.04
439.75	355.23
440.13	357.72
440.50	360.08
440.87	361.90
441.24	363.85
441.61	365.99
441.98	367.49
442.35	369.27
442.72	371.18
443.09	372.95
443.46	373.97
443.83	374.59
444.20	375.13
444.57	376.00
444.94	376.27
445.31	376.56
445.68	376.89
446.05	376.95
446.42	376.59
446.79	376.23
447.16	375.77
447.53	375.40
447.90	374.27
448.27	373.11
448.64	371.55
449.01	370.42
449.37	368.46
449.74	366.58
450.11	364.39
450.48	361.92
450.85	359.39
451.22	357.23
451.59	355.17
451.96	353.23
452.33	350.68
452.70	348.34
453.07	345.54
453.43	342.64
453.80	339.88
454.17	337.18
454.54	334.62
454.91	331.90
455.28	329.27
455.65	326.72
456.02	324.29
456.38	322.17
456.75	319.45
457.12	317.21
457.49	315.00
457.86	312.80
458.23	310.98
458.59	308.93
458.96	306.87
459.33	305.04
459.70	303.15
460.07	301.61
460.43	299.93
460.80	298.29
461.17	296.86
461.54	295.38
461.91	293.96
462.27	292.49
462.64	291.24
463.01	289.86
463.38	288.58
463.74	287.17
464.11	286.00
464.48	284.98
464.85	283.85
465.21	282.96
465.58	281.98
465.95	280.84
466.32	279.95
466.68	279.01
467.05	278.08
467.42	277.21
467.78	276.27
468.15	275.34
468.52	274.71
468.88	273.84
469.25	273.06
469.62	272.42
469.98	271.76
470.35	271.09
470.72	270.46
471.08	269.82
471.45	269.24
471.82	268.70
472.18	268.09
472.55	267.67
472.92	267.13
473.28	266.71
473.65	266.27
474.02	265.81
474.38	265.46
474.75	265.15
475.11	264.78
475.48	264.52
475.85	264.28
476.21	264.02
476.58	263.84
476.94	263.65
477.31	263.50
477.67	263.36
478.04	263.27
478.41	263.22
478.77	263.26
479.14	263.21
479.50	263.17
479.87	263.25
480.23	263.29
480.60	263.32
480.96	263.41
481.33	263.64
481.69	263.83
482.06	263.99
482.42	264.17
482.79	264.44
483.15	264.77
483.52	265.16
483.88	265.45
484.25	265.79
484.61	266.25
484.98	266.66
485.34	267.20
485.71	267.76
486.07	268.36
486.44	268.90
486.80	269.59
487.17	270.30
487.53	271.11
487.90	271.94
488.26	272.89
488.62	273.87
488.99	274.79
489.35	275.83
489.72	276.97
490.08	278.17
490.44	279.36
490.81	280.66
491.17	282.00
491.54	283.50
491.90	285.02
492.26	286.65
492.63	288.36
492.99	290.14
493.36	292.03
493.72	294.06
494.08	296.18
494.45	298.42
494.81	300.81
495.17	303.23
495.54	305.79
495.90	308.48
496.26	311.28
496.63	314.23
496.99	317.32
497.35	320.54
497.72	323.88
498.08	327.39
498.44	331.05
498.80	334.92
499.17	338.94
499.53	343.14
499.89	347.52
500.26	352.03
500.62	356.66
500.98	361.61
501.34	366.67
501.71	371.93
502.07	377.36
502.43	382.93
502.79	388.73
503.16	394.81
503.52	401.04
503.88	407.41
504.24	414.07
504.60	420.96
504.97	428.09
505.33	435.44
505.69	443.14
506.05	450.89
506.41	458.81
506.78	466.99
507.14	475.44
507.50	484.08
507.86	493.10
508.22	502.29
508.59	511.46
508.95	521.00
509.31	530.83
509.67	540.97
510.03	551.25
510.39	561.76
510.75	572.53
511.12	583.49
511.48	594.79
511.84	606.29
512.20	617.80
512.56	629.74
512.92	641.90
513.28	654.25
513.64	666.69
514.00	679.40
514.37	692.29
514.73	705.35
515.09	718.50
515.45	731.78
515.81	745.37
516.17	759.39
516.53	773.51
516.89	787.73
517.25	801.92
517.61	816.39
517.97	830.85
518.33	845.32
518.69	860.12
519.05	875.15
519.41	890.32
519.77	905.88
520.13	921.37
520.49	936.83
520.85	952.30
521.21	968.10
521.57	984.38
521.93	1000.24
522.29	1016.72
522.65	1032.96
523.01	1049.24
523.37	1065.38
523.73	1081.61
524.09	1097.82
524.45	1114.22
524.81	1130.90
525.17	1147.79
525.53	1164.87
525.89	1181.78
526.25	1198.61
526.61	1215.08
526.97	1231.77
527.33	1248.33
527.68	1265.00
528.04	1281.52
528.40	1298.23
528.76	1315.32
529.12	1331.95
529.48	1348.86
529.84	1364.93
530.20	1381.64
530.56	1398.79
530.91	1416.24
531.27	1433.06
531.63	1449.60
531.99	1466.24
532.35	1482.26
532.71	1498.18
533.07	1514.46
533.42	1530.28
533.78	1546.41
534.14	1562.65
534.50	1578.10
534.86	1594.04
535.21	1609.23
535.57	1625.34
535.93	1640.95
536.29	1655.91
536.65	1671.18
537.00	1686.14
537.36	1701.44
537.72	1716.04
538.08	1730.44
538.44	1744.21
538.79	1758.21
539.15	1771.98
539.51	1785.83
539.87	1800.30
540.22	1814.10
540.58	1827.96
540.94	1841.54
541.29	1854.52
541.65	1867.52
542.01	1880.81
542.37	1893.32
542.72	1905.86
543.08	1917.57
543.44	1930.08
543.79	1941.34
544.15	1952.30
544.51	1963.79
544.87	1974.77
545.22	1985.70
545.58	1995.98
545.94	2005.89
546.29	2015.87
546.65	2025.75
547.01	2034.84
547.36	2043.51
547.72	2052.10
548.07	2059.97
548.43	2068.19
548.79	2076.28
549.14	2083.70
549.50	2091.19
549.86	2098.80
550.21	2106.11
550.57	2113.26
550.92	2119.87
551.28	2127.01
551.64	2134.11
551.99	2140.75
552.35	2146.89
552.70	2152.94
553.06	2158.79
553.41	2165.10
553.77	2171.10
554.13	2177.13
554.48	2183.40
554.84	2188.77
555.19	2194.02
555.55	2199.08
555.90	2203.49
556.26	2208.28
556.61	2212.89
556.97	2217.06
557.32	2221.08
557.68	2225.17
558.03	2229.53
558.39	2233.06
558.74	2237.56
559.10	2241.34
559.45	2244.89
559.81	2249.35
560.16	2253.19
560.52	2256.47
560.87	2259.92
561.23	2262.51
561.58	2265.55
561.94	2267.92
562.29	2270.44
562.64	2273.09
563.00	2275.81
563.35	2279.33
563.71	2282.38
564.06	2285.63
564.42	2288.40
564.77	2290.86
565.12	2293.12
565.48	2294.97
565.83	2296.65
566.19	2297.89
566.54	2298.95
566.89	2300.07
567.25	2300.44
567.60	2301.66
567.96	2303.27
568.31	2304.08
568.66	2305.06
569.02	2305.37
569.37	2305.64
569.72	2306.34
570.08	2306.27
570.43	2306.11
570.78	2305.34
571.14	2303.84
571.49	2302.41
571.84	2301.93
572.20	2300.64
572.55	2299.47
572.90	2297.84
573.26	2296.44
573.61	2294.54
573.96	2292.41
574.31	2289.25
574.67	2286.19
575.02	2282.54
575.37	2279.11
575.72	2274.95
576.08	2271.53
576.43	2268.17
576.78	2264.36
577.13	2261.13
577.49	2258.08
577.84	2254.40
578.19	2250.76
578.54	2246.89
578.90	2242.36
579.25	2236.71
579.60	2231.60
579.95	2226.50
580.30	2221.46
580.66	2216.23
581.01	2211.33
581.36	2206.29
581.71	2202.04
582.06	2197.43
582.42	2192.78
582.77	2187.42
583.12	2182.95
583.47	2177.96
583.82	2172.82
584.17	2167.53
584.53	2161.88
584.88	2156.05
585.23	2150.11
585.58	2144.47
585.93	2138.86
586.28	2134.18
586.63	2129.11
586.98	2124.06
587.34	2119.18
587.69	2114.09
588.04	2108.64
588.39	2102.81
588.74	2096.31
589.09	2090.10
589.44	2083.18
589.79	2077.01
590.14	2071.27
590.49	2064.49
590.84	2058.20
591.19	2052.04
591.54	2045.53
591.89	2037.87
592.25	2031.01
592.60	2023.85
592.95	2015.99
593.30	2008.59
593.65	2000.80
594.00	1993.56
594.35	1986.35
594.70	1978.34
595.05	1970.88
595.40	1963.55
595.75	1955.97
596.10	1949.52
596.45	1942.62
596.80	1936.30
597.15	1929.58
597.50	1922.35
597.85	1915.93
598.19	1909.18
598.54	1902.03
598.89	1895.30
599.24	1889.54
599.59	1882.66
599.94	1876.43
600.29	1870.09
600.64	1863.58
600.99	1856.07
601.34	1849.05
601.69	1841.87
602.04	1834.82
602.39	1827.58
602.74	1820.80
603.08	1813.96
603.43	1807.31
603.78	1800.12
604.13	1792.99
604.48	1785.67
604.83	1778.78
605.18	1771.72
605.53	1763.63
605.87	1755.70
606.22	1748.48
606.57	1740.56
606.92	1733.28
607.27	1726.00
607.62	1719.15
607.96	1711.76
608.31	1705.16
608.66	1697.64
609.01	1690.02
609.36	1682.49
609.70	1674.43
610.05	1666.18
610.40	1658.49
610.75	1650.23
611.10	1642.51
611.44	1634.19
611.79	1626.20
612.14	1617.56
612.49	1608.43
612.83	1600.02
613.18	1591.84
613.53	1583.63
613.88	1574.91
614.22	1566.72
614.57	1558.21
614.92	1550.11
615.27	1542.54
615.61	1534.35
615.96	1526.51
616.31	1519.04
616.65	1511.61
617.00	1504.01
617.35	1496.44
617.70	1488.12
618.04	1479.61
618.39	1471.30
618.74	1463.61
619.08	1455.40
619.43	1447.98
619.78	1441.08
620.12	1433.96
620.47	1426.43
620.82	1418.39
621.16	1411.14
621.51	1403.42
621.85	1395.75
622.20	1387.32
622.55	1379.04
622.89	1371.17
623.24	1363.55
623.59	1356.20
623.93	1348.80
624.28	1341.58
624.62	1334.09
624.97	1327.03
625.32	1320.23
625.66	1313.37
626.01	1306.29
626.35	1298.80
626.70	1290.93
627.04	1283.20
627.39	1275.48
627.73	1268.07
628.08	1261.14
628.43	1253.80
628.77	1246.53
629.12	1239.09
629.46	1231.87
629.81	1224.54
630.15	1217.35
630.50	1209.94
630.84	1201.74
631.19	1193.83
631.53	1186.50
631.88	1179.02
632.22	1171.38
632.57	1164.12
632.91	1156.50
633.26	1149.12
633.60	1141.89
633.95	1134.90
634.29	1127.93
634.64	1121.34
634.98	1114.07
635.32	1106.93
635.67	1100.55
636.01	1093.96
636.36	1087.13
636.70	1080.70
637.05	1074.12
637.39	1067.63
637.73	1061.07
638.08	1055.30
638.42	1049.42
638.77	1042.89
639.11	1036.31
639.45	1029.95
639.80	1023.36
640.14	1017.00
640.49	1010.39
640.83	1004.10
641.17	997.83
641.52	991.62
641.86	985.15
642.20	979.28
642.55	973.09
642.89	966.44
643.23	959.93
643.58	954.15
643.92	947.90
644.26	941.83
644.61	935.98
644.95	930.05
645.29	923.34
645.64	916.65
645.98	910.38
646.32	904.55
646.66	898.51
647.01	892.73
647.35	887.06
647.69	881.22
648.04	875.65
648.38	869.89
648.72	863.80
649.06	857.75
649.41	851.89
649.75	845.92
650.09	840.08
650.43	834.30
650.78	828.13
651.12	822.23
651.46	816.49
651.80	810.64
652.14	805.27
652.49	799.93
652.83	794.70
653.17	788.99
653.51	783.27
653.85	777.90
654.20	772.21
654.54	766.26
654.88	760.71
655.22	754.88
655.56	749.21
655.90	743.80
656.25	738.59
656.59	733.26
656.93	728.15
657.27	722.93
657.61	717.49
657.95	712.42
658.29	707.41
658.64	702.21
658.98	696.88
659.32	691.36
659.66	686.16
660.00	680.81
660.34	675.91
660.68	671.03
661.02	666.08
661.36	661.38
661.70	656.84
662.05	652.37
662.39	648.07
662.73	643.61
663.07	639.23
663.41	634.80
663.75	630.31
664.09	625.73
664.43	621.37
664.77	617.33
665.11	613.15
665.45	608.99
665.79	604.93
666.13	600.87
666.47	596.87
666.81	592.80
667.15	588.74
667.49	584.86
667.83	581.06
668.17	577.12
668.51	573.10
668.85	569.10
669.19	565.29
669.53	561.47
669.87	557.60
670.21	553.96
670.55	550.36
670.89	546.93
671.23	543.57
671.57	540.11
671.91	536.55
672.25	533.07
672.58	529.57
672.92	526.23
673.26	523.04
673.60	519.93
673.94	516.77
674.28	513.88
674.62	510.88
674.96	507.79
675.30	504.87
675.64	501.96
675.97	499.28
676.31	496.43
676.65	493.49
676.99	490.81
677.33	487.96
677.67	485.09
678.01	482.10
678.34	479.14
678.68	476.29
679.02	473.49
679.36	470.73
679.70	468.07
680.04	465.31
680.37	462.46
680.71	459.62
681.05	457.08
681.39	454.36
681.73	451.80
682.06	449.26
682.40	446.72
682.74	444.22
683.08	441.64
683.42	439.08
683.75	436.62
684.09	434.11
684.43	431.67
684.77	429.25
685.10	426.96
685.44	424.66
685.78	422.38
686.12	420.18
686.45	417.92
686.79	415.57
687.13	413.40
687.46	411.30
687.80	409.16
688.14	406.95
688.48	404.88
688.81	402.63
689.15	400.54
689.49	398.44
689.82	396.38
690.16	394.27
690.50	392.30
690.83	390.32
691.17	388.35
691.51	386.46
691.84	384.66
692.18	382.70
692.52	380.70
692.85	378.77
693.19	376.94
693.52	375.10
693.86	373.33
694.20	371.53
694.53	369.73
694.87	367.94
695.21	366.15
695.54	364.36
695.88	362.65
696.21	360.91
696.55	359.20
696.88	357.48
697.22	355.84
697.56	354.25
697.89	352.62
698.23	350.96
698.56	349.35
698.90	347.71
699.23	346.05
699.57	344.52
699.90	342.96
700.24	341.37
700.58	339.85
700.91	338.32
701.25	336.89
701.58	335.50
701.92	334.14
702.25	332.73
702.59	331.35
702.92	330.02
703.26	328.75
703.59	327.47
703.93	326.32
704.26	325.09
704.60	323.77
704.93	322.48
705.26	321.25
705.60	320.00
705.93	318.86
706.27	317.86
706.60	316.84
706.94	315.79
707.27	314.64
707.61	313.57
707.94	312.55
708.27	311.43
708.61	310.34
708.94	309.35
709.28	308.40
709.61	307.44
709.94	306.50
710.28	305.45
710.61	304.47
710.95	303.39
711.28	302.45
711.61	301.55
711.95	300.66
712.28	299.76
712.61	298.83
712.95	297.94
713.28	297.03
713.61	296.09
713.95	295.23
714.28	294.41
714.61	293.55
714.95	292.72
715.28	291.92
715.61	291.06
715.95	290.17
716.28	289.30
716.61	288.50
716.95	287.67
717.28	286.93
717.61	286.16
717.94	285.45
718.28	284.68
718.61	283.94
718.94	283.26
719.27	282.58
719.61	281.97
719.94	281.31
720.27	280.62
720.60	279.98
720.94	279.36
721.27	278.81
721.60	278.26
721.93	277.67
722.27	277.12
722.60	276.60
722.93	276.06
723.26	275.57
723.59	275.04
723.93	274.53
724.26	273.98
724.59	273.45
724.92	272.94
725.25	272.49
725.59	271.98
725.92	271.48
726.25	270.98
726.58	270.46
726.91	269.95
727.24	269.50
727.57	269.05
727.91	268.52
728.24	268.03
728.57	267.52
728.90	267.11
729.23	266.63
729.56	266.20
729.89	265.75
730.22	265.25
730.55	264.75
730.89	264.31
731.22	263.89
731.55	263.47
731.88	263.06
732.21	262.59
732.54	262.18
732.87	261.75
733.20	261.35
733.53	261.00
733.86	260.62
734.19	260.19
734.52	259.81
734.85	259.51
735.18	259.08
735.51	258.71
735.84	258.26
736.17	257.90
736.50	257.48
736.83	257.23
737.16	256.90
737.49	256.57
737.82	256.22
738.15	255.89
738.48	255.56
738.81	255.23
739.14	254.89
739.47	254.55
739.80	254.26
740.13	253.95
740.46	253.60
740.79	253.27
741.12	252.97
741.45	252.70
741.78	252.31
742.11	252.02
742.44	251.73
742.77	251.48
743.10	251.17
743.43	250.86
743.75	250.47
744.08	250.31
744.41	250.05
744.74	249.75
745.07	249.46
745.40	249.20
745.73	248.94
746.06	248.67
746.39	248.41
746.71	248.11
747.04	247.83
747.37	247.55
747.70	247.33
748.03	247.08
748.36	246.82
748.68	246.61
749.01	246.35
749.34	246.12
749.67	245.87
750.00	245.65
750.33	245.50
750.65	245.28
750.98	244.94
751.31	244.73
751.64	244.55
751.97	244.38
752.29	244.16
752.62	243.91
752.95	243.72
753.28	243.53
753.60	243.35
753.93	243.17
754.26	243.04
754.59	242.77
754.91	242.53
755.24	242.35
755.57	242.16
755.90	242.00
756.22	241.84
756.55	241.68
756.88	241.48
757.20	241.26
757.53	241.03
757.86	240.87
758.19	240.69
758.51	240.52
758.84	240.30
759.17	240.14
759.49	240.00
759.82	239.88
760.15	239.73
760.47	239.59
760.80	239.42
761.13	239.29
761.45	239.19
761.78	239.08
762.11	238.93
762.43	238.81
762.76	238.65
763.08	238.50
763.41	238.37
763.74	238.20
764.06	238.08
764.39	237.97
764.71	237.87
765.04	237.74
765.37	237.60
765.69	237.48
766.02	237.37
766.34	237.24
766.67	237.07
767.00	236.97
767.32	236.93
767.65	236.86
767.97	236.72
768.30	236.60
768.62	236.49
768.95	236.36
769.27	236.24
769.60	236.17
769.92	236.05
770.25	235.94
770.57	235.86
770.90	235.77
771.22	235.67
771.55	235.56
771.87	235.47
772.20	235.39
772.52	235.38
772.85	235.41
773.17	235.30
773.50	235.21
773.82	235.09
774.15	234.92
774.47	234.79
774.80	234.70
775.12	234.61
775.45	234.52
775.77	234.43
776.09	234.35
776.42	234.26
776.74	234.22
777.07	234.14
777.39	234.06
777.72	233.98
778.04	233.92
778.36	233.82
778.69	233.74
779.01	233.65
779.33	233.50
779.66	233.29
779.98	233.20
780.31	233.14
780.63	233.09
780.95	233.05
781.28	232.93
781.60	232.83
781.92	232.75
782.25	232.66
782.57	232.59
782.89	232.50
783.22	232.42
783.54	232.32
783.86	232.25
784.19	232.14
784.51	232.11
784.83	232.03
785.16	231.98
785.48	231.92
785.80	231.84
786.12	231.81
786.45	231.76
786.77	231.70
787.09	231.63
787.42	231.56
787.74	231.52
788.06	231.51
788.38	231.48
788.71	231.42
789.03	231.39
789.35	231.35
789.67	231.31
789.99	231.28
790.32	231.23
790.64	231.22
790.96	231.29
791.28	231.21
791.61	231.15
791.93	231.15
792.25	231.11
792.57	231.16
792.89	231.08
793.21	231.07
793.54	231.04
793.86	230.99
794.18	230.96
794.50	230.89
794.82	230.85
795.14	230.85
795.47	230.84
795.79	230.83
796.11	230.79
796.43	230.75
796.75	230.70
797.07	230.68
797.39	230.62
797.71	230.53
798.04	230.52
798.36	230.50
798.68	230.44
799.00	230.40
799.32	230.35
799.64	230.35
799.96	230.32
800.28	230.35
800.60	230.37
800.92	230.38
801.24	230.35
801.56	230.36
801.89	230.32
802.21	230.29
802.53	230.24
802.85	230.26
803.17	230.27
803.49	230.24
803.81	230.21
804.13	230.17
804.45	230.16
804.77	230.14
805.09	230.12
805.41	230.10
805.73	230.06
806.05	230.00
806.37	229.98
806.69	229.94
807.01	229.90
807.33	229.84
807.65	229.78
807.97	229.83
808.28	229.78
808.60	229.79
808.92	229.79
809.24	229.84
809.56	229.79
809.88	229.76
810.20	229.74
810.52	229.72
810.84	229.69
811.16	229.65
811.48	229.62
811.80	229.65
812.12	229.62
812.43	229.67
812.75	229.62
813.07	229.57
813.39	229.57
813.71	229.54
814.03	229.52
814.35	229.51
814.67	229.42
814.98	229.38
815.30	229.34
815.62	229.27
815.94	229.21
816.26	229.24
816.58	229.20
816.89	229.23
817.21	229.19
817.53	229.20
817.85	229.15
818.17	229.12
818.48	229.07
818.80	229.09
819.12	229.04
819.44	229.02
819.76	229.02
820.07	228.98
820.39	228.96
820.71	228.94
821.03	228.92
821.34	228.88
821.66	228.90
821.98	228.91
822.30	228.89
822.61	228.89
822.93	228.83
823.25	228.81
823.57	228.76
823.88	228.77
824.20	228.74
824.52	228.74
824.83	228.71
825.15	228.67
825.47	228.63
825.79	228.60
826.10	228.58
826.42	228.55
826.74	228.53
827.05	228.50
827.37	228.48
827.69	228.45
828.00	228.44
828.32	228.42
828.64	228.40
828.95	228.45
829.27	228.43
829.58	228.40
829.90	228.41
830.22	228.40
830.53	228.34
830.85	228.33
831.17	228.30
831.48	228.29
831.80	228.28
832.11	228.25
832.43	228.22
832.75	228.19
833.06	228.27
833.38	228.25
833.69	228.21
834.01	228.19
834.32	228.19
834.64	228.16
834.96	228.11
835.27	228.06
835.59	228.00
835.90	227.95
836.22	227.93
836.53	227.90
836.85	227.89
837.16	227.99
837.48	227.95
837.79	227.98
838.11	227.96
838.42	227.96
838.74	227.98
839.05	228.00
839.37	228.00
839.68	227.91
840.00	227.88
840.31	227.90
840.63	227.88
840.94	227.86
841.26	227.85
841.57	227.86
841.88	227.87
842.20	227.86
842.51	227.84
842.83	227.86
843.14	227.94
843.46	227.94
843.77	227.91
844.08	227.92
844.40	227.89
844.71	227.90
845.03	227.86
845.34	227.85
845.65	227.83
845.97	227.81
846.28	227.84
846.60	227.87
846.91	227.87
847.22	227.86
847.54	227.87
847.85	227.90
848.16	227.89
848.48	227.86
848.79	227.87
849.10	227.90
849.42	227.89
849.73	227.77
850.04	227.77
850.36	227.73
850.67	227.74
850.98	227.76
851.30	227.74
851.61	227.73
851.92	227.71
852.23	227.73
852.55	227.77
852.86	227.74
853.17	227.73
853.49	227.78
853.80	227.84
854.11	227.85
854.42	227.89
854.74	227.88
855.05	227.93
855.36	227.87
855.67	227.86
855.99	227.87
856.30	227.99
856.61	227.97
856.92	227.93
857.23	227.92
857.55	227.91
857.86	227.92
858.17	227.97
858.48	227.96
858.79	227.93
859.11	227.92
859.42	227.93
859.73	227.90
860.04	227.85
860.35	227.81
860.66	227.75
860.98	227.68
861.29	227.68
861.60	227.65
861.91	227.70
862.22	227.66
862.53	227.63
862.84	227.52
863.16	227.53
863.47	227.51
863.78	227.50
864.09	227.48
864.40	227.47
864.71	227.47
865.02	227.50
865.33	227.45
865.64	227.45
865.95	227.43
866.27	227.48
866.58	227.48
866.89	227.49
867.20	227.49
867.51	227.50
867.82	227.46
868.13	227.47
868.44	227.46
868.75	227.49
869.06	227.50
869.37	227.53
869.68	227.52
869.99	227.53
870.30	227.54
870.61	227.55
870.92	227.58
871.23	227.55
871.54	227.56
871.85	227.62
872.16	227.61
872.47	227.60
872.78	227.57
873.09	227.58
873.40	227.57
873.71	227.57
874.02	227.58
874.33	227.59
874.64	227.59
874.95	227.59
875.26	227.55
875.56	227.52
875.87	227.49
876.18	227.49
876.49	227.59
876.80	227.56
877.11	227.53
877.42	227.49
877.73	227.50
878.04	227.48
878.35	227.47
878.66	227.48
878.96	227.47
879.27	227.45
879.58	227.46
879.89	227.41
880.20	227.41
880.51	227.40
880.82	227.40
881.12	227.39
881.43	227.37
881.74	227.36
882.05	227.33
882.36	227.33
882.67	227.35
882.97	227.24
883.28	227.23
883.59	227.24
883.90	227.28
884.21	227.28
884.51	227.25
884.82	227.25
885.13	227.25
885.44	227.26
885.74	227.27
886.05	227.25
886.36	227.26
886.67	227.25
886.98	227.30
887.28	227.33
887.59	227.34
887.90	227.36
888.20	227.39
888.51	227.43
888.82	227.44
889.13	227.43
889.43	227.50
889.74	227.50
890.05	227.51
890.35	227.50
890.66	227.50
890.97	227.50
891.28	227.49
891.58	227.49
891.89	227.47
892.20	227.44
892.50	227.41
892.81	227.43
893.12	227.42
893.42	227.40
893.73	227.37
894.04	227.36
894.34	227.38
894.65	227.38
894.95	227.37
895.26	227.38
895.57	227.40
895.87	227.33
896.18	227.38
896.48	227.36
896.79	227.36
897.10	227.35
897.40	227.36
897.71	227.36
898.01	227.36
898.32	227.36
898.63	227.36
898.93	227.38
899.24	227.40
899.54	227.42
899.85	227.39
900.15	227.40
900.46	227.41
900.76	227.38
901.07	227.37
901.38	227.39
901.68	227.39
901.99	227.34
902.29	227.33
902.60	227.29
902.90	227.29
903.21	227.26
903.51	227.26
903.82	227.24
904.12	227.22
904.43	227.21
904.73	227.21
905.03	227.21
905.34	227.28
905.64	227.26
905.95	227.24
906.25	227.26
906.56	227.23
906.86	227.22
907.17	227.21
907.47	227.21
907.77	227.19
908.08	227.16
908.38	227.17
908.69	227.20
908.99	227.21
909.30	227.22
909.60	227.21
909.90	227.23
910.21	227.20
910.51	227.22
910.81	227.22
911.12	227.23
911.42	227.26
911.73	227.18
912.03	227.19
912.33	227.23
912.64	227.22
912.94	227.24
913.24	227.20
913.55	227.19
913.85	227.22
914.15	227.23
914.46	227.23
914.76	227.20
915.06	227.17
915.37	227.16
915.67	227.16
915.97	227.21
916.27	227.19
916.58	227.22
916.88	227.21
917.18	227.22
917.49	227.27
917.79	227.22
918.09	227.24
918.39	227.27
918.70	227.23
919.00	227.24
919.30	227.25
919.60	227.28
919.91	227.30
920.21	227.26
920.51	227.25
920.81	227.25
921.12	227.27
921.42	227.27
921.72	227.25
922.02	227.24
922.32	227.22
922.63	227.22
922.93	227.23
923.23	227.26
923.53	227.21
923.83	227.17
924.13	227.22
924.44	227.19
924.74	227.19
925.04	227.21
925.34	227.19
925.64	227.18
925.94	227.16
926.24	227.18
926.55	227.17
926.85	227.17
927.15	227.18
927.45	227.20
927.75	227.20
928.05	227.23
928.35	227.21
928.65	227.21
928.95	227.25
929.26	227.24
929.56	227.22
929.86	227.27
930.16	227.25
930.46	227.26
930.76	227.26
931.06	227.21
931.36	227.16
931.66	227.18
931.96	227.18
932.26	227.21
932.56	227.17
932.86	227.19
933.16	227.18
933.46	227.17
933.76	227.14
934.06	227.15
934.36	227.17
934.66	227.17
934.96	227.18
935.26	227.16
935.56	227.16
935.86	227.16
936.16	227.11
936.46	227.12
936.76	227.10
937.06	227.07
937.36	227.11
937.66	227.16
937.96	227.17
938.26	227.13
938.56	227.11
938.86	227.13
939.16	227.14
939.46	227.16
939.76	227.15
940.06	227.16
940.35	227.15
940.65	227.09
940.95	227.10
941.25	227.10
941.55	227.09
941.85	227.10
942.15	227.10
942.45	227.18
942.75	227.16
943.04	227.17
943.34	227.19
943.64	227.17
943.94	227.14
944.24	227.12
944.54	227.16
944.84	227.16
945.13	227.14
945.43	227.15
945.73	227.14
946.03	227.14
946.33	227.10
946.62	227.08
946.92	227.09
947.22	227.13
947.52	227.10
947.82	227.09
948.11	227.06
948.41	227.05
948.71	226.97
949.01	226.96
949.31	226.98
949.60	226.98
949.90	226.98
950.20	226.97
950.50	226.95
950.79	226.94
951.09	226.93
951.39	226.92
951.69	226.86
951.98	226.90
952.28	226.92
952.58	226.91
952.87	226.91
953.17	226.93
953.47	226.89
953.76	226.92
954.06	226.93
954.36	226.93
954.66	226.94
954.95	226.97
955.25	227.00
955.55	226.98
955.84	226.98
956.14	226.99
956.44	227.00
956.73	227.01
957.03	227.00
957.32	227.01
957.62	227.00
957.92	227.07
958.21	227.04
958.51	227.11
958.81	227.15
959.10	227.17
959.40	227.19
959.69	227.19
959.99	227.19
960.29	227.20
960.58	227.18
960.88	227.21
961.17	227.20
961.47	227.19
961.76	227.20
962.06	227.22
962.36	227.21
962.65	227.20
962.95	227.21
963.24	227.22
963.54	227.22
963.83	227.26
964.13	227.23
964.42	227.21
964.72	227.18
965.01	227.20
965.31	227.21
965.60	227.18
965.90	227.25
966.19	227.23
966.49	227.22
966.78	227.22
967.08	227.19
967.37	227.16
967.67	227.14
967.96	227.15
968.26	227.13
968.55	227.16
968.85	227.16
969.14	227.17
969.43	227.18
969.73	227.18
970.02	227.14
970.32	227.10
970.61	227.09
970.91	227.06
971.20	227.01
971.49	226.98
971.79	226.98
972.08	226.92
972.38	226.90
972.67	226.87
972.96	226.90
973.26	226.88
973.55	226.94
973.85	226.96
974.14	226.96
974.43	226.94
974.73	226.91
975.02	226.91
975.31	226.91
975.61	226.87
975.90	226.87
976.19	226.88
976.49	226.89
976.78	226.94
977.07	226.92
977.37	226.95
977.66	226.99
977.95	226.98
978.24	226.98
978.54	227.01
978.83	227.04
979.12	227.03
979.42	227.05
979.71	227.03
980.00	227.04
980.29	227.00
980.59	227.01
980.88	227.03
981.17	227.03
981.46	227.02
981.76	227.02
982.05	227.07
982.34	227.10
982.63	227.12
982.93	227.11
983.22	227.14
983.51	227.14
983.80	227.16
984.09	227.18
984.39	227.14
984.68	227.13
984.97	227.13
985.26	227.12
985.55	227.11
985.85	227.04
986.14	227.04
986.43	227.06
986.72	227.05
987.01	227.02
987.30	227.01
987.59	226.99
987.89	227.01
988.18	226.97
988.47	226.94
988.76	226.94
989.05	226.89
989.34	226.89
989.63	226.86
989.92	226.78
990.22	226.76
990.51	226.79
990.80	226.75
991.09	226.75
991.38	226.74
991.67	226.75
991.96	226.76
992.25	226.75
992.54	226.75
992.83	226.75
993.12	226.76
993.41	226.78
993.70	226.82
993.99	226.83
994.28	226.82
994.58	226.82
994.87	226.79
995.16	226.81
995.45	226.79
995.74	226.77
996.03	226.81
996.32	226.84
996.61	226.86
996.90	226.88
997.19	226.87
997.48	226.87
997.77	226.83
998.06	226.83
998.34	226.84
998.63	226.85
998.92	226.86
999.21	226.87
999.50	226.88
999.79	226.83
1000.08	226.83
1000.37	226.85
1000.66	226.87
1000.95	226.91
1001.24	226.93
1001.53	226.94
1001.82	226.98
1002.11	226.96
1002.40	226.97
1002.68	226.99
1002.97	227.06
1003.26	227.07
1003.55	227.09
1003.84	227.13
1004.13	227.17
1004.42	227.18
1004.71	227.15
1004.99	227.15
1005.28	227.14
1005.57	227.12
1005.86	227.14
1006.15	227.15
1006.44	227.12
1006.72	227.13
1007.01	227.12
1007.30	227.12
1007.59	227.10
1007.88	227.07
1008.17	227.08
1008.45	227.04
1008.74	227.04
1009.03	226.99
1009.32	226.98
1009.60	226.98
1009.89	226.98
1010.18	226.94
1010.47	226.94
1010.76	226.97
1011.04	226.99
1011.33	227.02
1011.62	227.02
1011.91	227.03
1012.19	227.04
1012.48	227.08
1012.77	227.05
1013.05	227.11
1013.34	227.10
1013.63	227.12
1013.92	227.16
1014.20	227.17
1014.49	227.19
1014.78	227.19
1015.06	227.18
1015.35	227.19
1015.64	227.21
1015.92	227.27
1016.21	227.30
1016.50	227.30
1016.78	227.28
1017.07	227.28
1017.36	227.24
1017.64	227.24
1017.93	227.25
1018.22	227.27
1018.50	227.27
1018.79	227.28
1019.08	227.22
1019.36	227.22
1019.65	227.23
1019.93	227.24
1020.22	227.25
1020.51	227.31
1020.79	227.26
1021.08	227.75
1021.36	227.17
1021.65	227.14
1021.94	226.82
1022.22	227.15
1022.51	227.39
1022.79	227.68
1023.08	227.29
1023.36	228.46
1023.65	226.40
>>>>>End Processed Spectral Data<<<<<
