SpectraSuite Data File
++++++++++++++++++++++++++++++++++++
Date: Fri Feb 01 15:08:29 EST 2013
User: group
Dark Spectrum Present: No
Reference Spectrum Present: No
Number of Sampled Component Spectra: 1
Spectrometers: USB2E7196
Integration Time (usec): 35000 (USB2E7196)
Spectra Averaged: 100 (USB2E7196)
Boxcar Smoothing: 10 (USB2E7196)
Correct for Electrical Dark: No (USB2E7196)
Strobe/Lamp Enabled: No (USB2E7196)
Correct for Detector Non-linearity: No (USB2E7196)
Correct for Stray Light: No (USB2E7196)
Number of Pixels in Processed Spectrum: 2048
>>>>>Begin Processed Spectral Data<<<<<
339.09	0.00
339.48	214.90
339.86	216.56
340.24	217.82
340.63	219.50
341.01	222.30
341.39	222.11
341.78	222.87
342.16	224.43
342.54	224.51
342.93	213.40
343.31	224.18
343.69	224.75
344.07	225.22
344.46	225.64
344.84	225.99
345.22	226.21
345.60	226.46
345.99	226.64
346.37	226.75
346.75	226.87
347.13	226.92
347.52	226.98
347.90	227.08
348.28	227.08
348.66	227.11
349.05	227.12
349.43	227.16
349.81	227.17
350.19	227.20
350.57	227.25
350.96	227.28
351.34	227.38
351.72	227.42
352.10	227.52
352.48	227.60
352.87	227.66
353.25	227.75
353.63	227.82
354.01	227.91
354.39	227.99
354.77	228.07
355.15	228.18
355.54	228.23
355.92	228.27
356.30	228.35
356.68	228.48
357.06	228.55
357.44	228.57
357.82	228.65
358.20	228.74
358.58	228.81
358.97	228.90
359.35	228.96
359.73	229.04
360.11	229.09
360.49	229.12
360.87	229.19
361.25	229.25
361.63	229.32
362.01	229.39
362.39	229.42
362.77	229.45
363.15	229.45
363.53	229.49
363.91	229.52
364.29	229.58
364.67	229.50
365.05	229.54
365.43	229.57
365.81	229.58
366.19	229.62
366.57	229.67
366.95	229.67
367.33	229.65
367.71	229.64
368.09	229.61
368.47	229.63
368.85	229.61
369.23	229.58
369.61	229.50
369.99	229.51
370.37	229.50
370.75	229.48
371.13	229.47
371.51	229.40
371.89	229.33
372.27	229.27
372.65	229.22
373.03	229.16
373.41	229.08
373.78	229.07
374.16	228.96
374.54	228.81
374.92	228.75
375.30	228.64
375.68	228.55
376.06	228.50
376.44	228.43
376.82	228.34
377.19	228.27
377.57	228.20
377.95	228.06
378.33	227.98
378.71	227.87
379.09	227.78
379.47	227.74
379.84	227.65
380.22	227.53
380.60	227.45
380.98	227.35
381.36	227.27
381.73	227.16
382.11	227.10
382.49	227.07
382.87	226.97
383.25	226.94
383.62	226.97
384.00	226.89
384.38	226.81
384.76	226.76
385.13	226.72
385.51	226.65
385.89	226.61
386.27	226.55
386.64	226.52
387.02	226.47
387.40	226.43
387.78	226.39
388.15	226.39
388.53	226.37
388.91	226.31
389.29	226.30
389.66	226.28
390.04	226.26
390.42	226.25
390.79	226.26
391.17	226.24
391.55	226.17
391.92	226.17
392.30	226.16
392.68	226.12
393.05	226.12
393.43	226.12
393.81	226.12
394.18	226.14
394.56	226.18
394.94	226.26
395.31	226.25
395.69	226.32
396.06	226.37
396.44	226.43
396.82	226.53
397.19	226.64
397.57	226.72
397.95	226.78
398.32	226.83
398.70	226.89
399.07	226.99
399.45	227.02
399.82	227.11
400.20	227.21
400.58	227.36
400.95	227.42
401.33	227.57
401.70	227.77
402.08	227.89
402.45	228.00
402.83	228.07
403.20	228.21
403.58	228.35
403.95	228.46
404.33	228.63
404.71	228.71
405.08	228.90
405.46	229.00
405.83	229.17
406.21	229.33
406.58	229.50
406.96	229.66
407.33	229.89
407.70	230.10
408.08	230.38
408.45	230.60
408.83	230.86
409.20	231.09
409.58	231.26
409.95	231.51
410.33	231.77
410.70	232.05
411.08	232.37
411.45	232.65
411.82	232.99
412.20	233.30
412.57	233.77
412.95	234.06
413.32	234.49
413.69	234.89
414.07	235.34
414.44	235.78
414.82	236.25
415.19	236.77
415.56	237.30
415.94	237.84
416.31	238.46
416.68	239.07
417.06	239.76
417.43	240.44
417.81	241.22
418.18	242.02
418.55	242.84
418.93	243.71
419.30	244.59
419.67	245.53
420.04	246.46
420.42	247.43
420.79	248.61
421.16	249.77
421.54	250.97
421.91	252.19
422.28	253.45
422.66	254.80
423.03	256.12
423.40	257.46
423.77	258.85
424.15	260.28
424.52	261.75
424.89	263.38
425.26	264.92
425.64	266.35
426.01	267.90
426.38	269.55
426.75	271.21
427.13	272.95
427.50	274.73
427.87	276.61
428.24	278.46
428.61	280.20
428.99	282.14
429.36	284.23
429.73	286.23
430.10	288.28
430.47	290.32
430.85	292.45
431.22	294.67
431.59	297.04
431.96	299.29
432.33	301.81
432.70	304.16
433.08	306.97
433.45	309.64
433.82	312.29
434.19	315.24
434.56	318.10
434.93	320.77
435.30	323.48
435.68	326.37
436.05	329.20
436.42	332.00
436.79	334.51
437.16	337.23
437.53	340.12
437.90	342.94
438.27	345.69
438.64	348.51
439.01	351.14
439.38	353.43
439.75	355.54
440.13	358.03
440.50	360.37
440.87	362.27
441.24	364.22
441.61	366.34
441.98	367.77
442.35	369.57
442.72	371.41
443.09	373.21
443.46	374.20
443.83	374.80
444.20	375.31
444.57	376.17
444.94	376.47
445.31	376.80
445.68	377.19
446.05	377.30
446.42	376.92
446.79	376.47
447.16	376.02
447.53	375.75
447.90	374.59
448.27	373.43
448.64	371.80
449.01	370.63
449.37	368.69
449.74	366.83
450.11	364.55
450.48	362.06
450.85	359.50
451.22	357.35
451.59	355.37
451.96	353.46
452.33	350.82
452.70	348.44
453.07	345.61
453.43	342.66
453.80	339.86
454.17	337.19
454.54	334.65
454.91	331.88
455.28	329.22
455.65	326.73
456.02	324.28
456.38	322.14
456.75	319.50
457.12	317.25
457.49	314.98
457.86	312.83
458.23	310.99
458.59	308.92
458.96	306.82
459.33	304.93
459.70	303.04
460.07	301.58
460.43	299.83
460.80	298.18
461.17	296.73
461.54	295.25
461.91	293.80
462.27	292.34
462.64	291.15
463.01	289.76
463.38	288.41
463.74	287.03
464.11	285.87
464.48	284.83
464.85	283.68
465.21	282.78
465.58	281.80
465.95	280.67
466.32	279.72
466.68	278.83
467.05	277.92
467.42	276.98
467.78	275.98
468.15	275.10
468.52	274.43
468.88	273.58
469.25	272.75
469.62	272.13
469.98	271.43
470.35	270.71
470.72	270.09
471.08	269.44
471.45	268.94
471.82	268.36
472.18	267.76
472.55	267.34
472.92	266.84
473.28	266.37
473.65	265.91
474.02	265.48
474.38	265.11
474.75	264.79
475.11	264.45
475.48	264.20
475.85	263.95
476.21	263.68
476.58	263.45
476.94	263.29
477.31	263.13
477.67	263.00
478.04	262.89
478.41	262.81
478.77	262.81
479.14	262.71
479.50	262.72
479.87	262.76
480.23	262.82
480.60	262.88
480.96	263.00
481.33	263.20
481.69	263.41
482.06	263.60
482.42	263.79
482.79	264.07
483.15	264.40
483.52	264.83
483.88	265.19
484.25	265.62
484.61	266.08
484.98	266.48
485.34	267.05
485.71	267.64
486.07	268.26
486.44	268.88
486.80	269.60
487.17	270.33
487.53	271.13
487.90	271.96
488.26	272.89
488.62	273.85
488.99	274.86
489.35	275.90
489.72	277.03
490.08	278.24
490.44	279.45
490.81	280.75
491.17	282.08
491.54	283.56
491.90	285.06
492.26	286.75
492.63	288.45
492.99	290.20
493.36	292.07
493.72	294.12
494.08	296.21
494.45	298.43
494.81	300.79
495.17	303.23
495.54	305.83
495.90	308.53
496.26	311.34
496.63	314.27
496.99	317.42
497.35	320.62
497.72	324.01
498.08	327.50
498.44	331.16
498.80	335.09
499.17	339.09
499.53	343.25
499.89	347.53
500.26	352.09
500.62	356.78
500.98	361.73
501.34	366.78
501.71	372.04
502.07	377.48
502.43	383.05
502.79	388.87
503.16	394.91
503.52	401.15
503.88	407.55
504.24	414.15
504.60	420.96
504.97	428.12
505.33	435.38
505.69	443.08
506.05	450.88
506.41	458.70
506.78	466.84
507.14	475.29
507.50	483.99
507.86	493.02
508.22	502.14
508.59	511.32
508.95	520.93
509.31	530.75
509.67	540.83
510.03	551.12
510.39	561.67
510.75	572.43
511.12	583.31
511.48	594.67
511.84	606.09
512.20	617.60
512.56	629.52
512.92	641.72
513.28	654.05
513.64	666.49
514.00	679.17
514.37	692.13
514.73	705.19
515.09	718.31
515.45	731.54
515.81	745.23
516.17	759.29
516.53	773.25
516.89	787.46
517.25	801.74
517.61	816.14
517.97	830.62
518.33	845.05
518.69	859.85
519.05	874.78
519.41	889.99
519.77	905.51
520.13	920.98
520.49	936.37
520.85	951.86
521.21	967.63
521.57	983.97
521.93	999.80
522.29	1016.23
522.65	1032.48
523.01	1048.77
523.37	1064.79
523.73	1081.00
524.09	1097.25
524.45	1113.64
524.81	1130.29
525.17	1147.23
525.53	1164.15
525.89	1181.18
526.25	1198.09
526.61	1214.51
526.97	1231.29
527.33	1247.92
527.68	1264.59
528.04	1281.17
528.40	1297.84
528.76	1314.97
529.12	1331.53
529.48	1348.50
529.84	1364.67
530.20	1381.46
530.56	1398.64
530.91	1416.13
531.27	1432.94
531.63	1449.50
531.99	1466.19
532.35	1482.22
532.71	1498.21
533.07	1514.56
533.42	1530.41
533.78	1546.56
534.14	1563.01
534.50	1578.49
534.86	1594.47
535.21	1609.59
535.57	1625.77
535.93	1641.39
536.29	1656.36
536.65	1671.68
537.00	1686.64
537.36	1701.95
537.72	1716.43
538.08	1730.79
538.44	1744.60
538.79	1758.73
539.15	1772.62
539.51	1786.38
539.87	1800.79
540.22	1814.46
540.58	1828.38
540.94	1842.03
541.29	1855.14
541.65	1867.90
542.01	1881.22
542.37	1893.64
542.72	1906.28
543.08	1918.00
543.44	1930.62
543.79	1941.87
544.15	1952.84
544.51	1964.34
544.87	1975.41
545.22	1986.28
545.58	1996.50
545.94	2006.35
546.29	2016.09
546.65	2025.88
547.01	2035.28
547.36	2044.15
547.72	2052.77
548.07	2060.60
548.43	2068.73
548.79	2076.66
549.14	2084.14
549.50	2091.63
549.86	2099.31
550.21	2106.71
550.57	2113.90
550.92	2120.30
551.28	2127.45
551.64	2134.58
551.99	2141.17
552.35	2147.25
552.70	2153.43
553.06	2159.47
553.41	2165.81
553.77	2171.85
554.13	2178.01
554.48	2184.00
554.84	2189.29
555.19	2194.52
555.55	2199.67
555.90	2204.01
556.26	2208.95
556.61	2213.58
556.97	2217.66
557.32	2221.86
557.68	2225.87
558.03	2230.21
558.39	2233.97
558.74	2238.48
559.10	2242.17
559.45	2245.73
559.81	2250.05
560.16	2253.84
560.52	2257.01
560.87	2260.46
561.23	2263.05
561.58	2265.81
561.94	2268.37
562.29	2270.73
562.64	2273.45
563.00	2275.93
563.35	2279.53
563.71	2282.41
564.06	2285.67
564.42	2288.42
564.77	2290.74
565.12	2292.88
565.48	2294.46
565.83	2296.04
566.19	2297.16
566.54	2298.18
566.89	2299.36
567.25	2299.93
567.60	2301.13
567.96	2302.61
568.31	2303.31
568.66	2304.34
569.02	2304.79
569.37	2304.94
569.72	2305.65
570.08	2305.64
570.43	2305.51
570.78	2304.61
571.14	2303.03
571.49	2301.69
571.84	2301.35
572.20	2300.10
572.55	2299.08
572.90	2297.55
573.26	2296.04
573.61	2294.26
573.96	2292.27
574.31	2289.10
574.67	2285.97
575.02	2282.38
575.37	2279.03
575.72	2275.04
576.08	2271.57
576.43	2268.22
576.78	2264.59
577.13	2261.38
577.49	2258.25
577.84	2254.81
578.19	2251.12
578.54	2247.44
578.90	2243.03
579.25	2237.32
579.60	2232.19
579.95	2227.13
580.30	2222.04
580.66	2216.95
581.01	2211.96
581.36	2206.89
581.71	2202.59
582.06	2198.02
582.42	2193.36
582.77	2187.89
583.12	2183.30
583.47	2178.53
583.82	2173.45
584.17	2167.99
584.53	2162.49
584.88	2156.70
585.23	2150.80
585.58	2145.27
585.93	2139.68
586.28	2134.89
586.63	2129.60
586.98	2124.41
587.34	2119.58
587.69	2114.58
588.04	2109.04
588.39	2103.22
588.74	2096.80
589.09	2090.60
589.44	2083.59
589.79	2077.68
590.14	2072.19
590.49	2065.58
590.84	2059.13
591.19	2052.96
591.54	2046.44
591.89	2038.76
592.25	2031.83
592.60	2024.49
592.95	2016.77
593.30	2009.30
593.65	2001.53
594.00	1994.62
594.35	1987.39
594.70	1979.20
595.05	1971.83
595.40	1964.62
595.75	1957.11
596.10	1950.62
596.45	1943.68
596.80	1937.39
597.15	1930.44
597.50	1923.08
597.85	1916.50
598.19	1909.67
598.54	1902.49
598.89	1895.76
599.24	1889.70
599.59	1882.99
599.94	1876.70
600.29	1870.22
600.64	1863.65
600.99	1856.03
601.34	1849.03
601.69	1841.95
602.04	1835.02
602.39	1827.64
602.74	1820.69
603.08	1813.81
603.43	1807.13
603.78	1799.88
604.13	1792.67
604.48	1785.34
604.83	1778.53
605.18	1771.41
605.53	1763.42
605.87	1755.29
606.22	1748.07
606.57	1740.25
606.92	1732.95
607.27	1725.56
607.62	1718.71
607.96	1711.42
608.31	1704.81
608.66	1697.17
609.01	1689.50
609.36	1681.84
609.70	1673.79
610.05	1665.66
610.40	1658.04
610.75	1649.72
611.10	1642.01
611.44	1633.84
611.79	1625.85
612.14	1617.17
612.49	1608.27
612.83	1599.99
613.18	1592.08
613.53	1584.03
613.88	1575.43
614.22	1567.03
614.57	1558.75
614.92	1550.61
615.27	1542.84
615.61	1534.46
615.96	1526.51
616.31	1519.05
616.65	1511.80
617.00	1504.29
617.35	1496.68
617.70	1488.34
618.04	1479.76
618.39	1471.61
618.74	1463.84
619.08	1455.59
619.43	1448.02
619.78	1441.07
620.12	1433.84
620.47	1426.21
620.82	1417.99
621.16	1410.72
621.51	1403.24
621.85	1395.58
622.20	1387.07
622.55	1378.92
622.89	1371.22
623.24	1363.71
623.59	1356.30
623.93	1348.79
624.28	1341.60
624.62	1334.03
624.97	1326.86
625.32	1320.24
625.66	1313.20
626.01	1306.04
626.35	1298.48
626.70	1290.79
627.04	1283.06
627.39	1275.26
627.73	1267.87
628.08	1260.96
628.43	1253.57
628.77	1246.16
629.12	1238.57
629.46	1231.51
629.81	1224.14
630.15	1216.94
630.50	1209.43
630.84	1201.26
631.19	1193.34
631.53	1185.93
631.88	1178.48
632.22	1170.92
632.57	1163.62
632.91	1156.05
633.26	1148.79
633.60	1141.62
633.95	1134.63
634.29	1127.60
634.64	1121.08
634.98	1113.70
635.32	1106.59
635.67	1100.22
636.01	1093.67
636.36	1086.86
636.70	1080.38
637.05	1073.87
637.39	1067.51
637.73	1061.13
638.08	1055.36
638.42	1049.40
638.77	1042.91
639.11	1036.34
639.45	1030.00
639.80	1023.41
640.14	1017.03
640.49	1010.34
640.83	1003.96
641.17	997.49
641.52	991.22
641.86	984.73
642.20	979.00
642.55	972.71
642.89	966.15
643.23	959.60
643.58	953.88
643.92	947.67
644.26	941.49
644.61	935.42
644.95	929.35
645.29	922.65
645.64	915.90
645.98	909.62
646.32	903.90
646.66	897.85
647.01	892.05
647.35	886.33
647.69	880.63
648.04	875.22
648.38	869.54
648.72	863.40
649.06	857.38
649.41	851.49
649.75	845.48
650.09	839.48
650.43	833.63
650.78	827.51
651.12	821.55
651.46	815.93
651.80	810.20
652.14	804.83
652.49	799.50
652.83	794.36
653.17	788.60
653.51	782.72
653.85	777.36
654.20	771.63
654.54	765.68
654.88	759.96
655.22	754.15
655.56	748.55
655.90	743.18
656.25	737.94
656.59	732.57
656.93	727.51
657.27	722.35
657.61	717.00
657.95	711.87
658.29	706.85
658.64	701.61
658.98	696.32
659.32	690.83
659.66	685.65
660.00	680.40
660.34	675.55
660.68	670.72
661.02	665.68
661.36	661.05
661.70	656.67
662.05	652.34
662.39	647.94
662.73	643.49
663.07	639.17
663.41	634.72
663.75	630.24
664.09	625.72
664.43	621.40
664.77	617.25
665.11	613.06
665.45	608.96
665.79	604.90
666.13	600.83
666.47	596.78
666.81	592.65
667.15	588.58
667.49	584.73
667.83	580.98
668.17	577.10
668.51	573.06
668.85	569.01
669.19	565.16
669.53	561.35
669.87	557.48
670.21	553.84
670.55	550.28
670.89	546.98
671.23	543.60
671.57	540.14
671.91	536.70
672.25	533.22
672.58	529.73
672.92	526.33
673.26	523.15
673.60	520.03
673.94	516.95
674.28	514.08
674.62	511.12
674.96	508.04
675.30	505.12
675.64	502.21
675.97	499.46
676.31	496.62
676.65	493.73
676.99	491.10
677.33	488.20
677.67	485.38
678.01	482.29
678.34	479.33
678.68	476.47
679.02	473.64
679.36	470.92
679.70	468.20
680.04	465.47
680.37	462.63
680.71	459.85
681.05	457.27
681.39	454.53
681.73	451.95
682.06	449.41
682.40	446.84
682.74	444.29
683.08	441.78
683.42	439.17
683.75	436.62
684.09	434.08
684.43	431.61
684.77	429.12
685.10	426.82
685.44	424.54
685.78	422.24
686.12	420.02
686.45	417.70
686.79	415.38
687.13	413.20
687.46	411.06
687.80	408.89
688.14	406.66
688.48	404.60
688.81	402.28
689.15	400.15
689.49	398.07
689.82	396.02
690.16	393.91
690.50	391.94
690.83	390.04
691.17	388.03
691.51	386.17
691.84	384.32
692.18	382.35
692.52	380.34
692.85	378.46
693.19	376.55
693.52	374.77
693.86	373.00
694.20	371.21
694.53	369.38
694.87	367.53
695.21	365.76
695.54	363.93
695.88	362.24
696.21	360.51
696.55	358.87
696.88	357.19
697.22	355.55
697.56	353.95
697.89	352.30
698.23	350.70
698.56	349.08
698.90	347.45
699.23	345.79
699.57	344.30
699.90	342.71
700.24	341.21
700.58	339.66
700.91	338.19
701.25	336.76
701.58	335.42
701.92	334.12
702.25	332.75
702.59	331.40
702.92	330.11
703.26	328.81
703.59	327.45
703.93	326.30
704.26	325.09
704.60	323.85
704.93	322.56
705.26	321.30
705.60	320.13
705.93	319.05
706.27	318.09
706.60	317.03
706.94	316.00
707.27	314.87
707.61	313.81
707.94	312.78
708.27	311.69
708.61	310.63
708.94	309.62
709.28	308.67
709.61	307.73
709.94	306.79
710.28	305.78
710.61	304.85
710.95	303.78
711.28	302.83
711.61	301.84
711.95	300.93
712.28	300.00
712.61	299.02
712.95	298.08
713.28	297.17
713.61	296.29
713.95	295.41
714.28	294.60
714.61	293.79
714.95	292.93
715.28	292.12
715.61	291.24
715.95	290.36
716.28	289.54
716.61	288.72
716.95	287.90
717.28	287.20
717.61	286.43
717.94	285.70
718.28	284.89
718.61	284.20
718.94	283.51
719.27	282.87
719.61	282.27
719.94	281.61
720.27	280.91
720.60	280.20
720.94	279.58
721.27	278.96
721.60	278.38
721.93	277.79
722.27	277.22
722.60	276.66
722.93	276.10
723.26	275.53
723.59	274.94
723.93	274.41
724.26	273.85
724.59	273.34
724.92	272.80
725.25	272.34
725.59	271.81
725.92	271.31
726.25	270.77
726.58	270.27
726.91	269.74
727.24	269.27
727.57	268.86
727.91	268.35
728.24	267.90
728.57	267.36
728.90	266.94
729.23	266.42
729.56	266.00
729.89	265.54
730.22	265.04
730.55	264.58
730.89	264.12
731.22	263.67
731.55	263.18
731.88	262.73
732.21	262.27
732.54	261.82
732.87	261.38
733.20	261.03
733.53	260.62
733.86	260.26
734.19	259.86
734.52	259.46
734.85	259.14
735.18	258.69
735.51	258.33
735.84	257.93
736.17	257.60
736.50	257.19
736.83	256.94
737.16	256.64
737.49	256.30
737.82	255.97
738.15	255.65
738.48	255.31
738.81	254.98
739.14	254.68
739.47	254.43
739.80	254.12
740.13	253.79
740.46	253.44
740.79	253.13
741.12	252.78
741.45	252.44
741.78	252.10
742.11	251.86
742.44	251.55
742.77	251.26
743.10	250.96
743.43	250.66
743.75	250.30
744.08	250.13
744.41	249.89
744.74	249.58
745.07	249.31
745.40	249.11
745.73	248.93
746.06	248.64
746.39	248.37
746.71	248.12
747.04	247.83
747.37	247.57
747.70	247.34
748.03	247.12
748.36	246.91
748.68	246.67
749.01	246.42
749.34	246.20
749.67	245.97
750.00	245.74
750.33	245.59
750.65	245.40
750.98	245.06
751.31	244.78
751.64	244.58
751.97	244.42
752.29	244.19
752.62	243.93
752.95	243.73
753.28	243.52
753.60	243.32
753.93	243.17
754.26	243.03
754.59	242.81
754.91	242.62
755.24	242.45
755.57	242.27
755.90	242.06
756.22	241.85
756.55	241.64
756.88	241.47
757.20	241.24
757.53	241.03
757.86	240.89
758.19	240.80
758.51	240.67
758.84	240.45
759.17	240.29
759.49	240.12
759.82	240.00
760.15	239.88
760.47	239.73
760.80	239.56
761.13	239.42
761.45	239.29
761.78	239.15
762.11	238.98
762.43	238.88
762.76	238.75
763.08	238.65
763.41	238.54
763.74	238.42
764.06	238.28
764.39	238.16
764.71	238.02
765.04	237.87
765.37	237.71
765.69	237.58
766.02	237.41
766.34	237.27
766.67	237.14
767.00	237.01
767.32	236.91
767.65	236.87
767.97	236.74
768.30	236.61
768.62	236.49
768.95	236.34
769.27	236.19
769.60	236.08
769.92	235.97
770.25	235.83
770.57	235.70
770.90	235.62
771.22	235.49
771.55	235.38
771.87	235.27
772.20	235.14
772.52	235.12
772.85	235.17
773.17	235.08
773.50	234.97
773.82	234.83
774.15	234.70
774.47	234.55
774.80	234.43
775.12	234.32
775.45	234.25
775.77	234.21
776.09	234.13
776.42	234.03
776.74	233.95
777.07	233.85
777.39	233.77
777.72	233.68
778.04	233.65
778.36	233.57
778.69	233.50
779.01	233.45
779.33	233.29
779.66	233.13
779.98	233.02
780.31	232.95
780.63	232.95
780.95	232.92
781.28	232.85
781.60	232.79
781.92	232.76
782.25	232.65
782.57	232.55
782.89	232.46
783.22	232.41
783.54	232.35
783.86	232.32
784.19	232.26
784.51	232.20
784.83	232.10
785.16	232.05
785.48	232.00
785.80	231.95
786.12	231.91
786.45	231.89
786.77	231.86
787.09	231.81
787.42	231.73
787.74	231.67
788.06	231.61
788.38	231.56
788.71	231.50
789.03	231.46
789.35	231.47
789.67	231.46
789.99	231.41
790.32	231.35
790.64	231.32
790.96	231.32
791.28	231.28
791.61	231.26
791.93	231.25
792.25	231.20
792.57	231.23
792.89	231.19
793.21	231.12
793.54	231.09
793.86	231.06
794.18	231.01
794.50	230.96
794.82	230.92
795.14	230.91
795.47	230.89
795.79	230.90
796.11	230.84
796.43	230.80
796.75	230.79
797.07	230.76
797.39	230.73
797.71	230.66
798.04	230.61
798.36	230.58
798.68	230.51
799.00	230.48
799.32	230.43
799.64	230.42
799.96	230.40
800.28	230.39
800.60	230.33
800.92	230.32
801.24	230.30
801.56	230.26
801.89	230.19
802.21	230.15
802.53	230.08
802.85	230.07
803.17	230.05
803.49	230.01
803.81	229.99
804.13	229.98
804.45	229.91
804.77	229.93
805.09	229.89
805.41	229.87
805.73	229.81
806.05	229.75
806.37	229.72
806.69	229.69
807.01	229.64
807.33	229.64
807.65	229.56
807.97	229.56
808.28	229.53
808.60	229.52
808.92	229.49
809.24	229.54
809.56	229.47
809.88	229.45
810.20	229.45
810.52	229.43
810.84	229.38
811.16	229.37
811.48	229.33
811.80	229.33
812.12	229.32
812.43	229.32
812.75	229.29
813.07	229.24
813.39	229.20
813.71	229.18
814.03	229.14
814.35	229.12
814.67	229.08
814.98	229.06
815.30	229.04
815.62	229.03
815.94	228.93
816.26	228.97
816.58	228.92
816.89	228.87
817.21	228.83
817.53	228.77
817.85	228.77
818.17	228.75
818.48	228.68
818.80	228.65
819.12	228.63
819.44	228.62
819.76	228.63
820.07	228.65
820.39	228.61
820.71	228.61
821.03	228.59
821.34	228.56
821.66	228.56
821.98	228.56
822.30	228.53
822.61	228.59
822.93	228.52
823.25	228.54
823.57	228.52
823.88	228.54
824.20	228.55
824.52	228.55
824.83	228.56
825.15	228.55
825.47	228.57
825.79	228.56
826.10	228.52
826.42	228.49
826.74	228.46
827.05	228.50
827.37	228.52
827.69	228.53
828.00	228.51
828.32	228.50
828.64	228.48
828.95	228.53
829.27	228.51
829.58	228.52
829.90	228.52
830.22	228.51
830.53	228.49
830.85	228.46
831.17	228.43
831.48	228.41
831.80	228.41
832.11	228.34
832.43	228.33
832.75	228.37
833.06	228.39
833.38	228.38
833.69	228.36
834.01	228.34
834.32	228.34
834.64	228.34
834.96	228.33
835.27	228.35
835.59	228.28
835.90	228.22
836.22	228.18
836.53	228.13
836.85	228.14
837.16	228.24
837.48	228.22
837.79	228.24
838.11	228.24
838.42	228.26
838.74	228.27
839.05	228.25
839.37	228.22
839.68	228.12
840.00	228.10
840.31	228.09
840.63	228.06
840.94	228.02
841.26	228.05
841.57	228.05
841.88	227.99
842.20	227.99
842.51	227.98
842.83	227.99
843.14	228.10
843.46	228.09
843.77	228.01
844.08	228.02
844.40	227.98
844.71	227.95
845.03	227.94
845.34	227.95
845.65	227.95
845.97	227.95
846.28	228.01
846.60	227.99
846.91	227.98
847.22	227.95
847.54	227.97
847.85	227.92
848.16	227.93
848.48	227.95
848.79	227.98
849.10	228.01
849.42	228.00
849.73	227.88
850.04	227.87
850.36	227.85
850.67	227.86
850.98	227.87
851.30	227.88
851.61	227.87
851.92	227.87
852.23	227.91
852.55	227.91
852.86	227.89
853.17	227.90
853.49	227.91
853.80	227.96
854.11	227.97
854.42	228.00
854.74	227.95
855.05	227.94
855.36	227.89
855.67	227.87
855.99	227.86
856.30	227.97
856.61	227.97
856.92	227.98
857.23	227.96
857.55	227.95
857.86	227.93
858.17	227.93
858.48	227.89
858.79	227.85
859.11	227.84
859.42	227.83
859.73	227.83
860.04	227.84
860.35	227.79
860.66	227.74
860.98	227.72
861.29	227.72
861.60	227.74
861.91	227.74
862.22	227.74
862.53	227.71
862.84	227.59
863.16	227.60
863.47	227.53
863.78	227.54
864.09	227.52
864.40	227.53
864.71	227.51
865.02	227.49
865.33	227.47
865.64	227.46
865.95	227.44
866.27	227.53
866.58	227.49
866.89	227.49
867.20	227.50
867.51	227.48
867.82	227.47
868.13	227.45
868.44	227.42
868.75	227.42
869.06	227.44
869.37	227.44
869.68	227.40
869.99	227.42
870.30	227.42
870.61	227.47
870.92	227.41
871.23	227.41
871.54	227.45
871.85	227.49
872.16	227.50
872.47	227.50
872.78	227.42
873.09	227.43
873.40	227.40
873.71	227.40
874.02	227.38
874.33	227.37
874.64	227.35
874.95	227.37
875.26	227.35
875.56	227.37
875.87	227.36
876.18	227.33
876.49	227.45
876.80	227.42
877.11	227.38
877.42	227.40
877.73	227.41
878.04	227.38
878.35	227.38
878.66	227.38
878.96	227.37
879.27	227.37
879.58	227.37
879.89	227.37
880.20	227.41
880.51	227.44
880.82	227.46
881.12	227.45
881.43	227.46
881.74	227.48
882.05	227.44
882.36	227.46
882.67	227.48
882.97	227.38
883.28	227.40
883.59	227.42
883.90	227.45
884.21	227.42
884.51	227.43
884.82	227.39
885.13	227.42
885.44	227.41
885.74	227.37
886.05	227.37
886.36	227.36
886.67	227.33
886.98	227.36
887.28	227.36
887.59	227.38
887.90	227.34
888.20	227.33
888.51	227.34
888.82	227.29
889.13	227.31
889.43	227.38
889.74	227.37
890.05	227.35
890.35	227.35
890.66	227.36
890.97	227.36
891.28	227.33
891.58	227.29
891.89	227.33
892.20	227.33
892.50	227.31
892.81	227.30
893.12	227.32
893.42	227.28
893.73	227.28
894.04	227.29
894.34	227.35
894.65	227.33
894.95	227.35
895.26	227.37
895.57	227.41
895.87	227.33
896.18	227.35
896.48	227.37
896.79	227.35
897.10	227.34
897.40	227.34
897.71	227.37
898.01	227.39
898.32	227.34
898.63	227.34
898.93	227.33
899.24	227.35
899.54	227.31
899.85	227.31
900.15	227.29
900.46	227.29
900.76	227.29
901.07	227.30
901.38	227.31
901.68	227.33
901.99	227.25
902.29	227.25
902.60	227.24
902.90	227.26
903.21	227.24
903.51	227.25
903.82	227.26
904.12	227.26
904.43	227.24
904.73	227.23
905.03	227.25
905.34	227.36
905.64	227.36
905.95	227.36
906.25	227.35
906.56	227.34
906.86	227.32
907.17	227.27
907.47	227.26
907.77	227.21
908.08	227.21
908.38	227.25
908.69	227.27
908.99	227.25
909.30	227.24
909.60	227.25
909.90	227.23
910.21	227.23
910.51	227.20
910.81	227.22
911.12	227.26
911.42	227.23
911.73	227.12
912.03	227.12
912.33	227.13
912.64	227.13
912.94	227.13
913.24	227.09
913.55	227.11
913.85	227.11
914.15	227.14
914.46	227.15
914.76	227.13
915.06	227.12
915.37	227.11
915.67	227.10
915.97	227.12
916.27	227.14
916.58	227.16
916.88	227.18
917.18	227.17
917.49	227.27
917.79	227.28
918.09	227.30
918.39	227.32
918.70	227.34
919.00	227.37
919.30	227.42
919.60	227.44
919.91	227.41
920.21	227.41
920.51	227.42
920.81	227.40
921.12	227.41
921.42	227.37
921.72	227.41
922.02	227.40
922.32	227.42
922.63	227.38
922.93	227.40
923.23	227.39
923.53	227.39
923.83	227.29
924.13	227.33
924.44	227.33
924.74	227.36
925.04	227.36
925.34	227.36
925.64	227.30
925.94	227.32
926.24	227.41
926.55	227.40
926.85	227.39
927.15	227.41
927.45	227.44
927.75	227.43
928.05	227.42
928.35	227.43
928.65	227.45
928.95	227.50
929.26	227.48
929.56	227.53
929.86	227.56
930.16	227.53
930.46	227.53
930.76	227.53
931.06	227.49
931.36	227.48
931.66	227.48
931.96	227.51
932.26	227.51
932.56	227.45
932.86	227.44
933.16	227.48
933.46	227.49
933.76	227.47
934.06	227.52
934.36	227.56
934.66	227.57
934.96	227.53
935.26	227.53
935.56	227.51
935.86	227.43
936.16	227.42
936.46	227.42
936.76	227.41
937.06	227.38
937.36	227.39
937.66	227.37
937.96	227.38
938.26	227.34
938.56	227.36
938.86	227.35
939.16	227.39
939.46	227.35
939.76	227.35
940.06	227.34
940.35	227.30
940.65	227.23
940.95	227.20
941.25	227.16
941.55	227.11
941.85	227.11
942.15	227.16
942.45	227.15
942.75	227.15
943.04	227.14
943.34	227.16
943.64	227.15
943.94	227.14
944.24	227.15
944.54	227.16
944.84	227.14
945.13	227.12
945.43	227.10
945.73	227.11
946.03	227.12
946.33	227.10
946.62	227.10
946.92	227.13
947.22	227.14
947.52	227.19
947.82	227.20
948.11	227.18
948.41	227.16
948.71	227.15
949.01	227.20
949.31	227.19
949.60	227.21
949.90	227.22
950.20	227.22
950.50	227.19
950.79	227.19
951.09	227.21
951.39	227.20
951.69	227.19
951.98	227.21
952.28	227.17
952.58	227.17
952.87	227.16
953.17	227.15
953.47	227.14
953.76	227.12
954.06	227.11
954.36	227.09
954.66	227.08
954.95	227.06
955.25	227.03
955.55	227.01
955.84	226.99
956.14	226.98
956.44	226.99
956.73	227.00
957.03	227.02
957.32	227.02
957.62	227.01
957.92	227.04
958.21	227.01
958.51	227.13
958.81	227.14
959.10	227.16
959.40	227.19
959.69	227.20
959.99	227.24
960.29	227.23
960.58	227.24
960.88	227.29
961.17	227.31
961.47	227.32
961.76	227.33
962.06	227.36
962.36	227.36
962.65	227.37
962.95	227.36
963.24	227.33
963.54	227.32
963.83	227.33
964.13	227.32
964.42	227.33
964.72	227.23
965.01	227.21
965.31	227.19
965.60	227.15
965.90	227.23
966.19	227.19
966.49	227.20
966.78	227.19
967.08	227.18
967.37	227.19
967.67	227.19
967.96	227.20
968.26	227.17
968.55	227.19
968.85	227.21
969.14	227.22
969.43	227.22
969.73	227.20
970.02	227.21
970.32	227.19
970.61	227.17
970.91	227.15
971.20	227.14
971.49	227.10
971.79	227.12
972.08	227.00
972.38	227.01
972.67	227.00
972.96	227.01
973.26	226.99
973.55	227.01
973.85	226.98
974.14	226.98
974.43	227.01
974.73	226.95
975.02	226.92
975.31	226.93
975.61	226.93
975.90	226.95
976.19	226.93
976.49	226.93
976.78	226.92
977.07	226.92
977.37	226.95
977.66	227.02
977.95	227.01
978.24	227.08
978.54	227.08
978.83	227.09
979.12	227.12
979.42	227.09
979.71	227.06
980.00	227.04
980.29	227.04
980.59	227.03
980.88	227.06
981.17	227.06
981.46	227.05
981.76	227.07
982.05	227.09
982.34	227.11
982.63	227.12
982.93	227.13
983.22	227.18
983.51	227.18
983.80	227.14
984.09	227.13
984.39	227.11
984.68	227.10
984.97	227.09
985.26	227.08
985.55	227.09
985.85	227.09
986.14	227.11
986.43	227.11
986.72	227.10
987.01	227.07
987.30	227.09
987.59	227.10
987.89	227.08
988.18	227.06
988.47	227.06
988.76	227.06
989.05	227.03
989.34	227.01
989.63	227.02
989.92	227.04
990.22	227.04
990.51	227.04
990.80	227.02
991.09	227.01
991.38	227.03
991.67	227.06
991.96	227.05
992.25	227.05
992.54	227.04
992.83	227.02
993.12	227.04
993.41	227.04
993.70	227.04
993.99	227.06
994.28	227.04
994.58	227.08
994.87	227.06
995.16	227.10
995.45	227.09
995.74	227.06
996.03	227.07
996.32	227.08
996.61	227.13
996.90	227.16
997.19	227.18
997.48	227.21
997.77	227.14
998.06	227.16
998.34	227.15
998.63	227.16
998.92	227.17
999.21	227.20
999.50	227.19
999.79	227.15
1000.08	227.14
1000.37	227.16
1000.66	227.14
1000.95	227.16
1001.24	227.16
1001.53	227.18
1001.82	227.17
1002.11	227.14
1002.40	227.17
1002.68	227.16
1002.97	227.22
1003.26	227.19
1003.55	227.16
1003.84	227.22
1004.13	227.23
1004.42	227.23
1004.71	227.23
1004.99	227.22
1005.28	227.22
1005.57	227.22
1005.86	227.23
1006.15	227.25
1006.44	227.17
1006.72	227.17
1007.01	227.13
1007.30	227.11
1007.59	227.11
1007.88	227.13
1008.17	227.14
1008.45	227.12
1008.74	227.03
1009.03	226.99
1009.32	226.97
1009.60	226.96
1009.89	226.93
1010.18	226.90
1010.47	226.91
1010.76	226.93
1011.04	226.91
1011.33	226.92
1011.62	226.95
1011.91	226.96
1012.19	226.94
1012.48	226.98
1012.77	226.97
1013.05	227.05
1013.34	227.05
1013.63	227.03
1013.92	227.00
1014.20	226.98
1014.49	227.00
1014.78	227.00
1015.06	226.95
1015.35	226.96
1015.64	226.94
1015.92	226.94
1016.21	226.94
1016.50	226.94
1016.78	226.94
1017.07	226.95
1017.36	226.91
1017.64	226.86
1017.93	226.83
1018.22	226.84
1018.50	226.84
1018.79	226.82
1019.08	226.75
1019.36	226.75
1019.65	226.75
1019.93	226.79
1020.22	226.80
1020.51	226.79
1020.79	226.80
1021.08	227.07
1021.36	226.70
1021.65	226.36
1021.94	226.72
1022.22	226.72
1022.51	226.98
1022.79	227.15
1023.08	226.99
1023.36	227.45
1023.65	226.30
>>>>>End Processed Spectral Data<<<<<
