SpectraSuite Data File
++++++++++++++++++++++++++++++++++++
Date: Fri Feb 01 16:27:14 EST 2013
User: group
Dark Spectrum Present: No
Reference Spectrum Present: No
Number of Sampled Component Spectra: 1
Spectrometers: USB2E7196
Integration Time (usec): 35000 (USB2E7196)
Spectra Averaged: 100 (USB2E7196)
Boxcar Smoothing: 10 (USB2E7196)
Correct for Electrical Dark: No (USB2E7196)
Strobe/Lamp Enabled: No (USB2E7196)
Correct for Detector Non-linearity: No (USB2E7196)
Correct for Stray Light: No (USB2E7196)
Number of Pixels in Processed Spectrum: 2048
>>>>>Begin Processed Spectral Data<<<<<
339.09	0.00
339.48	214.21
339.86	216.27
340.24	216.64
340.63	218.86
341.01	220.76
341.39	220.99
341.78	222.27
342.16	223.86
342.54	223.97
342.93	212.55
343.31	223.28
343.69	223.82
344.07	224.24
344.46	224.69
344.84	225.04
345.22	225.27
345.60	225.56
345.99	225.75
346.37	225.88
346.75	225.99
347.13	226.03
347.52	226.08
347.90	226.16
348.28	226.18
348.66	226.25
349.05	226.24
349.43	226.30
349.81	226.33
350.19	226.34
350.57	226.43
350.96	226.50
351.34	226.59
351.72	226.69
352.10	226.82
352.48	226.87
352.87	226.93
353.25	227.00
353.63	227.03
354.01	227.10
354.39	227.18
354.77	227.29
355.15	227.43
355.54	227.49
355.92	227.52
356.30	227.59
356.68	227.69
357.06	227.74
357.44	227.78
357.82	227.84
358.20	227.90
358.58	227.93
358.97	227.96
359.35	228.02
359.73	228.04
360.11	228.07
360.49	228.13
360.87	228.16
361.25	228.21
361.63	228.28
362.01	228.31
362.39	228.29
362.77	228.28
363.15	228.29
363.53	228.34
363.91	228.37
364.29	228.37
364.67	228.31
365.05	228.37
365.43	228.35
365.81	228.37
366.19	228.46
366.57	228.49
366.95	228.48
367.33	228.48
367.71	228.48
368.09	228.49
368.47	228.51
368.85	228.50
369.23	228.49
369.61	228.44
369.99	228.43
370.37	228.44
370.75	228.46
371.13	228.39
371.51	228.34
371.89	228.30
372.27	228.28
372.65	228.24
373.03	228.15
373.41	228.11
373.78	228.05
374.16	227.90
374.54	227.82
374.92	227.75
375.30	227.68
375.68	227.62
376.06	227.54
376.44	227.45
376.82	227.41
377.19	227.38
377.57	227.30
377.95	227.24
378.33	227.15
378.71	227.02
379.09	226.99
379.47	226.97
379.84	226.90
380.22	226.80
380.60	226.71
380.98	226.69
381.36	226.65
381.73	226.56
382.11	226.53
382.49	226.44
382.87	226.40
383.25	226.38
383.62	226.43
384.00	226.35
384.38	226.30
384.76	226.25
385.13	226.23
385.51	226.18
385.89	226.12
386.27	226.09
386.64	226.08
387.02	226.01
387.40	225.93
387.78	225.88
388.15	225.85
388.53	225.80
388.91	225.76
389.29	225.71
389.66	225.72
390.04	225.71
390.42	225.72
390.79	225.70
391.17	225.64
391.55	225.52
391.92	225.52
392.30	225.49
392.68	225.47
393.05	225.45
393.43	225.46
393.81	225.46
394.18	225.44
394.56	225.41
394.94	225.45
395.31	225.45
395.69	225.52
396.06	225.61
396.44	225.68
396.82	225.69
397.19	225.76
397.57	225.80
397.95	225.84
398.32	225.87
398.70	225.94
399.07	226.07
399.45	226.11
399.82	226.18
400.20	226.26
400.58	226.35
400.95	226.42
401.33	226.51
401.70	226.67
402.08	226.78
402.45	226.88
402.83	226.99
403.20	227.12
403.58	227.20
403.95	227.29
404.33	227.40
404.71	227.53
405.08	227.73
405.46	227.83
405.83	228.00
406.21	228.12
406.58	228.27
406.96	228.38
407.33	228.56
407.70	228.76
408.08	229.03
408.45	229.23
408.83	229.45
409.20	229.65
409.58	229.81
409.95	230.08
410.33	230.36
410.70	230.60
411.08	230.88
411.45	231.18
411.82	231.48
412.20	231.84
412.57	232.25
412.95	232.53
413.32	232.94
413.69	233.31
414.07	233.78
414.44	234.22
414.82	234.68
415.19	235.25
415.56	235.78
415.94	236.33
416.31	236.95
416.68	237.53
417.06	238.23
417.43	238.93
417.81	239.70
418.18	240.47
418.55	241.29
418.93	242.18
419.30	243.14
419.67	244.04
420.04	244.96
420.42	245.93
420.79	247.10
421.16	248.23
421.54	249.44
421.91	250.65
422.28	251.91
422.66	253.27
423.03	254.56
423.40	255.85
423.77	257.23
424.15	258.64
424.52	260.13
424.89	261.73
425.26	263.27
425.64	264.69
426.01	266.24
426.38	267.90
426.75	269.55
427.13	271.23
427.50	273.06
427.87	274.96
428.24	276.86
428.61	278.61
428.99	280.55
429.36	282.64
429.73	284.70
430.10	286.75
430.47	288.81
430.85	290.89
431.22	293.19
431.59	295.56
431.96	297.82
432.33	300.28
432.70	302.66
433.08	305.42
433.45	308.04
433.82	310.66
434.19	313.58
434.56	316.36
434.93	318.98
435.30	321.56
435.68	324.48
436.05	327.29
436.42	330.09
436.79	332.60
437.16	335.28
437.53	338.07
437.90	340.85
438.27	343.55
438.64	346.37
439.01	348.93
439.38	351.16
439.75	353.30
440.13	355.80
440.50	358.16
440.87	360.07
441.24	361.99
441.61	364.14
441.98	365.57
442.35	367.35
442.72	369.25
443.09	371.05
443.46	372.01
443.83	372.57
444.20	373.03
444.57	373.85
444.94	374.16
445.31	374.50
445.68	374.84
446.05	374.91
446.42	374.56
446.79	374.13
447.16	373.69
447.53	373.36
447.90	372.22
448.27	371.05
448.64	369.44
449.01	368.33
449.37	366.36
449.74	364.50
450.11	362.27
450.48	359.78
450.85	357.29
451.22	355.14
451.59	353.19
451.96	351.29
452.33	348.71
452.70	346.38
453.07	343.56
453.43	340.70
453.80	337.97
454.17	335.30
454.54	332.76
454.91	330.08
455.28	327.43
455.65	324.98
456.02	322.53
456.38	320.39
456.75	317.75
457.12	315.53
457.49	313.30
457.86	311.14
458.23	309.33
458.59	307.28
458.96	305.18
459.33	303.29
459.70	301.45
460.07	299.96
460.43	298.22
460.80	296.62
461.17	295.17
461.54	293.66
461.91	292.24
462.27	290.81
462.64	289.55
463.01	288.19
463.38	286.86
463.74	285.51
464.11	284.37
464.48	283.35
464.85	282.26
465.21	281.39
465.58	280.47
465.95	279.36
466.32	278.45
466.68	277.60
467.05	276.70
467.42	275.79
467.78	274.87
468.15	273.97
468.52	273.34
468.88	272.51
469.25	271.74
469.62	271.12
469.98	270.44
470.35	269.81
470.72	269.21
471.08	268.56
471.45	268.00
471.82	267.47
472.18	266.83
472.55	266.40
472.92	265.90
473.28	265.43
473.65	264.96
474.02	264.52
474.38	264.16
474.75	263.86
475.11	263.50
475.48	263.23
475.85	263.03
476.21	262.75
476.58	262.57
476.94	262.44
477.31	262.27
477.67	262.15
478.04	262.08
478.41	262.02
478.77	262.10
479.14	262.05
479.50	262.01
479.87	262.12
480.23	262.18
480.60	262.29
480.96	262.42
481.33	262.65
481.69	262.84
482.06	263.02
482.42	263.24
482.79	263.54
483.15	263.87
483.52	264.26
483.88	264.67
484.25	265.04
484.61	265.50
484.98	265.94
485.34	266.50
485.71	267.06
486.07	267.69
486.44	268.25
486.80	268.95
487.17	269.73
487.53	270.56
487.90	271.42
488.26	272.31
488.62	273.33
488.99	274.31
489.35	275.38
489.72	276.50
490.08	277.69
490.44	278.92
490.81	280.24
491.17	281.59
491.54	283.06
491.90	284.63
492.26	286.27
492.63	288.02
492.99	289.79
493.36	291.68
493.72	293.77
494.08	295.88
494.45	298.11
494.81	300.46
495.17	302.84
495.54	305.44
495.90	308.14
496.26	310.93
496.63	313.91
496.99	317.04
497.35	320.35
497.72	323.73
498.08	327.28
498.44	330.95
498.80	334.89
499.17	338.89
499.53	343.06
499.89	347.39
500.26	351.90
500.62	356.60
500.98	361.57
501.34	366.64
501.71	371.94
502.07	377.45
502.43	383.09
502.79	388.95
503.16	394.99
503.52	401.31
503.88	407.74
504.24	414.39
504.60	421.29
504.97	428.44
505.33	435.80
505.69	443.54
506.05	451.36
506.41	459.26
506.78	467.49
507.14	475.95
507.50	484.71
507.86	493.74
508.22	502.96
508.59	512.14
508.95	521.73
509.31	531.53
509.67	541.62
510.03	551.90
510.39	562.48
510.75	573.31
511.12	584.20
511.48	595.49
511.84	606.92
512.20	618.41
512.56	630.30
512.92	642.47
513.28	654.74
513.64	667.20
514.00	679.88
514.37	692.75
514.73	705.73
515.09	718.69
515.45	731.95
515.81	745.53
516.17	759.48
516.53	773.55
516.89	787.73
517.25	801.81
517.61	816.20
517.97	830.58
518.33	844.95
518.69	859.70
519.05	874.65
519.41	889.84
519.77	905.45
520.13	920.87
520.49	936.14
520.85	951.54
521.21	967.25
521.57	983.47
521.93	999.20
522.29	1015.47
522.65	1031.69
523.01	1047.90
523.37	1063.78
523.73	1079.93
524.09	1095.92
524.45	1112.18
524.81	1128.80
525.17	1145.58
525.53	1162.47
525.89	1179.34
526.25	1196.08
526.61	1212.35
526.97	1228.91
527.33	1245.25
527.68	1261.73
528.04	1278.16
528.40	1294.57
528.76	1311.39
529.12	1327.89
529.48	1344.74
529.84	1360.74
530.20	1377.41
530.56	1394.35
530.91	1411.74
531.27	1428.37
531.63	1444.77
531.99	1461.28
532.35	1477.07
532.71	1492.83
533.07	1508.93
533.42	1524.76
533.78	1540.74
534.14	1557.02
534.50	1572.26
534.86	1587.98
535.21	1603.17
535.57	1619.00
535.93	1634.44
536.29	1649.19
536.65	1664.02
537.00	1678.58
537.36	1693.86
537.72	1708.22
538.08	1722.43
538.44	1736.10
538.79	1749.92
539.15	1763.60
539.51	1777.19
539.87	1791.41
540.22	1805.13
540.58	1818.91
540.94	1832.15
541.29	1844.96
541.65	1857.41
542.01	1870.62
542.37	1882.93
542.72	1895.21
543.08	1906.90
543.44	1919.27
543.79	1930.44
544.15	1941.45
544.51	1953.02
544.87	1963.89
545.22	1974.49
545.58	1984.65
545.94	1994.25
546.29	2004.08
546.65	2013.74
547.01	2022.86
547.36	2031.58
547.72	2040.01
548.07	2047.67
548.43	2055.73
548.79	2063.73
549.14	2071.26
549.50	2078.42
549.86	2085.95
550.21	2093.19
550.57	2100.30
550.92	2106.89
551.28	2113.99
551.64	2121.08
551.99	2127.48
552.35	2133.69
552.70	2139.96
553.06	2146.05
553.41	2152.52
553.77	2158.53
554.13	2164.64
554.48	2170.92
554.84	2176.40
555.19	2181.64
555.55	2186.87
555.90	2191.27
556.26	2195.96
556.61	2200.63
556.97	2205.01
557.32	2209.03
557.68	2213.25
558.03	2217.46
558.39	2221.03
558.74	2225.54
559.10	2229.35
559.45	2233.08
559.81	2237.31
560.16	2241.09
560.52	2244.29
560.87	2247.59
561.23	2250.11
561.58	2253.08
561.94	2255.53
562.29	2257.87
562.64	2260.37
563.00	2262.86
563.35	2266.39
563.71	2269.65
564.06	2272.91
564.42	2275.71
564.77	2278.36
565.12	2280.62
565.48	2282.76
565.83	2284.68
566.19	2286.02
566.54	2286.94
566.89	2288.07
567.25	2288.65
567.60	2289.85
567.96	2291.59
568.31	2292.48
568.66	2293.76
569.02	2294.39
569.37	2294.68
569.72	2295.53
570.08	2295.82
570.43	2296.01
570.78	2295.57
571.14	2294.04
571.49	2292.83
571.84	2292.61
572.20	2291.62
572.55	2290.49
572.90	2288.80
573.26	2287.52
573.61	2286.04
573.96	2284.27
574.31	2281.44
574.67	2278.56
575.02	2275.14
575.37	2271.75
575.72	2268.07
576.08	2264.69
576.43	2261.32
576.78	2257.81
577.13	2254.79
577.49	2251.76
577.84	2248.38
578.19	2244.52
578.54	2241.11
578.90	2236.93
579.25	2231.40
579.60	2226.43
579.95	2221.61
580.30	2216.74
580.66	2211.62
581.01	2206.65
581.36	2201.79
581.71	2197.74
582.06	2193.30
582.42	2188.91
582.77	2183.77
583.12	2179.18
583.47	2174.63
583.82	2169.70
584.17	2164.52
584.53	2159.03
584.88	2153.51
585.23	2147.80
585.58	2142.41
585.93	2136.95
586.28	2132.21
586.63	2127.32
586.98	2122.35
587.34	2117.72
587.69	2113.03
588.04	2107.85
588.39	2102.25
588.74	2095.87
589.09	2089.67
589.44	2083.00
589.79	2076.99
590.14	2071.34
590.49	2064.92
590.84	2058.56
591.19	2052.63
591.54	2046.14
591.89	2039.01
592.25	2032.31
592.60	2025.03
592.95	2017.69
593.30	2010.33
593.65	2002.77
594.00	1995.84
594.35	1988.60
594.70	1980.63
595.05	1973.43
595.40	1966.11
595.75	1958.52
596.10	1952.45
596.45	1945.77
596.80	1939.71
597.15	1933.23
597.50	1926.15
597.85	1919.70
598.19	1913.08
598.54	1906.03
598.89	1899.39
599.24	1893.42
599.59	1886.79
599.94	1880.81
600.29	1874.52
600.64	1868.01
600.99	1860.61
601.34	1853.69
601.69	1846.73
602.04	1839.95
602.39	1832.62
602.74	1825.84
603.08	1819.15
603.43	1812.34
603.78	1805.11
604.13	1797.86
604.48	1790.55
604.83	1783.82
605.18	1777.05
605.53	1769.11
605.87	1761.21
606.22	1754.21
606.57	1746.23
606.92	1738.84
607.27	1731.53
607.62	1724.55
607.96	1717.36
608.31	1710.87
608.66	1703.36
609.01	1695.87
609.36	1688.21
609.70	1680.09
610.05	1672.11
610.40	1664.58
610.75	1656.35
611.10	1648.53
611.44	1640.12
611.79	1632.17
612.14	1623.55
612.49	1614.30
612.83	1605.97
613.18	1597.84
613.53	1589.64
613.88	1581.09
614.22	1572.91
614.57	1564.35
614.92	1556.32
615.27	1548.79
615.61	1540.37
615.96	1532.31
616.31	1524.75
616.65	1517.35
617.00	1509.89
617.35	1502.20
617.70	1493.69
618.04	1485.25
618.39	1477.15
618.74	1469.55
619.08	1461.29
619.43	1453.58
619.78	1446.59
620.12	1439.43
620.47	1431.87
620.82	1423.79
621.16	1416.49
621.51	1408.81
621.85	1401.22
622.20	1392.69
622.55	1384.16
622.89	1376.38
623.24	1368.66
623.59	1361.16
623.93	1353.69
624.28	1346.45
624.62	1338.99
624.97	1331.83
625.32	1324.94
625.66	1317.93
626.01	1310.77
626.35	1303.20
626.70	1295.52
627.04	1287.83
627.39	1279.89
627.73	1272.53
628.08	1265.48
628.43	1258.16
628.77	1250.76
629.12	1243.14
629.46	1235.91
629.81	1228.53
630.15	1221.21
630.50	1213.81
630.84	1205.64
631.19	1197.68
631.53	1190.21
631.88	1182.58
632.22	1175.04
632.57	1167.76
632.91	1160.21
633.26	1152.72
633.60	1145.33
633.95	1138.14
634.29	1131.18
634.64	1124.61
634.98	1117.19
635.32	1110.05
635.67	1103.33
636.01	1096.73
636.36	1089.96
636.70	1083.45
637.05	1076.97
637.39	1070.56
637.73	1064.08
638.08	1058.19
638.42	1052.19
638.77	1045.69
639.11	1039.11
639.45	1032.65
639.80	1026.07
640.14	1019.66
640.49	1013.15
640.83	1006.83
641.17	1000.63
641.52	994.17
641.86	987.67
642.20	981.78
642.55	975.51
642.89	969.06
643.23	962.49
643.58	956.68
643.92	950.55
644.26	944.33
644.61	938.22
644.95	932.21
645.29	925.63
645.64	918.81
645.98	912.44
646.32	906.61
646.66	900.59
647.01	894.72
647.35	888.93
647.69	883.12
648.04	877.66
648.38	871.96
648.72	866.01
649.06	859.92
649.41	854.08
649.75	848.12
650.09	842.18
650.43	836.36
650.78	830.17
651.12	824.14
651.46	818.47
651.80	812.77
652.14	807.42
652.49	802.04
652.83	797.01
653.17	791.35
653.51	785.62
653.85	780.23
654.20	774.53
654.54	768.55
654.88	762.80
655.22	756.92
655.56	751.18
655.90	745.74
656.25	740.55
656.59	735.12
656.93	730.08
657.27	724.92
657.61	719.54
657.95	714.56
658.29	709.47
658.64	704.26
658.98	698.94
659.32	693.45
659.66	688.27
660.00	682.88
660.34	677.93
660.68	673.00
661.02	667.96
661.36	663.32
661.70	658.83
662.05	654.50
662.39	650.16
662.73	645.67
663.07	641.30
663.41	636.81
663.75	632.36
664.09	627.76
664.43	623.36
664.77	619.23
665.11	614.88
665.45	610.81
665.79	606.75
666.13	602.62
666.47	598.46
666.81	594.26
667.15	590.12
667.49	586.20
667.83	582.40
668.17	578.48
668.51	574.37
668.85	570.39
669.19	566.51
669.53	562.62
669.87	558.72
670.21	554.97
670.55	551.32
670.89	547.88
671.23	544.43
671.57	540.93
671.91	537.36
672.25	533.86
672.58	530.35
672.92	526.95
673.26	523.81
673.60	520.69
673.94	517.64
674.28	514.77
674.62	511.78
674.96	508.61
675.30	505.67
675.64	502.74
675.97	499.94
676.31	497.04
676.65	494.14
676.99	491.47
677.33	488.63
677.67	485.76
678.01	482.70
678.34	479.72
678.68	476.82
679.02	474.02
679.36	471.19
679.70	468.44
680.04	465.58
680.37	462.66
680.71	459.84
681.05	457.20
681.39	454.47
681.73	451.84
682.06	449.34
682.40	446.80
682.74	444.26
683.08	441.66
683.42	439.06
683.75	436.55
684.09	434.00
684.43	431.47
684.77	429.02
685.10	426.65
685.44	424.34
685.78	422.05
686.12	419.79
686.45	417.56
686.79	415.25
687.13	413.09
687.46	410.94
687.80	408.79
688.14	406.54
688.48	404.47
688.81	402.23
689.15	400.12
689.49	397.97
689.82	395.92
690.16	393.84
690.50	391.89
690.83	389.96
691.17	387.95
691.51	386.07
691.84	384.29
692.18	382.37
692.52	380.39
692.85	378.48
693.19	376.59
693.52	374.77
693.86	372.95
694.20	371.18
694.53	369.35
694.87	367.49
695.21	365.70
695.54	363.86
695.88	362.14
696.21	360.43
696.55	358.74
696.88	357.01
697.22	355.35
697.56	353.73
697.89	352.04
698.23	350.43
698.56	348.80
698.90	347.15
699.23	345.56
699.57	344.09
699.90	342.54
700.24	340.99
700.58	339.47
700.91	337.95
701.25	336.49
701.58	335.18
701.92	333.88
702.25	332.53
702.59	331.15
702.92	329.81
703.26	328.49
703.59	327.20
703.93	326.04
704.26	324.79
704.60	323.47
704.93	322.22
705.26	321.00
705.60	319.84
705.93	318.73
706.27	317.64
706.60	316.50
706.94	315.41
707.27	314.31
707.61	313.20
707.94	312.18
708.27	311.07
708.61	309.95
708.94	308.86
709.28	307.87
709.61	306.90
709.94	305.93
710.28	304.93
710.61	303.94
710.95	302.86
711.28	301.93
711.61	300.98
711.95	300.08
712.28	299.14
712.61	298.17
712.95	297.20
713.28	296.30
713.61	295.40
713.95	294.51
714.28	293.64
714.61	292.79
714.95	291.95
715.28	291.10
715.61	290.24
715.95	289.38
716.28	288.49
716.61	287.69
716.95	286.88
717.28	286.12
717.61	285.36
717.94	284.61
718.28	283.81
718.61	283.07
718.94	282.34
719.27	281.68
719.61	280.99
719.94	280.33
720.27	279.62
720.60	278.98
720.94	278.30
721.27	277.73
721.60	277.16
721.93	276.56
722.27	276.01
722.60	275.45
722.93	274.88
723.26	274.34
723.59	273.77
723.93	273.22
724.26	272.66
724.59	272.09
724.92	271.58
725.25	271.07
725.59	270.55
725.92	270.05
726.25	269.50
726.58	269.04
726.91	268.55
727.24	268.06
727.57	267.58
727.91	267.12
728.24	266.65
728.57	266.17
728.90	265.74
729.23	265.23
729.56	264.80
729.89	264.32
730.22	263.83
730.55	263.34
730.89	262.90
731.22	262.45
731.55	262.03
731.88	261.58
732.21	261.17
732.54	260.76
732.87	260.33
733.20	259.92
733.53	259.52
733.86	259.14
734.19	258.77
734.52	258.40
734.85	258.07
735.18	257.66
735.51	257.29
735.84	256.92
736.17	256.61
736.50	256.20
736.83	255.95
737.16	255.67
737.49	255.36
737.82	255.01
738.15	254.68
738.48	254.36
738.81	254.05
739.14	253.74
739.47	253.46
739.80	253.15
740.13	252.85
740.46	252.54
740.79	252.21
741.12	251.90
741.45	251.59
741.78	251.27
742.11	250.99
742.44	250.68
742.77	250.38
743.10	250.09
743.43	249.80
743.75	249.46
744.08	249.32
744.41	249.07
744.74	248.82
745.07	248.55
745.40	248.32
745.73	248.11
746.06	247.83
746.39	247.54
746.71	247.28
747.04	247.04
747.37	246.79
747.70	246.57
748.03	246.31
748.36	246.09
748.68	245.85
749.01	245.61
749.34	245.39
749.67	245.17
750.00	244.92
750.33	244.82
750.65	244.59
750.98	244.22
751.31	243.98
751.64	243.75
751.97	243.60
752.29	243.38
752.62	243.11
752.95	242.91
753.28	242.74
753.60	242.52
753.93	242.34
754.26	242.15
754.59	241.93
754.91	241.77
755.24	241.57
755.57	241.37
755.90	241.16
756.22	240.96
756.55	240.74
756.88	240.56
757.20	240.28
757.53	240.07
757.86	239.89
758.19	239.73
758.51	239.60
758.84	239.37
759.17	239.21
759.49	239.07
759.82	238.95
760.15	238.76
760.47	238.62
760.80	238.43
761.13	238.29
761.45	238.16
761.78	237.99
762.11	237.85
762.43	237.70
762.76	237.57
763.08	237.43
763.41	237.29
763.74	237.16
764.06	237.03
764.39	236.91
764.71	236.80
765.04	236.67
765.37	236.50
765.69	236.39
766.02	236.21
766.34	236.07
766.67	235.92
767.00	235.82
767.32	235.73
767.65	235.70
767.97	235.55
768.30	235.40
768.62	235.26
768.95	235.13
769.27	235.01
769.60	234.91
769.92	234.81
770.25	234.71
770.57	234.61
770.90	234.50
771.22	234.36
771.55	234.28
771.87	234.16
772.20	234.07
772.52	234.04
772.85	234.07
773.17	233.97
773.50	233.86
773.82	233.76
774.15	233.64
774.47	233.49
774.80	233.43
775.12	233.37
775.45	233.29
775.77	233.19
776.09	233.12
776.42	233.03
776.74	232.95
777.07	232.87
777.39	232.80
777.72	232.71
778.04	232.68
778.36	232.59
778.69	232.56
779.01	232.51
779.33	232.35
779.66	232.17
779.98	232.10
780.31	232.01
780.63	231.97
780.95	231.92
781.28	231.83
781.60	231.78
781.92	231.68
782.25	231.62
782.57	231.59
782.89	231.53
783.22	231.47
783.54	231.41
783.86	231.35
784.19	231.26
784.51	231.26
784.83	231.19
785.16	231.12
785.48	231.06
785.80	231.00
786.12	230.99
786.45	230.93
786.77	230.89
787.09	230.83
787.42	230.78
787.74	230.72
788.06	230.68
788.38	230.60
788.71	230.57
789.03	230.53
789.35	230.50
789.67	230.46
789.99	230.41
790.32	230.34
790.64	230.30
790.96	230.31
791.28	230.22
791.61	230.18
791.93	230.15
792.25	230.11
792.57	230.13
792.89	230.06
793.21	230.01
793.54	230.01
793.86	229.99
794.18	229.95
794.50	229.91
794.82	229.88
795.14	229.86
795.47	229.87
795.79	229.83
796.11	229.76
796.43	229.72
796.75	229.69
797.07	229.67
797.39	229.63
797.71	229.53
798.04	229.51
798.36	229.49
798.68	229.43
799.00	229.42
799.32	229.31
799.64	229.30
799.96	229.29
800.28	229.27
800.60	229.24
800.92	229.24
801.24	229.19
801.56	229.15
801.89	229.09
802.21	229.07
802.53	229.02
802.85	229.01
803.17	229.01
803.49	228.97
803.81	228.94
804.13	228.90
804.45	228.88
804.77	228.84
805.09	228.79
805.41	228.75
805.73	228.69
806.05	228.67
806.37	228.61
806.69	228.56
807.01	228.51
807.33	228.44
807.65	228.37
807.97	228.41
808.28	228.38
808.60	228.38
808.92	228.33
809.24	228.36
809.56	228.33
809.88	228.31
810.20	228.29
810.52	228.31
810.84	228.29
811.16	228.26
811.48	228.24
811.80	228.24
812.12	228.22
812.43	228.22
812.75	228.17
813.07	228.14
813.39	228.14
813.71	228.09
814.03	228.08
814.35	228.07
814.67	227.99
814.98	227.97
815.30	227.94
815.62	227.90
815.94	227.80
816.26	227.84
816.58	227.76
816.89	227.74
817.21	227.68
817.53	227.66
817.85	227.63
818.17	227.59
818.48	227.57
818.80	227.60
819.12	227.57
819.44	227.54
819.76	227.52
820.07	227.49
820.39	227.45
820.71	227.45
821.03	227.42
821.34	227.40
821.66	227.42
821.98	227.41
822.30	227.38
822.61	227.44
822.93	227.36
823.25	227.37
823.57	227.37
823.88	227.37
824.20	227.36
824.52	227.38
824.83	227.36
825.15	227.31
825.47	227.26
825.79	227.28
826.10	227.30
826.42	227.32
826.74	227.32
827.05	227.38
827.37	227.37
827.69	227.36
828.00	227.39
828.32	227.33
828.64	227.32
828.95	227.36
829.27	227.32
829.58	227.32
829.90	227.33
830.22	227.30
830.53	227.27
830.85	227.27
831.17	227.23
831.48	227.24
831.80	227.25
832.11	227.21
832.43	227.17
832.75	227.15
833.06	227.21
833.38	227.18
833.69	227.15
834.01	227.11
834.32	227.10
834.64	227.06
834.96	227.07
835.27	227.04
835.59	227.02
835.90	227.00
836.22	226.99
836.53	226.96
836.85	226.95
837.16	227.04
837.48	227.00
837.79	227.04
838.11	227.05
838.42	227.09
838.74	227.13
839.05	227.12
839.37	227.13
839.68	227.04
840.00	227.02
840.31	227.01
840.63	227.02
840.94	227.02
841.26	226.99
841.57	226.99
841.88	227.00
842.20	226.98
842.51	226.97
842.83	226.96
843.14	227.02
843.46	227.04
843.77	226.99
844.08	226.97
844.40	226.91
844.71	226.88
845.03	226.82
845.34	226.79
845.65	226.77
845.97	226.71
846.28	226.73
846.60	226.74
846.91	226.70
847.22	226.68
847.54	226.70
847.85	226.68
848.16	226.66
848.48	226.64
848.79	226.66
849.10	226.64
849.42	226.64
849.73	226.56
850.04	226.53
850.36	226.47
850.67	226.49
850.98	226.47
851.30	226.48
851.61	226.46
851.92	226.44
852.23	226.47
852.55	226.50
852.86	226.49
853.17	226.46
853.49	226.50
853.80	226.52
854.11	226.51
854.42	226.53
854.74	226.51
855.05	226.50
855.36	226.44
855.67	226.46
855.99	226.45
856.30	226.54
856.61	226.52
856.92	226.53
857.23	226.53
857.55	226.52
857.86	226.49
858.17	226.51
858.48	226.52
858.79	226.49
859.11	226.46
859.42	226.46
859.73	226.45
860.04	226.44
860.35	226.39
860.66	226.35
860.98	226.35
861.29	226.36
861.60	226.39
861.91	226.41
862.22	226.36
862.53	226.37
862.84	226.26
863.16	226.30
863.47	226.30
863.78	226.33
864.09	226.35
864.40	226.36
864.71	226.39
865.02	226.40
865.33	226.41
865.64	226.42
865.95	226.44
866.27	226.52
866.58	226.53
866.89	226.59
867.20	226.57
867.51	226.55
867.82	226.54
868.13	226.59
868.44	226.57
868.75	226.61
869.06	226.63
869.37	226.64
869.68	226.61
869.99	226.58
870.30	226.54
870.61	226.59
870.92	226.58
871.23	226.57
871.54	226.55
871.85	226.56
872.16	226.56
872.47	226.55
872.78	226.48
873.09	226.50
873.40	226.47
873.71	226.49
874.02	226.52
874.33	226.52
874.64	226.47
874.95	226.50
875.26	226.46
875.56	226.45
875.87	226.43
876.18	226.42
876.49	226.55
876.80	226.57
877.11	226.54
877.42	226.56
877.73	226.58
878.04	226.57
878.35	226.57
878.66	226.60
878.96	226.56
879.27	226.58
879.58	226.55
879.89	226.53
880.20	226.57
880.51	226.58
880.82	226.60
881.12	226.58
881.43	226.54
881.74	226.55
882.05	226.52
882.36	226.55
882.67	226.57
882.97	226.47
883.28	226.45
883.59	226.41
883.90	226.39
884.21	226.37
884.51	226.38
884.82	226.39
885.13	226.37
885.44	226.40
885.74	226.38
886.05	226.39
886.36	226.38
886.67	226.34
886.98	226.37
887.28	226.35
887.59	226.35
887.90	226.38
888.20	226.40
888.51	226.42
888.82	226.39
889.13	226.39
889.43	226.45
889.74	226.44
890.05	226.44
890.35	226.46
890.66	226.46
890.97	226.45
891.28	226.38
891.58	226.39
891.89	226.36
892.20	226.32
892.50	226.31
892.81	226.32
893.12	226.30
893.42	226.25
893.73	226.24
894.04	226.25
894.34	226.20
894.65	226.17
894.95	226.15
895.26	226.15
895.57	226.22
895.87	226.09
896.18	226.11
896.48	226.09
896.79	226.07
897.10	226.06
897.40	226.03
897.71	226.04
898.01	225.98
898.32	226.00
898.63	226.03
898.93	226.00
899.24	225.98
899.54	225.97
899.85	225.96
900.15	225.97
900.46	225.97
900.76	226.00
901.07	226.01
901.38	226.03
901.68	226.07
901.99	226.00
902.29	226.03
902.60	226.03
902.90	226.09
903.21	226.08
903.51	226.07
903.82	226.09
904.12	226.08
904.43	226.11
904.73	226.11
905.03	226.14
905.34	226.23
905.64	226.24
905.95	226.21
906.25	226.22
906.56	226.19
906.86	226.17
907.17	226.18
907.47	226.17
907.77	226.15
908.08	226.12
908.38	226.10
908.69	226.09
908.99	226.12
909.30	226.11
909.60	226.12
909.90	226.13
910.21	226.11
910.51	226.13
910.81	226.15
911.12	226.14
911.42	226.14
911.73	226.05
912.03	226.07
912.33	226.09
912.64	226.08
912.94	226.10
913.24	226.07
913.55	226.05
913.85	226.05
914.15	226.05
914.46	226.05
914.76	226.06
915.06	226.07
915.37	226.03
915.67	226.00
915.97	226.01
916.27	225.98
916.58	225.99
916.88	225.97
917.18	225.95
917.49	226.04
917.79	226.02
918.09	226.05
918.39	226.04
918.70	226.06
919.00	226.08
919.30	226.13
919.60	226.15
919.91	226.13
920.21	226.15
920.51	226.14
920.81	226.11
921.12	226.14
921.42	226.15
921.72	226.17
922.02	226.20
922.32	226.22
922.63	226.26
922.93	226.29
923.23	226.31
923.53	226.29
923.83	226.22
924.13	226.23
924.44	226.23
924.74	226.25
925.04	226.27
925.34	226.25
925.64	226.17
925.94	226.17
926.24	226.24
926.55	226.22
926.85	226.26
927.15	226.27
927.45	226.25
927.75	226.26
928.05	226.24
928.35	226.23
928.65	226.22
928.95	226.22
929.26	226.19
929.56	226.19
929.86	226.18
930.16	226.17
930.46	226.15
930.76	226.16
931.06	226.13
931.36	226.09
931.66	226.09
931.96	226.13
932.26	226.13
932.56	226.07
932.86	226.07
933.16	226.05
933.46	226.03
933.76	226.04
934.06	226.06
934.36	226.11
934.66	226.10
934.96	226.12
935.26	226.12
935.56	226.13
935.86	226.09
936.16	226.08
936.46	226.06
936.76	226.04
937.06	226.03
937.36	226.05
937.66	226.05
937.96	226.05
938.26	226.01
938.56	226.02
938.86	226.05
939.16	226.09
939.46	226.09
939.76	226.11
940.06	226.08
940.35	226.04
940.65	225.99
940.95	225.98
941.25	225.92
941.55	225.93
941.85	225.92
942.15	225.93
942.45	225.96
942.75	225.97
943.04	225.97
943.34	225.98
943.64	225.95
943.94	225.98
944.24	225.97
944.54	225.98
944.84	225.97
945.13	225.94
945.43	225.87
945.73	225.87
946.03	225.86
946.33	225.88
946.62	225.84
946.92	225.85
947.22	225.84
947.52	225.83
947.82	225.81
948.11	225.81
948.41	225.81
948.71	225.79
949.01	225.79
949.31	225.79
949.60	225.75
949.90	225.75
950.20	225.69
950.50	225.69
950.79	225.65
951.09	225.64
951.39	225.65
951.69	225.71
951.98	225.71
952.28	225.70
952.58	225.69
952.87	225.71
953.17	225.69
953.47	225.68
953.76	225.72
954.06	225.72
954.36	225.69
954.66	225.68
954.95	225.71
955.25	225.68
955.55	225.70
955.84	225.75
956.14	225.76
956.44	225.78
956.73	225.78
957.03	225.80
957.32	225.81
957.62	225.81
957.92	225.77
958.21	225.74
958.51	225.86
958.81	225.85
959.10	225.83
959.40	225.88
959.69	225.89
959.99	225.91
960.29	225.89
960.58	225.93
960.88	225.98
961.17	225.95
961.47	226.00
961.76	225.99
962.06	225.99
962.36	225.98
962.65	226.00
962.95	226.01
963.24	226.02
963.54	226.01
963.83	226.01
964.13	226.06
964.42	226.05
964.72	225.97
965.01	225.98
965.31	225.99
965.60	225.94
965.90	226.01
966.19	225.98
966.49	226.02
966.78	226.01
967.08	226.00
967.37	226.02
967.67	226.03
967.96	226.03
968.26	226.00
968.55	226.02
968.85	226.01
969.14	226.03
969.43	226.00
969.73	226.03
970.02	225.99
970.32	225.96
970.61	225.96
970.91	225.91
971.20	225.92
971.49	225.89
971.79	225.89
972.08	225.83
972.38	225.81
972.67	225.78
972.96	225.78
973.26	225.72
973.55	225.72
973.85	225.68
974.14	225.67
974.43	225.69
974.73	225.65
975.02	225.64
975.31	225.60
975.61	225.63
975.90	225.58
976.19	225.59
976.49	225.62
976.78	225.63
977.07	225.61
977.37	225.60
977.66	225.61
977.95	225.60
978.24	225.58
978.54	225.65
978.83	225.62
979.12	225.60
979.42	225.64
979.71	225.62
980.00	225.63
980.29	225.64
980.59	225.64
980.88	225.67
981.17	225.68
981.46	225.70
981.76	225.70
982.05	225.74
982.34	225.76
982.63	225.75
982.93	225.77
983.22	225.83
983.51	225.84
983.80	225.89
984.09	225.90
984.39	225.88
984.68	225.87
984.97	225.90
985.26	225.91
985.55	225.89
985.85	225.90
986.14	225.93
986.43	225.95
986.72	225.93
987.01	225.89
987.30	225.87
987.59	225.84
987.89	225.87
988.18	225.82
988.47	225.78
988.76	225.75
989.05	225.72
989.34	225.68
989.63	225.74
989.92	225.71
990.22	225.66
990.51	225.68
990.80	225.66
991.09	225.68
991.38	225.69
991.67	225.68
991.96	225.67
992.25	225.69
992.54	225.63
992.83	225.66
993.12	225.66
993.41	225.69
993.70	225.79
993.99	225.78
994.28	225.84
994.58	225.86
994.87	225.91
995.16	225.93
995.45	225.95
995.74	225.89
996.03	225.95
996.32	226.03
996.61	226.08
996.90	226.12
997.19	226.13
997.48	226.13
997.77	226.17
998.06	226.17
998.34	226.17
998.63	226.20
998.92	226.21
999.21	226.25
999.50	226.26
999.79	226.22
1000.08	226.21
1000.37	226.19
1000.66	226.20
1000.95	226.20
1001.24	226.21
1001.53	226.21
1001.82	226.24
1002.11	226.19
1002.40	226.17
1002.68	226.19
1002.97	226.25
1003.26	226.24
1003.55	226.23
1003.84	226.21
1004.13	226.27
1004.42	226.23
1004.71	226.24
1004.99	226.21
1005.28	226.22
1005.57	226.23
1005.86	226.20
1006.15	226.19
1006.44	226.19
1006.72	226.21
1007.01	226.20
1007.30	226.21
1007.59	226.20
1007.88	226.19
1008.17	226.20
1008.45	226.17
1008.74	226.13
1009.03	226.06
1009.32	226.03
1009.60	226.04
1009.89	226.03
1010.18	225.99
1010.47	226.01
1010.76	226.02
1011.04	226.04
1011.33	226.04
1011.62	226.01
1011.91	226.05
1012.19	226.07
1012.48	226.06
1012.77	226.05
1013.05	226.07
1013.34	226.08
1013.63	226.10
1013.92	226.12
1014.20	226.13
1014.49	226.15
1014.78	226.16
1015.06	226.13
1015.35	226.15
1015.64	226.12
1015.92	226.13
1016.21	226.13
1016.50	226.08
1016.78	226.08
1017.07	226.06
1017.36	226.02
1017.64	226.00
1017.93	225.99
1018.22	225.97
1018.50	225.97
1018.79	225.92
1019.08	225.87
1019.36	225.85
1019.65	225.81
1019.93	225.80
1020.22	225.80
1020.51	225.82
1020.79	225.80
1021.08	226.01
1021.36	225.60
1021.65	225.50
1021.94	225.46
1022.22	226.00
1022.51	225.40
1022.79	226.21
1023.08	225.92
1023.36	226.93
1023.65	225.66
>>>>>End Processed Spectral Data<<<<<
