SpectraSuite Data File
++++++++++++++++++++++++++++++++++++
Date: Fri Feb 01 14:55:31 EST 2013
User: group
Dark Spectrum Present: No
Reference Spectrum Present: No
Number of Sampled Component Spectra: 1
Spectrometers: USB2E7196
Integration Time (usec): 35000 (USB2E7196)
Spectra Averaged: 100 (USB2E7196)
Boxcar Smoothing: 10 (USB2E7196)
Correct for Electrical Dark: No (USB2E7196)
Strobe/Lamp Enabled: No (USB2E7196)
Correct for Detector Non-linearity: No (USB2E7196)
Correct for Stray Light: No (USB2E7196)
Number of Pixels in Processed Spectrum: 2048
>>>>>Begin Processed Spectral Data<<<<<
339.09	0.00
339.48	215.62
339.86	217.03
340.24	218.93
340.63	219.93
341.01	221.92
341.39	222.06
341.78	223.37
342.16	224.74
342.54	225.03
342.93	213.64
343.31	224.43
343.69	224.95
344.07	225.39
344.46	225.75
344.84	226.09
345.22	226.33
345.60	226.58
345.99	226.76
346.37	226.87
346.75	226.96
347.13	227.02
347.52	227.04
347.90	227.11
348.28	227.11
348.66	227.17
349.05	227.15
349.43	227.18
349.81	227.20
350.19	227.26
350.57	227.30
350.96	227.40
351.34	227.46
351.72	227.52
352.10	227.61
352.48	227.70
352.87	227.77
353.25	227.85
353.63	227.93
354.01	228.01
354.39	228.10
354.77	228.18
355.15	228.28
355.54	228.35
355.92	228.37
356.30	228.47
356.68	228.59
357.06	228.65
357.44	228.73
357.82	228.81
358.20	228.89
358.58	228.95
358.97	229.03
359.35	229.10
359.73	229.16
360.11	229.23
360.49	229.30
360.87	229.35
361.25	229.40
361.63	229.47
362.01	229.50
362.39	229.54
362.77	229.60
363.15	229.62
363.53	229.62
363.91	229.64
364.29	229.62
364.67	229.51
365.05	229.50
365.43	229.51
365.81	229.51
366.19	229.51
366.57	229.57
366.95	229.54
367.33	229.52
367.71	229.53
368.09	229.53
368.47	229.48
368.85	229.46
369.23	229.45
369.61	229.35
369.99	229.35
370.37	229.31
370.75	229.30
371.13	229.24
371.51	229.19
371.89	229.15
372.27	229.12
372.65	229.12
373.03	229.09
373.41	229.03
373.78	228.98
374.16	228.89
374.54	228.81
374.92	228.75
375.30	228.71
375.68	228.62
376.06	228.54
376.44	228.46
376.82	228.39
377.19	228.32
377.57	228.26
377.95	228.14
378.33	228.08
378.71	227.93
379.09	227.86
379.47	227.81
379.84	227.73
380.22	227.64
380.60	227.52
380.98	227.42
381.36	227.34
381.73	227.25
382.11	227.22
382.49	227.11
382.87	227.00
383.25	226.93
383.62	226.96
384.00	226.88
384.38	226.84
384.76	226.78
385.13	226.75
385.51	226.69
385.89	226.63
386.27	226.59
386.64	226.56
387.02	226.50
387.40	226.44
387.78	226.40
388.15	226.32
388.53	226.30
388.91	226.27
389.29	226.21
389.66	226.18
390.04	226.10
390.42	226.10
390.79	226.09
391.17	226.05
391.55	225.95
391.92	225.96
392.30	225.97
392.68	225.92
393.05	225.91
393.43	225.91
393.81	225.93
394.18	225.92
394.56	225.93
394.94	225.97
395.31	226.01
395.69	226.08
396.06	226.18
396.44	226.22
396.82	226.28
397.19	226.39
397.57	226.44
397.95	226.52
398.32	226.57
398.70	226.68
399.07	226.80
399.45	226.87
399.82	226.94
400.20	227.02
400.58	227.13
400.95	227.16
401.33	227.29
401.70	227.47
402.08	227.57
402.45	227.68
402.83	227.82
403.20	227.93
403.58	228.06
403.95	228.15
404.33	228.33
404.71	228.44
405.08	228.67
405.46	228.86
405.83	229.00
406.21	229.16
406.58	229.31
406.96	229.48
407.33	229.69
407.70	229.89
408.08	230.15
408.45	230.40
408.83	230.67
409.20	230.88
409.58	231.07
409.95	231.35
410.33	231.67
410.70	231.93
411.08	232.26
411.45	232.59
411.82	232.96
412.20	233.31
412.57	233.75
412.95	234.03
413.32	234.42
413.69	234.87
414.07	235.33
414.44	235.79
414.82	236.28
415.19	236.81
415.56	237.36
415.94	237.91
416.31	238.54
416.68	239.18
417.06	239.91
417.43	240.58
417.81	241.38
418.18	242.16
418.55	243.00
418.93	243.88
419.30	244.75
419.67	245.66
420.04	246.65
420.42	247.62
420.79	248.82
421.16	250.01
421.54	251.20
421.91	252.40
422.28	253.71
422.66	255.06
423.03	256.38
423.40	257.71
423.77	259.15
424.15	260.56
424.52	262.05
424.89	263.67
425.26	265.22
425.64	266.65
426.01	268.21
426.38	269.87
426.75	271.53
427.13	273.23
427.50	275.02
427.87	276.88
428.24	278.78
428.61	280.50
428.99	282.42
429.36	284.52
429.73	286.54
430.10	288.52
430.47	290.56
430.85	292.66
431.22	294.90
431.59	297.26
431.96	299.49
432.33	302.01
432.70	304.36
433.08	307.20
433.45	309.83
433.82	312.44
434.19	315.32
434.56	318.13
434.93	320.79
435.30	323.42
435.68	326.31
436.05	329.10
436.42	331.89
436.79	334.36
437.16	337.04
437.53	339.92
437.90	342.70
438.27	345.43
438.64	348.26
439.01	350.88
439.38	353.09
439.75	355.26
440.13	357.68
440.50	360.03
440.87	361.83
441.24	363.76
441.61	365.88
441.98	367.37
442.35	369.16
442.72	371.01
443.09	372.82
443.46	373.82
443.83	374.41
444.20	374.92
444.57	375.79
444.94	376.09
445.31	376.41
445.68	376.84
446.05	376.89
446.42	376.54
446.79	376.16
447.16	375.73
447.53	375.43
447.90	374.31
448.27	373.14
448.64	371.59
449.01	370.50
449.37	368.53
449.74	366.63
450.11	364.42
450.48	361.96
450.85	359.40
451.22	357.26
451.59	355.29
451.96	353.34
452.33	350.75
452.70	348.36
453.07	345.57
453.43	342.64
453.80	339.92
454.17	337.24
454.54	334.65
454.91	331.94
455.28	329.26
455.65	326.80
456.02	324.37
456.38	322.24
456.75	319.56
457.12	317.35
457.49	315.14
457.86	312.96
458.23	311.11
458.59	309.11
458.96	307.01
459.33	305.13
459.70	303.31
460.07	301.81
460.43	300.11
460.80	298.50
461.17	297.06
461.54	295.53
461.91	294.11
462.27	292.65
462.64	291.43
463.01	290.06
463.38	288.79
463.74	287.39
464.11	286.22
464.48	285.20
464.85	284.09
465.21	283.23
465.58	282.29
465.95	281.21
466.32	280.31
466.68	279.41
467.05	278.53
467.42	277.63
467.78	276.68
468.15	275.79
468.52	275.13
468.88	274.24
469.25	273.46
469.62	272.84
469.98	272.15
470.35	271.50
470.72	270.91
471.08	270.15
471.45	269.59
471.82	269.00
472.18	268.38
472.55	267.92
472.92	267.37
473.28	266.88
473.65	266.42
474.02	265.96
474.38	265.55
474.75	265.15
475.11	264.76
475.48	264.48
475.85	264.25
476.21	263.97
476.58	263.78
476.94	263.61
477.31	263.40
477.67	263.27
478.04	263.10
478.41	263.01
478.77	263.06
479.14	262.99
479.50	263.01
479.87	263.08
480.23	263.12
480.60	263.15
480.96	263.22
481.33	263.39
481.69	263.55
482.06	263.72
482.42	263.93
482.79	264.17
483.15	264.44
483.52	264.83
483.88	265.18
484.25	265.53
484.61	265.94
484.98	266.40
485.34	266.91
485.71	267.49
486.07	268.07
486.44	268.62
486.80	269.32
487.17	270.01
487.53	270.79
487.90	271.62
488.26	272.54
488.62	273.51
488.99	274.45
489.35	275.50
489.72	276.58
490.08	277.74
490.44	278.95
490.81	280.32
491.17	281.62
491.54	283.08
491.90	284.66
492.26	286.34
492.63	288.04
492.99	289.79
493.36	291.68
493.72	293.71
494.08	295.79
494.45	298.02
494.81	300.37
495.17	302.83
495.54	305.40
495.90	308.09
496.26	310.87
496.63	313.83
496.99	316.89
497.35	320.18
497.72	323.62
498.08	327.16
498.44	330.81
498.80	334.71
499.17	338.73
499.53	342.86
499.89	347.16
500.26	351.69
500.62	356.40
500.98	361.38
501.34	366.47
501.71	371.81
502.07	377.22
502.43	382.82
502.79	388.55
503.16	394.61
503.52	400.85
503.88	407.26
504.24	413.85
504.60	420.71
504.97	427.81
505.33	435.10
505.69	442.78
506.05	450.55
506.41	458.45
506.78	466.53
507.14	475.00
507.50	483.73
507.86	492.72
508.22	501.89
508.59	511.06
508.95	520.61
509.31	530.41
509.67	540.47
510.03	550.73
510.39	561.31
510.75	572.07
511.12	583.01
511.48	594.30
511.84	605.77
512.20	617.32
512.56	629.28
512.92	641.40
513.28	653.65
513.64	666.09
514.00	678.74
514.37	691.73
514.73	704.65
515.09	717.65
515.45	730.91
515.81	744.45
516.17	758.43
516.53	772.46
516.89	786.66
517.25	800.97
517.61	815.45
517.97	829.86
518.33	844.30
518.69	859.10
519.05	874.10
519.41	889.36
519.77	904.98
520.13	920.49
520.49	935.83
520.85	951.35
521.21	967.12
521.57	983.48
521.93	999.30
522.29	1015.82
522.65	1032.14
523.01	1048.49
523.37	1064.59
523.73	1080.70
524.09	1096.96
524.45	1113.29
524.81	1129.88
525.17	1146.74
525.53	1163.83
525.89	1180.80
526.25	1197.59
526.61	1214.06
526.97	1230.74
527.33	1247.15
527.68	1263.72
528.04	1280.40
528.40	1297.11
528.76	1314.35
529.12	1330.91
529.48	1347.86
529.84	1364.03
530.20	1380.80
530.56	1397.81
530.91	1415.19
531.27	1432.12
531.63	1448.62
531.99	1465.29
532.35	1481.41
532.71	1497.31
533.07	1513.60
533.42	1529.56
533.78	1545.68
534.14	1562.05
534.50	1577.50
534.86	1593.50
535.21	1608.70
535.57	1624.71
535.93	1640.23
536.29	1654.91
536.65	1670.10
537.00	1685.02
537.36	1700.38
537.72	1714.93
538.08	1729.49
538.44	1743.51
538.79	1757.58
539.15	1771.54
539.51	1785.35
539.87	1799.83
540.22	1813.75
540.58	1827.67
540.94	1841.16
541.29	1854.34
541.65	1867.10
542.01	1880.53
542.37	1892.86
542.72	1905.51
543.08	1917.44
543.44	1929.94
543.79	1941.30
544.15	1952.41
544.51	1963.90
544.87	1974.95
545.22	1985.83
545.58	1996.02
545.94	2005.76
546.29	2015.69
546.65	2025.36
547.01	2034.64
547.36	2043.42
547.72	2051.96
548.07	2059.76
548.43	2067.90
548.79	2075.95
549.14	2083.53
549.50	2090.79
549.86	2098.75
550.21	2106.04
550.57	2113.01
550.92	2119.52
551.28	2126.60
551.64	2133.60
551.99	2140.26
552.35	2146.36
552.70	2152.46
553.06	2158.40
553.41	2164.78
553.77	2170.81
554.13	2176.90
554.48	2182.97
554.84	2188.14
555.19	2193.33
555.55	2198.49
555.90	2202.79
556.26	2207.45
556.61	2212.19
556.97	2216.34
557.32	2220.35
557.68	2224.52
558.03	2228.86
558.39	2232.46
558.74	2237.13
559.10	2240.99
559.45	2244.42
559.81	2248.70
560.16	2252.49
560.52	2255.74
560.87	2258.98
561.23	2261.40
561.58	2264.28
561.94	2266.71
562.29	2269.25
562.64	2271.77
563.00	2274.21
563.35	2277.82
563.71	2280.91
564.06	2283.90
564.42	2286.73
564.77	2289.09
565.12	2291.16
565.48	2292.91
565.83	2294.76
566.19	2295.89
566.54	2296.59
566.89	2297.68
567.25	2298.00
567.60	2299.17
567.96	2300.62
568.31	2301.45
568.66	2302.34
569.02	2302.63
569.37	2302.82
569.72	2303.25
570.08	2303.06
570.43	2302.71
570.78	2301.74
571.14	2299.99
571.49	2298.45
571.84	2298.01
572.20	2296.55
572.55	2295.20
572.90	2293.42
573.26	2291.67
573.61	2289.70
573.96	2287.70
574.31	2284.56
574.67	2281.33
575.02	2277.47
575.37	2273.79
575.72	2269.73
576.08	2266.39
576.43	2263.04
576.78	2259.22
577.13	2256.07
577.49	2252.97
577.84	2249.58
578.19	2245.86
578.54	2241.96
578.90	2237.62
579.25	2231.88
579.60	2226.83
579.95	2221.73
580.30	2216.64
580.66	2211.51
581.01	2206.51
581.36	2201.51
581.71	2197.11
582.06	2192.60
582.42	2187.97
582.77	2182.62
583.12	2177.91
583.47	2172.98
583.82	2167.69
584.17	2162.30
584.53	2156.67
584.88	2150.83
585.23	2144.77
585.58	2139.14
585.93	2133.76
586.28	2128.66
586.63	2123.36
586.98	2118.06
587.34	2113.29
587.69	2108.27
588.04	2102.90
588.39	2097.11
588.74	2090.53
589.09	2084.23
589.44	2077.27
589.79	2071.23
590.14	2065.57
590.49	2058.91
590.84	2052.32
591.19	2046.36
591.54	2039.70
591.89	2031.96
592.25	2025.04
592.60	2017.83
592.95	2009.98
593.30	2002.40
593.65	1994.80
594.00	1987.69
594.35	1980.41
594.70	1972.18
595.05	1964.83
595.40	1957.57
595.75	1949.86
596.10	1943.48
596.45	1936.63
596.80	1930.40
597.15	1923.44
597.50	1916.15
597.85	1909.72
598.19	1903.03
598.54	1895.65
598.89	1888.95
599.24	1883.07
599.59	1876.37
599.94	1870.14
600.29	1863.87
600.64	1857.29
600.99	1849.72
601.34	1842.88
601.69	1835.82
602.04	1828.87
602.39	1821.51
602.74	1814.43
603.08	1807.70
603.43	1800.96
603.78	1793.69
604.13	1786.44
604.48	1779.21
604.83	1772.48
605.18	1765.32
605.53	1757.21
605.87	1749.32
606.22	1742.09
606.57	1734.21
606.92	1726.97
607.27	1719.69
607.62	1712.85
607.96	1705.55
608.31	1699.09
608.66	1691.32
609.01	1683.88
609.36	1676.39
609.70	1668.34
610.05	1660.37
610.40	1652.60
610.75	1644.26
611.10	1636.58
611.44	1628.29
611.79	1620.45
612.14	1611.76
612.49	1602.79
612.83	1594.58
613.18	1586.54
613.53	1578.55
613.88	1570.04
614.22	1561.71
614.57	1553.25
614.92	1545.18
615.27	1537.57
615.61	1529.17
615.96	1521.41
616.31	1513.79
616.65	1506.50
617.00	1499.06
617.35	1491.37
617.70	1483.08
618.04	1474.67
618.39	1466.49
618.74	1458.80
619.08	1450.52
619.43	1442.96
619.78	1436.01
620.12	1428.84
620.47	1421.26
620.82	1413.06
621.16	1405.73
621.51	1398.18
621.85	1390.54
622.20	1382.08
622.55	1373.81
622.89	1366.10
623.24	1358.64
623.59	1351.32
623.93	1343.74
624.28	1336.55
624.62	1329.18
624.97	1322.08
625.32	1315.48
625.66	1308.52
626.01	1301.45
626.35	1294.00
626.70	1286.35
627.04	1278.65
627.39	1271.05
627.73	1263.64
628.08	1256.94
628.43	1249.64
628.77	1242.30
629.12	1234.77
629.46	1227.68
629.81	1220.36
630.15	1213.22
630.50	1205.63
630.84	1197.50
631.19	1189.64
631.53	1182.17
631.88	1174.61
632.22	1167.06
632.57	1159.73
632.91	1152.29
633.26	1144.96
633.60	1137.67
633.95	1130.68
634.29	1123.80
634.64	1117.04
634.98	1109.82
635.32	1102.69
635.67	1096.23
636.01	1089.66
636.36	1082.99
636.70	1076.62
637.05	1070.17
637.39	1063.73
637.73	1057.31
638.08	1051.51
638.42	1045.70
638.77	1039.27
639.11	1032.71
639.45	1026.50
639.80	1019.93
640.14	1013.51
640.49	1007.05
640.83	1000.88
641.17	994.59
641.52	988.24
641.86	981.90
642.20	976.12
642.55	969.92
642.89	963.40
643.23	957.00
643.58	951.24
643.92	944.99
644.26	938.88
644.61	932.98
644.95	927.05
645.29	920.45
645.64	913.75
645.98	907.50
646.32	901.72
646.66	895.66
647.01	889.91
647.35	884.26
647.69	878.49
648.04	873.00
648.38	867.32
648.72	861.33
649.06	855.32
649.41	849.49
649.75	843.50
650.09	837.64
650.43	831.82
650.78	825.66
651.12	819.68
651.46	814.03
651.80	808.22
652.14	802.87
652.49	797.61
652.83	792.41
653.17	786.73
653.51	781.04
653.85	775.71
654.20	770.05
654.54	764.15
654.88	758.43
655.22	752.60
655.56	746.99
655.90	741.64
656.25	736.42
656.59	731.01
656.93	725.98
657.27	720.91
657.61	715.51
657.95	710.50
658.29	705.46
658.64	700.24
658.98	694.97
659.32	689.50
659.66	684.33
660.00	679.05
660.34	674.16
660.68	669.34
661.02	664.28
661.36	659.65
661.70	655.16
662.05	650.78
662.39	646.44
662.73	641.93
663.07	637.56
663.41	633.14
663.75	628.75
664.09	624.14
664.43	619.81
664.77	615.76
665.11	611.52
665.45	607.57
665.79	603.55
666.13	599.48
666.47	595.45
666.81	591.24
667.15	587.21
667.49	583.40
667.83	579.62
668.17	575.77
668.51	571.69
668.85	567.72
669.19	563.92
669.53	560.07
669.87	556.23
670.21	552.63
670.55	549.08
670.89	545.64
671.23	542.30
671.57	538.77
671.91	535.22
672.25	531.79
672.58	528.21
672.92	524.83
673.26	521.75
673.60	518.62
673.94	515.61
674.28	512.71
674.62	509.76
674.96	506.66
675.30	503.75
675.64	500.88
675.97	498.15
676.31	495.37
676.65	492.47
676.99	489.78
677.33	486.94
677.67	484.17
678.01	481.21
678.34	478.26
678.68	475.43
679.02	472.68
679.36	469.94
679.70	467.31
680.04	464.58
680.37	461.67
680.71	458.95
681.05	456.35
681.39	453.69
681.73	451.10
682.06	448.57
682.40	446.04
682.74	443.54
683.08	441.00
683.42	438.39
683.75	435.93
684.09	433.48
684.43	431.00
684.77	428.51
685.10	426.19
685.44	423.95
685.78	421.60
686.12	419.41
686.45	417.19
686.79	414.88
687.13	412.72
687.46	410.60
687.80	408.41
688.14	406.26
688.48	404.16
688.81	401.90
689.15	399.84
689.49	397.73
689.82	395.70
690.16	393.60
690.50	391.69
690.83	389.81
691.17	387.83
691.51	385.97
691.84	384.13
692.18	382.18
692.52	380.15
692.85	378.30
693.19	376.41
693.52	374.56
693.86	372.76
694.20	371.03
694.53	369.23
694.87	367.42
695.21	365.63
695.54	363.87
695.88	362.16
696.21	360.41
696.55	358.76
696.88	357.07
697.22	355.43
697.56	353.80
697.89	352.12
698.23	350.52
698.56	348.91
698.90	347.30
699.23	345.69
699.57	344.21
699.90	342.71
700.24	341.16
700.58	339.63
700.91	338.08
701.25	336.60
701.58	335.24
701.92	333.87
702.25	332.47
702.59	331.09
702.92	329.79
703.26	328.51
703.59	327.24
703.93	326.07
704.26	324.86
704.60	323.59
704.93	322.36
705.26	321.16
705.60	320.01
705.93	318.87
706.27	317.82
706.60	316.73
706.94	315.63
707.27	314.52
707.61	313.48
707.94	312.56
708.27	311.46
708.61	310.35
708.94	309.40
709.28	308.43
709.61	307.47
709.94	306.52
710.28	305.44
710.61	304.45
710.95	303.40
711.28	302.52
711.61	301.57
711.95	300.64
712.28	299.65
712.61	298.68
712.95	297.75
713.28	296.91
713.61	296.03
713.95	295.19
714.28	294.38
714.61	293.54
714.95	292.64
715.28	291.82
715.61	290.99
715.95	290.14
716.28	289.32
716.61	288.49
716.95	287.73
717.28	287.08
717.61	286.34
717.94	285.58
718.28	284.77
718.61	284.07
718.94	283.41
719.27	282.76
719.61	282.09
719.94	281.44
720.27	280.73
720.60	280.06
720.94	279.45
721.27	278.88
721.60	278.31
721.93	277.74
722.27	277.25
722.60	276.73
722.93	276.19
723.26	275.67
723.59	275.14
723.93	274.57
724.26	274.01
724.59	273.45
724.92	272.96
725.25	272.50
725.59	271.99
725.92	271.48
726.25	271.02
726.58	270.57
726.91	270.09
727.24	269.62
727.57	269.19
727.91	268.68
728.24	268.21
728.57	267.74
728.90	267.32
729.23	266.81
729.56	266.36
729.89	265.91
730.22	265.42
730.55	264.95
730.89	264.51
731.22	264.09
731.55	263.64
731.88	263.25
732.21	262.80
732.54	262.35
732.87	261.93
733.20	261.53
733.53	261.14
733.86	260.79
734.19	260.41
734.52	260.04
734.85	259.73
735.18	259.33
735.51	258.95
735.84	258.55
736.17	258.17
736.50	257.80
736.83	257.57
737.16	257.19
737.49	256.88
737.82	256.53
738.15	256.16
738.48	255.84
738.81	255.46
739.14	255.10
739.47	254.80
739.80	254.50
740.13	254.18
740.46	253.84
740.79	253.48
741.12	253.16
741.45	252.82
741.78	252.45
742.11	252.12
742.44	251.82
742.77	251.52
743.10	251.24
743.43	250.89
743.75	250.50
744.08	250.39
744.41	250.12
744.74	249.82
745.07	249.57
745.40	249.38
745.73	249.16
746.06	248.91
746.39	248.65
746.71	248.41
747.04	248.13
747.37	247.87
747.70	247.63
748.03	247.37
748.36	247.14
748.68	246.93
749.01	246.68
749.34	246.42
749.67	246.18
750.00	245.95
750.33	245.80
750.65	245.55
750.98	245.16
751.31	244.88
751.64	244.70
751.97	244.52
752.29	244.23
752.62	244.00
752.95	243.77
753.28	243.51
753.60	243.26
753.93	243.09
754.26	242.86
754.59	242.61
754.91	242.40
755.24	242.18
755.57	241.96
755.90	241.80
756.22	241.58
756.55	241.37
756.88	241.20
757.20	240.97
757.53	240.76
757.86	240.60
758.19	240.48
758.51	240.31
758.84	240.12
759.17	239.96
759.49	239.74
759.82	239.63
760.15	239.53
760.47	239.36
760.80	239.18
761.13	239.08
761.45	238.99
761.78	238.85
762.11	238.72
762.43	238.55
762.76	238.40
763.08	238.32
763.41	238.23
763.74	238.10
764.06	237.99
764.39	237.89
764.71	237.78
765.04	237.64
765.37	237.53
765.69	237.39
766.02	237.27
766.34	237.19
766.67	237.07
767.00	236.99
767.32	236.98
767.65	236.94
767.97	236.81
768.30	236.67
768.62	236.57
768.95	236.47
769.27	236.40
769.60	236.29
769.92	236.18
770.25	236.07
770.57	235.97
770.90	235.86
771.22	235.76
771.55	235.70
771.87	235.62
772.20	235.49
772.52	235.46
772.85	235.48
773.17	235.39
773.50	235.30
773.82	235.16
774.15	235.01
774.47	234.85
774.80	234.74
775.12	234.68
775.45	234.61
775.77	234.55
776.09	234.48
776.42	234.40
776.74	234.35
777.07	234.28
777.39	234.21
777.72	234.13
778.04	234.08
778.36	233.96
778.69	233.88
779.01	233.85
779.33	233.74
779.66	233.57
779.98	233.49
780.31	233.41
780.63	233.37
780.95	233.34
781.28	233.27
781.60	233.19
781.92	233.13
782.25	233.09
782.57	232.98
782.89	232.92
783.22	232.87
783.54	232.78
783.86	232.71
784.19	232.60
784.51	232.54
784.83	232.45
785.16	232.38
785.48	232.37
785.80	232.30
786.12	232.24
786.45	232.15
786.77	232.10
787.09	232.06
787.42	231.98
787.74	231.90
788.06	231.86
788.38	231.85
788.71	231.78
789.03	231.72
789.35	231.69
789.67	231.61
789.99	231.57
790.32	231.50
790.64	231.45
790.96	231.49
791.28	231.46
791.61	231.42
791.93	231.42
792.25	231.36
792.57	231.40
792.89	231.30
793.21	231.33
793.54	231.29
793.86	231.20
794.18	231.17
794.50	231.12
794.82	231.08
795.14	231.05
795.47	231.05
795.79	231.00
796.11	230.93
796.43	230.92
796.75	230.87
797.07	230.87
797.39	230.85
797.71	230.76
798.04	230.71
798.36	230.66
798.68	230.60
799.00	230.59
799.32	230.48
799.64	230.50
799.96	230.46
800.28	230.43
800.60	230.41
800.92	230.41
801.24	230.36
801.56	230.34
801.89	230.31
802.21	230.27
802.53	230.24
802.85	230.25
803.17	230.27
803.49	230.24
803.81	230.20
804.13	230.13
804.45	230.12
804.77	230.13
805.09	230.15
805.41	230.14
805.73	230.07
806.05	230.06
806.37	230.03
806.69	230.02
807.01	230.01
807.33	230.02
807.65	229.97
807.97	230.03
808.28	230.01
808.60	229.99
808.92	229.98
809.24	230.00
809.56	229.97
809.88	229.91
810.20	229.92
810.52	229.91
810.84	229.87
811.16	229.85
811.48	229.79
811.80	229.81
812.12	229.77
812.43	229.78
812.75	229.76
813.07	229.74
813.39	229.70
813.71	229.66
814.03	229.62
814.35	229.58
814.67	229.51
814.98	229.47
815.30	229.46
815.62	229.40
815.94	229.33
816.26	229.37
816.58	229.36
816.89	229.33
817.21	229.29
817.53	229.29
817.85	229.25
818.17	229.22
818.48	229.14
818.80	229.15
819.12	229.10
819.44	229.05
819.76	229.04
820.07	229.04
820.39	229.03
820.71	229.02
821.03	228.99
821.34	228.97
821.66	228.95
821.98	228.93
822.30	228.91
822.61	228.98
822.93	228.86
823.25	228.79
823.57	228.76
823.88	228.75
824.20	228.72
824.52	228.71
824.83	228.72
825.15	228.70
825.47	228.68
825.79	228.68
826.10	228.67
826.42	228.61
826.74	228.58
827.05	228.57
827.37	228.55
827.69	228.55
828.00	228.56
828.32	228.53
828.64	228.52
828.95	228.54
829.27	228.50
829.58	228.52
829.90	228.57
830.22	228.55
830.53	228.54
830.85	228.52
831.17	228.50
831.48	228.47
831.80	228.46
832.11	228.44
832.43	228.41
832.75	228.39
833.06	228.46
833.38	228.43
833.69	228.42
834.01	228.41
834.32	228.41
834.64	228.37
834.96	228.37
835.27	228.37
835.59	228.34
835.90	228.33
836.22	228.31
836.53	228.30
836.85	228.28
837.16	228.38
837.48	228.37
837.79	228.39
838.11	228.43
838.42	228.40
838.74	228.43
839.05	228.43
839.37	228.42
839.68	228.36
840.00	228.37
840.31	228.38
840.63	228.32
840.94	228.30
841.26	228.30
841.57	228.27
841.88	228.27
842.20	228.24
842.51	228.22
842.83	228.22
843.14	228.26
843.46	228.26
843.77	228.20
844.08	228.22
844.40	228.17
844.71	228.14
845.03	228.13
845.34	228.09
845.65	228.07
845.97	228.08
846.28	228.06
846.60	228.04
846.91	228.02
847.22	228.06
847.54	228.08
847.85	228.10
848.16	228.11
848.48	228.08
848.79	228.13
849.10	228.10
849.42	228.08
849.73	228.00
850.04	227.97
850.36	227.99
850.67	228.00
850.98	228.01
851.30	227.99
851.61	228.03
851.92	228.04
852.23	228.09
852.55	228.09
852.86	228.06
853.17	228.03
853.49	228.04
853.80	228.05
854.11	228.06
854.42	228.06
854.74	228.04
855.05	228.02
855.36	227.95
855.67	227.96
855.99	227.96
856.30	228.06
856.61	228.05
856.92	227.98
857.23	227.96
857.55	227.93
857.86	227.91
858.17	227.89
858.48	227.86
858.79	227.81
859.11	227.82
859.42	227.81
859.73	227.84
860.04	227.82
860.35	227.79
860.66	227.71
860.98	227.70
861.29	227.70
861.60	227.69
861.91	227.73
862.22	227.72
862.53	227.69
862.84	227.57
863.16	227.58
863.47	227.58
863.78	227.57
864.09	227.58
864.40	227.58
864.71	227.59
865.02	227.56
865.33	227.55
865.64	227.52
865.95	227.52
866.27	227.57
866.58	227.54
866.89	227.57
867.20	227.55
867.51	227.54
867.82	227.52
868.13	227.56
868.44	227.48
868.75	227.49
869.06	227.50
869.37	227.52
869.68	227.48
869.99	227.49
870.30	227.49
870.61	227.50
870.92	227.50
871.23	227.46
871.54	227.49
871.85	227.50
872.16	227.50
872.47	227.49
872.78	227.46
873.09	227.51
873.40	227.49
873.71	227.54
874.02	227.54
874.33	227.59
874.64	227.58
874.95	227.63
875.26	227.63
875.56	227.64
875.87	227.67
876.18	227.71
876.49	227.82
876.80	227.82
877.11	227.80
877.42	227.80
877.73	227.82
878.04	227.82
878.35	227.85
878.66	227.86
878.96	227.85
879.27	227.86
879.58	227.86
879.89	227.87
880.20	227.92
880.51	227.94
880.82	227.92
881.12	227.92
881.43	227.93
881.74	227.90
882.05	227.87
882.36	227.85
882.67	227.85
882.97	227.74
883.28	227.73
883.59	227.74
883.90	227.73
884.21	227.77
884.51	227.77
884.82	227.72
885.13	227.76
885.44	227.76
885.74	227.71
886.05	227.69
886.36	227.70
886.67	227.66
886.98	227.65
887.28	227.67
887.59	227.64
887.90	227.63
888.20	227.64
888.51	227.67
888.82	227.67
889.13	227.69
889.43	227.76
889.74	227.78
890.05	227.77
890.35	227.76
890.66	227.72
890.97	227.70
891.28	227.70
891.58	227.68
891.89	227.69
892.20	227.69
892.50	227.64
892.81	227.60
893.12	227.60
893.42	227.54
893.73	227.51
894.04	227.50
894.34	227.50
894.65	227.48
894.95	227.44
895.26	227.45
895.57	227.46
895.87	227.36
896.18	227.35
896.48	227.32
896.79	227.35
897.10	227.33
897.40	227.33
897.71	227.37
898.01	227.35
898.32	227.35
898.63	227.34
898.93	227.37
899.24	227.36
899.54	227.32
899.85	227.33
900.15	227.34
900.46	227.33
900.76	227.30
901.07	227.30
901.38	227.31
901.68	227.30
901.99	227.25
902.29	227.30
902.60	227.26
902.90	227.27
903.21	227.22
903.51	227.21
903.82	227.23
904.12	227.21
904.43	227.21
904.73	227.21
905.03	227.22
905.34	227.33
905.64	227.33
905.95	227.36
906.25	227.33
906.56	227.32
906.86	227.35
907.17	227.33
907.47	227.35
907.77	227.35
908.08	227.35
908.38	227.34
908.69	227.33
908.99	227.37
909.30	227.40
909.60	227.41
909.90	227.44
910.21	227.40
910.51	227.38
910.81	227.40
911.12	227.39
911.42	227.41
911.73	227.30
912.03	227.32
912.33	227.32
912.64	227.36
912.94	227.37
913.24	227.34
913.55	227.39
913.85	227.37
914.15	227.40
914.46	227.40
914.76	227.42
915.06	227.40
915.37	227.42
915.67	227.38
915.97	227.43
916.27	227.40
916.58	227.42
916.88	227.40
917.18	227.38
917.49	227.47
917.79	227.46
918.09	227.47
918.39	227.47
918.70	227.47
919.00	227.47
919.30	227.53
919.60	227.53
919.91	227.51
920.21	227.54
920.51	227.49
920.81	227.49
921.12	227.50
921.42	227.51
921.72	227.51
922.02	227.50
922.32	227.51
922.63	227.51
922.93	227.55
923.23	227.54
923.53	227.53
923.83	227.49
924.13	227.49
924.44	227.50
924.74	227.53
925.04	227.54
925.34	227.55
925.64	227.49
925.94	227.50
926.24	227.54
926.55	227.52
926.85	227.56
927.15	227.59
927.45	227.57
927.75	227.55
928.05	227.55
928.35	227.56
928.65	227.57
928.95	227.54
929.26	227.48
929.56	227.53
929.86	227.53
930.16	227.51
930.46	227.53
930.76	227.55
931.06	227.47
931.36	227.42
931.66	227.42
931.96	227.44
932.26	227.45
932.56	227.40
932.86	227.41
933.16	227.39
933.46	227.34
933.76	227.33
934.06	227.36
934.36	227.38
934.66	227.38
934.96	227.37
935.26	227.39
935.56	227.45
935.86	227.39
936.16	227.40
936.46	227.37
936.76	227.35
937.06	227.32
937.36	227.37
937.66	227.41
937.96	227.41
938.26	227.38
938.56	227.34
938.86	227.33
939.16	227.34
939.46	227.33
939.76	227.34
940.06	227.38
940.35	227.37
940.65	227.32
940.95	227.34
941.25	227.29
941.55	227.27
941.85	227.25
942.15	227.29
942.45	227.32
942.75	227.31
943.04	227.31
943.34	227.33
943.64	227.32
943.94	227.28
944.24	227.26
944.54	227.27
944.84	227.29
945.13	227.31
945.43	227.33
945.73	227.32
946.03	227.34
946.33	227.29
946.62	227.27
946.92	227.27
947.22	227.26
947.52	227.32
947.82	227.33
948.11	227.31
948.41	227.30
948.71	227.28
949.01	227.32
949.31	227.33
949.60	227.34
949.90	227.36
950.20	227.37
950.50	227.38
950.79	227.39
951.09	227.43
951.39	227.43
951.69	227.36
951.98	227.41
952.28	227.42
952.58	227.44
952.87	227.44
953.17	227.46
953.47	227.45
953.76	227.44
954.06	227.44
954.36	227.44
954.66	227.45
954.95	227.46
955.25	227.46
955.55	227.45
955.84	227.40
956.14	227.39
956.44	227.39
956.73	227.39
957.03	227.39
957.32	227.40
957.62	227.38
957.92	227.43
958.21	227.43
958.51	227.53
958.81	227.54
959.10	227.52
959.40	227.56
959.69	227.57
959.99	227.58
960.29	227.58
960.58	227.58
960.88	227.61
961.17	227.58
961.47	227.58
961.76	227.58
962.06	227.64
962.36	227.65
962.65	227.65
962.95	227.64
963.24	227.62
963.54	227.62
963.83	227.65
964.13	227.66
964.42	227.61
964.72	227.53
965.01	227.52
965.31	227.53
965.60	227.46
965.90	227.50
966.19	227.48
966.49	227.45
966.78	227.41
967.08	227.37
967.37	227.37
967.67	227.35
967.96	227.37
968.26	227.34
968.55	227.34
968.85	227.35
969.14	227.35
969.43	227.32
969.73	227.26
970.02	227.26
970.32	227.25
970.61	227.26
970.91	227.24
971.20	227.22
971.49	227.21
971.79	227.20
972.08	227.16
972.38	227.18
972.67	227.19
972.96	227.23
973.26	227.22
973.55	227.26
973.85	227.27
974.14	227.26
974.43	227.25
974.73	227.25
975.02	227.21
975.31	227.23
975.61	227.24
975.90	227.25
976.19	227.26
976.49	227.23
976.78	227.25
977.07	227.25
977.37	227.28
977.66	227.32
977.95	227.34
978.24	227.33
978.54	227.35
978.83	227.36
979.12	227.36
979.42	227.38
979.71	227.36
980.00	227.33
980.29	227.35
980.59	227.33
980.88	227.32
981.17	227.34
981.46	227.30
981.76	227.32
982.05	227.35
982.34	227.30
982.63	227.31
982.93	227.28
983.22	227.29
983.51	227.32
983.80	227.32
984.09	227.33
984.39	227.35
984.68	227.32
984.97	227.32
985.26	227.33
985.55	227.31
985.85	227.29
986.14	227.32
986.43	227.34
986.72	227.34
987.01	227.33
987.30	227.33
987.59	227.34
987.89	227.33
988.18	227.30
988.47	227.31
988.76	227.32
989.05	227.32
989.34	227.30
989.63	227.30
989.92	227.26
990.22	227.26
990.51	227.25
990.80	227.22
991.09	227.24
991.38	227.25
991.67	227.27
991.96	227.27
992.25	227.28
992.54	227.25
992.83	227.24
993.12	227.23
993.41	227.27
993.70	227.32
993.99	227.37
994.28	227.41
994.58	227.44
994.87	227.43
995.16	227.42
995.45	227.42
995.74	227.36
996.03	227.41
996.32	227.40
996.61	227.41
996.90	227.42
997.19	227.38
997.48	227.35
997.77	227.36
998.06	227.40
998.34	227.37
998.63	227.39
998.92	227.39
999.21	227.41
999.50	227.36
999.79	227.34
1000.08	227.31
1000.37	227.29
1000.66	227.28
1000.95	227.33
1001.24	227.35
1001.53	227.33
1001.82	227.33
1002.11	227.28
1002.40	227.32
1002.68	227.34
1002.97	227.42
1003.26	227.45
1003.55	227.45
1003.84	227.43
1004.13	227.42
1004.42	227.44
1004.71	227.42
1004.99	227.44
1005.28	227.44
1005.57	227.43
1005.86	227.41
1006.15	227.42
1006.44	227.43
1006.72	227.45
1007.01	227.44
1007.30	227.46
1007.59	227.47
1007.88	227.49
1008.17	227.49
1008.45	227.48
1008.74	227.45
1009.03	227.41
1009.32	227.39
1009.60	227.39
1009.89	227.37
1010.18	227.33
1010.47	227.32
1010.76	227.30
1011.04	227.29
1011.33	227.32
1011.62	227.34
1011.91	227.35
1012.19	227.34
1012.48	227.32
1012.77	227.31
1013.05	227.33
1013.34	227.30
1013.63	227.28
1013.92	227.28
1014.20	227.30
1014.49	227.30
1014.78	227.29
1015.06	227.29
1015.35	227.29
1015.64	227.31
1015.92	227.35
1016.21	227.36
1016.50	227.36
1016.78	227.39
1017.07	227.39
1017.36	227.37
1017.64	227.35
1017.93	227.33
1018.22	227.29
1018.50	227.27
1018.79	227.28
1019.08	227.22
1019.36	227.25
1019.65	227.26
1019.93	227.27
1020.22	227.27
1020.51	227.28
1020.79	227.26
1021.08	226.58
1021.36	226.95
1021.65	227.38
1021.94	226.96
1022.22	227.73
1022.51	227.17
1022.79	227.43
1023.08	227.44
1023.36	227.88
1023.65	226.81
>>>>>End Processed Spectral Data<<<<<
