SpectraSuite Data File
++++++++++++++++++++++++++++++++++++
Date: Fri Feb 01 15:05:02 EST 2013
User: group
Dark Spectrum Present: No
Reference Spectrum Present: No
Number of Sampled Component Spectra: 1
Spectrometers: USB2E7196
Integration Time (usec): 35000 (USB2E7196)
Spectra Averaged: 100 (USB2E7196)
Boxcar Smoothing: 10 (USB2E7196)
Correct for Electrical Dark: No (USB2E7196)
Strobe/Lamp Enabled: No (USB2E7196)
Correct for Detector Non-linearity: No (USB2E7196)
Correct for Stray Light: No (USB2E7196)
Number of Pixels in Processed Spectrum: 2048
>>>>>Begin Processed Spectral Data<<<<<
339.09	0.00
339.48	214.88
339.86	216.10
340.24	217.89
340.63	219.17
341.01	222.02
341.39	221.97
341.78	223.35
342.16	225.19
342.54	224.71
342.93	213.42
343.31	224.21
343.69	224.78
344.07	225.28
344.46	225.70
344.84	226.09
345.22	226.34
345.60	226.58
345.99	226.78
346.37	226.87
346.75	226.99
347.13	227.05
347.52	227.11
347.90	227.18
348.28	227.19
348.66	227.24
349.05	227.23
349.43	227.24
349.81	227.27
350.19	227.30
350.57	227.35
350.96	227.44
351.34	227.50
351.72	227.58
352.10	227.65
352.48	227.71
352.87	227.76
353.25	227.82
353.63	227.87
354.01	227.91
354.39	227.97
354.77	228.05
355.15	228.14
355.54	228.21
355.92	228.25
356.30	228.33
356.68	228.47
357.06	228.54
357.44	228.58
357.82	228.66
358.20	228.76
358.58	228.80
358.97	228.85
359.35	228.95
359.73	229.02
360.11	229.05
360.49	229.09
360.87	229.12
361.25	229.17
361.63	229.25
362.01	229.31
362.39	229.35
362.77	229.39
363.15	229.40
363.53	229.40
363.91	229.43
364.29	229.43
364.67	229.34
365.05	229.39
365.43	229.42
365.81	229.41
366.19	229.42
366.57	229.48
366.95	229.44
367.33	229.38
367.71	229.35
368.09	229.38
368.47	229.38
368.85	229.35
369.23	229.34
369.61	229.27
369.99	229.25
370.37	229.23
370.75	229.22
371.13	229.16
371.51	229.11
371.89	229.05
372.27	229.02
372.65	228.96
373.03	228.92
373.41	228.86
373.78	228.78
374.16	228.68
374.54	228.57
374.92	228.54
375.30	228.45
375.68	228.37
376.06	228.32
376.44	228.25
376.82	228.19
377.19	228.11
377.57	228.05
377.95	227.95
378.33	227.86
378.71	227.72
379.09	227.67
379.47	227.59
379.84	227.55
380.22	227.50
380.60	227.42
380.98	227.33
381.36	227.26
381.73	227.21
382.11	227.17
382.49	227.09
382.87	226.99
383.25	226.97
383.62	227.01
384.00	226.89
384.38	226.85
384.76	226.80
385.13	226.78
385.51	226.73
385.89	226.68
386.27	226.64
386.64	226.61
387.02	226.52
387.40	226.48
387.78	226.41
388.15	226.35
388.53	226.31
388.91	226.24
389.29	226.18
389.66	226.16
390.04	226.09
390.42	226.12
390.79	226.10
391.17	226.07
391.55	225.94
391.92	225.93
392.30	225.94
392.68	225.90
393.05	225.88
393.43	225.86
393.81	225.87
394.18	225.90
394.56	225.94
394.94	226.02
395.31	226.04
395.69	226.12
396.06	226.19
396.44	226.23
396.82	226.30
397.19	226.43
397.57	226.48
397.95	226.55
398.32	226.58
398.70	226.70
399.07	226.83
399.45	226.90
399.82	227.00
400.20	227.06
400.58	227.18
400.95	227.24
401.33	227.41
401.70	227.58
402.08	227.69
402.45	227.73
402.83	227.84
403.20	227.98
403.58	228.08
403.95	228.22
404.33	228.37
404.71	228.52
405.08	228.69
405.46	228.83
405.83	229.00
406.21	229.17
406.58	229.33
406.96	229.49
407.33	229.70
407.70	229.91
408.08	230.21
408.45	230.46
408.83	230.73
409.20	230.95
409.58	231.14
409.95	231.37
410.33	231.73
410.70	231.95
411.08	232.27
411.45	232.56
411.82	232.83
412.20	233.21
412.57	233.61
412.95	233.92
413.32	234.32
413.69	234.74
414.07	235.19
414.44	235.66
414.82	236.13
415.19	236.68
415.56	237.18
415.94	237.70
416.31	238.32
416.68	238.93
417.06	239.63
417.43	240.30
417.81	241.11
418.18	241.86
418.55	242.71
418.93	243.56
419.30	244.49
419.67	245.45
420.04	246.38
420.42	247.34
420.79	248.53
421.16	249.68
421.54	250.86
421.91	252.05
422.28	253.30
422.66	254.61
423.03	255.89
423.40	257.24
423.77	258.62
424.15	260.00
424.52	261.47
424.89	263.08
425.26	264.62
425.64	266.01
426.01	267.58
426.38	269.27
426.75	270.94
427.13	272.63
427.50	274.42
427.87	276.29
428.24	278.15
428.61	279.85
428.99	281.82
429.36	283.93
429.73	285.99
430.10	287.97
430.47	290.04
430.85	292.17
431.22	294.40
431.59	296.84
431.96	299.12
432.33	301.65
432.70	304.01
433.08	306.82
433.45	309.51
433.82	312.13
434.19	315.00
434.56	317.83
434.93	320.51
435.30	323.15
435.68	326.06
436.05	328.97
436.42	331.77
436.79	334.32
437.16	337.03
437.53	339.85
437.90	342.72
438.27	345.50
438.64	348.36
439.01	350.99
439.38	353.24
439.75	355.39
440.13	357.88
440.50	360.21
440.87	362.06
441.24	364.00
441.61	366.19
441.98	367.66
442.35	369.53
442.72	371.36
443.09	373.23
443.46	374.22
443.83	374.80
444.20	375.36
444.57	376.16
444.94	376.47
445.31	376.81
445.68	377.19
446.05	377.21
446.42	376.83
446.79	376.46
447.16	375.97
447.53	375.68
447.90	374.51
448.27	373.39
448.64	371.82
449.01	370.71
449.37	368.74
449.74	366.87
450.11	364.62
450.48	362.16
450.85	359.59
451.22	357.45
451.59	355.43
451.96	353.46
452.33	350.86
452.70	348.48
453.07	345.70
453.43	342.75
453.80	340.03
454.17	337.37
454.54	334.79
454.91	332.09
455.28	329.38
455.65	326.92
456.02	324.42
456.38	322.28
456.75	319.59
457.12	317.29
457.49	315.06
457.86	312.85
458.23	311.00
458.59	308.98
458.96	306.87
459.33	304.97
459.70	303.11
460.07	301.60
460.43	299.88
460.80	298.24
461.17	296.81
461.54	295.30
461.91	293.81
462.27	292.35
462.64	291.05
463.01	289.73
463.38	288.42
463.74	287.04
464.11	285.86
464.48	284.83
464.85	283.73
465.21	282.86
465.58	281.91
465.95	280.80
466.32	279.88
466.68	278.96
467.05	278.08
467.42	277.20
467.78	276.26
468.15	275.36
468.52	274.71
468.88	273.85
469.25	273.05
469.62	272.38
469.98	271.69
470.35	271.05
470.72	270.43
471.08	269.76
471.45	269.22
471.82	268.64
472.18	268.03
472.55	267.60
472.92	267.08
473.28	266.62
473.65	266.15
474.02	265.69
474.38	265.31
474.75	264.96
475.11	264.57
475.48	264.29
475.85	264.07
476.21	263.79
476.58	263.57
476.94	263.41
477.31	263.28
477.67	263.12
478.04	262.99
478.41	262.96
478.77	262.96
479.14	262.91
479.50	262.91
479.87	262.98
480.23	263.03
480.60	263.07
480.96	263.15
481.33	263.37
481.69	263.53
482.06	263.74
482.42	263.93
482.79	264.16
483.15	264.48
483.52	264.84
483.88	265.19
484.25	265.56
484.61	265.95
484.98	266.39
485.34	266.97
485.71	267.59
486.07	268.13
486.44	268.70
486.80	269.38
487.17	270.12
487.53	270.95
487.90	271.81
488.26	272.72
488.62	273.70
488.99	274.67
489.35	275.70
489.72	276.82
490.08	278.00
490.44	279.26
490.81	280.57
491.17	281.88
491.54	283.35
491.90	284.95
492.26	286.64
492.63	288.40
492.99	290.17
493.36	292.06
493.72	294.13
494.08	296.25
494.45	298.51
494.81	300.89
495.17	303.29
495.54	305.89
495.90	308.57
496.26	311.35
496.63	314.33
496.99	317.46
497.35	320.73
497.72	324.13
498.08	327.64
498.44	331.29
498.80	335.22
499.17	339.23
499.53	343.33
499.89	347.67
500.26	352.14
500.62	356.79
500.98	361.76
501.34	366.78
501.71	372.08
502.07	377.49
502.43	383.08
502.79	388.90
503.16	394.94
503.52	401.20
503.88	407.62
504.24	414.22
504.60	421.11
504.97	428.16
505.33	435.48
505.69	443.11
506.05	450.92
506.41	458.78
506.78	466.92
507.14	475.35
507.50	484.03
507.86	493.01
508.22	502.16
508.59	511.26
508.95	520.84
509.31	530.65
509.67	540.72
510.03	550.94
510.39	561.48
510.75	572.24
511.12	583.11
511.48	594.46
511.84	605.85
512.20	617.39
512.56	629.37
512.92	641.55
513.28	653.91
513.64	666.39
514.00	679.10
514.37	692.01
514.73	705.03
515.09	718.10
515.45	731.41
515.81	744.98
516.17	758.97
516.53	773.03
516.89	787.21
517.25	801.35
517.61	815.81
517.97	830.18
518.33	844.62
518.69	859.53
519.05	874.42
519.41	889.63
519.77	905.07
520.13	920.58
520.49	936.01
520.85	951.48
521.21	967.14
521.57	983.52
521.93	999.33
522.29	1015.90
522.65	1032.30
523.01	1048.55
523.37	1064.73
523.73	1081.04
524.09	1097.25
524.45	1113.61
524.81	1130.48
525.17	1147.40
525.53	1164.46
525.89	1181.43
526.25	1198.25
526.61	1214.84
526.97	1231.63
527.33	1248.22
527.68	1264.79
528.04	1281.34
528.40	1297.99
528.76	1315.22
529.12	1331.78
529.48	1348.73
529.84	1364.72
530.20	1381.31
530.56	1398.43
530.91	1415.77
531.27	1432.45
531.63	1449.02
531.99	1465.65
532.35	1481.57
532.71	1497.58
533.07	1513.80
533.42	1529.78
533.78	1545.91
534.14	1562.25
534.50	1577.59
534.86	1593.70
535.21	1609.04
535.57	1625.05
535.93	1640.59
536.29	1655.45
536.65	1670.64
537.00	1685.63
537.36	1701.08
537.72	1715.74
538.08	1730.30
538.44	1744.19
538.79	1758.38
539.15	1772.15
539.51	1786.05
539.87	1800.46
540.22	1814.17
540.58	1828.16
540.94	1841.54
541.29	1854.65
541.65	1867.30
542.01	1880.72
542.37	1892.85
542.72	1905.28
543.08	1917.13
543.44	1929.62
543.79	1940.84
544.15	1951.89
544.51	1963.34
544.87	1974.38
545.22	1985.23
545.58	1995.38
545.94	2005.36
546.29	2015.21
546.65	2025.03
547.01	2034.22
547.36	2042.94
547.72	2051.58
548.07	2059.44
548.43	2067.72
548.79	2075.71
549.14	2083.24
549.50	2090.70
549.86	2098.62
550.21	2106.04
550.57	2113.28
550.92	2119.93
551.28	2127.08
551.64	2134.25
551.99	2140.98
552.35	2146.98
552.70	2153.01
553.06	2158.91
553.41	2165.20
553.77	2171.09
554.13	2177.24
554.48	2183.33
554.84	2188.70
555.19	2193.95
555.55	2199.05
555.90	2203.49
556.26	2208.20
556.61	2212.93
556.97	2216.96
557.32	2220.98
557.68	2225.07
558.03	2229.25
558.39	2232.85
558.74	2237.39
559.10	2241.01
559.45	2244.49
559.81	2249.00
560.16	2252.79
560.52	2256.11
560.87	2259.49
561.23	2262.16
561.58	2265.03
561.94	2267.61
562.29	2270.13
562.64	2272.61
563.00	2275.11
563.35	2278.34
563.71	2281.60
564.06	2284.89
564.42	2287.84
564.77	2290.29
565.12	2292.54
565.48	2294.34
565.83	2296.16
566.19	2297.44
566.54	2298.41
566.89	2299.41
567.25	2299.77
567.60	2301.13
567.96	2302.61
568.31	2303.29
568.66	2304.29
569.02	2304.72
569.37	2304.77
569.72	2305.33
570.08	2305.35
570.43	2305.37
570.78	2304.75
571.14	2303.00
571.49	2301.41
571.84	2300.97
572.20	2299.64
572.55	2298.43
572.90	2296.82
573.26	2295.23
573.61	2293.40
573.96	2291.40
574.31	2288.41
574.67	2285.25
575.02	2281.42
575.37	2277.98
575.72	2274.00
576.08	2270.58
576.43	2267.20
576.78	2263.51
577.13	2260.32
577.49	2257.22
577.84	2253.52
578.19	2249.68
578.54	2245.88
578.90	2241.53
579.25	2235.76
579.60	2230.58
579.95	2225.33
580.30	2220.08
580.66	2214.95
581.01	2209.76
581.36	2204.80
581.71	2200.40
582.06	2195.89
582.42	2191.30
582.77	2186.08
583.12	2181.34
583.47	2176.42
583.82	2171.20
584.17	2165.82
584.53	2160.22
584.88	2154.41
585.23	2148.46
585.58	2142.92
585.93	2137.39
586.28	2132.54
586.63	2127.45
586.98	2122.48
587.34	2117.77
587.69	2112.77
588.04	2107.25
588.39	2101.52
588.74	2094.87
589.09	2088.64
589.44	2081.60
589.79	2075.48
590.14	2069.66
590.49	2063.02
590.84	2056.59
591.19	2050.44
591.54	2043.86
591.89	2036.19
592.25	2029.23
592.60	2022.05
592.95	2014.24
593.30	2006.80
593.65	1999.25
594.00	1992.08
594.35	1984.75
594.70	1976.50
595.05	1969.20
595.40	1961.86
595.75	1954.34
596.10	1947.96
596.45	1941.09
596.80	1934.91
597.15	1928.17
597.50	1920.90
597.85	1914.45
598.19	1907.75
598.54	1900.72
598.89	1894.13
599.24	1888.33
599.59	1881.60
599.94	1875.35
600.29	1869.08
600.64	1862.52
600.99	1854.80
601.34	1847.92
601.69	1840.80
602.04	1833.85
602.39	1826.46
602.74	1819.66
603.08	1812.86
603.43	1806.17
603.78	1798.91
604.13	1791.75
604.48	1784.39
604.83	1777.56
605.18	1770.44
605.53	1762.32
605.87	1754.30
606.22	1747.07
606.57	1739.16
606.92	1731.80
607.27	1724.53
607.62	1717.58
607.96	1710.10
608.31	1703.56
608.66	1695.82
609.01	1688.28
609.36	1680.76
609.70	1672.74
610.05	1664.61
610.40	1656.83
610.75	1648.53
611.10	1640.88
611.44	1632.55
611.79	1624.68
612.14	1615.94
612.49	1606.87
612.83	1598.63
613.18	1590.41
613.53	1582.31
613.88	1573.75
614.22	1565.58
614.57	1557.08
614.92	1549.18
615.27	1541.66
615.61	1533.27
615.96	1525.41
616.31	1517.79
616.65	1510.44
617.00	1502.95
617.35	1495.33
617.70	1486.97
618.04	1478.43
618.39	1470.11
618.74	1462.49
619.08	1454.14
619.43	1446.68
619.78	1439.95
620.12	1432.65
620.47	1425.19
620.82	1417.03
621.16	1409.71
621.51	1402.12
621.85	1394.47
622.20	1385.85
622.55	1377.64
622.89	1369.91
623.24	1362.33
623.59	1355.11
623.93	1347.76
624.28	1340.64
624.62	1333.16
624.97	1326.06
625.32	1319.43
625.66	1312.53
626.01	1305.31
626.35	1297.77
626.70	1290.07
627.04	1282.16
627.39	1274.59
627.73	1267.20
628.08	1260.30
628.43	1252.93
628.77	1245.54
629.12	1238.04
629.46	1230.99
629.81	1223.57
630.15	1216.32
630.50	1208.93
630.84	1200.62
631.19	1192.71
631.53	1185.23
631.88	1177.82
632.22	1170.27
632.57	1163.04
632.91	1155.67
633.26	1148.23
633.60	1141.05
633.95	1133.96
634.29	1127.15
634.64	1120.47
634.98	1113.19
635.32	1106.15
635.67	1099.74
636.01	1093.20
636.36	1086.49
636.70	1080.00
637.05	1073.44
637.39	1066.98
637.73	1060.51
638.08	1054.86
638.42	1048.83
638.77	1042.41
639.11	1035.77
639.45	1029.48
639.80	1022.81
640.14	1016.33
640.49	1009.88
640.83	1003.70
641.17	997.53
641.52	991.12
641.86	984.76
642.20	978.99
642.55	972.71
642.89	966.08
643.23	959.61
643.58	953.76
643.92	947.53
644.26	941.51
644.61	935.60
644.95	929.62
645.29	922.85
645.64	916.09
645.98	909.80
646.32	904.03
646.66	898.05
647.01	892.26
647.35	886.53
647.69	880.69
648.04	875.10
648.38	869.24
648.72	863.22
649.06	857.10
649.41	851.19
649.75	845.10
650.09	839.20
650.43	833.37
650.78	827.21
651.12	821.34
651.46	815.62
651.80	809.82
652.14	804.35
652.49	799.01
652.83	793.84
653.17	788.07
653.51	782.29
653.85	776.83
654.20	771.19
654.54	765.18
654.88	759.52
655.22	753.72
655.56	748.13
655.90	742.83
656.25	737.57
656.59	732.25
656.93	727.21
657.27	722.08
657.61	716.63
657.95	711.60
658.29	706.43
658.64	701.20
658.98	695.95
659.32	690.47
659.66	685.30
660.00	680.00
660.34	675.18
660.68	670.28
661.02	665.31
661.36	660.64
661.70	656.22
662.05	651.94
662.39	647.59
662.73	643.14
663.07	638.70
663.41	634.30
663.75	629.79
664.09	625.28
664.43	620.99
664.77	616.88
665.11	612.67
665.45	608.65
665.79	604.62
666.13	600.51
666.47	596.51
666.81	592.36
667.15	588.39
667.49	584.41
667.83	580.67
668.17	576.75
668.51	572.67
668.85	568.72
669.19	564.87
669.53	561.05
669.87	557.17
670.21	553.51
670.55	549.89
670.89	546.50
671.23	543.08
671.57	539.57
671.91	536.09
672.25	532.68
672.58	529.21
672.92	525.82
673.26	522.70
673.60	519.60
673.94	516.51
674.28	513.62
674.62	510.78
674.96	507.68
675.30	504.81
675.64	501.95
675.97	499.15
676.31	496.27
676.65	493.36
676.99	490.70
677.33	487.88
677.67	485.11
678.01	482.08
678.34	479.14
678.68	476.30
679.02	473.52
679.36	470.71
679.70	467.99
680.04	465.22
680.37	462.36
680.71	459.62
681.05	457.05
681.39	454.35
681.73	451.73
682.06	449.23
682.40	446.68
682.74	444.18
683.08	441.68
683.42	439.13
683.75	436.71
684.09	434.17
684.43	431.73
684.77	429.25
685.10	426.93
685.44	424.63
685.78	422.40
686.12	420.15
686.45	417.91
686.79	415.62
687.13	413.43
687.46	411.27
687.80	409.12
688.14	406.92
688.48	404.83
688.81	402.52
689.15	400.34
689.49	398.21
689.82	396.17
690.16	394.03
690.50	392.11
690.83	390.11
691.17	388.16
691.51	386.23
691.84	384.40
692.18	382.49
692.52	380.55
692.85	378.56
693.19	376.67
693.52	374.84
693.86	373.07
694.20	371.30
694.53	369.53
694.87	367.69
695.21	365.95
695.54	364.13
695.88	362.41
696.21	360.72
696.55	359.04
696.88	357.30
697.22	355.66
697.56	354.01
697.89	352.29
698.23	350.65
698.56	349.03
698.90	347.46
699.23	345.81
699.57	344.25
699.90	342.73
700.24	341.18
700.58	339.66
700.91	338.11
701.25	336.67
701.58	335.28
701.92	333.88
702.25	332.47
702.59	331.12
702.92	329.83
703.26	328.51
703.59	327.23
703.93	326.03
704.26	324.81
704.60	323.52
704.93	322.33
705.26	321.10
705.60	319.96
705.93	318.79
706.27	317.78
706.60	316.70
706.94	315.65
707.27	314.54
707.61	313.46
707.94	312.46
708.27	311.41
708.61	310.32
708.94	309.36
709.28	308.37
709.61	307.41
709.94	306.45
710.28	305.44
710.61	304.51
710.95	303.45
711.28	302.57
711.61	301.60
711.95	300.68
712.28	299.73
712.61	298.77
712.95	297.86
713.28	296.99
713.61	296.13
713.95	295.22
714.28	294.42
714.61	293.60
714.95	292.78
715.28	291.91
715.61	291.06
715.95	290.23
716.28	289.42
716.61	288.59
716.95	287.78
717.28	287.08
717.61	286.29
717.94	285.58
718.28	284.80
718.61	284.10
718.94	283.41
719.27	282.78
719.61	282.10
719.94	281.43
720.27	280.75
720.60	280.07
720.94	279.47
721.27	278.89
721.60	278.29
721.93	277.70
722.27	277.15
722.60	276.60
722.93	276.02
723.26	275.47
723.59	274.92
723.93	274.41
724.26	273.85
724.59	273.30
724.92	272.78
725.25	272.28
725.59	271.74
725.92	271.24
726.25	270.70
726.58	270.22
726.91	269.74
727.24	269.24
727.57	268.74
727.91	268.23
728.24	267.73
728.57	267.24
728.90	266.77
729.23	266.27
729.56	265.85
729.89	265.36
730.22	264.86
730.55	264.38
730.89	263.93
731.22	263.48
731.55	263.02
731.88	262.61
732.21	262.19
732.54	261.77
732.87	261.34
733.20	260.97
733.53	260.58
733.86	260.18
734.19	259.79
734.52	259.44
734.85	259.14
735.18	258.75
735.51	258.42
735.84	258.05
736.17	257.75
736.50	257.32
736.83	257.09
737.16	256.78
737.49	256.49
737.82	256.13
738.15	255.75
738.48	255.42
738.81	255.05
739.14	254.68
739.47	254.37
739.80	254.05
740.13	253.76
740.46	253.40
740.79	253.11
741.12	252.77
741.45	252.44
741.78	252.07
742.11	251.74
742.44	251.38
742.77	251.10
743.10	250.73
743.43	250.46
743.75	250.07
744.08	249.92
744.41	249.62
744.74	249.35
745.07	249.13
745.40	248.88
745.73	248.65
746.06	248.36
746.39	248.12
746.71	247.85
747.04	247.54
747.37	247.30
747.70	247.05
748.03	246.82
748.36	246.62
748.68	246.39
749.01	246.17
749.34	245.95
749.67	245.75
750.00	245.53
750.33	245.37
750.65	245.18
750.98	244.80
751.31	244.59
751.64	244.42
751.97	244.25
752.29	244.03
752.62	243.78
752.95	243.64
753.28	243.40
753.60	243.24
753.93	243.10
754.26	242.92
754.59	242.70
754.91	242.52
755.24	242.32
755.57	242.14
755.90	241.99
756.22	241.82
756.55	241.58
756.88	241.42
757.20	241.20
757.53	241.01
757.86	240.86
758.19	240.71
758.51	240.55
758.84	240.36
759.17	240.22
759.49	240.09
759.82	239.96
760.15	239.85
760.47	239.69
760.80	239.46
761.13	239.35
761.45	239.18
761.78	239.03
762.11	238.87
762.43	238.74
762.76	238.57
763.08	238.47
763.41	238.38
763.74	238.26
764.06	238.13
764.39	238.00
764.71	237.89
765.04	237.74
765.37	237.57
765.69	237.42
766.02	237.27
766.34	237.17
766.67	237.03
767.00	236.89
767.32	236.81
767.65	236.81
767.97	236.65
768.30	236.56
768.62	236.46
768.95	236.37
769.27	236.24
769.60	236.17
769.92	236.03
770.25	235.90
770.57	235.77
770.90	235.68
771.22	235.56
771.55	235.45
771.87	235.35
772.20	235.27
772.52	235.27
772.85	235.28
773.17	235.17
773.50	235.05
773.82	234.95
774.15	234.80
774.47	234.63
774.80	234.52
775.12	234.42
775.45	234.30
775.77	234.18
776.09	234.13
776.42	234.00
776.74	233.92
777.07	233.81
777.39	233.74
777.72	233.59
778.04	233.51
778.36	233.42
778.69	233.34
779.01	233.29
779.33	233.10
779.66	232.96
779.98	232.87
780.31	232.82
780.63	232.78
780.95	232.74
781.28	232.67
781.60	232.64
781.92	232.58
782.25	232.51
782.57	232.45
782.89	232.34
783.22	232.27
783.54	232.18
783.86	232.11
784.19	232.02
784.51	232.02
784.83	231.94
785.16	231.87
785.48	231.82
785.80	231.74
786.12	231.73
786.45	231.66
786.77	231.60
787.09	231.51
787.42	231.40
787.74	231.35
788.06	231.31
788.38	231.25
788.71	231.19
789.03	231.16
789.35	231.15
789.67	231.12
789.99	231.13
790.32	231.10
790.64	231.11
790.96	231.16
791.28	231.10
791.61	231.09
791.93	231.09
792.25	231.04
792.57	231.09
792.89	231.01
793.21	231.00
793.54	231.01
793.86	230.99
794.18	231.04
794.50	231.02
794.82	231.00
795.14	230.97
795.47	230.94
795.79	230.93
796.11	230.86
796.43	230.83
796.75	230.80
797.07	230.80
797.39	230.76
797.71	230.69
798.04	230.66
798.36	230.66
798.68	230.63
799.00	230.61
799.32	230.54
799.64	230.57
799.96	230.53
800.28	230.49
800.60	230.46
800.92	230.43
801.24	230.40
801.56	230.39
801.89	230.40
802.21	230.40
802.53	230.37
802.85	230.40
803.17	230.44
803.49	230.38
803.81	230.34
804.13	230.30
804.45	230.23
804.77	230.26
805.09	230.21
805.41	230.17
805.73	230.14
806.05	230.09
806.37	230.01
806.69	229.97
807.01	229.94
807.33	229.93
807.65	229.86
807.97	229.86
808.28	229.80
808.60	229.75
808.92	229.70
809.24	229.71
809.56	229.65
809.88	229.59
810.20	229.57
810.52	229.54
810.84	229.50
811.16	229.47
811.48	229.39
811.80	229.39
812.12	229.36
812.43	229.34
812.75	229.30
813.07	229.29
813.39	229.27
813.71	229.22
814.03	229.18
814.35	229.12
814.67	229.04
814.98	228.99
815.30	228.95
815.62	228.93
815.94	228.84
816.26	228.84
816.58	228.79
816.89	228.79
817.21	228.73
817.53	228.72
817.85	228.69
818.17	228.68
818.48	228.61
818.80	228.60
819.12	228.57
819.44	228.52
819.76	228.49
820.07	228.46
820.39	228.45
820.71	228.43
821.03	228.45
821.34	228.43
821.66	228.43
821.98	228.41
822.30	228.40
822.61	228.42
822.93	228.41
823.25	228.41
823.57	228.35
823.88	228.40
824.20	228.38
824.52	228.42
824.83	228.39
825.15	228.35
825.47	228.32
825.79	228.32
826.10	228.32
826.42	228.28
826.74	228.28
827.05	228.30
827.37	228.30
827.69	228.29
828.00	228.30
828.32	228.28
828.64	228.27
828.95	228.30
829.27	228.30
829.58	228.28
829.90	228.27
830.22	228.26
830.53	228.23
830.85	228.22
831.17	228.20
831.48	228.21
831.80	228.22
832.11	228.22
832.43	228.20
832.75	228.21
833.06	228.31
833.38	228.31
833.69	228.29
834.01	228.29
834.32	228.27
834.64	228.24
834.96	228.29
835.27	228.24
835.59	228.22
835.90	228.19
836.22	228.18
836.53	228.18
836.85	228.16
837.16	228.25
837.48	228.25
837.79	228.25
838.11	228.26
838.42	228.27
838.74	228.29
839.05	228.30
839.37	228.31
839.68	228.23
840.00	228.24
840.31	228.23
840.63	228.21
840.94	228.24
841.26	228.23
841.57	228.20
841.88	228.26
842.20	228.27
842.51	228.26
842.83	228.24
843.14	228.31
843.46	228.31
843.77	228.24
844.08	228.23
844.40	228.18
844.71	228.15
845.03	228.11
845.34	228.08
845.65	228.07
845.97	228.04
846.28	228.01
846.60	227.98
846.91	227.97
847.22	227.98
847.54	227.97
847.85	227.97
848.16	227.96
848.48	227.93
848.79	227.93
849.10	227.91
849.42	227.91
849.73	227.80
850.04	227.79
850.36	227.75
850.67	227.77
850.98	227.76
851.30	227.76
851.61	227.76
851.92	227.77
852.23	227.79
852.55	227.78
852.86	227.78
853.17	227.81
853.49	227.81
853.80	227.79
854.11	227.78
854.42	227.77
854.74	227.75
855.05	227.72
855.36	227.63
855.67	227.62
855.99	227.58
856.30	227.68
856.61	227.69
856.92	227.68
857.23	227.69
857.55	227.68
857.86	227.66
858.17	227.68
858.48	227.66
858.79	227.59
859.11	227.61
859.42	227.57
859.73	227.55
860.04	227.56
860.35	227.53
860.66	227.50
860.98	227.50
861.29	227.51
861.60	227.54
861.91	227.57
862.22	227.57
862.53	227.58
862.84	227.46
863.16	227.49
863.47	227.48
863.78	227.46
864.09	227.48
864.40	227.49
864.71	227.45
865.02	227.44
865.33	227.45
865.64	227.41
865.95	227.44
866.27	227.48
866.58	227.47
866.89	227.49
867.20	227.49
867.51	227.47
867.82	227.43
868.13	227.44
868.44	227.40
868.75	227.40
869.06	227.37
869.37	227.41
869.68	227.36
869.99	227.37
870.30	227.33
870.61	227.32
870.92	227.30
871.23	227.33
871.54	227.35
871.85	227.39
872.16	227.39
872.47	227.38
872.78	227.34
873.09	227.35
873.40	227.31
873.71	227.32
874.02	227.31
874.33	227.34
874.64	227.32
874.95	227.38
875.26	227.37
875.56	227.40
875.87	227.40
876.18	227.39
876.49	227.48
876.80	227.49
877.11	227.49
877.42	227.51
877.73	227.49
878.04	227.48
878.35	227.50
878.66	227.52
878.96	227.48
879.27	227.45
879.58	227.43
879.89	227.45
880.20	227.48
880.51	227.49
880.82	227.44
881.12	227.47
881.43	227.45
881.74	227.45
882.05	227.41
882.36	227.40
882.67	227.41
882.97	227.32
883.28	227.36
883.59	227.35
883.90	227.38
884.21	227.40
884.51	227.38
884.82	227.34
885.13	227.36
885.44	227.39
885.74	227.38
886.05	227.39
886.36	227.38
886.67	227.35
886.98	227.35
887.28	227.41
887.59	227.39
887.90	227.42
888.20	227.39
888.51	227.44
888.82	227.42
889.13	227.43
889.43	227.49
889.74	227.47
890.05	227.47
890.35	227.42
890.66	227.41
890.97	227.41
891.28	227.36
891.58	227.35
891.89	227.35
892.20	227.32
892.50	227.29
892.81	227.24
893.12	227.22
893.42	227.20
893.73	227.18
894.04	227.16
894.34	227.12
894.65	227.12
894.95	227.10
895.26	227.12
895.57	227.18
895.87	227.07
896.18	227.06
896.48	227.08
896.79	227.10
897.10	227.09
897.40	227.09
897.71	227.12
898.01	227.09
898.32	227.10
898.63	227.11
898.93	227.13
899.24	227.17
899.54	227.18
899.85	227.18
900.15	227.16
900.46	227.18
900.76	227.19
901.07	227.20
901.38	227.20
901.68	227.25
901.99	227.18
902.29	227.18
902.60	227.15
902.90	227.12
903.21	227.12
903.51	227.12
903.82	227.15
904.12	227.17
904.43	227.16
904.73	227.14
905.03	227.15
905.34	227.20
905.64	227.18
905.95	227.18
906.25	227.16
906.56	227.17
906.86	227.19
907.17	227.17
907.47	227.21
907.77	227.18
908.08	227.14
908.38	227.17
908.69	227.18
908.99	227.25
909.30	227.27
909.60	227.27
909.90	227.26
910.21	227.21
910.51	227.20
910.81	227.24
911.12	227.28
911.42	227.32
911.73	227.25
912.03	227.29
912.33	227.32
912.64	227.33
912.94	227.31
913.24	227.28
913.55	227.28
913.85	227.23
914.15	227.24
914.46	227.25
914.76	227.22
915.06	227.22
915.37	227.20
915.67	227.19
915.97	227.18
916.27	227.17
916.58	227.21
916.88	227.22
917.18	227.18
917.49	227.23
917.79	227.24
918.09	227.25
918.39	227.27
918.70	227.26
919.00	227.26
919.30	227.33
919.60	227.32
919.91	227.32
920.21	227.34
920.51	227.34
920.81	227.32
921.12	227.35
921.42	227.32
921.72	227.31
922.02	227.35
922.32	227.35
922.63	227.35
922.93	227.38
923.23	227.38
923.53	227.36
923.83	227.31
924.13	227.28
924.44	227.29
924.74	227.27
925.04	227.28
925.34	227.26
925.64	227.22
925.94	227.23
926.24	227.28
926.55	227.28
926.85	227.29
927.15	227.28
927.45	227.27
927.75	227.28
928.05	227.26
928.35	227.21
928.65	227.21
928.95	227.23
929.26	227.18
929.56	227.20
929.86	227.22
930.16	227.20
930.46	227.16
930.76	227.16
931.06	227.16
931.36	227.12
931.66	227.11
931.96	227.11
932.26	227.10
932.56	227.04
932.86	227.03
933.16	227.01
933.46	227.00
933.76	226.96
934.06	226.98
934.36	227.01
934.66	227.02
934.96	227.00
935.26	226.98
935.56	226.97
935.86	226.93
936.16	226.89
936.46	226.88
936.76	226.87
937.06	226.84
937.36	226.82
937.66	226.86
937.96	226.86
938.26	226.86
938.56	226.84
938.86	226.84
939.16	226.88
939.46	226.89
939.76	226.93
940.06	226.98
940.35	226.92
940.65	226.87
940.95	226.85
941.25	226.83
941.55	226.82
941.85	226.84
942.15	226.87
942.45	226.91
942.75	226.90
943.04	226.93
943.34	226.93
943.64	226.92
943.94	226.90
944.24	226.91
944.54	226.91
944.84	226.94
945.13	226.92
945.43	226.89
945.73	226.88
946.03	226.86
946.33	226.82
946.62	226.84
946.92	226.86
947.22	226.87
947.52	226.88
947.82	226.89
948.11	226.87
948.41	226.84
948.71	226.82
949.01	226.82
949.31	226.81
949.60	226.80
949.90	226.83
950.20	226.80
950.50	226.82
950.79	226.79
951.09	226.80
951.39	226.84
951.69	226.82
951.98	226.86
952.28	226.86
952.58	226.90
952.87	226.89
953.17	226.90
953.47	226.90
953.76	226.95
954.06	226.94
954.36	226.94
954.66	226.95
954.95	227.00
955.25	227.05
955.55	227.08
955.84	227.09
956.14	227.11
956.44	227.16
956.73	227.13
957.03	227.17
957.32	227.17
957.62	227.14
957.92	227.16
958.21	227.12
958.51	227.25
958.81	227.22
959.10	227.26
959.40	227.30
959.69	227.29
959.99	227.30
960.29	227.32
960.58	227.28
960.88	227.37
961.17	227.33
961.47	227.30
961.76	227.29
962.06	227.31
962.36	227.28
962.65	227.28
962.95	227.27
963.24	227.23
963.54	227.23
963.83	227.26
964.13	227.27
964.42	227.25
964.72	227.16
965.01	227.14
965.31	227.11
965.60	227.07
965.90	227.11
966.19	227.06
966.49	227.05
966.78	227.07
967.08	227.01
967.37	227.03
967.67	227.01
967.96	227.00
968.26	226.98
968.55	227.00
968.85	226.99
969.14	226.97
969.43	226.98
969.73	226.95
970.02	226.91
970.32	226.88
970.61	226.92
970.91	226.85
971.20	226.86
971.49	226.84
971.79	226.90
972.08	226.87
972.38	226.88
972.67	226.87
972.96	226.87
973.26	226.85
973.55	226.86
973.85	226.87
974.14	226.85
974.43	226.85
974.73	226.81
975.02	226.77
975.31	226.80
975.61	226.81
975.90	226.78
976.19	226.79
976.49	226.80
976.78	226.78
977.07	226.81
977.37	226.82
977.66	226.85
977.95	226.79
978.24	226.78
978.54	226.80
978.83	226.79
979.12	226.80
979.42	226.81
979.71	226.79
980.00	226.80
980.29	226.80
980.59	226.78
980.88	226.80
981.17	226.82
981.46	226.83
981.76	226.82
982.05	226.86
982.34	226.84
982.63	226.85
982.93	226.84
983.22	226.86
983.51	226.85
983.80	226.85
984.09	226.88
984.39	226.86
984.68	226.84
984.97	226.86
985.26	226.84
985.55	226.87
985.85	226.85
986.14	226.85
986.43	226.91
986.72	226.96
987.01	226.96
987.30	226.96
987.59	226.94
987.89	226.96
988.18	226.94
988.47	226.94
988.76	226.94
989.05	226.96
989.34	226.95
989.63	226.99
989.92	226.98
990.22	226.96
990.51	226.98
990.80	226.98
991.09	226.99
991.38	227.00
991.67	226.96
991.96	226.95
992.25	226.98
992.54	226.94
992.83	226.91
993.12	226.89
993.41	226.93
993.70	226.96
993.99	226.97
994.28	227.01
994.58	227.06
994.87	227.05
995.16	227.04
995.45	227.03
995.74	226.98
996.03	227.01
996.32	227.03
996.61	227.06
996.90	227.08
997.19	227.08
997.48	227.09
997.77	227.10
998.06	227.14
998.34	227.13
998.63	227.13
998.92	227.11
999.21	227.13
999.50	227.12
999.79	227.08
1000.08	227.07
1000.37	227.07
1000.66	227.05
1000.95	227.07
1001.24	227.06
1001.53	227.07
1001.82	227.08
1002.11	227.02
1002.40	227.04
1002.68	227.04
1002.97	227.12
1003.26	227.08
1003.55	227.06
1003.84	227.05
1004.13	227.03
1004.42	227.04
1004.71	227.02
1004.99	227.04
1005.28	227.06
1005.57	227.05
1005.86	227.06
1006.15	227.08
1006.44	227.04
1006.72	227.02
1007.01	227.00
1007.30	226.99
1007.59	227.00
1007.88	227.01
1008.17	227.04
1008.45	227.01
1008.74	226.98
1009.03	226.90
1009.32	226.90
1009.60	226.92
1009.89	226.91
1010.18	226.87
1010.47	226.84
1010.76	226.86
1011.04	226.84
1011.33	226.83
1011.62	226.85
1011.91	226.87
1012.19	226.83
1012.48	226.83
1012.77	226.86
1013.05	226.91
1013.34	226.90
1013.63	226.87
1013.92	226.87
1014.20	226.85
1014.49	226.84
1014.78	226.82
1015.06	226.78
1015.35	226.80
1015.64	226.78
1015.92	226.81
1016.21	226.80
1016.50	226.81
1016.78	226.81
1017.07	226.83
1017.36	226.81
1017.64	226.75
1017.93	226.73
1018.22	226.73
1018.50	226.72
1018.79	226.69
1019.08	226.66
1019.36	226.68
1019.65	226.69
1019.93	226.72
1020.22	226.75
1020.51	226.80
1020.79	226.84
1021.08	226.64
1021.36	226.41
1021.65	226.53
1021.94	227.12
1022.22	226.63
1022.51	227.01
1022.79	227.43
1023.08	226.93
1023.36	228.07
1023.65	226.90
>>>>>End Processed Spectral Data<<<<<
