SpectraSuite Data File
++++++++++++++++++++++++++++++++++++
Date: Fri Feb 01 17:53:56 EST 2013
User: group
Dark Spectrum Present: No
Reference Spectrum Present: No
Number of Sampled Component Spectra: 1
Spectrometers: USB2E7196
Integration Time (usec): 35000 (USB2E7196)
Spectra Averaged: 100 (USB2E7196)
Boxcar Smoothing: 10 (USB2E7196)
Correct for Electrical Dark: No (USB2E7196)
Strobe/Lamp Enabled: No (USB2E7196)
Correct for Detector Non-linearity: No (USB2E7196)
Correct for Stray Light: No (USB2E7196)
Number of Pixels in Processed Spectrum: 2048
>>>>>Begin Processed Spectral Data<<<<<
339.09	0.00
339.48	212.92
339.86	214.03
340.24	215.77
340.63	217.12
341.01	219.44
341.39	219.44
341.78	220.68
342.16	221.94
342.54	222.79
342.93	211.11
343.31	221.78
343.69	222.33
344.07	222.80
344.46	223.24
344.84	223.60
345.22	223.86
345.60	224.11
345.99	224.35
346.37	224.50
346.75	224.61
347.13	224.70
347.52	224.75
347.90	224.80
348.28	224.83
348.66	224.87
349.05	224.88
349.43	224.95
349.81	224.98
350.19	225.03
350.57	225.06
350.96	225.13
351.34	225.22
351.72	225.28
352.10	225.39
352.48	225.46
352.87	225.52
353.25	225.58
353.63	225.65
354.01	225.69
354.39	225.75
354.77	225.83
355.15	225.90
355.54	225.97
355.92	226.03
356.30	226.11
356.68	226.23
357.06	226.30
357.44	226.34
357.82	226.44
358.20	226.52
358.58	226.60
358.97	226.67
359.35	226.74
359.73	226.81
360.11	226.87
360.49	226.89
360.87	226.94
361.25	227.00
361.63	227.07
362.01	227.11
362.39	227.13
362.77	227.17
363.15	227.17
363.53	227.24
363.91	227.26
364.29	227.30
364.67	227.21
365.05	227.22
365.43	227.26
365.81	227.28
366.19	227.31
366.57	227.33
366.95	227.34
367.33	227.34
367.71	227.34
368.09	227.32
368.47	227.32
368.85	227.29
369.23	227.29
369.61	227.26
369.99	227.27
370.37	227.28
370.75	227.30
371.13	227.27
371.51	227.19
371.89	227.14
372.27	227.13
372.65	227.13
373.03	227.11
373.41	227.06
373.78	226.97
374.16	226.89
374.54	226.83
374.92	226.74
375.30	226.67
375.68	226.59
376.06	226.57
376.44	226.50
376.82	226.45
377.19	226.39
377.57	226.30
377.95	226.20
378.33	226.12
378.71	226.02
379.09	225.99
379.47	225.93
379.84	225.86
380.22	225.76
380.60	225.65
380.98	225.58
381.36	225.49
381.73	225.44
382.11	225.41
382.49	225.40
382.87	225.35
383.25	225.27
383.62	225.38
384.00	225.27
384.38	225.23
384.76	225.21
385.13	225.19
385.51	225.14
385.89	225.05
386.27	225.01
386.64	224.96
387.02	224.90
387.40	224.86
387.78	224.84
388.15	224.80
388.53	224.82
388.91	224.78
389.29	224.75
389.66	224.74
390.04	224.66
390.42	224.59
390.79	224.58
391.17	224.58
391.55	224.41
391.92	224.42
392.30	224.41
392.68	224.35
393.05	224.33
393.43	224.36
393.81	224.40
394.18	224.40
394.56	224.44
394.94	224.44
395.31	224.46
395.69	224.49
396.06	224.53
396.44	224.54
396.82	224.58
397.19	224.68
397.57	224.73
397.95	224.82
398.32	224.85
398.70	224.91
399.07	224.97
399.45	225.02
399.82	225.08
400.20	225.15
400.58	225.24
400.95	225.30
401.33	225.35
401.70	225.51
402.08	225.63
402.45	225.70
402.83	225.84
403.20	225.97
403.58	226.09
403.95	226.22
404.33	226.35
404.71	226.46
405.08	226.65
405.46	226.79
405.83	226.93
406.21	227.10
406.58	227.31
406.96	227.48
407.33	227.71
407.70	227.96
408.08	228.27
408.45	228.58
408.83	228.85
409.20	229.13
409.58	229.34
409.95	229.65
410.33	229.95
410.70	230.25
411.08	230.64
411.45	231.02
411.82	231.42
412.20	231.88
412.57	232.39
412.95	232.76
413.32	233.29
413.69	233.82
414.07	234.40
414.44	234.98
414.82	235.58
415.19	236.29
415.56	237.03
415.94	237.77
416.31	238.55
416.68	239.38
417.06	240.36
417.43	241.29
417.81	242.31
418.18	243.34
418.55	244.47
418.93	245.59
419.30	246.76
419.67	247.96
420.04	249.24
420.42	250.62
420.79	252.16
421.16	253.71
421.54	255.29
421.91	256.89
422.28	258.55
422.66	260.33
423.03	262.07
423.40	263.78
423.77	265.66
424.15	267.56
424.52	269.51
424.89	271.62
425.26	273.67
425.64	275.58
426.01	277.73
426.38	279.93
426.75	282.18
427.13	284.52
427.50	286.94
427.87	289.44
428.24	291.90
428.61	294.26
428.99	296.80
429.36	299.59
429.73	302.34
430.10	305.07
430.47	307.82
430.85	310.66
431.22	313.64
431.59	316.77
431.96	319.74
432.33	323.04
432.70	326.21
433.08	329.97
433.45	333.50
433.82	336.92
434.19	340.75
434.56	344.45
434.93	347.96
435.30	351.48
435.68	355.32
436.05	359.06
436.42	362.74
436.79	366.08
437.16	369.69
437.53	373.47
437.90	377.18
438.27	380.85
438.64	384.63
439.01	388.12
439.38	391.11
439.75	394.01
440.13	397.36
440.50	400.44
440.87	402.86
441.24	405.43
441.61	408.37
441.98	410.41
442.35	412.86
442.72	415.33
443.09	417.74
443.46	419.06
443.83	419.88
444.20	420.59
444.57	421.81
444.94	422.20
445.31	422.70
445.68	423.16
446.05	423.28
446.42	422.77
446.79	422.24
447.16	421.66
447.53	421.24
447.90	419.72
448.27	418.17
448.64	416.14
449.01	414.61
449.37	411.96
449.74	409.42
450.11	406.37
450.48	403.00
450.85	399.62
451.22	396.77
451.59	394.09
451.96	391.49
452.33	387.99
452.70	384.84
453.07	381.04
453.43	377.21
453.80	373.50
454.17	369.92
454.54	366.50
454.91	362.86
455.28	359.33
455.65	356.01
456.02	352.69
456.38	349.77
456.75	346.22
457.12	343.20
457.49	340.22
457.86	337.31
458.23	334.90
458.59	332.14
458.96	329.32
459.33	326.79
459.70	324.26
460.07	322.19
460.43	319.89
460.80	317.67
461.17	315.71
461.54	313.66
461.91	311.74
462.27	309.80
462.64	308.11
463.01	306.25
463.38	304.50
463.74	302.70
464.11	301.13
464.48	299.73
464.85	298.27
465.21	297.08
465.58	295.83
465.95	294.36
466.32	293.13
466.68	291.96
467.05	290.79
467.42	289.60
467.78	288.34
468.15	287.13
468.52	286.24
468.88	285.10
469.25	284.07
469.62	283.19
469.98	282.28
470.35	281.41
470.72	280.65
471.08	279.79
471.45	279.05
471.82	278.35
472.18	277.58
472.55	276.99
472.92	276.25
473.28	275.64
473.65	274.99
474.02	274.44
474.38	273.90
474.75	273.46
475.11	272.96
475.48	272.61
475.85	272.31
476.21	271.98
476.58	271.70
476.94	271.48
477.31	271.23
477.67	270.97
478.04	270.78
478.41	270.63
478.77	270.57
479.14	270.48
479.50	270.41
479.87	270.42
480.23	270.40
480.60	270.45
480.96	270.52
481.33	270.72
481.69	270.91
482.06	271.10
482.42	271.21
482.79	271.48
483.15	271.75
483.52	272.08
483.88	272.37
484.25	272.69
484.61	273.10
484.98	273.55
485.34	274.08
485.71	274.65
486.07	275.23
486.44	275.81
486.80	276.49
487.17	277.25
487.53	278.11
487.90	279.01
488.26	280.01
488.62	281.02
488.99	282.03
489.35	283.06
489.72	284.22
490.08	285.51
490.44	286.81
490.81	288.22
491.17	289.62
491.54	291.22
491.90	292.84
492.26	294.58
492.63	296.37
492.99	298.24
493.36	300.25
493.72	302.42
494.08	304.62
494.45	307.01
494.81	309.49
495.17	312.04
495.54	314.73
495.90	317.49
496.26	320.38
496.63	323.47
496.99	326.79
497.35	330.21
497.72	333.78
498.08	337.44
498.44	341.28
498.80	345.42
499.17	349.69
499.53	354.10
499.89	358.70
500.26	363.49
500.62	368.42
500.98	373.67
501.34	378.99
501.71	384.62
502.07	390.35
502.43	396.30
502.79	402.45
503.16	408.83
503.52	415.45
503.88	422.28
504.24	429.29
504.60	436.55
504.97	444.05
505.33	451.86
505.69	460.04
506.05	468.28
506.41	476.64
506.78	485.28
507.14	494.23
507.50	503.41
507.86	512.98
508.22	522.75
508.59	532.50
508.95	542.70
509.31	553.19
509.67	563.92
510.03	574.83
510.39	586.02
510.75	597.47
511.12	609.07
511.48	621.07
511.84	633.28
512.20	645.55
512.56	658.30
512.92	671.22
513.28	684.49
513.64	697.88
514.00	711.45
514.37	725.35
514.73	739.27
515.09	753.25
515.45	767.51
515.81	782.12
516.17	797.24
516.53	812.40
516.89	827.59
517.25	842.90
517.61	858.44
517.97	874.07
518.33	889.66
518.69	905.65
519.05	921.78
519.41	938.23
519.77	954.97
520.13	971.69
520.49	988.50
520.85	1005.07
521.21	1022.06
521.57	1039.65
521.93	1056.70
522.29	1074.52
522.65	1092.31
523.01	1109.90
523.37	1127.31
523.73	1144.86
524.09	1162.38
524.45	1180.18
524.81	1198.19
525.17	1216.51
525.53	1234.91
525.89	1253.42
526.25	1271.97
526.61	1289.98
526.97	1308.29
527.33	1326.60
527.68	1344.95
528.04	1363.02
528.40	1381.29
528.76	1400.21
529.12	1418.61
529.48	1437.38
529.84	1455.08
530.20	1473.48
530.56	1492.32
530.91	1511.62
531.27	1530.37
531.63	1548.73
531.99	1567.21
532.35	1585.22
532.71	1603.13
533.07	1621.37
533.42	1639.26
533.78	1657.23
534.14	1675.55
534.50	1692.81
534.86	1710.52
535.21	1727.68
535.57	1745.60
535.93	1763.07
536.29	1779.64
536.65	1796.62
537.00	1813.34
537.36	1830.89
537.72	1847.38
538.08	1863.89
538.44	1879.67
538.79	1895.49
539.15	1911.15
539.51	1926.93
539.87	1943.40
540.22	1959.09
540.58	1974.81
540.94	1990.03
541.29	2004.89
541.65	2019.60
542.01	2034.97
542.37	2049.60
542.72	2064.03
543.08	2078.08
543.44	2092.80
543.79	2106.34
544.15	2119.43
544.51	2133.02
544.87	2146.02
545.22	2159.00
545.58	2171.33
545.94	2183.17
546.29	2194.97
546.65	2206.88
547.01	2218.27
547.36	2228.91
547.72	2239.42
548.07	2249.60
548.43	2259.70
548.79	2269.45
549.14	2279.02
549.50	2288.19
549.86	2297.53
550.21	2306.79
550.57	2315.71
550.92	2324.12
551.28	2332.99
551.64	2342.04
551.99	2350.59
552.35	2358.67
552.70	2366.67
553.06	2374.47
553.41	2382.73
553.77	2390.61
554.13	2398.42
554.48	2406.27
554.84	2413.82
555.19	2420.65
555.55	2427.28
555.90	2433.50
556.26	2440.42
556.61	2446.79
556.97	2452.81
557.32	2458.57
557.68	2464.40
558.03	2470.13
558.39	2475.16
558.74	2481.36
559.10	2486.71
559.45	2491.59
559.81	2497.21
560.16	2502.39
560.52	2507.03
560.87	2511.67
561.23	2515.57
561.58	2519.71
561.94	2523.48
562.29	2526.62
562.64	2530.80
563.00	2534.54
563.35	2539.27
563.71	2543.62
564.06	2547.80
564.42	2551.97
564.77	2555.73
565.12	2559.17
565.48	2562.33
565.83	2565.42
566.19	2568.01
566.54	2569.78
566.89	2572.18
567.25	2573.77
567.60	2576.10
567.96	2578.81
568.31	2580.69
568.66	2582.82
569.02	2584.48
569.37	2585.65
569.72	2587.49
570.08	2588.48
570.43	2589.43
570.78	2589.88
571.14	2588.78
571.49	2588.14
571.84	2588.38
572.20	2587.98
572.55	2587.52
572.90	2586.34
573.26	2585.43
573.61	2583.83
573.96	2582.83
574.31	2580.02
574.67	2577.44
575.02	2573.82
575.37	2570.38
575.72	2566.88
576.08	2563.43
576.43	2559.91
576.78	2556.46
577.13	2553.26
577.49	2549.85
577.84	2546.47
578.19	2542.55
578.54	2539.12
578.90	2535.05
579.25	2529.28
579.60	2524.08
579.95	2518.77
580.30	2513.47
580.66	2508.16
581.01	2502.96
581.36	2497.44
581.71	2493.16
582.06	2488.47
582.42	2484.02
582.77	2478.57
583.12	2473.64
583.47	2468.96
583.82	2464.01
584.17	2458.31
584.53	2452.39
584.88	2446.57
585.23	2440.30
585.58	2434.25
585.93	2428.22
586.28	2422.65
586.63	2417.24
586.98	2411.58
587.34	2406.31
587.69	2400.93
588.04	2395.23
588.39	2388.93
588.74	2381.79
589.09	2374.99
589.44	2367.48
589.79	2360.54
590.14	2354.20
590.49	2346.83
590.84	2339.56
591.19	2332.83
591.54	2325.52
591.89	2317.63
592.25	2310.08
592.60	2301.96
592.95	2293.71
593.30	2285.54
593.65	2277.17
594.00	2269.13
594.35	2261.05
594.70	2251.88
595.05	2244.10
595.40	2235.68
595.75	2227.23
596.10	2220.40
596.45	2212.87
596.80	2205.70
597.15	2198.43
597.50	2190.80
597.85	2183.40
598.19	2175.92
598.54	2168.15
598.89	2160.75
599.24	2153.82
599.59	2146.46
599.94	2139.35
600.29	2131.94
600.64	2124.23
600.99	2115.80
601.34	2107.92
601.69	2099.72
602.04	2092.01
602.39	2083.30
602.74	2075.59
603.08	2068.00
603.43	2060.08
603.78	2051.61
604.13	2043.37
604.48	2035.02
604.83	2026.92
605.18	2019.16
605.53	2010.00
605.87	2000.56
606.22	1992.10
606.57	1982.98
606.92	1974.09
607.27	1965.86
607.62	1957.93
607.96	1949.67
608.31	1942.26
608.66	1933.64
609.01	1925.05
609.36	1916.45
609.70	1907.18
610.05	1897.89
610.40	1888.93
610.75	1879.35
611.10	1870.50
611.44	1860.71
611.79	1851.28
612.14	1841.23
612.49	1830.39
612.83	1820.57
613.18	1810.93
613.53	1801.50
613.88	1791.53
614.22	1782.00
614.57	1771.85
614.92	1762.48
615.27	1753.79
615.61	1744.01
615.96	1734.58
616.31	1725.62
616.65	1716.92
617.00	1708.29
617.35	1699.15
617.70	1689.50
618.04	1679.70
618.39	1669.92
618.74	1661.12
619.08	1651.49
619.43	1642.50
619.78	1634.42
620.12	1626.26
620.47	1617.54
620.82	1607.92
621.16	1599.10
621.51	1590.16
621.85	1581.15
622.20	1571.25
622.55	1561.29
622.89	1551.99
623.24	1542.91
623.59	1534.14
623.93	1525.22
624.28	1516.69
624.62	1507.96
624.97	1499.44
625.32	1491.36
625.66	1483.12
626.01	1474.67
626.35	1466.16
626.70	1457.10
627.04	1448.13
627.39	1438.89
627.73	1430.24
628.08	1422.22
628.43	1413.92
628.77	1405.59
629.12	1396.90
629.46	1388.57
629.81	1379.92
630.15	1371.44
630.50	1362.99
630.84	1353.54
631.19	1344.33
631.53	1335.40
631.88	1326.57
632.22	1317.81
632.57	1309.32
632.91	1300.62
633.26	1292.07
633.60	1283.32
633.95	1274.97
634.29	1266.59
634.64	1258.68
634.98	1250.11
635.32	1241.80
635.67	1233.97
636.01	1226.07
636.36	1218.28
636.70	1210.62
637.05	1202.89
637.39	1195.40
637.73	1187.71
638.08	1180.84
638.42	1173.98
638.77	1166.56
639.11	1159.06
639.45	1151.67
639.80	1143.99
640.14	1136.58
640.49	1128.94
640.83	1121.67
641.17	1114.53
641.52	1107.39
641.86	1099.95
642.20	1093.17
642.55	1085.77
642.89	1078.40
643.23	1070.76
643.58	1064.06
643.92	1056.97
644.26	1050.19
644.61	1043.16
644.95	1036.34
645.29	1028.78
645.64	1020.95
645.98	1013.56
646.32	1006.59
646.66	999.63
647.01	992.90
647.35	986.37
647.69	979.66
648.04	973.20
648.38	966.57
648.72	959.69
649.06	952.79
649.41	945.94
649.75	939.20
650.09	932.33
650.43	925.72
650.78	918.60
651.12	911.71
651.46	905.08
651.80	898.55
652.14	892.28
652.49	886.16
652.83	880.25
653.17	873.99
653.51	867.62
653.85	861.37
654.20	854.90
654.54	847.94
654.88	841.37
655.22	834.56
655.56	827.98
655.90	821.65
656.25	815.60
656.59	809.54
656.93	803.66
657.27	797.76
657.61	791.50
657.95	785.62
658.29	779.79
658.64	773.67
658.98	767.53
659.32	761.26
659.66	755.32
660.00	749.27
660.34	743.44
660.68	737.74
661.02	731.95
661.36	726.53
661.70	721.37
662.05	716.34
662.39	711.43
662.73	706.34
663.07	701.28
663.41	696.26
663.75	691.08
664.09	685.78
664.43	680.76
664.77	676.04
665.11	671.22
665.45	666.42
665.79	661.83
666.13	657.21
666.47	652.51
666.81	647.79
667.15	643.02
667.49	638.53
667.83	634.04
668.17	629.52
668.51	624.96
668.85	620.31
669.19	615.85
669.53	611.53
669.87	607.12
670.21	602.88
670.55	598.64
670.89	594.71
671.23	590.88
671.57	586.82
671.91	582.84
672.25	578.78
672.58	574.79
672.92	570.80
673.26	567.12
673.60	563.47
673.94	559.85
674.28	556.49
674.62	553.09
674.96	549.68
675.30	546.40
675.64	542.99
675.97	539.82
676.31	536.56
676.65	533.15
676.99	530.00
677.33	526.73
677.67	523.47
678.01	520.05
678.34	516.68
678.68	513.39
679.02	510.13
679.36	506.99
679.70	503.89
680.04	500.76
680.37	497.50
680.71	494.28
681.05	491.30
681.39	488.23
681.73	485.15
682.06	482.24
682.40	479.32
682.74	476.39
683.08	473.46
683.42	470.48
683.75	467.64
684.09	464.71
684.43	461.84
684.77	459.03
685.10	456.27
685.44	453.50
685.78	450.83
686.12	448.23
686.45	445.56
686.79	442.91
687.13	440.37
687.46	437.85
687.80	435.41
688.14	432.78
688.48	430.37
688.81	427.90
689.15	425.34
689.49	422.83
689.82	420.45
690.16	418.01
690.50	415.69
690.83	413.46
691.17	411.11
691.51	408.97
691.84	406.89
692.18	404.72
692.52	402.55
692.85	400.29
693.19	398.09
693.52	395.94
693.86	393.82
694.20	391.78
694.53	389.74
694.87	387.58
695.21	385.56
695.54	383.42
695.88	381.35
696.21	379.36
696.55	377.39
696.88	375.47
697.22	373.62
697.56	371.74
697.89	369.82
698.23	368.02
698.56	366.09
698.90	364.28
699.23	362.40
699.57	360.56
699.90	358.80
700.24	357.05
700.58	355.32
700.91	353.63
701.25	351.93
701.58	350.34
701.92	348.81
702.25	347.27
702.59	345.73
702.92	344.25
703.26	342.77
703.59	341.34
703.93	339.97
704.26	338.54
704.60	337.08
704.93	335.63
705.26	334.21
705.60	332.87
705.93	331.50
706.27	330.25
706.60	329.04
706.94	327.82
707.27	326.53
707.61	325.27
707.94	324.05
708.27	322.81
708.61	321.56
708.94	320.35
709.28	319.16
709.61	318.06
709.94	316.98
710.28	315.81
710.61	314.63
710.95	313.37
711.28	312.30
711.61	311.20
711.95	310.18
712.28	309.06
712.61	307.91
712.95	306.83
713.28	305.83
713.61	304.79
713.95	303.75
714.28	302.79
714.61	301.82
714.95	300.84
715.28	299.86
715.61	298.82
715.95	297.80
716.28	296.85
716.61	295.88
716.95	294.87
717.28	294.00
717.61	293.14
717.94	292.27
718.28	291.31
718.61	290.46
718.94	289.60
719.27	288.83
719.61	288.11
719.94	287.34
720.27	286.53
720.60	285.79
720.94	285.10
721.27	284.42
721.60	283.75
721.93	283.08
722.27	282.41
722.60	281.79
722.93	281.15
723.26	280.54
723.59	279.87
723.93	279.25
724.26	278.61
724.59	277.93
724.92	277.33
725.25	276.75
725.59	276.15
725.92	275.58
726.25	274.99
726.58	274.45
726.91	273.90
727.24	273.33
727.57	272.75
727.91	272.15
728.24	271.57
728.57	270.99
728.90	270.44
729.23	269.93
729.56	269.41
729.89	268.86
730.22	268.25
730.55	267.72
730.89	267.23
731.22	266.75
731.55	266.26
731.88	265.77
732.21	265.29
732.54	264.81
732.87	264.30
733.20	263.83
733.53	263.34
733.86	262.88
734.19	262.47
734.52	262.05
734.85	261.64
735.18	261.16
735.51	260.74
735.84	260.33
736.17	259.90
736.50	259.42
736.83	259.17
737.16	258.81
737.49	258.44
737.82	258.04
738.15	257.67
738.48	257.27
738.81	256.91
739.14	256.55
739.47	256.17
739.80	255.81
740.13	255.45
740.46	255.07
740.79	254.68
741.12	254.29
741.45	253.93
741.78	253.59
742.11	253.28
742.44	252.92
742.77	252.58
743.10	252.25
743.43	251.94
743.75	251.49
744.08	251.28
744.41	250.98
744.74	250.69
745.07	250.37
745.40	250.09
745.73	249.85
746.06	249.54
746.39	249.23
746.71	248.95
747.04	248.65
747.37	248.35
747.70	248.13
748.03	247.88
748.36	247.64
748.68	247.39
749.01	247.13
749.34	246.88
749.67	246.62
750.00	246.37
750.33	246.18
750.65	245.98
750.98	245.60
751.31	245.34
751.64	245.08
751.97	244.88
752.29	244.66
752.62	244.32
752.95	244.10
753.28	243.85
753.60	243.62
753.93	243.45
754.26	243.26
754.59	242.98
754.91	242.69
755.24	242.43
755.57	242.18
755.90	241.98
756.22	241.74
756.55	241.51
756.88	241.25
757.20	240.99
757.53	240.74
757.86	240.58
758.19	240.40
758.51	240.23
758.84	239.98
759.17	239.77
759.49	239.62
759.82	239.45
760.15	239.30
760.47	239.10
760.80	238.84
761.13	238.68
761.45	238.49
761.78	238.34
762.11	238.20
762.43	238.01
762.76	237.82
763.08	237.69
763.41	237.52
763.74	237.37
764.06	237.19
764.39	236.99
764.71	236.79
765.04	236.59
765.37	236.38
765.69	236.25
766.02	236.11
766.34	235.94
766.67	235.77
767.00	235.64
767.32	235.57
767.65	235.51
767.97	235.38
768.30	235.28
768.62	235.14
768.95	234.98
769.27	234.85
769.60	234.73
769.92	234.58
770.25	234.48
770.57	234.35
770.90	234.25
771.22	234.14
771.55	234.03
771.87	233.94
772.20	233.83
772.52	233.77
772.85	233.75
773.17	233.65
773.50	233.51
773.82	233.41
774.15	233.28
774.47	233.12
774.80	232.98
775.12	232.90
775.45	232.81
775.77	232.76
776.09	232.69
776.42	232.60
776.74	232.51
777.07	232.40
777.39	232.32
777.72	232.24
778.04	232.19
778.36	232.09
778.69	232.01
779.01	231.96
779.33	231.81
779.66	231.61
779.98	231.53
780.31	231.50
780.63	231.42
780.95	231.38
781.28	231.30
781.60	231.20
781.92	231.08
782.25	231.02
782.57	230.89
782.89	230.82
783.22	230.74
783.54	230.66
783.86	230.61
784.19	230.55
784.51	230.51
784.83	230.42
785.16	230.40
785.48	230.37
785.80	230.29
786.12	230.26
786.45	230.20
786.77	230.17
787.09	230.10
787.42	230.04
787.74	229.96
788.06	229.92
788.38	229.89
788.71	229.85
789.03	229.78
789.35	229.77
789.67	229.70
789.99	229.69
790.32	229.63
790.64	229.60
790.96	229.64
791.28	229.55
791.61	229.54
791.93	229.49
792.25	229.41
792.57	229.45
792.89	229.36
793.21	229.33
793.54	229.26
793.86	229.19
794.18	229.16
794.50	229.10
794.82	229.08
795.14	229.06
795.47	229.06
795.79	229.04
796.11	229.00
796.43	228.98
796.75	228.92
797.07	228.88
797.39	228.83
797.71	228.72
798.04	228.70
798.36	228.66
798.68	228.61
799.00	228.56
799.32	228.46
799.64	228.46
799.96	228.46
800.28	228.46
800.60	228.47
800.92	228.42
801.24	228.40
801.56	228.39
801.89	228.33
802.21	228.30
802.53	228.22
802.85	228.17
803.17	228.17
803.49	228.15
803.81	228.12
804.13	228.08
804.45	228.02
804.77	227.99
805.09	227.93
805.41	227.87
805.73	227.86
806.05	227.81
806.37	227.77
806.69	227.70
807.01	227.65
807.33	227.62
807.65	227.57
807.97	227.56
808.28	227.49
808.60	227.45
808.92	227.40
809.24	227.44
809.56	227.38
809.88	227.32
810.20	227.29
810.52	227.27
810.84	227.22
811.16	227.19
811.48	227.17
811.80	227.17
812.12	227.17
812.43	227.17
812.75	227.12
813.07	227.08
813.39	227.05
813.71	227.02
814.03	226.97
814.35	226.96
814.67	226.88
814.98	226.87
815.30	226.87
815.62	226.82
815.94	226.74
816.26	226.79
816.58	226.77
816.89	226.73
817.21	226.71
817.53	226.69
817.85	226.66
818.17	226.68
818.48	226.61
818.80	226.62
819.12	226.57
819.44	226.58
819.76	226.57
820.07	226.59
820.39	226.56
820.71	226.55
821.03	226.53
821.34	226.50
821.66	226.49
821.98	226.48
822.30	226.47
822.61	226.54
822.93	226.48
823.25	226.45
823.57	226.44
823.88	226.43
824.20	226.42
824.52	226.45
824.83	226.41
825.15	226.40
825.47	226.37
825.79	226.36
826.10	226.32
826.42	226.31
826.74	226.29
827.05	226.29
827.37	226.28
827.69	226.28
828.00	226.29
828.32	226.30
828.64	226.27
828.95	226.34
829.27	226.29
829.58	226.28
829.90	226.27
830.22	226.29
830.53	226.25
830.85	226.24
831.17	226.19
831.48	226.16
831.80	226.17
832.11	226.15
832.43	226.14
832.75	226.15
833.06	226.19
833.38	226.15
833.69	226.14
834.01	226.15
834.32	226.12
834.64	226.11
834.96	226.10
835.27	226.09
835.59	226.03
835.90	225.98
836.22	225.99
836.53	225.99
836.85	225.99
837.16	226.11
837.48	226.16
837.79	226.20
838.11	226.22
838.42	226.22
838.74	226.24
839.05	226.22
839.37	226.21
839.68	226.16
840.00	226.17
840.31	226.18
840.63	226.16
840.94	226.14
841.26	226.11
841.57	226.06
841.88	226.04
842.20	226.02
842.51	226.01
842.83	225.99
843.14	226.03
843.46	226.00
843.77	225.92
844.08	225.84
844.40	225.81
844.71	225.81
845.03	225.77
845.34	225.75
845.65	225.75
845.97	225.72
846.28	225.69
846.60	225.67
846.91	225.64
847.22	225.61
847.54	225.65
847.85	225.69
848.16	225.70
848.48	225.67
848.79	225.71
849.10	225.72
849.42	225.73
849.73	225.62
850.04	225.60
850.36	225.55
850.67	225.57
850.98	225.55
851.30	225.54
851.61	225.55
851.92	225.53
852.23	225.55
852.55	225.55
852.86	225.54
853.17	225.55
853.49	225.56
853.80	225.58
854.11	225.55
854.42	225.52
854.74	225.51
855.05	225.48
855.36	225.41
855.67	225.41
855.99	225.39
856.30	225.50
856.61	225.50
856.92	225.47
857.23	225.47
857.55	225.44
857.86	225.43
858.17	225.41
858.48	225.41
858.79	225.37
859.11	225.37
859.42	225.36
859.73	225.35
860.04	225.35
860.35	225.30
860.66	225.26
860.98	225.26
861.29	225.28
861.60	225.28
861.91	225.30
862.22	225.27
862.53	225.28
862.84	225.20
863.16	225.21
863.47	225.20
863.78	225.18
864.09	225.19
864.40	225.14
864.71	225.14
865.02	225.12
865.33	225.09
865.64	225.08
865.95	225.07
866.27	225.11
866.58	225.09
866.89	225.12
867.20	225.14
867.51	225.12
867.82	225.09
868.13	225.16
868.44	225.12
868.75	225.14
869.06	225.13
869.37	225.09
869.68	225.04
869.99	225.04
870.30	225.04
870.61	225.07
870.92	225.09
871.23	225.06
871.54	225.08
871.85	225.13
872.16	225.15
872.47	225.14
872.78	225.07
873.09	225.06
873.40	225.04
873.71	225.05
874.02	225.04
874.33	225.02
874.64	224.97
874.95	224.98
875.26	224.94
875.56	224.94
875.87	224.94
876.18	224.95
876.49	225.05
876.80	225.07
877.11	225.03
877.42	225.05
877.73	225.08
878.04	225.06
878.35	225.05
878.66	225.06
878.96	225.06
879.27	225.02
879.58	225.01
879.89	224.98
880.20	224.98
880.51	224.97
880.82	224.96
881.12	224.95
881.43	224.95
881.74	224.95
882.05	224.95
882.36	224.97
882.67	224.97
882.97	224.86
883.28	224.85
883.59	224.86
883.90	224.84
884.21	224.81
884.51	224.78
884.82	224.76
885.13	224.72
885.44	224.73
885.74	224.76
886.05	224.77
886.36	224.80
886.67	224.79
886.98	224.85
887.28	224.87
887.59	224.85
887.90	224.83
888.20	224.82
888.51	224.81
888.82	224.81
889.13	224.81
889.43	224.91
889.74	224.90
890.05	224.85
890.35	224.84
890.66	224.85
890.97	224.84
891.28	224.83
891.58	224.85
891.89	224.87
892.20	224.87
892.50	224.86
892.81	224.85
893.12	224.83
893.42	224.78
893.73	224.81
894.04	224.83
894.34	224.85
894.65	224.87
894.95	224.85
895.26	224.84
895.57	224.90
895.87	224.79
896.18	224.78
896.48	224.86
896.79	224.86
897.10	224.85
897.40	224.90
897.71	224.93
898.01	224.92
898.32	224.93
898.63	224.93
898.93	224.95
899.24	224.92
899.54	224.91
899.85	224.92
900.15	224.91
900.46	224.92
900.76	224.91
901.07	224.90
901.38	224.91
901.68	224.94
901.99	224.91
902.29	224.94
902.60	224.97
902.90	224.91
903.21	224.91
903.51	224.91
903.82	224.94
904.12	224.89
904.43	224.89
904.73	224.86
905.03	224.86
905.34	224.94
905.64	224.96
905.95	224.95
906.25	224.97
906.56	224.92
906.86	224.92
907.17	224.91
907.47	224.91
907.77	224.86
908.08	224.81
908.38	224.81
908.69	224.79
908.99	224.79
909.30	224.76
909.60	224.74
909.90	224.75
910.21	224.72
910.51	224.73
910.81	224.71
911.12	224.72
911.42	224.71
911.73	224.61
912.03	224.59
912.33	224.59
912.64	224.56
912.94	224.57
913.24	224.52
913.55	224.51
913.85	224.50
914.15	224.55
914.46	224.60
914.76	224.57
915.06	224.56
915.37	224.54
915.67	224.58
915.97	224.59
916.27	224.57
916.58	224.55
916.88	224.56
917.18	224.57
917.49	224.65
917.79	224.67
918.09	224.67
918.39	224.70
918.70	224.73
919.00	224.71
919.30	224.75
919.60	224.78
919.91	224.73
920.21	224.75
920.51	224.73
920.81	224.70
921.12	224.71
921.42	224.73
921.72	224.74
922.02	224.72
922.32	224.74
922.63	224.74
922.93	224.79
923.23	224.78
923.53	224.77
923.83	224.71
924.13	224.68
924.44	224.72
924.74	224.75
925.04	224.80
925.34	224.83
925.64	224.80
925.94	224.82
926.24	224.88
926.55	224.85
926.85	224.85
927.15	224.85
927.45	224.85
927.75	224.82
928.05	224.82
928.35	224.82
928.65	224.84
928.95	224.85
929.26	224.76
929.56	224.82
929.86	224.81
930.16	224.80
930.46	224.82
930.76	224.80
931.06	224.75
931.36	224.70
931.66	224.71
931.96	224.72
932.26	224.72
932.56	224.70
932.86	224.76
933.16	224.78
933.46	224.77
933.76	224.76
934.06	224.81
934.36	224.87
934.66	224.88
934.96	224.83
935.26	224.82
935.56	224.90
935.86	224.85
936.16	224.86
936.46	224.83
936.76	224.82
937.06	224.81
937.36	224.81
937.66	224.79
937.96	224.77
938.26	224.74
938.56	224.72
938.86	224.73
939.16	224.74
939.46	224.72
939.76	224.73
940.06	224.75
940.35	224.72
940.65	224.65
940.95	224.66
941.25	224.69
941.55	224.69
941.85	224.65
942.15	224.69
942.45	224.71
942.75	224.71
943.04	224.71
943.34	224.71
943.64	224.71
943.94	224.73
944.24	224.72
944.54	224.74
944.84	224.78
945.13	224.75
945.43	224.69
945.73	224.72
946.03	224.69
946.33	224.65
946.62	224.62
946.92	224.65
947.22	224.67
947.52	224.65
947.82	224.65
948.11	224.63
948.41	224.61
948.71	224.55
949.01	224.57
949.31	224.53
949.60	224.55
949.90	224.59
950.20	224.56
950.50	224.59
950.79	224.57
951.09	224.53
951.39	224.53
951.69	224.52
951.98	224.52
952.28	224.55
952.58	224.56
952.87	224.58
953.17	224.57
953.47	224.55
953.76	224.56
954.06	224.53
954.36	224.51
954.66	224.52
954.95	224.58
955.25	224.56
955.55	224.59
955.84	224.55
956.14	224.50
956.44	224.53
956.73	224.50
957.03	224.49
957.32	224.54
957.62	224.53
957.92	224.57
958.21	224.55
958.51	224.63
958.81	224.61
959.10	224.62
959.40	224.61
959.69	224.59
959.99	224.56
960.29	224.56
960.58	224.56
960.88	224.56
961.17	224.54
961.47	224.54
961.76	224.55
962.06	224.57
962.36	224.57
962.65	224.58
962.95	224.56
963.24	224.53
963.54	224.50
963.83	224.53
964.13	224.49
964.42	224.48
964.72	224.36
965.01	224.38
965.31	224.38
965.60	224.36
965.90	224.42
966.19	224.44
966.49	224.47
966.78	224.48
967.08	224.49
967.37	224.46
967.67	224.47
967.96	224.50
968.26	224.53
968.55	224.57
968.85	224.55
969.14	224.56
969.43	224.58
969.73	224.60
970.02	224.60
970.32	224.59
970.61	224.58
970.91	224.60
971.20	224.59
971.49	224.57
971.79	224.60
972.08	224.54
972.38	224.54
972.67	224.54
972.96	224.56
973.26	224.53
973.55	224.57
973.85	224.56
974.14	224.52
974.43	224.50
974.73	224.49
975.02	224.48
975.31	224.47
975.61	224.49
975.90	224.47
976.19	224.44
976.49	224.51
976.78	224.52
977.07	224.50
977.37	224.51
977.66	224.53
977.95	224.50
978.24	224.52
978.54	224.54
978.83	224.52
979.12	224.49
979.42	224.49
979.71	224.47
980.00	224.48
980.29	224.50
980.59	224.45
980.88	224.46
981.17	224.45
981.46	224.46
981.76	224.46
982.05	224.46
982.34	224.46
982.63	224.42
982.93	224.44
983.22	224.48
983.51	224.48
983.80	224.52
984.09	224.51
984.39	224.50
984.68	224.49
984.97	224.51
985.26	224.54
985.55	224.54
985.85	224.55
986.14	224.54
986.43	224.56
986.72	224.56
987.01	224.54
987.30	224.54
987.59	224.53
987.89	224.52
988.18	224.52
988.47	224.53
988.76	224.52
989.05	224.50
989.34	224.50
989.63	224.51
989.92	224.46
990.22	224.47
990.51	224.45
990.80	224.44
991.09	224.47
991.38	224.46
991.67	224.48
991.96	224.42
992.25	224.41
992.54	224.38
992.83	224.35
993.12	224.34
993.41	224.36
993.70	224.39
993.99	224.45
994.28	224.46
994.58	224.43
994.87	224.43
995.16	224.46
995.45	224.43
995.74	224.41
996.03	224.46
996.32	224.48
996.61	224.51
996.90	224.48
997.19	224.45
997.48	224.43
997.77	224.41
998.06	224.44
998.34	224.45
998.63	224.45
998.92	224.49
999.21	224.56
999.50	224.54
999.79	224.53
1000.08	224.51
1000.37	224.54
1000.66	224.56
1000.95	224.59
1001.24	224.59
1001.53	224.62
1001.82	224.62
1002.11	224.59
1002.40	224.58
1002.68	224.60
1002.97	224.69
1003.26	224.68
1003.55	224.69
1003.84	224.73
1004.13	224.74
1004.42	224.70
1004.71	224.72
1004.99	224.72
1005.28	224.72
1005.57	224.76
1005.86	224.73
1006.15	224.71
1006.44	224.70
1006.72	224.70
1007.01	224.66
1007.30	224.64
1007.59	224.61
1007.88	224.63
1008.17	224.63
1008.45	224.64
1008.74	224.61
1009.03	224.59
1009.32	224.61
1009.60	224.59
1009.89	224.55
1010.18	224.56
1010.47	224.61
1010.76	224.60
1011.04	224.58
1011.33	224.55
1011.62	224.54
1011.91	224.57
1012.19	224.56
1012.48	224.55
1012.77	224.56
1013.05	224.64
1013.34	224.64
1013.63	224.66
1013.92	224.66
1014.20	224.67
1014.49	224.64
1014.78	224.65
1015.06	224.57
1015.35	224.54
1015.64	224.61
1015.92	224.62
1016.21	224.63
1016.50	224.62
1016.78	224.60
1017.07	224.61
1017.36	224.57
1017.64	224.56
1017.93	224.59
1018.22	224.61
1018.50	224.57
1018.79	224.57
1019.08	224.48
1019.36	224.48
1019.65	224.46
1019.93	224.45
1020.22	224.43
1020.51	224.45
1020.79	224.44
1021.08	224.67
1021.36	223.79
1021.65	224.72
1021.94	224.24
1022.22	224.15
1022.51	224.18
1022.79	224.57
1023.08	224.18
1023.36	224.88
1023.65	224.35
>>>>>End Processed Spectral Data<<<<<
