SpectraSuite Data File
++++++++++++++++++++++++++++++++++++
Date: Fri Feb 01 17:50:53 EST 2013
User: group
Dark Spectrum Present: No
Reference Spectrum Present: No
Number of Sampled Component Spectra: 1
Spectrometers: USB2E7196
Integration Time (usec): 35000 (USB2E7196)
Spectra Averaged: 100 (USB2E7196)
Boxcar Smoothing: 10 (USB2E7196)
Correct for Electrical Dark: No (USB2E7196)
Strobe/Lamp Enabled: No (USB2E7196)
Correct for Detector Non-linearity: No (USB2E7196)
Correct for Stray Light: No (USB2E7196)
Number of Pixels in Processed Spectrum: 2048
>>>>>Begin Processed Spectral Data<<<<<
339.09	0.00
339.48	212.57
339.86	214.01
340.24	215.29
340.63	216.71
341.01	219.37
341.39	219.08
341.78	220.93
342.16	222.51
342.54	223.01
342.93	211.04
343.31	221.72
343.69	222.28
344.07	222.75
344.46	223.18
344.84	223.55
345.22	223.77
345.60	224.04
345.99	224.22
346.37	224.35
346.75	224.40
347.13	224.50
347.52	224.58
347.90	224.66
348.28	224.67
348.66	224.68
349.05	224.67
349.43	224.73
349.81	224.78
350.19	224.82
350.57	224.92
350.96	224.97
351.34	225.03
351.72	225.09
352.10	225.18
352.48	225.26
352.87	225.33
353.25	225.41
353.63	225.47
354.01	225.53
354.39	225.60
354.77	225.70
355.15	225.74
355.54	225.79
355.92	225.84
356.30	225.93
356.68	226.10
357.06	226.16
357.44	226.21
357.82	226.27
358.20	226.34
358.58	226.37
358.97	226.42
359.35	226.48
359.73	226.53
360.11	226.60
360.49	226.65
360.87	226.71
361.25	226.77
361.63	226.86
362.01	226.88
362.39	226.89
362.77	226.95
363.15	227.00
363.53	227.04
363.91	227.05
364.29	227.07
364.67	226.97
365.05	227.00
365.43	227.02
365.81	227.04
366.19	227.08
366.57	227.14
366.95	227.15
367.33	227.16
367.71	227.16
368.09	227.19
368.47	227.19
368.85	227.18
369.23	227.19
369.61	227.15
369.99	227.20
370.37	227.21
370.75	227.22
371.13	227.16
371.51	227.10
371.89	227.07
372.27	227.03
372.65	227.02
373.03	226.95
373.41	226.96
373.78	226.88
374.16	226.77
374.54	226.70
374.92	226.63
375.30	226.56
375.68	226.47
376.06	226.38
376.44	226.30
376.82	226.25
377.19	226.17
377.57	226.09
377.95	225.95
378.33	225.89
378.71	225.74
379.09	225.73
379.47	225.68
379.84	225.61
380.22	225.57
380.60	225.48
380.98	225.43
381.36	225.33
381.73	225.27
382.11	225.24
382.49	225.20
382.87	225.14
383.25	225.08
383.62	225.16
384.00	225.07
384.38	225.02
384.76	224.99
385.13	225.02
385.51	224.95
385.89	224.92
386.27	224.87
386.64	224.86
387.02	224.81
387.40	224.77
387.78	224.74
388.15	224.69
388.53	224.69
388.91	224.67
389.29	224.63
389.66	224.61
390.04	224.57
390.42	224.55
390.79	224.52
391.17	224.54
391.55	224.44
391.92	224.43
392.30	224.46
392.68	224.39
393.05	224.35
393.43	224.35
393.81	224.37
394.18	224.37
394.56	224.38
394.94	224.39
395.31	224.41
395.69	224.48
396.06	224.53
396.44	224.53
396.82	224.57
397.19	224.64
397.57	224.69
397.95	224.76
398.32	224.76
398.70	224.84
399.07	224.90
399.45	224.94
399.82	224.98
400.20	225.04
400.58	225.13
400.95	225.18
401.33	225.31
401.70	225.48
402.08	225.57
402.45	225.66
402.83	225.79
403.20	225.89
403.58	225.96
403.95	226.09
404.33	226.23
404.71	226.35
405.08	226.55
405.46	226.69
405.83	226.84
406.21	227.02
406.58	227.18
406.96	227.38
407.33	227.61
407.70	227.88
408.08	228.19
408.45	228.47
408.83	228.76
409.20	229.02
409.58	229.25
409.95	229.57
410.33	229.91
410.70	230.20
411.08	230.58
411.45	230.98
411.82	231.36
412.20	231.81
412.57	232.33
412.95	232.70
413.32	233.27
413.69	233.77
414.07	234.32
414.44	234.97
414.82	235.57
415.19	236.24
415.56	236.96
415.94	237.68
416.31	238.51
416.68	239.29
417.06	240.18
417.43	241.05
417.81	242.01
418.18	242.99
418.55	244.09
418.93	245.21
419.30	246.37
419.67	247.64
420.04	248.89
420.42	250.20
420.79	251.73
421.16	253.19
421.54	254.74
421.91	256.35
422.28	257.96
422.66	259.68
423.03	261.40
423.40	263.13
423.77	264.94
424.15	266.75
424.52	268.72
424.89	270.87
425.26	272.92
425.64	274.87
426.01	277.01
426.38	279.21
426.75	281.41
427.13	283.65
427.50	285.98
427.87	288.44
428.24	290.88
428.61	293.20
428.99	295.76
429.36	298.57
429.73	301.27
430.10	303.93
430.47	306.67
430.85	309.49
431.22	312.43
431.59	315.54
431.96	318.51
432.33	321.78
432.70	324.88
433.08	328.59
433.45	332.00
433.82	335.36
434.19	339.10
434.56	342.79
434.93	346.26
435.30	349.65
435.68	353.42
436.05	357.13
436.42	360.78
436.79	364.07
437.16	367.60
437.53	371.32
437.90	374.97
438.27	378.55
438.64	382.16
439.01	385.55
439.38	388.53
439.75	391.34
440.13	394.59
440.50	397.66
440.87	400.04
441.24	402.63
441.61	405.54
441.98	407.55
442.35	409.90
442.72	412.36
443.09	414.77
443.46	416.12
443.83	416.95
444.20	417.66
444.57	418.79
444.94	419.20
445.31	419.59
445.68	420.12
446.05	420.23
446.42	419.83
446.79	419.29
447.16	418.70
447.53	418.36
447.90	416.88
448.27	415.42
448.64	413.37
449.01	411.88
449.37	409.27
449.74	406.78
450.11	403.82
450.48	400.65
450.85	397.36
451.22	394.52
451.59	391.85
451.96	389.27
452.33	385.84
452.70	382.74
453.07	379.11
453.43	375.29
453.80	371.69
454.17	368.13
454.54	364.81
454.91	361.28
455.28	357.75
455.65	354.47
456.02	351.19
456.38	348.34
456.75	344.81
457.12	341.86
457.49	338.94
457.86	336.12
458.23	333.63
458.59	330.92
458.96	328.18
459.33	325.70
459.70	323.27
460.07	321.28
460.43	318.95
460.80	316.78
461.17	314.87
461.54	312.90
461.91	311.05
462.27	309.10
462.64	307.42
463.01	305.64
463.38	303.89
463.74	302.09
464.11	300.59
464.48	299.25
464.85	297.74
465.21	296.57
465.58	295.32
465.95	293.90
466.32	292.71
466.68	291.51
467.05	290.36
467.42	289.16
467.78	287.95
468.15	286.82
468.52	285.95
468.88	284.79
469.25	283.76
469.62	282.88
469.98	281.96
470.35	281.14
470.72	280.33
471.08	279.49
471.45	278.80
471.82	278.05
472.18	277.24
472.55	276.68
472.92	276.02
473.28	275.44
473.65	274.80
474.02	274.19
474.38	273.69
474.75	273.22
475.11	272.77
475.48	272.38
475.85	272.01
476.21	271.64
476.58	271.37
476.94	271.13
477.31	270.91
477.67	270.70
478.04	270.47
478.41	270.35
478.77	270.32
479.14	270.18
479.50	270.15
479.87	270.21
480.23	270.22
480.60	270.22
480.96	270.22
481.33	270.41
481.69	270.58
482.06	270.70
482.42	270.85
482.79	271.03
483.15	271.30
483.52	271.69
483.88	272.04
484.25	272.43
484.61	272.83
484.98	273.24
485.34	273.80
485.71	274.39
486.07	274.98
486.44	275.51
486.80	276.18
487.17	276.90
487.53	277.70
487.90	278.54
488.26	279.50
488.62	280.54
488.99	281.51
489.35	282.56
489.72	283.76
490.08	284.97
490.44	286.28
490.81	287.69
491.17	289.09
491.54	290.60
491.90	292.19
492.26	293.87
492.63	295.67
492.99	297.52
493.36	299.48
493.72	301.61
494.08	303.82
494.45	306.20
494.81	308.67
495.17	311.20
495.54	313.88
495.90	316.67
496.26	319.59
496.63	322.75
496.99	326.00
497.35	329.39
497.72	332.98
498.08	336.67
498.44	340.51
498.80	344.63
499.17	348.91
499.53	353.26
499.89	357.89
500.26	362.59
500.62	367.52
500.98	372.76
501.34	378.06
501.71	383.66
502.07	389.36
502.43	395.23
502.79	401.37
503.16	407.79
503.52	414.37
503.88	421.14
504.24	428.06
504.60	435.34
504.97	442.86
505.33	450.59
505.69	458.75
506.05	466.96
506.41	475.27
506.78	483.85
507.14	492.79
507.50	502.00
507.86	511.58
508.22	521.35
508.59	531.14
508.95	541.27
509.31	551.72
509.67	562.43
510.03	573.36
510.39	584.50
510.75	595.90
511.12	607.53
511.48	619.53
511.84	631.76
512.20	643.98
512.56	656.74
512.92	669.69
513.28	682.85
513.64	696.22
514.00	709.84
514.37	723.72
514.73	737.63
515.09	751.60
515.45	765.84
515.81	780.32
516.17	795.29
516.53	810.44
516.89	825.58
517.25	840.74
517.61	856.18
517.97	871.77
518.33	887.31
518.69	903.15
519.05	919.15
519.41	935.45
519.77	952.13
520.13	968.73
520.49	985.37
520.85	1001.90
521.21	1018.69
521.57	1036.16
521.93	1053.14
522.29	1070.78
522.65	1088.29
523.01	1105.84
523.37	1123.24
523.73	1140.72
524.09	1158.25
524.45	1175.92
524.81	1193.95
525.17	1212.18
525.53	1230.60
525.89	1248.97
526.25	1267.43
526.61	1285.41
526.97	1303.64
527.33	1321.80
527.68	1339.87
528.04	1357.84
528.40	1376.01
528.76	1394.82
529.12	1413.02
529.48	1431.59
529.84	1449.24
530.20	1467.51
530.56	1486.15
530.91	1505.38
531.27	1523.82
531.63	1541.95
531.99	1560.38
532.35	1578.20
532.71	1595.93
533.07	1613.96
533.42	1631.82
533.78	1649.63
534.14	1667.75
534.50	1684.99
534.86	1702.81
535.21	1719.91
535.57	1737.74
535.93	1755.27
536.29	1771.96
536.65	1788.92
537.00	1805.51
537.36	1822.86
537.72	1839.36
538.08	1855.73
538.44	1871.31
538.79	1887.18
539.15	1902.80
539.51	1918.38
539.87	1934.76
540.22	1950.35
540.58	1966.08
540.94	1981.22
541.29	1996.02
541.65	2010.66
542.01	2025.80
542.37	2040.10
542.72	2054.47
543.08	2068.26
543.44	2082.74
543.79	2096.00
544.15	2108.90
544.51	2122.60
544.87	2135.51
545.22	2148.39
545.58	2160.60
545.94	2172.24
546.29	2184.07
546.65	2196.05
547.01	2207.17
547.36	2217.73
547.72	2228.21
548.07	2238.01
548.43	2248.00
548.79	2257.85
549.14	2267.33
549.50	2276.47
549.86	2285.71
550.21	2294.85
550.57	2303.79
550.92	2312.09
551.28	2320.75
551.64	2329.76
551.99	2337.99
552.35	2346.06
552.70	2353.97
553.06	2361.72
553.41	2369.98
553.77	2377.66
554.13	2385.20
554.48	2393.24
554.84	2400.52
555.19	2407.38
555.55	2414.18
555.90	2420.14
556.26	2426.89
556.61	2433.21
556.97	2439.26
557.32	2444.95
557.68	2450.68
558.03	2456.51
558.39	2461.49
558.74	2467.78
559.10	2473.12
559.45	2478.04
559.81	2483.57
560.16	2488.75
560.52	2493.41
560.87	2498.23
561.23	2502.22
561.58	2506.51
561.94	2510.28
562.29	2513.67
562.64	2517.67
563.00	2521.46
563.35	2526.36
563.71	2530.68
564.06	2535.00
564.42	2538.97
564.77	2542.80
565.12	2546.34
565.48	2549.23
565.83	2552.40
566.19	2554.74
566.54	2556.53
566.89	2558.80
567.25	2560.42
567.60	2562.69
567.96	2565.37
568.31	2566.91
568.66	2569.05
569.02	2570.44
569.37	2571.42
569.72	2573.20
570.08	2574.11
570.43	2574.88
570.78	2575.14
571.14	2574.10
571.49	2573.30
571.84	2573.53
572.20	2573.08
572.55	2572.39
572.90	2571.37
573.26	2570.43
573.61	2569.14
573.96	2567.74
574.31	2565.18
574.67	2562.46
575.02	2559.07
575.37	2555.72
575.72	2552.12
576.08	2548.60
576.43	2545.47
576.78	2542.13
577.13	2539.00
577.49	2535.90
577.84	2532.45
578.19	2528.66
578.54	2525.11
578.90	2520.97
579.25	2515.19
579.60	2509.96
579.95	2504.86
580.30	2499.64
580.66	2494.20
581.01	2488.86
581.36	2483.87
581.71	2479.51
582.06	2474.86
582.42	2470.15
582.77	2464.64
583.12	2460.03
583.47	2455.21
583.82	2449.86
584.17	2444.24
584.53	2438.35
584.88	2432.32
585.23	2426.08
585.58	2420.00
585.93	2414.03
586.28	2408.65
586.63	2403.20
586.98	2397.50
587.34	2392.27
587.69	2386.81
588.04	2381.11
588.39	2375.04
588.74	2367.87
589.09	2361.10
589.44	2353.58
589.79	2346.85
590.14	2340.60
590.49	2333.24
590.84	2326.15
591.19	2319.74
591.54	2312.47
591.89	2304.54
592.25	2297.06
592.60	2289.10
592.95	2280.83
593.30	2272.62
593.65	2264.28
594.00	2256.46
594.35	2248.44
594.70	2239.56
595.05	2231.84
595.40	2223.61
595.75	2215.08
596.10	2208.09
596.45	2200.52
596.80	2193.59
597.15	2186.24
597.50	2178.41
597.85	2171.02
598.19	2163.54
598.54	2155.29
598.89	2147.76
599.24	2140.99
599.59	2133.53
599.94	2126.36
600.29	2119.22
600.64	2111.65
600.99	2103.26
601.34	2095.52
601.69	2087.53
602.04	2079.82
602.39	2071.26
602.74	2063.40
603.08	2055.77
603.43	2048.03
603.78	2039.52
604.13	2031.15
604.48	2022.83
604.83	2014.86
605.18	2007.06
605.53	1997.95
605.87	1988.82
606.22	1980.56
606.57	1971.30
606.92	1962.71
607.27	1954.66
607.62	1946.63
607.96	1938.39
608.31	1930.73
608.66	1922.03
609.01	1913.49
609.36	1904.65
609.70	1895.54
610.05	1886.33
610.40	1877.43
610.75	1867.90
611.10	1859.22
611.44	1849.62
611.79	1840.23
612.14	1830.19
612.49	1819.45
612.83	1809.75
613.18	1800.33
613.53	1790.99
613.88	1781.11
614.22	1771.61
614.57	1761.51
614.92	1752.22
615.27	1743.56
615.61	1733.79
615.96	1724.40
616.31	1715.52
616.65	1707.01
617.00	1698.22
617.35	1689.36
617.70	1679.87
618.04	1670.13
618.39	1660.43
618.74	1651.61
619.08	1642.03
619.43	1633.24
619.78	1625.16
620.12	1616.88
620.47	1608.26
620.82	1598.75
621.16	1590.09
621.51	1581.09
621.85	1572.22
622.20	1562.38
622.55	1552.60
622.89	1543.64
623.24	1534.74
623.59	1526.00
623.93	1517.29
624.28	1508.73
624.62	1499.98
624.97	1491.48
625.32	1483.53
625.66	1475.54
626.01	1467.19
626.35	1458.65
626.70	1449.65
627.04	1440.83
627.39	1431.67
627.73	1422.97
628.08	1414.91
628.43	1406.59
628.77	1398.27
629.12	1389.63
629.46	1381.30
629.81	1372.54
630.15	1364.10
630.50	1355.60
630.84	1346.26
631.19	1336.98
631.53	1328.37
631.88	1319.56
632.22	1310.93
632.57	1302.35
632.91	1293.47
633.26	1284.96
633.60	1276.34
633.95	1268.06
634.29	1259.79
634.64	1252.05
634.98	1243.62
635.32	1235.36
635.67	1227.63
636.01	1219.92
636.36	1212.02
636.70	1204.43
637.05	1196.91
637.39	1189.43
637.73	1181.89
638.08	1175.05
638.42	1168.19
638.77	1160.75
639.11	1153.16
639.45	1145.68
639.80	1138.04
640.14	1130.78
640.49	1123.26
640.83	1115.94
641.17	1108.88
641.52	1101.70
641.86	1094.28
642.20	1087.52
642.55	1080.29
642.89	1072.99
643.23	1065.47
643.58	1058.83
643.92	1051.74
644.26	1044.81
644.61	1037.86
644.95	1031.01
645.29	1023.49
645.64	1015.69
645.98	1008.40
646.32	1001.63
646.66	994.74
647.01	988.14
647.35	981.46
647.69	974.70
648.04	968.42
648.38	961.85
648.72	954.98
649.06	948.15
649.41	941.39
649.75	934.55
650.09	927.76
650.43	921.13
650.78	914.02
651.12	907.22
651.46	900.75
651.80	894.29
652.14	888.08
652.49	881.88
652.83	876.04
653.17	869.59
653.51	863.18
653.85	857.03
654.20	850.64
654.54	843.94
654.88	837.48
655.22	830.76
655.56	824.21
655.90	817.96
656.25	811.94
656.59	805.84
656.93	800.09
657.27	794.16
657.61	787.91
657.95	782.17
658.29	776.32
658.64	770.19
658.98	764.07
659.32	757.81
659.66	751.96
660.00	745.93
660.34	740.27
660.68	734.65
661.02	728.97
661.36	723.59
661.70	718.35
662.05	713.33
662.39	708.43
662.73	703.23
663.07	698.24
663.41	693.14
663.75	688.03
664.09	682.77
664.43	677.73
664.77	672.99
665.11	668.12
665.45	663.40
665.79	658.84
666.13	654.19
666.47	649.52
666.81	644.79
667.15	640.03
667.49	635.57
667.83	631.20
668.17	626.66
668.51	622.02
668.85	617.44
669.19	613.06
669.53	608.69
669.87	604.44
670.21	600.26
670.55	596.12
670.89	592.20
671.23	588.24
671.57	584.23
671.91	580.23
672.25	576.21
672.58	572.19
672.92	568.32
673.26	564.62
673.60	561.01
673.94	557.40
674.28	554.05
674.62	550.72
674.96	547.21
675.30	543.85
675.64	540.44
675.97	537.29
676.31	534.05
676.65	530.70
676.99	527.58
677.33	524.28
677.67	521.06
678.01	517.65
678.34	514.36
678.68	511.12
679.02	507.90
679.36	504.75
679.70	501.73
680.04	498.58
680.37	495.40
680.71	492.24
681.05	489.32
681.39	486.28
681.73	483.25
682.06	480.37
682.40	477.52
682.74	474.68
683.08	471.77
683.42	468.80
683.75	466.00
684.09	463.04
684.43	460.23
684.77	457.48
685.10	454.77
685.44	452.08
685.78	449.43
686.12	446.86
686.45	444.22
686.79	441.58
687.13	439.02
687.46	436.55
687.80	434.07
688.14	431.49
688.48	429.09
688.81	426.53
689.15	424.04
689.49	421.50
689.82	419.11
690.16	416.76
690.50	414.47
690.83	412.15
691.17	409.89
691.51	407.73
691.84	405.59
692.18	403.34
692.52	401.11
692.85	398.90
693.19	396.80
693.52	394.75
693.86	392.65
694.20	390.64
694.53	388.59
694.87	386.49
695.21	384.46
695.54	382.40
695.88	380.39
696.21	378.42
696.55	376.56
696.88	374.61
697.22	372.69
697.56	370.83
697.89	368.99
698.23	367.19
698.56	365.31
698.90	363.50
699.23	361.66
699.57	359.87
699.90	358.14
700.24	356.39
700.58	354.65
700.91	352.96
701.25	351.29
701.58	349.72
701.92	348.17
702.25	346.62
702.59	345.09
702.92	343.62
703.26	342.12
703.59	340.68
703.93	339.38
704.26	337.98
704.60	336.52
704.93	335.08
705.26	333.65
705.60	332.33
705.93	330.97
706.27	329.73
706.60	328.54
706.94	327.23
707.27	325.89
707.61	324.64
707.94	323.43
708.27	322.19
708.61	320.91
708.94	319.71
709.28	318.53
709.61	317.40
709.94	316.30
710.28	315.15
710.61	314.00
710.95	312.75
711.28	311.67
711.61	310.56
711.95	309.50
712.28	308.41
712.61	307.25
712.95	306.17
713.28	305.17
713.61	304.11
713.95	303.10
714.28	302.12
714.61	301.14
714.95	300.22
715.28	299.24
715.61	298.25
715.95	297.29
716.28	296.34
716.61	295.35
716.95	294.37
717.28	293.50
717.61	292.64
717.94	291.77
718.28	290.87
718.61	290.05
718.94	289.27
719.27	288.52
719.61	287.78
719.94	287.04
720.27	286.21
720.60	285.47
720.94	284.78
721.27	284.08
721.60	283.44
721.93	282.71
722.27	282.05
722.60	281.45
722.93	280.77
723.26	280.14
723.59	279.51
723.93	278.92
724.26	278.25
724.59	277.55
724.92	276.93
725.25	276.37
725.59	275.74
725.92	275.11
726.25	274.46
726.58	273.91
726.91	273.34
727.24	272.82
727.57	272.28
727.91	271.69
728.24	271.20
728.57	270.61
728.90	270.09
729.23	269.54
729.56	268.98
729.89	268.44
730.22	267.86
730.55	267.32
730.89	266.75
731.22	266.28
731.55	265.81
731.88	265.36
732.21	264.86
732.54	264.38
732.87	263.89
733.20	263.45
733.53	262.98
733.86	262.53
734.19	262.09
734.52	261.65
734.85	261.29
735.18	260.80
735.51	260.37
735.84	259.94
736.17	259.53
736.50	259.07
736.83	258.83
737.16	258.45
737.49	258.07
737.82	257.68
738.15	257.29
738.48	256.90
738.81	256.48
739.14	256.06
739.47	255.69
739.80	255.35
740.13	255.01
740.46	254.66
740.79	254.27
741.12	253.90
741.45	253.55
741.78	253.18
742.11	252.87
742.44	252.50
742.77	252.21
743.10	251.86
743.43	251.59
743.75	251.16
744.08	250.95
744.41	250.64
744.74	250.35
745.07	250.02
745.40	249.73
745.73	249.49
746.06	249.20
746.39	248.89
746.71	248.59
747.04	248.28
747.37	248.02
747.70	247.76
748.03	247.48
748.36	247.19
748.68	246.88
749.01	246.57
749.34	246.34
749.67	246.03
750.00	245.80
750.33	245.59
750.65	245.35
750.98	245.00
751.31	244.78
751.64	244.52
751.97	244.35
752.29	244.11
752.62	243.81
752.95	243.58
753.28	243.37
753.60	243.12
753.93	242.92
754.26	242.68
754.59	242.44
754.91	242.16
755.24	241.97
755.57	241.75
755.90	241.57
756.22	241.34
756.55	241.12
756.88	240.86
757.20	240.59
757.53	240.35
757.86	240.19
758.19	239.98
758.51	239.80
758.84	239.57
759.17	239.39
759.49	239.22
759.82	239.05
760.15	238.88
760.47	238.70
760.80	238.49
761.13	238.34
761.45	238.19
761.78	238.05
762.11	237.89
762.43	237.74
762.76	237.59
763.08	237.44
763.41	237.30
763.74	237.17
764.06	236.97
764.39	236.83
764.71	236.64
765.04	236.50
765.37	236.33
765.69	236.16
766.02	236.00
766.34	235.85
766.67	235.69
767.00	235.55
767.32	235.49
767.65	235.43
767.97	235.28
768.30	235.15
768.62	235.01
768.95	234.85
769.27	234.72
769.60	234.60
769.92	234.46
770.25	234.31
770.57	234.18
770.90	234.06
771.22	233.93
771.55	233.82
771.87	233.70
772.20	233.58
772.52	233.57
772.85	233.58
773.17	233.47
773.50	233.37
773.82	233.26
774.15	233.11
774.47	232.91
774.80	232.79
775.12	232.66
775.45	232.58
775.77	232.49
776.09	232.39
776.42	232.29
776.74	232.24
777.07	232.18
777.39	232.09
777.72	232.01
778.04	231.94
778.36	231.85
778.69	231.77
779.01	231.71
779.33	231.55
779.66	231.34
779.98	231.25
780.31	231.18
780.63	231.12
780.95	231.05
781.28	231.00
781.60	230.92
781.92	230.82
782.25	230.73
782.57	230.65
782.89	230.55
783.22	230.44
783.54	230.33
783.86	230.26
784.19	230.19
784.51	230.17
784.83	230.11
785.16	230.04
785.48	229.99
785.80	229.95
786.12	229.91
786.45	229.88
786.77	229.83
787.09	229.75
787.42	229.70
787.74	229.67
788.06	229.60
788.38	229.55
788.71	229.53
789.03	229.51
789.35	229.48
789.67	229.48
789.99	229.50
790.32	229.51
790.64	229.49
790.96	229.52
791.28	229.47
791.61	229.42
791.93	229.37
792.25	229.31
792.57	229.33
792.89	229.27
793.21	229.24
793.54	229.20
793.86	229.18
794.18	229.13
794.50	229.07
794.82	229.06
795.14	229.05
795.47	229.04
795.79	228.99
796.11	228.95
796.43	228.87
796.75	228.85
797.07	228.75
797.39	228.71
797.71	228.63
798.04	228.58
798.36	228.59
798.68	228.59
799.00	228.62
799.32	228.51
799.64	228.50
799.96	228.44
800.28	228.44
800.60	228.38
800.92	228.37
801.24	228.31
801.56	228.29
801.89	228.27
802.21	228.21
802.53	228.17
802.85	228.14
803.17	228.18
803.49	228.09
803.81	228.09
804.13	228.02
804.45	227.96
804.77	227.93
805.09	227.88
805.41	227.84
805.73	227.75
806.05	227.75
806.37	227.66
806.69	227.63
807.01	227.60
807.33	227.59
807.65	227.49
807.97	227.54
808.28	227.49
808.60	227.42
808.92	227.41
809.24	227.42
809.56	227.40
809.88	227.33
810.20	227.34
810.52	227.33
810.84	227.32
811.16	227.28
811.48	227.25
811.80	227.25
812.12	227.19
812.43	227.21
812.75	227.16
813.07	227.15
813.39	227.12
813.71	227.07
814.03	227.07
814.35	227.09
814.67	227.02
814.98	227.00
815.30	226.98
815.62	226.94
815.94	226.86
816.26	226.86
816.58	226.80
816.89	226.78
817.21	226.76
817.53	226.74
817.85	226.75
818.17	226.71
818.48	226.66
818.80	226.69
819.12	226.66
819.44	226.67
819.76	226.64
820.07	226.64
820.39	226.63
820.71	226.58
821.03	226.54
821.34	226.53
821.66	226.53
821.98	226.53
822.30	226.49
822.61	226.52
822.93	226.48
823.25	226.47
823.57	226.43
823.88	226.41
824.20	226.39
824.52	226.38
824.83	226.41
825.15	226.38
825.47	226.33
825.79	226.31
826.10	226.30
826.42	226.30
826.74	226.28
827.05	226.25
827.37	226.25
827.69	226.26
828.00	226.25
828.32	226.24
828.64	226.24
828.95	226.32
829.27	226.32
829.58	226.30
829.90	226.31
830.22	226.31
830.53	226.28
830.85	226.28
831.17	226.24
831.48	226.23
831.80	226.22
832.11	226.22
832.43	226.20
832.75	226.16
833.06	226.20
833.38	226.18
833.69	226.20
834.01	226.17
834.32	226.17
834.64	226.13
834.96	226.11
835.27	226.08
835.59	226.05
835.90	225.99
836.22	225.98
836.53	225.94
836.85	225.93
837.16	226.04
837.48	226.01
837.79	226.00
838.11	225.96
838.42	225.95
838.74	225.97
839.05	225.93
839.37	225.92
839.68	225.84
840.00	225.82
840.31	225.80
840.63	225.76
840.94	225.73
841.26	225.69
841.57	225.65
841.88	225.65
842.20	225.60
842.51	225.60
842.83	225.55
843.14	225.64
843.46	225.63
843.77	225.54
844.08	225.52
844.40	225.48
844.71	225.46
845.03	225.44
845.34	225.42
845.65	225.41
845.97	225.41
846.28	225.40
846.60	225.40
846.91	225.41
847.22	225.41
847.54	225.40
847.85	225.42
848.16	225.42
848.48	225.40
848.79	225.43
849.10	225.45
849.42	225.46
849.73	225.34
850.04	225.31
850.36	225.27
850.67	225.30
850.98	225.30
851.30	225.30
851.61	225.26
851.92	225.21
852.23	225.25
852.55	225.23
852.86	225.23
853.17	225.24
853.49	225.26
853.80	225.26
854.11	225.29
854.42	225.27
854.74	225.26
855.05	225.24
855.36	225.19
855.67	225.18
855.99	225.18
856.30	225.29
856.61	225.30
856.92	225.30
857.23	225.26
857.55	225.26
857.86	225.25
858.17	225.27
858.48	225.30
858.79	225.26
859.11	225.28
859.42	225.27
859.73	225.26
860.04	225.21
860.35	225.20
860.66	225.14
860.98	225.14
861.29	225.17
861.60	225.17
861.91	225.17
862.22	225.16
862.53	225.14
862.84	225.05
863.16	225.05
863.47	225.03
863.78	225.04
864.09	225.03
864.40	225.06
864.71	225.04
865.02	225.06
865.33	225.03
865.64	224.98
865.95	224.99
866.27	225.03
866.58	225.03
866.89	225.02
867.20	225.01
867.51	225.01
867.82	224.99
868.13	225.04
868.44	225.04
868.75	225.06
869.06	225.05
869.37	225.05
869.68	225.04
869.99	225.08
870.30	225.09
870.61	225.12
870.92	225.11
871.23	225.11
871.54	225.09
871.85	225.13
872.16	225.15
872.47	225.14
872.78	225.07
873.09	225.10
873.40	225.10
873.71	225.13
874.02	225.11
874.33	225.08
874.64	225.01
874.95	224.99
875.26	224.98
875.56	224.98
875.87	224.97
876.18	224.95
876.49	225.03
876.80	225.00
877.11	224.96
877.42	224.94
877.73	224.95
878.04	224.94
878.35	224.94
878.66	224.95
878.96	224.97
879.27	224.99
879.58	224.98
879.89	224.97
880.20	224.99
880.51	225.00
880.82	225.01
881.12	225.01
881.43	225.01
881.74	224.96
882.05	224.95
882.36	224.98
882.67	224.98
882.97	224.88
883.28	224.87
883.59	224.89
883.90	224.94
884.21	224.97
884.51	224.96
884.82	224.97
885.13	224.97
885.44	224.97
885.74	224.94
886.05	224.92
886.36	224.90
886.67	224.86
886.98	224.91
887.28	224.92
887.59	224.94
887.90	224.93
888.20	224.94
888.51	224.96
888.82	224.92
889.13	224.92
889.43	224.99
889.74	224.99
890.05	224.96
890.35	224.92
890.66	224.89
890.97	224.88
891.28	224.84
891.58	224.80
891.89	224.75
892.20	224.74
892.50	224.72
892.81	224.74
893.12	224.73
893.42	224.69
893.73	224.72
894.04	224.72
894.34	224.72
894.65	224.71
894.95	224.70
895.26	224.70
895.57	224.74
895.87	224.63
896.18	224.68
896.48	224.69
896.79	224.66
897.10	224.65
897.40	224.67
897.71	224.67
898.01	224.68
898.32	224.72
898.63	224.72
898.93	224.73
899.24	224.73
899.54	224.72
899.85	224.70
900.15	224.64
900.46	224.65
900.76	224.67
901.07	224.67
901.38	224.67
901.68	224.68
901.99	224.61
902.29	224.61
902.60	224.56
902.90	224.55
903.21	224.56
903.51	224.58
903.82	224.60
904.12	224.61
904.43	224.61
904.73	224.59
905.03	224.60
905.34	224.72
905.64	224.69
905.95	224.72
906.25	224.72
906.56	224.76
906.86	224.73
907.17	224.72
907.47	224.74
907.77	224.74
908.08	224.71
908.38	224.76
908.69	224.77
908.99	224.79
909.30	224.80
909.60	224.82
909.90	224.82
910.21	224.79
910.51	224.78
910.81	224.76
911.12	224.78
911.42	224.79
911.73	224.68
912.03	224.73
912.33	224.76
912.64	224.75
912.94	224.74
913.24	224.75
913.55	224.74
913.85	224.74
914.15	224.75
914.46	224.80
914.76	224.79
915.06	224.79
915.37	224.77
915.67	224.80
915.97	224.80
916.27	224.78
916.58	224.77
916.88	224.78
917.18	224.81
917.49	224.88
917.79	224.87
918.09	224.87
918.39	224.86
918.70	224.86
919.00	224.85
919.30	224.88
919.60	224.89
919.91	224.89
920.21	224.87
920.51	224.84
920.81	224.82
921.12	224.84
921.42	224.83
921.72	224.82
922.02	224.80
922.32	224.81
922.63	224.80
922.93	224.84
923.23	224.85
923.53	224.86
923.83	224.77
924.13	224.78
924.44	224.78
924.74	224.79
925.04	224.79
925.34	224.77
925.64	224.75
925.94	224.73
926.24	224.78
926.55	224.79
926.85	224.82
927.15	224.79
927.45	224.79
927.75	224.78
928.05	224.77
928.35	224.78
928.65	224.78
928.95	224.78
929.26	224.73
929.56	224.75
929.86	224.74
930.16	224.72
930.46	224.70
930.76	224.70
931.06	224.66
931.36	224.62
931.66	224.67
931.96	224.65
932.26	224.65
932.56	224.62
932.86	224.59
933.16	224.60
933.46	224.60
933.76	224.57
934.06	224.60
934.36	224.63
934.66	224.61
934.96	224.58
935.26	224.60
935.56	224.63
935.86	224.61
936.16	224.57
936.46	224.59
936.76	224.59
937.06	224.58
937.36	224.57
937.66	224.58
937.96	224.55
938.26	224.56
938.56	224.55
938.86	224.54
939.16	224.58
939.46	224.57
939.76	224.58
940.06	224.59
940.35	224.58
940.65	224.55
940.95	224.54
941.25	224.53
941.55	224.52
941.85	224.52
942.15	224.54
942.45	224.59
942.75	224.57
943.04	224.55
943.34	224.55
943.64	224.56
943.94	224.55
944.24	224.55
944.54	224.57
944.84	224.56
945.13	224.57
945.43	224.55
945.73	224.56
946.03	224.54
946.33	224.51
946.62	224.53
946.92	224.53
947.22	224.54
947.52	224.56
947.82	224.54
948.11	224.51
948.41	224.50
948.71	224.48
949.01	224.51
949.31	224.48
949.60	224.49
949.90	224.52
950.20	224.53
950.50	224.55
950.79	224.51
951.09	224.54
951.39	224.51
951.69	224.52
951.98	224.52
952.28	224.56
952.58	224.54
952.87	224.51
953.17	224.54
953.47	224.58
953.76	224.61
954.06	224.65
954.36	224.68
954.66	224.65
954.95	224.68
955.25	224.66
955.55	224.69
955.84	224.68
956.14	224.67
956.44	224.66
956.73	224.66
957.03	224.67
957.32	224.65
957.62	224.67
957.92	224.68
958.21	224.70
958.51	224.76
958.81	224.82
959.10	224.81
959.40	224.81
959.69	224.79
959.99	224.74
960.29	224.68
960.58	224.65
960.88	224.68
961.17	224.66
961.47	224.70
961.76	224.68
962.06	224.69
962.36	224.69
962.65	224.68
962.95	224.66
963.24	224.68
963.54	224.69
963.83	224.68
964.13	224.67
964.42	224.60
964.72	224.55
965.01	224.55
965.31	224.56
965.60	224.54
965.90	224.58
966.19	224.58
966.49	224.60
966.78	224.59
967.08	224.57
967.37	224.59
967.67	224.56
967.96	224.58
968.26	224.60
968.55	224.57
968.85	224.58
969.14	224.57
969.43	224.54
969.73	224.52
970.02	224.52
970.32	224.48
970.61	224.48
970.91	224.45
971.20	224.42
971.49	224.40
971.79	224.41
972.08	224.38
972.38	224.40
972.67	224.38
972.96	224.39
973.26	224.36
973.55	224.39
973.85	224.42
974.14	224.41
974.43	224.40
974.73	224.40
975.02	224.40
975.31	224.39
975.61	224.41
975.90	224.41
976.19	224.36
976.49	224.39
976.78	224.43
977.07	224.44
977.37	224.46
977.66	224.47
977.95	224.46
978.24	224.44
978.54	224.44
978.83	224.43
979.12	224.45
979.42	224.47
979.71	224.45
980.00	224.41
980.29	224.40
980.59	224.39
980.88	224.44
981.17	224.43
981.46	224.45
981.76	224.48
982.05	224.50
982.34	224.57
982.63	224.56
982.93	224.57
983.22	224.58
983.51	224.58
983.80	224.62
984.09	224.61
984.39	224.60
984.68	224.60
984.97	224.63
985.26	224.61
985.55	224.64
985.85	224.59
986.14	224.62
986.43	224.64
986.72	224.64
987.01	224.60
987.30	224.60
987.59	224.57
987.89	224.56
988.18	224.54
988.47	224.51
988.76	224.53
989.05	224.53
989.34	224.53
989.63	224.51
989.92	224.48
990.22	224.48
990.51	224.47
990.80	224.49
991.09	224.49
991.38	224.49
991.67	224.45
991.96	224.47
992.25	224.48
992.54	224.46
992.83	224.44
993.12	224.43
993.41	224.43
993.70	224.46
993.99	224.45
994.28	224.44
994.58	224.46
994.87	224.44
995.16	224.41
995.45	224.41
995.74	224.39
996.03	224.40
996.32	224.43
996.61	224.44
996.90	224.42
997.19	224.44
997.48	224.44
997.77	224.42
998.06	224.41
998.34	224.38
998.63	224.35
998.92	224.36
999.21	224.38
999.50	224.39
999.79	224.38
1000.08	224.38
1000.37	224.40
1000.66	224.36
1000.95	224.37
1001.24	224.36
1001.53	224.33
1001.82	224.31
1002.11	224.30
1002.40	224.28
1002.68	224.33
1002.97	224.40
1003.26	224.36
1003.55	224.33
1003.84	224.35
1004.13	224.38
1004.42	224.40
1004.71	224.41
1004.99	224.39
1005.28	224.41
1005.57	224.40
1005.86	224.36
1006.15	224.35
1006.44	224.34
1006.72	224.38
1007.01	224.36
1007.30	224.34
1007.59	224.34
1007.88	224.38
1008.17	224.35
1008.45	224.34
1008.74	224.28
1009.03	224.20
1009.32	224.23
1009.60	224.26
1009.89	224.23
1010.18	224.19
1010.47	224.17
1010.76	224.17
1011.04	224.19
1011.33	224.19
1011.62	224.19
1011.91	224.22
1012.19	224.22
1012.48	224.25
1012.77	224.20
1013.05	224.25
1013.34	224.30
1013.63	224.32
1013.92	224.33
1014.20	224.34
1014.49	224.36
1014.78	224.39
1015.06	224.37
1015.35	224.38
1015.64	224.39
1015.92	224.43
1016.21	224.45
1016.50	224.48
1016.78	224.50
1017.07	224.53
1017.36	224.52
1017.64	224.52
1017.93	224.54
1018.22	224.55
1018.50	224.54
1018.79	224.58
1019.08	224.55
1019.36	224.53
1019.65	224.52
1019.93	224.51
1020.22	224.53
1020.51	224.60
1020.79	224.61
1021.08	224.58
1021.36	224.46
1021.65	224.48
1021.94	224.37
1022.22	224.46
1022.51	224.61
1022.79	224.64
1023.08	224.27
1023.36	225.87
1023.65	224.54
>>>>>End Processed Spectral Data<<<<<
