SpectraSuite Data File
++++++++++++++++++++++++++++++++++++
Date: Fri Feb 01 17:17:52 EST 2013
User: group
Dark Spectrum Present: No
Reference Spectrum Present: No
Number of Sampled Component Spectra: 1
Spectrometers: USB2E7196
Integration Time (usec): 35000 (USB2E7196)
Spectra Averaged: 100 (USB2E7196)
Boxcar Smoothing: 10 (USB2E7196)
Correct for Electrical Dark: No (USB2E7196)
Strobe/Lamp Enabled: No (USB2E7196)
Correct for Detector Non-linearity: No (USB2E7196)
Correct for Stray Light: No (USB2E7196)
Number of Pixels in Processed Spectrum: 2048
>>>>>Begin Processed Spectral Data<<<<<
339.09	0.00
339.48	213.44
339.86	214.46
340.24	216.17
340.63	217.55
341.01	219.87
341.39	219.92
341.78	222.14
342.16	222.15
342.54	223.44
342.93	211.65
343.31	222.36
343.69	222.88
344.07	223.33
344.46	223.75
344.84	224.14
345.22	224.39
345.60	224.62
345.99	224.79
346.37	224.95
346.75	225.06
347.13	225.15
347.52	225.18
347.90	225.28
348.28	225.33
348.66	225.34
349.05	225.37
349.43	225.43
349.81	225.50
350.19	225.52
350.57	225.59
350.96	225.66
351.34	225.74
351.72	225.80
352.10	225.92
352.48	226.00
352.87	226.01
353.25	226.08
353.63	226.16
354.01	226.20
354.39	226.26
354.77	226.33
355.15	226.38
355.54	226.45
355.92	226.48
356.30	226.49
356.68	226.62
357.06	226.65
357.44	226.67
357.82	226.71
358.20	226.79
358.58	226.82
358.97	226.87
359.35	226.90
359.73	227.00
360.11	227.04
360.49	227.06
360.87	227.15
361.25	227.19
361.63	227.27
362.01	227.31
362.39	227.31
362.77	227.32
363.15	227.35
363.53	227.39
363.91	227.39
364.29	227.45
364.67	227.35
365.05	227.40
365.43	227.39
365.81	227.42
366.19	227.46
366.57	227.51
366.95	227.51
367.33	227.49
367.71	227.48
368.09	227.50
368.47	227.48
368.85	227.42
369.23	227.42
369.61	227.33
369.99	227.34
370.37	227.36
370.75	227.35
371.13	227.29
371.51	227.22
371.89	227.18
372.27	227.13
372.65	227.10
373.03	227.01
373.41	226.97
373.78	226.91
374.16	226.80
374.54	226.72
374.92	226.67
375.30	226.64
375.68	226.57
376.06	226.47
376.44	226.40
376.82	226.32
377.19	226.26
377.57	226.21
377.95	226.10
378.33	226.04
378.71	225.96
379.09	225.89
379.47	225.84
379.84	225.79
380.22	225.72
380.60	225.65
380.98	225.57
381.36	225.53
381.73	225.44
382.11	225.38
382.49	225.33
382.87	225.26
383.25	225.17
383.62	225.24
384.00	225.19
384.38	225.17
384.76	225.19
385.13	225.17
385.51	225.14
385.89	225.09
386.27	225.04
386.64	224.99
387.02	224.99
387.40	224.97
387.78	224.90
388.15	224.91
388.53	224.87
388.91	224.88
389.29	224.84
389.66	224.83
390.04	224.80
390.42	224.78
390.79	224.77
391.17	224.80
391.55	224.64
391.92	224.63
392.30	224.66
392.68	224.62
393.05	224.63
393.43	224.59
393.81	224.62
394.18	224.59
394.56	224.63
394.94	224.65
395.31	224.65
395.69	224.71
396.06	224.70
396.44	224.75
396.82	224.77
397.19	224.87
397.57	224.90
397.95	224.94
398.32	224.97
398.70	225.05
399.07	225.09
399.45	225.16
399.82	225.22
400.20	225.24
400.58	225.28
400.95	225.27
401.33	225.39
401.70	225.52
402.08	225.64
402.45	225.71
402.83	225.79
403.20	225.91
403.58	226.02
403.95	226.13
404.33	226.26
404.71	226.37
405.08	226.52
405.46	226.67
405.83	226.82
406.21	226.96
406.58	227.10
406.96	227.26
407.33	227.43
407.70	227.61
408.08	227.89
408.45	228.15
408.83	228.42
409.20	228.66
409.58	228.82
409.95	229.06
410.33	229.32
410.70	229.58
411.08	229.91
411.45	230.17
411.82	230.50
412.20	230.82
412.57	231.25
412.95	231.56
413.32	231.97
413.69	232.41
414.07	232.84
414.44	233.33
414.82	233.82
415.19	234.39
415.56	234.95
415.94	235.50
416.31	236.12
416.68	236.75
417.06	237.46
417.43	238.20
417.81	239.00
418.18	239.77
418.55	240.64
418.93	241.49
419.30	242.46
419.67	243.41
420.04	244.41
420.42	245.41
420.79	246.62
421.16	247.82
421.54	249.03
421.91	250.28
422.28	251.58
422.66	252.94
423.03	254.28
423.40	255.68
423.77	257.16
424.15	258.64
424.52	260.18
424.89	261.84
425.26	263.42
425.64	264.92
426.01	266.60
426.38	268.30
426.75	270.01
427.13	271.78
427.50	273.64
427.87	275.61
428.24	277.53
428.61	279.31
428.99	281.33
429.36	283.49
429.73	285.59
430.10	287.66
430.47	289.84
430.85	292.04
431.22	294.36
431.59	296.75
431.96	299.04
432.33	301.54
432.70	304.00
433.08	306.89
433.45	309.60
433.82	312.28
434.19	315.26
434.56	318.22
434.93	320.94
435.30	323.65
435.68	326.58
436.05	329.50
436.42	332.43
436.79	334.96
437.16	337.72
437.53	340.66
437.90	343.58
438.27	346.35
438.64	349.22
439.01	351.85
439.38	354.16
439.75	356.46
440.13	359.06
440.50	361.40
440.87	363.41
441.24	365.44
441.61	367.63
441.98	369.16
442.35	370.95
442.72	372.87
443.09	374.74
443.46	375.77
443.83	376.42
444.20	376.94
444.57	377.83
444.94	378.18
445.31	378.58
445.68	378.96
446.05	379.03
446.42	378.66
446.79	378.23
447.16	377.81
447.53	377.52
447.90	376.40
448.27	375.26
448.64	373.59
449.01	372.41
449.37	370.44
449.74	368.53
450.11	366.25
450.48	363.77
450.85	361.18
451.22	359.01
451.59	356.94
451.96	354.98
452.33	352.30
452.70	349.89
453.07	346.93
453.43	343.94
453.80	341.11
454.17	338.39
454.54	335.82
454.91	333.03
455.28	330.22
455.65	327.62
456.02	325.13
456.38	322.91
456.75	320.15
457.12	317.86
457.49	315.56
457.86	313.32
458.23	311.35
458.59	309.24
458.96	307.10
459.33	305.16
459.70	303.16
460.07	301.64
460.43	299.83
460.80	298.15
461.17	296.68
461.54	295.11
461.91	293.64
462.27	292.13
462.64	290.80
463.01	289.41
463.38	288.07
463.74	286.67
464.11	285.44
464.48	284.41
464.85	283.22
465.21	282.32
465.58	281.39
465.95	280.33
466.32	279.42
466.68	278.48
467.05	277.58
467.42	276.68
467.78	275.70
468.15	274.82
468.52	274.18
468.88	273.27
469.25	272.49
469.62	271.85
469.98	271.16
470.35	270.55
470.72	269.95
471.08	269.30
471.45	268.73
471.82	268.18
472.18	267.56
472.55	267.15
472.92	266.61
473.28	266.13
473.65	265.66
474.02	265.21
474.38	264.84
474.75	264.53
475.11	264.19
475.48	263.94
475.85	263.70
476.21	263.46
476.58	263.34
476.94	263.20
477.31	263.04
477.67	262.90
478.04	262.77
478.41	262.69
478.77	262.74
479.14	262.69
479.50	262.72
479.87	262.82
480.23	262.91
480.60	262.96
480.96	263.06
481.33	263.26
481.69	263.46
482.06	263.69
482.42	263.85
482.79	264.10
483.15	264.41
483.52	264.81
483.88	265.16
484.25	265.55
484.61	266.03
484.98	266.46
485.34	267.04
485.71	267.64
486.07	268.25
486.44	268.80
486.80	269.51
487.17	270.24
487.53	271.03
487.90	271.86
488.26	272.88
488.62	273.87
488.99	274.82
489.35	275.82
489.72	276.92
490.08	278.10
490.44	279.37
490.81	280.68
491.17	282.03
491.54	283.51
491.90	284.98
492.26	286.59
492.63	288.36
492.99	290.09
493.36	291.96
493.72	294.04
494.08	296.14
494.45	298.37
494.81	300.74
495.17	303.15
495.54	305.66
495.90	308.26
496.26	311.03
496.63	313.99
496.99	317.15
497.35	320.37
497.72	323.76
498.08	327.21
498.44	330.82
498.80	334.71
499.17	338.74
499.53	342.97
499.89	347.31
500.26	351.72
500.62	356.32
500.98	361.24
501.34	366.26
501.71	371.53
502.07	376.89
502.43	382.44
502.79	388.21
503.16	394.23
503.52	400.47
503.88	406.81
504.24	413.36
504.60	420.17
504.97	427.23
505.33	434.47
505.69	442.18
506.05	449.88
506.41	457.69
506.78	465.66
507.14	473.95
507.50	482.55
507.86	491.40
508.22	500.51
508.59	509.61
508.95	519.02
509.31	528.68
509.67	538.66
510.03	548.76
510.39	559.12
510.75	569.79
511.12	580.58
511.48	591.71
511.84	602.99
512.20	614.34
512.56	626.09
512.92	638.06
513.28	650.21
513.64	662.47
514.00	674.95
514.37	687.65
514.73	700.48
515.09	713.28
515.45	726.43
515.81	739.84
516.17	753.45
516.53	767.40
516.89	781.33
517.25	795.26
517.61	809.47
517.97	823.64
518.33	837.84
518.69	852.26
519.05	866.89
519.41	881.71
519.77	896.81
520.13	911.95
520.49	927.12
520.85	942.19
521.21	957.61
521.57	973.53
521.93	988.97
522.29	1004.93
522.65	1020.86
523.01	1036.66
523.37	1052.28
523.73	1068.23
524.09	1083.87
524.45	1099.79
524.81	1116.07
525.17	1132.40
525.53	1149.02
525.89	1165.46
526.25	1181.95
526.61	1198.08
526.97	1214.52
527.33	1230.79
527.68	1247.01
528.04	1263.15
528.40	1279.37
528.76	1295.99
529.12	1312.24
529.48	1328.94
529.84	1344.67
530.20	1361.01
530.56	1377.64
530.91	1394.66
531.27	1411.18
531.63	1427.40
531.99	1443.65
532.35	1459.23
532.71	1474.93
533.07	1490.91
533.42	1506.66
533.78	1522.45
534.14	1538.50
534.50	1553.50
534.86	1569.04
535.21	1584.01
535.57	1599.63
535.93	1614.89
536.29	1629.51
536.65	1644.27
537.00	1658.65
537.36	1673.88
537.72	1688.08
538.08	1702.46
538.44	1716.01
538.79	1729.64
539.15	1743.02
539.51	1756.64
539.87	1770.87
540.22	1784.29
540.58	1797.77
540.94	1810.80
541.29	1823.54
541.65	1835.95
542.01	1849.02
542.37	1861.38
542.72	1873.70
543.08	1885.40
543.44	1897.75
543.79	1909.00
544.15	1920.04
544.51	1931.72
544.87	1942.53
545.22	1953.43
545.58	1963.56
545.94	1973.65
546.29	1983.49
546.65	1993.38
547.01	2002.71
547.36	2011.51
547.72	2020.23
548.07	2028.30
548.43	2036.50
548.79	2044.43
549.14	2052.20
549.50	2059.63
549.86	2067.31
550.21	2074.64
550.57	2081.84
550.92	2088.46
551.28	2095.59
551.64	2102.76
551.99	2109.35
552.35	2115.77
552.70	2122.09
553.06	2128.20
553.41	2134.56
553.77	2140.81
554.13	2147.10
554.48	2153.50
554.84	2159.38
555.19	2164.81
555.55	2170.24
555.90	2175.08
556.26	2180.44
556.61	2185.33
556.97	2190.07
557.32	2194.45
557.68	2198.92
558.03	2203.45
558.39	2207.49
558.74	2212.33
559.10	2216.54
559.45	2220.41
559.81	2224.89
560.16	2228.97
560.52	2232.54
560.87	2236.12
561.23	2239.00
561.58	2242.11
561.94	2244.79
562.29	2247.13
562.64	2250.28
563.00	2252.88
563.35	2256.66
563.71	2259.99
564.06	2263.32
564.42	2266.37
564.77	2269.23
565.12	2272.03
565.48	2274.45
565.83	2276.74
566.19	2278.52
566.54	2279.51
566.89	2281.12
567.25	2282.07
567.60	2283.64
567.96	2285.77
568.31	2286.98
568.66	2288.37
569.02	2289.50
569.37	2290.15
569.72	2291.53
570.08	2292.02
570.43	2292.47
570.78	2292.21
571.14	2291.06
571.49	2290.13
571.84	2290.10
572.20	2289.30
572.55	2288.32
572.90	2286.83
573.26	2285.71
573.61	2284.21
573.96	2283.02
574.31	2280.38
574.67	2277.80
575.02	2274.54
575.37	2271.30
575.72	2267.94
576.08	2264.97
576.43	2261.77
576.78	2258.58
577.13	2255.50
577.49	2252.51
577.84	2249.47
578.19	2245.92
578.54	2242.67
578.90	2238.84
579.25	2233.62
579.60	2229.10
579.95	2224.56
580.30	2219.90
580.66	2214.96
581.01	2210.21
581.36	2205.48
581.71	2201.61
582.06	2197.36
582.42	2193.26
582.77	2188.45
583.12	2184.29
583.47	2179.98
583.82	2175.45
584.17	2170.52
584.53	2165.44
584.88	2160.07
585.23	2154.61
585.58	2149.49
585.93	2144.15
586.28	2139.49
586.63	2134.75
586.98	2129.72
587.34	2125.11
587.69	2120.32
588.04	2115.42
588.39	2110.11
588.74	2103.78
589.09	2097.65
589.44	2091.19
589.79	2085.13
590.14	2079.49
590.49	2072.98
590.84	2066.63
591.19	2060.64
591.54	2054.19
591.89	2047.04
592.25	2040.55
592.60	2033.40
592.95	2026.12
593.30	2018.92
593.65	2011.47
594.00	2004.53
594.35	1997.42
594.70	1989.40
595.05	1982.69
595.40	1975.36
595.75	1967.91
596.10	1961.86
596.45	1955.38
596.80	1949.32
597.15	1942.86
597.50	1936.08
597.85	1929.67
598.19	1923.14
598.54	1916.39
598.89	1909.91
599.24	1903.99
599.59	1897.52
599.94	1891.38
600.29	1885.00
600.64	1878.39
600.99	1871.09
601.34	1864.39
601.69	1857.46
602.04	1850.83
602.39	1843.42
602.74	1836.69
603.08	1830.01
603.43	1823.33
603.78	1816.07
604.13	1808.76
604.48	1801.72
604.83	1794.85
605.18	1788.14
605.53	1780.28
605.87	1772.25
606.22	1764.99
606.57	1757.06
606.92	1749.49
607.27	1742.47
607.62	1735.65
607.96	1728.66
608.31	1722.22
608.66	1714.63
609.01	1707.15
609.36	1699.67
609.70	1691.60
610.05	1683.68
610.40	1676.06
610.75	1667.66
611.10	1660.05
611.44	1651.61
611.79	1643.39
612.14	1634.73
612.49	1625.32
612.83	1616.82
613.18	1608.46
613.53	1600.30
613.88	1591.86
614.22	1583.51
614.57	1574.71
614.92	1566.58
615.27	1559.02
615.61	1550.67
615.96	1542.57
616.31	1534.83
616.65	1527.30
617.00	1519.72
617.35	1511.90
617.70	1503.48
618.04	1495.16
618.39	1486.74
618.74	1479.22
619.08	1470.97
619.43	1463.32
619.78	1456.41
620.12	1449.23
620.47	1441.71
620.82	1433.39
621.16	1425.65
621.51	1417.96
621.85	1410.27
622.20	1401.64
622.55	1393.02
622.89	1385.00
623.24	1377.18
623.59	1369.64
623.93	1362.09
624.28	1354.79
624.62	1347.20
624.97	1339.93
625.32	1332.85
625.66	1325.72
626.01	1318.40
626.35	1310.97
626.70	1303.01
627.04	1295.15
627.39	1287.23
627.73	1279.74
628.08	1272.86
628.43	1265.67
628.77	1258.36
629.12	1250.62
629.46	1243.47
629.81	1235.90
630.15	1228.53
630.50	1221.16
630.84	1212.98
631.19	1204.81
631.53	1197.22
631.88	1189.47
632.22	1181.76
632.57	1174.47
632.91	1166.89
633.26	1159.41
633.60	1151.71
633.95	1144.51
634.29	1137.38
634.64	1130.62
634.98	1123.26
635.32	1116.04
635.67	1109.24
636.01	1102.43
636.36	1095.72
636.70	1089.02
637.05	1082.41
637.39	1075.90
637.73	1069.37
638.08	1063.37
638.42	1057.43
638.77	1050.88
639.11	1044.43
639.45	1038.04
639.80	1031.31
640.14	1024.90
640.49	1018.36
640.83	1012.19
641.17	1006.01
641.52	999.66
641.86	993.09
642.20	987.17
642.55	980.70
642.89	974.34
643.23	967.65
643.58	961.83
643.92	955.70
644.26	949.74
644.61	943.57
644.95	937.46
645.29	930.94
645.64	924.11
645.98	917.81
646.32	911.73
646.66	905.69
647.01	899.91
647.35	894.16
647.69	888.13
648.04	882.47
648.38	876.61
648.72	870.61
649.06	864.56
649.41	858.53
649.75	852.61
650.09	846.56
650.43	840.88
650.78	834.71
651.12	828.65
651.46	822.84
651.80	817.31
652.14	811.85
652.49	806.44
652.83	801.31
653.17	795.66
653.51	790.04
653.85	784.51
654.20	778.81
654.54	772.73
654.88	767.00
655.22	761.00
655.56	755.26
655.90	749.74
656.25	744.49
656.59	739.16
656.93	734.04
657.27	728.88
657.61	723.40
657.95	718.24
658.29	713.13
658.64	707.78
658.98	702.23
659.32	696.63
659.66	691.40
660.00	686.02
660.34	680.97
660.68	676.04
661.02	670.99
661.36	666.27
661.70	661.74
662.05	657.38
662.39	653.06
662.73	648.58
663.07	644.20
663.41	639.72
663.75	635.26
664.09	630.63
664.43	626.20
664.77	622.14
665.11	617.88
665.45	613.72
665.79	609.64
666.13	605.63
666.47	601.61
666.81	597.45
667.15	593.32
667.49	589.39
667.83	585.44
668.17	581.47
668.51	577.44
668.85	573.35
669.19	569.45
669.53	565.62
669.87	561.78
670.21	558.09
670.55	554.42
670.89	550.91
671.23	547.45
671.57	543.89
671.91	540.24
672.25	536.63
672.58	533.04
672.92	529.61
673.26	526.38
673.60	523.19
673.94	520.11
674.28	517.13
674.62	514.17
674.96	511.07
675.30	508.17
675.64	505.20
675.97	502.40
676.31	499.53
676.65	496.55
676.99	493.75
677.33	490.79
677.67	487.92
678.01	484.88
678.34	481.92
678.68	479.05
679.02	476.25
679.36	473.50
679.70	470.80
680.04	468.04
680.37	465.18
680.71	462.33
681.05	459.61
681.39	456.84
681.73	454.13
682.06	451.62
682.40	449.06
682.74	446.49
683.08	443.89
683.42	441.30
683.75	438.79
684.09	436.25
684.43	433.79
684.77	431.36
685.10	429.01
685.44	426.65
685.78	424.34
686.12	422.02
686.45	419.71
686.79	417.44
687.13	415.22
687.46	412.95
687.80	410.79
688.14	408.56
688.48	406.52
688.81	404.27
689.15	402.09
689.49	399.87
689.82	397.74
690.16	395.63
690.50	393.62
690.83	391.68
691.17	389.65
691.51	387.69
691.84	385.81
692.18	383.86
692.52	381.91
692.85	379.93
693.19	378.08
693.52	376.22
693.86	374.37
694.20	372.52
694.53	370.75
694.87	368.86
695.21	367.02
695.54	365.19
695.88	363.39
696.21	361.59
696.55	359.89
696.88	358.18
697.22	356.52
697.56	354.83
697.89	353.16
698.23	351.56
698.56	349.93
698.90	348.33
699.23	346.67
699.57	345.06
699.90	343.46
700.24	341.87
700.58	340.40
700.91	338.87
701.25	337.44
701.58	336.04
701.92	334.66
702.25	333.27
702.59	331.88
702.92	330.57
703.26	329.29
703.59	328.03
703.93	326.84
704.26	325.59
704.60	324.32
704.93	323.03
705.26	321.78
705.60	320.57
705.93	319.37
706.27	318.32
706.60	317.31
706.94	316.20
707.27	315.10
707.61	313.90
707.94	312.83
708.27	311.73
708.61	310.60
708.94	309.55
709.28	308.59
709.61	307.61
709.94	306.65
710.28	305.58
710.61	304.57
710.95	303.47
711.28	302.52
711.61	301.53
711.95	300.66
712.28	299.69
712.61	298.71
712.95	297.79
713.28	296.88
713.61	295.92
713.95	295.03
714.28	294.14
714.61	293.31
714.95	292.46
715.28	291.60
715.61	290.75
715.95	289.88
716.28	288.96
716.61	288.08
716.95	287.20
717.28	286.44
717.61	285.65
717.94	284.92
718.28	284.09
718.61	283.35
718.94	282.56
719.27	281.91
719.61	281.24
719.94	280.56
720.27	279.80
720.60	279.14
720.94	278.53
721.27	277.90
721.60	277.30
721.93	276.68
722.27	276.10
722.60	275.52
722.93	274.93
723.26	274.43
723.59	273.87
723.93	273.35
724.26	272.79
724.59	272.19
724.92	271.63
725.25	271.17
725.59	270.65
725.92	270.17
726.25	269.64
726.58	269.16
726.91	268.66
727.24	268.18
727.57	267.72
727.91	267.18
728.24	266.73
728.57	266.24
728.90	265.79
729.23	265.29
729.56	264.84
729.89	264.37
730.22	263.83
730.55	263.37
730.89	262.93
731.22	262.51
731.55	262.08
731.88	261.63
732.21	261.18
732.54	260.76
732.87	260.27
733.20	259.83
733.53	259.42
733.86	259.03
734.19	258.61
734.52	258.22
734.85	257.91
735.18	257.46
735.51	257.12
735.84	256.70
736.17	256.36
736.50	255.97
736.83	255.76
737.16	255.42
737.49	255.09
737.82	254.74
738.15	254.38
738.48	254.06
738.81	253.76
739.14	253.42
739.47	253.12
739.80	252.82
740.13	252.49
740.46	252.14
740.79	251.81
741.12	251.51
741.45	251.19
741.78	250.82
742.11	250.55
742.44	250.20
742.77	249.91
743.10	249.60
743.43	249.29
743.75	248.91
744.08	248.78
744.41	248.48
744.74	248.18
745.07	247.91
745.40	247.65
745.73	247.41
746.06	247.15
746.39	246.88
746.71	246.60
747.04	246.38
747.37	246.10
747.70	245.85
748.03	245.63
748.36	245.39
748.68	245.18
749.01	244.94
749.34	244.76
749.67	244.52
750.00	244.28
750.33	244.10
750.65	243.84
750.98	243.49
751.31	243.25
751.64	243.06
751.97	242.89
752.29	242.68
752.62	242.39
752.95	242.17
753.28	241.91
753.60	241.73
753.93	241.54
754.26	241.35
754.59	241.12
754.91	240.88
755.24	240.67
755.57	240.44
755.90	240.24
756.22	240.00
756.55	239.80
756.88	239.62
757.20	239.42
757.53	239.25
757.86	239.04
758.19	238.89
758.51	238.72
758.84	238.45
759.17	238.28
759.49	238.12
759.82	237.99
760.15	237.86
760.47	237.72
760.80	237.50
761.13	237.38
761.45	237.23
761.78	237.11
762.11	236.96
762.43	236.80
762.76	236.62
763.08	236.46
763.41	236.32
763.74	236.21
764.06	236.04
764.39	235.86
764.71	235.74
765.04	235.61
765.37	235.45
765.69	235.38
766.02	235.23
766.34	235.12
766.67	235.00
767.00	234.90
767.32	234.79
767.65	234.75
767.97	234.64
768.30	234.54
768.62	234.44
768.95	234.30
769.27	234.22
769.60	234.14
769.92	234.05
770.25	233.94
770.57	233.82
770.90	233.72
771.22	233.68
771.55	233.60
771.87	233.50
772.20	233.42
772.52	233.39
772.85	233.39
773.17	233.29
773.50	233.13
773.82	233.00
774.15	232.92
774.47	232.80
774.80	232.69
775.12	232.58
775.45	232.50
775.77	232.46
776.09	232.36
776.42	232.29
776.74	232.21
777.07	232.10
777.39	232.00
777.72	231.90
778.04	231.80
778.36	231.72
778.69	231.65
779.01	231.60
779.33	231.44
779.66	231.29
779.98	231.21
780.31	231.18
780.63	231.16
780.95	231.09
781.28	231.00
781.60	230.92
781.92	230.87
782.25	230.79
782.57	230.67
782.89	230.61
783.22	230.53
783.54	230.48
783.86	230.45
784.19	230.39
784.51	230.36
784.83	230.29
785.16	230.26
785.48	230.21
785.80	230.14
786.12	230.07
786.45	230.00
786.77	229.95
787.09	229.91
787.42	229.83
787.74	229.74
788.06	229.69
788.38	229.65
788.71	229.61
789.03	229.58
789.35	229.60
789.67	229.54
789.99	229.51
790.32	229.47
790.64	229.46
790.96	229.52
791.28	229.46
791.61	229.43
791.93	229.38
792.25	229.31
792.57	229.34
792.89	229.30
793.21	229.27
793.54	229.25
793.86	229.17
794.18	229.14
794.50	229.12
794.82	229.10
795.14	229.03
795.47	229.00
795.79	228.94
796.11	228.89
796.43	228.87
796.75	228.82
797.07	228.79
797.39	228.70
797.71	228.58
798.04	228.53
798.36	228.50
798.68	228.45
799.00	228.41
799.32	228.32
799.64	228.32
799.96	228.28
800.28	228.25
800.60	228.21
800.92	228.15
801.24	228.12
801.56	228.09
801.89	228.07
802.21	228.04
802.53	227.95
802.85	227.90
803.17	227.90
803.49	227.87
803.81	227.85
804.13	227.83
804.45	227.82
804.77	227.79
805.09	227.75
805.41	227.71
805.73	227.72
806.05	227.69
806.37	227.66
806.69	227.63
807.01	227.61
807.33	227.61
807.65	227.60
807.97	227.61
808.28	227.56
808.60	227.53
808.92	227.50
809.24	227.55
809.56	227.54
809.88	227.51
810.20	227.47
810.52	227.47
810.84	227.46
811.16	227.40
811.48	227.40
811.80	227.42
812.12	227.40
812.43	227.39
812.75	227.35
813.07	227.30
813.39	227.28
813.71	227.24
814.03	227.17
814.35	227.14
814.67	227.10
814.98	227.09
815.30	227.07
815.62	227.03
815.94	226.94
816.26	226.95
816.58	226.87
816.89	226.85
817.21	226.78
817.53	226.75
817.85	226.76
818.17	226.74
818.48	226.68
818.80	226.66
819.12	226.62
819.44	226.62
819.76	226.59
820.07	226.57
820.39	226.57
820.71	226.59
821.03	226.57
821.34	226.55
821.66	226.53
821.98	226.55
822.30	226.51
822.61	226.57
822.93	226.51
823.25	226.52
823.57	226.50
823.88	226.48
824.20	226.43
824.52	226.40
824.83	226.39
825.15	226.38
825.47	226.36
825.79	226.33
826.10	226.27
826.42	226.26
826.74	226.24
827.05	226.22
827.37	226.24
827.69	226.24
828.00	226.24
828.32	226.21
828.64	226.19
828.95	226.23
829.27	226.19
829.58	226.17
829.90	226.19
830.22	226.20
830.53	226.20
830.85	226.24
831.17	226.21
831.48	226.17
831.80	226.14
832.11	226.14
832.43	226.13
832.75	226.14
833.06	226.21
833.38	226.17
833.69	226.16
834.01	226.12
834.32	226.11
834.64	226.09
834.96	226.09
835.27	226.05
835.59	226.03
835.90	225.98
836.22	225.96
836.53	225.92
836.85	225.87
837.16	225.96
837.48	225.96
837.79	225.99
838.11	225.99
838.42	226.02
838.74	226.00
839.05	225.99
839.37	226.00
839.68	225.93
840.00	225.94
840.31	225.95
840.63	225.93
840.94	225.90
841.26	225.87
841.57	225.88
841.88	225.88
842.20	225.86
842.51	225.86
842.83	225.87
843.14	225.95
843.46	225.96
843.77	225.87
844.08	225.84
844.40	225.80
844.71	225.81
845.03	225.73
845.34	225.75
845.65	225.76
845.97	225.73
846.28	225.74
846.60	225.75
846.91	225.75
847.22	225.77
847.54	225.78
847.85	225.79
848.16	225.80
848.48	225.79
848.79	225.82
849.10	225.83
849.42	225.86
849.73	225.75
850.04	225.73
850.36	225.71
850.67	225.73
850.98	225.75
851.30	225.74
851.61	225.73
851.92	225.71
852.23	225.70
852.55	225.70
852.86	225.68
853.17	225.67
853.49	225.67
853.80	225.66
854.11	225.66
854.42	225.66
854.74	225.62
855.05	225.64
855.36	225.58
855.67	225.58
855.99	225.56
856.30	225.70
856.61	225.70
856.92	225.71
857.23	225.69
857.55	225.67
857.86	225.68
858.17	225.70
858.48	225.69
858.79	225.68
859.11	225.68
859.42	225.66
859.73	225.63
860.04	225.62
860.35	225.58
860.66	225.54
860.98	225.55
861.29	225.58
861.60	225.55
861.91	225.56
862.22	225.56
862.53	225.54
862.84	225.43
863.16	225.47
863.47	225.44
863.78	225.43
864.09	225.45
864.40	225.47
864.71	225.49
865.02	225.47
865.33	225.53
865.64	225.56
865.95	225.55
866.27	225.62
866.58	225.59
866.89	225.61
867.20	225.65
867.51	225.63
867.82	225.62
868.13	225.67
868.44	225.64
868.75	225.64
869.06	225.65
869.37	225.64
869.68	225.60
869.99	225.64
870.30	225.68
870.61	225.65
870.92	225.62
871.23	225.63
871.54	225.66
871.85	225.66
872.16	225.61
872.47	225.62
872.78	225.58
873.09	225.65
873.40	225.65
873.71	225.64
874.02	225.63
874.33	225.60
874.64	225.59
874.95	225.62
875.26	225.59
875.56	225.59
875.87	225.60
876.18	225.64
876.49	225.72
876.80	225.68
877.11	225.68
877.42	225.69
877.73	225.66
878.04	225.64
878.35	225.64
878.66	225.66
878.96	225.67
879.27	225.65
879.58	225.61
879.89	225.63
880.20	225.66
880.51	225.65
880.82	225.68
881.12	225.70
881.43	225.69
881.74	225.69
882.05	225.73
882.36	225.73
882.67	225.76
882.97	225.65
883.28	225.67
883.59	225.64
883.90	225.65
884.21	225.67
884.51	225.66
884.82	225.63
885.13	225.65
885.44	225.63
885.74	225.66
886.05	225.64
886.36	225.62
886.67	225.57
886.98	225.66
887.28	225.64
887.59	225.62
887.90	225.62
888.20	225.61
888.51	225.58
888.82	225.55
889.13	225.53
889.43	225.61
889.74	225.59
890.05	225.59
890.35	225.57
890.66	225.54
890.97	225.50
891.28	225.51
891.58	225.49
891.89	225.49
892.20	225.45
892.50	225.43
892.81	225.43
893.12	225.44
893.42	225.33
893.73	225.32
894.04	225.32
894.34	225.29
894.65	225.28
894.95	225.25
895.26	225.22
895.57	225.24
895.87	225.13
896.18	225.14
896.48	225.15
896.79	225.15
897.10	225.15
897.40	225.15
897.71	225.14
898.01	225.14
898.32	225.13
898.63	225.12
898.93	225.12
899.24	225.10
899.54	225.06
899.85	225.06
900.15	225.04
900.46	225.01
900.76	225.03
901.07	225.00
901.38	224.98
901.68	225.03
901.99	224.99
902.29	224.98
902.60	224.95
902.90	224.95
903.21	224.94
903.51	224.93
903.82	224.99
904.12	224.97
904.43	224.96
904.73	224.96
905.03	224.94
905.34	225.03
905.64	225.01
905.95	225.02
906.25	225.05
906.56	225.03
906.86	225.04
907.17	225.03
907.47	225.05
907.77	225.07
908.08	225.04
908.38	225.02
908.69	225.06
908.99	225.11
909.30	225.09
909.60	225.10
909.90	225.12
910.21	225.08
910.51	225.09
910.81	225.08
911.12	225.09
911.42	225.13
911.73	225.08
912.03	225.10
912.33	225.15
912.64	225.15
912.94	225.18
913.24	225.16
913.55	225.17
913.85	225.16
914.15	225.18
914.46	225.19
914.76	225.21
915.06	225.20
915.37	225.18
915.67	225.19
915.97	225.16
916.27	225.13
916.58	225.14
916.88	225.15
917.18	225.14
917.49	225.21
917.79	225.20
918.09	225.17
918.39	225.21
918.70	225.20
919.00	225.20
919.30	225.24
919.60	225.26
919.91	225.23
920.21	225.30
920.51	225.27
920.81	225.27
921.12	225.30
921.42	225.30
921.72	225.29
922.02	225.28
922.32	225.33
922.63	225.35
922.93	225.41
923.23	225.38
923.53	225.37
923.83	225.30
924.13	225.30
924.44	225.29
924.74	225.32
925.04	225.33
925.34	225.32
925.64	225.29
925.94	225.29
926.24	225.40
926.55	225.33
926.85	225.34
927.15	225.34
927.45	225.31
927.75	225.29
928.05	225.32
928.35	225.32
928.65	225.33
928.95	225.32
929.26	225.25
929.56	225.28
929.86	225.30
930.16	225.31
930.46	225.30
930.76	225.32
931.06	225.26
931.36	225.21
931.66	225.25
931.96	225.23
932.26	225.24
932.56	225.14
932.86	225.16
933.16	225.15
933.46	225.14
933.76	225.13
934.06	225.15
934.36	225.16
934.66	225.15
934.96	225.13
935.26	225.13
935.56	225.15
935.86	225.12
936.16	225.08
936.46	225.03
936.76	225.02
937.06	225.00
937.36	224.98
937.66	224.99
937.96	224.94
938.26	224.91
938.56	224.89
938.86	224.90
939.16	224.95
939.46	224.97
939.76	225.00
940.06	225.02
940.35	224.99
940.65	224.97
940.95	224.95
941.25	224.94
941.55	224.91
941.85	224.90
942.15	224.96
942.45	225.01
942.75	225.03
943.04	225.02
943.34	225.04
943.64	225.03
943.94	225.03
944.24	225.04
944.54	225.05
944.84	225.04
945.13	225.02
945.43	224.99
945.73	224.95
946.03	224.91
946.33	224.89
946.62	224.92
946.92	224.92
947.22	224.91
947.52	224.92
947.82	224.95
948.11	224.94
948.41	224.91
948.71	224.86
949.01	224.87
949.31	224.88
949.60	224.87
949.90	224.91
950.20	224.89
950.50	224.87
950.79	224.87
951.09	224.89
951.39	224.89
951.69	224.88
951.98	224.95
952.28	224.95
952.58	224.93
952.87	224.89
953.17	224.92
953.47	224.94
953.76	224.94
954.06	224.93
954.36	224.92
954.66	224.91
954.95	224.94
955.25	224.96
955.55	224.96
955.84	224.95
956.14	224.96
956.44	225.00
956.73	225.02
957.03	225.03
957.32	225.05
957.62	225.04
957.92	225.06
958.21	224.98
958.51	225.11
958.81	225.11
959.10	225.14
959.40	225.14
959.69	225.18
959.99	225.17
960.29	225.16
960.58	225.16
960.88	225.18
961.17	225.16
961.47	225.16
961.76	225.17
962.06	225.17
962.36	225.14
962.65	225.12
962.95	225.12
963.24	225.13
963.54	225.13
963.83	225.16
964.13	225.17
964.42	225.18
964.72	225.09
965.01	225.09
965.31	225.08
965.60	225.04
965.90	225.06
966.19	225.05
966.49	225.10
966.78	225.12
967.08	225.13
967.37	225.13
967.67	225.08
967.96	225.09
968.26	225.11
968.55	225.13
968.85	225.13
969.14	225.12
969.43	225.09
969.73	225.07
970.02	225.05
970.32	225.02
970.61	225.01
970.91	224.98
971.20	225.03
971.49	225.01
971.79	225.02
972.08	224.97
972.38	224.99
972.67	224.94
972.96	224.90
973.26	224.87
973.55	224.94
973.85	224.94
974.14	224.91
974.43	224.91
974.73	224.89
975.02	224.87
975.31	224.89
975.61	224.88
975.90	224.89
976.19	224.88
976.49	224.89
976.78	224.88
977.07	224.91
977.37	224.88
977.66	224.90
977.95	224.88
978.24	224.88
978.54	224.88
978.83	224.87
979.12	224.87
979.42	224.87
979.71	224.83
980.00	224.85
980.29	224.86
980.59	224.82
980.88	224.83
981.17	224.82
981.46	224.81
981.76	224.82
982.05	224.84
982.34	224.84
982.63	224.84
982.93	224.88
983.22	224.87
983.51	224.89
983.80	224.92
984.09	224.93
984.39	224.93
984.68	224.91
984.97	224.97
985.26	225.00
985.55	224.98
985.85	224.95
986.14	224.98
986.43	225.00
986.72	225.02
987.01	225.02
987.30	225.01
987.59	225.02
987.89	225.05
988.18	225.01
988.47	225.04
988.76	225.03
989.05	224.99
989.34	224.99
989.63	225.02
989.92	224.99
990.22	224.97
990.51	224.97
990.80	224.99
991.09	224.97
991.38	224.96
991.67	224.99
991.96	225.01
992.25	224.98
992.54	224.95
992.83	224.96
993.12	224.94
993.41	224.97
993.70	225.01
993.99	224.99
994.28	225.02
994.58	224.99
994.87	225.00
995.16	225.03
995.45	225.02
995.74	224.96
996.03	224.99
996.32	224.99
996.61	225.00
996.90	225.00
997.19	224.95
997.48	224.95
997.77	224.94
998.06	224.91
998.34	224.93
998.63	224.92
998.92	224.92
999.21	224.93
999.50	224.91
999.79	224.85
1000.08	224.84
1000.37	224.83
1000.66	224.82
1000.95	224.77
1001.24	224.75
1001.53	224.75
1001.82	224.74
1002.11	224.70
1002.40	224.72
1002.68	224.75
1002.97	224.80
1003.26	224.80
1003.55	224.81
1003.84	224.79
1004.13	224.82
1004.42	224.80
1004.71	224.84
1004.99	224.86
1005.28	224.89
1005.57	224.91
1005.86	224.90
1006.15	224.91
1006.44	224.92
1006.72	224.92
1007.01	224.96
1007.30	224.96
1007.59	224.96
1007.88	224.98
1008.17	224.96
1008.45	224.95
1008.74	224.91
1009.03	224.86
1009.32	224.87
1009.60	224.87
1009.89	224.87
1010.18	224.84
1010.47	224.81
1010.76	224.79
1011.04	224.73
1011.33	224.73
1011.62	224.72
1011.91	224.75
1012.19	224.77
1012.48	224.74
1012.77	224.77
1013.05	224.82
1013.34	224.83
1013.63	224.83
1013.92	224.85
1014.20	224.88
1014.49	224.87
1014.78	224.90
1015.06	224.89
1015.35	224.89
1015.64	224.93
1015.92	224.93
1016.21	224.96
1016.50	225.01
1016.78	225.02
1017.07	225.05
1017.36	225.06
1017.64	225.05
1017.93	225.08
1018.22	225.07
1018.50	225.09
1018.79	225.13
1019.08	225.07
1019.36	225.08
1019.65	225.06
1019.93	225.09
1020.22	225.09
1020.51	225.16
1020.79	225.14
1021.08	224.95
1021.36	225.12
1021.65	225.85
1021.94	224.83
1022.22	225.35
1022.51	224.51
1022.79	225.84
1023.08	225.09
1023.36	225.98
1023.65	224.99
>>>>>End Processed Spectral Data<<<<<
