SpectraSuite Data File
++++++++++++++++++++++++++++++++++++
Date: Fri Feb 01 16:09:18 EST 2013
User: group
Dark Spectrum Present: No
Reference Spectrum Present: No
Number of Sampled Component Spectra: 1
Spectrometers: USB2E7196
Integration Time (usec): 35000 (USB2E7196)
Spectra Averaged: 100 (USB2E7196)
Boxcar Smoothing: 10 (USB2E7196)
Correct for Electrical Dark: No (USB2E7196)
Strobe/Lamp Enabled: No (USB2E7196)
Correct for Detector Non-linearity: No (USB2E7196)
Correct for Stray Light: No (USB2E7196)
Number of Pixels in Processed Spectrum: 2048
>>>>>Begin Processed Spectral Data<<<<<
339.09	0.00
339.48	214.89
339.86	216.21
340.24	217.32
340.63	219.13
341.01	221.16
341.39	221.36
341.78	223.12
342.16	224.12
342.54	224.94
342.93	213.02
343.31	223.78
343.69	224.30
344.07	224.75
344.46	225.20
344.84	225.55
345.22	225.79
345.60	226.03
345.99	226.21
346.37	226.33
346.75	226.41
347.13	226.44
347.52	226.49
347.90	226.52
348.28	226.56
348.66	226.60
349.05	226.60
349.43	226.61
349.81	226.64
350.19	226.69
350.57	226.70
350.96	226.73
351.34	226.80
351.72	226.88
352.10	226.98
352.48	227.03
352.87	227.08
353.25	227.18
353.63	227.24
354.01	227.27
354.39	227.37
354.77	227.41
355.15	227.55
355.54	227.60
355.92	227.67
356.30	227.73
356.68	227.85
357.06	227.91
357.44	227.96
357.82	228.02
358.20	228.07
358.58	228.14
358.97	228.20
359.35	228.24
359.73	228.30
360.11	228.34
360.49	228.39
360.87	228.41
361.25	228.44
361.63	228.51
362.01	228.57
362.39	228.56
362.77	228.60
363.15	228.59
363.53	228.63
363.91	228.66
364.29	228.67
364.67	228.59
365.05	228.61
365.43	228.64
365.81	228.66
366.19	228.70
366.57	228.73
366.95	228.76
367.33	228.77
367.71	228.76
368.09	228.77
368.47	228.74
368.85	228.77
369.23	228.77
369.61	228.73
369.99	228.77
370.37	228.80
370.75	228.82
371.13	228.75
371.51	228.73
371.89	228.70
372.27	228.65
372.65	228.62
373.03	228.55
373.41	228.49
373.78	228.45
374.16	228.38
374.54	228.32
374.92	228.23
375.30	228.18
375.68	228.12
376.06	228.08
376.44	228.01
376.82	227.92
377.19	227.84
377.57	227.77
377.95	227.66
378.33	227.56
378.71	227.45
379.09	227.42
379.47	227.33
379.84	227.24
380.22	227.19
380.60	227.10
380.98	227.05
381.36	227.00
381.73	226.91
382.11	226.88
382.49	226.79
382.87	226.72
383.25	226.66
383.62	226.72
384.00	226.65
384.38	226.59
384.76	226.57
385.13	226.58
385.51	226.53
385.89	226.47
386.27	226.40
386.64	226.39
387.02	226.35
387.40	226.31
387.78	226.29
388.15	226.24
388.53	226.18
388.91	226.15
389.29	226.14
389.66	226.12
390.04	226.08
390.42	226.10
390.79	226.06
391.17	226.03
391.55	225.88
391.92	225.91
392.30	225.95
392.68	225.92
393.05	225.90
393.43	225.92
393.81	225.94
394.18	225.95
394.56	225.94
394.94	225.95
395.31	225.97
395.69	226.03
396.06	226.10
396.44	226.15
396.82	226.17
397.19	226.24
397.57	226.28
397.95	226.34
398.32	226.34
398.70	226.44
399.07	226.51
399.45	226.55
399.82	226.57
400.20	226.62
400.58	226.70
400.95	226.73
401.33	226.81
401.70	226.96
402.08	227.06
402.45	227.15
402.83	227.26
403.20	227.36
403.58	227.43
403.95	227.52
404.33	227.65
404.71	227.76
405.08	227.92
405.46	228.08
405.83	228.20
406.21	228.36
406.58	228.50
406.96	228.68
407.33	228.89
407.70	229.08
408.08	229.34
408.45	229.54
408.83	229.80
409.20	230.02
409.58	230.20
409.95	230.44
410.33	230.74
410.70	231.01
411.08	231.32
411.45	231.67
411.82	231.99
412.20	232.39
412.57	232.81
412.95	233.09
413.32	233.47
413.69	233.85
414.07	234.28
414.44	234.79
414.82	235.26
415.19	235.79
415.56	236.35
415.94	236.88
416.31	237.53
416.68	238.12
417.06	238.86
417.43	239.54
417.81	240.33
418.18	241.10
418.55	241.94
418.93	242.79
419.30	243.69
419.67	244.61
420.04	245.52
420.42	246.52
420.79	247.76
421.16	248.94
421.54	250.19
421.91	251.41
422.28	252.65
422.66	253.98
423.03	255.30
423.40	256.64
423.77	258.05
424.15	259.48
424.52	260.99
424.89	262.55
425.26	264.14
425.64	265.55
426.01	267.12
426.38	268.74
426.75	270.40
427.13	272.15
427.50	273.97
427.87	275.85
428.24	277.67
428.61	279.39
428.99	281.30
429.36	283.37
429.73	285.42
430.10	287.46
430.47	289.52
430.85	291.62
431.22	293.83
431.59	296.20
431.96	298.42
432.33	300.91
432.70	303.32
433.08	306.11
433.45	308.79
433.82	311.40
434.19	314.30
434.56	317.11
434.93	319.70
435.30	322.30
435.68	325.19
436.05	328.02
436.42	330.79
436.79	333.29
437.16	335.98
437.53	338.84
437.90	341.64
438.27	344.37
438.64	347.15
439.01	349.77
439.38	352.00
439.75	354.15
440.13	356.59
440.50	358.89
440.87	360.69
441.24	362.55
441.61	364.74
441.98	366.23
442.35	368.03
442.72	369.90
443.09	371.75
443.46	372.73
443.83	373.33
444.20	373.83
444.57	374.69
444.94	374.98
445.31	375.23
445.68	375.53
446.05	375.61
446.42	375.26
446.79	374.78
447.16	374.35
447.53	373.99
447.90	372.85
448.27	371.66
448.64	370.07
449.01	368.95
449.37	366.93
449.74	365.01
450.11	362.77
450.48	360.30
450.85	357.75
451.22	355.62
451.59	353.59
451.96	351.66
452.33	349.06
452.70	346.68
453.07	343.87
453.43	340.99
453.80	338.22
454.17	335.54
454.54	333.04
454.91	330.30
455.28	327.67
455.65	325.20
456.02	322.77
456.38	320.64
456.75	317.99
457.12	315.73
457.49	313.49
457.86	311.33
458.23	309.47
458.59	307.38
458.96	305.30
459.33	303.45
459.70	301.59
460.07	300.07
460.43	298.35
460.80	296.76
461.17	295.33
461.54	293.82
461.91	292.40
462.27	290.94
462.64	289.73
463.01	288.38
463.38	287.13
463.74	285.76
464.11	284.63
464.48	283.65
464.85	282.57
465.21	281.73
465.58	280.81
465.95	279.69
466.32	278.80
466.68	277.91
467.05	277.03
467.42	276.14
467.78	275.21
468.15	274.41
468.52	273.76
468.88	272.92
469.25	272.19
469.62	271.62
469.98	270.95
470.35	270.27
470.72	269.68
471.08	269.00
471.45	268.51
471.82	267.96
472.18	267.36
472.55	266.97
472.92	266.45
473.28	266.00
473.65	265.58
474.02	265.18
474.38	264.82
474.75	264.54
475.11	264.22
475.48	263.96
475.85	263.73
476.21	263.53
476.58	263.38
476.94	263.24
477.31	263.05
477.67	262.92
478.04	262.89
478.41	262.84
478.77	262.90
479.14	262.81
479.50	262.84
479.87	262.90
480.23	262.96
480.60	263.03
480.96	263.12
481.33	263.34
481.69	263.50
482.06	263.73
482.42	263.86
482.79	264.12
483.15	264.44
483.52	264.78
483.88	265.11
484.25	265.43
484.61	265.86
484.98	266.31
485.34	266.87
485.71	267.41
486.07	268.02
486.44	268.54
486.80	269.25
487.17	269.99
487.53	270.81
487.90	271.63
488.26	272.59
488.62	273.55
488.99	274.52
489.35	275.57
489.72	276.69
490.08	277.94
490.44	279.17
490.81	280.49
491.17	281.83
491.54	283.30
491.90	284.85
492.26	286.50
492.63	288.22
492.99	290.00
493.36	291.91
493.72	293.99
494.08	296.12
494.45	298.37
494.81	300.72
495.17	303.17
495.54	305.74
495.90	308.44
496.26	311.28
496.63	314.27
496.99	317.38
497.35	320.60
497.72	323.98
498.08	327.43
498.44	331.11
498.80	335.04
499.17	339.10
499.53	343.34
499.89	347.76
500.26	352.25
500.62	356.92
500.98	361.93
501.34	367.01
501.71	372.33
502.07	377.78
502.43	383.43
502.79	389.26
503.16	395.34
503.52	401.57
503.88	407.97
504.24	414.63
504.60	421.53
504.97	428.68
505.33	436.06
505.69	443.82
506.05	451.58
506.41	459.49
506.78	467.66
507.14	476.08
507.50	484.75
507.86	493.78
508.22	502.92
508.59	512.07
508.95	521.63
509.31	531.41
509.67	541.53
510.03	551.79
510.39	562.37
510.75	573.22
511.12	584.23
511.48	595.56
511.84	606.98
512.20	618.53
512.56	630.52
512.92	642.67
513.28	655.03
513.64	667.54
514.00	680.24
514.37	693.14
514.73	706.24
515.09	719.26
515.45	732.52
515.81	746.16
516.17	760.20
516.53	774.31
516.89	788.56
517.25	802.75
517.61	817.17
517.97	831.58
518.33	845.93
518.69	860.69
519.05	875.63
519.41	890.72
519.77	906.21
520.13	921.70
520.49	937.07
520.85	952.46
521.21	968.10
521.57	984.34
521.93	1000.10
522.29	1016.45
522.65	1032.74
523.01	1048.98
523.37	1065.04
523.73	1081.14
524.09	1097.17
524.45	1113.47
524.81	1130.07
525.17	1146.85
525.53	1163.74
525.89	1180.63
526.25	1197.43
526.61	1213.86
526.97	1230.61
527.33	1247.04
527.68	1263.52
528.04	1280.01
528.40	1296.47
528.76	1313.49
529.12	1329.97
529.48	1346.73
529.84	1362.82
530.20	1379.46
530.56	1396.50
530.91	1413.84
531.27	1430.54
531.63	1446.97
531.99	1463.41
532.35	1479.27
532.71	1495.08
533.07	1511.25
533.42	1527.10
533.78	1542.98
534.14	1559.06
534.50	1574.35
534.86	1590.07
535.21	1605.22
535.57	1620.98
535.93	1636.54
536.29	1651.32
536.65	1666.29
537.00	1681.06
537.36	1696.17
537.72	1710.49
538.08	1724.61
538.44	1738.20
538.79	1751.94
539.15	1765.48
539.51	1779.07
539.87	1793.36
540.22	1807.06
540.58	1820.66
540.94	1833.74
541.29	1846.61
541.65	1859.22
542.01	1872.31
542.37	1884.62
542.72	1896.92
543.08	1908.59
543.44	1920.73
543.79	1931.86
544.15	1942.79
544.51	1954.33
544.87	1965.20
545.22	1975.94
545.58	1986.25
545.94	1996.04
546.29	2006.07
546.65	2015.89
547.01	2025.11
547.36	2033.71
547.72	2042.15
548.07	2050.12
548.43	2058.31
548.79	2066.18
549.14	2073.78
549.50	2081.16
549.86	2088.79
550.21	2096.19
550.57	2103.43
550.92	2110.23
551.28	2117.34
551.64	2124.34
551.99	2130.90
552.35	2137.02
552.70	2143.23
553.06	2149.12
553.41	2155.59
553.77	2161.50
554.13	2167.61
554.48	2173.82
554.84	2179.34
555.19	2184.59
555.55	2189.70
555.90	2194.22
556.26	2199.31
556.61	2203.94
556.97	2208.24
557.32	2212.39
557.68	2216.43
558.03	2220.71
558.39	2224.34
558.74	2229.04
559.10	2233.14
559.45	2236.75
559.81	2241.11
560.16	2244.95
560.52	2248.36
560.87	2251.70
561.23	2254.46
561.58	2257.36
561.94	2259.87
562.29	2262.19
562.64	2264.75
563.00	2267.14
563.35	2270.76
563.71	2273.83
564.06	2277.15
564.42	2280.06
564.77	2282.68
565.12	2285.05
565.48	2286.98
565.83	2288.92
566.19	2290.19
566.54	2290.85
566.89	2291.95
567.25	2292.62
567.60	2293.88
567.96	2295.55
568.31	2296.31
568.66	2297.54
569.02	2298.23
569.37	2298.61
569.72	2299.67
570.08	2299.97
570.43	2300.18
570.78	2299.60
571.14	2298.14
571.49	2296.86
571.84	2296.54
572.20	2295.52
572.55	2294.46
572.90	2292.88
573.26	2291.46
573.61	2289.74
573.96	2288.12
574.31	2285.35
574.67	2282.28
575.02	2278.73
575.37	2275.29
575.72	2271.66
576.08	2267.97
576.43	2264.64
576.78	2261.05
577.13	2257.79
577.49	2254.79
577.84	2251.38
578.19	2247.66
578.54	2243.97
578.90	2239.82
579.25	2234.24
579.60	2229.22
579.95	2224.23
580.30	2219.34
580.66	2214.10
581.01	2209.31
581.36	2204.37
581.71	2200.11
582.06	2195.77
582.42	2191.35
582.77	2186.03
583.12	2181.44
583.47	2176.92
583.82	2172.04
584.17	2166.79
584.53	2161.29
584.88	2155.70
585.23	2149.90
585.58	2144.40
585.93	2139.02
586.28	2134.13
586.63	2129.09
586.98	2124.03
587.34	2119.32
587.69	2114.37
588.04	2109.22
588.39	2103.54
588.74	2097.14
589.09	2090.95
589.44	2084.21
589.79	2078.16
590.14	2072.80
590.49	2066.09
590.84	2059.64
591.19	2053.56
591.54	2047.14
591.89	2040.02
592.25	2033.13
592.60	2026.07
592.95	2018.53
593.30	2011.15
593.65	2003.60
594.00	1996.68
594.35	1989.36
594.70	1981.29
595.05	1974.11
595.40	1966.90
595.75	1959.45
596.10	1953.34
596.45	1946.73
596.80	1940.50
597.15	1933.92
597.50	1926.81
597.85	1920.49
598.19	1913.84
598.54	1906.69
598.89	1900.06
599.24	1894.00
599.59	1887.35
599.94	1881.05
600.29	1874.80
600.64	1868.19
600.99	1860.92
601.34	1854.02
601.69	1847.15
602.04	1840.31
602.39	1833.07
602.74	1826.21
603.08	1819.45
603.43	1812.73
603.78	1805.40
604.13	1798.18
604.48	1790.87
604.83	1783.93
605.18	1776.98
605.53	1769.13
605.87	1761.21
606.22	1753.99
606.57	1746.00
606.92	1738.64
607.27	1731.50
607.62	1724.41
607.96	1717.14
608.31	1710.38
608.66	1702.65
609.01	1694.99
609.36	1687.45
609.70	1679.28
610.05	1671.24
610.40	1663.46
610.75	1655.02
611.10	1647.25
611.44	1638.89
611.79	1630.93
612.14	1622.22
612.49	1613.06
612.83	1604.62
613.18	1596.43
613.53	1588.28
613.88	1579.69
614.22	1571.55
614.57	1562.94
614.92	1555.08
615.27	1547.64
615.61	1539.24
615.96	1531.34
616.31	1523.79
616.65	1516.40
617.00	1508.94
617.35	1501.25
617.70	1492.98
618.04	1484.38
618.39	1476.21
618.74	1468.65
619.08	1460.29
619.43	1452.75
619.78	1445.79
620.12	1438.76
620.47	1431.29
620.82	1423.09
621.16	1415.79
621.51	1408.18
621.85	1400.50
622.20	1391.93
622.55	1383.44
622.89	1375.72
623.24	1368.08
623.59	1360.68
623.93	1353.09
624.28	1345.93
624.62	1338.47
624.97	1331.30
625.32	1324.68
625.66	1317.67
626.01	1310.48
626.35	1303.09
626.70	1295.37
627.04	1287.72
627.39	1279.78
627.73	1272.38
628.08	1265.56
628.43	1258.19
628.77	1250.74
629.12	1243.27
629.46	1236.09
629.81	1228.66
630.15	1221.34
630.50	1213.95
630.84	1205.68
631.19	1197.85
631.53	1190.35
631.88	1182.66
632.22	1175.06
632.57	1167.77
632.91	1160.26
633.26	1152.81
633.60	1145.41
633.95	1138.31
634.29	1131.28
634.64	1124.64
634.98	1117.24
635.32	1109.98
635.67	1103.38
636.01	1096.80
636.36	1089.98
636.70	1083.50
637.05	1077.09
637.39	1070.75
637.73	1064.33
638.08	1058.41
638.42	1052.38
638.77	1045.80
639.11	1039.38
639.45	1032.96
639.80	1026.31
640.14	1019.90
640.49	1013.42
640.83	1007.10
641.17	1000.85
641.52	994.42
641.86	987.89
642.20	982.08
642.55	975.82
642.89	969.37
643.23	962.79
643.58	957.06
643.92	950.82
644.26	944.68
644.61	938.58
644.95	932.46
645.29	926.00
645.64	919.24
645.98	912.96
646.32	907.02
646.66	901.01
647.01	895.19
647.35	889.43
647.69	883.44
648.04	877.91
648.38	872.09
648.72	866.10
649.06	860.10
649.41	854.14
649.75	848.09
650.09	842.14
650.43	836.26
650.78	830.09
651.12	824.12
651.46	818.35
651.80	812.57
652.14	807.21
652.49	801.83
652.83	796.80
653.17	791.14
653.51	785.40
653.85	779.93
654.20	774.27
654.54	768.28
654.88	762.64
655.22	756.74
655.56	751.09
655.90	745.67
656.25	740.46
656.59	735.15
656.93	730.13
657.27	725.01
657.61	719.65
657.95	714.52
658.29	709.49
658.64	704.25
658.98	698.93
659.32	693.40
659.66	688.26
660.00	682.82
660.34	677.78
660.68	672.92
661.02	667.90
661.36	663.13
661.70	658.63
662.05	654.23
662.39	649.89
662.73	645.38
663.07	641.02
663.41	636.53
663.75	632.05
664.09	627.47
664.43	623.08
664.77	618.99
665.11	614.73
665.45	610.53
665.79	606.48
666.13	602.37
666.47	598.32
666.81	594.12
667.15	590.04
667.49	586.25
667.83	582.37
668.17	578.47
668.51	574.44
668.85	570.39
669.19	566.57
669.53	562.77
669.87	558.94
670.21	555.23
670.55	551.60
670.89	548.16
671.23	544.80
671.57	541.26
671.91	537.72
672.25	534.20
672.58	530.70
672.92	527.34
673.26	524.22
673.60	521.07
673.94	517.92
674.28	514.95
674.62	511.98
674.96	508.91
675.30	506.00
675.64	503.07
675.97	500.28
676.31	497.39
676.65	494.46
676.99	491.75
677.33	488.90
677.67	486.13
678.01	483.11
678.34	480.13
678.68	477.20
679.02	474.38
679.36	471.59
679.70	468.86
680.04	466.03
680.37	463.15
680.71	460.36
681.05	457.77
681.39	455.08
681.73	452.37
682.06	449.82
682.40	447.25
682.74	444.72
683.08	442.20
683.42	439.62
683.75	437.13
684.09	434.53
684.43	432.01
684.77	429.51
685.10	427.12
685.44	424.84
685.78	422.58
686.12	420.27
686.45	418.04
686.79	415.79
687.13	413.60
687.46	411.36
687.80	409.20
688.14	406.99
688.48	404.95
688.81	402.68
689.15	400.54
689.49	398.38
689.82	396.32
690.16	394.20
690.50	392.29
690.83	390.31
691.17	388.35
691.51	386.52
691.84	384.69
692.18	382.77
692.52	380.71
692.85	378.76
693.19	376.94
693.52	375.12
693.86	373.26
694.20	371.53
694.53	369.78
694.87	367.88
695.21	366.09
695.54	364.25
695.88	362.57
696.21	360.84
696.55	359.15
696.88	357.44
697.22	355.80
697.56	354.15
697.89	352.52
698.23	350.90
698.56	349.26
698.90	347.66
699.23	346.03
699.57	344.52
699.90	342.98
700.24	341.45
700.58	339.89
700.91	338.41
701.25	336.93
701.58	335.56
701.92	334.21
702.25	332.83
702.59	331.45
702.92	330.09
703.26	328.79
703.59	327.52
703.93	326.39
704.26	325.16
704.60	323.85
704.93	322.60
705.26	321.34
705.60	320.15
705.93	318.99
706.27	317.98
706.60	316.91
706.94	315.85
707.27	314.68
707.61	313.62
707.94	312.57
708.27	311.46
708.61	310.35
708.94	309.30
709.28	308.32
709.61	307.36
709.94	306.45
710.28	305.40
710.61	304.42
710.95	303.34
711.28	302.43
711.61	301.51
711.95	300.58
712.28	299.69
712.61	298.72
712.95	297.81
713.28	296.87
713.61	295.98
713.95	295.09
714.28	294.24
714.61	293.37
714.95	292.54
715.28	291.71
715.61	290.84
715.95	290.03
716.28	289.17
716.61	288.34
716.95	287.48
717.28	286.76
717.61	286.02
717.94	285.26
718.28	284.41
718.61	283.66
718.94	282.96
719.27	282.28
719.61	281.65
719.94	280.95
720.27	280.28
720.60	279.64
720.94	279.03
721.27	278.43
721.60	277.86
721.93	277.27
722.27	276.71
722.60	276.17
722.93	275.62
723.26	275.12
723.59	274.57
723.93	274.04
724.26	273.46
724.59	272.88
724.92	272.37
725.25	271.92
725.59	271.41
725.92	270.91
726.25	270.40
726.58	269.89
726.91	269.38
727.24	268.90
727.57	268.42
727.91	267.86
728.24	267.40
728.57	266.89
728.90	266.43
729.23	265.94
729.56	265.53
729.89	265.01
730.22	264.52
730.55	264.03
730.89	263.63
731.22	263.20
731.55	262.78
731.88	262.37
732.21	261.91
732.54	261.48
732.87	261.04
733.20	260.64
733.53	260.23
733.86	259.89
734.19	259.49
734.52	259.11
734.85	258.80
735.18	258.37
735.51	258.04
735.84	257.65
736.17	257.31
736.50	256.89
736.83	256.68
737.16	256.33
737.49	256.00
737.82	255.62
738.15	255.29
738.48	254.91
738.81	254.53
739.14	254.20
739.47	253.89
739.80	253.57
740.13	253.22
740.46	252.89
740.79	252.53
741.12	252.23
741.45	251.90
741.78	251.58
742.11	251.31
742.44	250.94
742.77	250.68
743.10	250.36
743.43	250.07
743.75	249.70
744.08	249.52
744.41	249.24
744.74	248.96
745.07	248.63
745.40	248.42
745.73	248.21
746.06	247.94
746.39	247.67
746.71	247.38
747.04	247.13
747.37	246.90
747.70	246.66
748.03	246.39
748.36	246.16
748.68	245.93
749.01	245.68
749.34	245.50
749.67	245.24
750.00	245.01
750.33	244.86
750.65	244.64
750.98	244.34
751.31	244.10
751.64	243.91
751.97	243.78
752.29	243.54
752.62	243.29
752.95	243.07
753.28	242.88
753.60	242.70
753.93	242.51
754.26	242.32
754.59	242.12
754.91	241.94
755.24	241.73
755.57	241.51
755.90	241.32
756.22	241.09
756.55	240.90
756.88	240.70
757.20	240.46
757.53	240.28
757.86	240.10
758.19	239.94
758.51	239.80
758.84	239.54
759.17	239.38
759.49	239.20
759.82	239.08
760.15	238.94
760.47	238.82
760.80	238.64
761.13	238.51
761.45	238.34
761.78	238.19
762.11	238.09
762.43	237.96
762.76	237.80
763.08	237.70
763.41	237.60
763.74	237.50
764.06	237.37
764.39	237.22
764.71	237.07
765.04	236.96
765.37	236.81
765.69	236.72
766.02	236.60
766.34	236.48
766.67	236.34
767.00	236.21
767.32	236.13
767.65	236.10
767.97	235.97
768.30	235.89
768.62	235.78
768.95	235.61
769.27	235.51
769.60	235.43
769.92	235.32
770.25	235.20
770.57	235.08
770.90	234.99
771.22	234.88
771.55	234.82
771.87	234.73
772.20	234.65
772.52	234.64
772.85	234.65
773.17	234.56
773.50	234.47
773.82	234.38
774.15	234.24
774.47	234.08
774.80	234.00
775.12	233.93
775.45	233.84
775.77	233.78
776.09	233.71
776.42	233.62
776.74	233.59
777.07	233.49
777.39	233.42
777.72	233.34
778.04	233.28
778.36	233.20
778.69	233.11
779.01	233.04
779.33	232.86
779.66	232.68
779.98	232.64
780.31	232.52
780.63	232.51
780.95	232.47
781.28	232.44
781.60	232.38
781.92	232.29
782.25	232.22
782.57	232.16
782.89	232.10
783.22	232.05
783.54	231.97
783.86	231.90
784.19	231.87
784.51	231.84
784.83	231.78
785.16	231.71
785.48	231.64
785.80	231.56
786.12	231.56
786.45	231.52
786.77	231.46
787.09	231.44
787.42	231.35
787.74	231.27
788.06	231.21
788.38	231.15
788.71	231.07
789.03	231.04
789.35	230.98
789.67	230.92
789.99	230.88
790.32	230.79
790.64	230.81
790.96	230.79
791.28	230.70
791.61	230.65
791.93	230.64
792.25	230.60
792.57	230.65
792.89	230.56
793.21	230.53
793.54	230.47
793.86	230.45
794.18	230.38
794.50	230.37
794.82	230.30
795.14	230.27
795.47	230.28
795.79	230.23
796.11	230.21
796.43	230.17
796.75	230.13
797.07	230.13
797.39	230.03
797.71	229.92
798.04	229.92
798.36	229.86
798.68	229.82
799.00	229.78
799.32	229.71
799.64	229.71
799.96	229.67
800.28	229.65
800.60	229.60
800.92	229.59
801.24	229.54
801.56	229.50
801.89	229.48
802.21	229.44
802.53	229.42
802.85	229.39
803.17	229.39
803.49	229.32
803.81	229.25
804.13	229.24
804.45	229.20
804.77	229.20
805.09	229.20
805.41	229.16
805.73	229.11
806.05	229.03
806.37	228.98
806.69	228.98
807.01	228.95
807.33	228.95
807.65	228.87
807.97	228.89
808.28	228.87
808.60	228.83
808.92	228.82
809.24	228.86
809.56	228.80
809.88	228.76
810.20	228.78
810.52	228.82
810.84	228.79
811.16	228.78
811.48	228.70
811.80	228.71
812.12	228.69
812.43	228.71
812.75	228.71
813.07	228.66
813.39	228.65
813.71	228.59
814.03	228.57
814.35	228.57
814.67	228.49
814.98	228.49
815.30	228.46
815.62	228.40
815.94	228.31
816.26	228.38
816.58	228.33
816.89	228.31
817.21	228.24
817.53	228.25
817.85	228.21
818.17	228.21
818.48	228.15
818.80	228.14
819.12	228.10
819.44	228.06
819.76	228.08
820.07	228.06
820.39	228.06
820.71	228.02
821.03	228.04
821.34	228.02
821.66	227.99
821.98	228.02
822.30	228.03
822.61	228.06
822.93	228.01
823.25	228.01
823.57	227.98
823.88	227.99
824.20	227.99
824.52	228.01
824.83	227.98
825.15	227.96
825.47	227.95
825.79	227.94
826.10	227.94
826.42	227.91
826.74	227.89
827.05	227.87
827.37	227.83
827.69	227.78
828.00	227.77
828.32	227.77
828.64	227.71
828.95	227.75
829.27	227.71
829.58	227.69
829.90	227.71
830.22	227.71
830.53	227.69
830.85	227.62
831.17	227.59
831.48	227.59
831.80	227.61
832.11	227.61
832.43	227.58
832.75	227.57
833.06	227.61
833.38	227.59
833.69	227.58
834.01	227.60
834.32	227.59
834.64	227.62
834.96	227.59
835.27	227.60
835.59	227.58
835.90	227.54
836.22	227.47
836.53	227.41
836.85	227.42
837.16	227.51
837.48	227.53
837.79	227.58
838.11	227.55
838.42	227.51
838.74	227.49
839.05	227.51
839.37	227.50
839.68	227.45
840.00	227.44
840.31	227.46
840.63	227.47
840.94	227.44
841.26	227.39
841.57	227.40
841.88	227.40
842.20	227.38
842.51	227.38
842.83	227.45
843.14	227.54
843.46	227.48
843.77	227.46
844.08	227.42
844.40	227.39
844.71	227.39
845.03	227.40
845.34	227.41
845.65	227.37
845.97	227.36
846.28	227.32
846.60	227.34
846.91	227.31
847.22	227.32
847.54	227.36
847.85	227.39
848.16	227.36
848.48	227.36
848.79	227.37
849.10	227.37
849.42	227.34
849.73	227.24
850.04	227.25
850.36	227.17
850.67	227.19
850.98	227.19
851.30	227.23
851.61	227.25
851.92	227.23
852.23	227.27
852.55	227.28
852.86	227.29
853.17	227.27
853.49	227.29
853.80	227.28
854.11	227.32
854.42	227.29
854.74	227.28
855.05	227.28
855.36	227.22
855.67	227.21
855.99	227.22
856.30	227.36
856.61	227.38
856.92	227.39
857.23	227.39
857.55	227.37
857.86	227.33
858.17	227.31
858.48	227.31
858.79	227.29
859.11	227.29
859.42	227.28
859.73	227.26
860.04	227.26
860.35	227.23
860.66	227.18
860.98	227.21
861.29	227.24
861.60	227.22
861.91	227.25
862.22	227.23
862.53	227.19
862.84	227.05
863.16	227.08
863.47	227.02
863.78	226.98
864.09	226.98
864.40	226.98
864.71	226.94
865.02	226.93
865.33	226.92
865.64	226.87
865.95	226.88
866.27	226.97
866.58	226.96
866.89	226.95
867.20	226.94
867.51	226.87
867.82	226.85
868.13	226.86
868.44	226.85
868.75	226.86
869.06	226.88
869.37	226.87
869.68	226.82
869.99	226.87
870.30	226.90
870.61	226.91
870.92	226.91
871.23	226.90
871.54	226.91
871.85	226.91
872.16	226.92
872.47	226.92
872.78	226.85
873.09	226.82
873.40	226.81
873.71	226.82
874.02	226.81
874.33	226.82
874.64	226.78
874.95	226.76
875.26	226.74
875.56	226.73
875.87	226.75
876.18	226.73
876.49	226.85
876.80	226.82
877.11	226.81
877.42	226.81
877.73	226.84
878.04	226.83
878.35	226.85
878.66	226.88
878.96	226.89
879.27	226.89
879.58	226.88
879.89	226.89
880.20	226.91
880.51	226.95
880.82	226.96
881.12	226.98
881.43	226.97
881.74	226.98
882.05	226.96
882.36	226.93
882.67	226.97
882.97	226.84
883.28	226.86
883.59	226.85
883.90	226.85
884.21	226.86
884.51	226.84
884.82	226.82
885.13	226.82
885.44	226.79
885.74	226.77
886.05	226.80
886.36	226.82
886.67	226.75
886.98	226.78
887.28	226.81
887.59	226.79
887.90	226.82
888.20	226.82
888.51	226.87
888.82	226.88
889.13	226.88
889.43	226.95
889.74	226.90
890.05	226.89
890.35	226.91
890.66	226.91
890.97	226.95
891.28	226.92
891.58	226.93
891.89	226.95
892.20	226.95
892.50	226.93
892.81	226.93
893.12	226.97
893.42	226.91
893.73	226.89
894.04	226.94
894.34	226.94
894.65	226.94
894.95	226.90
895.26	226.86
895.57	226.91
895.87	226.84
896.18	226.88
896.48	226.92
896.79	226.91
897.10	226.90
897.40	226.87
897.71	226.93
898.01	226.94
898.32	226.93
898.63	226.96
898.93	227.00
899.24	226.98
899.54	226.96
899.85	226.99
900.15	226.97
900.46	226.92
900.76	226.95
901.07	226.93
901.38	226.95
901.68	226.99
901.99	226.93
902.29	226.93
902.60	226.92
902.90	226.90
903.21	226.85
903.51	226.83
903.82	226.86
904.12	226.83
904.43	226.79
904.73	226.79
905.03	226.79
905.34	226.85
905.64	226.87
905.95	226.87
906.25	226.87
906.56	226.85
906.86	226.87
907.17	226.82
907.47	226.82
907.77	226.82
908.08	226.78
908.38	226.75
908.69	226.74
908.99	226.74
909.30	226.71
909.60	226.73
909.90	226.71
910.21	226.67
910.51	226.64
910.81	226.63
911.12	226.64
911.42	226.62
911.73	226.50
912.03	226.49
912.33	226.47
912.64	226.42
912.94	226.43
913.24	226.41
913.55	226.36
913.85	226.40
914.15	226.42
914.46	226.42
914.76	226.43
915.06	226.41
915.37	226.39
915.67	226.40
915.97	226.39
916.27	226.41
916.58	226.41
916.88	226.41
917.18	226.42
917.49	226.46
917.79	226.43
918.09	226.45
918.39	226.45
918.70	226.50
919.00	226.52
919.30	226.54
919.60	226.51
919.91	226.53
920.21	226.51
920.51	226.48
920.81	226.47
921.12	226.49
921.42	226.49
921.72	226.52
922.02	226.51
922.32	226.53
922.63	226.54
922.93	226.60
923.23	226.62
923.53	226.60
923.83	226.55
924.13	226.53
924.44	226.55
924.74	226.55
925.04	226.57
925.34	226.56
925.64	226.54
925.94	226.55
926.24	226.63
926.55	226.62
926.85	226.60
927.15	226.64
927.45	226.66
927.75	226.69
928.05	226.70
928.35	226.71
928.65	226.73
928.95	226.73
929.26	226.70
929.56	226.73
929.86	226.75
930.16	226.76
930.46	226.76
930.76	226.76
931.06	226.77
931.36	226.71
931.66	226.72
931.96	226.72
932.26	226.77
932.56	226.68
932.86	226.70
933.16	226.71
933.46	226.69
933.76	226.62
934.06	226.65
934.36	226.68
934.66	226.67
934.96	226.65
935.26	226.67
935.56	226.66
935.86	226.61
936.16	226.59
936.46	226.58
936.76	226.60
937.06	226.56
937.36	226.52
937.66	226.53
937.96	226.55
938.26	226.50
938.56	226.48
938.86	226.52
939.16	226.53
939.46	226.53
939.76	226.56
940.06	226.57
940.35	226.52
940.65	226.48
940.95	226.49
941.25	226.46
941.55	226.45
941.85	226.44
942.15	226.49
942.45	226.51
942.75	226.52
943.04	226.54
943.34	226.57
943.64	226.58
943.94	226.55
944.24	226.57
944.54	226.60
944.84	226.58
945.13	226.55
945.43	226.54
945.73	226.54
946.03	226.51
946.33	226.48
946.62	226.47
946.92	226.42
947.22	226.44
947.52	226.45
947.82	226.43
948.11	226.42
948.41	226.40
948.71	226.36
949.01	226.33
949.31	226.31
949.60	226.30
949.90	226.33
950.20	226.34
950.50	226.33
950.79	226.33
951.09	226.32
951.39	226.35
951.69	226.34
951.98	226.37
952.28	226.36
952.58	226.38
952.87	226.38
953.17	226.41
953.47	226.37
953.76	226.34
954.06	226.34
954.36	226.34
954.66	226.31
954.95	226.32
955.25	226.34
955.55	226.37
955.84	226.34
956.14	226.35
956.44	226.34
956.73	226.26
957.03	226.29
957.32	226.35
957.62	226.31
957.92	226.34
958.21	226.33
958.51	226.45
958.81	226.49
959.10	226.53
959.40	226.55
959.69	226.55
959.99	226.59
960.29	226.57
960.58	226.54
960.88	226.62
961.17	226.66
961.47	226.66
961.76	226.61
962.06	226.66
962.36	226.66
962.65	226.67
962.95	226.73
963.24	226.71
963.54	226.73
963.83	226.75
964.13	226.72
964.42	226.72
964.72	226.64
965.01	226.63
965.31	226.62
965.60	226.62
965.90	226.70
966.19	226.70
966.49	226.72
966.78	226.72
967.08	226.69
967.37	226.68
967.67	226.66
967.96	226.70
968.26	226.68
968.55	226.69
968.85	226.71
969.14	226.73
969.43	226.73
969.73	226.69
970.02	226.68
970.32	226.67
970.61	226.66
970.91	226.63
971.20	226.63
971.49	226.62
971.79	226.63
972.08	226.59
972.38	226.59
972.67	226.59
972.96	226.57
973.26	226.59
973.55	226.60
973.85	226.64
974.14	226.62
974.43	226.62
974.73	226.64
975.02	226.63
975.31	226.60
975.61	226.59
975.90	226.57
976.19	226.56
976.49	226.55
976.78	226.57
977.07	226.55
977.37	226.55
977.66	226.56
977.95	226.54
978.24	226.53
978.54	226.53
978.83	226.52
979.12	226.59
979.42	226.54
979.71	226.54
980.00	226.49
980.29	226.49
980.59	226.50
980.88	226.50
981.17	226.45
981.46	226.42
981.76	226.44
982.05	226.47
982.34	226.44
982.63	226.44
982.93	226.41
983.22	226.42
983.51	226.44
983.80	226.44
984.09	226.44
984.39	226.44
984.68	226.43
984.97	226.41
985.26	226.36
985.55	226.39
985.85	226.35
986.14	226.36
986.43	226.35
986.72	226.30
987.01	226.25
987.30	226.28
987.59	226.30
987.89	226.29
988.18	226.27
988.47	226.28
988.76	226.29
989.05	226.30
989.34	226.26
989.63	226.28
989.92	226.24
990.22	226.19
990.51	226.16
990.80	226.16
991.09	226.17
991.38	226.21
991.67	226.19
991.96	226.19
992.25	226.20
992.54	226.14
992.83	226.16
993.12	226.17
993.41	226.18
993.70	226.20
993.99	226.21
994.28	226.23
994.58	226.28
994.87	226.23
995.16	226.22
995.45	226.22
995.74	226.15
996.03	226.18
996.32	226.23
996.61	226.27
996.90	226.25
997.19	226.24
997.48	226.24
997.77	226.23
998.06	226.25
998.34	226.27
998.63	226.32
998.92	226.34
999.21	226.34
999.50	226.37
999.79	226.33
1000.08	226.31
1000.37	226.32
1000.66	226.32
1000.95	226.35
1001.24	226.37
1001.53	226.40
1001.82	226.43
1002.11	226.42
1002.40	226.45
1002.68	226.47
1002.97	226.56
1003.26	226.56
1003.55	226.54
1003.84	226.53
1004.13	226.51
1004.42	226.51
1004.71	226.50
1004.99	226.48
1005.28	226.49
1005.57	226.46
1005.86	226.46
1006.15	226.47
1006.44	226.45
1006.72	226.47
1007.01	226.47
1007.30	226.48
1007.59	226.48
1007.88	226.47
1008.17	226.48
1008.45	226.44
1008.74	226.41
1009.03	226.40
1009.32	226.40
1009.60	226.42
1009.89	226.44
1010.18	226.47
1010.47	226.46
1010.76	226.48
1011.04	226.51
1011.33	226.55
1011.62	226.57
1011.91	226.56
1012.19	226.55
1012.48	226.53
1012.77	226.51
1013.05	226.57
1013.34	226.56
1013.63	226.56
1013.92	226.58
1014.20	226.58
1014.49	226.60
1014.78	226.60
1015.06	226.55
1015.35	226.57
1015.64	226.58
1015.92	226.57
1016.21	226.57
1016.50	226.57
1016.78	226.59
1017.07	226.58
1017.36	226.54
1017.64	226.53
1017.93	226.56
1018.22	226.54
1018.50	226.57
1018.79	226.58
1019.08	226.52
1019.36	226.51
1019.65	226.48
1019.93	226.48
1020.22	226.50
1020.51	226.54
1020.79	226.52
1021.08	226.07
1021.36	226.53
1021.65	226.62
1021.94	226.35
1022.22	226.09
1022.51	225.78
1022.79	226.78
1023.08	226.56
1023.36	227.90
1023.65	225.91
>>>>>End Processed Spectral Data<<<<<
