SpectraSuite Data File
++++++++++++++++++++++++++++++++++++
Date: Fri Feb 01 16:31:25 EST 2013
User: group
Dark Spectrum Present: No
Reference Spectrum Present: No
Number of Sampled Component Spectra: 1
Spectrometers: USB2E7196
Integration Time (usec): 35000 (USB2E7196)
Spectra Averaged: 100 (USB2E7196)
Boxcar Smoothing: 10 (USB2E7196)
Correct for Electrical Dark: No (USB2E7196)
Strobe/Lamp Enabled: No (USB2E7196)
Correct for Detector Non-linearity: No (USB2E7196)
Correct for Stray Light: No (USB2E7196)
Number of Pixels in Processed Spectrum: 2048
>>>>>Begin Processed Spectral Data<<<<<
339.09	0.00
339.48	213.56
339.86	215.40
340.24	216.47
340.63	218.13
341.01	221.21
341.39	220.77
341.78	221.95
342.16	222.86
342.54	223.31
342.93	212.14
343.31	222.85
343.69	223.42
344.07	223.85
344.46	224.30
344.84	224.68
345.22	224.89
345.60	225.11
345.99	225.29
346.37	225.44
346.75	225.55
347.13	225.62
347.52	225.65
347.90	225.71
348.28	225.76
348.66	225.77
349.05	225.78
349.43	225.80
349.81	225.88
350.19	225.91
350.57	225.93
350.96	226.00
351.34	226.10
351.72	226.18
352.10	226.30
352.48	226.37
352.87	226.42
353.25	226.51
353.63	226.60
354.01	226.73
354.39	226.82
354.77	226.90
355.15	226.99
355.54	227.08
355.92	227.16
356.30	227.19
356.68	227.36
357.06	227.45
357.44	227.52
357.82	227.59
358.20	227.69
358.58	227.76
358.97	227.85
359.35	227.93
359.73	228.01
360.11	228.08
360.49	228.13
360.87	228.21
361.25	228.27
361.63	228.36
362.01	228.34
362.39	228.39
362.77	228.45
363.15	228.48
363.53	228.52
363.91	228.50
364.29	228.59
364.67	228.48
365.05	228.51
365.43	228.56
365.81	228.59
366.19	228.62
366.57	228.68
366.95	228.68
367.33	228.65
367.71	228.62
368.09	228.60
368.47	228.59
368.85	228.54
369.23	228.53
369.61	228.50
369.99	228.51
370.37	228.49
370.75	228.51
371.13	228.48
371.51	228.44
371.89	228.43
372.27	228.36
372.65	228.36
373.03	228.30
373.41	228.24
373.78	228.18
374.16	228.07
374.54	227.98
374.92	227.89
375.30	227.85
375.68	227.80
376.06	227.73
376.44	227.70
376.82	227.64
377.19	227.55
377.57	227.47
377.95	227.38
378.33	227.31
378.71	227.19
379.09	227.11
379.47	227.04
379.84	226.95
380.22	226.88
380.60	226.78
380.98	226.73
381.36	226.67
381.73	226.55
382.11	226.50
382.49	226.44
382.87	226.38
383.25	226.28
383.62	226.34
384.00	226.27
384.38	226.18
384.76	226.14
385.13	226.11
385.51	226.04
385.89	225.99
386.27	225.92
386.64	225.89
387.02	225.86
387.40	225.81
387.78	225.78
388.15	225.76
388.53	225.77
388.91	225.76
389.29	225.71
389.66	225.74
390.04	225.71
390.42	225.70
390.79	225.72
391.17	225.71
391.55	225.58
391.92	225.57
392.30	225.58
392.68	225.58
393.05	225.60
393.43	225.61
393.81	225.61
394.18	225.62
394.56	225.64
394.94	225.64
395.31	225.63
395.69	225.69
396.06	225.72
396.44	225.73
396.82	225.77
397.19	225.84
397.57	225.87
397.95	225.94
398.32	225.98
398.70	226.02
399.07	226.11
399.45	226.20
399.82	226.26
400.20	226.32
400.58	226.37
400.95	226.39
401.33	226.52
401.70	226.68
402.08	226.74
402.45	226.82
402.83	226.94
403.20	227.06
403.58	227.13
403.95	227.25
404.33	227.36
404.71	227.46
405.08	227.63
405.46	227.76
405.83	227.93
406.21	228.09
406.58	228.27
406.96	228.41
407.33	228.57
407.70	228.75
408.08	229.06
408.45	229.29
408.83	229.54
409.20	229.71
409.58	229.87
409.95	230.17
410.33	230.44
410.70	230.69
411.08	230.99
411.45	231.32
411.82	231.61
412.20	231.96
412.57	232.36
412.95	232.68
413.32	233.08
413.69	233.46
414.07	233.87
414.44	234.31
414.82	234.79
415.19	235.32
415.56	235.88
415.94	236.37
416.31	236.99
416.68	237.60
417.06	238.32
417.43	239.01
417.81	239.76
418.18	240.54
418.55	241.37
418.93	242.27
419.30	243.15
419.67	244.10
420.04	245.08
420.42	246.05
420.79	247.22
421.16	248.37
421.54	249.56
421.91	250.78
422.28	252.05
422.66	253.39
423.03	254.72
423.40	256.06
423.77	257.44
424.15	258.86
424.52	260.34
424.89	261.95
425.26	263.47
425.64	264.91
426.01	266.51
426.38	268.18
426.75	269.83
427.13	271.55
427.50	273.35
427.87	275.18
428.24	277.06
428.61	278.78
428.99	280.68
429.36	282.77
429.73	284.78
430.10	286.73
430.47	288.78
430.85	290.87
431.22	293.13
431.59	295.53
431.96	297.78
432.33	300.21
432.70	302.57
433.08	305.37
433.45	307.99
433.82	310.57
434.19	313.43
434.56	316.21
434.93	318.82
435.30	321.41
435.68	324.31
436.05	327.08
436.42	329.84
436.79	332.36
437.16	335.03
437.53	337.89
437.90	340.70
438.27	343.43
438.64	346.22
439.01	348.73
439.38	350.91
439.75	353.09
440.13	355.60
440.50	357.92
440.87	359.76
441.24	361.71
441.61	363.84
441.98	365.27
442.35	367.06
442.72	368.91
443.09	370.71
443.46	371.64
443.83	372.24
444.20	372.75
444.57	373.57
444.94	373.87
445.31	374.23
445.68	374.57
446.05	374.66
446.42	374.24
446.79	373.80
447.16	373.35
447.53	372.97
447.90	371.82
448.27	370.64
448.64	369.02
449.01	367.86
449.37	365.89
449.74	364.00
450.11	361.77
450.48	359.33
450.85	356.84
451.22	354.74
451.59	352.74
451.96	350.79
452.33	348.18
452.70	345.79
453.07	342.96
453.43	340.10
453.80	337.33
454.17	334.69
454.54	332.18
454.91	329.54
455.28	326.92
455.65	324.45
456.02	322.05
456.38	319.97
456.75	317.32
457.12	315.10
457.49	312.93
457.86	310.76
458.23	308.90
458.59	306.85
458.96	304.82
459.33	302.97
459.70	301.16
460.07	299.71
460.43	298.03
460.80	296.40
461.17	295.00
461.54	293.52
461.91	292.12
462.27	290.69
462.64	289.40
463.01	288.05
463.38	286.77
463.74	285.40
464.11	284.24
464.48	283.25
464.85	282.15
465.21	281.28
465.58	280.35
465.95	279.29
466.32	278.37
466.68	277.44
467.05	276.58
467.42	275.67
467.78	274.71
468.15	273.81
468.52	273.14
468.88	272.29
469.25	271.49
469.62	270.89
469.98	270.19
470.35	269.59
470.72	269.01
471.08	268.38
471.45	267.82
471.82	267.31
472.18	266.69
472.55	266.24
472.92	265.73
473.28	265.32
473.65	264.88
474.02	264.49
474.38	264.14
474.75	263.80
475.11	263.48
475.48	263.25
475.85	263.05
476.21	262.84
476.58	262.67
476.94	262.54
477.31	262.38
477.67	262.30
478.04	262.23
478.41	262.17
478.77	262.18
479.14	262.19
479.50	262.17
479.87	262.26
480.23	262.42
480.60	262.50
480.96	262.58
481.33	262.80
481.69	262.97
482.06	263.20
482.42	263.42
482.79	263.66
483.15	263.98
483.52	264.39
483.88	264.71
484.25	265.10
484.61	265.55
484.98	266.03
485.34	266.55
485.71	267.11
486.07	267.67
486.44	268.28
486.80	268.95
487.17	269.69
487.53	270.52
487.90	271.33
488.26	272.27
488.62	273.25
488.99	274.22
489.35	275.29
489.72	276.41
490.08	277.64
490.44	278.92
490.81	280.27
491.17	281.61
491.54	283.17
491.90	284.71
492.26	286.31
492.63	288.02
492.99	289.85
493.36	291.78
493.72	293.84
494.08	295.93
494.45	298.17
494.81	300.58
495.17	302.98
495.54	305.54
495.90	308.23
496.26	311.09
496.63	314.05
496.99	317.13
497.35	320.40
497.72	323.79
498.08	327.31
498.44	330.99
498.80	334.88
499.17	338.91
499.53	343.08
499.89	347.51
500.26	352.02
500.62	356.68
500.98	361.62
501.34	366.70
501.71	372.02
502.07	377.50
502.43	383.14
502.79	388.96
503.16	395.01
503.52	401.33
503.88	407.71
504.24	414.38
504.60	421.27
504.97	428.42
505.33	435.77
505.69	443.47
506.05	451.25
506.41	459.20
506.78	467.37
507.14	475.88
507.50	484.57
507.86	493.63
508.22	502.76
508.59	511.95
508.95	521.59
509.31	531.43
509.67	541.49
510.03	551.75
510.39	562.30
510.75	573.14
511.12	584.03
511.48	595.36
511.84	606.77
512.20	618.31
512.56	630.21
512.92	642.43
513.28	654.78
513.64	667.26
514.00	679.86
514.37	692.70
514.73	705.71
515.09	718.75
515.45	732.03
515.81	745.67
516.17	759.64
516.53	773.69
516.89	787.81
517.25	801.98
517.61	816.34
517.97	830.76
518.33	845.17
518.69	860.00
519.05	874.89
519.41	890.01
519.77	905.49
520.13	920.87
520.49	936.17
520.85	951.46
521.21	967.13
521.57	983.36
521.93	999.11
522.29	1015.37
522.65	1031.54
523.01	1047.65
523.37	1063.58
523.73	1079.71
524.09	1095.80
524.45	1112.10
524.81	1128.62
525.17	1145.41
525.53	1162.28
525.89	1179.01
526.25	1195.71
526.61	1212.06
526.97	1228.72
527.33	1245.02
527.68	1261.47
528.04	1277.82
528.40	1294.27
528.76	1311.33
529.12	1327.91
529.48	1344.78
529.84	1360.82
530.20	1377.48
530.56	1394.32
530.91	1411.72
531.27	1428.35
531.63	1444.72
531.99	1461.13
532.35	1477.01
532.71	1492.73
533.07	1508.86
533.42	1524.77
533.78	1540.59
534.14	1556.75
534.50	1572.01
534.86	1587.79
535.21	1602.94
535.57	1618.80
535.93	1634.33
536.29	1648.95
536.65	1663.87
537.00	1678.44
537.36	1693.55
537.72	1707.87
538.08	1722.27
538.44	1735.95
538.79	1749.80
539.15	1763.37
539.51	1777.02
539.87	1791.23
540.22	1804.84
540.58	1818.52
540.94	1831.71
541.29	1844.60
541.65	1857.18
542.01	1870.20
542.37	1882.50
542.72	1894.74
543.08	1906.46
543.44	1918.62
543.79	1929.78
544.15	1940.68
544.51	1952.27
544.87	1963.23
545.22	1973.96
545.58	1984.14
545.94	1993.86
546.29	2003.57
546.65	2013.28
547.01	2022.41
547.36	2031.12
547.72	2039.65
548.07	2047.44
548.43	2055.51
548.79	2063.33
549.14	2070.83
549.50	2078.21
549.86	2085.88
550.21	2093.26
550.57	2100.35
550.92	2106.92
551.28	2113.96
551.64	2120.81
551.99	2127.24
552.35	2133.31
552.70	2139.39
553.06	2145.26
553.41	2151.46
553.77	2157.58
554.13	2163.73
554.48	2169.93
554.84	2175.29
555.19	2180.51
555.55	2185.60
555.90	2190.11
556.26	2195.10
556.61	2199.84
556.97	2204.12
557.32	2208.12
557.68	2212.23
558.03	2216.51
558.39	2220.27
558.74	2224.83
559.10	2228.82
559.45	2232.57
559.81	2236.88
560.16	2240.82
560.52	2244.05
560.87	2247.42
561.23	2249.96
561.58	2252.76
561.94	2255.18
562.29	2257.65
562.64	2260.32
563.00	2262.97
563.35	2266.42
563.71	2269.64
564.06	2272.88
564.42	2275.78
564.77	2278.44
565.12	2280.66
565.48	2282.69
565.83	2284.64
566.19	2286.02
566.54	2286.90
566.89	2288.01
567.25	2288.61
567.60	2289.87
567.96	2291.75
568.31	2292.77
568.66	2294.00
569.02	2294.70
569.37	2295.20
569.72	2296.17
570.08	2296.37
570.43	2296.45
570.78	2296.04
571.14	2294.50
571.49	2293.03
571.84	2292.73
572.20	2291.57
572.55	2290.68
572.90	2289.00
573.26	2287.67
573.61	2285.98
573.96	2284.41
574.31	2281.55
574.67	2278.61
575.02	2275.06
575.37	2271.58
575.72	2267.83
576.08	2264.55
576.43	2261.21
576.78	2257.52
577.13	2254.33
577.49	2251.28
577.84	2247.79
578.19	2244.09
578.54	2240.53
578.90	2236.52
579.25	2231.00
579.60	2226.27
579.95	2221.33
580.30	2216.50
580.66	2211.42
581.01	2206.58
581.36	2201.65
581.71	2197.51
582.06	2192.99
582.42	2188.61
582.77	2183.63
583.12	2179.30
583.47	2174.61
583.82	2169.79
584.17	2164.79
584.53	2159.42
584.88	2153.94
585.23	2148.30
585.58	2142.89
585.93	2137.42
586.28	2132.64
586.63	2127.83
586.98	2122.79
587.34	2118.13
587.69	2113.31
588.04	2108.19
588.39	2102.68
588.74	2096.35
589.09	2090.22
589.44	2083.54
589.79	2077.63
590.14	2071.98
590.49	2065.18
590.84	2058.85
591.19	2052.82
591.54	2046.27
591.89	2039.05
592.25	2032.23
592.60	2025.10
592.95	2017.60
593.30	2010.42
593.65	2003.05
594.00	1995.97
594.35	1988.69
594.70	1980.74
595.05	1973.50
595.40	1966.19
595.75	1958.67
596.10	1952.50
596.45	1945.84
596.80	1939.80
597.15	1933.26
597.50	1926.29
597.85	1920.08
598.19	1913.40
598.54	1906.36
598.89	1899.79
599.24	1893.90
599.59	1887.29
599.94	1881.17
600.29	1874.86
600.64	1868.22
600.99	1860.79
601.34	1853.88
601.69	1847.01
602.04	1840.22
602.39	1832.92
602.74	1826.09
603.08	1819.41
603.43	1812.68
603.78	1805.45
604.13	1798.35
604.48	1791.05
604.83	1784.11
605.18	1777.03
605.53	1769.14
605.87	1761.19
606.22	1754.00
606.57	1746.06
606.92	1738.83
607.27	1731.66
607.62	1724.78
607.96	1717.63
608.31	1710.93
608.66	1703.43
609.01	1695.81
609.36	1688.14
609.70	1680.03
610.05	1671.97
610.40	1664.29
610.75	1656.00
611.10	1648.38
611.44	1639.82
611.79	1631.88
612.14	1623.16
612.49	1614.07
612.83	1605.80
613.18	1597.77
613.53	1589.70
613.88	1581.11
614.22	1572.80
614.57	1564.08
614.92	1556.02
615.27	1548.42
615.61	1540.18
615.96	1532.14
616.31	1524.54
616.65	1517.23
617.00	1509.79
617.35	1502.16
617.70	1493.76
618.04	1485.23
618.39	1476.90
618.74	1469.35
619.08	1461.00
619.43	1453.51
619.78	1446.62
620.12	1439.34
620.47	1431.71
620.82	1423.54
621.16	1416.10
621.51	1408.52
621.85	1400.97
622.20	1392.39
622.55	1384.09
622.89	1376.08
623.24	1368.41
623.59	1361.05
623.93	1353.50
624.28	1346.26
624.62	1338.73
624.97	1331.61
625.32	1324.80
625.66	1317.86
626.01	1310.75
626.35	1303.31
626.70	1295.48
627.04	1287.74
627.39	1279.98
627.73	1272.52
628.08	1265.60
628.43	1258.29
628.77	1250.91
629.12	1243.44
629.46	1236.32
629.81	1228.90
630.15	1221.81
630.50	1214.40
630.84	1206.24
631.19	1198.34
631.53	1190.81
631.88	1183.28
632.22	1175.58
632.57	1168.36
632.91	1160.74
633.26	1153.35
633.60	1145.88
633.95	1138.84
634.29	1131.89
634.64	1125.23
634.98	1117.89
635.32	1110.69
635.67	1104.09
636.01	1097.38
636.36	1090.55
636.70	1084.02
637.05	1077.42
637.39	1070.94
637.73	1064.47
638.08	1058.53
638.42	1052.53
638.77	1046.11
639.11	1039.39
639.45	1033.04
639.80	1026.29
640.14	1019.88
640.49	1013.29
640.83	1007.10
641.17	1000.87
641.52	994.41
641.86	987.90
642.20	982.10
642.55	975.82
642.89	969.36
643.23	962.77
643.58	956.96
643.92	950.75
644.26	944.62
644.61	938.57
644.95	932.51
645.29	925.89
645.64	919.10
645.98	912.79
646.32	907.09
646.66	901.00
647.01	895.34
647.35	889.55
647.69	883.69
648.04	878.11
648.38	872.22
648.72	866.26
649.06	860.25
649.41	854.39
649.75	848.42
650.09	842.46
650.43	836.67
650.78	830.54
651.12	824.56
651.46	818.88
651.80	813.16
652.14	807.80
652.49	802.44
652.83	797.33
653.17	791.62
653.51	785.81
653.85	780.40
654.20	774.75
654.54	768.84
654.88	763.10
655.22	757.19
655.56	751.52
655.90	746.03
656.25	740.79
656.59	735.37
656.93	730.23
657.27	725.07
657.61	719.65
657.95	714.54
658.29	709.42
658.64	704.15
658.98	698.85
659.32	693.31
659.66	688.09
660.00	682.72
660.34	677.75
660.68	672.86
661.02	667.83
661.36	663.14
661.70	658.64
662.05	654.24
662.39	649.96
662.73	645.49
663.07	641.10
663.41	636.67
663.75	632.20
664.09	627.71
664.43	623.32
664.77	619.25
665.11	615.00
665.45	610.94
665.79	606.85
666.13	602.71
666.47	598.70
666.81	594.59
667.15	590.45
667.49	586.54
667.83	582.72
668.17	578.80
668.51	574.59
668.85	570.51
669.19	566.75
669.53	562.83
669.87	558.88
670.21	555.19
670.55	551.50
670.89	548.09
671.23	544.59
671.57	541.07
671.91	537.48
672.25	533.96
672.58	530.38
672.92	526.97
673.26	523.77
673.60	520.55
673.94	517.39
674.28	514.52
674.62	511.59
674.96	508.49
675.30	505.59
675.64	502.70
675.97	499.91
676.31	497.04
676.65	494.11
676.99	491.54
677.33	488.65
677.67	485.84
678.01	482.76
678.34	479.74
678.68	476.83
679.02	474.05
679.36	471.33
679.70	468.66
680.04	465.85
680.37	463.00
680.71	460.24
681.05	457.63
681.39	454.82
681.73	452.17
682.06	449.59
682.40	447.04
682.74	444.45
683.08	441.91
683.42	439.28
683.75	436.78
684.09	434.19
684.43	431.75
684.77	429.26
685.10	426.85
685.44	424.60
685.78	422.34
686.12	420.03
686.45	417.71
686.79	415.37
687.13	413.21
687.46	411.03
687.80	408.82
688.14	406.59
688.48	404.61
688.81	402.36
689.15	400.27
689.49	398.09
689.82	396.09
690.16	393.96
690.50	392.03
690.83	390.07
691.17	388.06
691.51	386.11
691.84	384.27
692.18	382.39
692.52	380.39
692.85	378.46
693.19	376.59
693.52	374.72
693.86	372.91
694.20	371.08
694.53	369.26
694.87	367.50
695.21	365.75
695.54	363.94
695.88	362.20
696.21	360.45
696.55	358.78
696.88	357.09
697.22	355.49
697.56	353.82
697.89	352.14
698.23	350.52
698.56	348.92
698.90	347.31
699.23	345.63
699.57	344.05
699.90	342.49
700.24	340.94
700.58	339.44
700.91	337.94
701.25	336.49
701.58	335.13
701.92	333.74
702.25	332.33
702.59	330.94
702.92	329.63
703.26	328.34
703.59	327.02
703.93	325.80
704.26	324.49
704.60	323.19
704.93	321.92
705.26	320.69
705.60	319.52
705.93	318.34
706.27	317.33
706.60	316.29
706.94	315.23
707.27	314.09
707.61	313.00
707.94	311.98
708.27	310.92
708.61	309.80
708.94	308.80
709.28	307.83
709.61	306.86
709.94	305.89
710.28	304.83
710.61	303.84
710.95	302.79
711.28	301.92
711.61	300.95
711.95	300.05
712.28	299.09
712.61	298.09
712.95	297.20
713.28	296.30
713.61	295.39
713.95	294.49
714.28	293.63
714.61	292.75
714.95	291.92
715.28	291.04
715.61	290.18
715.95	289.30
716.28	288.41
716.61	287.55
716.95	286.74
717.28	286.00
717.61	285.26
717.94	284.48
718.28	283.66
718.61	282.97
718.94	282.28
719.27	281.63
719.61	280.98
719.94	280.30
720.27	279.58
720.60	278.92
720.94	278.31
721.27	277.72
721.60	277.18
721.93	276.56
722.27	276.03
722.60	275.47
722.93	274.89
723.26	274.39
723.59	273.84
723.93	273.29
724.26	272.74
724.59	272.18
724.92	271.71
725.25	271.22
725.59	270.69
725.92	270.16
726.25	269.65
726.58	269.18
726.91	268.71
727.24	268.23
727.57	267.77
727.91	267.30
728.24	266.84
728.57	266.33
728.90	265.89
729.23	265.39
729.56	264.98
729.89	264.53
730.22	264.06
730.55	263.56
730.89	263.09
731.22	262.67
731.55	262.24
731.88	261.81
732.21	261.38
732.54	260.95
732.87	260.58
733.20	260.19
733.53	259.80
733.86	259.45
734.19	259.07
734.52	258.69
734.85	258.37
735.18	257.94
735.51	257.59
735.84	257.21
736.17	256.86
736.50	256.46
736.83	256.22
737.16	255.88
737.49	255.63
737.82	255.32
738.15	254.99
738.48	254.62
738.81	254.31
739.14	253.96
739.47	253.67
739.80	253.32
740.13	253.02
740.46	252.71
740.79	252.33
741.12	252.02
741.45	251.73
741.78	251.38
742.11	251.12
742.44	250.80
742.77	250.53
743.10	250.23
743.43	249.95
743.75	249.56
744.08	249.41
744.41	249.11
744.74	248.80
745.07	248.52
745.40	248.32
745.73	248.04
746.06	247.80
746.39	247.57
746.71	247.30
747.04	247.01
747.37	246.72
747.70	246.50
748.03	246.24
748.36	246.01
748.68	245.75
749.01	245.48
749.34	245.24
749.67	245.00
750.00	244.77
750.33	244.61
750.65	244.39
750.98	244.04
751.31	243.81
751.64	243.63
751.97	243.44
752.29	243.19
752.62	242.94
752.95	242.73
753.28	242.48
753.60	242.28
753.93	242.10
754.26	241.93
754.59	241.65
754.91	241.40
755.24	241.16
755.57	240.97
755.90	240.79
756.22	240.59
756.55	240.35
756.88	240.18
757.20	239.94
757.53	239.75
757.86	239.60
758.19	239.42
758.51	239.26
758.84	239.08
759.17	238.92
759.49	238.74
759.82	238.58
760.15	238.41
760.47	238.25
760.80	238.09
761.13	237.92
761.45	237.81
761.78	237.69
762.11	237.58
762.43	237.42
762.76	237.29
763.08	237.18
763.41	237.06
763.74	236.88
764.06	236.75
764.39	236.60
764.71	236.44
765.04	236.28
765.37	236.12
765.69	235.98
766.02	235.85
766.34	235.77
766.67	235.66
767.00	235.57
767.32	235.53
767.65	235.45
767.97	235.32
768.30	235.20
768.62	235.10
768.95	234.96
769.27	234.85
769.60	234.73
769.92	234.60
770.25	234.49
770.57	234.40
770.90	234.30
771.22	234.21
771.55	234.12
771.87	234.04
772.20	233.94
772.52	233.95
772.85	233.96
773.17	233.85
773.50	233.70
773.82	233.58
774.15	233.40
774.47	233.27
774.80	233.22
775.12	233.15
775.45	233.06
775.77	232.98
776.09	232.92
776.42	232.86
776.74	232.83
777.07	232.76
777.39	232.70
777.72	232.63
778.04	232.58
778.36	232.54
778.69	232.49
779.01	232.42
779.33	232.24
779.66	232.10
779.98	232.03
780.31	231.99
780.63	231.97
780.95	231.96
781.28	231.86
781.60	231.78
781.92	231.73
782.25	231.67
782.57	231.63
782.89	231.56
783.22	231.51
783.54	231.42
783.86	231.36
784.19	231.31
784.51	231.26
784.83	231.19
785.16	231.12
785.48	231.07
785.80	231.03
786.12	231.00
786.45	230.91
786.77	230.89
787.09	230.83
787.42	230.75
787.74	230.69
788.06	230.69
788.38	230.63
788.71	230.55
789.03	230.55
789.35	230.49
789.67	230.46
789.99	230.39
790.32	230.34
790.64	230.29
790.96	230.35
791.28	230.25
791.61	230.20
791.93	230.15
792.25	230.08
792.57	230.09
792.89	230.05
793.21	230.04
793.54	229.99
793.86	229.92
794.18	229.89
794.50	229.85
794.82	229.77
795.14	229.75
795.47	229.73
795.79	229.65
796.11	229.59
796.43	229.53
796.75	229.51
797.07	229.48
797.39	229.45
797.71	229.32
798.04	229.30
798.36	229.25
798.68	229.20
799.00	229.18
799.32	229.11
799.64	229.06
799.96	229.01
800.28	228.98
800.60	228.97
800.92	228.93
801.24	228.91
801.56	228.91
801.89	228.85
802.21	228.81
802.53	228.77
802.85	228.76
803.17	228.78
803.49	228.73
803.81	228.67
804.13	228.63
804.45	228.58
804.77	228.55
805.09	228.53
805.41	228.52
805.73	228.53
806.05	228.46
806.37	228.44
806.69	228.42
807.01	228.40
807.33	228.39
807.65	228.36
807.97	228.34
808.28	228.30
808.60	228.30
808.92	228.28
809.24	228.33
809.56	228.31
809.88	228.23
810.20	228.20
810.52	228.20
810.84	228.19
811.16	228.21
811.48	228.22
811.80	228.24
812.12	228.20
812.43	228.17
812.75	228.15
813.07	228.14
813.39	228.14
813.71	228.08
814.03	228.05
814.35	228.01
814.67	227.97
814.98	227.96
815.30	227.91
815.62	227.88
815.94	227.81
816.26	227.84
816.58	227.83
816.89	227.84
817.21	227.83
817.53	227.82
817.85	227.78
818.17	227.73
818.48	227.68
818.80	227.69
819.12	227.64
819.44	227.62
819.76	227.57
820.07	227.57
820.39	227.57
820.71	227.56
821.03	227.56
821.34	227.56
821.66	227.56
821.98	227.60
822.30	227.62
822.61	227.68
822.93	227.62
823.25	227.62
823.57	227.61
823.88	227.62
824.20	227.57
824.52	227.58
824.83	227.56
825.15	227.54
825.47	227.52
825.79	227.53
826.10	227.54
826.42	227.55
826.74	227.55
827.05	227.53
827.37	227.53
827.69	227.52
828.00	227.50
828.32	227.50
828.64	227.48
828.95	227.50
829.27	227.42
829.58	227.41
829.90	227.45
830.22	227.41
830.53	227.35
830.85	227.35
831.17	227.32
831.48	227.30
831.80	227.32
832.11	227.31
832.43	227.28
832.75	227.26
833.06	227.30
833.38	227.30
833.69	227.28
834.01	227.23
834.32	227.22
834.64	227.21
834.96	227.19
835.27	227.17
835.59	227.10
835.90	227.10
836.22	227.09
836.53	227.04
836.85	227.04
837.16	227.14
837.48	227.13
837.79	227.17
838.11	227.20
838.42	227.19
838.74	227.17
839.05	227.18
839.37	227.19
839.68	227.12
840.00	227.07
840.31	227.09
840.63	227.11
840.94	227.10
841.26	227.11
841.57	227.10
841.88	227.12
842.20	227.12
842.51	227.10
842.83	227.11
843.14	227.20
843.46	227.21
843.77	227.16
844.08	227.17
844.40	227.13
844.71	227.10
845.03	227.12
845.34	227.14
845.65	227.09
845.97	227.08
846.28	227.11
846.60	227.12
846.91	227.11
847.22	227.07
847.54	227.10
847.85	227.05
848.16	227.04
848.48	227.00
848.79	227.00
849.10	227.00
849.42	226.98
849.73	226.90
850.04	226.85
850.36	226.82
850.67	226.82
850.98	226.80
851.30	226.81
851.61	226.78
851.92	226.74
852.23	226.79
852.55	226.79
852.86	226.77
853.17	226.76
853.49	226.78
853.80	226.83
854.11	226.82
854.42	226.89
854.74	226.86
855.05	226.84
855.36	226.83
855.67	226.85
855.99	226.83
856.30	226.92
856.61	226.94
856.92	226.93
857.23	226.94
857.55	226.92
857.86	226.90
858.17	226.89
858.48	226.90
858.79	226.91
859.11	226.90
859.42	226.90
859.73	226.90
860.04	226.89
860.35	226.83
860.66	226.79
860.98	226.74
861.29	226.75
861.60	226.76
861.91	226.81
862.22	226.78
862.53	226.77
862.84	226.66
863.16	226.68
863.47	226.67
863.78	226.66
864.09	226.67
864.40	226.70
864.71	226.68
865.02	226.66
865.33	226.63
865.64	226.60
865.95	226.56
866.27	226.60
866.58	226.56
866.89	226.59
867.20	226.60
867.51	226.58
867.82	226.57
868.13	226.57
868.44	226.50
868.75	226.51
869.06	226.52
869.37	226.52
869.68	226.48
869.99	226.49
870.30	226.48
870.61	226.49
870.92	226.45
871.23	226.48
871.54	226.47
871.85	226.52
872.16	226.54
872.47	226.56
872.78	226.50
873.09	226.53
873.40	226.49
873.71	226.51
874.02	226.51
874.33	226.51
874.64	226.51
874.95	226.53
875.26	226.48
875.56	226.48
875.87	226.46
876.18	226.47
876.49	226.54
876.80	226.52
877.11	226.50
877.42	226.49
877.73	226.46
878.04	226.46
878.35	226.43
878.66	226.38
878.96	226.38
879.27	226.38
879.58	226.37
879.89	226.37
880.20	226.36
880.51	226.35
880.82	226.35
881.12	226.35
881.43	226.31
881.74	226.31
882.05	226.32
882.36	226.32
882.67	226.30
882.97	226.21
883.28	226.22
883.59	226.21
883.90	226.25
884.21	226.27
884.51	226.27
884.82	226.25
885.13	226.27
885.44	226.29
885.74	226.27
886.05	226.26
886.36	226.27
886.67	226.24
886.98	226.29
887.28	226.31
887.59	226.27
887.90	226.29
888.20	226.26
888.51	226.24
888.82	226.21
889.13	226.21
889.43	226.28
889.74	226.25
890.05	226.24
890.35	226.21
890.66	226.18
890.97	226.17
891.28	226.17
891.58	226.16
891.89	226.13
892.20	226.16
892.50	226.12
892.81	226.09
893.12	226.11
893.42	226.10
893.73	226.09
894.04	226.10
894.34	226.09
894.65	226.11
894.95	226.09
895.26	226.11
895.57	226.12
895.87	226.05
896.18	226.07
896.48	226.06
896.79	226.04
897.10	226.06
897.40	226.07
897.71	226.06
898.01	226.06
898.32	226.07
898.63	226.02
898.93	226.04
899.24	226.04
899.54	226.01
899.85	225.97
900.15	225.94
900.46	225.96
900.76	225.94
901.07	225.96
901.38	225.94
901.68	225.93
901.99	225.90
902.29	225.88
902.60	225.87
902.90	225.84
903.21	225.83
903.51	225.83
903.82	225.84
904.12	225.83
904.43	225.81
904.73	225.81
905.03	225.82
905.34	225.91
905.64	225.89
905.95	225.90
906.25	225.93
906.56	225.94
906.86	225.93
907.17	225.97
907.47	225.96
907.77	225.98
908.08	225.98
908.38	225.98
908.69	226.00
908.99	225.99
909.30	226.02
909.60	226.06
909.90	226.04
910.21	226.01
910.51	226.02
910.81	226.01
911.12	226.00
911.42	226.04
911.73	225.94
912.03	225.97
912.33	225.94
912.64	225.90
912.94	225.91
913.24	225.93
913.55	225.90
913.85	225.88
914.15	225.92
914.46	225.95
914.76	225.98
915.06	225.96
915.37	225.99
915.67	225.98
915.97	225.95
916.27	225.95
916.58	225.94
916.88	225.95
917.18	225.94
917.49	226.01
917.79	225.99
918.09	226.02
918.39	226.04
918.70	226.06
919.00	226.07
919.30	226.12
919.60	226.11
919.91	226.10
920.21	226.09
920.51	226.06
920.81	226.05
921.12	226.05
921.42	226.07
921.72	226.07
922.02	226.06
922.32	226.12
922.63	226.14
922.93	226.22
923.23	226.21
923.53	226.20
923.83	226.14
924.13	226.13
924.44	226.12
924.74	226.14
925.04	226.17
925.34	226.16
925.64	226.07
925.94	226.05
926.24	226.10
926.55	226.10
926.85	226.13
927.15	226.13
927.45	226.13
927.75	226.13
928.05	226.13
928.35	226.11
928.65	226.11
928.95	226.11
929.26	226.04
929.56	226.07
929.86	226.12
930.16	226.11
930.46	226.14
930.76	226.16
931.06	226.11
931.36	226.08
931.66	226.10
931.96	226.11
932.26	226.13
932.56	226.09
932.86	226.06
933.16	226.05
933.46	226.04
933.76	226.00
934.06	226.00
934.36	226.03
934.66	226.05
934.96	226.02
935.26	226.00
935.56	226.03
935.86	226.01
936.16	225.96
936.46	225.99
936.76	225.98
937.06	225.92
937.36	225.93
937.66	225.93
937.96	225.94
938.26	225.93
938.56	225.91
938.86	225.94
939.16	225.99
939.46	225.97
939.76	225.96
940.06	225.97
940.35	225.94
940.65	225.89
940.95	225.89
941.25	225.87
941.55	225.89
941.85	225.87
942.15	225.89
942.45	225.91
942.75	225.88
943.04	225.87
943.34	225.90
943.64	225.90
943.94	225.89
944.24	225.91
944.54	225.91
944.84	225.93
945.13	225.89
945.43	225.87
945.73	225.90
946.03	225.93
946.33	225.91
946.62	225.95
946.92	225.95
947.22	225.97
947.52	226.00
947.82	226.00
948.11	226.00
948.41	226.00
948.71	225.98
949.01	226.01
949.31	226.03
949.60	226.05
949.90	226.08
950.20	226.08
950.50	226.07
950.79	226.09
951.09	226.11
951.39	226.11
951.69	226.12
951.98	226.16
952.28	226.15
952.58	226.14
952.87	226.11
953.17	226.13
953.47	226.08
953.76	226.09
954.06	226.06
954.36	226.04
954.66	225.99
954.95	226.00
955.25	225.99
955.55	225.98
955.84	225.94
956.14	225.95
956.44	225.97
956.73	225.96
957.03	225.94
957.32	225.93
957.62	225.95
957.92	225.96
958.21	225.94
958.51	226.05
958.81	226.10
959.10	226.13
959.40	226.17
959.69	226.21
959.99	226.22
960.29	226.23
960.58	226.23
960.88	226.28
961.17	226.28
961.47	226.29
961.76	226.25
962.06	226.29
962.36	226.23
962.65	226.23
962.95	226.24
963.24	226.21
963.54	226.22
963.83	226.23
964.13	226.20
964.42	226.19
964.72	226.09
965.01	226.08
965.31	226.06
965.60	226.01
965.90	226.08
966.19	226.06
966.49	226.06
966.78	226.06
967.08	226.07
967.37	226.07
967.67	226.04
967.96	226.06
968.26	226.07
968.55	226.12
968.85	226.08
969.14	226.08
969.43	226.10
969.73	226.09
970.02	226.08
970.32	226.07
970.61	226.04
970.91	226.02
971.20	226.00
971.49	226.01
971.79	226.02
972.08	225.93
972.38	225.95
972.67	225.90
972.96	225.95
973.26	225.91
973.55	225.93
973.85	225.96
974.14	225.95
974.43	225.93
974.73	225.93
975.02	225.95
975.31	225.95
975.61	225.92
975.90	225.88
976.19	225.84
976.49	225.83
976.78	225.82
977.07	225.81
977.37	225.81
977.66	225.80
977.95	225.80
978.24	225.78
978.54	225.80
978.83	225.81
979.12	225.78
979.42	225.78
979.71	225.77
980.00	225.77
980.29	225.81
980.59	225.80
980.88	225.78
981.17	225.78
981.46	225.76
981.76	225.77
982.05	225.79
982.34	225.82
982.63	225.84
982.93	225.86
983.22	225.90
983.51	225.92
983.80	225.93
984.09	225.93
984.39	225.94
984.68	225.90
984.97	225.92
985.26	225.93
985.55	225.93
985.85	225.92
986.14	225.89
986.43	225.89
986.72	225.88
987.01	225.87
987.30	225.88
987.59	225.89
987.89	225.92
988.18	225.89
988.47	225.89
988.76	225.88
989.05	225.89
989.34	225.86
989.63	225.91
989.92	225.87
990.22	225.85
990.51	225.85
990.80	225.83
991.09	225.81
991.38	225.82
991.67	225.82
991.96	225.79
992.25	225.83
992.54	225.80
992.83	225.76
993.12	225.75
993.41	225.75
993.70	225.81
993.99	225.81
994.28	225.85
994.58	225.87
994.87	225.88
995.16	225.92
995.45	225.92
995.74	225.86
996.03	225.88
996.32	225.91
996.61	225.95
996.90	225.97
997.19	225.99
997.48	226.02
997.77	226.01
998.06	226.05
998.34	226.03
998.63	226.05
998.92	226.08
999.21	226.13
999.50	226.14
999.79	226.11
1000.08	226.10
1000.37	226.14
1000.66	226.11
1000.95	226.12
1001.24	226.09
1001.53	226.11
1001.82	226.12
1002.11	226.10
1002.40	226.10
1002.68	226.11
1002.97	226.16
1003.26	226.14
1003.55	226.11
1003.84	226.11
1004.13	226.13
1004.42	226.08
1004.71	226.07
1004.99	226.06
1005.28	226.02
1005.57	226.02
1005.86	226.01
1006.15	226.00
1006.44	225.96
1006.72	225.99
1007.01	225.95
1007.30	225.97
1007.59	225.96
1007.88	225.94
1008.17	225.94
1008.45	225.94
1008.74	225.89
1009.03	225.88
1009.32	225.87
1009.60	225.86
1009.89	225.84
1010.18	225.76
1010.47	225.79
1010.76	225.78
1011.04	225.78
1011.33	225.82
1011.62	225.82
1011.91	225.79
1012.19	225.77
1012.48	225.76
1012.77	225.74
1013.05	225.82
1013.34	225.78
1013.63	225.75
1013.92	225.78
1014.20	225.76
1014.49	225.73
1014.78	225.75
1015.06	225.72
1015.35	225.73
1015.64	225.74
1015.92	225.76
1016.21	225.77
1016.50	225.76
1016.78	225.77
1017.07	225.79
1017.36	225.72
1017.64	225.66
1017.93	225.66
1018.22	225.67
1018.50	225.67
1018.79	225.66
1019.08	225.60
1019.36	225.62
1019.65	225.60
1019.93	225.59
1020.22	225.58
1020.51	225.63
1020.79	225.62
1021.08	225.48
1021.36	225.78
1021.65	225.57
1021.94	225.91
1022.22	225.91
1022.51	225.14
1022.79	225.62
1023.08	225.30
1023.36	226.53
1023.65	225.66
>>>>>End Processed Spectral Data<<<<<
