SpectraSuite Data File
++++++++++++++++++++++++++++++++++++
Date: Fri Feb 01 17:05:07 EST 2013
User: group
Dark Spectrum Present: No
Reference Spectrum Present: No
Number of Sampled Component Spectra: 1
Spectrometers: USB2E7196
Integration Time (usec): 35000 (USB2E7196)
Spectra Averaged: 100 (USB2E7196)
Boxcar Smoothing: 10 (USB2E7196)
Correct for Electrical Dark: No (USB2E7196)
Strobe/Lamp Enabled: No (USB2E7196)
Correct for Detector Non-linearity: No (USB2E7196)
Correct for Stray Light: No (USB2E7196)
Number of Pixels in Processed Spectrum: 2048
>>>>>Begin Processed Spectral Data<<<<<
339.09	0.00
339.48	213.06
339.86	214.58
340.24	216.03
340.63	217.77
341.01	220.48
341.39	220.45
341.78	222.15
342.16	222.68
342.54	223.26
342.93	211.91
343.31	222.61
343.69	223.19
344.07	223.66
344.46	224.10
344.84	224.48
345.22	224.74
345.60	224.96
345.99	225.15
346.37	225.27
346.75	225.38
347.13	225.42
347.52	225.45
347.90	225.54
348.28	225.55
348.66	225.58
349.05	225.56
349.43	225.61
349.81	225.63
350.19	225.69
350.57	225.76
350.96	225.80
351.34	225.89
351.72	225.92
352.10	226.01
352.48	226.07
352.87	226.10
353.25	226.16
353.63	226.23
354.01	226.26
354.39	226.34
354.77	226.40
355.15	226.51
355.54	226.54
355.92	226.55
356.30	226.62
356.68	226.72
357.06	226.84
357.44	226.91
357.82	226.96
358.20	227.02
358.58	227.06
358.97	227.14
359.35	227.21
359.73	227.28
360.11	227.37
360.49	227.42
360.87	227.50
361.25	227.54
361.63	227.60
362.01	227.66
362.39	227.66
362.77	227.69
363.15	227.72
363.53	227.76
363.91	227.75
364.29	227.76
364.67	227.67
365.05	227.63
365.43	227.58
365.81	227.60
366.19	227.62
366.57	227.64
366.95	227.62
367.33	227.59
367.71	227.61
368.09	227.59
368.47	227.57
368.85	227.55
369.23	227.53
369.61	227.48
369.99	227.48
370.37	227.48
370.75	227.52
371.13	227.47
371.51	227.44
371.89	227.45
372.27	227.44
372.65	227.41
373.03	227.40
373.41	227.41
373.78	227.37
374.16	227.28
374.54	227.22
374.92	227.16
375.30	227.09
375.68	226.99
376.06	226.90
376.44	226.83
376.82	226.74
377.19	226.65
377.57	226.58
377.95	226.48
378.33	226.45
378.71	226.29
379.09	226.20
379.47	226.14
379.84	226.06
380.22	225.98
380.60	225.89
380.98	225.82
381.36	225.72
381.73	225.64
382.11	225.58
382.49	225.55
382.87	225.49
383.25	225.45
383.62	225.52
384.00	225.49
384.38	225.44
384.76	225.43
385.13	225.42
385.51	225.38
385.89	225.33
386.27	225.27
386.64	225.29
387.02	225.24
387.40	225.19
387.78	225.14
388.15	225.11
388.53	225.07
388.91	225.06
389.29	225.03
389.66	225.04
390.04	225.03
390.42	224.98
390.79	224.97
391.17	224.97
391.55	224.84
391.92	224.80
392.30	224.81
392.68	224.77
393.05	224.78
393.43	224.77
393.81	224.77
394.18	224.74
394.56	224.74
394.94	224.79
395.31	224.81
395.69	224.89
396.06	224.95
396.44	224.99
396.82	224.97
397.19	225.06
397.57	225.04
397.95	225.09
398.32	225.10
398.70	225.18
399.07	225.25
399.45	225.30
399.82	225.38
400.20	225.42
400.58	225.49
400.95	225.50
401.33	225.61
401.70	225.75
402.08	225.83
402.45	225.91
402.83	225.99
403.20	226.08
403.58	226.13
403.95	226.22
404.33	226.35
404.71	226.49
405.08	226.67
405.46	226.82
405.83	226.96
406.21	227.12
406.58	227.20
406.96	227.32
407.33	227.49
407.70	227.61
408.08	227.87
408.45	228.08
408.83	228.30
409.20	228.49
409.58	228.67
409.95	228.96
410.33	229.21
410.70	229.47
411.08	229.75
411.45	230.04
411.82	230.35
412.20	230.68
412.57	231.08
412.95	231.36
413.32	231.76
413.69	232.14
414.07	232.57
414.44	233.05
414.82	233.55
415.19	234.11
415.56	234.70
415.94	235.19
416.31	235.82
416.68	236.44
417.06	237.15
417.43	237.86
417.81	238.59
418.18	239.36
418.55	240.19
418.93	241.08
419.30	242.00
419.67	242.94
420.04	243.87
420.42	244.82
420.79	245.99
421.16	247.15
421.54	248.33
421.91	249.52
422.28	250.80
422.66	252.12
423.03	253.38
423.40	254.76
423.77	256.21
424.15	257.65
424.52	259.19
424.89	260.84
425.26	262.36
425.64	263.82
426.01	265.43
426.38	267.07
426.75	268.75
427.13	270.44
427.50	272.21
427.87	274.10
428.24	275.97
428.61	277.71
428.99	279.64
429.36	281.75
429.73	283.78
430.10	285.79
430.47	287.84
430.85	289.94
431.22	292.10
431.59	294.47
431.96	296.64
432.33	299.11
432.70	301.44
433.08	304.25
433.45	306.86
433.82	309.43
434.19	312.29
434.56	315.01
434.93	317.63
435.30	320.24
435.68	323.11
436.05	325.96
436.42	328.74
436.79	331.23
437.16	333.90
437.53	336.74
437.90	339.55
438.27	342.26
438.64	345.09
439.01	347.66
439.38	349.84
439.75	352.03
440.13	354.43
440.50	356.75
440.87	358.56
441.24	360.54
441.61	362.74
441.98	364.26
442.35	366.12
442.72	368.03
443.09	369.82
443.46	370.80
443.83	371.38
444.20	371.90
444.57	372.73
444.94	373.03
445.31	373.35
445.68	373.68
446.05	373.81
446.42	373.43
446.79	373.04
447.16	372.62
447.53	372.28
447.90	371.19
448.27	370.02
448.64	368.42
449.01	367.26
449.37	365.26
449.74	363.34
450.11	361.14
450.48	358.68
450.85	356.20
451.22	354.13
451.59	352.14
451.96	350.17
452.33	347.59
452.70	345.25
453.07	342.48
453.43	339.63
453.80	336.87
454.17	334.22
454.54	331.71
454.91	329.02
455.28	326.39
455.65	323.93
456.02	321.53
456.38	319.42
456.75	316.80
457.12	314.58
457.49	312.38
457.86	310.16
458.23	308.27
458.59	306.27
458.96	304.19
459.33	302.32
459.70	300.48
460.07	299.02
460.43	297.32
460.80	295.72
461.17	294.26
461.54	292.69
461.91	291.25
462.27	289.80
462.64	288.58
463.01	287.27
463.38	285.99
463.74	284.62
464.11	283.45
464.48	282.42
464.85	281.31
465.21	280.49
465.58	279.59
465.95	278.54
466.32	277.62
466.68	276.70
467.05	275.79
467.42	274.93
467.78	274.01
468.15	273.15
468.52	272.50
468.88	271.69
469.25	270.99
469.62	270.43
469.98	269.79
470.35	269.17
470.72	268.60
471.08	267.95
471.45	267.43
471.82	266.91
472.18	266.32
472.55	265.91
472.92	265.33
473.28	264.89
473.65	264.43
474.02	264.01
474.38	263.66
474.75	263.36
475.11	263.05
475.48	262.77
475.85	262.56
476.21	262.31
476.58	262.13
476.94	262.03
477.31	261.87
477.67	261.74
478.04	261.63
478.41	261.57
478.77	261.64
479.14	261.62
479.50	261.65
479.87	261.71
480.23	261.83
480.60	261.94
480.96	262.05
481.33	262.27
481.69	262.44
482.06	262.65
482.42	262.88
482.79	263.10
483.15	263.44
483.52	263.81
483.88	264.15
484.25	264.48
484.61	264.89
484.98	265.35
485.34	265.88
485.71	266.50
486.07	267.10
486.44	267.70
486.80	268.37
487.17	269.09
487.53	269.91
487.90	270.73
488.26	271.65
488.62	272.61
488.99	273.61
489.35	274.68
489.72	275.81
490.08	276.98
490.44	278.21
490.81	279.53
491.17	280.89
491.54	282.37
491.90	283.95
492.26	285.56
492.63	287.29
492.99	289.07
493.36	290.92
493.72	292.90
494.08	294.94
494.45	297.16
494.81	299.54
495.17	301.94
495.54	304.52
495.90	307.22
496.26	310.02
496.63	312.95
496.99	316.06
497.35	319.27
497.72	322.69
498.08	326.20
498.44	329.88
498.80	333.81
499.17	337.86
499.53	342.02
499.89	346.37
500.26	350.84
500.62	355.46
500.98	360.41
501.34	365.50
501.71	370.82
502.07	376.25
502.43	381.76
502.79	387.55
503.16	393.53
503.52	399.79
503.88	406.12
504.24	412.70
504.60	419.48
504.97	426.59
505.33	433.82
505.69	441.44
506.05	449.14
506.41	456.90
506.78	464.98
507.14	473.31
507.50	481.94
507.86	490.86
508.22	500.01
508.59	509.14
508.95	518.56
509.31	528.22
509.67	538.18
510.03	548.43
510.39	558.89
510.75	569.63
511.12	580.35
511.48	591.48
511.84	602.83
512.20	614.18
512.56	625.88
512.92	637.88
513.28	650.04
513.64	662.28
514.00	674.80
514.37	687.51
514.73	700.43
515.09	713.28
515.45	726.34
515.81	739.67
516.17	753.39
516.53	767.35
516.89	781.31
517.25	795.22
517.61	809.35
517.97	823.48
518.33	837.62
518.69	852.13
519.05	866.80
519.41	881.69
519.77	896.95
520.13	912.14
520.49	927.29
520.85	942.33
521.21	957.81
521.57	973.73
521.93	989.17
522.29	1005.13
522.65	1020.97
523.01	1036.72
523.37	1052.52
523.73	1068.17
524.09	1083.91
524.45	1099.82
524.81	1116.08
525.17	1132.47
525.53	1148.94
525.89	1165.33
526.25	1181.81
526.61	1197.86
526.97	1214.23
527.33	1230.36
527.68	1246.54
528.04	1262.61
528.40	1278.79
528.76	1295.39
529.12	1311.56
529.48	1328.09
529.84	1343.67
530.20	1359.97
530.56	1376.72
530.91	1393.62
531.27	1410.19
531.63	1426.24
531.99	1442.46
532.35	1458.04
532.71	1473.57
533.07	1489.50
533.42	1505.05
533.78	1520.77
534.14	1536.64
534.50	1551.57
534.86	1567.05
535.21	1581.88
535.57	1597.28
535.93	1612.50
536.29	1626.86
536.65	1641.59
537.00	1655.95
537.36	1671.05
537.72	1685.21
538.08	1699.37
538.44	1712.81
538.79	1726.25
539.15	1739.44
539.51	1752.74
539.87	1766.83
540.22	1780.29
540.58	1793.66
540.94	1806.59
541.29	1819.01
541.65	1831.46
542.01	1844.35
542.37	1856.37
542.72	1868.49
543.08	1880.12
543.44	1892.12
543.79	1903.31
544.15	1914.08
544.51	1925.28
544.87	1935.95
545.22	1946.55
545.58	1956.46
545.94	1966.01
546.29	1975.79
546.65	1985.64
547.01	1994.84
547.36	2003.39
547.72	2011.68
548.07	2019.50
548.43	2027.57
548.79	2035.47
549.14	2042.94
549.50	2050.01
549.86	2057.55
550.21	2064.70
550.57	2071.70
550.92	2078.32
551.28	2085.12
551.64	2092.10
551.99	2098.67
552.35	2104.89
552.70	2111.10
553.06	2117.11
553.41	2123.55
553.77	2129.46
554.13	2135.39
554.48	2141.47
554.84	2147.06
555.19	2152.23
555.55	2157.35
555.90	2161.89
556.26	2166.82
556.61	2171.46
556.97	2176.01
557.32	2180.25
557.68	2184.59
558.03	2189.09
558.39	2192.73
558.74	2197.30
559.10	2201.15
559.45	2204.89
559.81	2209.10
560.16	2212.85
560.52	2216.12
560.87	2219.52
561.23	2222.26
561.58	2225.31
561.94	2227.94
562.29	2230.33
562.64	2233.34
563.00	2235.99
563.35	2239.49
563.71	2242.72
564.06	2246.00
564.42	2249.06
564.77	2251.74
565.12	2254.12
565.48	2256.08
565.83	2258.24
566.19	2259.88
566.54	2260.84
566.89	2262.14
567.25	2262.76
567.60	2264.10
567.96	2265.93
568.31	2266.87
568.66	2268.38
569.02	2269.00
569.37	2269.50
569.72	2270.50
570.08	2270.74
570.43	2270.92
570.78	2270.74
571.14	2269.43
571.49	2268.34
571.84	2268.11
572.20	2267.02
572.55	2266.02
572.90	2264.48
573.26	2263.31
573.61	2261.66
573.96	2260.27
574.31	2257.54
574.67	2254.90
575.02	2251.48
575.37	2248.22
575.72	2244.73
576.08	2241.26
576.43	2238.25
576.78	2234.86
577.13	2231.77
577.49	2228.76
577.84	2225.76
578.19	2222.13
578.54	2218.80
578.90	2214.81
579.25	2209.39
579.60	2204.81
579.95	2200.16
580.30	2195.52
580.66	2190.50
581.01	2185.77
581.36	2181.05
581.71	2177.00
582.06	2172.92
582.42	2168.85
582.77	2164.02
583.12	2159.75
583.47	2155.48
583.82	2150.68
584.17	2145.62
584.53	2140.37
584.88	2135.00
585.23	2129.42
585.58	2124.14
585.93	2118.83
586.28	2114.20
586.63	2109.39
586.98	2104.43
587.34	2099.89
587.69	2095.09
588.04	2090.00
588.39	2084.65
588.74	2078.40
589.09	2072.46
589.44	2065.76
589.79	2059.92
590.14	2054.37
590.49	2047.72
590.84	2041.40
591.19	2035.62
591.54	2029.41
591.89	2022.36
592.25	2015.83
592.60	2008.83
592.95	2001.48
593.30	1994.28
593.65	1987.03
594.00	1980.05
594.35	1973.09
594.70	1965.28
595.05	1958.37
595.40	1951.36
595.75	1944.09
596.10	1938.20
596.45	1931.73
596.80	1925.89
597.15	1919.41
597.50	1912.67
597.85	1906.56
598.19	1900.21
598.54	1893.42
598.89	1886.90
599.24	1881.12
599.59	1874.75
599.94	1868.56
600.29	1862.37
600.64	1856.04
600.99	1848.63
601.34	1842.10
601.69	1835.32
602.04	1828.71
602.39	1821.56
602.74	1814.83
603.08	1808.24
603.43	1801.53
603.78	1794.31
604.13	1787.14
604.48	1780.11
604.83	1773.21
605.18	1766.43
605.53	1758.60
605.87	1750.67
606.22	1743.56
606.57	1735.64
606.92	1728.18
607.27	1721.30
607.62	1714.59
607.96	1707.50
608.31	1701.13
608.66	1693.67
609.01	1686.20
609.36	1678.73
609.70	1670.83
610.05	1663.03
610.40	1655.44
610.75	1647.24
611.10	1639.69
611.44	1631.32
611.79	1623.26
612.14	1614.76
612.49	1605.71
612.83	1597.22
613.18	1589.17
613.53	1581.05
613.88	1572.79
614.22	1564.65
614.57	1556.06
614.92	1548.04
615.27	1540.51
615.61	1532.23
615.96	1524.25
616.31	1516.57
616.65	1509.22
617.00	1501.85
617.35	1494.10
617.70	1485.81
618.04	1477.38
618.39	1469.28
618.74	1461.76
619.08	1453.59
619.43	1446.05
619.78	1438.99
620.12	1432.06
620.47	1424.48
620.82	1416.43
621.16	1408.96
621.51	1401.33
621.85	1393.64
622.20	1385.28
622.55	1376.80
622.89	1368.99
623.24	1361.28
623.59	1353.85
623.93	1346.29
624.28	1338.94
624.62	1331.52
624.97	1324.40
625.32	1317.60
625.66	1310.52
626.01	1303.38
626.35	1296.08
626.70	1288.30
627.04	1280.81
627.39	1273.03
627.73	1265.70
628.08	1258.88
628.43	1251.71
628.77	1244.59
629.12	1237.15
629.46	1229.93
629.81	1222.61
630.15	1215.31
630.50	1208.02
630.84	1199.98
631.19	1192.04
631.53	1184.56
631.88	1177.14
632.22	1169.51
632.57	1162.20
632.91	1154.67
633.26	1147.33
633.60	1139.91
633.95	1132.82
634.29	1125.67
634.64	1119.03
634.98	1111.74
635.32	1104.53
635.67	1097.83
636.01	1091.08
636.36	1084.31
636.70	1077.79
637.05	1071.32
637.39	1065.01
637.73	1058.55
638.08	1052.68
638.42	1046.76
638.77	1040.45
639.11	1033.84
639.45	1027.44
639.80	1020.86
640.14	1014.64
640.49	1008.12
640.83	1001.81
641.17	995.62
641.52	989.34
641.86	982.76
642.20	976.89
642.55	970.59
642.89	964.26
643.23	957.70
643.58	951.97
643.92	945.85
644.26	939.94
644.61	933.86
644.95	927.96
645.29	921.48
645.64	914.74
645.98	908.36
646.32	902.44
646.66	896.49
647.01	890.70
647.35	884.93
647.69	879.00
648.04	873.42
648.38	867.73
648.72	861.88
649.06	855.97
649.41	850.17
649.75	844.28
650.09	838.34
650.43	832.66
650.78	826.49
651.12	820.58
651.46	814.82
651.80	809.16
652.14	803.77
652.49	798.43
652.83	793.35
653.17	787.75
653.51	782.13
653.85	776.73
654.20	771.19
654.54	765.17
654.88	759.56
655.22	753.77
655.56	748.09
655.90	742.69
656.25	737.47
656.59	732.05
656.93	727.02
657.27	721.92
657.61	716.45
657.95	711.36
658.29	706.30
658.64	701.00
658.98	695.73
659.32	690.24
659.66	685.02
660.00	679.78
660.34	674.85
660.68	669.97
661.02	664.97
661.36	660.29
661.70	655.96
662.05	651.65
662.39	647.40
662.73	642.98
663.07	638.58
663.41	634.12
663.75	629.71
664.09	625.08
664.43	620.63
664.77	616.64
665.11	612.46
665.45	608.27
665.79	604.22
666.13	600.12
666.47	595.98
666.81	591.91
667.15	587.78
667.49	583.86
667.83	579.99
668.17	576.12
668.51	572.08
668.85	567.98
669.19	564.09
669.53	560.27
669.87	556.46
670.21	552.74
670.55	549.19
670.89	545.81
671.23	542.51
671.57	539.08
671.91	535.54
672.25	532.07
672.58	528.61
672.92	525.21
673.26	521.97
673.60	518.89
673.94	515.78
674.28	512.83
674.62	509.94
674.96	506.90
675.30	504.05
675.64	501.13
675.97	498.39
676.31	495.55
676.65	492.66
676.99	489.93
677.33	487.03
677.67	484.19
678.01	481.15
678.34	478.16
678.68	475.31
679.02	472.46
679.36	469.70
679.70	467.01
680.04	464.29
680.37	461.49
680.71	458.70
681.05	456.03
681.39	453.34
681.73	450.61
682.06	448.08
682.40	445.50
682.74	443.02
683.08	440.49
683.42	437.85
683.75	435.28
684.09	432.68
684.43	430.26
684.77	427.84
685.10	425.47
685.44	423.14
685.78	420.85
686.12	418.60
686.45	416.31
686.79	414.00
687.13	411.83
687.46	409.64
687.80	407.52
688.14	405.32
688.48	403.29
688.81	401.13
689.15	398.99
689.49	396.82
689.82	394.75
690.16	392.67
690.50	390.74
690.83	388.86
691.17	386.89
691.51	384.98
691.84	383.10
692.18	381.24
692.52	379.28
692.85	377.32
693.19	375.47
693.52	373.61
693.86	371.80
694.20	370.01
694.53	368.26
694.87	366.41
695.21	364.63
695.54	362.81
695.88	361.09
696.21	359.38
696.55	357.70
696.88	355.97
697.22	354.29
697.56	352.69
697.89	351.00
698.23	349.46
698.56	347.91
698.90	346.34
699.23	344.71
699.57	343.18
699.90	341.64
700.24	340.12
700.58	338.61
700.91	337.16
701.25	335.70
701.58	334.34
701.92	332.95
702.25	331.57
702.59	330.23
702.92	328.93
703.26	327.66
703.59	326.39
703.93	325.19
704.26	323.97
704.60	322.67
704.93	321.39
705.26	320.08
705.60	318.87
705.93	317.72
706.27	316.71
706.60	315.67
706.94	314.59
707.27	313.48
707.61	312.40
707.94	311.34
708.27	310.28
708.61	309.19
708.94	308.22
709.28	307.24
709.61	306.27
709.94	305.29
710.28	304.28
710.61	303.31
710.95	302.27
711.28	301.39
711.61	300.44
711.95	299.58
712.28	298.66
712.61	297.69
712.95	296.74
713.28	295.85
713.61	294.95
713.95	294.06
714.28	293.23
714.61	292.36
714.95	291.54
715.28	290.69
715.61	289.79
715.95	288.93
716.28	288.07
716.61	287.22
716.95	286.38
717.28	285.60
717.61	284.83
717.94	284.10
718.28	283.29
718.61	282.56
718.94	281.87
719.27	281.20
719.61	280.54
719.94	279.91
720.27	279.16
720.60	278.51
720.94	277.84
721.27	277.24
721.60	276.66
721.93	276.07
722.27	275.53
722.60	274.96
722.93	274.36
723.26	273.84
723.59	273.27
723.93	272.66
724.26	272.12
724.59	271.55
724.92	270.98
725.25	270.49
725.59	270.00
725.92	269.47
726.25	268.99
726.58	268.47
726.91	267.96
727.24	267.52
727.57	267.00
727.91	266.51
728.24	266.04
728.57	265.57
728.90	265.05
729.23	264.50
729.56	264.09
729.89	263.69
730.22	263.18
730.55	262.72
730.89	262.32
731.22	261.85
731.55	261.41
731.88	261.01
732.21	260.54
732.54	260.08
732.87	259.66
733.20	259.24
733.53	258.84
733.86	258.42
734.19	258.01
734.52	257.68
734.85	257.40
735.18	256.98
735.51	256.62
735.84	256.25
736.17	255.95
736.50	255.59
736.83	255.33
737.16	255.04
737.49	254.73
737.82	254.40
738.15	254.09
738.48	253.77
738.81	253.41
739.14	253.08
739.47	252.77
739.80	252.47
740.13	252.17
740.46	251.89
740.79	251.62
741.12	251.32
741.45	250.99
741.78	250.62
742.11	250.34
742.44	249.99
742.77	249.74
743.10	249.44
743.43	249.12
743.75	248.76
744.08	248.63
744.41	248.36
744.74	248.10
745.07	247.83
745.40	247.59
745.73	247.37
746.06	247.14
746.39	246.89
746.71	246.66
747.04	246.37
747.37	246.12
747.70	245.83
748.03	245.56
748.36	245.36
748.68	245.14
749.01	244.87
749.34	244.66
749.67	244.41
750.00	244.18
750.33	244.03
750.65	243.78
750.98	243.40
751.31	243.21
751.64	242.98
751.97	242.81
752.29	242.60
752.62	242.39
752.95	242.20
753.28	242.01
753.60	241.78
753.93	241.60
754.26	241.42
754.59	241.21
754.91	241.00
755.24	240.79
755.57	240.61
755.90	240.45
756.22	240.26
756.55	240.08
756.88	239.89
757.20	239.66
757.53	239.47
757.86	239.32
758.19	239.14
758.51	238.97
758.84	238.76
759.17	238.59
759.49	238.41
759.82	238.24
760.15	238.06
760.47	237.91
760.80	237.76
761.13	237.58
761.45	237.46
761.78	237.32
762.11	237.17
762.43	237.02
762.76	236.86
763.08	236.73
763.41	236.58
763.74	236.43
764.06	236.29
764.39	236.14
764.71	235.96
765.04	235.77
765.37	235.64
765.69	235.48
766.02	235.30
766.34	235.19
766.67	235.01
767.00	234.91
767.32	234.87
767.65	234.81
767.97	234.73
768.30	234.64
768.62	234.52
768.95	234.37
769.27	234.25
769.60	234.14
769.92	234.01
770.25	233.89
770.57	233.78
770.90	233.66
771.22	233.54
771.55	233.43
771.87	233.37
772.20	233.25
772.52	233.25
772.85	233.30
773.17	233.18
773.50	233.08
773.82	232.97
774.15	232.79
774.47	232.64
774.80	232.52
775.12	232.39
775.45	232.34
775.77	232.28
776.09	232.22
776.42	232.13
776.74	232.07
777.07	231.99
777.39	231.90
777.72	231.80
778.04	231.76
778.36	231.73
778.69	231.64
779.01	231.60
779.33	231.44
779.66	231.27
779.98	231.21
780.31	231.16
780.63	231.13
780.95	231.07
781.28	231.02
781.60	230.95
781.92	230.88
782.25	230.80
782.57	230.74
782.89	230.69
783.22	230.63
783.54	230.57
783.86	230.54
784.19	230.50
784.51	230.48
784.83	230.43
785.16	230.35
785.48	230.29
785.80	230.25
786.12	230.21
786.45	230.17
786.77	230.11
787.09	230.10
787.42	230.01
787.74	229.98
788.06	229.91
788.38	229.88
788.71	229.83
789.03	229.79
789.35	229.75
789.67	229.67
789.99	229.65
790.32	229.60
790.64	229.59
790.96	229.62
791.28	229.57
791.61	229.49
791.93	229.48
792.25	229.45
792.57	229.46
792.89	229.43
793.21	229.42
793.54	229.40
793.86	229.34
794.18	229.33
794.50	229.28
794.82	229.25
795.14	229.23
795.47	229.23
795.79	229.19
796.11	229.14
796.43	229.06
796.75	229.02
797.07	229.00
797.39	228.96
797.71	228.87
798.04	228.88
798.36	228.90
798.68	228.89
799.00	228.88
799.32	228.82
799.64	228.81
799.96	228.74
800.28	228.70
800.60	228.65
800.92	228.63
801.24	228.59
801.56	228.57
801.89	228.53
802.21	228.50
802.53	228.42
802.85	228.42
803.17	228.49
803.49	228.46
803.81	228.42
804.13	228.36
804.45	228.34
804.77	228.26
805.09	228.24
805.41	228.14
805.73	228.06
806.05	228.00
806.37	227.98
806.69	227.96
807.01	227.94
807.33	227.95
807.65	227.87
807.97	227.92
808.28	227.87
808.60	227.83
808.92	227.78
809.24	227.84
809.56	227.77
809.88	227.70
810.20	227.69
810.52	227.67
810.84	227.61
811.16	227.58
811.48	227.54
811.80	227.54
812.12	227.50
812.43	227.50
812.75	227.46
813.07	227.43
813.39	227.41
813.71	227.38
814.03	227.31
814.35	227.30
814.67	227.21
814.98	227.22
815.30	227.19
815.62	227.13
815.94	227.08
816.26	227.13
816.58	227.09
816.89	227.03
817.21	226.99
817.53	227.00
817.85	226.98
818.17	226.99
818.48	226.95
818.80	226.99
819.12	226.91
819.44	226.88
819.76	226.83
820.07	226.78
820.39	226.75
820.71	226.74
821.03	226.72
821.34	226.72
821.66	226.69
821.98	226.68
822.30	226.69
822.61	226.71
822.93	226.65
823.25	226.64
823.57	226.63
823.88	226.63
824.20	226.59
824.52	226.57
824.83	226.54
825.15	226.49
825.47	226.44
825.79	226.45
826.10	226.43
826.42	226.43
826.74	226.46
827.05	226.41
827.37	226.40
827.69	226.39
828.00	226.36
828.32	226.32
828.64	226.32
828.95	226.36
829.27	226.31
829.58	226.27
829.90	226.27
830.22	226.26
830.53	226.25
830.85	226.26
831.17	226.21
831.48	226.24
831.80	226.25
832.11	226.25
832.43	226.30
832.75	226.30
833.06	226.32
833.38	226.29
833.69	226.31
834.01	226.30
834.32	226.29
834.64	226.29
834.96	226.28
835.27	226.27
835.59	226.23
835.90	226.18
836.22	226.16
836.53	226.14
836.85	226.16
837.16	226.24
837.48	226.20
837.79	226.26
838.11	226.23
838.42	226.25
838.74	226.26
839.05	226.19
839.37	226.20
839.68	226.14
840.00	226.13
840.31	226.13
840.63	226.10
840.94	226.12
841.26	226.09
841.57	226.07
841.88	226.08
842.20	226.05
842.51	226.06
842.83	226.08
843.14	226.14
843.46	226.13
843.77	226.07
844.08	226.09
844.40	226.02
844.71	226.00
845.03	225.98
845.34	225.97
845.65	225.95
845.97	225.92
846.28	225.91
846.60	225.93
846.91	225.89
847.22	225.90
847.54	225.91
847.85	225.93
848.16	225.94
848.48	225.92
848.79	225.97
849.10	225.98
849.42	225.98
849.73	225.89
850.04	225.84
850.36	225.78
850.67	225.74
850.98	225.75
851.30	225.77
851.61	225.73
851.92	225.71
852.23	225.74
852.55	225.77
852.86	225.75
853.17	225.75
853.49	225.77
853.80	225.77
854.11	225.77
854.42	225.77
854.74	225.75
855.05	225.75
855.36	225.68
855.67	225.68
855.99	225.68
856.30	225.82
856.61	225.81
856.92	225.85
857.23	225.85
857.55	225.87
857.86	225.85
858.17	225.88
858.48	225.87
858.79	225.87
859.11	225.85
859.42	225.90
859.73	225.86
860.04	225.88
860.35	225.84
860.66	225.80
860.98	225.79
861.29	225.78
861.60	225.77
861.91	225.78
862.22	225.77
862.53	225.75
862.84	225.62
863.16	225.66
863.47	225.64
863.78	225.64
864.09	225.63
864.40	225.65
864.71	225.65
865.02	225.67
865.33	225.66
865.64	225.64
865.95	225.59
866.27	225.68
866.58	225.65
866.89	225.69
867.20	225.70
867.51	225.68
867.82	225.70
868.13	225.73
868.44	225.72
868.75	225.76
869.06	225.79
869.37	225.82
869.68	225.80
869.99	225.81
870.30	225.82
870.61	225.83
870.92	225.81
871.23	225.82
871.54	225.83
871.85	225.83
872.16	225.85
872.47	225.88
872.78	225.79
873.09	225.78
873.40	225.76
873.71	225.72
874.02	225.75
874.33	225.73
874.64	225.69
874.95	225.74
875.26	225.70
875.56	225.67
875.87	225.64
876.18	225.64
876.49	225.72
876.80	225.72
877.11	225.69
877.42	225.69
877.73	225.70
878.04	225.68
878.35	225.71
878.66	225.71
878.96	225.69
879.27	225.71
879.58	225.71
879.89	225.72
880.20	225.77
880.51	225.75
880.82	225.75
881.12	225.77
881.43	225.71
881.74	225.64
882.05	225.65
882.36	225.67
882.67	225.66
882.97	225.58
883.28	225.56
883.59	225.57
883.90	225.58
884.21	225.57
884.51	225.57
884.82	225.53
885.13	225.50
885.44	225.50
885.74	225.49
886.05	225.49
886.36	225.47
886.67	225.44
886.98	225.49
887.28	225.49
887.59	225.47
887.90	225.48
888.20	225.48
888.51	225.46
888.82	225.44
889.13	225.42
889.43	225.48
889.74	225.43
890.05	225.41
890.35	225.39
890.66	225.36
890.97	225.33
891.28	225.32
891.58	225.32
891.89	225.32
892.20	225.31
892.50	225.31
892.81	225.29
893.12	225.28
893.42	225.23
893.73	225.22
894.04	225.20
894.34	225.20
894.65	225.20
894.95	225.21
895.26	225.20
895.57	225.24
895.87	225.16
896.18	225.20
896.48	225.23
896.79	225.20
897.10	225.18
897.40	225.21
897.71	225.22
898.01	225.24
898.32	225.25
898.63	225.25
898.93	225.26
899.24	225.28
899.54	225.29
899.85	225.30
900.15	225.31
900.46	225.31
900.76	225.34
901.07	225.36
901.38	225.37
901.68	225.37
901.99	225.35
902.29	225.37
902.60	225.39
902.90	225.34
903.21	225.34
903.51	225.36
903.82	225.34
904.12	225.36
904.43	225.33
904.73	225.32
905.03	225.35
905.34	225.43
905.64	225.43
905.95	225.40
906.25	225.39
906.56	225.38
906.86	225.42
907.17	225.42
907.47	225.44
907.77	225.43
908.08	225.45
908.38	225.47
908.69	225.49
908.99	225.49
909.30	225.53
909.60	225.55
909.90	225.58
910.21	225.59
910.51	225.55
910.81	225.58
911.12	225.56
911.42	225.54
911.73	225.47
912.03	225.47
912.33	225.54
912.64	225.53
912.94	225.53
913.24	225.48
913.55	225.47
913.85	225.48
914.15	225.51
914.46	225.53
914.76	225.52
915.06	225.48
915.37	225.49
915.67	225.49
915.97	225.51
916.27	225.47
916.58	225.45
916.88	225.45
917.18	225.47
917.49	225.54
917.79	225.53
918.09	225.49
918.39	225.51
918.70	225.46
919.00	225.48
919.30	225.52
919.60	225.54
919.91	225.51
920.21	225.48
920.51	225.45
920.81	225.43
921.12	225.44
921.42	225.45
921.72	225.45
922.02	225.43
922.32	225.44
922.63	225.46
922.93	225.53
923.23	225.55
923.53	225.52
923.83	225.44
924.13	225.44
924.44	225.46
924.74	225.46
925.04	225.49
925.34	225.49
925.64	225.43
925.94	225.43
926.24	225.48
926.55	225.48
926.85	225.48
927.15	225.46
927.45	225.48
927.75	225.47
928.05	225.47
928.35	225.48
928.65	225.46
928.95	225.45
929.26	225.38
929.56	225.38
929.86	225.35
930.16	225.37
930.46	225.37
930.76	225.38
931.06	225.34
931.36	225.32
931.66	225.31
931.96	225.33
932.26	225.34
932.56	225.29
932.86	225.29
933.16	225.28
933.46	225.27
933.76	225.23
934.06	225.20
934.36	225.22
934.66	225.19
934.96	225.17
935.26	225.18
935.56	225.22
935.86	225.19
936.16	225.19
936.46	225.21
936.76	225.18
937.06	225.18
937.36	225.17
937.66	225.16
937.96	225.15
938.26	225.13
938.56	225.14
938.86	225.15
939.16	225.18
939.46	225.18
939.76	225.16
940.06	225.15
940.35	225.16
940.65	225.10
940.95	225.12
941.25	225.14
941.55	225.11
941.85	225.08
942.15	225.10
942.45	225.12
942.75	225.09
943.04	225.10
943.34	225.10
943.64	225.13
943.94	225.14
944.24	225.14
944.54	225.16
944.84	225.13
945.13	225.13
945.43	225.11
945.73	225.12
946.03	225.12
946.33	225.16
946.62	225.14
946.92	225.16
947.22	225.17
947.52	225.17
947.82	225.18
948.11	225.21
948.41	225.19
948.71	225.18
949.01	225.19
949.31	225.16
949.60	225.17
949.90	225.16
950.20	225.15
950.50	225.14
950.79	225.14
951.09	225.19
951.39	225.19
951.69	225.18
951.98	225.21
952.28	225.27
952.58	225.25
952.87	225.26
953.17	225.30
953.47	225.28
953.76	225.27
954.06	225.29
954.36	225.25
954.66	225.26
954.95	225.28
955.25	225.26
955.55	225.31
955.84	225.31
956.14	225.31
956.44	225.34
956.73	225.33
957.03	225.33
957.32	225.30
957.62	225.29
957.92	225.31
958.21	225.29
958.51	225.32
958.81	225.35
959.10	225.36
959.40	225.38
959.69	225.39
959.99	225.39
960.29	225.39
960.58	225.41
960.88	225.42
961.17	225.39
961.47	225.43
961.76	225.42
962.06	225.42
962.36	225.44
962.65	225.41
962.95	225.42
963.24	225.43
963.54	225.42
963.83	225.42
964.13	225.45
964.42	225.41
964.72	225.36
965.01	225.34
965.31	225.35
965.60	225.32
965.90	225.39
966.19	225.38
966.49	225.35
966.78	225.34
967.08	225.36
967.37	225.40
967.67	225.36
967.96	225.35
968.26	225.33
968.55	225.32
968.85	225.32
969.14	225.29
969.43	225.26
969.73	225.26
970.02	225.25
970.32	225.22
970.61	225.24
970.91	225.22
971.20	225.21
971.49	225.18
971.79	225.17
972.08	225.11
972.38	225.11
972.67	225.09
972.96	225.08
973.26	225.07
973.55	225.11
973.85	225.14
974.14	225.12
974.43	225.15
974.73	225.13
975.02	225.12
975.31	225.12
975.61	225.13
975.90	225.13
976.19	225.14
976.49	225.15
976.78	225.15
977.07	225.12
977.37	225.14
977.66	225.16
977.95	225.18
978.24	225.14
978.54	225.18
978.83	225.17
979.12	225.19
979.42	225.19
979.71	225.13
980.00	225.12
980.29	225.17
980.59	225.13
980.88	225.15
981.17	225.17
981.46	225.19
981.76	225.19
982.05	225.23
982.34	225.23
982.63	225.24
982.93	225.23
983.22	225.30
983.51	225.31
983.80	225.32
984.09	225.35
984.39	225.35
984.68	225.33
984.97	225.36
985.26	225.35
985.55	225.34
985.85	225.34
986.14	225.35
986.43	225.31
986.72	225.33
987.01	225.33
987.30	225.33
987.59	225.33
987.89	225.36
988.18	225.33
988.47	225.34
988.76	225.28
989.05	225.30
989.34	225.26
989.63	225.28
989.92	225.26
990.22	225.21
990.51	225.24
990.80	225.22
991.09	225.24
991.38	225.25
991.67	225.26
991.96	225.27
992.25	225.26
992.54	225.25
992.83	225.26
993.12	225.27
993.41	225.28
993.70	225.33
993.99	225.34
994.28	225.35
994.58	225.37
994.87	225.40
995.16	225.38
995.45	225.38
995.74	225.32
996.03	225.34
996.32	225.34
996.61	225.38
996.90	225.43
997.19	225.42
997.48	225.39
997.77	225.38
998.06	225.38
998.34	225.38
998.63	225.40
998.92	225.40
999.21	225.40
999.50	225.37
999.79	225.30
1000.08	225.29
1000.37	225.29
1000.66	225.28
1000.95	225.31
1001.24	225.31
1001.53	225.32
1001.82	225.35
1002.11	225.34
1002.40	225.38
1002.68	225.37
1002.97	225.40
1003.26	225.39
1003.55	225.39
1003.84	225.39
1004.13	225.42
1004.42	225.42
1004.71	225.41
1004.99	225.39
1005.28	225.43
1005.57	225.43
1005.86	225.42
1006.15	225.41
1006.44	225.37
1006.72	225.37
1007.01	225.35
1007.30	225.34
1007.59	225.32
1007.88	225.28
1008.17	225.24
1008.45	225.20
1008.74	225.14
1009.03	225.08
1009.32	225.11
1009.60	225.10
1009.89	225.08
1010.18	225.03
1010.47	225.02
1010.76	225.01
1011.04	224.99
1011.33	224.97
1011.62	224.95
1011.91	224.97
1012.19	224.96
1012.48	224.95
1012.77	224.92
1013.05	224.95
1013.34	224.95
1013.63	224.96
1013.92	224.97
1014.20	224.97
1014.49	224.95
1014.78	224.96
1015.06	224.91
1015.35	224.87
1015.64	224.88
1015.92	224.87
1016.21	224.90
1016.50	224.88
1016.78	224.91
1017.07	224.91
1017.36	224.91
1017.64	224.89
1017.93	224.88
1018.22	224.86
1018.50	224.86
1018.79	224.84
1019.08	224.79
1019.36	224.80
1019.65	224.75
1019.93	224.76
1020.22	224.78
1020.51	224.82
1020.79	224.81
1021.08	224.42
1021.36	224.76
1021.65	224.53
1021.94	224.69
1022.22	225.06
1022.51	224.25
1022.79	224.97
1023.08	225.07
1023.36	225.64
1023.65	224.61
>>>>>End Processed Spectral Data<<<<<
