SpectraSuite Data File
++++++++++++++++++++++++++++++++++++
Date: Fri Feb 01 16:01:06 EST 2013
User: group
Dark Spectrum Present: No
Reference Spectrum Present: No
Number of Sampled Component Spectra: 1
Spectrometers: USB2E7196
Integration Time (usec): 35000 (USB2E7196)
Spectra Averaged: 100 (USB2E7196)
Boxcar Smoothing: 10 (USB2E7196)
Correct for Electrical Dark: No (USB2E7196)
Strobe/Lamp Enabled: No (USB2E7196)
Correct for Detector Non-linearity: No (USB2E7196)
Correct for Stray Light: No (USB2E7196)
Number of Pixels in Processed Spectrum: 2048
>>>>>Begin Processed Spectral Data<<<<<
339.09	0.00
339.48	214.92
339.86	215.75
340.24	218.02
340.63	219.07
341.01	222.07
341.39	221.51
341.78	222.68
342.16	224.03
342.54	224.70
342.93	213.18
343.31	223.96
343.69	224.50
344.07	225.00
344.46	225.39
344.84	225.77
345.22	225.97
345.60	226.24
345.99	226.41
346.37	226.55
346.75	226.66
347.13	226.73
347.52	226.72
347.90	226.80
348.28	226.79
348.66	226.82
349.05	226.79
349.43	226.83
349.81	226.89
350.19	226.91
350.57	226.99
350.96	227.03
351.34	227.09
351.72	227.14
352.10	227.22
352.48	227.30
352.87	227.36
353.25	227.48
353.63	227.55
354.01	227.66
354.39	227.74
354.77	227.80
355.15	227.90
355.54	228.02
355.92	228.07
356.30	228.16
356.68	228.30
357.06	228.36
357.44	228.41
357.82	228.48
358.20	228.56
358.58	228.62
358.97	228.70
359.35	228.80
359.73	228.93
360.11	228.99
360.49	229.08
360.87	229.12
361.25	229.16
361.63	229.21
362.01	229.30
362.39	229.31
362.77	229.37
363.15	229.39
363.53	229.41
363.91	229.41
364.29	229.44
364.67	229.37
365.05	229.38
365.43	229.42
365.81	229.43
366.19	229.47
366.57	229.49
366.95	229.47
367.33	229.43
367.71	229.38
368.09	229.42
368.47	229.37
368.85	229.35
369.23	229.33
369.61	229.29
369.99	229.25
370.37	229.25
370.75	229.27
371.13	229.20
371.51	229.14
371.89	229.12
372.27	229.07
372.65	229.02
373.03	228.96
373.41	228.91
373.78	228.84
374.16	228.76
374.54	228.64
374.92	228.58
375.30	228.48
375.68	228.38
376.06	228.27
376.44	228.20
376.82	228.12
377.19	228.06
377.57	227.97
377.95	227.86
378.33	227.77
378.71	227.63
379.09	227.58
379.47	227.53
379.84	227.42
380.22	227.39
380.60	227.30
380.98	227.25
381.36	227.16
381.73	227.08
382.11	227.03
382.49	226.96
382.87	226.90
383.25	226.87
383.62	226.92
384.00	226.86
384.38	226.81
384.76	226.77
385.13	226.74
385.51	226.68
385.89	226.61
386.27	226.54
386.64	226.50
387.02	226.46
387.40	226.39
387.78	226.39
388.15	226.31
388.53	226.24
388.91	226.21
389.29	226.16
389.66	226.15
390.04	226.09
390.42	226.12
390.79	226.09
391.17	226.03
391.55	225.93
391.92	225.91
392.30	225.89
392.68	225.88
393.05	225.87
393.43	225.87
393.81	225.86
394.18	225.87
394.56	225.86
394.94	225.87
395.31	225.91
395.69	225.92
396.06	225.99
396.44	226.06
396.82	226.08
397.19	226.18
397.57	226.21
397.95	226.30
398.32	226.29
398.70	226.34
399.07	226.43
399.45	226.49
399.82	226.53
400.20	226.59
400.58	226.65
400.95	226.70
401.33	226.81
401.70	226.99
402.08	227.08
402.45	227.20
402.83	227.31
403.20	227.42
403.58	227.53
403.95	227.64
404.33	227.77
404.71	227.90
405.08	228.05
405.46	228.18
405.83	228.31
406.21	228.46
406.58	228.64
406.96	228.83
407.33	229.02
407.70	229.19
408.08	229.47
408.45	229.71
408.83	229.92
409.20	230.15
409.58	230.32
409.95	230.61
410.33	230.88
410.70	231.13
411.08	231.44
411.45	231.77
411.82	232.06
412.20	232.45
412.57	232.87
412.95	233.17
413.32	233.60
413.69	234.00
414.07	234.47
414.44	234.94
414.82	235.43
415.19	235.98
415.56	236.57
415.94	237.10
416.31	237.74
416.68	238.38
417.06	239.06
417.43	239.75
417.81	240.52
418.18	241.30
418.55	242.16
418.93	243.01
419.30	243.89
419.67	244.85
420.04	245.79
420.42	246.79
420.79	247.99
421.16	249.10
421.54	250.33
421.91	251.53
422.28	252.76
422.66	254.12
423.03	255.40
423.40	256.75
423.77	258.19
424.15	259.58
424.52	261.09
424.89	262.74
425.26	264.30
425.64	265.75
426.01	267.34
426.38	268.97
426.75	270.63
427.13	272.34
427.50	274.14
427.87	275.98
428.24	277.84
428.61	279.55
428.99	281.56
429.36	283.67
429.73	285.74
430.10	287.79
430.47	289.79
430.85	291.94
431.22	294.18
431.59	296.55
431.96	298.80
432.33	301.27
432.70	303.61
433.08	306.40
433.45	309.01
433.82	311.64
434.19	314.59
434.56	317.41
434.93	320.09
435.30	322.69
435.68	325.59
436.05	328.41
436.42	331.24
436.79	333.67
437.16	336.35
437.53	339.15
437.90	341.91
438.27	344.67
438.64	347.50
439.01	350.13
439.38	352.36
439.75	354.55
440.13	357.06
440.50	359.38
440.87	361.22
441.24	363.16
441.61	365.28
441.98	366.71
442.35	368.50
442.72	370.37
443.09	372.20
443.46	373.18
443.83	373.79
444.20	374.27
444.57	375.13
444.94	375.39
445.31	375.69
445.68	376.10
446.05	376.16
446.42	375.74
446.79	375.26
447.16	374.81
447.53	374.45
447.90	373.24
448.27	372.09
448.64	370.53
449.01	369.40
449.37	367.41
449.74	365.52
450.11	363.26
450.48	360.75
450.85	358.22
451.22	356.07
451.59	354.05
451.96	352.15
452.33	349.54
452.70	347.22
453.07	344.42
453.43	341.50
453.80	338.75
454.17	336.11
454.54	333.57
454.91	330.84
455.28	328.18
455.65	325.69
456.02	323.25
456.38	321.09
456.75	318.42
457.12	316.22
457.49	313.99
457.86	311.85
458.23	310.03
458.59	307.95
458.96	305.89
459.33	304.03
459.70	302.15
460.07	300.68
460.43	298.96
460.80	297.32
461.17	295.88
461.54	294.36
461.91	292.90
462.27	291.50
462.64	290.27
463.01	288.94
463.38	287.64
463.74	286.31
464.11	285.15
464.48	284.15
464.85	283.01
465.21	282.13
465.58	281.18
465.95	280.06
466.32	279.17
466.68	278.25
467.05	277.34
467.42	276.43
467.78	275.48
468.15	274.60
468.52	273.95
468.88	273.11
469.25	272.32
469.62	271.72
469.98	271.05
470.35	270.40
470.72	269.78
471.08	269.16
471.45	268.60
471.82	268.09
472.18	267.51
472.55	267.09
472.92	266.58
473.28	266.13
473.65	265.68
474.02	265.18
474.38	264.80
474.75	264.53
475.11	264.20
475.48	263.89
475.85	263.67
476.21	263.47
476.58	263.26
476.94	263.12
477.31	262.94
477.67	262.78
478.04	262.69
478.41	262.61
478.77	262.64
479.14	262.56
479.50	262.58
479.87	262.62
480.23	262.67
480.60	262.76
480.96	262.85
481.33	263.08
481.69	263.31
482.06	263.53
482.42	263.69
482.79	263.95
483.15	264.30
483.52	264.68
483.88	265.01
484.25	265.41
484.61	265.85
484.98	266.31
485.34	266.88
485.71	267.44
486.07	268.07
486.44	268.64
486.80	269.33
487.17	270.05
487.53	270.91
487.90	271.76
488.26	272.71
488.62	273.70
488.99	274.65
489.35	275.72
489.72	276.86
490.08	278.07
490.44	279.26
490.81	280.60
491.17	281.93
491.54	283.41
491.90	284.95
492.26	286.60
492.63	288.30
492.99	290.05
493.36	291.96
493.72	294.00
494.08	296.13
494.45	298.45
494.81	300.82
495.17	303.19
495.54	305.74
495.90	308.40
496.26	311.23
496.63	314.20
496.99	317.34
497.35	320.60
497.72	323.97
498.08	327.57
498.44	331.23
498.80	335.16
499.17	339.21
499.53	343.38
499.89	347.77
500.26	352.31
500.62	357.00
500.98	361.99
501.34	367.10
501.71	372.45
502.07	377.85
502.43	383.44
502.79	389.30
503.16	395.42
503.52	401.71
503.88	408.13
504.24	414.81
504.60	421.73
504.97	428.87
505.33	436.21
505.69	443.95
506.05	451.79
506.41	459.70
506.78	467.89
507.14	476.38
507.50	485.08
507.86	494.14
508.22	503.35
508.59	512.57
508.95	522.19
509.31	532.06
509.67	542.22
510.03	552.56
510.39	563.15
510.75	573.92
511.12	584.91
511.48	596.21
511.84	607.67
512.20	619.17
512.56	631.08
512.92	643.32
513.28	655.65
513.64	668.07
514.00	680.83
514.37	693.65
514.73	706.66
515.09	719.73
515.45	732.98
515.81	746.50
516.17	760.52
516.53	774.68
516.89	788.72
517.25	802.81
517.61	817.20
517.97	831.67
518.33	846.12
518.69	860.89
519.05	875.89
519.41	891.05
519.77	906.58
520.13	922.05
520.49	937.38
520.85	952.72
521.21	968.50
521.57	984.63
521.93	1000.52
522.29	1016.93
522.65	1033.18
523.01	1049.42
523.37	1065.54
523.73	1081.64
524.09	1097.55
524.45	1113.95
524.81	1130.61
525.17	1147.40
525.53	1164.19
525.89	1181.10
526.25	1197.89
526.61	1214.16
526.97	1230.89
527.33	1247.36
527.68	1264.01
528.04	1280.51
528.40	1297.08
528.76	1314.07
529.12	1330.60
529.48	1347.40
529.84	1363.37
530.20	1379.93
530.56	1396.81
530.91	1414.18
531.27	1430.89
531.63	1447.34
531.99	1463.83
532.35	1479.69
532.71	1495.46
533.07	1511.63
533.42	1527.40
533.78	1543.41
534.14	1559.69
534.50	1575.06
534.86	1590.98
535.21	1606.00
535.57	1621.89
535.93	1637.38
536.29	1652.17
536.65	1667.22
537.00	1682.04
537.36	1697.28
537.72	1711.80
538.08	1726.19
538.44	1739.87
538.79	1753.77
539.15	1767.56
539.51	1781.32
539.87	1795.75
540.22	1809.40
540.58	1823.27
540.94	1836.60
541.29	1849.40
541.65	1862.06
542.01	1875.15
542.37	1887.31
542.72	1899.82
543.08	1911.52
543.44	1923.83
543.79	1934.93
544.15	1945.89
544.51	1957.44
544.87	1968.44
545.22	1979.22
545.58	1989.46
545.94	1999.21
546.29	2009.07
546.65	2018.76
547.01	2027.88
547.36	2036.51
547.72	2045.00
548.07	2052.70
548.43	2060.92
548.79	2069.02
549.14	2076.47
549.50	2083.79
549.86	2091.48
550.21	2098.71
550.57	2105.87
550.92	2112.41
551.28	2119.52
551.64	2126.58
551.99	2132.96
552.35	2139.07
552.70	2145.25
553.06	2151.32
553.41	2157.78
553.77	2163.75
554.13	2170.01
554.48	2176.14
554.84	2181.53
555.19	2186.90
555.55	2192.14
555.90	2196.54
556.26	2201.30
556.61	2206.21
556.97	2210.41
557.32	2214.45
557.68	2218.57
558.03	2222.93
558.39	2226.74
558.74	2231.32
559.10	2235.16
559.45	2238.95
559.81	2243.31
560.16	2246.97
560.52	2250.14
560.87	2253.39
561.23	2256.07
561.58	2258.94
561.94	2261.51
562.29	2263.98
562.64	2266.58
563.00	2269.07
563.35	2272.64
563.71	2275.78
564.06	2279.00
564.42	2281.89
564.77	2284.36
565.12	2286.70
565.48	2288.61
565.83	2290.65
566.19	2291.99
566.54	2293.01
566.89	2294.02
567.25	2294.58
567.60	2296.01
567.96	2297.71
568.31	2298.66
568.66	2299.81
569.02	2300.30
569.37	2300.55
569.72	2301.44
570.08	2301.63
570.43	2301.89
570.78	2301.34
571.14	2299.85
571.49	2298.48
571.84	2298.37
572.20	2297.24
572.55	2296.15
572.90	2294.52
573.26	2293.03
573.61	2291.41
573.96	2289.67
574.31	2286.71
574.67	2283.74
575.02	2280.15
575.37	2276.80
575.72	2272.98
576.08	2269.49
576.43	2266.11
576.78	2262.43
577.13	2259.27
577.49	2256.25
577.84	2252.70
578.19	2249.04
578.54	2245.38
578.90	2241.10
579.25	2235.33
579.60	2230.46
579.95	2225.39
580.30	2220.48
580.66	2215.33
581.01	2210.35
581.36	2205.39
581.71	2201.31
582.06	2196.68
582.42	2192.16
582.77	2186.88
583.12	2182.31
583.47	2177.69
583.82	2172.78
584.17	2167.53
584.53	2161.95
584.88	2156.38
585.23	2150.46
585.58	2144.92
585.93	2139.55
586.28	2134.88
586.63	2129.86
586.98	2124.85
587.34	2120.29
587.69	2115.33
588.04	2109.99
588.39	2104.38
588.74	2098.05
589.09	2091.94
589.44	2085.20
589.79	2079.25
590.14	2073.71
590.49	2067.18
590.84	2060.90
591.19	2054.85
591.54	2048.62
591.89	2041.26
592.25	2034.30
592.60	2027.17
592.95	2019.55
593.30	2012.19
593.65	2004.59
594.00	1997.55
594.35	1990.36
594.70	1982.35
595.05	1975.02
595.40	1967.65
595.75	1960.06
596.10	1953.80
596.45	1947.06
596.80	1941.13
597.15	1934.61
597.50	1927.44
597.85	1921.10
598.19	1914.41
598.54	1907.37
598.89	1900.71
599.24	1894.86
599.59	1888.32
599.94	1882.18
600.29	1875.94
600.64	1869.36
600.99	1861.85
601.34	1855.11
601.69	1848.05
602.04	1841.06
602.39	1833.89
602.74	1827.15
603.08	1820.56
603.43	1813.77
603.78	1806.44
604.13	1799.17
604.48	1791.70
604.83	1784.86
605.18	1777.76
605.53	1769.71
605.87	1761.78
606.22	1754.51
606.57	1746.60
606.92	1739.28
607.27	1732.12
607.62	1725.09
607.96	1717.78
608.31	1711.15
608.66	1703.49
609.01	1696.07
609.36	1688.61
609.70	1680.60
610.05	1672.60
610.40	1664.76
610.75	1656.44
611.10	1648.80
611.44	1640.31
611.79	1632.42
612.14	1623.77
612.49	1614.66
612.83	1606.27
613.18	1598.10
613.53	1590.05
613.88	1581.39
614.22	1573.13
614.57	1564.37
614.92	1556.24
615.27	1548.69
615.61	1540.34
615.96	1532.34
616.31	1524.73
616.65	1517.34
617.00	1509.77
617.35	1502.13
617.70	1493.77
618.04	1485.34
618.39	1477.12
618.74	1469.55
619.08	1461.16
619.43	1453.54
619.78	1446.63
620.12	1439.48
620.47	1431.91
620.82	1423.63
621.16	1416.41
621.51	1408.78
621.85	1401.30
622.20	1392.89
622.55	1384.58
622.89	1376.87
623.24	1369.27
623.59	1361.72
623.93	1354.19
624.28	1346.90
624.62	1339.34
624.97	1332.23
625.32	1325.40
625.66	1318.37
626.01	1311.16
626.35	1303.79
626.70	1296.10
627.04	1288.22
627.39	1280.45
627.73	1273.01
628.08	1266.05
628.43	1258.65
628.77	1251.21
629.12	1243.59
629.46	1236.47
629.81	1229.03
630.15	1221.73
630.50	1214.24
630.84	1206.14
631.19	1198.23
631.53	1190.74
631.88	1183.19
632.22	1175.58
632.57	1168.24
632.91	1160.63
633.26	1153.10
633.60	1145.66
633.95	1138.47
634.29	1131.61
634.64	1124.94
634.98	1117.60
635.32	1110.49
635.67	1103.90
636.01	1097.29
636.36	1090.46
636.70	1083.93
637.05	1077.32
637.39	1070.77
637.73	1064.23
638.08	1058.34
638.42	1052.34
638.77	1045.92
639.11	1039.29
639.45	1032.94
639.80	1026.27
640.14	1019.94
640.49	1013.56
640.83	1007.32
641.17	1001.09
641.52	994.67
641.86	988.26
642.20	982.41
642.55	976.09
642.89	969.60
643.23	963.03
643.58	957.33
643.92	951.07
644.26	945.02
644.61	939.06
644.95	932.97
645.29	926.31
645.64	919.53
645.98	913.18
646.32	907.35
646.66	901.24
647.01	895.49
647.35	889.73
647.69	883.73
648.04	878.21
648.38	872.49
648.72	866.47
649.06	860.29
649.41	854.50
649.75	848.55
650.09	842.62
650.43	836.91
650.78	830.70
651.12	824.77
651.46	819.06
651.80	813.24
652.14	807.88
652.49	802.61
652.83	797.48
653.17	791.75
653.51	785.98
653.85	780.59
654.20	774.91
654.54	768.85
654.88	763.24
655.22	757.31
655.56	751.58
655.90	746.15
656.25	740.91
656.59	735.44
656.93	730.30
657.27	725.13
657.61	719.66
657.95	714.59
658.29	709.49
658.64	704.16
658.98	698.85
659.32	693.41
659.66	688.12
660.00	682.73
660.34	677.83
660.68	672.89
661.02	667.90
661.36	663.17
661.70	658.70
662.05	654.27
662.39	649.98
662.73	645.47
663.07	641.13
663.41	636.75
663.75	632.32
664.09	627.80
664.43	623.36
664.77	619.25
665.11	614.99
665.45	610.87
665.79	606.84
666.13	602.70
666.47	598.59
666.81	594.46
667.15	590.39
667.49	586.49
667.83	582.73
668.17	578.78
668.51	574.71
668.85	570.64
669.19	566.85
669.53	562.98
669.87	559.16
670.21	555.45
670.55	551.73
670.89	548.28
671.23	544.84
671.57	541.34
671.91	537.75
672.25	534.26
672.58	530.74
672.92	527.32
673.26	524.19
673.60	521.12
673.94	517.96
674.28	515.02
674.62	512.03
674.96	508.93
675.30	506.02
675.64	503.11
675.97	500.33
676.31	497.45
676.65	494.54
676.99	491.81
677.33	488.97
677.67	486.22
678.01	483.13
678.34	480.16
678.68	477.27
679.02	474.47
679.36	471.66
679.70	468.97
680.04	466.18
680.37	463.28
680.71	460.43
681.05	457.83
681.39	455.10
681.73	452.47
682.06	449.94
682.40	447.42
682.74	444.91
683.08	442.40
683.42	439.82
683.75	437.36
684.09	434.83
684.43	432.33
684.77	429.85
685.10	427.53
685.44	425.18
685.78	422.94
686.12	420.70
686.45	418.45
686.79	416.09
687.13	413.90
687.46	411.83
687.80	409.73
688.14	407.55
688.48	405.51
688.81	403.20
689.15	400.97
689.49	398.77
689.82	396.64
690.16	394.57
690.50	392.64
690.83	390.66
691.17	388.65
691.51	386.75
691.84	384.92
692.18	382.99
692.52	381.02
692.85	379.08
693.19	377.17
693.52	375.36
693.86	373.60
694.20	371.85
694.53	369.97
694.87	368.08
695.21	366.28
695.54	364.43
695.88	362.75
696.21	361.06
696.55	359.35
696.88	357.68
697.22	356.03
697.56	354.36
697.89	352.66
698.23	351.04
698.56	349.40
698.90	347.78
699.23	346.13
699.57	344.60
699.90	343.08
700.24	341.60
700.58	340.07
700.91	338.57
701.25	337.12
701.58	335.76
701.92	334.38
702.25	332.99
702.59	331.62
702.92	330.27
703.26	328.95
703.59	327.65
703.93	326.46
704.26	325.21
704.60	323.91
704.93	322.65
705.26	321.41
705.60	320.21
705.93	319.04
706.27	318.03
706.60	316.99
706.94	315.88
707.27	314.69
707.61	313.64
707.94	312.62
708.27	311.52
708.61	310.45
708.94	309.47
709.28	308.54
709.61	307.58
709.94	306.69
710.28	305.72
710.61	304.78
710.95	303.72
711.28	302.81
711.61	301.87
711.95	300.94
712.28	299.99
712.61	299.05
712.95	298.13
713.28	297.21
713.61	296.31
713.95	295.41
714.28	294.60
714.61	293.71
714.95	292.85
715.28	291.99
715.61	291.11
715.95	290.23
716.28	289.34
716.61	288.51
716.95	287.65
717.28	286.88
717.61	286.12
717.94	285.39
718.28	284.57
718.61	283.85
718.94	283.14
719.27	282.50
719.61	281.86
719.94	281.18
720.27	280.47
720.60	279.78
720.94	279.14
721.27	278.51
721.60	277.95
721.93	277.35
722.27	276.80
722.60	276.23
722.93	275.66
723.26	275.12
723.59	274.55
723.93	273.97
724.26	273.42
724.59	272.87
724.92	272.33
725.25	271.84
725.59	271.29
725.92	270.80
726.25	270.30
726.58	269.78
726.91	269.32
727.24	268.84
727.57	268.39
727.91	267.87
728.24	267.40
728.57	266.87
728.90	266.41
729.23	265.90
729.56	265.51
729.89	265.04
730.22	264.54
730.55	264.07
730.89	263.62
731.22	263.20
731.55	262.75
731.88	262.34
732.21	261.89
732.54	261.49
732.87	261.06
733.20	260.65
733.53	260.27
733.86	259.87
734.19	259.50
734.52	259.13
734.85	258.85
735.18	258.47
735.51	258.13
735.84	257.76
736.17	257.44
736.50	257.01
736.83	256.79
737.16	256.47
737.49	256.17
737.82	255.84
738.15	255.48
738.48	255.15
738.81	254.83
739.14	254.49
739.47	254.15
739.80	253.85
740.13	253.51
740.46	253.17
740.79	252.83
741.12	252.48
741.45	252.15
741.78	251.82
742.11	251.55
742.44	251.24
742.77	250.98
743.10	250.64
743.43	250.35
743.75	249.96
744.08	249.84
744.41	249.54
744.74	249.27
745.07	248.98
745.40	248.75
745.73	248.49
746.06	248.24
746.39	248.03
746.71	247.79
747.04	247.54
747.37	247.31
747.70	247.09
748.03	246.86
748.36	246.63
748.68	246.39
749.01	246.12
749.34	245.87
749.67	245.63
750.00	245.47
750.33	245.33
750.65	245.15
750.98	244.78
751.31	244.55
751.64	244.40
751.97	244.26
752.29	244.03
752.62	243.79
752.95	243.58
753.28	243.36
753.60	243.11
753.93	242.97
754.26	242.79
754.59	242.56
754.91	242.36
755.24	242.16
755.57	241.95
755.90	241.76
756.22	241.59
756.55	241.36
756.88	241.14
757.20	240.90
757.53	240.69
757.86	240.53
758.19	240.40
758.51	240.20
758.84	239.99
759.17	239.82
759.49	239.68
759.82	239.59
760.15	239.42
760.47	239.32
760.80	239.12
761.13	238.96
761.45	238.76
761.78	238.63
762.11	238.50
762.43	238.35
762.76	238.25
763.08	238.13
763.41	238.02
763.74	237.91
764.06	237.76
764.39	237.62
764.71	237.47
765.04	237.34
765.37	237.19
765.69	237.11
766.02	236.99
766.34	236.86
766.67	236.69
767.00	236.60
767.32	236.52
767.65	236.47
767.97	236.40
768.30	236.31
768.62	236.18
768.95	236.09
769.27	235.98
769.60	235.84
769.92	235.69
770.25	235.56
770.57	235.45
770.90	235.36
771.22	235.24
771.55	235.14
771.87	235.06
772.20	234.98
772.52	234.93
772.85	234.92
773.17	234.84
773.50	234.73
773.82	234.66
774.15	234.47
774.47	234.29
774.80	234.17
775.12	234.09
775.45	234.00
775.77	233.90
776.09	233.83
776.42	233.74
776.74	233.68
777.07	233.58
777.39	233.51
777.72	233.41
778.04	233.34
778.36	233.24
778.69	233.17
779.01	233.09
779.33	232.94
779.66	232.76
779.98	232.64
780.31	232.56
780.63	232.49
780.95	232.45
781.28	232.38
781.60	232.33
781.92	232.26
782.25	232.18
782.57	232.15
782.89	232.07
783.22	232.02
783.54	231.98
783.86	231.94
784.19	231.84
784.51	231.83
784.83	231.76
785.16	231.69
785.48	231.61
785.80	231.52
786.12	231.48
786.45	231.43
786.77	231.41
787.09	231.38
787.42	231.32
787.74	231.32
788.06	231.30
788.38	231.21
788.71	231.20
789.03	231.15
789.35	231.10
789.67	231.06
789.99	231.01
790.32	230.90
790.64	230.87
790.96	230.90
791.28	230.81
791.61	230.78
791.93	230.75
792.25	230.70
792.57	230.77
792.89	230.72
793.21	230.69
793.54	230.66
793.86	230.59
794.18	230.54
794.50	230.46
794.82	230.42
795.14	230.41
795.47	230.38
795.79	230.37
796.11	230.32
796.43	230.29
796.75	230.29
797.07	230.29
797.39	230.25
797.71	230.20
798.04	230.20
798.36	230.16
798.68	230.16
799.00	230.12
799.32	230.03
799.64	230.01
799.96	229.99
800.28	229.97
800.60	229.93
800.92	229.92
801.24	229.90
801.56	229.87
801.89	229.85
802.21	229.83
802.53	229.78
802.85	229.76
803.17	229.78
803.49	229.71
803.81	229.67
804.13	229.67
804.45	229.62
804.77	229.61
805.09	229.59
805.41	229.56
805.73	229.54
806.05	229.51
806.37	229.47
806.69	229.42
807.01	229.39
807.33	229.37
807.65	229.30
807.97	229.31
808.28	229.25
808.60	229.23
808.92	229.18
809.24	229.21
809.56	229.17
809.88	229.11
810.20	229.09
810.52	229.12
810.84	229.04
811.16	229.02
811.48	229.00
811.80	229.03
812.12	228.99
812.43	228.98
812.75	228.94
813.07	228.92
813.39	228.89
813.71	228.83
814.03	228.81
814.35	228.80
814.67	228.76
814.98	228.76
815.30	228.71
815.62	228.69
815.94	228.63
816.26	228.65
816.58	228.62
816.89	228.62
817.21	228.55
817.53	228.54
817.85	228.52
818.17	228.49
818.48	228.41
818.80	228.40
819.12	228.40
819.44	228.40
819.76	228.40
820.07	228.42
820.39	228.42
820.71	228.40
821.03	228.39
821.34	228.37
821.66	228.36
821.98	228.36
822.30	228.34
822.61	228.36
822.93	228.31
823.25	228.27
823.57	228.23
823.88	228.25
824.20	228.22
824.52	228.22
824.83	228.20
825.15	228.16
825.47	228.16
825.79	228.15
826.10	228.12
826.42	228.09
826.74	228.08
827.05	228.07
827.37	228.11
827.69	228.11
828.00	228.08
828.32	228.09
828.64	228.05
828.95	228.08
829.27	228.05
829.58	228.03
829.90	228.02
830.22	228.04
830.53	228.01
830.85	228.00
831.17	227.97
831.48	227.99
831.80	228.01
832.11	227.98
832.43	227.94
832.75	227.94
833.06	227.98
833.38	227.95
833.69	227.96
834.01	227.89
834.32	227.86
834.64	227.86
834.96	227.83
835.27	227.84
835.59	227.80
835.90	227.79
836.22	227.78
836.53	227.78
836.85	227.76
837.16	227.82
837.48	227.85
837.79	227.85
838.11	227.85
838.42	227.84
838.74	227.83
839.05	227.83
839.37	227.79
839.68	227.74
840.00	227.74
840.31	227.73
840.63	227.74
840.94	227.73
841.26	227.72
841.57	227.71
841.88	227.73
842.20	227.71
842.51	227.65
842.83	227.66
843.14	227.74
843.46	227.71
843.77	227.66
844.08	227.62
844.40	227.60
844.71	227.58
845.03	227.58
845.34	227.60
845.65	227.60
845.97	227.59
846.28	227.57
846.60	227.56
846.91	227.56
847.22	227.56
847.54	227.58
847.85	227.57
848.16	227.55
848.48	227.53
848.79	227.57
849.10	227.59
849.42	227.56
849.73	227.47
850.04	227.49
850.36	227.47
850.67	227.51
850.98	227.52
851.30	227.50
851.61	227.48
851.92	227.47
852.23	227.48
852.55	227.50
852.86	227.51
853.17	227.53
853.49	227.53
853.80	227.52
854.11	227.52
854.42	227.53
854.74	227.56
855.05	227.54
855.36	227.51
855.67	227.50
855.99	227.52
856.30	227.63
856.61	227.62
856.92	227.61
857.23	227.59
857.55	227.56
857.86	227.56
858.17	227.54
858.48	227.54
858.79	227.51
859.11	227.57
859.42	227.55
859.73	227.52
860.04	227.52
860.35	227.53
860.66	227.51
860.98	227.45
861.29	227.44
861.60	227.43
861.91	227.43
862.22	227.46
862.53	227.44
862.84	227.31
863.16	227.32
863.47	227.27
863.78	227.27
864.09	227.23
864.40	227.24
864.71	227.25
865.02	227.25
865.33	227.26
865.64	227.20
865.95	227.21
866.27	227.27
866.58	227.25
866.89	227.22
867.20	227.19
867.51	227.20
867.82	227.19
868.13	227.21
868.44	227.20
868.75	227.18
869.06	227.18
869.37	227.18
869.68	227.15
869.99	227.20
870.30	227.23
870.61	227.26
870.92	227.27
871.23	227.28
871.54	227.28
871.85	227.29
872.16	227.29
872.47	227.26
872.78	227.21
873.09	227.18
873.40	227.14
873.71	227.17
874.02	227.19
874.33	227.18
874.64	227.15
874.95	227.13
875.26	227.13
875.56	227.11
875.87	227.12
876.18	227.10
876.49	227.17
876.80	227.14
877.11	227.08
877.42	227.07
877.73	227.07
878.04	227.04
878.35	227.03
878.66	227.03
878.96	227.03
879.27	227.07
879.58	227.08
879.89	227.08
880.20	227.10
880.51	227.10
880.82	227.11
881.12	227.13
881.43	227.11
881.74	227.05
882.05	227.06
882.36	227.03
882.67	227.07
882.97	226.95
883.28	226.93
883.59	226.96
883.90	226.93
884.21	226.92
884.51	226.93
884.82	226.92
885.13	226.92
885.44	226.93
885.74	226.89
886.05	226.89
886.36	226.93
886.67	226.89
886.98	226.95
887.28	226.94
887.59	226.95
887.90	226.97
888.20	226.98
888.51	227.01
888.82	227.03
889.13	227.01
889.43	227.14
889.74	227.14
890.05	227.15
890.35	227.15
890.66	227.12
890.97	227.05
891.28	227.03
891.58	227.06
891.89	227.02
892.20	227.05
892.50	227.00
892.81	227.01
893.12	227.00
893.42	226.94
893.73	226.95
894.04	226.94
894.34	226.96
894.65	226.96
894.95	226.93
895.26	226.94
895.57	227.02
895.87	226.88
896.18	226.89
896.48	226.89
896.79	226.89
897.10	226.92
897.40	226.97
897.71	226.96
898.01	226.93
898.32	226.99
898.63	226.94
898.93	226.98
899.24	226.93
899.54	226.91
899.85	226.91
900.15	226.90
900.46	226.93
900.76	226.93
901.07	226.97
901.38	226.97
901.68	226.97
901.99	226.86
902.29	226.90
902.60	226.92
902.90	226.92
903.21	226.94
903.51	226.92
903.82	226.92
904.12	226.94
904.43	226.96
904.73	226.93
905.03	226.94
905.34	227.03
905.64	227.07
905.95	227.08
906.25	227.07
906.56	227.04
906.86	227.01
907.17	226.99
907.47	226.99
907.77	226.98
908.08	226.94
908.38	227.00
908.69	226.98
908.99	227.01
909.30	227.01
909.60	227.00
909.90	227.00
910.21	227.00
910.51	226.99
910.81	226.98
911.12	226.96
911.42	226.96
911.73	226.85
912.03	226.84
912.33	226.85
912.64	226.86
912.94	226.86
913.24	226.85
913.55	226.86
913.85	226.83
914.15	226.83
914.46	226.86
914.76	226.85
915.06	226.85
915.37	226.77
915.67	226.76
915.97	226.75
916.27	226.74
916.58	226.76
916.88	226.78
917.18	226.77
917.49	226.86
917.79	226.86
918.09	226.90
918.39	226.93
918.70	226.93
919.00	226.92
919.30	226.98
919.60	226.98
919.91	226.95
920.21	226.93
920.51	226.93
920.81	226.90
921.12	226.91
921.42	226.90
921.72	226.94
922.02	226.95
922.32	226.95
922.63	226.97
922.93	226.98
923.23	226.95
923.53	226.96
923.83	226.89
924.13	226.89
924.44	226.86
924.74	226.87
925.04	226.88
925.34	226.89
925.64	226.83
925.94	226.82
926.24	226.88
926.55	226.91
926.85	226.92
927.15	226.92
927.45	226.89
927.75	226.87
928.05	226.87
928.35	226.87
928.65	226.90
928.95	226.87
929.26	226.84
929.56	226.91
929.86	226.89
930.16	226.88
930.46	226.90
930.76	226.89
931.06	226.84
931.36	226.85
931.66	226.88
931.96	226.87
932.26	226.88
932.56	226.82
932.86	226.86
933.16	226.84
933.46	226.83
933.76	226.83
934.06	226.88
934.36	226.93
934.66	226.92
934.96	226.90
935.26	226.91
935.56	226.90
935.86	226.85
936.16	226.83
936.46	226.79
936.76	226.78
937.06	226.80
937.36	226.82
937.66	226.80
937.96	226.78
938.26	226.79
938.56	226.76
938.86	226.75
939.16	226.76
939.46	226.76
939.76	226.77
940.06	226.78
940.35	226.77
940.65	226.67
940.95	226.71
941.25	226.64
941.55	226.63
941.85	226.64
942.15	226.67
942.45	226.70
942.75	226.72
943.04	226.70
943.34	226.69
943.64	226.66
943.94	226.61
944.24	226.63
944.54	226.60
944.84	226.61
945.13	226.62
945.43	226.59
945.73	226.59
946.03	226.60
946.33	226.57
946.62	226.55
946.92	226.57
947.22	226.53
947.52	226.58
947.82	226.57
948.11	226.54
948.41	226.50
948.71	226.45
949.01	226.46
949.31	226.45
949.60	226.45
949.90	226.43
950.20	226.45
950.50	226.43
950.79	226.45
951.09	226.47
951.39	226.47
951.69	226.45
951.98	226.42
952.28	226.43
952.58	226.43
952.87	226.39
953.17	226.40
953.47	226.39
953.76	226.38
954.06	226.39
954.36	226.40
954.66	226.40
954.95	226.43
955.25	226.47
955.55	226.50
955.84	226.44
956.14	226.46
956.44	226.47
956.73	226.47
957.03	226.46
957.32	226.42
957.62	226.37
957.92	226.38
958.21	226.40
958.51	226.49
958.81	226.54
959.10	226.56
959.40	226.58
959.69	226.58
959.99	226.60
960.29	226.57
960.58	226.56
960.88	226.63
961.17	226.60
961.47	226.60
961.76	226.61
962.06	226.69
962.36	226.69
962.65	226.68
962.95	226.66
963.24	226.66
963.54	226.68
963.83	226.72
964.13	226.72
964.42	226.70
964.72	226.65
965.01	226.60
965.31	226.62
965.60	226.60
965.90	226.68
966.19	226.64
966.49	226.70
966.78	226.73
967.08	226.70
967.37	226.74
967.67	226.71
967.96	226.71
968.26	226.72
968.55	226.75
968.85	226.76
969.14	226.79
969.43	226.80
969.73	226.81
970.02	226.82
970.32	226.87
970.61	226.87
970.91	226.80
971.20	226.80
971.49	226.79
971.79	226.79
972.08	226.71
972.38	226.74
972.67	226.73
972.96	226.74
973.26	226.72
973.55	226.74
973.85	226.73
974.14	226.69
974.43	226.65
974.73	226.64
975.02	226.65
975.31	226.65
975.61	226.62
975.90	226.62
976.19	226.60
976.49	226.59
976.78	226.62
977.07	226.63
977.37	226.66
977.66	226.67
977.95	226.66
978.24	226.68
978.54	226.70
978.83	226.70
979.12	226.69
979.42	226.68
979.71	226.67
980.00	226.66
980.29	226.69
980.59	226.69
980.88	226.70
981.17	226.65
981.46	226.64
981.76	226.65
982.05	226.69
982.34	226.68
982.63	226.68
982.93	226.69
983.22	226.71
983.51	226.68
983.80	226.69
984.09	226.68
984.39	226.68
984.68	226.65
984.97	226.67
985.26	226.63
985.55	226.63
985.85	226.56
986.14	226.59
986.43	226.61
986.72	226.61
987.01	226.55
987.30	226.58
987.59	226.57
987.89	226.55
988.18	226.51
988.47	226.49
988.76	226.44
989.05	226.39
989.34	226.37
989.63	226.39
989.92	226.35
990.22	226.35
990.51	226.31
990.80	226.29
991.09	226.31
991.38	226.31
991.67	226.31
991.96	226.31
992.25	226.30
992.54	226.27
992.83	226.26
993.12	226.27
993.41	226.28
993.70	226.31
993.99	226.33
994.28	226.33
994.58	226.34
994.87	226.34
995.16	226.35
995.45	226.36
995.74	226.29
996.03	226.32
996.32	226.32
996.61	226.37
996.90	226.37
997.19	226.35
997.48	226.37
997.77	226.35
998.06	226.38
998.34	226.40
998.63	226.43
998.92	226.44
999.21	226.49
999.50	226.49
999.79	226.47
1000.08	226.47
1000.37	226.50
1000.66	226.51
1000.95	226.58
1001.24	226.61
1001.53	226.64
1001.82	226.66
1002.11	226.67
1002.40	226.67
1002.68	226.69
1002.97	226.75
1003.26	226.73
1003.55	226.69
1003.84	226.71
1004.13	226.76
1004.42	226.73
1004.71	226.70
1004.99	226.69
1005.28	226.68
1005.57	226.68
1005.86	226.70
1006.15	226.69
1006.44	226.67
1006.72	226.68
1007.01	226.63
1007.30	226.62
1007.59	226.60
1007.88	226.61
1008.17	226.62
1008.45	226.61
1008.74	226.55
1009.03	226.51
1009.32	226.51
1009.60	226.53
1009.89	226.50
1010.18	226.47
1010.47	226.48
1010.76	226.49
1011.04	226.48
1011.33	226.50
1011.62	226.52
1011.91	226.52
1012.19	226.54
1012.48	226.54
1012.77	226.54
1013.05	226.60
1013.34	226.61
1013.63	226.60
1013.92	226.60
1014.20	226.59
1014.49	226.61
1014.78	226.64
1015.06	226.63
1015.35	226.65
1015.64	226.66
1015.92	226.66
1016.21	226.67
1016.50	226.69
1016.78	226.69
1017.07	226.71
1017.36	226.70
1017.64	226.67
1017.93	226.63
1018.22	226.63
1018.50	226.65
1018.79	226.63
1019.08	226.60
1019.36	226.61
1019.65	226.60
1019.93	226.64
1020.22	226.63
1020.51	226.68
1020.79	226.67
1021.08	226.73
1021.36	226.80
1021.65	226.34
1021.94	226.96
1022.22	226.89
1022.51	226.23
1022.79	227.05
1023.08	226.31
1023.36	227.67
1023.65	226.43
>>>>>End Processed Spectral Data<<<<<
