SpectraSuite Data File
++++++++++++++++++++++++++++++++++++
Date: Fri Feb 01 15:44:03 EST 2013
User: group
Dark Spectrum Present: No
Reference Spectrum Present: No
Number of Sampled Component Spectra: 1
Spectrometers: USB2E7196
Integration Time (usec): 35000 (USB2E7196)
Spectra Averaged: 100 (USB2E7196)
Boxcar Smoothing: 10 (USB2E7196)
Correct for Electrical Dark: No (USB2E7196)
Strobe/Lamp Enabled: No (USB2E7196)
Correct for Detector Non-linearity: No (USB2E7196)
Correct for Stray Light: No (USB2E7196)
Number of Pixels in Processed Spectrum: 2048
>>>>>Begin Processed Spectral Data<<<<<
339.09	0.00
339.48	214.04
339.86	216.56
340.24	217.47
340.63	218.98
341.01	221.71
341.39	221.69
341.78	223.61
342.16	224.31
342.54	225.26
342.93	213.34
343.31	224.11
343.69	224.72
344.07	225.17
344.46	225.63
344.84	226.00
345.22	226.26
345.60	226.52
345.99	226.70
346.37	226.83
346.75	226.93
347.13	227.00
347.52	227.06
347.90	227.11
348.28	227.15
348.66	227.17
349.05	227.15
349.43	227.14
349.81	227.18
350.19	227.23
350.57	227.26
350.96	227.28
351.34	227.33
351.72	227.36
352.10	227.43
352.48	227.48
352.87	227.54
353.25	227.60
353.63	227.66
354.01	227.72
354.39	227.78
354.77	227.80
355.15	227.87
355.54	227.91
355.92	227.94
356.30	228.01
356.68	228.14
357.06	228.22
357.44	228.28
357.82	228.31
358.20	228.37
358.58	228.47
358.97	228.53
359.35	228.65
359.73	228.74
360.11	228.79
360.49	228.84
360.87	228.89
361.25	228.92
361.63	228.97
362.01	228.98
362.39	228.98
362.77	229.05
363.15	229.09
363.53	229.13
363.91	229.13
364.29	229.11
364.67	229.04
365.05	229.05
365.43	229.06
365.81	229.09
366.19	229.12
366.57	229.13
366.95	229.14
367.33	229.08
367.71	229.06
368.09	229.06
368.47	229.04
368.85	229.03
369.23	229.03
369.61	228.95
369.99	228.98
370.37	228.98
370.75	228.97
371.13	228.90
371.51	228.82
371.89	228.84
372.27	228.85
372.65	228.80
373.03	228.76
373.41	228.70
373.78	228.62
374.16	228.52
374.54	228.43
374.92	228.34
375.30	228.31
375.68	228.26
376.06	228.17
376.44	228.11
376.82	228.03
377.19	227.95
377.57	227.92
377.95	227.80
378.33	227.69
378.71	227.58
379.09	227.53
379.47	227.48
379.84	227.36
380.22	227.26
380.60	227.18
380.98	227.09
381.36	227.05
381.73	226.98
382.11	226.96
382.49	226.91
382.87	226.85
383.25	226.77
383.62	226.80
384.00	226.75
384.38	226.70
384.76	226.67
385.13	226.64
385.51	226.56
385.89	226.52
386.27	226.55
386.64	226.50
387.02	226.44
387.40	226.40
387.78	226.36
388.15	226.32
388.53	226.29
388.91	226.29
389.29	226.25
389.66	226.24
390.04	226.22
390.42	226.21
390.79	226.21
391.17	226.20
391.55	226.08
391.92	226.08
392.30	226.07
392.68	226.03
393.05	226.06
393.43	226.10
393.81	226.11
394.18	226.10
394.56	226.14
394.94	226.17
395.31	226.20
395.69	226.28
396.06	226.32
396.44	226.37
396.82	226.41
397.19	226.50
397.57	226.54
397.95	226.56
398.32	226.60
398.70	226.66
399.07	226.76
399.45	226.81
399.82	226.88
400.20	226.97
400.58	227.08
400.95	227.11
401.33	227.20
401.70	227.36
402.08	227.45
402.45	227.54
402.83	227.68
403.20	227.80
403.58	227.90
403.95	228.02
404.33	228.17
404.71	228.25
405.08	228.46
405.46	228.58
405.83	228.78
406.21	228.91
406.58	229.08
406.96	229.22
407.33	229.42
407.70	229.60
408.08	229.84
408.45	230.05
408.83	230.29
409.20	230.51
409.58	230.68
409.95	230.93
410.33	231.19
410.70	231.44
411.08	231.72
411.45	232.04
411.82	232.35
412.20	232.69
412.57	233.14
412.95	233.37
413.32	233.80
413.69	234.19
414.07	234.63
414.44	235.09
414.82	235.58
415.19	236.13
415.56	236.68
415.94	237.24
416.31	237.88
416.68	238.49
417.06	239.18
417.43	239.88
417.81	240.66
418.18	241.42
418.55	242.24
418.93	243.12
419.30	244.00
419.67	244.93
420.04	245.86
420.42	246.82
420.79	248.01
421.16	249.16
421.54	250.37
421.91	251.58
422.28	252.85
422.66	254.18
423.03	255.47
423.40	256.84
423.77	258.27
424.15	259.66
424.52	261.15
424.89	262.81
425.26	264.33
425.64	265.79
426.01	267.41
426.38	269.11
426.75	270.79
427.13	272.55
427.50	274.38
427.87	276.28
428.24	278.14
428.61	279.88
428.99	281.83
429.36	283.91
429.73	285.97
430.10	288.02
430.47	290.09
430.85	292.20
431.22	294.43
431.59	296.79
431.96	299.09
432.33	301.58
432.70	303.91
433.08	306.71
433.45	309.33
433.82	311.94
434.19	314.82
434.56	317.57
434.93	320.18
435.30	322.76
435.68	325.68
436.05	328.51
436.42	331.32
436.79	333.86
437.16	336.57
437.53	339.42
437.90	342.19
438.27	344.92
438.64	347.73
439.01	350.32
439.38	352.56
439.75	354.74
440.13	357.25
440.50	359.63
440.87	361.49
441.24	363.42
441.61	365.60
441.98	367.08
442.35	368.90
442.72	370.75
443.09	372.62
443.46	373.57
443.83	374.17
444.20	374.65
444.57	375.47
444.94	375.78
445.31	376.07
445.68	376.40
446.05	376.47
446.42	376.17
446.79	375.74
447.16	375.31
447.53	374.93
447.90	373.76
448.27	372.57
448.64	371.02
449.01	369.89
449.37	367.90
449.74	365.99
450.11	363.75
450.48	361.29
450.85	358.75
451.22	356.62
451.59	354.61
451.96	352.70
452.33	350.10
452.70	347.72
453.07	344.92
453.43	342.05
453.80	339.34
454.17	336.61
454.54	334.07
454.91	331.34
455.28	328.69
455.65	326.22
456.02	323.78
456.38	321.59
456.75	318.96
457.12	316.71
457.49	314.50
457.86	312.32
458.23	310.50
458.59	308.41
458.96	306.33
459.33	304.48
459.70	302.63
460.07	301.14
460.43	299.39
460.80	297.76
461.17	296.35
461.54	294.82
461.91	293.37
462.27	291.95
462.64	290.71
463.01	289.34
463.38	288.02
463.74	286.66
464.11	285.54
464.48	284.49
464.85	283.38
465.21	282.54
465.58	281.62
465.95	280.48
466.32	279.59
466.68	278.67
467.05	277.76
467.42	276.89
467.78	275.93
468.15	275.09
468.52	274.45
468.88	273.56
469.25	272.80
469.62	272.18
469.98	271.49
470.35	270.84
470.72	270.28
471.08	269.62
471.45	269.08
471.82	268.50
472.18	267.89
472.55	267.46
472.92	266.91
473.28	266.46
473.65	266.03
474.02	265.61
474.38	265.25
474.75	264.92
475.11	264.53
475.48	264.27
475.85	264.01
476.21	263.75
476.58	263.54
476.94	263.37
477.31	263.15
477.67	263.01
478.04	262.87
478.41	262.79
478.77	262.80
479.14	262.70
479.50	262.74
479.87	262.81
480.23	262.87
480.60	262.92
480.96	263.01
481.33	263.20
481.69	263.35
482.06	263.53
482.42	263.69
482.79	263.96
483.15	264.30
483.52	264.68
483.88	265.01
484.25	265.42
484.61	265.86
484.98	266.35
485.34	266.88
485.71	267.48
486.07	268.07
486.44	268.65
486.80	269.37
487.17	270.05
487.53	270.88
487.90	271.72
488.26	272.69
488.62	273.67
488.99	274.63
489.35	275.66
489.72	276.81
490.08	278.00
490.44	279.23
490.81	280.55
491.17	281.88
491.54	283.37
491.90	284.90
492.26	286.55
492.63	288.26
492.99	290.05
493.36	291.97
493.72	294.07
494.08	296.16
494.45	298.42
494.81	300.80
495.17	303.20
495.54	305.81
495.90	308.51
496.26	311.33
496.63	314.27
496.99	317.42
497.35	320.67
497.72	324.11
498.08	327.62
498.44	331.28
498.80	335.23
499.17	339.25
499.53	343.46
499.89	347.88
500.26	352.45
500.62	357.10
500.98	362.05
501.34	367.08
501.71	372.45
502.07	377.89
502.43	383.54
502.79	389.37
503.16	395.43
503.52	401.71
503.88	408.14
504.24	414.83
504.60	421.75
504.97	428.88
505.33	436.22
505.69	443.94
506.05	451.73
506.41	459.63
506.78	467.85
507.14	476.31
507.50	485.06
507.86	494.12
508.22	503.29
508.59	512.55
508.95	522.13
509.31	531.91
509.67	542.03
510.03	552.33
510.39	562.93
510.75	573.71
511.12	584.61
511.48	595.86
511.84	607.33
512.20	618.79
512.56	630.81
512.92	643.05
513.28	655.36
513.64	667.83
514.00	680.50
514.37	693.45
514.73	706.46
515.09	719.46
515.45	732.72
515.81	746.36
516.17	760.31
516.53	774.44
516.89	788.65
517.25	802.92
517.61	817.31
517.97	831.77
518.33	846.24
518.69	860.96
519.05	876.03
519.41	891.16
519.77	906.67
520.13	922.02
520.49	937.38
520.85	952.91
521.21	968.72
521.57	985.00
521.93	1000.74
522.29	1017.23
522.65	1033.46
523.01	1049.62
523.37	1065.74
523.73	1081.94
524.09	1098.00
524.45	1114.33
524.81	1130.90
525.17	1147.71
525.53	1164.56
525.89	1181.46
526.25	1198.32
526.61	1214.65
526.97	1231.38
527.33	1247.83
527.68	1264.49
528.04	1280.94
528.40	1297.55
528.76	1314.50
529.12	1331.07
529.48	1347.91
529.84	1363.87
530.20	1380.41
530.56	1397.46
530.91	1414.85
531.27	1431.60
531.63	1448.10
531.99	1464.72
532.35	1480.66
532.71	1496.61
533.07	1512.87
533.42	1528.74
533.78	1544.83
534.14	1561.02
534.50	1576.47
534.86	1592.48
535.21	1607.56
535.57	1623.46
535.93	1638.91
536.29	1653.72
536.65	1668.89
537.00	1683.78
537.36	1699.27
537.72	1713.85
538.08	1728.24
538.44	1742.01
538.79	1755.92
539.15	1769.57
539.51	1783.32
539.87	1797.66
540.22	1811.33
540.58	1825.06
540.94	1838.45
541.29	1851.35
541.65	1864.11
542.01	1877.25
542.37	1889.55
542.72	1902.12
543.08	1913.88
543.44	1926.20
543.79	1937.54
544.15	1948.48
544.51	1959.84
544.87	1970.61
545.22	1981.43
545.58	1991.71
545.94	2001.43
546.29	2011.23
546.65	2021.10
547.01	2030.26
547.36	2039.01
547.72	2047.57
548.07	2055.49
548.43	2063.65
548.79	2071.74
549.14	2079.36
549.50	2086.76
549.86	2094.58
550.21	2101.79
550.57	2109.06
550.92	2115.55
551.28	2122.60
551.64	2129.67
551.99	2136.21
552.35	2142.39
552.70	2148.63
553.06	2154.60
553.41	2160.93
553.77	2167.04
554.13	2173.16
554.48	2179.33
554.84	2184.64
555.19	2189.89
555.55	2195.04
555.90	2199.36
556.26	2204.20
556.61	2208.93
556.97	2213.30
557.32	2217.38
557.68	2221.63
558.03	2225.82
558.39	2229.58
558.74	2234.11
559.10	2238.03
559.45	2241.90
559.81	2246.18
560.16	2249.98
560.52	2253.13
560.87	2256.49
561.23	2259.00
561.58	2262.04
561.94	2264.38
562.29	2266.86
562.64	2269.56
563.00	2272.30
563.35	2275.88
563.71	2278.98
564.06	2282.07
564.42	2284.86
564.77	2287.33
565.12	2289.49
565.48	2291.40
565.83	2293.31
566.19	2294.52
566.54	2295.31
566.89	2296.29
567.25	2296.91
567.60	2298.18
567.96	2299.87
568.31	2300.82
568.66	2302.08
569.02	2302.52
569.37	2303.01
569.72	2303.82
570.08	2303.92
570.43	2303.82
570.78	2303.17
571.14	2301.64
571.49	2300.31
571.84	2299.95
572.20	2298.69
572.55	2297.58
572.90	2295.95
573.26	2294.69
573.61	2293.14
573.96	2291.40
574.31	2288.42
574.67	2285.33
575.02	2281.70
575.37	2278.29
575.72	2274.39
576.08	2271.03
576.43	2267.67
576.78	2263.99
577.13	2260.94
577.49	2257.71
577.84	2254.16
578.19	2250.48
578.54	2246.83
578.90	2242.56
579.25	2237.06
579.60	2232.16
579.95	2227.22
580.30	2222.36
580.66	2217.00
581.01	2212.06
581.36	2207.13
581.71	2202.90
582.06	2198.42
582.42	2193.91
582.77	2188.59
583.12	2184.13
583.47	2179.19
583.82	2174.08
584.17	2168.78
584.53	2163.22
584.88	2157.55
585.23	2151.70
585.58	2146.21
585.93	2140.65
586.28	2135.97
586.63	2130.82
586.98	2125.59
587.34	2120.82
587.69	2115.88
588.04	2110.55
588.39	2104.79
588.74	2098.18
589.09	2092.19
589.44	2085.39
589.79	2079.50
590.14	2074.05
590.49	2067.34
590.84	2061.01
591.19	2055.18
591.54	2048.73
591.89	2041.26
592.25	2034.49
592.60	2027.29
592.95	2019.64
593.30	2012.38
593.65	2004.70
594.00	1997.66
594.35	1990.56
594.70	1982.59
595.05	1975.33
595.40	1968.16
595.75	1960.61
596.10	1954.36
596.45	1947.39
596.80	1941.30
597.15	1934.53
597.50	1927.19
597.85	1920.84
598.19	1914.21
598.54	1906.90
598.89	1900.27
599.24	1894.42
599.59	1887.80
599.94	1881.54
600.29	1875.11
600.64	1868.44
600.99	1861.00
601.34	1854.09
601.69	1847.04
602.04	1840.05
602.39	1832.68
602.74	1825.72
603.08	1819.02
603.43	1812.44
603.78	1805.24
604.13	1797.98
604.48	1790.65
604.83	1783.90
605.18	1776.75
605.53	1768.66
605.87	1760.67
606.22	1753.46
606.57	1745.43
606.92	1738.07
607.27	1730.93
607.62	1724.01
607.96	1716.72
608.31	1710.08
608.66	1702.37
609.01	1694.81
609.36	1687.23
609.70	1679.16
610.05	1671.14
610.40	1663.39
610.75	1654.96
611.10	1647.18
611.44	1638.69
611.79	1630.66
612.14	1621.93
612.49	1612.88
612.83	1604.54
613.18	1596.45
613.53	1588.28
613.88	1579.74
614.22	1571.51
614.57	1562.96
614.92	1554.96
615.27	1547.34
615.61	1539.06
615.96	1531.07
616.31	1523.50
616.65	1516.25
617.00	1508.75
617.35	1501.13
617.70	1492.73
618.04	1484.21
618.39	1476.06
618.74	1468.53
619.08	1460.22
619.43	1452.60
619.78	1445.68
620.12	1438.52
620.47	1430.99
620.82	1422.84
621.16	1415.54
621.51	1407.89
621.85	1400.21
622.20	1391.77
622.55	1383.56
622.89	1375.67
623.24	1367.98
623.59	1360.47
623.93	1352.82
624.28	1345.45
624.62	1337.80
624.97	1330.63
625.32	1323.92
625.66	1316.90
626.01	1309.63
626.35	1302.22
626.70	1294.61
627.04	1286.80
627.39	1279.08
627.73	1271.71
628.08	1264.78
628.43	1257.36
628.77	1249.94
629.12	1242.49
629.46	1235.38
629.81	1227.96
630.15	1220.71
630.50	1213.35
630.84	1205.24
631.19	1197.41
631.53	1190.01
631.88	1182.60
632.22	1175.08
632.57	1167.78
632.91	1160.29
633.26	1152.90
633.60	1145.54
633.95	1138.34
634.29	1131.37
634.64	1124.67
634.98	1117.20
635.32	1110.06
635.67	1103.53
636.01	1096.92
636.36	1089.94
636.70	1083.28
637.05	1076.65
637.39	1070.23
637.73	1063.80
638.08	1057.94
638.42	1051.98
638.77	1045.49
639.11	1038.87
639.45	1032.40
639.80	1025.74
640.14	1019.34
640.49	1012.88
640.83	1006.66
641.17	1000.51
641.52	994.15
641.86	987.65
642.20	981.93
642.55	975.58
642.89	969.06
643.23	962.53
643.58	956.90
643.92	950.74
644.26	944.63
644.61	938.56
644.95	932.44
645.29	925.78
645.64	918.95
645.98	912.66
646.32	906.73
646.66	900.74
647.01	894.94
647.35	889.16
647.69	883.27
648.04	877.69
648.38	871.84
648.72	865.80
649.06	859.67
649.41	853.77
649.75	847.75
650.09	841.84
650.43	836.07
650.78	829.88
651.12	824.00
651.46	818.28
651.80	812.53
652.14	807.25
652.49	801.84
652.83	796.70
653.17	791.01
653.51	785.33
653.85	779.92
654.20	774.27
654.54	768.29
654.88	762.47
655.22	756.56
655.56	750.87
655.90	745.46
656.25	740.30
656.59	734.85
656.93	729.86
657.27	724.65
657.61	719.23
657.95	714.15
658.29	709.02
658.64	703.81
658.98	698.53
659.32	693.02
659.66	687.88
660.00	682.53
660.34	677.61
660.68	672.76
661.02	667.78
661.36	663.04
661.70	658.55
662.05	654.26
662.39	649.95
662.73	645.40
663.07	641.10
663.41	636.58
663.75	632.13
664.09	627.60
664.43	623.20
664.77	619.11
665.11	614.87
665.45	610.72
665.79	606.59
666.13	602.44
666.47	598.31
666.81	594.15
667.15	590.12
667.49	586.21
667.83	582.44
668.17	578.50
668.51	574.40
668.85	570.34
669.19	566.52
669.53	562.66
669.87	558.92
670.21	555.18
670.55	551.60
670.89	548.15
671.23	544.68
671.57	541.17
671.91	537.54
672.25	534.05
672.58	530.51
672.92	527.20
673.26	524.02
673.60	520.97
673.94	517.85
674.28	514.88
674.62	511.95
674.96	508.79
675.30	505.84
675.64	502.98
675.97	500.24
676.31	497.30
676.65	494.38
676.99	491.64
677.33	488.75
677.67	485.98
678.01	482.97
678.34	480.00
678.68	477.14
679.02	474.35
679.36	471.59
679.70	468.99
680.04	466.12
680.37	463.22
680.71	460.35
681.05	457.78
681.39	455.10
681.73	452.40
682.06	449.85
682.40	447.33
682.74	444.79
683.08	442.28
683.42	439.72
683.75	437.23
684.09	434.68
684.43	432.24
684.77	429.72
685.10	427.38
685.44	425.06
685.78	422.78
686.12	420.54
686.45	418.26
686.79	415.87
687.13	413.71
687.46	411.61
687.80	409.50
688.14	407.25
688.48	405.18
688.81	402.93
689.15	400.78
689.49	398.61
689.82	396.51
690.16	394.40
690.50	392.44
690.83	390.49
691.17	388.52
691.51	386.63
691.84	384.85
692.18	382.90
692.52	380.94
692.85	378.99
693.19	377.08
693.52	375.23
693.86	373.43
694.20	371.67
694.53	369.87
694.87	367.99
695.21	366.19
695.54	364.31
695.88	362.57
696.21	360.91
696.55	359.26
696.88	357.58
697.22	355.89
697.56	354.27
697.89	352.64
698.23	351.02
698.56	349.42
698.90	347.80
699.23	346.18
699.57	344.67
699.90	343.12
700.24	341.61
700.58	340.05
700.91	338.54
701.25	337.06
701.58	335.65
701.92	334.31
702.25	332.95
702.59	331.63
702.92	330.32
703.26	329.00
703.59	327.67
703.93	326.50
704.26	325.29
704.60	323.99
704.93	322.68
705.26	321.43
705.60	320.25
705.93	319.11
706.27	318.07
706.60	316.97
706.94	315.93
707.27	314.83
707.61	313.79
707.94	312.81
708.27	311.73
708.61	310.68
708.94	309.65
709.28	308.68
709.61	307.74
709.94	306.76
710.28	305.71
710.61	304.78
710.95	303.71
711.28	302.81
711.61	301.87
711.95	300.94
712.28	300.02
712.61	299.02
712.95	298.09
713.28	297.21
713.61	296.32
713.95	295.41
714.28	294.57
714.61	293.70
714.95	292.83
715.28	292.01
715.61	291.10
715.95	290.30
716.28	289.41
716.61	288.55
716.95	287.79
717.28	287.09
717.61	286.27
717.94	285.53
718.28	284.72
718.61	284.01
718.94	283.32
719.27	282.64
719.61	282.00
719.94	281.32
720.27	280.58
720.60	279.92
720.94	279.28
721.27	278.69
721.60	278.10
721.93	277.54
722.27	276.99
722.60	276.47
722.93	275.86
723.26	275.34
723.59	274.76
723.93	274.21
724.26	273.62
724.59	273.09
724.92	272.58
725.25	272.07
725.59	271.52
725.92	271.01
726.25	270.49
726.58	270.00
726.91	269.48
727.24	269.05
727.57	268.59
727.91	268.08
728.24	267.60
728.57	267.10
728.90	266.58
729.23	266.10
729.56	265.65
729.89	265.16
730.22	264.63
730.55	264.19
730.89	263.73
731.22	263.26
731.55	262.81
731.88	262.37
732.21	261.94
732.54	261.53
732.87	261.10
733.20	260.70
733.53	260.30
733.86	259.94
734.19	259.52
734.52	259.13
734.85	258.81
735.18	258.39
735.51	258.07
735.84	257.69
736.17	257.28
736.50	256.86
736.83	256.66
737.16	256.34
737.49	255.98
737.82	255.61
738.15	255.25
738.48	254.91
738.81	254.57
739.14	254.25
739.47	253.95
739.80	253.66
740.13	253.37
740.46	253.05
740.79	252.72
741.12	252.41
741.45	252.12
741.78	251.78
742.11	251.51
742.44	251.15
742.77	250.90
743.10	250.62
743.43	250.36
743.75	249.99
744.08	249.87
744.41	249.62
744.74	249.37
745.07	249.13
745.40	248.93
745.73	248.71
746.06	248.44
746.39	248.16
746.71	247.87
747.04	247.57
747.37	247.28
747.70	247.04
748.03	246.82
748.36	246.59
748.68	246.34
749.01	246.07
749.34	245.85
749.67	245.63
750.00	245.42
750.33	245.28
750.65	245.06
750.98	244.67
751.31	244.42
751.64	244.20
751.97	244.04
752.29	243.80
752.62	243.60
752.95	243.35
753.28	243.16
753.60	242.94
753.93	242.79
754.26	242.62
754.59	242.41
754.91	242.18
755.24	242.00
755.57	241.83
755.90	241.67
756.22	241.51
756.55	241.31
756.88	241.12
757.20	240.85
757.53	240.64
757.86	240.50
758.19	240.38
758.51	240.24
758.84	240.01
759.17	239.82
759.49	239.62
759.82	239.53
760.15	239.38
760.47	239.29
760.80	239.12
761.13	239.00
761.45	238.85
761.78	238.69
762.11	238.54
762.43	238.39
762.76	238.26
763.08	238.12
763.41	237.95
763.74	237.82
764.06	237.68
764.39	237.58
764.71	237.44
765.04	237.30
765.37	237.14
765.69	237.03
766.02	236.90
766.34	236.80
766.67	236.62
767.00	236.51
767.32	236.45
767.65	236.37
767.97	236.24
768.30	236.14
768.62	236.05
768.95	235.90
769.27	235.79
769.60	235.68
769.92	235.55
770.25	235.44
770.57	235.32
770.90	235.24
771.22	235.10
771.55	235.01
771.87	234.94
772.20	234.85
772.52	234.82
772.85	234.84
773.17	234.75
773.50	234.67
773.82	234.55
774.15	234.38
774.47	234.25
774.80	234.13
775.12	234.02
775.45	233.93
775.77	233.87
776.09	233.79
776.42	233.70
776.74	233.64
777.07	233.56
777.39	233.54
777.72	233.45
778.04	233.42
778.36	233.34
778.69	233.25
779.01	233.18
779.33	233.03
779.66	232.87
779.98	232.77
780.31	232.69
780.63	232.67
780.95	232.63
781.28	232.58
781.60	232.50
781.92	232.42
782.25	232.35
782.57	232.32
782.89	232.27
783.22	232.20
783.54	232.14
783.86	232.12
784.19	232.03
784.51	231.99
784.83	231.93
785.16	231.86
785.48	231.83
785.80	231.79
786.12	231.78
786.45	231.75
786.77	231.72
787.09	231.68
787.42	231.63
787.74	231.58
788.06	231.56
788.38	231.55
788.71	231.50
789.03	231.50
789.35	231.46
789.67	231.39
789.99	231.36
790.32	231.31
790.64	231.24
790.96	231.27
791.28	231.20
791.61	231.14
791.93	231.12
792.25	231.08
792.57	231.09
792.89	231.00
793.21	230.93
793.54	230.90
793.86	230.87
794.18	230.82
794.50	230.81
794.82	230.77
795.14	230.75
795.47	230.73
795.79	230.67
796.11	230.59
796.43	230.56
796.75	230.51
797.07	230.50
797.39	230.47
797.71	230.37
798.04	230.32
798.36	230.33
798.68	230.30
799.00	230.25
799.32	230.18
799.64	230.18
799.96	230.18
800.28	230.17
800.60	230.14
800.92	230.10
801.24	230.04
801.56	230.00
801.89	229.94
802.21	229.92
802.53	229.86
802.85	229.86
803.17	229.87
803.49	229.85
803.81	229.78
804.13	229.77
804.45	229.73
804.77	229.70
805.09	229.64
805.41	229.61
805.73	229.57
806.05	229.55
806.37	229.54
806.69	229.49
807.01	229.42
807.33	229.39
807.65	229.34
807.97	229.31
808.28	229.28
808.60	229.25
808.92	229.23
809.24	229.26
809.56	229.24
809.88	229.16
810.20	229.16
810.52	229.17
810.84	229.13
811.16	229.08
811.48	229.07
811.80	229.07
812.12	229.04
812.43	229.03
812.75	228.97
813.07	228.93
813.39	228.91
813.71	228.88
814.03	228.85
814.35	228.82
814.67	228.81
814.98	228.74
815.30	228.74
815.62	228.73
815.94	228.64
816.26	228.65
816.58	228.62
816.89	228.58
817.21	228.55
817.53	228.53
817.85	228.52
818.17	228.51
818.48	228.46
818.80	228.45
819.12	228.41
819.44	228.38
819.76	228.35
820.07	228.30
820.39	228.29
820.71	228.26
821.03	228.26
821.34	228.21
821.66	228.24
821.98	228.25
822.30	228.20
822.61	228.28
822.93	228.20
823.25	228.20
823.57	228.15
823.88	228.17
824.20	228.13
824.52	228.14
824.83	228.11
825.15	228.08
825.47	228.08
825.79	228.08
826.10	228.08
826.42	228.04
826.74	228.08
827.05	228.08
827.37	228.09
827.69	228.06
828.00	228.08
828.32	228.05
828.64	228.01
828.95	228.06
829.27	228.02
829.58	228.04
829.90	228.08
830.22	228.10
830.53	228.06
830.85	228.09
831.17	228.08
831.48	228.13
831.80	228.16
832.11	228.13
832.43	228.10
832.75	228.09
833.06	228.16
833.38	228.11
833.69	228.11
834.01	228.09
834.32	228.08
834.64	228.07
834.96	228.10
835.27	228.08
835.59	228.04
835.90	227.97
836.22	227.95
836.53	227.92
836.85	227.92
837.16	228.00
837.48	227.96
837.79	227.97
838.11	227.91
838.42	227.89
838.74	227.90
839.05	227.89
839.37	227.88
839.68	227.82
840.00	227.82
840.31	227.82
840.63	227.80
840.94	227.77
841.26	227.75
841.57	227.73
841.88	227.72
842.20	227.71
842.51	227.71
842.83	227.73
843.14	227.76
843.46	227.76
843.77	227.66
844.08	227.67
844.40	227.63
844.71	227.63
845.03	227.60
845.34	227.58
845.65	227.58
845.97	227.59
846.28	227.60
846.60	227.59
846.91	227.57
847.22	227.59
847.54	227.58
847.85	227.59
848.16	227.57
848.48	227.54
848.79	227.58
849.10	227.60
849.42	227.57
849.73	227.51
850.04	227.45
850.36	227.45
850.67	227.45
850.98	227.47
851.30	227.45
851.61	227.43
851.92	227.39
852.23	227.42
852.55	227.40
852.86	227.36
853.17	227.37
853.49	227.33
853.80	227.34
854.11	227.32
854.42	227.33
854.74	227.30
855.05	227.29
855.36	227.21
855.67	227.20
855.99	227.17
856.30	227.25
856.61	227.26
856.92	227.24
857.23	227.24
857.55	227.20
857.86	227.19
858.17	227.21
858.48	227.23
858.79	227.17
859.11	227.18
859.42	227.19
859.73	227.16
860.04	227.17
860.35	227.12
860.66	227.14
860.98	227.14
861.29	227.16
861.60	227.13
861.91	227.14
862.22	227.13
862.53	227.12
862.84	227.03
863.16	227.05
863.47	227.03
863.78	227.02
864.09	227.04
864.40	227.07
864.71	227.11
865.02	227.13
865.33	227.12
865.64	227.09
865.95	227.12
866.27	227.16
866.58	227.19
866.89	227.21
867.20	227.21
867.51	227.18
867.82	227.19
868.13	227.26
868.44	227.23
868.75	227.26
869.06	227.26
869.37	227.27
869.68	227.27
869.99	227.29
870.30	227.33
870.61	227.33
870.92	227.27
871.23	227.25
871.54	227.24
871.85	227.32
872.16	227.33
872.47	227.31
872.78	227.28
873.09	227.25
873.40	227.25
873.71	227.25
874.02	227.27
874.33	227.27
874.64	227.25
874.95	227.30
875.26	227.26
875.56	227.27
875.87	227.26
876.18	227.25
876.49	227.34
876.80	227.30
877.11	227.29
877.42	227.30
877.73	227.29
878.04	227.30
878.35	227.28
878.66	227.30
878.96	227.29
879.27	227.27
879.58	227.30
879.89	227.28
880.20	227.30
880.51	227.31
880.82	227.29
881.12	227.29
881.43	227.24
881.74	227.23
882.05	227.21
882.36	227.22
882.67	227.23
882.97	227.10
883.28	227.09
883.59	227.10
883.90	227.13
884.21	227.11
884.51	227.08
884.82	227.07
885.13	227.04
885.44	227.06
885.74	227.07
886.05	227.08
886.36	227.07
886.67	227.04
886.98	227.07
887.28	227.11
887.59	227.08
887.90	227.12
888.20	227.11
888.51	227.13
888.82	227.12
889.13	227.13
889.43	227.22
889.74	227.22
890.05	227.18
890.35	227.17
890.66	227.15
890.97	227.14
891.28	227.11
891.58	227.10
891.89	227.11
892.20	227.09
892.50	227.07
892.81	227.08
893.12	227.09
893.42	227.04
893.73	227.00
894.04	227.00
894.34	226.95
894.65	226.94
894.95	226.91
895.26	226.92
895.57	226.96
895.87	226.88
896.18	226.92
896.48	226.91
896.79	226.91
897.10	226.94
897.40	226.95
897.71	226.98
898.01	226.99
898.32	226.96
898.63	226.94
898.93	226.92
899.24	226.92
899.54	226.89
899.85	226.88
900.15	226.84
900.46	226.85
900.76	226.91
901.07	226.92
901.38	226.91
901.68	226.90
901.99	226.84
902.29	226.81
902.60	226.77
902.90	226.78
903.21	226.78
903.51	226.76
903.82	226.77
904.12	226.75
904.43	226.76
904.73	226.76
905.03	226.80
905.34	226.90
905.64	226.89
905.95	226.87
906.25	226.86
906.56	226.87
906.86	226.88
907.17	226.87
907.47	226.88
907.77	226.91
908.08	226.91
908.38	226.93
908.69	226.96
908.99	226.99
909.30	227.03
909.60	227.04
909.90	227.05
910.21	227.05
910.51	227.03
910.81	227.01
911.12	227.04
911.42	227.08
911.73	226.99
912.03	227.01
912.33	227.04
912.64	227.06
912.94	227.05
913.24	227.07
913.55	227.05
913.85	227.07
914.15	227.09
914.46	227.09
914.76	227.07
915.06	227.03
915.37	227.03
915.67	226.98
915.97	227.01
916.27	226.99
916.58	227.03
916.88	227.07
917.18	227.06
917.49	227.09
917.79	227.05
918.09	227.04
918.39	227.06
918.70	227.04
919.00	227.01
919.30	227.07
919.60	227.03
919.91	227.01
920.21	227.01
920.51	226.97
920.81	226.96
921.12	227.00
921.42	227.02
921.72	227.01
922.02	227.01
922.32	226.98
922.63	226.99
922.93	226.98
923.23	226.96
923.53	226.95
923.83	226.91
924.13	226.90
924.44	226.92
924.74	226.92
925.04	226.96
925.34	226.94
925.64	226.90
925.94	226.91
926.24	226.95
926.55	226.91
926.85	226.94
927.15	226.96
927.45	226.93
927.75	226.91
928.05	226.92
928.35	226.93
928.65	226.92
928.95	226.91
929.26	226.90
929.56	226.90
929.86	226.90
930.16	226.88
930.46	226.88
930.76	226.89
931.06	226.84
931.36	226.79
931.66	226.85
931.96	226.85
932.26	226.83
932.56	226.78
932.86	226.81
933.16	226.76
933.46	226.72
933.76	226.69
934.06	226.71
934.36	226.74
934.66	226.72
934.96	226.73
935.26	226.77
935.56	226.73
935.86	226.70
936.16	226.70
936.46	226.66
936.76	226.63
937.06	226.61
937.36	226.63
937.66	226.66
937.96	226.63
938.26	226.59
938.56	226.61
938.86	226.64
939.16	226.65
939.46	226.69
939.76	226.72
940.06	226.71
940.35	226.71
940.65	226.65
940.95	226.66
941.25	226.64
941.55	226.60
941.85	226.64
942.15	226.65
942.45	226.69
942.75	226.71
943.04	226.73
943.34	226.75
943.64	226.72
943.94	226.71
944.24	226.71
944.54	226.74
944.84	226.75
945.13	226.72
945.43	226.69
945.73	226.67
946.03	226.68
946.33	226.71
946.62	226.68
946.92	226.70
947.22	226.69
947.52	226.68
947.82	226.69
948.11	226.68
948.41	226.68
948.71	226.64
949.01	226.65
949.31	226.64
949.60	226.64
949.90	226.69
950.20	226.70
950.50	226.74
950.79	226.74
951.09	226.77
951.39	226.77
951.69	226.79
951.98	226.88
952.28	226.84
952.58	226.81
952.87	226.84
953.17	226.86
953.47	226.89
953.76	226.89
954.06	226.90
954.36	226.88
954.66	226.87
954.95	226.89
955.25	226.90
955.55	226.91
955.84	226.88
956.14	226.89
956.44	226.88
956.73	226.82
957.03	226.84
957.32	226.81
957.62	226.82
957.92	226.82
958.21	226.78
958.51	226.90
958.81	226.98
959.10	226.99
959.40	226.98
959.69	226.97
959.99	227.02
960.29	227.00
960.58	226.99
960.88	227.01
961.17	227.04
961.47	227.06
961.76	227.06
962.06	227.08
962.36	227.05
962.65	227.07
962.95	227.12
963.24	227.09
963.54	227.09
963.83	227.09
964.13	227.08
964.42	227.02
964.72	226.94
965.01	226.90
965.31	226.89
965.60	226.85
965.90	226.91
966.19	226.89
966.49	226.89
966.78	226.90
967.08	226.92
967.37	226.87
967.67	226.83
967.96	226.84
968.26	226.81
968.55	226.83
968.85	226.79
969.14	226.78
969.43	226.78
969.73	226.76
970.02	226.75
970.32	226.76
970.61	226.77
970.91	226.73
971.20	226.71
971.49	226.67
971.79	226.69
972.08	226.61
972.38	226.57
972.67	226.57
972.96	226.60
973.26	226.57
973.55	226.61
973.85	226.62
974.14	226.59
974.43	226.64
974.73	226.62
975.02	226.62
975.31	226.58
975.61	226.58
975.90	226.58
976.19	226.59
976.49	226.59
976.78	226.61
977.07	226.61
977.37	226.62
977.66	226.66
977.95	226.64
978.24	226.66
978.54	226.73
978.83	226.71
979.12	226.71
979.42	226.67
979.71	226.65
980.00	226.63
980.29	226.64
980.59	226.56
980.88	226.61
981.17	226.61
981.46	226.61
981.76	226.61
982.05	226.62
982.34	226.62
982.63	226.61
982.93	226.60
983.22	226.64
983.51	226.64
983.80	226.63
984.09	226.66
984.39	226.63
984.68	226.60
984.97	226.59
985.26	226.57
985.55	226.61
985.85	226.60
986.14	226.61
986.43	226.60
986.72	226.62
987.01	226.58
987.30	226.58
987.59	226.59
987.89	226.58
988.18	226.56
988.47	226.55
988.76	226.52
989.05	226.55
989.34	226.54
989.63	226.58
989.92	226.61
990.22	226.58
990.51	226.60
990.80	226.61
991.09	226.64
991.38	226.66
991.67	226.63
991.96	226.64
992.25	226.68
992.54	226.68
992.83	226.71
993.12	226.71
993.41	226.73
993.70	226.76
993.99	226.83
994.28	226.87
994.58	226.90
994.87	226.94
995.16	226.92
995.45	226.88
995.74	226.84
996.03	226.82
996.32	226.87
996.61	226.88
996.90	226.84
997.19	226.84
997.48	226.83
997.77	226.84
998.06	226.83
998.34	226.79
998.63	226.80
998.92	226.81
999.21	226.83
999.50	226.81
999.79	226.79
1000.08	226.74
1000.37	226.74
1000.66	226.72
1000.95	226.71
1001.24	226.72
1001.53	226.77
1001.82	226.76
1002.11	226.73
1002.40	226.72
1002.68	226.77
1002.97	226.84
1003.26	226.86
1003.55	226.84
1003.84	226.85
1004.13	226.87
1004.42	226.86
1004.71	226.88
1004.99	226.83
1005.28	226.85
1005.57	226.88
1005.86	226.88
1006.15	226.88
1006.44	226.86
1006.72	226.88
1007.01	226.84
1007.30	226.83
1007.59	226.83
1007.88	226.84
1008.17	226.86
1008.45	226.83
1008.74	226.75
1009.03	226.70
1009.32	226.66
1009.60	226.67
1009.89	226.68
1010.18	226.66
1010.47	226.67
1010.76	226.66
1011.04	226.66
1011.33	226.67
1011.62	226.69
1011.91	226.64
1012.19	226.63
1012.48	226.60
1012.77	226.57
1013.05	226.62
1013.34	226.63
1013.63	226.60
1013.92	226.59
1014.20	226.60
1014.49	226.59
1014.78	226.63
1015.06	226.61
1015.35	226.62
1015.64	226.63
1015.92	226.63
1016.21	226.62
1016.50	226.61
1016.78	226.61
1017.07	226.64
1017.36	226.59
1017.64	226.54
1017.93	226.57
1018.22	226.58
1018.50	226.60
1018.79	226.58
1019.08	226.56
1019.36	226.53
1019.65	226.52
1019.93	226.55
1020.22	226.52
1020.51	226.57
1020.79	226.53
1021.08	226.78
1021.36	226.31
1021.65	225.84
1021.94	226.91
1022.22	225.93
1022.51	226.45
1022.79	227.11
1023.08	226.34
1023.36	227.54
1023.65	225.98
>>>>>End Processed Spectral Data<<<<<
