SpectraSuite Data File
++++++++++++++++++++++++++++++++++++
Date: Fri Feb 01 15:57:54 EST 2013
User: group
Dark Spectrum Present: No
Reference Spectrum Present: No
Number of Sampled Component Spectra: 1
Spectrometers: USB2E7196
Integration Time (usec): 35000 (USB2E7196)
Spectra Averaged: 100 (USB2E7196)
Boxcar Smoothing: 10 (USB2E7196)
Correct for Electrical Dark: No (USB2E7196)
Strobe/Lamp Enabled: No (USB2E7196)
Correct for Detector Non-linearity: No (USB2E7196)
Correct for Stray Light: No (USB2E7196)
Number of Pixels in Processed Spectrum: 2048
>>>>>Begin Processed Spectral Data<<<<<
339.09	0.00
339.48	214.43
339.86	216.50
340.24	217.64
340.63	219.11
341.01	221.91
341.39	222.30
341.78	222.88
342.16	224.65
342.54	224.62
342.93	213.26
343.31	224.04
343.69	224.59
344.07	225.05
344.46	225.47
344.84	225.86
345.22	226.08
345.60	226.31
345.99	226.53
346.37	226.63
346.75	226.74
347.13	226.84
347.52	226.91
347.90	226.94
348.28	226.97
348.66	226.98
349.05	226.95
349.43	227.00
349.81	227.08
350.19	227.09
350.57	227.09
350.96	227.10
351.34	227.18
351.72	227.30
352.10	227.37
352.48	227.46
352.87	227.46
353.25	227.55
353.63	227.60
354.01	227.68
354.39	227.75
354.77	227.82
355.15	227.90
355.54	227.94
355.92	227.98
356.30	228.02
356.68	228.16
357.06	228.25
357.44	228.31
357.82	228.34
358.20	228.44
358.58	228.53
358.97	228.61
359.35	228.68
359.73	228.72
360.11	228.78
360.49	228.83
360.87	228.90
361.25	228.93
361.63	228.99
362.01	228.97
362.39	229.01
362.77	229.11
363.15	229.11
363.53	229.15
363.91	229.18
364.29	229.23
364.67	229.14
365.05	229.16
365.43	229.17
365.81	229.18
366.19	229.22
366.57	229.24
366.95	229.22
367.33	229.17
367.71	229.18
368.09	229.20
368.47	229.17
368.85	229.13
369.23	229.14
369.61	229.09
369.99	229.12
370.37	229.10
370.75	229.05
371.13	229.00
371.51	228.95
371.89	228.91
372.27	228.86
372.65	228.85
373.03	228.80
373.41	228.75
373.78	228.69
374.16	228.59
374.54	228.52
374.92	228.45
375.30	228.40
375.68	228.30
376.06	228.24
376.44	228.19
376.82	228.14
377.19	228.08
377.57	227.98
377.95	227.90
378.33	227.84
378.71	227.73
379.09	227.71
379.47	227.67
379.84	227.61
380.22	227.55
380.60	227.47
380.98	227.40
381.36	227.30
381.73	227.23
382.11	227.18
382.49	227.12
382.87	227.07
383.25	227.03
383.62	227.08
384.00	227.02
384.38	226.93
384.76	226.91
385.13	226.91
385.51	226.88
385.89	226.83
386.27	226.80
386.64	226.77
387.02	226.68
387.40	226.61
387.78	226.57
388.15	226.51
388.53	226.46
388.91	226.42
389.29	226.41
389.66	226.40
390.04	226.36
390.42	226.37
390.79	226.34
391.17	226.33
391.55	226.21
391.92	226.16
392.30	226.18
392.68	226.15
393.05	226.12
393.43	226.10
393.81	226.09
394.18	226.07
394.56	226.09
394.94	226.12
395.31	226.15
395.69	226.20
396.06	226.25
396.44	226.27
396.82	226.27
397.19	226.34
397.57	226.35
397.95	226.42
398.32	226.43
398.70	226.51
399.07	226.56
399.45	226.62
399.82	226.70
400.20	226.76
400.58	226.83
400.95	226.83
401.33	226.97
401.70	227.08
402.08	227.17
402.45	227.26
402.83	227.37
403.20	227.45
403.58	227.51
403.95	227.62
404.33	227.75
404.71	227.87
405.08	228.05
405.46	228.23
405.83	228.37
406.21	228.48
406.58	228.62
406.96	228.77
407.33	228.97
407.70	229.16
408.08	229.46
408.45	229.66
408.83	229.92
409.20	230.13
409.58	230.34
409.95	230.60
410.33	230.85
410.70	231.13
411.08	231.44
411.45	231.77
411.82	232.10
412.20	232.48
412.57	232.91
412.95	233.19
413.32	233.58
413.69	233.96
414.07	234.42
414.44	234.91
414.82	235.44
415.19	235.96
415.56	236.51
415.94	237.03
416.31	237.68
416.68	238.32
417.06	239.04
417.43	239.74
417.81	240.50
418.18	241.28
418.55	242.10
418.93	242.96
419.30	243.84
419.67	244.77
420.04	245.72
420.42	246.71
420.79	247.88
421.16	249.05
421.54	250.27
421.91	251.50
422.28	252.75
422.66	254.05
423.03	255.38
423.40	256.76
423.77	258.16
424.15	259.57
424.52	261.08
424.89	262.65
425.26	264.20
425.64	265.64
426.01	267.24
426.38	268.91
426.75	270.59
427.13	272.35
427.50	274.12
427.87	276.00
428.24	277.89
428.61	279.63
428.99	281.56
429.36	283.68
429.73	285.76
430.10	287.80
430.47	289.87
430.85	291.97
431.22	294.16
431.59	296.52
431.96	298.76
432.33	301.26
432.70	303.68
433.08	306.47
433.45	309.11
433.82	311.74
434.19	314.61
434.56	317.45
434.93	320.12
435.30	322.74
435.68	325.65
436.05	328.46
436.42	331.27
436.79	333.81
437.16	336.51
437.53	339.33
437.90	342.11
438.27	344.85
438.64	347.68
439.01	350.25
439.38	352.49
439.75	354.67
440.13	357.14
440.50	359.43
440.87	361.31
441.24	363.25
441.61	365.39
441.98	366.89
442.35	368.64
442.72	370.47
443.09	372.32
443.46	373.28
443.83	373.86
444.20	374.34
444.57	375.18
444.94	375.41
445.31	375.71
445.68	376.10
446.05	376.14
446.42	375.77
446.79	375.39
447.16	374.92
447.53	374.57
447.90	373.37
448.27	372.20
448.64	370.57
449.01	369.40
449.37	367.47
449.74	365.54
450.11	363.27
450.48	360.77
450.85	358.17
451.22	356.04
451.59	354.03
451.96	352.09
452.33	349.46
452.70	347.12
453.07	344.31
453.43	341.39
453.80	338.64
454.17	335.95
454.54	333.37
454.91	330.67
455.28	328.01
455.65	325.55
456.02	323.10
456.38	320.94
456.75	318.35
457.12	316.06
457.49	313.86
457.86	311.73
458.23	309.92
458.59	307.92
458.96	305.80
459.33	303.94
459.70	302.10
460.07	300.62
460.43	298.90
460.80	297.25
461.17	295.79
461.54	294.32
461.91	292.87
462.27	291.44
462.64	290.22
463.01	288.91
463.38	287.63
463.74	286.29
464.11	285.15
464.48	284.11
464.85	283.03
465.21	282.19
465.58	281.29
465.95	280.16
466.32	279.28
466.68	278.40
467.05	277.54
467.42	276.64
467.78	275.70
468.15	274.82
468.52	274.21
468.88	273.38
469.25	272.58
469.62	272.00
469.98	271.33
470.35	270.70
470.72	270.08
471.08	269.46
471.45	268.93
471.82	268.40
472.18	267.82
472.55	267.40
472.92	266.89
473.28	266.40
473.65	266.00
474.02	265.55
474.38	265.20
474.75	264.86
475.11	264.54
475.48	264.29
475.85	264.12
476.21	263.88
476.58	263.75
476.94	263.62
477.31	263.42
477.67	263.28
478.04	263.16
478.41	263.13
478.77	263.17
479.14	263.12
479.50	263.12
479.87	263.17
480.23	263.23
480.60	263.30
480.96	263.40
481.33	263.61
481.69	263.79
482.06	264.01
482.42	264.21
482.79	264.48
483.15	264.80
483.52	265.17
483.88	265.49
484.25	265.86
484.61	266.28
484.98	266.76
485.34	267.34
485.71	267.94
486.07	268.54
486.44	269.09
486.80	269.77
487.17	270.50
487.53	271.32
487.90	272.20
488.26	273.12
488.62	274.09
488.99	275.08
489.35	276.10
489.72	277.22
490.08	278.40
490.44	279.62
490.81	280.98
491.17	282.31
491.54	283.77
491.90	285.29
492.26	286.94
492.63	288.68
492.99	290.43
493.36	292.29
493.72	294.34
494.08	296.42
494.45	298.66
494.81	301.01
495.17	303.42
495.54	305.96
495.90	308.63
496.26	311.41
496.63	314.31
496.99	317.48
497.35	320.72
497.72	324.14
498.08	327.68
498.44	331.32
498.80	335.22
499.17	339.28
499.53	343.47
499.89	347.79
500.26	352.28
500.62	356.95
500.98	361.92
501.34	367.00
501.71	372.34
502.07	377.75
502.43	383.41
502.79	389.26
503.16	395.28
503.52	401.55
503.88	407.96
504.24	414.62
504.60	421.50
504.97	428.58
505.33	435.87
505.69	443.51
506.05	451.27
506.41	459.12
506.78	467.23
507.14	475.69
507.50	484.48
507.86	493.57
508.22	502.74
508.59	511.96
508.95	521.49
509.31	531.32
509.67	541.43
510.03	551.68
510.39	562.20
510.75	573.01
511.12	583.89
511.48	595.26
511.84	606.64
512.20	618.11
512.56	630.13
512.92	642.39
513.28	654.84
513.64	667.36
514.00	680.11
514.37	693.15
514.73	706.16
515.09	719.21
515.45	732.44
515.81	746.03
516.17	760.06
516.53	774.23
516.89	788.48
517.25	802.72
517.61	817.10
517.97	831.60
518.33	846.03
518.69	860.85
519.05	875.75
519.41	890.98
519.77	906.60
520.13	922.00
520.49	937.28
520.85	952.66
521.21	968.37
521.57	984.62
521.93	1000.24
522.29	1016.68
522.65	1032.95
523.01	1049.17
523.37	1065.26
523.73	1081.35
524.09	1097.37
524.45	1113.67
524.81	1130.25
525.17	1147.06
525.53	1163.94
525.89	1180.79
526.25	1197.60
526.61	1213.93
526.97	1230.69
527.33	1247.04
527.68	1263.60
528.04	1280.06
528.40	1296.60
528.76	1313.60
529.12	1330.08
529.48	1346.93
529.84	1362.91
530.20	1379.50
530.56	1396.45
530.91	1413.76
531.27	1430.47
531.63	1446.92
531.99	1463.33
532.35	1479.17
532.71	1494.98
533.07	1511.11
533.42	1526.89
533.78	1542.94
534.14	1559.30
534.50	1574.62
534.86	1590.51
535.21	1605.69
535.57	1621.56
535.93	1636.98
536.29	1651.68
536.65	1666.77
537.00	1681.48
537.36	1696.69
537.72	1711.06
538.08	1725.52
538.44	1739.28
538.79	1753.20
539.15	1766.84
539.51	1780.60
539.87	1794.91
540.22	1808.62
540.58	1822.48
540.94	1835.84
541.29	1848.49
541.65	1861.07
542.01	1874.19
542.37	1886.40
542.72	1898.67
543.08	1910.39
543.44	1922.79
543.79	1934.10
544.15	1945.14
544.51	1956.75
544.87	1967.71
545.22	1978.53
545.58	1988.59
545.94	1998.32
546.29	2008.14
546.65	2018.03
547.01	2027.12
547.36	2035.75
547.72	2044.22
548.07	2051.90
548.43	2060.11
548.79	2068.38
549.14	2075.83
549.50	2083.15
549.86	2090.82
550.21	2098.24
550.57	2105.50
550.92	2111.91
551.28	2118.84
551.64	2125.77
551.99	2132.23
552.35	2138.30
552.70	2144.47
553.06	2150.53
553.41	2156.89
553.77	2162.89
554.13	2168.84
554.48	2175.09
554.84	2180.64
555.19	2186.03
555.55	2191.20
555.90	2195.61
556.26	2200.39
556.61	2205.31
556.97	2209.54
557.32	2213.69
557.68	2217.73
558.03	2221.96
558.39	2225.87
558.74	2230.59
559.10	2234.48
559.45	2238.31
559.81	2242.78
560.16	2246.67
560.52	2249.98
560.87	2253.34
561.23	2255.93
561.58	2259.08
561.94	2261.61
562.29	2264.14
562.64	2266.82
563.00	2269.50
563.35	2273.00
563.71	2276.09
564.06	2279.17
564.42	2282.14
564.77	2284.67
565.12	2287.04
565.48	2288.94
565.83	2290.84
566.19	2292.21
566.54	2293.10
566.89	2294.02
567.25	2294.54
567.60	2295.82
567.96	2297.31
568.31	2298.18
568.66	2299.35
569.02	2299.87
569.37	2300.21
569.72	2301.00
570.08	2301.07
570.43	2301.19
570.78	2300.49
571.14	2299.09
571.49	2297.77
571.84	2297.51
572.20	2296.37
572.55	2295.34
572.90	2293.86
573.26	2292.34
573.61	2290.48
573.96	2288.82
574.31	2286.13
574.67	2283.15
575.02	2279.49
575.37	2276.26
575.72	2272.41
576.08	2269.09
576.43	2265.69
576.78	2262.02
577.13	2258.89
577.49	2255.78
577.84	2252.02
578.19	2248.42
578.54	2244.64
578.90	2240.33
579.25	2234.73
579.60	2229.68
579.95	2224.59
580.30	2219.58
580.66	2214.39
581.01	2209.53
581.36	2204.64
581.71	2200.43
582.06	2195.95
582.42	2191.43
582.77	2186.13
583.12	2181.72
583.47	2176.94
583.82	2171.94
584.17	2166.76
584.53	2161.14
584.88	2155.51
585.23	2149.88
585.58	2144.47
585.93	2139.09
586.28	2134.39
586.63	2129.30
586.98	2124.31
587.34	2119.73
587.69	2114.72
588.04	2109.44
588.39	2103.84
588.74	2097.31
589.09	2091.06
589.44	2084.32
589.79	2078.38
590.14	2072.81
590.49	2066.14
590.84	2059.86
591.19	2053.78
591.54	2047.27
591.89	2039.98
592.25	2033.21
592.60	2025.97
592.95	2018.37
593.30	2010.97
593.65	2003.23
594.00	1996.04
594.35	1988.83
594.70	1980.80
595.05	1973.55
595.40	1966.32
595.75	1958.85
596.10	1952.66
596.45	1945.92
596.80	1939.81
597.15	1933.13
597.50	1925.74
597.85	1919.23
598.19	1912.38
598.54	1905.17
598.89	1898.46
599.24	1892.60
599.59	1885.86
599.94	1879.71
600.29	1873.42
600.64	1866.96
600.99	1859.77
601.34	1853.08
601.69	1846.15
602.04	1839.15
602.39	1831.96
602.74	1825.13
603.08	1818.37
603.43	1811.56
603.78	1804.16
604.13	1796.90
604.48	1789.46
604.83	1782.85
605.18	1775.89
605.53	1768.02
605.87	1760.12
606.22	1752.96
606.57	1744.95
606.92	1737.71
607.27	1730.49
607.62	1723.43
607.96	1716.15
608.31	1709.47
608.66	1701.77
609.01	1694.14
609.36	1686.70
609.70	1678.70
610.05	1670.64
610.40	1662.82
610.75	1654.60
611.10	1647.04
611.44	1638.68
611.79	1630.86
612.14	1622.10
612.49	1612.99
612.83	1604.61
613.18	1596.55
613.53	1588.52
613.88	1579.90
614.22	1571.54
614.57	1563.08
614.92	1555.14
615.27	1547.45
615.61	1539.19
615.96	1531.25
616.31	1523.74
616.65	1516.28
617.00	1508.63
617.35	1501.00
617.70	1492.67
618.04	1484.10
618.39	1475.93
618.74	1468.30
619.08	1460.06
619.43	1452.55
619.78	1445.65
620.12	1438.52
620.47	1430.90
620.82	1422.63
621.16	1415.25
621.51	1407.76
621.85	1400.09
622.20	1391.54
622.55	1383.27
622.89	1375.38
623.24	1367.78
623.59	1360.38
623.93	1352.87
624.28	1345.67
624.62	1338.02
624.97	1330.90
625.32	1324.14
625.66	1317.08
626.01	1309.81
626.35	1302.29
626.70	1294.58
627.04	1286.93
627.39	1279.16
627.73	1271.79
628.08	1264.94
628.43	1257.59
628.77	1250.12
629.12	1242.52
629.46	1235.42
629.81	1228.09
630.15	1220.80
630.50	1213.34
630.84	1205.14
631.19	1197.27
631.53	1189.80
631.88	1182.35
632.22	1174.75
632.57	1167.43
632.91	1159.82
633.26	1152.35
633.60	1145.01
633.95	1137.94
634.29	1130.82
634.64	1124.14
634.98	1116.75
635.32	1109.51
635.67	1103.04
636.01	1096.41
636.36	1089.64
636.70	1083.11
637.05	1076.48
637.39	1070.01
637.73	1063.54
638.08	1057.62
638.42	1051.50
638.77	1044.98
639.11	1038.36
639.45	1031.92
639.80	1025.34
640.14	1019.04
640.49	1012.54
640.83	1006.20
641.17	999.84
641.52	993.49
641.86	986.95
642.20	981.20
642.55	974.99
642.89	968.50
643.23	962.00
643.58	956.20
643.92	949.96
644.26	943.82
644.61	937.82
644.95	931.83
645.29	925.19
645.64	918.54
645.98	912.27
646.32	906.55
646.66	900.56
647.01	894.72
647.35	888.94
647.69	883.19
648.04	877.77
648.38	872.05
648.72	866.12
649.06	860.12
649.41	854.21
649.75	848.18
650.09	842.33
650.43	836.61
650.78	830.55
651.12	824.65
651.46	818.96
651.80	813.15
652.14	807.76
652.49	802.50
652.83	797.41
653.17	791.67
653.51	785.86
653.85	780.52
654.20	774.85
654.54	768.91
654.88	763.10
655.22	757.11
655.56	751.44
655.90	746.10
656.25	740.89
656.59	735.55
656.93	730.54
657.27	725.31
657.61	719.81
657.95	714.69
658.29	709.60
658.64	704.37
658.98	699.11
659.32	693.56
659.66	688.29
660.00	682.92
660.34	678.04
660.68	673.20
661.02	668.17
661.36	663.52
661.70	659.01
662.05	654.69
662.39	650.42
662.73	645.87
663.07	641.37
663.41	636.89
663.75	632.36
664.09	627.79
664.43	623.40
664.77	619.29
665.11	615.00
665.45	610.90
665.79	606.77
666.13	602.64
666.47	598.63
666.81	594.42
667.15	590.28
667.49	586.37
667.83	582.50
668.17	578.51
668.51	574.35
668.85	570.29
669.19	566.45
669.53	562.55
669.87	558.73
670.21	555.06
670.55	551.37
670.89	548.00
671.23	544.51
671.57	540.99
671.91	537.40
672.25	533.83
672.58	530.20
672.92	526.83
673.26	523.69
673.60	520.47
673.94	517.38
674.28	514.51
674.62	511.52
674.96	508.41
675.30	505.50
675.64	502.55
675.97	499.80
676.31	496.92
676.65	494.02
676.99	491.26
677.33	488.39
677.67	485.61
678.01	482.52
678.34	479.56
678.68	476.63
679.02	473.79
679.36	471.05
679.70	468.37
680.04	465.62
680.37	462.68
680.71	459.90
681.05	457.29
681.39	454.56
681.73	451.99
682.06	449.45
682.40	446.88
682.74	444.41
683.08	441.86
683.42	439.26
683.75	436.74
684.09	434.22
684.43	431.71
684.77	429.25
685.10	426.93
685.44	424.66
685.78	422.39
686.12	420.18
686.45	417.91
686.79	415.62
687.13	413.44
687.46	411.34
687.80	409.18
688.14	407.00
688.48	404.88
688.81	402.59
689.15	400.47
689.49	398.38
689.82	396.27
690.16	394.21
690.50	392.24
690.83	390.31
691.17	388.32
691.51	386.52
691.84	384.68
692.18	382.75
692.52	380.77
692.85	378.85
693.19	376.98
693.52	375.16
693.86	373.37
694.20	371.55
694.53	369.76
694.87	367.94
695.21	366.17
695.54	364.42
695.88	362.73
696.21	361.04
696.55	359.34
696.88	357.67
697.22	356.02
697.56	354.44
697.89	352.81
698.23	351.22
698.56	349.59
698.90	347.98
699.23	346.38
699.57	344.83
699.90	343.29
700.24	341.80
700.58	340.29
700.91	338.74
701.25	337.38
701.58	336.02
701.92	334.68
702.25	333.28
702.59	331.91
702.92	330.58
703.26	329.24
703.59	327.97
703.93	326.81
704.26	325.59
704.60	324.26
704.93	322.99
705.26	321.75
705.60	320.57
705.93	319.43
706.27	318.37
706.60	317.28
706.94	316.20
707.27	315.02
707.61	313.97
707.94	313.04
708.27	311.89
708.61	310.78
708.94	309.78
709.28	308.80
709.61	307.83
709.94	306.85
710.28	305.83
710.61	304.82
710.95	303.73
711.28	302.76
711.61	301.82
711.95	300.90
712.28	299.95
712.61	298.93
712.95	297.98
713.28	297.10
713.61	296.19
713.95	295.31
714.28	294.45
714.61	293.52
714.95	292.62
715.28	291.76
715.61	290.89
715.95	289.97
716.28	289.11
716.61	288.24
716.95	287.41
717.28	286.66
717.61	285.87
717.94	285.12
718.28	284.31
718.61	283.57
718.94	282.85
719.27	282.16
719.61	281.52
719.94	280.83
720.27	280.09
720.60	279.43
720.94	278.79
721.27	278.19
721.60	277.63
721.93	277.05
722.27	276.49
722.60	275.92
722.93	275.38
723.26	274.82
723.59	274.26
723.93	273.72
724.26	273.16
724.59	272.60
724.92	272.09
725.25	271.61
725.59	271.11
725.92	270.64
726.25	270.16
726.58	269.69
726.91	269.18
727.24	268.74
727.57	268.31
727.91	267.81
728.24	267.34
728.57	266.90
728.90	266.45
729.23	265.92
729.56	265.52
729.89	265.01
730.22	264.55
730.55	264.10
730.89	263.70
731.22	263.26
731.55	262.91
731.88	262.48
732.21	262.08
732.54	261.63
732.87	261.17
733.20	260.77
733.53	260.36
733.86	260.04
734.19	259.63
734.52	259.23
734.85	258.97
735.18	258.57
735.51	258.20
735.84	257.86
736.17	257.55
736.50	257.16
736.83	256.96
737.16	256.64
737.49	256.32
737.82	255.96
738.15	255.67
738.48	255.27
738.81	254.93
739.14	254.57
739.47	254.28
739.80	254.02
740.13	253.72
740.46	253.45
740.79	253.12
741.12	252.82
741.45	252.53
741.78	252.14
742.11	251.89
742.44	251.55
742.77	251.24
743.10	250.93
743.43	250.66
743.75	250.34
744.08	250.19
744.41	249.92
744.74	249.65
745.07	249.33
745.40	249.11
745.73	248.91
746.06	248.66
746.39	248.38
746.71	248.09
747.04	247.82
747.37	247.53
747.70	247.31
748.03	247.03
748.36	246.83
748.68	246.61
749.01	246.35
749.34	246.13
749.67	245.90
750.00	245.71
750.33	245.53
750.65	245.29
750.98	244.93
751.31	244.70
751.64	244.52
751.97	244.36
752.29	244.17
752.62	243.87
752.95	243.66
753.28	243.46
753.60	243.25
753.93	243.08
754.26	242.88
754.59	242.62
754.91	242.45
755.24	242.22
755.57	242.02
755.90	241.82
756.22	241.65
756.55	241.42
756.88	241.23
757.20	240.99
757.53	240.75
757.86	240.61
758.19	240.44
758.51	240.23
758.84	240.01
759.17	239.82
759.49	239.66
759.82	239.57
760.15	239.38
760.47	239.23
760.80	239.04
761.13	238.90
761.45	238.76
761.78	238.59
762.11	238.44
762.43	238.28
762.76	238.14
763.08	238.00
763.41	237.91
763.74	237.76
764.06	237.63
764.39	237.49
764.71	237.32
765.04	237.20
765.37	237.08
765.69	236.95
766.02	236.83
766.34	236.70
766.67	236.50
767.00	236.41
767.32	236.34
767.65	236.31
767.97	236.17
768.30	236.04
768.62	235.95
768.95	235.77
769.27	235.64
769.60	235.57
769.92	235.44
770.25	235.29
770.57	235.14
770.90	235.01
771.22	234.92
771.55	234.84
771.87	234.72
772.20	234.61
772.52	234.61
772.85	234.61
773.17	234.55
773.50	234.43
773.82	234.32
774.15	234.18
774.47	234.00
774.80	233.91
775.12	233.81
775.45	233.69
775.77	233.65
776.09	233.57
776.42	233.45
776.74	233.43
777.07	233.34
777.39	233.30
777.72	233.24
778.04	233.19
778.36	233.12
778.69	233.06
779.01	233.01
779.33	232.85
779.66	232.68
779.98	232.61
780.31	232.57
780.63	232.59
780.95	232.57
781.28	232.52
781.60	232.47
781.92	232.39
782.25	232.33
782.57	232.29
782.89	232.23
783.22	232.17
783.54	232.06
783.86	232.01
784.19	231.94
784.51	231.91
784.83	231.83
785.16	231.76
785.48	231.70
785.80	231.64
786.12	231.59
786.45	231.54
786.77	231.50
787.09	231.48
787.42	231.36
787.74	231.30
788.06	231.26
788.38	231.18
788.71	231.18
789.03	231.16
789.35	231.13
789.67	231.09
789.99	231.08
790.32	231.01
790.64	230.99
790.96	231.02
791.28	230.95
791.61	230.93
791.93	230.92
792.25	230.89
792.57	230.89
792.89	230.84
793.21	230.81
793.54	230.74
793.86	230.67
794.18	230.66
794.50	230.60
794.82	230.52
795.14	230.57
795.47	230.54
795.79	230.49
796.11	230.42
796.43	230.41
796.75	230.35
797.07	230.34
797.39	230.31
797.71	230.21
798.04	230.20
798.36	230.13
798.68	230.09
799.00	230.07
799.32	230.04
799.64	230.05
799.96	230.01
800.28	230.01
800.60	229.99
800.92	229.95
801.24	229.92
801.56	229.90
801.89	229.84
802.21	229.81
802.53	229.77
802.85	229.75
803.17	229.74
803.49	229.68
803.81	229.64
804.13	229.62
804.45	229.59
804.77	229.58
805.09	229.56
805.41	229.49
805.73	229.44
806.05	229.37
806.37	229.30
806.69	229.23
807.01	229.21
807.33	229.18
807.65	229.10
807.97	229.12
808.28	229.09
808.60	229.04
808.92	229.01
809.24	229.01
809.56	229.01
809.88	228.97
810.20	228.97
810.52	228.94
810.84	228.89
811.16	228.86
811.48	228.79
811.80	228.80
812.12	228.77
812.43	228.73
812.75	228.69
813.07	228.66
813.39	228.67
813.71	228.61
814.03	228.57
814.35	228.59
814.67	228.53
814.98	228.52
815.30	228.50
815.62	228.45
815.94	228.36
816.26	228.35
816.58	228.29
816.89	228.26
817.21	228.24
817.53	228.22
817.85	228.20
818.17	228.20
818.48	228.15
818.80	228.18
819.12	228.15
819.44	228.13
819.76	228.13
820.07	228.12
820.39	228.09
820.71	228.08
821.03	228.06
821.34	228.02
821.66	228.03
821.98	228.00
822.30	228.03
822.61	228.11
822.93	228.04
823.25	228.03
823.57	228.05
823.88	228.05
824.20	228.06
824.52	228.05
824.83	228.05
825.15	228.03
825.47	227.99
825.79	228.03
826.10	228.03
826.42	227.99
826.74	227.99
827.05	228.01
827.37	228.00
827.69	228.01
828.00	228.02
828.32	228.00
828.64	228.04
828.95	228.08
829.27	228.06
829.58	228.07
829.90	228.10
830.22	228.10
830.53	228.06
830.85	228.02
831.17	228.03
831.48	228.05
831.80	228.08
832.11	228.09
832.43	228.08
832.75	228.09
833.06	228.17
833.38	228.14
833.69	228.13
834.01	228.14
834.32	228.12
834.64	228.11
834.96	228.11
835.27	228.11
835.59	228.09
835.90	228.03
836.22	228.01
836.53	227.99
836.85	227.96
837.16	228.11
837.48	228.11
837.79	228.12
838.11	228.11
838.42	228.08
838.74	228.09
839.05	228.09
839.37	228.05
839.68	227.99
840.00	227.97
840.31	227.97
840.63	227.96
840.94	227.94
841.26	227.95
841.57	227.91
841.88	227.89
842.20	227.85
842.51	227.86
842.83	227.88
843.14	227.95
843.46	227.93
843.77	227.85
844.08	227.82
844.40	227.78
844.71	227.72
845.03	227.72
845.34	227.69
845.65	227.66
845.97	227.69
846.28	227.67
846.60	227.68
846.91	227.69
847.22	227.68
847.54	227.66
847.85	227.62
848.16	227.60
848.48	227.57
848.79	227.60
849.10	227.59
849.42	227.60
849.73	227.50
850.04	227.50
850.36	227.45
850.67	227.46
850.98	227.42
851.30	227.44
851.61	227.40
851.92	227.37
852.23	227.34
852.55	227.31
852.86	227.27
853.17	227.28
853.49	227.26
853.80	227.27
854.11	227.28
854.42	227.30
854.74	227.29
855.05	227.28
855.36	227.18
855.67	227.15
855.99	227.12
856.30	227.22
856.61	227.21
856.92	227.18
857.23	227.16
857.55	227.17
857.86	227.19
858.17	227.21
858.48	227.20
858.79	227.21
859.11	227.20
859.42	227.20
859.73	227.17
860.04	227.17
860.35	227.15
860.66	227.10
860.98	227.13
861.29	227.15
861.60	227.15
861.91	227.17
862.22	227.18
862.53	227.17
862.84	227.05
863.16	227.09
863.47	227.08
863.78	227.09
864.09	227.12
864.40	227.11
864.71	227.10
865.02	227.13
865.33	227.11
865.64	227.14
865.95	227.12
866.27	227.19
866.58	227.20
866.89	227.20
867.20	227.22
867.51	227.21
867.82	227.21
868.13	227.25
868.44	227.25
868.75	227.27
869.06	227.30
869.37	227.33
869.68	227.28
869.99	227.31
870.30	227.34
870.61	227.35
870.92	227.33
871.23	227.33
871.54	227.36
871.85	227.39
872.16	227.40
872.47	227.44
872.78	227.41
873.09	227.42
873.40	227.42
873.71	227.44
874.02	227.44
874.33	227.45
874.64	227.43
874.95	227.45
875.26	227.44
875.56	227.46
875.87	227.45
876.18	227.46
876.49	227.59
876.80	227.57
877.11	227.54
877.42	227.54
877.73	227.56
878.04	227.53
878.35	227.54
878.66	227.52
878.96	227.50
879.27	227.48
879.58	227.49
879.89	227.49
880.20	227.51
880.51	227.46
880.82	227.46
881.12	227.48
881.43	227.50
881.74	227.48
882.05	227.44
882.36	227.42
882.67	227.44
882.97	227.28
883.28	227.29
883.59	227.28
883.90	227.31
884.21	227.32
884.51	227.29
884.82	227.26
885.13	227.23
885.44	227.23
885.74	227.21
886.05	227.20
886.36	227.20
886.67	227.17
886.98	227.26
887.28	227.24
887.59	227.17
887.90	227.12
888.20	227.11
888.51	227.09
888.82	227.08
889.13	227.07
889.43	227.15
889.74	227.13
890.05	227.13
890.35	227.10
890.66	227.08
890.97	227.07
891.28	227.06
891.58	227.08
891.89	227.06
892.20	227.06
892.50	227.01
892.81	226.96
893.12	226.93
893.42	226.84
893.73	226.86
894.04	226.85
894.34	226.90
894.65	226.89
894.95	226.90
895.26	226.90
895.57	226.94
895.87	226.82
896.18	226.82
896.48	226.83
896.79	226.79
897.10	226.76
897.40	226.75
897.71	226.77
898.01	226.75
898.32	226.76
898.63	226.73
898.93	226.74
899.24	226.74
899.54	226.74
899.85	226.72
900.15	226.70
900.46	226.72
900.76	226.69
901.07	226.69
901.38	226.67
901.68	226.69
901.99	226.62
902.29	226.63
902.60	226.64
902.90	226.64
903.21	226.66
903.51	226.68
903.82	226.71
904.12	226.70
904.43	226.71
904.73	226.70
905.03	226.69
905.34	226.78
905.64	226.78
905.95	226.80
906.25	226.82
906.56	226.86
906.86	226.83
907.17	226.80
907.47	226.83
907.77	226.81
908.08	226.75
908.38	226.78
908.69	226.80
908.99	226.83
909.30	226.81
909.60	226.79
909.90	226.78
910.21	226.77
910.51	226.78
910.81	226.77
911.12	226.79
911.42	226.83
911.73	226.74
912.03	226.75
912.33	226.76
912.64	226.74
912.94	226.72
913.24	226.73
913.55	226.77
913.85	226.78
914.15	226.80
914.46	226.85
914.76	226.87
915.06	226.86
915.37	226.87
915.67	226.89
915.97	226.96
916.27	226.97
916.58	226.97
916.88	226.96
917.18	226.98
917.49	227.07
917.79	227.07
918.09	227.10
918.39	227.15
918.70	227.16
919.00	227.19
919.30	227.24
919.60	227.24
919.91	227.26
920.21	227.21
920.51	227.22
920.81	227.20
921.12	227.22
921.42	227.23
921.72	227.20
922.02	227.20
922.32	227.19
922.63	227.19
922.93	227.23
923.23	227.25
923.53	227.27
923.83	227.19
924.13	227.22
924.44	227.20
924.74	227.22
925.04	227.22
925.34	227.17
925.64	227.13
925.94	227.13
926.24	227.16
926.55	227.17
926.85	227.16
927.15	227.20
927.45	227.15
927.75	227.16
928.05	227.18
928.35	227.19
928.65	227.20
928.95	227.18
929.26	227.13
929.56	227.13
929.86	227.10
930.16	227.09
930.46	227.06
930.76	227.04
931.06	226.95
931.36	226.93
931.66	226.99
931.96	227.00
932.26	226.99
932.56	226.91
932.86	226.89
933.16	226.88
933.46	226.84
933.76	226.81
934.06	226.82
934.36	226.78
934.66	226.75
934.96	226.70
935.26	226.71
935.56	226.74
935.86	226.69
936.16	226.69
936.46	226.67
936.76	226.67
937.06	226.66
937.36	226.68
937.66	226.70
937.96	226.69
938.26	226.64
938.56	226.63
938.86	226.65
939.16	226.68
939.46	226.67
939.76	226.67
940.06	226.68
940.35	226.64
940.65	226.60
940.95	226.62
941.25	226.58
941.55	226.57
941.85	226.54
942.15	226.59
942.45	226.60
942.75	226.57
943.04	226.55
943.34	226.59
943.64	226.55
943.94	226.49
944.24	226.47
944.54	226.48
944.84	226.50
945.13	226.47
945.43	226.45
945.73	226.45
946.03	226.46
946.33	226.42
946.62	226.42
946.92	226.42
947.22	226.41
947.52	226.45
947.82	226.48
948.11	226.44
948.41	226.42
948.71	226.40
949.01	226.42
949.31	226.41
949.60	226.38
949.90	226.40
950.20	226.43
950.50	226.42
950.79	226.42
951.09	226.45
951.39	226.45
951.69	226.45
951.98	226.45
952.28	226.47
952.58	226.52
952.87	226.57
953.17	226.62
953.47	226.62
953.76	226.64
954.06	226.59
954.36	226.58
954.66	226.60
954.95	226.61
955.25	226.63
955.55	226.66
955.84	226.67
956.14	226.68
956.44	226.70
956.73	226.76
957.03	226.78
957.32	226.75
957.62	226.75
957.92	226.81
958.21	226.84
958.51	226.92
958.81	226.96
959.10	226.94
959.40	226.97
959.69	226.96
959.99	226.95
960.29	226.97
960.58	227.00
960.88	227.03
961.17	227.06
961.47	227.08
961.76	227.06
962.06	227.07
962.36	227.06
962.65	227.08
962.95	227.07
963.24	227.06
963.54	227.07
963.83	227.08
964.13	227.04
964.42	227.00
964.72	226.96
965.01	226.93
965.31	226.93
965.60	226.89
965.90	226.97
966.19	226.95
966.49	226.92
966.78	226.92
967.08	226.94
967.37	226.90
967.67	226.88
967.96	226.89
968.26	226.86
968.55	226.87
968.85	226.85
969.14	226.84
969.43	226.83
969.73	226.82
970.02	226.81
970.32	226.84
970.61	226.85
970.91	226.83
971.20	226.82
971.49	226.78
971.79	226.78
972.08	226.71
972.38	226.70
972.67	226.72
972.96	226.72
973.26	226.66
973.55	226.72
973.85	226.74
974.14	226.74
974.43	226.75
974.73	226.76
975.02	226.74
975.31	226.73
975.61	226.72
975.90	226.71
976.19	226.70
976.49	226.67
976.78	226.67
977.07	226.63
977.37	226.60
977.66	226.59
977.95	226.58
978.24	226.55
978.54	226.57
978.83	226.55
979.12	226.52
979.42	226.51
979.71	226.46
980.00	226.44
980.29	226.42
980.59	226.40
980.88	226.39
981.17	226.38
981.46	226.36
981.76	226.37
982.05	226.37
982.34	226.37
982.63	226.36
982.93	226.32
983.22	226.37
983.51	226.42
983.80	226.44
984.09	226.45
984.39	226.48
984.68	226.44
984.97	226.45
985.26	226.47
985.55	226.45
985.85	226.46
986.14	226.43
986.43	226.46
986.72	226.47
987.01	226.41
987.30	226.42
987.59	226.41
987.89	226.40
988.18	226.37
988.47	226.38
988.76	226.40
989.05	226.42
989.34	226.41
989.63	226.43
989.92	226.41
990.22	226.40
990.51	226.40
990.80	226.43
991.09	226.45
991.38	226.45
991.67	226.46
991.96	226.47
992.25	226.51
992.54	226.49
992.83	226.50
993.12	226.53
993.41	226.57
993.70	226.64
993.99	226.68
994.28	226.74
994.58	226.75
994.87	226.72
995.16	226.73
995.45	226.71
995.74	226.70
996.03	226.74
996.32	226.77
996.61	226.80
996.90	226.79
997.19	226.78
997.48	226.79
997.77	226.80
998.06	226.78
998.34	226.79
998.63	226.79
998.92	226.78
999.21	226.83
999.50	226.81
999.79	226.76
1000.08	226.74
1000.37	226.70
1000.66	226.68
1000.95	226.74
1001.24	226.77
1001.53	226.78
1001.82	226.75
1002.11	226.73
1002.40	226.74
1002.68	226.74
1002.97	226.79
1003.26	226.78
1003.55	226.80
1003.84	226.84
1004.13	226.87
1004.42	226.84
1004.71	226.84
1004.99	226.84
1005.28	226.83
1005.57	226.83
1005.86	226.78
1006.15	226.77
1006.44	226.75
1006.72	226.77
1007.01	226.73
1007.30	226.70
1007.59	226.68
1007.88	226.67
1008.17	226.67
1008.45	226.65
1008.74	226.62
1009.03	226.57
1009.32	226.55
1009.60	226.54
1009.89	226.50
1010.18	226.47
1010.47	226.46
1010.76	226.47
1011.04	226.44
1011.33	226.44
1011.62	226.43
1011.91	226.48
1012.19	226.49
1012.48	226.50
1012.77	226.50
1013.05	226.56
1013.34	226.55
1013.63	226.57
1013.92	226.57
1014.20	226.53
1014.49	226.51
1014.78	226.52
1015.06	226.50
1015.35	226.53
1015.64	226.51
1015.92	226.50
1016.21	226.47
1016.50	226.47
1016.78	226.48
1017.07	226.48
1017.36	226.46
1017.64	226.44
1017.93	226.41
1018.22	226.40
1018.50	226.39
1018.79	226.38
1019.08	226.32
1019.36	226.32
1019.65	226.26
1019.93	226.29
1020.22	226.32
1020.51	226.37
1020.79	226.34
1021.08	226.03
1021.36	226.15
1021.65	226.45
1021.94	226.62
1022.22	226.27
1022.51	225.68
1022.79	226.76
1023.08	226.61
1023.36	227.31
1023.65	226.13
>>>>>End Processed Spectral Data<<<<<
