SpectraSuite Data File
++++++++++++++++++++++++++++++++++++
Date: Fri Feb 01 17:56:36 EST 2013
User: group
Dark Spectrum Present: No
Reference Spectrum Present: No
Number of Sampled Component Spectra: 1
Spectrometers: USB2E7196
Integration Time (usec): 35000 (USB2E7196)
Spectra Averaged: 100 (USB2E7196)
Boxcar Smoothing: 10 (USB2E7196)
Correct for Electrical Dark: No (USB2E7196)
Strobe/Lamp Enabled: No (USB2E7196)
Correct for Detector Non-linearity: No (USB2E7196)
Correct for Stray Light: No (USB2E7196)
Number of Pixels in Processed Spectrum: 2048
>>>>>Begin Processed Spectral Data<<<<<
339.09	0.00
339.48	212.86
339.86	214.82
340.24	215.90
340.63	217.12
341.01	219.97
341.39	219.66
341.78	220.85
342.16	222.25
342.54	222.76
342.93	211.28
343.31	221.94
343.69	222.47
344.07	222.91
344.46	223.30
344.84	223.64
345.22	223.89
345.60	224.13
345.99	224.34
346.37	224.47
346.75	224.57
347.13	224.63
347.52	224.68
347.90	224.74
348.28	224.80
348.66	224.85
349.05	224.85
349.43	224.89
349.81	224.96
350.19	225.02
350.57	225.10
350.96	225.16
351.34	225.25
351.72	225.32
352.10	225.40
352.48	225.52
352.87	225.60
353.25	225.65
353.63	225.72
354.01	225.75
354.39	225.84
354.77	225.93
355.15	226.00
355.54	226.09
355.92	226.11
356.30	226.18
356.68	226.30
357.06	226.37
357.44	226.44
357.82	226.50
358.20	226.57
358.58	226.63
358.97	226.71
359.35	226.77
359.73	226.86
360.11	226.92
360.49	226.97
360.87	227.01
361.25	227.06
361.63	227.13
362.01	227.20
362.39	227.22
362.77	227.25
363.15	227.27
363.53	227.31
363.91	227.36
364.29	227.39
364.67	227.30
365.05	227.31
365.43	227.33
365.81	227.33
366.19	227.39
366.57	227.39
366.95	227.38
367.33	227.38
367.71	227.37
368.09	227.39
368.47	227.36
368.85	227.36
369.23	227.37
369.61	227.32
369.99	227.34
370.37	227.30
370.75	227.31
371.13	227.29
371.51	227.19
371.89	227.16
372.27	227.09
372.65	227.07
373.03	227.05
373.41	226.97
373.78	226.95
374.16	226.84
374.54	226.81
374.92	226.76
375.30	226.69
375.68	226.63
376.06	226.58
376.44	226.49
376.82	226.45
377.19	226.39
377.57	226.33
377.95	226.24
378.33	226.18
378.71	226.07
379.09	226.00
379.47	225.99
379.84	225.92
380.22	225.87
380.60	225.79
380.98	225.72
381.36	225.66
381.73	225.56
382.11	225.54
382.49	225.48
382.87	225.39
383.25	225.34
383.62	225.41
384.00	225.34
384.38	225.31
384.76	225.25
385.13	225.26
385.51	225.22
385.89	225.17
386.27	225.11
386.64	225.11
387.02	225.07
387.40	225.02
387.78	224.99
388.15	224.95
388.53	224.93
388.91	224.89
389.29	224.86
389.66	224.86
390.04	224.80
390.42	224.76
390.79	224.77
391.17	224.76
391.55	224.61
391.92	224.58
392.30	224.58
392.68	224.56
393.05	224.54
393.43	224.55
393.81	224.53
394.18	224.57
394.56	224.60
394.94	224.62
395.31	224.62
395.69	224.67
396.06	224.71
396.44	224.76
396.82	224.78
397.19	224.88
397.57	224.91
397.95	224.96
398.32	224.96
398.70	225.00
399.07	225.08
399.45	225.15
399.82	225.21
400.20	225.27
400.58	225.34
400.95	225.36
401.33	225.42
401.70	225.58
402.08	225.66
402.45	225.76
402.83	225.86
403.20	225.99
403.58	226.09
403.95	226.20
404.33	226.31
404.71	226.43
405.08	226.63
405.46	226.76
405.83	226.92
406.21	227.12
406.58	227.33
406.96	227.50
407.33	227.71
407.70	227.95
408.08	228.24
408.45	228.52
408.83	228.77
409.20	229.04
409.58	229.31
409.95	229.60
410.33	229.92
410.70	230.24
411.08	230.59
411.45	231.01
411.82	231.41
412.20	231.87
412.57	232.39
412.95	232.78
413.32	233.33
413.69	233.86
414.07	234.41
414.44	235.00
414.82	235.65
415.19	236.37
415.56	237.11
415.94	237.80
416.31	238.63
416.68	239.49
417.06	240.42
417.43	241.31
417.81	242.33
418.18	243.35
418.55	244.46
418.93	245.64
419.30	246.80
419.67	248.07
420.04	249.33
420.42	250.66
420.79	252.21
421.16	253.75
421.54	255.32
421.91	256.95
422.28	258.65
422.66	260.40
423.03	262.13
423.40	263.88
423.77	265.82
424.15	267.71
424.52	269.72
424.89	271.87
425.26	273.89
425.64	275.85
426.01	278.01
426.38	280.25
426.75	282.42
427.13	284.71
427.50	287.11
427.87	289.65
428.24	292.16
428.61	294.50
428.99	297.05
429.36	299.94
429.73	302.71
430.10	305.40
430.47	308.17
430.85	311.03
431.22	314.04
431.59	317.21
431.96	320.23
432.33	323.50
432.70	326.67
433.08	330.47
433.45	334.02
433.82	337.51
434.19	341.33
434.56	345.17
434.93	348.73
435.30	352.23
435.68	356.06
436.05	359.79
436.42	363.59
436.79	366.99
437.16	370.59
437.53	374.40
437.90	378.14
438.27	381.79
438.64	385.55
439.01	389.02
439.38	392.03
439.75	394.94
440.13	398.37
440.50	401.55
440.87	404.04
441.24	406.62
441.61	409.47
441.98	411.47
442.35	413.83
442.72	416.32
443.09	418.76
443.46	420.15
443.83	421.01
444.20	421.68
444.57	422.86
444.94	423.21
445.31	423.70
445.68	424.22
446.05	424.39
446.42	423.90
446.79	423.36
447.16	422.77
447.53	422.36
447.90	420.76
448.27	419.23
448.64	417.10
449.01	415.63
449.37	413.06
449.74	410.56
450.11	407.60
450.48	404.29
450.85	400.91
451.22	398.02
451.59	395.32
451.96	392.72
452.33	389.19
452.70	386.05
453.07	382.29
453.43	378.41
453.80	374.64
454.17	371.07
454.54	367.65
454.91	364.04
455.28	360.45
455.65	357.15
456.02	353.78
456.38	350.89
456.75	347.25
457.12	344.20
457.49	341.21
457.86	338.31
458.23	335.83
458.59	333.08
458.96	330.25
459.33	327.73
459.70	325.16
460.07	323.14
460.43	320.79
460.80	318.55
461.17	316.55
461.54	314.55
461.91	312.61
462.27	310.64
462.64	308.89
463.01	307.07
463.38	305.27
463.74	303.45
464.11	301.89
464.48	300.51
464.85	299.03
465.21	297.84
465.58	296.53
465.95	295.04
466.32	293.82
466.68	292.62
467.05	291.38
467.42	290.18
467.78	288.92
468.15	287.76
468.52	286.85
468.88	285.73
469.25	284.69
469.62	283.86
469.98	282.94
470.35	282.08
470.72	281.24
471.08	280.31
471.45	279.59
471.82	278.82
472.18	277.96
472.55	277.33
472.92	276.63
473.28	276.02
473.65	275.39
474.02	274.76
474.38	274.21
474.75	273.74
475.11	273.26
475.48	272.83
475.85	272.46
476.21	272.11
476.58	271.77
476.94	271.51
477.31	271.21
477.67	270.94
478.04	270.74
478.41	270.56
478.77	270.60
479.14	270.45
479.50	270.37
479.87	270.41
480.23	270.43
480.60	270.44
480.96	270.48
481.33	270.65
481.69	270.81
482.06	270.97
482.42	271.13
482.79	271.34
483.15	271.61
483.52	271.97
483.88	272.27
484.25	272.63
484.61	273.04
484.98	273.51
485.34	274.09
485.71	274.67
486.07	275.27
486.44	275.83
486.80	276.53
487.17	277.32
487.53	278.17
487.90	279.04
488.26	279.97
488.62	281.00
488.99	281.98
489.35	283.05
489.72	284.22
490.08	285.46
490.44	286.84
490.81	288.29
491.17	289.69
491.54	291.25
491.90	292.89
492.26	294.63
492.63	296.46
492.99	298.32
493.36	300.31
493.72	302.49
494.08	304.71
494.45	307.10
494.81	309.59
495.17	312.14
495.54	314.87
495.90	317.72
496.26	320.66
496.63	323.83
496.99	327.12
497.35	330.64
497.72	334.28
498.08	337.93
498.44	341.81
498.80	345.99
499.17	350.31
499.53	354.74
499.89	359.39
500.26	364.15
500.62	369.12
500.98	374.39
501.34	379.80
501.71	385.39
502.07	391.15
502.43	397.10
502.79	403.30
503.16	409.73
503.52	416.39
503.88	423.24
504.24	430.24
504.60	437.61
504.97	445.09
505.33	452.88
505.69	461.07
506.05	469.29
506.41	477.63
506.78	486.27
507.14	495.22
507.50	504.42
507.86	514.09
508.22	523.82
508.59	533.64
508.95	543.77
509.31	554.29
509.67	565.05
510.03	575.99
510.39	587.23
510.75	598.75
511.12	610.41
511.48	622.40
511.84	634.64
512.20	646.92
512.56	659.71
512.92	672.71
513.28	686.02
513.64	699.44
514.00	713.13
514.37	726.97
514.73	741.05
515.09	755.09
515.45	769.33
515.81	784.01
516.17	799.03
516.53	814.30
516.89	829.58
517.25	844.90
517.61	860.47
517.97	876.12
518.33	891.65
518.69	907.70
519.05	923.92
519.41	940.35
519.77	957.16
520.13	973.88
520.49	990.59
520.85	1007.19
521.21	1024.11
521.57	1041.71
521.93	1058.82
522.29	1076.62
522.65	1094.40
523.01	1112.00
523.37	1129.47
523.73	1147.22
524.09	1164.81
524.45	1182.54
524.81	1200.78
525.17	1219.15
525.53	1237.71
525.89	1256.33
526.25	1274.87
526.61	1292.81
526.97	1311.31
527.33	1329.51
527.68	1347.93
528.04	1366.16
528.40	1384.53
528.76	1403.52
529.12	1422.01
529.48	1440.95
529.84	1458.81
530.20	1477.25
530.56	1496.20
530.91	1515.74
531.27	1534.34
531.63	1552.69
531.99	1571.39
532.35	1589.33
532.71	1607.27
533.07	1625.43
533.42	1643.31
533.78	1661.35
534.14	1679.85
534.50	1697.21
534.86	1715.06
535.21	1732.21
535.57	1750.19
535.93	1767.73
536.29	1784.56
536.65	1801.60
537.00	1818.38
537.36	1835.96
537.72	1852.49
538.08	1869.03
538.44	1884.75
538.79	1900.96
539.15	1916.76
539.51	1932.58
539.87	1949.00
540.22	1964.91
540.58	1980.89
540.94	1996.39
541.29	2011.35
541.65	2026.19
542.01	2041.56
542.37	2056.26
542.72	2070.82
543.08	2084.96
543.44	2099.69
543.79	2113.24
544.15	2126.44
544.51	2140.19
544.87	2153.17
545.22	2166.38
545.58	2178.63
545.94	2190.53
546.29	2202.31
546.65	2214.34
547.01	2225.73
547.36	2236.56
547.72	2247.12
548.07	2257.05
548.43	2267.20
548.79	2277.20
549.14	2286.74
549.50	2295.94
549.86	2305.32
550.21	2314.60
550.57	2323.67
550.92	2332.07
551.28	2341.00
551.64	2350.08
551.99	2358.45
552.35	2366.52
552.70	2374.47
553.06	2382.52
553.41	2390.77
553.77	2398.53
554.13	2406.40
554.48	2414.46
554.84	2421.93
555.19	2428.77
555.55	2435.81
555.90	2442.04
556.26	2448.79
556.61	2455.12
556.97	2461.27
557.32	2467.21
557.68	2473.04
558.03	2478.86
558.39	2484.15
558.74	2490.46
559.10	2495.88
559.45	2501.11
559.81	2506.73
560.16	2511.99
560.52	2516.68
560.87	2521.50
561.23	2525.54
561.58	2529.67
561.94	2533.46
562.29	2536.89
562.64	2541.23
563.00	2544.88
563.35	2549.57
563.71	2553.84
564.06	2558.32
564.42	2562.61
564.77	2566.46
565.12	2570.15
565.48	2573.31
565.83	2576.41
566.19	2578.88
566.54	2580.59
566.89	2582.85
567.25	2584.73
567.60	2586.94
567.96	2589.69
568.31	2591.41
568.66	2593.79
569.02	2595.51
569.37	2596.66
569.72	2598.48
570.08	2599.26
570.43	2600.02
570.78	2600.52
571.14	2599.70
571.49	2598.74
571.84	2598.90
572.20	2598.37
572.55	2597.57
572.90	2596.37
573.26	2595.49
573.61	2594.08
573.96	2592.94
574.31	2590.05
574.67	2587.20
575.02	2583.90
575.37	2580.61
575.72	2577.02
576.08	2573.50
576.43	2570.26
576.78	2566.80
577.13	2563.71
577.49	2560.71
577.84	2557.34
578.19	2553.36
578.54	2549.85
578.90	2545.84
579.25	2539.97
579.60	2534.70
579.95	2529.75
580.30	2524.45
580.66	2519.10
581.01	2513.83
581.36	2508.47
581.71	2504.25
582.06	2499.57
582.42	2494.81
582.77	2489.18
583.12	2484.29
583.47	2479.44
583.82	2474.12
584.17	2468.39
584.53	2462.41
584.88	2456.31
585.23	2450.08
585.58	2444.06
585.93	2438.02
586.28	2432.67
586.63	2427.32
586.98	2421.78
587.34	2416.28
587.69	2410.86
588.04	2405.05
588.39	2398.72
588.74	2391.67
589.09	2384.81
589.44	2377.23
589.79	2370.43
590.14	2364.25
590.49	2356.94
590.84	2349.76
591.19	2343.13
591.54	2335.93
591.89	2327.89
592.25	2320.23
592.60	2312.19
592.95	2303.70
593.30	2295.28
593.65	2286.82
594.00	2278.75
594.35	2270.65
594.70	2261.61
595.05	2253.73
595.40	2245.48
595.75	2237.06
596.10	2230.08
596.45	2222.49
596.80	2215.64
597.15	2208.22
597.50	2200.16
597.85	2192.78
598.19	2185.12
598.54	2177.06
598.89	2169.37
599.24	2162.38
599.59	2154.88
599.94	2147.73
600.29	2140.58
600.64	2133.00
600.99	2124.54
601.34	2116.68
601.69	2108.43
602.04	2100.68
602.39	2092.09
602.74	2084.10
603.08	2076.31
603.43	2068.42
603.78	2059.92
604.13	2051.50
604.48	2043.00
604.83	2035.06
605.18	2027.20
605.53	2017.89
605.87	2008.46
606.22	2000.02
606.57	1990.80
606.92	1982.06
607.27	1973.82
607.62	1965.69
607.96	1957.38
608.31	1949.69
608.66	1940.72
609.01	1932.13
609.36	1923.21
609.70	1913.82
610.05	1904.44
610.40	1895.47
610.75	1885.66
611.10	1876.87
611.44	1866.94
611.79	1857.63
612.14	1847.54
612.49	1836.73
612.83	1826.98
613.18	1817.41
613.53	1807.94
613.88	1798.05
614.22	1788.44
614.57	1778.09
614.92	1768.76
615.27	1759.89
615.61	1750.16
615.96	1740.87
616.31	1731.81
616.65	1723.26
617.00	1714.46
617.35	1705.52
617.70	1695.80
618.04	1685.95
618.39	1676.13
618.74	1667.26
619.08	1657.46
619.43	1648.38
619.78	1640.12
620.12	1631.82
620.47	1622.94
620.82	1613.22
621.16	1604.35
621.51	1595.23
621.85	1586.24
622.20	1576.19
622.55	1566.28
622.89	1556.97
623.24	1547.94
623.59	1539.07
623.93	1530.20
624.28	1521.66
624.62	1512.79
624.97	1504.26
625.32	1496.23
625.66	1488.03
626.01	1479.61
626.35	1471.01
626.70	1461.93
627.04	1452.91
627.39	1443.62
627.73	1435.04
628.08	1427.11
628.43	1418.74
628.77	1410.24
629.12	1401.47
629.46	1393.10
629.81	1384.38
630.15	1375.88
630.50	1367.18
630.84	1357.73
631.19	1348.36
631.53	1339.57
631.88	1330.75
632.22	1321.88
632.57	1313.26
632.91	1304.42
633.26	1295.73
633.60	1287.03
633.95	1278.64
634.29	1270.41
634.64	1262.70
634.98	1254.16
635.32	1245.83
635.67	1238.01
636.01	1230.34
636.36	1222.48
636.70	1214.84
637.05	1207.16
637.39	1199.67
637.73	1192.12
638.08	1185.23
638.42	1178.34
638.77	1170.83
639.11	1163.21
639.45	1155.82
639.80	1148.11
640.14	1140.69
640.49	1133.17
640.83	1125.90
641.17	1118.88
641.52	1111.48
641.86	1103.89
642.20	1097.03
642.55	1089.58
642.89	1082.12
643.23	1074.39
643.58	1067.67
643.92	1060.53
644.26	1053.67
644.61	1046.62
644.95	1039.73
645.29	1032.25
645.64	1024.41
645.98	1016.99
646.32	1009.96
646.66	1003.01
647.01	996.38
647.35	989.68
647.69	982.86
648.04	976.40
648.38	969.58
648.72	962.74
649.06	955.85
649.41	949.00
649.75	942.14
650.09	935.24
650.43	928.62
650.78	921.59
651.12	914.62
651.46	907.97
651.80	901.35
652.14	895.05
652.49	888.82
652.83	882.85
653.17	876.43
653.51	870.09
653.85	863.84
654.20	857.45
654.54	850.53
654.88	843.90
655.22	837.12
655.56	830.57
655.90	824.24
656.25	818.21
656.59	812.07
656.93	806.16
657.27	800.22
657.61	793.95
657.95	787.99
658.29	782.15
658.64	776.08
658.98	769.96
659.32	763.67
659.66	757.66
660.00	751.55
660.34	745.75
660.68	740.02
661.02	734.18
661.36	728.64
661.70	723.52
662.05	718.50
662.39	713.57
662.73	708.39
663.07	703.31
663.41	698.18
663.75	693.03
664.09	687.81
664.43	682.78
664.77	678.07
665.11	673.20
665.45	668.38
665.79	663.65
666.13	658.91
666.47	654.16
666.81	649.34
667.15	644.62
667.49	640.12
667.83	635.64
668.17	631.12
668.51	626.45
668.85	621.78
669.19	617.30
669.53	612.88
669.87	608.48
670.21	604.18
670.55	599.93
670.89	595.91
671.23	592.02
671.57	587.91
671.91	583.86
672.25	579.77
672.58	575.78
672.92	571.89
673.26	568.18
673.60	564.56
673.94	561.00
674.28	557.62
674.62	554.24
674.96	550.70
675.30	547.42
675.64	544.07
675.97	540.86
676.31	537.63
676.65	534.23
676.99	531.11
677.33	527.87
677.67	524.67
678.01	521.27
678.34	517.88
678.68	514.64
679.02	511.46
679.36	508.34
679.70	505.18
680.04	501.99
680.37	498.76
680.71	495.58
681.05	492.52
681.39	489.40
681.73	486.36
682.06	483.50
682.40	480.57
682.74	477.56
683.08	474.59
683.42	471.56
683.75	468.72
684.09	465.73
684.43	462.85
684.77	460.00
685.10	457.29
685.44	454.54
685.78	451.85
686.12	449.16
686.45	446.50
686.79	443.84
687.13	441.30
687.46	438.78
687.80	436.26
688.14	433.75
688.48	431.33
688.81	428.75
689.15	426.23
689.49	423.66
689.82	421.32
690.16	418.91
690.50	416.67
690.83	414.34
691.17	412.11
691.51	409.95
691.84	407.83
692.18	405.57
692.52	403.33
692.85	401.11
693.19	398.99
693.52	396.86
693.86	394.78
694.20	392.73
694.53	390.62
694.87	388.48
695.21	386.38
695.54	384.29
695.88	382.26
696.21	380.29
696.55	378.37
696.88	376.41
697.22	374.49
697.56	372.57
697.89	370.73
698.23	368.85
698.56	366.93
698.90	365.08
699.23	363.23
699.57	361.42
699.90	359.58
700.24	357.76
700.58	356.04
700.91	354.32
701.25	352.60
701.58	351.00
701.92	349.42
702.25	347.84
702.59	346.26
702.92	344.74
703.26	343.19
703.59	341.74
703.93	340.32
704.26	338.89
704.60	337.40
704.93	335.90
705.26	334.45
705.60	333.08
705.93	331.71
706.27	330.51
706.60	329.21
706.94	327.95
707.27	326.59
707.61	325.27
707.94	324.06
708.27	322.78
708.61	321.52
708.94	320.32
709.28	319.16
709.61	318.04
709.94	316.96
710.28	315.77
710.61	314.61
710.95	313.39
711.28	312.30
711.61	311.19
711.95	310.13
712.28	309.02
712.61	307.91
712.95	306.88
713.28	305.80
713.61	304.77
713.95	303.80
714.28	302.85
714.61	301.92
714.95	300.95
715.28	300.01
715.61	299.04
715.95	298.06
716.28	297.05
716.61	296.04
716.95	295.06
717.28	294.23
717.61	293.34
717.94	292.46
718.28	291.54
718.61	290.71
718.94	289.93
719.27	289.16
719.61	288.41
719.94	287.61
720.27	286.81
720.60	286.07
720.94	285.31
721.27	284.66
721.60	283.96
721.93	283.26
722.27	282.61
722.60	281.99
722.93	281.35
723.26	280.76
723.59	280.16
723.93	279.50
724.26	278.85
724.59	278.15
724.92	277.57
725.25	276.98
725.59	276.39
725.92	275.75
726.25	275.18
726.58	274.59
726.91	274.02
727.24	273.46
727.57	272.92
727.91	272.34
728.24	271.76
728.57	271.17
728.90	270.61
729.23	270.04
729.56	269.50
729.89	268.93
730.22	268.39
730.55	267.81
730.89	267.28
731.22	266.75
731.55	266.28
731.88	265.79
732.21	265.34
732.54	264.81
732.87	264.35
733.20	263.86
733.53	263.38
733.86	262.95
734.19	262.49
734.52	262.07
734.85	261.72
735.18	261.26
735.51	260.84
735.84	260.45
736.17	260.05
736.50	259.61
736.83	259.33
737.16	258.93
737.49	258.61
737.82	258.22
738.15	257.83
738.48	257.42
738.81	257.04
739.14	256.65
739.47	256.26
739.80	255.91
740.13	255.55
740.46	255.18
740.79	254.81
741.12	254.44
741.45	254.04
741.78	253.65
742.11	253.32
742.44	252.96
742.77	252.63
743.10	252.23
743.43	251.90
743.75	251.49
744.08	251.32
744.41	250.97
744.74	250.68
745.07	250.37
745.40	250.10
745.73	249.86
746.06	249.55
746.39	249.28
746.71	248.95
747.04	248.67
747.37	248.39
747.70	248.09
748.03	247.79
748.36	247.57
748.68	247.27
749.01	246.98
749.34	246.72
749.67	246.45
750.00	246.24
750.33	246.05
750.65	245.77
750.98	245.38
751.31	245.14
751.64	244.90
751.97	244.74
752.29	244.48
752.62	244.15
752.95	243.93
753.28	243.68
753.60	243.47
753.93	243.27
754.26	243.07
754.59	242.84
754.91	242.64
755.24	242.37
755.57	242.15
755.90	241.95
756.22	241.74
756.55	241.48
756.88	241.25
757.20	240.95
757.53	240.75
757.86	240.56
758.19	240.35
758.51	240.15
758.84	239.86
759.17	239.65
759.49	239.50
759.82	239.33
760.15	239.15
760.47	238.95
760.80	238.74
761.13	238.55
761.45	238.37
761.78	238.21
762.11	238.01
762.43	237.84
762.76	237.65
763.08	237.52
763.41	237.38
763.74	237.21
764.06	237.05
764.39	236.90
764.71	236.71
765.04	236.56
765.37	236.40
765.69	236.27
766.02	236.16
766.34	235.98
766.67	235.80
767.00	235.70
767.32	235.61
767.65	235.58
767.97	235.45
768.30	235.31
768.62	235.19
768.95	235.07
769.27	234.94
769.60	234.86
769.92	234.68
770.25	234.55
770.57	234.43
770.90	234.34
771.22	234.20
771.55	234.12
771.87	234.02
772.20	233.90
772.52	233.86
772.85	233.84
773.17	233.75
773.50	233.64
773.82	233.50
774.15	233.33
774.47	233.12
774.80	233.02
775.12	232.92
775.45	232.80
775.77	232.71
776.09	232.63
776.42	232.52
776.74	232.46
777.07	232.37
777.39	232.30
777.72	232.16
778.04	232.12
778.36	232.04
778.69	231.96
779.01	231.90
779.33	231.75
779.66	231.57
779.98	231.50
780.31	231.44
780.63	231.45
780.95	231.41
781.28	231.37
781.60	231.28
781.92	231.23
782.25	231.16
782.57	231.10
782.89	231.02
783.22	230.95
783.54	230.89
783.86	230.81
784.19	230.75
784.51	230.77
784.83	230.67
785.16	230.58
785.48	230.54
785.80	230.49
786.12	230.42
786.45	230.37
786.77	230.33
787.09	230.23
787.42	230.13
787.74	230.07
788.06	230.01
788.38	229.91
788.71	229.85
789.03	229.82
789.35	229.79
789.67	229.72
789.99	229.65
790.32	229.60
790.64	229.58
790.96	229.61
791.28	229.53
791.61	229.48
791.93	229.45
792.25	229.39
792.57	229.37
792.89	229.30
793.21	229.27
793.54	229.20
793.86	229.19
794.18	229.14
794.50	229.12
794.82	229.08
795.14	229.09
795.47	229.08
795.79	229.03
796.11	228.97
796.43	228.94
796.75	228.93
797.07	228.90
797.39	228.87
797.71	228.78
798.04	228.74
798.36	228.71
798.68	228.68
799.00	228.67
799.32	228.62
799.64	228.62
799.96	228.58
800.28	228.56
800.60	228.53
800.92	228.45
801.24	228.39
801.56	228.40
801.89	228.36
802.21	228.30
802.53	228.29
802.85	228.25
803.17	228.29
803.49	228.23
803.81	228.15
804.13	228.07
804.45	228.00
804.77	227.95
805.09	227.88
805.41	227.84
805.73	227.78
806.05	227.72
806.37	227.67
806.69	227.63
807.01	227.58
807.33	227.54
807.65	227.51
807.97	227.51
808.28	227.45
808.60	227.41
808.92	227.38
809.24	227.38
809.56	227.36
809.88	227.29
810.20	227.31
810.52	227.32
810.84	227.29
811.16	227.28
811.48	227.29
811.80	227.32
812.12	227.27
812.43	227.23
812.75	227.20
813.07	227.18
813.39	227.18
813.71	227.10
814.03	227.07
814.35	227.06
814.67	227.00
814.98	226.95
815.30	226.91
815.62	226.87
815.94	226.78
816.26	226.82
816.58	226.77
816.89	226.67
817.21	226.62
817.53	226.59
817.85	226.59
818.17	226.53
818.48	226.46
818.80	226.47
819.12	226.45
819.44	226.42
819.76	226.36
820.07	226.34
820.39	226.36
820.71	226.33
821.03	226.33
821.34	226.26
821.66	226.26
821.98	226.25
822.30	226.21
822.61	226.27
822.93	226.19
823.25	226.17
823.57	226.18
823.88	226.19
824.20	226.22
824.52	226.19
824.83	226.18
825.15	226.17
825.47	226.15
825.79	226.16
826.10	226.15
826.42	226.17
826.74	226.14
827.05	226.12
827.37	226.09
827.69	226.05
828.00	226.08
828.32	226.07
828.64	226.07
828.95	226.12
829.27	226.07
829.58	226.06
829.90	226.10
830.22	226.10
830.53	226.06
830.85	226.00
831.17	225.98
831.48	225.98
831.80	225.95
832.11	225.95
832.43	225.93
832.75	225.91
833.06	225.96
833.38	225.96
833.69	225.96
834.01	225.96
834.32	225.96
834.64	225.94
834.96	225.91
835.27	225.88
835.59	225.84
835.90	225.80
836.22	225.76
836.53	225.70
836.85	225.69
837.16	225.80
837.48	225.80
837.79	225.81
838.11	225.81
838.42	225.84
838.74	225.86
839.05	225.83
839.37	225.80
839.68	225.73
840.00	225.72
840.31	225.72
840.63	225.70
840.94	225.69
841.26	225.69
841.57	225.69
841.88	225.72
842.20	225.70
842.51	225.66
842.83	225.68
843.14	225.78
843.46	225.77
843.77	225.71
844.08	225.69
844.40	225.67
844.71	225.63
845.03	225.55
845.34	225.52
845.65	225.52
845.97	225.51
846.28	225.52
846.60	225.50
846.91	225.45
847.22	225.46
847.54	225.48
847.85	225.48
848.16	225.46
848.48	225.40
848.79	225.45
849.10	225.49
849.42	225.46
849.73	225.33
850.04	225.32
850.36	225.23
850.67	225.24
850.98	225.22
851.30	225.25
851.61	225.31
851.92	225.31
852.23	225.31
852.55	225.34
852.86	225.31
853.17	225.30
853.49	225.34
853.80	225.38
854.11	225.36
854.42	225.39
854.74	225.37
855.05	225.39
855.36	225.30
855.67	225.28
855.99	225.30
856.30	225.42
856.61	225.40
856.92	225.45
857.23	225.45
857.55	225.47
857.86	225.46
858.17	225.46
858.48	225.43
858.79	225.42
859.11	225.42
859.42	225.42
859.73	225.43
860.04	225.39
860.35	225.37
860.66	225.34
860.98	225.30
861.29	225.33
861.60	225.31
861.91	225.37
862.22	225.37
862.53	225.36
862.84	225.26
863.16	225.31
863.47	225.28
863.78	225.30
864.09	225.26
864.40	225.26
864.71	225.26
865.02	225.28
865.33	225.24
865.64	225.25
865.95	225.23
866.27	225.29
866.58	225.29
866.89	225.27
867.20	225.31
867.51	225.28
867.82	225.26
868.13	225.27
868.44	225.25
868.75	225.28
869.06	225.28
869.37	225.29
869.68	225.23
869.99	225.26
870.30	225.21
870.61	225.27
870.92	225.22
871.23	225.19
871.54	225.19
871.85	225.23
872.16	225.20
872.47	225.18
872.78	225.13
873.09	225.15
873.40	225.14
873.71	225.12
874.02	225.16
874.33	225.16
874.64	225.15
874.95	225.17
875.26	225.13
875.56	225.14
875.87	225.13
876.18	225.13
876.49	225.21
876.80	225.24
877.11	225.22
877.42	225.26
877.73	225.26
878.04	225.25
878.35	225.27
878.66	225.32
878.96	225.33
879.27	225.34
879.58	225.34
879.89	225.36
880.20	225.39
880.51	225.35
880.82	225.36
881.12	225.35
881.43	225.31
881.74	225.33
882.05	225.30
882.36	225.28
882.67	225.33
882.97	225.22
883.28	225.20
883.59	225.15
883.90	225.17
884.21	225.18
884.51	225.19
884.82	225.17
885.13	225.11
885.44	225.13
885.74	225.14
886.05	225.12
886.36	225.12
886.67	225.06
886.98	225.13
887.28	225.12
887.59	225.16
887.90	225.17
888.20	225.15
888.51	225.19
888.82	225.19
889.13	225.19
889.43	225.28
889.74	225.28
890.05	225.30
890.35	225.27
890.66	225.24
890.97	225.22
891.28	225.17
891.58	225.18
891.89	225.19
892.20	225.18
892.50	225.18
892.81	225.16
893.12	225.17
893.42	225.17
893.73	225.18
894.04	225.15
894.34	225.16
894.65	225.13
894.95	225.11
895.26	225.09
895.57	225.11
895.87	225.00
896.18	224.99
896.48	225.02
896.79	225.03
897.10	225.06
897.40	225.05
897.71	225.04
898.01	225.01
898.32	225.02
898.63	225.02
898.93	225.02
899.24	225.01
899.54	225.01
899.85	224.98
900.15	224.90
900.46	224.91
900.76	224.93
901.07	224.94
901.38	224.87
901.68	224.94
901.99	224.89
902.29	224.89
902.60	224.90
902.90	224.86
903.21	224.86
903.51	224.83
903.82	224.87
904.12	224.91
904.43	224.91
904.73	224.88
905.03	224.83
905.34	224.94
905.64	224.93
905.95	224.91
906.25	224.90
906.56	224.93
906.86	224.90
907.17	224.83
907.47	224.82
907.77	224.88
908.08	224.82
908.38	224.81
908.69	224.82
908.99	224.81
909.30	224.86
909.60	224.87
909.90	224.90
910.21	224.85
910.51	224.83
910.81	224.84
911.12	224.84
911.42	224.86
911.73	224.76
912.03	224.78
912.33	224.79
912.64	224.78
912.94	224.76
913.24	224.74
913.55	224.74
913.85	224.74
914.15	224.73
914.46	224.76
914.76	224.75
915.06	224.74
915.37	224.75
915.67	224.72
915.97	224.69
916.27	224.69
916.58	224.70
916.88	224.66
917.18	224.66
917.49	224.75
917.79	224.73
918.09	224.71
918.39	224.72
918.70	224.74
919.00	224.74
919.30	224.82
919.60	224.81
919.91	224.85
920.21	224.85
920.51	224.83
920.81	224.81
921.12	224.83
921.42	224.82
921.72	224.84
922.02	224.85
922.32	224.88
922.63	224.86
922.93	224.87
923.23	224.91
923.53	224.88
923.83	224.81
924.13	224.82
924.44	224.81
924.74	224.83
925.04	224.84
925.34	224.85
925.64	224.80
925.94	224.83
926.24	224.86
926.55	224.86
926.85	224.89
927.15	224.88
927.45	224.88
927.75	224.90
928.05	224.87
928.35	224.87
928.65	224.86
928.95	224.90
929.26	224.87
929.56	224.89
929.86	224.94
930.16	224.94
930.46	224.93
930.76	224.95
931.06	224.90
931.36	224.89
931.66	224.90
931.96	224.89
932.26	224.85
932.56	224.82
932.86	224.84
933.16	224.79
933.46	224.78
933.76	224.75
934.06	224.75
934.36	224.80
934.66	224.79
934.96	224.70
935.26	224.68
935.56	224.71
935.86	224.65
936.16	224.61
936.46	224.55
936.76	224.57
937.06	224.55
937.36	224.55
937.66	224.54
937.96	224.53
938.26	224.51
938.56	224.52
938.86	224.51
939.16	224.47
939.46	224.52
939.76	224.55
940.06	224.53
940.35	224.49
940.65	224.43
940.95	224.42
941.25	224.43
941.55	224.41
941.85	224.37
942.15	224.44
942.45	224.45
942.75	224.46
943.04	224.43
943.34	224.45
943.64	224.43
943.94	224.41
944.24	224.40
944.54	224.41
944.84	224.39
945.13	224.38
945.43	224.38
945.73	224.34
946.03	224.32
946.33	224.29
946.62	224.30
946.92	224.31
947.22	224.28
947.52	224.28
947.82	224.29
948.11	224.28
948.41	224.23
948.71	224.21
949.01	224.21
949.31	224.22
949.60	224.19
949.90	224.21
950.20	224.19
950.50	224.17
950.79	224.15
951.09	224.18
951.39	224.17
951.69	224.20
951.98	224.20
952.28	224.19
952.58	224.22
952.87	224.22
953.17	224.21
953.47	224.22
953.76	224.24
954.06	224.22
954.36	224.26
954.66	224.24
954.95	224.23
955.25	224.24
955.55	224.25
955.84	224.25
956.14	224.25
956.44	224.25
956.73	224.22
957.03	224.21
957.32	224.21
957.62	224.20
957.92	224.18
958.21	224.17
958.51	224.27
958.81	224.28
959.10	224.26
959.40	224.27
959.69	224.30
959.99	224.32
960.29	224.33
960.58	224.31
960.88	224.36
961.17	224.34
961.47	224.37
961.76	224.36
962.06	224.37
962.36	224.37
962.65	224.39
962.95	224.41
963.24	224.43
963.54	224.44
963.83	224.47
964.13	224.48
964.42	224.49
964.72	224.43
965.01	224.42
965.31	224.45
965.60	224.44
965.90	224.48
966.19	224.47
966.49	224.47
966.78	224.46
967.08	224.44
967.37	224.49
967.67	224.49
967.96	224.53
968.26	224.53
968.55	224.55
968.85	224.56
969.14	224.56
969.43	224.59
969.73	224.58
970.02	224.58
970.32	224.59
970.61	224.61
970.91	224.60
971.20	224.62
971.49	224.63
971.79	224.66
972.08	224.62
972.38	224.65
972.67	224.66
972.96	224.66
973.26	224.67
973.55	224.68
973.85	224.70
974.14	224.68
974.43	224.67
974.73	224.69
975.02	224.70
975.31	224.69
975.61	224.69
975.90	224.67
976.19	224.66
976.49	224.68
976.78	224.63
977.07	224.62
977.37	224.60
977.66	224.61
977.95	224.60
978.24	224.60
978.54	224.62
978.83	224.63
979.12	224.68
979.42	224.67
979.71	224.66
980.00	224.62
980.29	224.64
980.59	224.62
980.88	224.61
981.17	224.58
981.46	224.58
981.76	224.58
982.05	224.62
982.34	224.61
982.63	224.60
982.93	224.63
983.22	224.68
983.51	224.70
983.80	224.73
984.09	224.71
984.39	224.68
984.68	224.64
984.97	224.65
985.26	224.62
985.55	224.59
985.85	224.58
986.14	224.56
986.43	224.59
986.72	224.60
987.01	224.58
987.30	224.59
987.59	224.60
987.89	224.61
988.18	224.60
988.47	224.61
988.76	224.61
989.05	224.61
989.34	224.56
989.63	224.56
989.92	224.51
990.22	224.52
990.51	224.49
990.80	224.49
991.09	224.48
991.38	224.49
991.67	224.51
991.96	224.49
992.25	224.51
992.54	224.44
992.83	224.45
993.12	224.43
993.41	224.43
993.70	224.46
993.99	224.47
994.28	224.45
994.58	224.43
994.87	224.44
995.16	224.46
995.45	224.41
995.74	224.40
996.03	224.43
996.32	224.45
996.61	224.51
996.90	224.51
997.19	224.50
997.48	224.48
997.77	224.48
998.06	224.49
998.34	224.49
998.63	224.50
998.92	224.50
999.21	224.52
999.50	224.53
999.79	224.51
1000.08	224.51
1000.37	224.54
1000.66	224.53
1000.95	224.51
1001.24	224.51
1001.53	224.55
1001.82	224.55
1002.11	224.51
1002.40	224.50
1002.68	224.54
1002.97	224.63
1003.26	224.62
1003.55	224.61
1003.84	224.63
1004.13	224.65
1004.42	224.65
1004.71	224.65
1004.99	224.66
1005.28	224.69
1005.57	224.68
1005.86	224.66
1006.15	224.68
1006.44	224.65
1006.72	224.70
1007.01	224.70
1007.30	224.72
1007.59	224.75
1007.88	224.73
1008.17	224.76
1008.45	224.73
1008.74	224.67
1009.03	224.62
1009.32	224.65
1009.60	224.64
1009.89	224.66
1010.18	224.64
1010.47	224.63
1010.76	224.64
1011.04	224.65
1011.33	224.66
1011.62	224.71
1011.91	224.74
1012.19	224.71
1012.48	224.76
1012.77	224.75
1013.05	224.81
1013.34	224.81
1013.63	224.78
1013.92	224.82
1014.20	224.84
1014.49	224.86
1014.78	224.88
1015.06	224.84
1015.35	224.83
1015.64	224.86
1015.92	224.86
1016.21	224.88
1016.50	224.89
1016.78	224.91
1017.07	224.93
1017.36	224.89
1017.64	224.84
1017.93	224.83
1018.22	224.82
1018.50	224.77
1018.79	224.77
1019.08	224.71
1019.36	224.69
1019.65	224.68
1019.93	224.72
1020.22	224.69
1020.51	224.75
1020.79	224.75
1021.08	224.41
1021.36	224.37
1021.65	224.72
1021.94	224.39
1022.22	224.77
1022.51	224.34
1022.79	225.58
1023.08	224.48
1023.36	225.97
1023.65	224.95
>>>>>End Processed Spectral Data<<<<<
