SpectraSuite Data File
++++++++++++++++++++++++++++++++++++
Date: Fri Feb 01 15:52:05 EST 2013
User: group
Dark Spectrum Present: No
Reference Spectrum Present: No
Number of Sampled Component Spectra: 1
Spectrometers: USB2E7196
Integration Time (usec): 35000 (USB2E7196)
Spectra Averaged: 100 (USB2E7196)
Boxcar Smoothing: 10 (USB2E7196)
Correct for Electrical Dark: No (USB2E7196)
Strobe/Lamp Enabled: No (USB2E7196)
Correct for Detector Non-linearity: No (USB2E7196)
Correct for Stray Light: No (USB2E7196)
Number of Pixels in Processed Spectrum: 2048
>>>>>Begin Processed Spectral Data<<<<<
339.09	0.00
339.48	214.54
339.86	216.56
340.24	217.60
340.63	219.13
341.01	221.62
341.39	221.38
341.78	223.21
342.16	223.62
342.54	224.76
342.93	213.03
343.31	223.80
343.69	224.36
344.07	224.80
344.46	225.21
344.84	225.57
345.22	225.81
345.60	226.07
345.99	226.21
346.37	226.37
346.75	226.44
347.13	226.51
347.52	226.57
347.90	226.66
348.28	226.67
348.66	226.70
349.05	226.69
349.43	226.72
349.81	226.76
350.19	226.81
350.57	226.81
350.96	226.89
351.34	226.98
351.72	227.05
352.10	227.14
352.48	227.20
352.87	227.25
353.25	227.31
353.63	227.38
354.01	227.45
354.39	227.53
354.77	227.61
355.15	227.72
355.54	227.76
355.92	227.79
356.30	227.89
356.68	228.03
357.06	228.12
357.44	228.19
357.82	228.24
358.20	228.31
358.58	228.40
358.97	228.48
359.35	228.53
359.73	228.61
360.11	228.67
360.49	228.75
360.87	228.83
361.25	228.91
361.63	229.00
362.01	229.06
362.39	229.09
362.77	229.15
363.15	229.16
363.53	229.23
363.91	229.22
364.29	229.22
364.67	229.15
365.05	229.16
365.43	229.17
365.81	229.22
366.19	229.25
366.57	229.30
366.95	229.28
367.33	229.26
367.71	229.24
368.09	229.26
368.47	229.22
368.85	229.20
369.23	229.20
369.61	229.13
369.99	229.14
370.37	229.12
370.75	229.14
371.13	229.08
371.51	229.02
371.89	229.02
372.27	229.00
372.65	228.97
373.03	228.95
373.41	228.91
373.78	228.82
374.16	228.74
374.54	228.66
374.92	228.60
375.30	228.54
375.68	228.47
376.06	228.38
376.44	228.30
376.82	228.26
377.19	228.19
377.57	228.13
377.95	228.03
378.33	227.94
378.71	227.83
379.09	227.80
379.47	227.75
379.84	227.66
380.22	227.54
380.60	227.43
380.98	227.38
381.36	227.28
381.73	227.24
382.11	227.18
382.49	227.13
382.87	227.03
383.25	226.97
383.62	227.02
384.00	226.97
384.38	226.91
384.76	226.84
385.13	226.79
385.51	226.74
385.89	226.65
386.27	226.64
386.64	226.59
387.02	226.53
387.40	226.48
387.78	226.43
388.15	226.44
388.53	226.42
388.91	226.37
389.29	226.34
389.66	226.31
390.04	226.28
390.42	226.28
390.79	226.28
391.17	226.28
391.55	226.13
391.92	226.10
392.30	226.13
392.68	226.12
393.05	226.14
393.43	226.13
393.81	226.16
394.18	226.14
394.56	226.15
394.94	226.15
395.31	226.14
395.69	226.19
396.06	226.19
396.44	226.23
396.82	226.23
397.19	226.31
397.57	226.33
397.95	226.38
398.32	226.36
398.70	226.45
399.07	226.49
399.45	226.58
399.82	226.64
400.20	226.70
400.58	226.78
400.95	226.78
401.33	226.90
401.70	227.03
402.08	227.10
402.45	227.22
402.83	227.33
403.20	227.45
403.58	227.53
403.95	227.66
404.33	227.81
404.71	227.94
405.08	228.15
405.46	228.31
405.83	228.47
406.21	228.64
406.58	228.79
406.96	228.97
407.33	229.15
407.70	229.35
408.08	229.63
408.45	229.85
408.83	230.14
409.20	230.33
409.58	230.52
409.95	230.80
410.33	231.05
410.70	231.31
411.08	231.63
411.45	231.96
411.82	232.30
412.20	232.65
412.57	233.09
412.95	233.41
413.32	233.82
413.69	234.22
414.07	234.66
414.44	235.15
414.82	235.63
415.19	236.15
415.56	236.71
415.94	237.22
416.31	237.83
416.68	238.41
417.06	239.15
417.43	239.84
417.81	240.59
418.18	241.40
418.55	242.22
418.93	243.10
419.30	244.02
419.67	244.93
420.04	245.90
420.42	246.87
420.79	248.04
421.16	249.18
421.54	250.38
421.91	251.60
422.28	252.84
422.66	254.21
423.03	255.56
423.40	256.93
423.77	258.35
424.15	259.83
424.52	261.35
424.89	262.97
425.26	264.54
425.64	266.04
426.01	267.60
426.38	269.29
426.75	270.97
427.13	272.64
427.50	274.48
427.87	276.34
428.24	278.24
428.61	280.02
428.99	281.98
429.36	284.04
429.73	286.13
430.10	288.15
430.47	290.20
430.85	292.31
431.22	294.53
431.59	296.92
431.96	299.16
432.33	301.64
432.70	304.04
433.08	306.81
433.45	309.45
433.82	312.06
434.19	314.93
434.56	317.73
434.93	320.44
435.30	323.08
435.68	325.97
436.05	328.81
436.42	331.57
436.79	334.08
437.16	336.76
437.53	339.58
437.90	342.38
438.27	345.12
438.64	347.96
439.01	350.56
439.38	352.79
439.75	354.94
440.13	357.42
440.50	359.69
440.87	361.58
441.24	363.51
441.61	365.69
441.98	367.18
442.35	368.99
442.72	370.80
443.09	372.58
443.46	373.53
443.83	374.11
444.20	374.63
444.57	375.48
444.94	375.83
445.31	376.19
445.68	376.55
446.05	376.59
446.42	376.17
446.79	375.72
447.16	375.29
447.53	374.98
447.90	373.85
448.27	372.71
448.64	371.09
449.01	369.96
449.37	367.96
449.74	366.06
450.11	363.80
450.48	361.34
450.85	358.79
451.22	356.67
451.59	354.64
451.96	352.69
452.33	350.05
452.70	347.66
453.07	344.82
453.43	341.91
453.80	339.12
454.17	336.47
454.54	333.95
454.91	331.19
455.28	328.47
455.65	325.97
456.02	323.54
456.38	321.40
456.75	318.70
457.12	316.46
457.49	314.19
457.86	312.02
458.23	310.17
458.59	308.11
458.96	306.06
459.33	304.16
459.70	302.22
460.07	300.75
460.43	299.04
460.80	297.38
461.17	295.96
461.54	294.48
461.91	293.05
462.27	291.57
462.64	290.33
463.01	288.99
463.38	287.69
463.74	286.29
464.11	285.12
464.48	284.09
464.85	282.98
465.21	282.18
465.58	281.26
465.95	280.16
466.32	279.27
466.68	278.36
467.05	277.49
467.42	276.65
467.78	275.68
468.15	274.86
468.52	274.19
468.88	273.32
469.25	272.56
469.62	271.95
469.98	271.30
470.35	270.66
470.72	270.08
471.08	269.41
471.45	268.92
471.82	268.37
472.18	267.79
472.55	267.35
472.92	266.79
473.28	266.36
473.65	265.92
474.02	265.49
474.38	265.11
474.75	264.78
475.11	264.46
475.48	264.17
475.85	263.90
476.21	263.68
476.58	263.54
476.94	263.42
477.31	263.22
477.67	263.07
478.04	263.00
478.41	262.92
478.77	262.98
479.14	262.90
479.50	262.94
479.87	262.99
480.23	263.08
480.60	263.18
480.96	263.21
481.33	263.41
481.69	263.62
482.06	263.86
482.42	264.08
482.79	264.29
483.15	264.63
483.52	265.01
483.88	265.34
484.25	265.69
484.61	266.09
484.98	266.59
485.34	267.15
485.71	267.77
486.07	268.38
486.44	268.94
486.80	269.65
487.17	270.38
487.53	271.23
487.90	272.10
488.26	273.01
488.62	274.04
488.99	275.03
489.35	276.05
489.72	277.15
490.08	278.31
490.44	279.59
490.81	280.91
491.17	282.24
491.54	283.75
491.90	285.28
492.26	286.93
492.63	288.70
492.99	290.47
493.36	292.31
493.72	294.36
494.08	296.46
494.45	298.73
494.81	301.06
495.17	303.47
495.54	306.03
495.90	308.70
496.26	311.45
496.63	314.40
496.99	317.50
497.35	320.74
497.72	324.19
498.08	327.68
498.44	331.34
498.80	335.28
499.17	339.29
499.53	343.50
499.89	347.87
500.26	352.31
500.62	356.93
500.98	361.95
501.34	367.01
501.71	372.32
502.07	377.75
502.43	383.36
502.79	389.13
503.16	395.19
503.52	401.49
503.88	407.99
504.24	414.66
504.60	421.55
504.97	428.68
505.33	435.94
505.69	443.65
506.05	451.44
506.41	459.41
506.78	467.62
507.14	476.06
507.50	484.77
507.86	493.80
508.22	503.04
508.59	512.23
508.95	521.83
509.31	531.73
509.67	541.78
510.03	552.08
510.39	562.66
510.75	573.45
511.12	584.36
511.48	595.61
511.84	607.03
512.20	618.59
512.56	630.60
512.92	642.86
513.28	655.22
513.64	667.71
514.00	680.38
514.37	693.33
514.73	706.44
515.09	719.42
515.45	732.68
515.81	746.24
516.17	760.15
516.53	774.27
516.89	788.39
517.25	802.60
517.61	817.05
517.97	831.48
518.33	845.90
518.69	860.67
519.05	875.70
519.41	890.87
519.77	906.32
520.13	921.71
520.49	936.99
520.85	952.39
521.21	968.06
521.57	984.27
521.93	999.90
522.29	1016.28
522.65	1032.59
523.01	1048.78
523.37	1064.84
523.73	1081.02
524.09	1097.15
524.45	1113.51
524.81	1130.11
525.17	1146.99
525.53	1163.88
525.89	1180.84
526.25	1197.68
526.61	1214.11
526.97	1230.87
527.33	1247.39
527.68	1264.02
528.04	1280.51
528.40	1297.09
528.76	1314.23
529.12	1330.93
529.48	1347.88
529.84	1363.83
530.20	1380.48
530.56	1397.57
530.91	1414.90
531.27	1431.60
531.63	1448.09
531.99	1464.59
532.35	1480.53
532.71	1496.26
533.07	1512.55
533.42	1528.35
533.78	1544.39
534.14	1560.49
534.50	1575.86
534.86	1591.80
535.21	1606.85
535.57	1622.83
535.93	1638.42
536.29	1653.12
536.65	1667.96
537.00	1682.69
537.36	1697.97
537.72	1712.38
538.08	1726.75
538.44	1740.65
538.79	1754.61
539.15	1768.09
539.51	1781.87
539.87	1796.25
540.22	1810.14
540.58	1823.88
540.94	1837.22
541.29	1850.13
541.65	1862.90
542.01	1876.09
542.37	1888.34
542.72	1900.84
543.08	1912.62
543.44	1924.86
543.79	1936.09
544.15	1947.09
544.51	1958.65
544.87	1969.63
545.22	1980.40
545.58	1990.44
545.94	2000.00
546.29	2009.76
546.65	2019.69
547.01	2028.79
547.36	2037.43
547.72	2045.67
548.07	2053.49
548.43	2061.46
548.79	2069.45
549.14	2076.86
549.50	2084.04
549.86	2091.74
550.21	2099.02
550.57	2106.03
550.92	2112.63
551.28	2119.67
551.64	2126.79
551.99	2133.28
552.35	2139.39
552.70	2145.69
553.06	2151.71
553.41	2158.26
553.77	2164.38
554.13	2170.47
554.48	2176.59
554.84	2182.14
555.19	2187.52
555.55	2192.68
555.90	2197.32
556.26	2202.09
556.61	2206.88
556.97	2211.33
557.32	2215.44
557.68	2219.61
558.03	2224.06
558.39	2227.88
558.74	2232.55
559.10	2236.44
559.45	2240.10
559.81	2244.39
560.16	2248.28
560.52	2251.52
560.87	2254.69
561.23	2257.41
561.58	2260.42
561.94	2262.84
562.29	2265.24
562.64	2267.89
563.00	2270.51
563.35	2273.88
563.71	2277.08
564.06	2280.40
564.42	2283.12
564.77	2285.52
565.12	2287.66
565.48	2289.50
565.83	2291.24
566.19	2292.40
566.54	2293.19
566.89	2294.34
567.25	2294.79
567.60	2296.00
567.96	2297.64
568.31	2298.60
568.66	2299.51
569.02	2299.93
569.37	2300.41
569.72	2301.20
570.08	2301.43
570.43	2301.45
570.78	2300.99
571.14	2299.35
571.49	2297.98
571.84	2297.76
572.20	2296.67
572.55	2295.67
572.90	2294.11
573.26	2292.76
573.61	2291.20
573.96	2289.44
574.31	2286.45
574.67	2283.72
575.02	2280.07
575.37	2276.78
575.72	2272.99
576.08	2269.82
576.43	2266.61
576.78	2262.86
577.13	2259.73
577.49	2256.61
577.84	2253.11
578.19	2249.45
578.54	2245.91
578.90	2241.56
579.25	2235.82
579.60	2230.79
579.95	2225.80
580.30	2220.69
580.66	2215.45
581.01	2210.30
581.36	2205.41
581.71	2201.21
582.06	2196.59
582.42	2192.07
582.77	2186.80
583.12	2182.14
583.47	2177.32
583.82	2172.23
584.17	2167.03
584.53	2161.44
584.88	2155.70
585.23	2149.87
585.58	2144.29
585.93	2138.88
586.28	2134.06
586.63	2129.23
586.98	2124.18
587.34	2119.43
587.69	2114.59
588.04	2109.38
588.39	2103.82
588.74	2097.33
589.09	2091.23
589.44	2084.58
589.79	2078.69
590.14	2073.13
590.49	2066.74
590.84	2060.44
591.19	2054.41
591.54	2048.05
591.89	2040.71
592.25	2033.95
592.60	2026.86
592.95	2019.30
593.30	2011.87
593.65	2004.41
594.00	1997.21
594.35	1990.06
594.70	1982.08
595.05	1974.91
595.40	1967.56
595.75	1960.14
596.10	1953.94
596.45	1947.22
596.80	1941.00
597.15	1934.26
597.50	1927.24
597.85	1920.76
598.19	1913.94
598.54	1906.72
598.89	1900.00
599.24	1894.04
599.59	1887.27
599.94	1881.07
600.29	1874.76
600.64	1868.32
600.99	1860.85
601.34	1854.10
601.69	1847.14
602.04	1840.25
602.39	1832.89
602.74	1826.15
603.08	1819.34
603.43	1812.57
603.78	1805.28
604.13	1798.02
604.48	1790.66
604.83	1783.80
605.18	1776.76
605.53	1768.72
605.87	1760.89
606.22	1753.69
606.57	1745.77
606.92	1738.57
607.27	1731.40
607.62	1724.53
607.96	1717.19
608.31	1710.52
608.66	1702.82
609.01	1695.25
609.36	1687.66
609.70	1679.67
610.05	1671.49
610.40	1663.78
610.75	1655.52
611.10	1647.82
611.44	1639.37
611.79	1631.42
612.14	1622.70
612.49	1613.57
612.83	1605.26
613.18	1597.19
613.53	1589.09
613.88	1580.56
614.22	1572.27
614.57	1563.56
614.92	1555.47
615.27	1547.79
615.61	1539.45
615.96	1531.43
616.31	1523.81
616.65	1516.36
617.00	1508.72
617.35	1501.15
617.70	1492.83
618.04	1484.31
618.39	1476.04
618.74	1468.47
619.08	1460.20
619.43	1452.59
619.78	1445.77
620.12	1438.56
620.47	1430.93
620.82	1422.77
621.16	1415.43
621.51	1407.79
621.85	1400.19
622.20	1391.59
622.55	1383.27
622.89	1375.50
623.24	1367.90
623.59	1360.53
623.93	1353.12
624.28	1345.92
624.62	1338.35
624.97	1331.31
625.32	1324.55
625.66	1317.56
626.01	1310.26
626.35	1302.82
626.70	1295.08
627.04	1287.30
627.39	1279.74
627.73	1272.34
628.08	1265.37
628.43	1258.04
628.77	1250.63
629.12	1243.14
629.46	1236.08
629.81	1228.73
630.15	1221.45
630.50	1213.97
630.84	1205.73
631.19	1197.88
631.53	1190.46
631.88	1182.95
632.22	1175.25
632.57	1167.96
632.91	1160.37
633.26	1153.04
633.60	1145.71
633.95	1138.68
634.29	1131.66
634.64	1124.87
634.98	1117.56
635.32	1110.43
635.67	1103.86
636.01	1097.26
636.36	1090.42
636.70	1083.92
637.05	1077.36
637.39	1070.94
637.73	1064.53
638.08	1058.62
638.42	1052.56
638.77	1046.02
639.11	1039.51
639.45	1033.12
639.80	1026.45
640.14	1020.01
640.49	1013.51
640.83	1007.08
641.17	1000.79
641.52	994.36
641.86	987.91
642.20	982.01
642.55	975.70
642.89	969.14
643.23	962.65
643.58	956.92
643.92	950.62
644.26	944.43
644.61	938.35
644.95	932.24
645.29	925.64
645.64	918.90
645.98	912.61
646.32	906.71
646.66	900.60
647.01	894.88
647.35	889.18
647.69	883.34
648.04	877.88
648.38	871.99
648.72	866.00
649.06	859.95
649.41	854.07
649.75	848.14
650.09	842.26
650.43	836.39
650.78	830.15
651.12	824.20
651.46	818.51
651.80	812.73
652.14	807.35
652.49	802.02
652.83	796.83
653.17	791.12
653.51	785.34
653.85	779.99
654.20	774.27
654.54	768.25
654.88	762.49
655.22	756.60
655.56	750.95
655.90	745.49
656.25	740.22
656.59	734.94
656.93	729.82
657.27	724.60
657.61	719.12
657.95	714.04
658.29	709.02
658.64	703.82
658.98	698.59
659.32	693.10
659.66	687.87
660.00	682.56
660.34	677.62
660.68	672.65
661.02	667.65
661.36	662.99
661.70	658.56
662.05	654.23
662.39	649.90
662.73	645.39
663.07	641.11
663.41	636.70
663.75	632.13
664.09	627.52
664.43	623.14
664.77	619.09
665.11	614.85
665.45	610.67
665.79	606.55
666.13	602.42
666.47	598.39
666.81	594.26
667.15	590.19
667.49	586.32
667.83	582.59
668.17	578.62
668.51	574.54
668.85	570.49
669.19	566.65
669.53	562.79
669.87	558.99
670.21	555.29
670.55	551.61
670.89	548.25
671.23	544.90
671.57	541.43
671.91	537.89
672.25	534.39
672.58	530.85
672.92	527.49
673.26	524.35
673.60	521.19
673.94	518.06
674.28	515.12
674.62	512.16
674.96	509.06
675.30	506.17
675.64	503.23
675.97	500.47
676.31	497.56
676.65	494.67
676.99	491.98
677.33	489.07
677.67	486.23
678.01	483.13
678.34	480.09
678.68	477.22
679.02	474.40
679.36	471.66
679.70	468.94
680.04	466.16
680.37	463.24
680.71	460.42
681.05	457.81
681.39	455.10
681.73	452.41
682.06	449.86
682.40	447.34
682.74	444.78
683.08	442.28
683.42	439.70
683.75	437.16
684.09	434.57
684.43	432.08
684.77	429.62
685.10	427.27
685.44	424.97
685.78	422.66
686.12	420.43
686.45	418.11
686.79	415.86
687.13	413.59
687.46	411.47
687.80	409.31
688.14	407.05
688.48	404.99
688.81	402.74
689.15	400.57
689.49	398.37
689.82	396.33
690.16	394.22
690.50	392.32
690.83	390.39
691.17	388.43
691.51	386.54
691.84	384.74
692.18	382.78
692.52	380.80
692.85	378.87
693.19	376.96
693.52	375.15
693.86	373.31
694.20	371.59
694.53	369.75
694.87	367.94
695.21	366.21
695.54	364.40
695.88	362.70
696.21	361.03
696.55	359.35
696.88	357.64
697.22	355.99
697.56	354.36
697.89	352.72
698.23	351.09
698.56	349.48
698.90	347.88
699.23	346.23
699.57	344.67
699.90	343.14
700.24	341.63
700.58	340.08
700.91	338.61
701.25	337.12
701.58	335.76
701.92	334.37
702.25	332.95
702.59	331.56
702.92	330.22
703.26	328.86
703.59	327.60
703.93	326.46
704.26	325.25
704.60	323.91
704.93	322.67
705.26	321.41
705.60	320.27
705.93	319.08
706.27	318.09
706.60	317.07
706.94	316.03
707.27	314.88
707.61	313.82
707.94	312.82
708.27	311.81
708.61	310.76
708.94	309.78
709.28	308.86
709.61	307.93
709.94	307.01
710.28	306.01
710.61	305.04
710.95	303.94
711.28	303.05
711.61	302.15
711.95	301.24
712.28	300.36
712.61	299.38
712.95	298.47
713.28	297.58
713.61	296.71
713.95	295.81
714.28	295.01
714.61	294.18
714.95	293.30
715.28	292.42
715.61	291.55
715.95	290.69
716.28	289.78
716.61	288.96
716.95	288.16
717.28	287.45
717.61	286.65
717.94	285.96
718.28	285.12
718.61	284.36
718.94	283.67
719.27	282.96
719.61	282.31
719.94	281.62
720.27	280.92
720.60	280.20
720.94	279.56
721.27	278.92
721.60	278.30
721.93	277.71
722.27	277.16
722.60	276.60
722.93	276.02
723.26	275.51
723.59	274.91
723.93	274.32
724.26	273.74
724.59	273.21
724.92	272.65
725.25	272.14
725.59	271.61
725.92	271.03
726.25	270.52
726.58	270.01
726.91	269.54
727.24	269.05
727.57	268.58
727.91	268.04
728.24	267.58
728.57	267.10
728.90	266.66
729.23	266.13
729.56	265.69
729.89	265.22
730.22	264.71
730.55	264.26
730.89	263.83
731.22	263.36
731.55	262.93
731.88	262.50
732.21	262.03
732.54	261.60
732.87	261.19
733.20	260.75
733.53	260.35
733.86	259.96
734.19	259.55
734.52	259.16
734.85	258.86
735.18	258.42
735.51	258.07
735.84	257.70
736.17	257.38
736.50	256.95
736.83	256.73
737.16	256.39
737.49	256.05
737.82	255.71
738.15	255.37
738.48	255.03
738.81	254.70
739.14	254.36
739.47	254.05
739.80	253.74
740.13	253.46
740.46	253.12
740.79	252.78
741.12	252.50
741.45	252.20
741.78	251.87
742.11	251.61
742.44	251.28
742.77	250.98
743.10	250.70
743.43	250.39
743.75	249.98
744.08	249.84
744.41	249.59
744.74	249.29
745.07	249.04
745.40	248.77
745.73	248.53
746.06	248.29
746.39	248.03
746.71	247.77
747.04	247.50
747.37	247.29
747.70	247.08
748.03	246.81
748.36	246.58
748.68	246.32
749.01	246.05
749.34	245.83
749.67	245.60
750.00	245.37
750.33	245.27
750.65	245.07
750.98	244.72
751.31	244.51
751.64	244.34
751.97	244.19
752.29	243.99
752.62	243.73
752.95	243.54
753.28	243.35
753.60	243.15
753.93	242.98
754.26	242.78
754.59	242.54
754.91	242.33
755.24	242.14
755.57	241.96
755.90	241.82
756.22	241.60
756.55	241.42
756.88	241.22
757.20	240.97
757.53	240.81
757.86	240.64
758.19	240.50
758.51	240.32
758.84	240.10
759.17	239.95
759.49	239.80
759.82	239.70
760.15	239.55
760.47	239.42
760.80	239.24
761.13	239.09
761.45	238.95
761.78	238.84
762.11	238.71
762.43	238.56
762.76	238.39
763.08	238.27
763.41	238.15
763.74	238.03
764.06	237.89
764.39	237.70
764.71	237.59
765.04	237.39
765.37	237.27
765.69	237.11
766.02	236.98
766.34	236.84
766.67	236.66
767.00	236.56
767.32	236.49
767.65	236.45
767.97	236.35
768.30	236.25
768.62	236.13
768.95	235.98
769.27	235.89
769.60	235.80
769.92	235.67
770.25	235.56
770.57	235.44
770.90	235.33
771.22	235.25
771.55	235.13
771.87	235.08
772.20	234.93
772.52	234.94
772.85	234.93
773.17	234.84
773.50	234.75
773.82	234.63
774.15	234.49
774.47	234.32
774.80	234.20
775.12	234.07
775.45	233.98
775.77	233.89
776.09	233.79
776.42	233.72
776.74	233.65
777.07	233.51
777.39	233.46
777.72	233.37
778.04	233.33
778.36	233.25
778.69	233.15
779.01	233.10
779.33	232.95
779.66	232.77
779.98	232.71
780.31	232.62
780.63	232.58
780.95	232.52
781.28	232.50
781.60	232.45
781.92	232.42
782.25	232.37
782.57	232.33
782.89	232.28
783.22	232.21
783.54	232.19
783.86	232.18
784.19	232.07
784.51	232.06
784.83	231.98
785.16	231.90
785.48	231.87
785.80	231.87
786.12	231.84
786.45	231.82
786.77	231.77
787.09	231.79
787.42	231.70
787.74	231.68
788.06	231.61
788.38	231.58
788.71	231.50
789.03	231.49
789.35	231.46
789.67	231.42
789.99	231.38
790.32	231.31
790.64	231.29
790.96	231.37
791.28	231.26
791.61	231.21
791.93	231.23
792.25	231.19
792.57	231.18
792.89	231.11
793.21	231.09
793.54	231.05
793.86	230.94
794.18	230.92
794.50	230.84
794.82	230.82
795.14	230.80
795.47	230.77
795.79	230.70
796.11	230.63
796.43	230.59
796.75	230.55
797.07	230.52
797.39	230.48
797.71	230.34
798.04	230.35
798.36	230.30
798.68	230.25
799.00	230.23
799.32	230.14
799.64	230.13
799.96	230.08
800.28	230.06
800.60	230.02
800.92	230.00
801.24	229.97
801.56	229.96
801.89	229.94
802.21	229.91
802.53	229.87
802.85	229.89
803.17	229.90
803.49	229.86
803.81	229.81
804.13	229.80
804.45	229.77
804.77	229.76
805.09	229.72
805.41	229.67
805.73	229.60
806.05	229.57
806.37	229.51
806.69	229.48
807.01	229.46
807.33	229.44
807.65	229.37
807.97	229.41
808.28	229.37
808.60	229.33
808.92	229.29
809.24	229.31
809.56	229.26
809.88	229.18
810.20	229.15
810.52	229.15
810.84	229.04
811.16	229.01
811.48	228.97
811.80	229.02
812.12	229.01
812.43	229.00
812.75	228.95
813.07	228.95
813.39	228.93
813.71	228.87
814.03	228.85
814.35	228.81
814.67	228.72
814.98	228.68
815.30	228.64
815.62	228.63
815.94	228.54
816.26	228.54
816.58	228.49
816.89	228.45
817.21	228.42
817.53	228.45
817.85	228.44
818.17	228.41
818.48	228.33
818.80	228.34
819.12	228.30
819.44	228.32
819.76	228.25
820.07	228.22
820.39	228.18
820.71	228.16
821.03	228.16
821.34	228.17
821.66	228.14
821.98	228.14
822.30	228.11
822.61	228.18
822.93	228.15
823.25	228.16
823.57	228.16
823.88	228.15
824.20	228.12
824.52	228.11
824.83	228.09
825.15	228.09
825.47	228.08
825.79	228.12
826.10	228.05
826.42	228.07
826.74	228.08
827.05	228.08
827.37	228.10
827.69	228.08
828.00	228.07
828.32	228.07
828.64	228.02
828.95	228.08
829.27	228.02
829.58	228.00
829.90	228.02
830.22	228.00
830.53	227.99
830.85	227.97
831.17	227.94
831.48	227.96
831.80	227.97
832.11	227.93
832.43	227.90
832.75	227.93
833.06	228.03
833.38	228.01
833.69	228.03
834.01	228.04
834.32	228.03
834.64	228.01
834.96	228.02
835.27	228.05
835.59	228.00
835.90	227.99
836.22	227.99
836.53	227.96
836.85	227.97
837.16	228.05
837.48	228.06
837.79	228.08
838.11	228.07
838.42	228.04
838.74	228.06
839.05	228.02
839.37	228.02
839.68	227.91
840.00	227.91
840.31	227.89
840.63	227.85
840.94	227.85
841.26	227.83
841.57	227.81
841.88	227.80
842.20	227.79
842.51	227.76
842.83	227.78
843.14	227.86
843.46	227.86
843.77	227.78
844.08	227.76
844.40	227.74
844.71	227.69
845.03	227.67
845.34	227.63
845.65	227.64
845.97	227.62
846.28	227.62
846.60	227.59
846.91	227.58
847.22	227.57
847.54	227.58
847.85	227.57
848.16	227.53
848.48	227.52
848.79	227.55
849.10	227.56
849.42	227.53
849.73	227.44
850.04	227.44
850.36	227.44
850.67	227.45
850.98	227.42
851.30	227.46
851.61	227.47
851.92	227.47
852.23	227.50
852.55	227.49
852.86	227.49
853.17	227.51
853.49	227.52
853.80	227.53
854.11	227.56
854.42	227.56
854.74	227.56
855.05	227.56
855.36	227.50
855.67	227.52
855.99	227.50
856.30	227.61
856.61	227.58
856.92	227.54
857.23	227.54
857.55	227.54
857.86	227.53
858.17	227.52
858.48	227.50
858.79	227.45
859.11	227.46
859.42	227.46
859.73	227.42
860.04	227.42
860.35	227.39
860.66	227.33
860.98	227.35
861.29	227.35
861.60	227.35
861.91	227.35
862.22	227.32
862.53	227.32
862.84	227.18
863.16	227.23
863.47	227.21
863.78	227.20
864.09	227.21
864.40	227.20
864.71	227.22
865.02	227.24
865.33	227.23
865.64	227.22
865.95	227.20
866.27	227.28
866.58	227.26
866.89	227.29
867.20	227.31
867.51	227.27
867.82	227.28
868.13	227.30
868.44	227.30
868.75	227.31
869.06	227.29
869.37	227.30
869.68	227.27
869.99	227.31
870.30	227.33
870.61	227.31
870.92	227.31
871.23	227.31
871.54	227.34
871.85	227.35
872.16	227.35
872.47	227.37
872.78	227.32
873.09	227.31
873.40	227.30
873.71	227.29
874.02	227.32
874.33	227.31
874.64	227.28
874.95	227.30
875.26	227.28
875.56	227.30
875.87	227.30
876.18	227.33
876.49	227.43
876.80	227.40
877.11	227.41
877.42	227.38
877.73	227.36
878.04	227.32
878.35	227.32
878.66	227.35
878.96	227.34
879.27	227.33
879.58	227.35
879.89	227.36
880.20	227.39
880.51	227.36
880.82	227.38
881.12	227.36
881.43	227.35
881.74	227.33
882.05	227.35
882.36	227.30
882.67	227.27
882.97	227.16
883.28	227.18
883.59	227.14
883.90	227.17
884.21	227.18
884.51	227.18
884.82	227.16
885.13	227.10
885.44	227.06
885.74	227.07
886.05	227.05
886.36	227.02
886.67	226.98
886.98	227.03
887.28	227.01
887.59	227.01
887.90	226.99
888.20	227.00
888.51	226.98
888.82	227.02
889.13	227.01
889.43	227.06
889.74	227.03
890.05	227.07
890.35	227.04
890.66	227.02
890.97	227.03
891.28	227.02
891.58	227.07
891.89	227.09
892.20	227.08
892.50	227.07
892.81	227.06
893.12	227.03
893.42	226.97
893.73	226.98
894.04	226.98
894.34	226.99
894.65	226.99
894.95	226.99
895.26	226.98
895.57	227.02
895.87	226.92
896.18	226.97
896.48	226.91
896.79	226.93
897.10	226.94
897.40	226.93
897.71	226.95
898.01	226.91
898.32	226.93
898.63	226.93
898.93	226.93
899.24	226.95
899.54	226.97
899.85	226.98
900.15	227.01
900.46	227.01
900.76	227.01
901.07	227.00
901.38	226.98
901.68	226.99
901.99	226.96
902.29	227.01
902.60	226.98
902.90	227.00
903.21	227.00
903.51	226.98
903.82	226.98
904.12	226.97
904.43	226.99
904.73	226.97
905.03	226.95
905.34	227.04
905.64	227.04
905.95	227.05
906.25	227.06
906.56	227.03
906.86	227.03
907.17	227.03
907.47	227.03
907.77	227.01
908.08	226.98
908.38	226.98
908.69	226.96
908.99	226.98
909.30	227.01
909.60	226.96
909.90	226.98
910.21	226.96
910.51	226.94
910.81	226.94
911.12	226.92
911.42	226.92
911.73	226.80
912.03	226.79
912.33	226.79
912.64	226.78
912.94	226.77
913.24	226.75
913.55	226.76
913.85	226.79
914.15	226.82
914.46	226.84
914.76	226.84
915.06	226.85
915.37	226.83
915.67	226.83
915.97	226.88
916.27	226.87
916.58	226.88
916.88	226.90
917.18	226.88
917.49	226.95
917.79	226.98
918.09	226.99
918.39	227.02
918.70	227.03
919.00	227.02
919.30	227.07
919.60	227.04
919.91	227.01
920.21	227.00
920.51	226.98
920.81	226.98
921.12	226.98
921.42	226.98
921.72	226.99
922.02	226.99
922.32	226.99
922.63	227.00
922.93	227.06
923.23	227.08
923.53	227.08
923.83	227.02
924.13	227.00
924.44	226.98
924.74	227.00
925.04	227.03
925.34	227.04
925.64	227.02
925.94	227.04
926.24	227.08
926.55	227.09
926.85	227.12
927.15	227.10
927.45	227.12
927.75	227.11
928.05	227.10
928.35	227.05
928.65	227.11
928.95	227.06
929.26	227.04
929.56	227.03
929.86	227.06
930.16	227.05
930.46	227.06
930.76	227.10
931.06	227.06
931.36	227.01
931.66	227.05
931.96	227.05
932.26	227.05
932.56	227.03
932.86	227.02
933.16	226.98
933.46	226.96
933.76	226.93
934.06	226.94
934.36	226.98
934.66	227.00
934.96	226.96
935.26	227.00
935.56	227.00
935.86	226.98
936.16	226.93
936.46	226.94
936.76	226.92
937.06	226.90
937.36	226.86
937.66	226.87
937.96	226.82
938.26	226.77
938.56	226.77
938.86	226.76
939.16	226.78
939.46	226.84
939.76	226.84
940.06	226.86
940.35	226.87
940.65	226.82
940.95	226.83
941.25	226.79
941.55	226.78
941.85	226.79
942.15	226.80
942.45	226.84
942.75	226.84
943.04	226.87
943.34	226.87
943.64	226.86
943.94	226.85
944.24	226.87
944.54	226.89
944.84	226.89
945.13	226.89
945.43	226.87
945.73	226.88
946.03	226.87
946.33	226.86
946.62	226.83
946.92	226.84
947.22	226.83
947.52	226.85
947.82	226.86
948.11	226.82
948.41	226.81
948.71	226.76
949.01	226.76
949.31	226.74
949.60	226.73
949.90	226.77
950.20	226.78
950.50	226.79
950.79	226.77
951.09	226.77
951.39	226.78
951.69	226.78
951.98	226.75
952.28	226.75
952.58	226.75
952.87	226.76
953.17	226.76
953.47	226.74
953.76	226.73
954.06	226.71
954.36	226.73
954.66	226.72
954.95	226.74
955.25	226.74
955.55	226.75
955.84	226.72
956.14	226.73
956.44	226.71
956.73	226.67
957.03	226.69
957.32	226.68
957.62	226.63
957.92	226.63
958.21	226.65
958.51	226.76
958.81	226.77
959.10	226.79
959.40	226.78
959.69	226.79
959.99	226.83
960.29	226.80
960.58	226.78
960.88	226.84
961.17	226.81
961.47	226.83
961.76	226.82
962.06	226.83
962.36	226.87
962.65	226.88
962.95	226.90
963.24	226.86
963.54	226.88
963.83	226.89
964.13	226.92
964.42	226.87
964.72	226.81
965.01	226.83
965.31	226.82
965.60	226.82
965.90	226.87
966.19	226.85
966.49	226.87
966.78	226.88
967.08	226.86
967.37	226.92
967.67	226.91
967.96	226.94
968.26	226.95
968.55	226.93
968.85	226.94
969.14	226.95
969.43	226.96
969.73	226.99
970.02	227.01
970.32	226.97
970.61	226.99
970.91	226.97
971.20	226.93
971.49	226.91
971.79	226.93
972.08	226.85
972.38	226.88
972.67	226.86
972.96	226.86
973.26	226.83
973.55	226.83
973.85	226.81
974.14	226.80
974.43	226.78
974.73	226.74
975.02	226.74
975.31	226.75
975.61	226.74
975.90	226.69
976.19	226.71
976.49	226.74
976.78	226.74
977.07	226.72
977.37	226.74
977.66	226.72
977.95	226.69
978.24	226.71
978.54	226.69
978.83	226.68
979.12	226.68
979.42	226.69
979.71	226.66
980.00	226.66
980.29	226.63
980.59	226.66
980.88	226.68
981.17	226.65
981.46	226.62
981.76	226.63
982.05	226.64
982.34	226.62
982.63	226.60
982.93	226.58
983.22	226.56
983.51	226.58
983.80	226.61
984.09	226.62
984.39	226.65
984.68	226.63
984.97	226.66
985.26	226.65
985.55	226.64
985.85	226.62
986.14	226.61
986.43	226.64
986.72	226.62
987.01	226.59
987.30	226.59
987.59	226.58
987.89	226.59
988.18	226.56
988.47	226.55
988.76	226.54
989.05	226.56
989.34	226.55
989.63	226.55
989.92	226.54
990.22	226.53
990.51	226.47
990.80	226.45
991.09	226.45
991.38	226.46
991.67	226.46
991.96	226.47
992.25	226.51
992.54	226.49
992.83	226.47
993.12	226.48
993.41	226.51
993.70	226.54
993.99	226.55
994.28	226.57
994.58	226.60
994.87	226.59
995.16	226.59
995.45	226.58
995.74	226.56
996.03	226.56
996.32	226.57
996.61	226.59
996.90	226.62
997.19	226.61
997.48	226.62
997.77	226.61
998.06	226.61
998.34	226.58
998.63	226.60
998.92	226.60
999.21	226.58
999.50	226.58
999.79	226.57
1000.08	226.57
1000.37	226.57
1000.66	226.55
1000.95	226.62
1001.24	226.62
1001.53	226.63
1001.82	226.60
1002.11	226.58
1002.40	226.58
1002.68	226.63
1002.97	226.67
1003.26	226.67
1003.55	226.65
1003.84	226.66
1004.13	226.69
1004.42	226.69
1004.71	226.66
1004.99	226.68
1005.28	226.75
1005.57	226.76
1005.86	226.72
1006.15	226.70
1006.44	226.68
1006.72	226.69
1007.01	226.65
1007.30	226.66
1007.59	226.67
1007.88	226.71
1008.17	226.73
1008.45	226.72
1008.74	226.67
1009.03	226.67
1009.32	226.67
1009.60	226.66
1009.89	226.62
1010.18	226.60
1010.47	226.62
1010.76	226.65
1011.04	226.63
1011.33	226.61
1011.62	226.60
1011.91	226.64
1012.19	226.65
1012.48	226.68
1012.77	226.66
1013.05	226.70
1013.34	226.70
1013.63	226.70
1013.92	226.69
1014.20	226.69
1014.49	226.71
1014.78	226.71
1015.06	226.66
1015.35	226.64
1015.64	226.65
1015.92	226.71
1016.21	226.69
1016.50	226.66
1016.78	226.67
1017.07	226.70
1017.36	226.73
1017.64	226.71
1017.93	226.70
1018.22	226.68
1018.50	226.65
1018.79	226.67
1019.08	226.61
1019.36	226.61
1019.65	226.60
1019.93	226.64
1020.22	226.64
1020.51	226.68
1020.79	226.64
1021.08	226.38
1021.36	226.18
1021.65	226.90
1021.94	226.17
1022.22	226.72
1022.51	226.32
1022.79	227.56
1023.08	226.65
1023.36	227.61
1023.65	225.95
>>>>>End Processed Spectral Data<<<<<
