SpectraSuite Data File
++++++++++++++++++++++++++++++++++++
Date: Fri Feb 01 16:28:12 EST 2013
User: group
Dark Spectrum Present: No
Reference Spectrum Present: No
Number of Sampled Component Spectra: 1
Spectrometers: USB2E7196
Integration Time (usec): 35000 (USB2E7196)
Spectra Averaged: 100 (USB2E7196)
Boxcar Smoothing: 10 (USB2E7196)
Correct for Electrical Dark: No (USB2E7196)
Strobe/Lamp Enabled: No (USB2E7196)
Correct for Detector Non-linearity: No (USB2E7196)
Correct for Stray Light: No (USB2E7196)
Number of Pixels in Processed Spectrum: 2048
>>>>>Begin Processed Spectral Data<<<<<
339.09	0.00
339.48	214.06
339.86	215.26
340.24	217.02
340.63	218.76
341.01	220.94
341.39	221.22
341.78	222.01
342.16	223.34
342.54	224.50
342.93	212.50
343.31	223.25
343.69	223.80
344.07	224.27
344.46	224.67
344.84	225.00
345.22	225.24
345.60	225.46
345.99	225.68
346.37	225.82
346.75	225.91
347.13	226.01
347.52	226.05
347.90	226.09
348.28	226.14
348.66	226.18
349.05	226.16
349.43	226.22
349.81	226.24
350.19	226.29
350.57	226.35
350.96	226.40
351.34	226.48
351.72	226.55
352.10	226.64
352.48	226.71
352.87	226.78
353.25	226.83
353.63	226.92
354.01	226.96
354.39	227.05
354.77	227.13
355.15	227.21
355.54	227.27
355.92	227.37
356.30	227.41
356.68	227.51
357.06	227.60
357.44	227.66
357.82	227.74
358.20	227.83
358.58	227.88
358.97	227.92
359.35	228.00
359.73	228.08
360.11	228.13
360.49	228.20
360.87	228.25
361.25	228.33
361.63	228.39
362.01	228.41
362.39	228.40
362.77	228.44
363.15	228.46
363.53	228.48
363.91	228.49
364.29	228.51
364.67	228.47
365.05	228.46
365.43	228.47
365.81	228.48
366.19	228.49
366.57	228.51
366.95	228.51
367.33	228.46
367.71	228.42
368.09	228.41
368.47	228.40
368.85	228.36
369.23	228.34
369.61	228.30
369.99	228.30
370.37	228.30
370.75	228.30
371.13	228.24
371.51	228.21
371.89	228.15
372.27	228.15
372.65	228.09
373.03	228.08
373.41	228.02
373.78	227.96
374.16	227.90
374.54	227.80
374.92	227.75
375.30	227.70
375.68	227.66
376.06	227.63
376.44	227.57
376.82	227.50
377.19	227.44
377.57	227.35
377.95	227.27
378.33	227.16
378.71	227.06
379.09	227.00
379.47	226.92
379.84	226.83
380.22	226.73
380.60	226.67
380.98	226.57
381.36	226.50
381.73	226.42
382.11	226.36
382.49	226.31
382.87	226.21
383.25	226.15
383.62	226.17
384.00	226.11
384.38	226.05
384.76	226.03
385.13	226.02
385.51	226.00
385.89	225.94
386.27	225.91
386.64	225.85
387.02	225.82
387.40	225.79
387.78	225.77
388.15	225.73
388.53	225.69
388.91	225.68
389.29	225.66
389.66	225.67
390.04	225.65
390.42	225.64
390.79	225.65
391.17	225.63
391.55	225.53
391.92	225.51
392.30	225.52
392.68	225.52
393.05	225.49
393.43	225.53
393.81	225.55
394.18	225.55
394.56	225.60
394.94	225.62
395.31	225.64
395.69	225.68
396.06	225.73
396.44	225.75
396.82	225.80
397.19	225.89
397.57	225.89
397.95	225.93
398.32	225.93
398.70	225.99
399.07	226.08
399.45	226.12
399.82	226.17
400.20	226.23
400.58	226.31
400.95	226.38
401.33	226.43
401.70	226.60
402.08	226.72
402.45	226.80
402.83	226.92
403.20	227.01
403.58	227.09
403.95	227.21
404.33	227.34
404.71	227.45
405.08	227.62
405.46	227.77
405.83	227.91
406.21	228.10
406.58	228.24
406.96	228.43
407.33	228.58
407.70	228.76
408.08	229.02
408.45	229.20
408.83	229.42
409.20	229.64
409.58	229.80
409.95	230.06
410.33	230.32
410.70	230.56
411.08	230.89
411.45	231.21
411.82	231.53
412.20	231.87
412.57	232.28
412.95	232.57
413.32	233.00
413.69	233.42
414.07	233.84
414.44	234.36
414.82	234.82
415.19	235.39
415.56	235.96
415.94	236.48
416.31	237.13
416.68	237.72
417.06	238.41
417.43	239.07
417.81	239.82
418.18	240.56
418.55	241.39
418.93	242.22
419.30	243.11
419.67	244.00
420.04	244.94
420.42	245.92
420.79	247.09
421.16	248.23
421.54	249.40
421.91	250.58
422.28	251.82
422.66	253.13
423.03	254.45
423.40	255.78
423.77	257.17
424.15	258.57
424.52	260.07
424.89	261.68
425.26	263.20
425.64	264.62
426.01	266.21
426.38	267.89
426.75	269.55
427.13	271.28
427.50	273.08
427.87	274.99
428.24	276.83
428.61	278.55
428.99	280.45
429.36	282.51
429.73	284.56
430.10	286.56
430.47	288.59
430.85	290.67
431.22	292.89
431.59	295.30
431.96	297.52
432.33	299.97
432.70	302.31
433.08	305.13
433.45	307.73
433.82	310.34
434.19	313.23
434.56	316.07
434.93	318.69
435.30	321.30
435.68	324.13
436.05	326.96
436.42	329.77
436.79	332.27
437.16	334.97
437.53	337.80
437.90	340.58
438.27	343.31
438.64	346.10
439.01	348.72
439.38	350.93
439.75	353.12
440.13	355.65
440.50	357.96
440.87	359.81
441.24	361.80
441.61	363.94
441.98	365.39
442.35	367.15
442.72	369.01
443.09	370.82
443.46	371.79
443.83	372.36
444.20	372.83
444.57	373.65
444.94	373.94
445.31	374.27
445.68	374.60
446.05	374.68
446.42	374.32
446.79	373.83
447.16	373.38
447.53	373.07
447.90	371.92
448.27	370.77
448.64	369.18
449.01	368.01
449.37	366.03
449.74	364.10
450.11	361.91
450.48	359.44
450.85	356.89
451.22	354.76
451.59	352.77
451.96	350.85
452.33	348.25
452.70	345.89
453.07	343.07
453.43	340.19
453.80	337.43
454.17	334.78
454.54	332.29
454.91	329.57
455.28	326.87
455.65	324.39
456.02	321.98
456.38	319.87
456.75	317.23
457.12	315.05
457.49	312.85
457.86	310.64
458.23	308.82
458.59	306.83
458.96	304.81
459.33	302.96
459.70	301.14
460.07	299.66
460.43	297.96
460.80	296.39
461.17	294.94
461.54	293.49
461.91	292.07
462.27	290.63
462.64	289.43
463.01	288.11
463.38	286.83
463.74	285.46
464.11	284.29
464.48	283.28
464.85	282.13
465.21	281.28
465.58	280.38
465.95	279.31
466.32	278.38
466.68	277.48
467.05	276.60
467.42	275.70
467.78	274.77
468.15	273.93
468.52	273.29
468.88	272.50
469.25	271.75
469.62	271.13
469.98	270.44
470.35	269.79
470.72	269.21
471.08	268.55
471.45	268.02
471.82	267.51
472.18	266.93
472.55	266.58
472.92	266.11
473.28	265.65
473.65	265.17
474.02	264.76
474.38	264.37
474.75	264.05
475.11	263.71
475.48	263.51
475.85	263.30
476.21	263.05
476.58	262.86
476.94	262.69
477.31	262.58
477.67	262.46
478.04	262.38
478.41	262.35
478.77	262.42
479.14	262.39
479.50	262.41
479.87	262.52
480.23	262.54
480.60	262.61
480.96	262.70
481.33	262.95
481.69	263.13
482.06	263.37
482.42	263.57
482.79	263.81
483.15	264.13
483.52	264.49
483.88	264.85
484.25	265.26
484.61	265.70
484.98	266.13
485.34	266.70
485.71	267.29
486.07	267.88
486.44	268.46
486.80	269.16
487.17	269.89
487.53	270.67
487.90	271.52
488.26	272.48
488.62	273.47
488.99	274.44
489.35	275.51
489.72	276.65
490.08	277.86
490.44	279.10
490.81	280.39
491.17	281.75
491.54	283.28
491.90	284.77
492.26	286.41
492.63	288.14
492.99	289.92
493.36	291.82
493.72	293.86
494.08	295.94
494.45	298.21
494.81	300.58
495.17	303.07
495.54	305.66
495.90	308.34
496.26	311.15
496.63	314.10
496.99	317.21
497.35	320.44
497.72	323.86
498.08	327.40
498.44	331.11
498.80	335.09
499.17	339.11
499.53	343.28
499.89	347.68
500.26	352.16
500.62	356.85
500.98	361.86
501.34	366.97
501.71	372.29
502.07	377.72
502.43	383.39
502.79	389.16
503.16	395.21
503.52	401.45
503.88	407.87
504.24	414.56
504.60	421.44
504.97	428.58
505.33	435.93
505.69	443.65
506.05	451.45
506.41	459.26
506.78	467.40
507.14	475.87
507.50	484.56
507.86	493.60
508.22	502.76
508.59	511.92
508.95	521.49
509.31	531.36
509.67	541.43
510.03	551.70
510.39	562.24
510.75	573.03
511.12	583.98
511.48	595.26
511.84	606.66
512.20	618.21
512.56	630.13
512.92	642.30
513.28	654.64
513.64	667.04
514.00	679.71
514.37	692.66
514.73	705.68
515.09	718.65
515.45	731.86
515.81	745.47
516.17	759.46
516.53	773.57
516.89	787.70
517.25	801.81
517.61	816.18
517.97	830.62
518.33	844.97
518.69	859.69
519.05	874.62
519.41	889.75
519.77	905.22
520.13	920.59
520.49	935.89
520.85	951.29
521.21	966.98
521.57	983.13
521.93	998.74
522.29	1015.09
522.65	1031.36
523.01	1047.63
523.37	1063.58
523.73	1079.67
524.09	1095.52
524.45	1111.72
524.81	1128.36
525.17	1145.00
525.53	1161.81
525.89	1178.70
526.25	1195.51
526.61	1211.82
526.97	1228.52
527.33	1244.89
527.68	1261.53
528.04	1278.01
528.40	1294.46
528.76	1311.49
529.12	1328.11
529.48	1344.97
529.84	1360.90
530.20	1377.41
530.56	1394.21
530.91	1411.57
531.27	1428.15
531.63	1444.66
531.99	1461.25
532.35	1477.06
532.71	1492.89
533.07	1509.08
533.42	1524.92
533.78	1540.72
534.14	1556.95
534.50	1572.09
534.86	1587.80
535.21	1602.84
535.57	1618.54
535.93	1634.06
536.29	1648.65
536.65	1663.50
537.00	1678.09
537.36	1693.36
537.72	1707.79
538.08	1722.25
538.44	1735.98
538.79	1749.89
539.15	1763.45
539.51	1776.94
539.87	1791.20
540.22	1804.92
540.58	1818.56
540.94	1831.75
541.29	1844.60
541.65	1857.13
542.01	1870.32
542.37	1882.62
542.72	1894.93
543.08	1906.60
543.44	1918.78
543.79	1929.94
544.15	1941.03
544.51	1952.67
544.87	1963.67
545.22	1974.36
545.58	1984.36
545.94	1993.96
546.29	2003.62
546.65	2013.45
547.01	2022.73
547.36	2031.40
547.72	2039.80
548.07	2047.47
548.43	2055.60
548.79	2063.66
549.14	2071.15
549.50	2078.34
549.86	2085.90
550.21	2093.21
550.57	2100.50
550.92	2106.87
551.28	2113.86
551.64	2120.79
551.99	2127.18
552.35	2133.22
552.70	2139.33
553.06	2145.33
553.41	2151.81
553.77	2157.83
554.13	2163.86
554.48	2169.97
554.84	2175.45
555.19	2180.77
555.55	2186.07
555.90	2190.53
556.26	2195.29
556.61	2200.10
556.97	2204.51
557.32	2208.65
557.68	2212.77
558.03	2217.00
558.39	2220.91
558.74	2225.51
559.10	2229.42
559.45	2233.02
559.81	2237.25
560.16	2241.02
560.52	2244.29
560.87	2247.52
561.23	2250.19
561.58	2253.10
561.94	2255.57
562.29	2257.98
562.64	2260.59
563.00	2263.15
563.35	2266.60
563.71	2269.74
564.06	2272.96
564.42	2275.80
564.77	2278.39
565.12	2280.66
565.48	2282.62
565.83	2284.50
566.19	2285.84
566.54	2286.69
566.89	2287.98
567.25	2288.56
567.60	2290.02
567.96	2291.63
568.31	2292.49
568.66	2293.67
569.02	2294.23
569.37	2294.54
569.72	2295.34
570.08	2295.69
570.43	2295.88
570.78	2295.40
571.14	2293.91
571.49	2292.54
571.84	2292.36
572.20	2291.35
572.55	2290.40
572.90	2288.91
573.26	2287.64
573.61	2286.08
573.96	2284.48
574.31	2281.46
574.67	2278.53
575.02	2274.97
575.37	2271.66
575.72	2267.92
576.08	2264.65
576.43	2261.44
576.78	2257.88
577.13	2254.88
577.49	2251.60
577.84	2247.98
578.19	2244.40
578.54	2240.94
578.90	2236.86
579.25	2231.20
579.60	2226.13
579.95	2221.08
580.30	2216.12
580.66	2210.85
581.01	2205.87
581.36	2200.97
581.71	2196.88
582.06	2192.52
582.42	2188.23
582.77	2183.19
583.12	2178.82
583.47	2174.13
583.82	2169.38
584.17	2164.16
584.53	2158.79
584.88	2153.24
585.23	2147.60
585.58	2142.16
585.93	2136.64
586.28	2131.86
586.63	2126.88
586.98	2121.99
587.34	2117.35
587.69	2112.42
588.04	2107.30
588.39	2101.76
588.74	2095.30
589.09	2089.27
589.44	2082.56
589.79	2076.43
590.14	2071.02
590.49	2064.44
590.84	2058.18
591.19	2052.05
591.54	2045.72
591.89	2038.26
592.25	2031.51
592.60	2024.43
592.95	2016.83
593.30	2009.64
593.65	2002.09
594.00	1995.09
594.35	1987.99
594.70	1980.02
595.05	1972.98
595.40	1965.78
595.75	1958.34
596.10	1952.26
596.45	1945.67
596.80	1939.64
597.15	1933.22
597.50	1925.99
597.85	1919.58
598.19	1912.81
598.54	1905.74
598.89	1899.12
599.24	1893.33
599.59	1886.73
599.94	1880.51
600.29	1874.23
600.64	1867.78
600.99	1860.57
601.34	1853.96
601.69	1846.98
602.04	1840.23
602.39	1832.78
602.74	1826.03
603.08	1819.23
603.43	1812.44
603.78	1805.15
604.13	1797.89
604.48	1790.51
604.83	1783.66
605.18	1776.73
605.53	1768.95
605.87	1761.04
606.22	1753.95
606.57	1745.98
606.92	1738.74
607.27	1731.77
607.62	1724.77
607.96	1717.45
608.31	1710.70
608.66	1702.98
609.01	1695.38
609.36	1687.78
609.70	1679.89
610.05	1671.84
610.40	1664.29
610.75	1656.10
611.10	1648.33
611.44	1639.82
611.79	1631.81
612.14	1623.06
612.49	1613.96
612.83	1605.62
613.18	1597.50
613.53	1589.34
613.88	1580.75
614.22	1572.41
614.57	1563.71
614.92	1555.76
615.27	1548.18
615.61	1539.81
615.96	1531.85
616.31	1524.24
616.65	1516.93
617.00	1509.38
617.35	1501.68
617.70	1493.22
618.04	1484.70
618.39	1476.47
618.74	1469.02
619.08	1460.75
619.43	1453.20
619.78	1446.28
620.12	1439.10
620.47	1431.53
620.82	1423.28
621.16	1415.98
621.51	1408.35
621.85	1400.63
622.20	1392.14
622.55	1383.84
622.89	1376.10
623.24	1368.43
623.59	1360.94
623.93	1353.46
624.28	1346.14
624.62	1338.63
624.97	1331.45
625.32	1324.69
625.66	1317.75
626.01	1310.58
626.35	1303.15
626.70	1295.34
627.04	1287.63
627.39	1279.84
627.73	1272.44
628.08	1265.59
628.43	1258.16
628.77	1250.81
629.12	1243.31
629.46	1236.18
629.81	1228.75
630.15	1221.49
630.50	1214.08
630.84	1205.93
631.19	1197.96
631.53	1190.45
631.88	1182.91
632.22	1175.33
632.57	1168.00
632.91	1160.41
633.26	1152.98
633.60	1145.61
633.95	1138.63
634.29	1131.50
634.64	1124.84
634.98	1117.48
635.32	1110.29
635.67	1103.68
636.01	1097.04
636.36	1090.19
636.70	1083.57
637.05	1076.95
637.39	1070.39
637.73	1063.95
638.08	1058.03
638.42	1051.89
638.77	1045.43
639.11	1038.85
639.45	1032.54
639.80	1025.89
640.14	1019.46
640.49	1012.88
640.83	1006.54
641.17	1000.27
641.52	993.95
641.86	987.41
642.20	981.59
642.55	975.24
642.89	968.85
643.23	962.38
643.58	956.64
643.92	950.46
644.26	944.34
644.61	938.44
644.95	932.36
645.29	925.82
645.64	919.17
645.98	912.90
646.32	906.98
646.66	900.95
647.01	895.10
647.35	889.36
647.69	883.53
648.04	877.97
648.38	872.15
648.72	866.14
649.06	860.11
649.41	854.22
649.75	848.35
650.09	842.45
650.43	836.63
650.78	830.44
651.12	824.57
651.46	818.88
651.80	813.11
652.14	807.72
652.49	802.35
652.83	797.20
653.17	791.40
653.51	785.71
653.85	780.29
654.20	774.62
654.54	768.63
654.88	762.88
655.22	757.01
655.56	751.32
655.90	745.86
656.25	740.66
656.59	735.27
656.93	730.17
657.27	724.96
657.61	719.56
657.95	714.49
658.29	709.32
658.64	704.02
658.98	698.63
659.32	693.11
659.66	687.92
660.00	682.63
660.34	677.81
660.68	672.85
661.02	667.77
661.36	663.10
661.70	658.59
662.05	654.26
662.39	649.92
662.73	645.46
663.07	641.12
663.41	636.53
663.75	632.03
664.09	627.45
664.43	623.08
664.77	618.91
665.11	614.62
665.45	610.55
665.79	606.50
666.13	602.41
666.47	598.32
666.81	594.18
667.15	589.97
667.49	586.00
667.83	582.25
668.17	578.35
668.51	574.25
668.85	570.24
669.19	566.29
669.53	562.42
669.87	558.55
670.21	554.80
670.55	551.24
670.89	547.80
671.23	544.41
671.57	540.88
671.91	537.32
672.25	533.81
672.58	530.22
672.92	526.78
673.26	523.57
673.60	520.45
673.94	517.29
674.28	514.40
674.62	511.47
674.96	508.30
675.30	505.42
675.64	502.47
675.97	499.67
676.31	496.85
676.65	493.97
676.99	491.21
677.33	488.42
677.67	485.58
678.01	482.53
678.34	479.47
678.68	476.57
679.02	473.77
679.36	471.05
679.70	468.38
680.04	465.61
680.37	462.77
680.71	459.94
681.05	457.37
681.39	454.67
681.73	451.99
682.06	449.47
682.40	446.88
682.74	444.38
683.08	441.88
683.42	439.29
683.75	436.79
684.09	434.27
684.43	431.80
684.77	429.28
685.10	426.96
685.44	424.68
685.78	422.43
686.12	420.14
686.45	417.83
686.79	415.44
687.13	413.26
687.46	411.04
687.80	408.90
688.14	406.62
688.48	404.53
688.81	402.26
689.15	400.12
689.49	397.94
689.82	395.86
690.16	393.71
690.50	391.75
690.83	389.82
691.17	387.83
691.51	385.90
691.84	384.11
692.18	382.14
692.52	380.13
692.85	378.16
693.19	376.28
693.52	374.46
693.86	372.68
694.20	370.88
694.53	369.11
694.87	367.27
695.21	365.51
695.54	363.69
695.88	361.98
696.21	360.24
696.55	358.57
696.88	356.82
697.22	355.19
697.56	353.57
697.89	351.90
698.23	350.30
698.56	348.68
698.90	347.09
699.23	345.49
699.57	343.93
699.90	342.40
700.24	340.89
700.58	339.35
700.91	337.89
701.25	336.47
701.58	335.11
701.92	333.71
702.25	332.35
702.59	330.95
702.92	329.62
703.26	328.37
703.59	327.13
703.93	325.99
704.26	324.77
704.60	323.44
704.93	322.13
705.26	320.86
705.60	319.68
705.93	318.55
706.27	317.46
706.60	316.41
706.94	315.32
707.27	314.17
707.61	313.10
707.94	312.07
708.27	310.97
708.61	309.89
708.94	308.91
709.28	307.90
709.61	306.96
709.94	306.04
710.28	304.99
710.61	303.96
710.95	302.91
711.28	301.98
711.61	301.05
711.95	300.14
712.28	299.19
712.61	298.22
712.95	297.25
713.28	296.37
713.61	295.50
713.95	294.62
714.28	293.82
714.61	292.96
714.95	292.04
715.28	291.17
715.61	290.29
715.95	289.41
716.28	288.55
716.61	287.75
716.95	286.90
717.28	286.13
717.61	285.35
717.94	284.58
718.28	283.75
718.61	283.01
718.94	282.33
719.27	281.67
719.61	280.98
719.94	280.29
720.27	279.60
720.60	278.91
720.94	278.27
721.27	277.65
721.60	277.04
721.93	276.49
722.27	275.97
722.60	275.44
722.93	274.87
723.26	274.34
723.59	273.78
723.93	273.19
724.26	272.62
724.59	272.07
724.92	271.55
725.25	271.08
725.59	270.56
725.92	270.05
726.25	269.51
726.58	269.06
726.91	268.58
727.24	268.08
727.57	267.59
727.91	267.09
728.24	266.59
728.57	266.10
728.90	265.65
729.23	265.13
729.56	264.67
729.89	264.21
730.22	263.72
730.55	263.24
730.89	262.81
731.22	262.42
731.55	261.98
731.88	261.56
732.21	261.11
732.54	260.69
732.87	260.26
733.20	259.91
733.53	259.50
733.86	259.16
734.19	258.77
734.52	258.41
734.85	258.05
735.18	257.65
735.51	257.30
735.84	256.92
736.17	256.59
736.50	256.23
736.83	255.99
737.16	255.69
737.49	255.36
737.82	255.02
738.15	254.68
738.48	254.36
738.81	254.02
739.14	253.69
739.47	253.39
739.80	253.07
740.13	252.74
740.46	252.43
740.79	252.07
741.12	251.76
741.45	251.46
741.78	251.17
742.11	250.89
742.44	250.58
742.77	250.30
743.10	249.99
743.43	249.67
743.75	249.29
744.08	249.12
744.41	248.84
744.74	248.57
745.07	248.28
745.40	248.03
745.73	247.79
746.06	247.55
746.39	247.30
746.71	247.04
747.04	246.78
747.37	246.50
747.70	246.32
748.03	246.06
748.36	245.85
748.68	245.61
749.01	245.36
749.34	245.13
749.67	244.92
750.00	244.67
750.33	244.51
750.65	244.29
750.98	243.95
751.31	243.74
751.64	243.53
751.97	243.39
752.29	243.15
752.62	242.91
752.95	242.67
753.28	242.44
753.60	242.26
753.93	242.09
754.26	241.89
754.59	241.65
754.91	241.45
755.24	241.25
755.57	241.04
755.90	240.86
756.22	240.67
756.55	240.44
756.88	240.25
757.20	240.03
757.53	239.88
757.86	239.72
758.19	239.54
758.51	239.39
758.84	239.16
759.17	239.00
759.49	238.86
759.82	238.75
760.15	238.63
760.47	238.44
760.80	238.27
761.13	238.14
761.45	237.96
761.78	237.80
762.11	237.63
762.43	237.51
762.76	237.38
763.08	237.24
763.41	237.10
763.74	236.98
764.06	236.83
764.39	236.68
764.71	236.53
765.04	236.37
765.37	236.25
765.69	236.14
766.02	236.04
766.34	235.90
766.67	235.75
767.00	235.64
767.32	235.61
767.65	235.55
767.97	235.45
768.30	235.37
768.62	235.29
768.95	235.18
769.27	235.06
769.60	234.95
769.92	234.86
770.25	234.77
770.57	234.64
770.90	234.51
771.22	234.42
771.55	234.34
771.87	234.30
772.20	234.17
772.52	234.15
772.85	234.16
773.17	234.09
773.50	234.00
773.82	233.88
774.15	233.72
774.47	233.56
774.80	233.46
775.12	233.36
775.45	233.28
775.77	233.20
776.09	233.13
776.42	233.08
776.74	233.05
777.07	232.95
777.39	232.89
777.72	232.83
778.04	232.77
778.36	232.68
778.69	232.58
779.01	232.56
779.33	232.43
779.66	232.27
779.98	232.18
780.31	232.11
780.63	232.08
780.95	232.06
781.28	232.04
781.60	231.98
781.92	231.93
782.25	231.82
782.57	231.78
782.89	231.72
783.22	231.65
783.54	231.50
783.86	231.46
784.19	231.42
784.51	231.40
784.83	231.33
785.16	231.27
785.48	231.23
785.80	231.17
786.12	231.12
786.45	231.07
786.77	231.04
787.09	231.00
787.42	230.96
787.74	230.90
788.06	230.89
788.38	230.82
788.71	230.79
789.03	230.80
789.35	230.76
789.67	230.72
789.99	230.68
790.32	230.65
790.64	230.62
790.96	230.64
791.28	230.55
791.61	230.50
791.93	230.48
792.25	230.45
792.57	230.47
792.89	230.40
793.21	230.36
793.54	230.29
793.86	230.23
794.18	230.18
794.50	230.07
794.82	230.00
795.14	230.00
795.47	229.95
795.79	229.89
796.11	229.82
796.43	229.76
796.75	229.71
797.07	229.70
797.39	229.64
797.71	229.52
798.04	229.49
798.36	229.43
798.68	229.41
799.00	229.40
799.32	229.29
799.64	229.27
799.96	229.20
800.28	229.18
800.60	229.13
800.92	229.09
801.24	229.09
801.56	229.04
801.89	228.97
802.21	228.96
802.53	228.90
802.85	228.90
803.17	228.91
803.49	228.85
803.81	228.80
804.13	228.77
804.45	228.72
804.77	228.71
805.09	228.71
805.41	228.66
805.73	228.56
806.05	228.53
806.37	228.52
806.69	228.49
807.01	228.46
807.33	228.46
807.65	228.39
807.97	228.39
808.28	228.36
808.60	228.35
808.92	228.27
809.24	228.31
809.56	228.30
809.88	228.25
810.20	228.25
810.52	228.25
810.84	228.23
811.16	228.22
811.48	228.19
811.80	228.18
812.12	228.16
812.43	228.17
812.75	228.15
813.07	228.10
813.39	228.11
813.71	228.08
814.03	228.01
814.35	227.99
814.67	227.95
814.98	227.93
815.30	227.88
815.62	227.87
815.94	227.76
816.26	227.78
816.58	227.75
816.89	227.74
817.21	227.71
817.53	227.70
817.85	227.69
818.17	227.66
818.48	227.63
818.80	227.64
819.12	227.63
819.44	227.59
819.76	227.58
820.07	227.53
820.39	227.51
820.71	227.53
821.03	227.53
821.34	227.49
821.66	227.50
821.98	227.50
822.30	227.51
822.61	227.58
822.93	227.52
823.25	227.54
823.57	227.51
823.88	227.51
824.20	227.49
824.52	227.50
824.83	227.48
825.15	227.45
825.47	227.42
825.79	227.42
826.10	227.43
826.42	227.39
826.74	227.39
827.05	227.37
827.37	227.37
827.69	227.34
828.00	227.34
828.32	227.32
828.64	227.29
828.95	227.32
829.27	227.29
829.58	227.28
829.90	227.24
830.22	227.26
830.53	227.23
830.85	227.20
831.17	227.15
831.48	227.17
831.80	227.15
832.11	227.14
832.43	227.10
832.75	227.08
833.06	227.17
833.38	227.15
833.69	227.15
834.01	227.14
834.32	227.16
834.64	227.17
834.96	227.15
835.27	227.16
835.59	227.11
835.90	227.06
836.22	227.05
836.53	227.06
836.85	227.01
837.16	227.10
837.48	227.13
837.79	227.18
838.11	227.17
838.42	227.16
838.74	227.16
839.05	227.14
839.37	227.13
839.68	227.03
840.00	226.99
840.31	227.00
840.63	226.98
840.94	226.96
841.26	226.93
841.57	226.94
841.88	226.93
842.20	226.93
842.51	226.92
842.83	226.90
843.14	226.94
843.46	226.94
843.77	226.91
844.08	226.87
844.40	226.80
844.71	226.79
845.03	226.79
845.34	226.80
845.65	226.82
845.97	226.81
846.28	226.83
846.60	226.86
846.91	226.85
847.22	226.83
847.54	226.84
847.85	226.84
848.16	226.83
848.48	226.81
848.79	226.85
849.10	226.86
849.42	226.86
849.73	226.78
850.04	226.76
850.36	226.70
850.67	226.74
850.98	226.75
851.30	226.76
851.61	226.74
851.92	226.71
852.23	226.73
852.55	226.74
852.86	226.71
853.17	226.73
853.49	226.75
853.80	226.78
854.11	226.76
854.42	226.78
854.74	226.78
855.05	226.78
855.36	226.71
855.67	226.72
855.99	226.71
856.30	226.82
856.61	226.84
856.92	226.86
857.23	226.83
857.55	226.82
857.86	226.80
858.17	226.80
858.48	226.81
858.79	226.78
859.11	226.78
859.42	226.78
859.73	226.75
860.04	226.71
860.35	226.69
860.66	226.67
860.98	226.66
861.29	226.66
861.60	226.69
861.91	226.72
862.22	226.68
862.53	226.65
862.84	226.52
863.16	226.53
863.47	226.48
863.78	226.47
864.09	226.46
864.40	226.45
864.71	226.45
865.02	226.45
865.33	226.41
865.64	226.41
865.95	226.40
866.27	226.47
866.58	226.46
866.89	226.44
867.20	226.48
867.51	226.43
867.82	226.41
868.13	226.42
868.44	226.38
868.75	226.40
869.06	226.44
869.37	226.47
869.68	226.42
869.99	226.45
870.30	226.45
870.61	226.46
870.92	226.46
871.23	226.42
871.54	226.43
871.85	226.44
872.16	226.43
872.47	226.43
872.78	226.35
873.09	226.37
873.40	226.38
873.71	226.36
874.02	226.42
874.33	226.40
874.64	226.35
874.95	226.37
875.26	226.33
875.56	226.32
875.87	226.30
876.18	226.29
876.49	226.39
876.80	226.36
877.11	226.34
877.42	226.34
877.73	226.38
878.04	226.35
878.35	226.35
878.66	226.36
878.96	226.35
879.27	226.36
879.58	226.34
879.89	226.30
880.20	226.32
880.51	226.28
880.82	226.27
881.12	226.31
881.43	226.27
881.74	226.27
882.05	226.27
882.36	226.27
882.67	226.27
882.97	226.17
883.28	226.18
883.59	226.17
883.90	226.18
884.21	226.18
884.51	226.16
884.82	226.16
885.13	226.13
885.44	226.17
885.74	226.17
886.05	226.19
886.36	226.19
886.67	226.15
886.98	226.21
887.28	226.21
887.59	226.17
887.90	226.18
888.20	226.17
888.51	226.16
888.82	226.18
889.13	226.20
889.43	226.25
889.74	226.23
890.05	226.24
890.35	226.21
890.66	226.19
890.97	226.22
891.28	226.20
891.58	226.21
891.89	226.19
892.20	226.17
892.50	226.14
892.81	226.14
893.12	226.16
893.42	226.10
893.73	226.11
894.04	226.10
894.34	226.14
894.65	226.16
894.95	226.16
895.26	226.14
895.57	226.18
895.87	226.10
896.18	226.17
896.48	226.17
896.79	226.22
897.10	226.22
897.40	226.24
897.71	226.30
898.01	226.29
898.32	226.30
898.63	226.30
898.93	226.33
899.24	226.35
899.54	226.33
899.85	226.36
900.15	226.34
900.46	226.38
900.76	226.34
901.07	226.36
901.38	226.36
901.68	226.35
901.99	226.29
902.29	226.31
902.60	226.27
902.90	226.26
903.21	226.23
903.51	226.25
903.82	226.25
904.12	226.19
904.43	226.16
904.73	226.16
905.03	226.17
905.34	226.22
905.64	226.23
905.95	226.25
906.25	226.22
906.56	226.19
906.86	226.19
907.17	226.18
907.47	226.14
907.77	226.10
908.08	226.09
908.38	226.09
908.69	226.09
908.99	226.08
909.30	226.05
909.60	226.04
909.90	226.03
910.21	225.97
910.51	225.99
910.81	226.00
911.12	225.97
911.42	225.96
911.73	225.85
912.03	225.83
912.33	225.87
912.64	225.84
912.94	225.88
913.24	225.83
913.55	225.83
913.85	225.84
914.15	225.89
914.46	225.91
914.76	225.92
915.06	225.89
915.37	225.85
915.67	225.85
915.97	225.84
916.27	225.82
916.58	225.81
916.88	225.79
917.18	225.79
917.49	225.85
917.79	225.85
918.09	225.89
918.39	225.90
918.70	225.85
919.00	225.88
919.30	225.90
919.60	225.91
919.91	225.91
920.21	225.91
920.51	225.91
920.81	225.90
921.12	225.92
921.42	225.95
921.72	226.00
922.02	226.02
922.32	226.07
922.63	226.06
922.93	226.11
923.23	226.12
923.53	226.13
923.83	226.08
924.13	226.10
924.44	226.12
924.74	226.14
925.04	226.18
925.34	226.17
925.64	226.11
925.94	226.14
926.24	226.16
926.55	226.14
926.85	226.14
927.15	226.15
927.45	226.12
927.75	226.10
928.05	226.10
928.35	226.13
928.65	226.12
928.95	226.17
929.26	226.13
929.56	226.15
929.86	226.15
930.16	226.16
930.46	226.15
930.76	226.15
931.06	226.12
931.36	226.10
931.66	226.09
931.96	226.15
932.26	226.16
932.56	226.14
932.86	226.17
933.16	226.17
933.46	226.14
933.76	226.11
934.06	226.15
934.36	226.22
934.66	226.19
934.96	226.16
935.26	226.14
935.56	226.19
935.86	226.23
936.16	226.19
936.46	226.19
936.76	226.19
937.06	226.15
937.36	226.18
937.66	226.19
937.96	226.23
938.26	226.19
938.56	226.18
938.86	226.20
939.16	226.21
939.46	226.23
939.76	226.27
940.06	226.29
940.35	226.26
940.65	226.14
940.95	226.19
941.25	226.19
941.55	226.17
941.85	226.14
942.15	226.10
942.45	226.14
942.75	226.12
943.04	226.13
943.34	226.16
943.64	226.16
943.94	226.12
944.24	226.11
944.54	226.08
944.84	226.07
945.13	226.02
945.43	226.00
945.73	226.01
946.03	225.97
946.33	225.98
946.62	225.97
946.92	226.00
947.22	225.98
947.52	226.00
947.82	226.02
948.11	226.02
948.41	226.00
948.71	225.97
949.01	225.97
949.31	225.95
949.60	225.95
949.90	225.93
950.20	225.94
950.50	225.94
950.79	225.96
951.09	225.98
951.39	226.00
951.69	226.02
951.98	226.03
952.28	226.04
952.58	226.04
952.87	226.06
953.17	226.08
953.47	226.07
953.76	226.07
954.06	226.05
954.36	226.01
954.66	226.01
954.95	226.02
955.25	226.04
955.55	226.05
955.84	226.03
956.14	226.06
956.44	226.06
956.73	226.03
957.03	226.04
957.32	226.00
957.62	226.00
957.92	226.01
958.21	225.97
958.51	226.08
958.81	226.06
959.10	226.06
959.40	226.07
959.69	226.09
959.99	226.10
960.29	226.10
960.58	226.11
960.88	226.17
961.17	226.18
961.47	226.19
961.76	226.16
962.06	226.18
962.36	226.15
962.65	226.16
962.95	226.20
963.24	226.17
963.54	226.19
963.83	226.19
964.13	226.18
964.42	226.16
964.72	226.08
965.01	226.09
965.31	226.09
965.60	226.05
965.90	226.09
966.19	226.06
966.49	226.05
966.78	226.06
967.08	226.03
967.37	226.05
967.67	226.04
967.96	226.03
968.26	226.03
968.55	226.04
968.85	226.04
969.14	226.01
969.43	226.04
969.73	226.02
970.02	226.05
970.32	226.03
970.61	226.04
970.91	226.00
971.20	225.99
971.49	225.98
971.79	226.03
972.08	225.94
972.38	225.95
972.67	225.95
972.96	225.95
973.26	225.93
973.55	225.96
973.85	225.96
974.14	225.98
974.43	226.00
974.73	226.02
975.02	226.02
975.31	226.05
975.61	226.07
975.90	226.06
976.19	226.01
976.49	226.02
976.78	226.01
977.07	226.04
977.37	226.05
977.66	226.05
977.95	226.00
978.24	226.02
978.54	226.07
978.83	226.05
979.12	226.05
979.42	226.07
979.71	226.05
980.00	226.05
980.29	226.05
980.59	226.01
980.88	225.98
981.17	225.94
981.46	225.90
981.76	225.91
982.05	225.95
982.34	225.96
982.63	225.96
982.93	225.97
983.22	226.00
983.51	226.01
983.80	226.03
984.09	226.07
984.39	226.06
984.68	226.05
984.97	226.04
985.26	226.04
985.55	226.03
985.85	226.01
986.14	225.98
986.43	226.00
986.72	226.01
987.01	226.00
987.30	226.02
987.59	226.03
987.89	226.02
988.18	225.99
988.47	226.00
988.76	226.03
989.05	226.00
989.34	225.98
989.63	226.00
989.92	225.98
990.22	225.96
990.51	225.96
990.80	225.95
991.09	225.97
991.38	225.97
991.67	225.97
991.96	225.94
992.25	225.97
992.54	225.95
992.83	225.92
993.12	225.93
993.41	225.93
993.70	225.96
993.99	225.95
994.28	225.94
994.58	225.94
994.87	225.90
995.16	225.92
995.45	225.91
995.74	225.85
996.03	225.86
996.32	225.86
996.61	225.88
996.90	225.89
997.19	225.87
997.48	225.86
997.77	225.83
998.06	225.85
998.34	225.84
998.63	225.85
998.92	225.89
999.21	225.88
999.50	225.87
999.79	225.85
1000.08	225.87
1000.37	225.88
1000.66	225.85
1000.95	225.86
1001.24	225.86
1001.53	225.84
1001.82	225.85
1002.11	225.88
1002.40	225.85
1002.68	225.87
1002.97	225.91
1003.26	225.93
1003.55	225.92
1003.84	225.94
1004.13	225.97
1004.42	225.97
1004.71	225.97
1004.99	225.91
1005.28	225.94
1005.57	225.95
1005.86	225.95
1006.15	225.93
1006.44	225.91
1006.72	225.96
1007.01	225.95
1007.30	225.94
1007.59	225.93
1007.88	225.92
1008.17	225.90
1008.45	225.91
1008.74	225.87
1009.03	225.82
1009.32	225.79
1009.60	225.78
1009.89	225.77
1010.18	225.74
1010.47	225.72
1010.76	225.70
1011.04	225.73
1011.33	225.73
1011.62	225.74
1011.91	225.73
1012.19	225.71
1012.48	225.69
1012.77	225.69
1013.05	225.76
1013.34	225.76
1013.63	225.77
1013.92	225.74
1014.20	225.71
1014.49	225.69
1014.78	225.70
1015.06	225.68
1015.35	225.67
1015.64	225.70
1015.92	225.73
1016.21	225.72
1016.50	225.73
1016.78	225.76
1017.07	225.74
1017.36	225.72
1017.64	225.70
1017.93	225.69
1018.22	225.71
1018.50	225.72
1018.79	225.72
1019.08	225.68
1019.36	225.68
1019.65	225.65
1019.93	225.71
1020.22	225.75
1020.51	225.84
1020.79	225.85
1021.08	225.83
1021.36	225.34
1021.65	226.28
1021.94	226.32
1022.22	225.64
1022.51	225.23
1022.79	226.21
1023.08	226.08
1023.36	227.43
1023.65	225.72
>>>>>End Processed Spectral Data<<<<<
