SpectraSuite Data File
++++++++++++++++++++++++++++++++++++
Date: Fri Feb 01 15:50:09 EST 2013
User: group
Dark Spectrum Present: No
Reference Spectrum Present: No
Number of Sampled Component Spectra: 1
Spectrometers: USB2E7196
Integration Time (usec): 35000 (USB2E7196)
Spectra Averaged: 100 (USB2E7196)
Boxcar Smoothing: 10 (USB2E7196)
Correct for Electrical Dark: No (USB2E7196)
Strobe/Lamp Enabled: No (USB2E7196)
Correct for Detector Non-linearity: No (USB2E7196)
Correct for Stray Light: No (USB2E7196)
Number of Pixels in Processed Spectrum: 2048
>>>>>Begin Processed Spectral Data<<<<<
339.09	0.00
339.48	214.82
339.86	216.21
340.24	218.08
340.63	219.39
341.01	221.36
341.39	221.74
341.78	222.37
342.16	224.40
342.54	225.06
342.93	213.06
343.31	223.83
343.69	224.39
344.07	224.83
344.46	225.23
344.84	225.60
345.22	225.87
345.60	226.12
345.99	226.34
346.37	226.49
346.75	226.57
347.13	226.63
347.52	226.68
347.90	226.79
348.28	226.83
348.66	226.91
349.05	226.89
349.43	226.91
349.81	226.96
350.19	227.01
350.57	227.08
350.96	227.16
351.34	227.26
351.72	227.36
352.10	227.51
352.48	227.55
352.87	227.61
353.25	227.67
353.63	227.71
354.01	227.79
354.39	227.84
354.77	227.92
355.15	228.03
355.54	228.15
355.92	228.20
356.30	228.31
356.68	228.43
357.06	228.55
357.44	228.63
357.82	228.72
358.20	228.82
358.58	228.87
358.97	228.93
359.35	229.00
359.73	229.08
360.11	229.11
360.49	229.19
360.87	229.26
361.25	229.31
361.63	229.40
362.01	229.43
362.39	229.49
362.77	229.55
363.15	229.58
363.53	229.59
363.91	229.58
364.29	229.61
364.67	229.55
365.05	229.56
365.43	229.57
365.81	229.57
366.19	229.59
366.57	229.62
366.95	229.59
367.33	229.54
367.71	229.50
368.09	229.49
368.47	229.49
368.85	229.45
369.23	229.44
369.61	229.40
369.99	229.39
370.37	229.34
370.75	229.34
371.13	229.28
371.51	229.20
371.89	229.14
372.27	229.06
372.65	228.99
373.03	228.92
373.41	228.91
373.78	228.83
374.16	228.72
374.54	228.62
374.92	228.57
375.30	228.51
375.68	228.41
376.06	228.35
376.44	228.27
376.82	228.17
377.19	228.08
377.57	228.01
377.95	227.88
378.33	227.81
378.71	227.70
379.09	227.64
379.47	227.60
379.84	227.51
380.22	227.44
380.60	227.35
380.98	227.27
381.36	227.19
381.73	227.13
382.11	227.09
382.49	227.02
382.87	226.93
383.25	226.87
383.62	226.91
384.00	226.85
384.38	226.80
384.76	226.81
385.13	226.80
385.51	226.75
385.89	226.70
386.27	226.68
386.64	226.60
387.02	226.53
387.40	226.45
387.78	226.47
388.15	226.42
388.53	226.39
388.91	226.34
389.29	226.30
389.66	226.29
390.04	226.24
390.42	226.23
390.79	226.25
391.17	226.29
391.55	226.20
391.92	226.18
392.30	226.15
392.68	226.13
393.05	226.11
393.43	226.14
393.81	226.16
394.18	226.14
394.56	226.19
394.94	226.27
395.31	226.30
395.69	226.35
396.06	226.41
396.44	226.49
396.82	226.54
397.19	226.65
397.57	226.68
397.95	226.75
398.32	226.78
398.70	226.87
399.07	226.92
399.45	226.95
399.82	227.01
400.20	227.11
400.58	227.18
400.95	227.24
401.33	227.35
401.70	227.53
402.08	227.64
402.45	227.73
402.83	227.84
403.20	227.97
403.58	228.05
403.95	228.17
404.33	228.31
404.71	228.45
405.08	228.61
405.46	228.76
405.83	228.91
406.21	229.08
406.58	229.23
406.96	229.39
407.33	229.60
407.70	229.81
408.08	230.08
408.45	230.29
408.83	230.53
409.20	230.72
409.58	230.86
409.95	231.11
410.33	231.39
410.70	231.64
411.08	231.94
411.45	232.22
411.82	232.55
412.20	232.85
412.57	233.24
412.95	233.51
413.32	233.89
413.69	234.29
414.07	234.74
414.44	235.17
414.82	235.65
415.19	236.21
415.56	236.74
415.94	237.29
416.31	237.94
416.68	238.54
417.06	239.26
417.43	239.96
417.81	240.73
418.18	241.49
418.55	242.31
418.93	243.18
419.30	244.10
419.67	244.99
420.04	245.99
420.42	246.95
420.79	248.14
421.16	249.29
421.54	250.50
421.91	251.67
422.28	252.92
422.66	254.21
423.03	255.50
423.40	256.81
423.77	258.17
424.15	259.56
424.52	261.06
424.89	262.66
425.26	264.21
425.64	265.64
426.01	267.28
426.38	268.96
426.75	270.62
427.13	272.31
427.50	274.14
427.87	276.01
428.24	277.91
428.61	279.63
428.99	281.59
429.36	283.69
429.73	285.79
430.10	287.83
430.47	289.90
430.85	292.02
431.22	294.28
431.59	296.67
431.96	298.91
432.33	301.40
432.70	303.73
433.08	306.53
433.45	309.18
433.82	311.73
434.19	314.59
434.56	317.40
434.93	320.09
435.30	322.74
435.68	325.59
436.05	328.38
436.42	331.19
436.79	333.73
437.16	336.42
437.53	339.21
437.90	341.99
438.27	344.74
438.64	347.56
439.01	350.17
439.38	352.38
439.75	354.56
440.13	357.04
440.50	359.41
440.87	361.23
441.24	363.17
441.61	365.37
441.98	366.87
442.35	368.69
442.72	370.52
443.09	372.28
443.46	373.24
443.83	373.90
444.20	374.40
444.57	375.15
444.94	375.45
445.31	375.77
445.68	376.13
446.05	376.21
446.42	375.84
446.79	375.37
447.16	374.92
447.53	374.65
447.90	373.51
448.27	372.41
448.64	370.86
449.01	369.74
449.37	367.72
449.74	365.84
450.11	363.59
450.48	361.16
450.85	358.61
451.22	356.49
451.59	354.42
451.96	352.50
452.33	349.97
452.70	347.60
453.07	344.81
453.43	341.92
453.80	339.15
454.17	336.48
454.54	333.99
454.91	331.35
455.28	328.64
455.65	326.13
456.02	323.65
456.38	321.50
456.75	318.81
457.12	316.59
457.49	314.38
457.86	312.22
458.23	310.36
458.59	308.33
458.96	306.24
459.33	304.38
459.70	302.51
460.07	301.00
460.43	299.31
460.80	297.73
461.17	296.30
461.54	294.81
461.91	293.42
462.27	291.97
462.64	290.69
463.01	289.36
463.38	288.06
463.74	286.68
464.11	285.48
464.48	284.51
464.85	283.39
465.21	282.51
465.58	281.58
465.95	280.48
466.32	279.60
466.68	278.72
467.05	277.85
467.42	276.93
467.78	275.98
468.15	275.08
468.52	274.42
468.88	273.53
469.25	272.72
469.62	272.04
469.98	271.34
470.35	270.72
470.72	270.13
471.08	269.47
471.45	268.95
471.82	268.42
472.18	267.80
472.55	267.37
472.92	266.85
473.28	266.38
473.65	265.94
474.02	265.49
474.38	265.12
474.75	264.79
475.11	264.46
475.48	264.20
475.85	263.99
476.21	263.72
476.58	263.58
476.94	263.48
477.31	263.32
477.67	263.17
478.04	263.00
478.41	262.90
478.77	262.93
479.14	262.87
479.50	262.89
479.87	262.94
480.23	263.02
480.60	263.07
480.96	263.18
481.33	263.37
481.69	263.57
482.06	263.77
482.42	263.98
482.79	264.24
483.15	264.58
483.52	264.93
483.88	265.28
484.25	265.67
484.61	266.07
484.98	266.52
485.34	267.10
485.71	267.72
486.07	268.33
486.44	268.88
486.80	269.57
487.17	270.29
487.53	271.09
487.90	271.93
488.26	272.83
488.62	273.78
488.99	274.73
489.35	275.76
489.72	276.88
490.08	278.10
490.44	279.29
490.81	280.58
491.17	281.94
491.54	283.44
491.90	284.95
492.26	286.60
492.63	288.33
492.99	290.09
493.36	291.98
493.72	294.02
494.08	296.14
494.45	298.41
494.81	300.78
495.17	303.26
495.54	305.83
495.90	308.51
496.26	311.32
496.63	314.31
496.99	317.43
497.35	320.71
497.72	324.11
498.08	327.65
498.44	331.37
498.80	335.29
499.17	339.35
499.53	343.52
499.89	347.86
500.26	352.38
500.62	357.05
500.98	362.05
501.34	367.10
501.71	372.43
502.07	377.85
502.43	383.48
502.79	389.33
503.16	395.43
503.52	401.74
503.88	408.16
504.24	414.80
504.60	421.73
504.97	428.86
505.33	436.19
505.69	443.94
506.05	451.72
506.41	459.62
506.78	467.74
507.14	476.18
507.50	484.90
507.86	493.97
508.22	503.15
508.59	512.34
508.95	521.99
509.31	531.81
509.67	541.87
510.03	552.17
510.39	562.67
510.75	573.55
511.12	584.49
511.48	595.85
511.84	607.31
512.20	618.78
512.56	630.75
512.92	642.94
513.28	655.31
513.64	667.80
514.00	680.46
514.37	693.42
514.73	706.51
515.09	719.58
515.45	732.89
515.81	746.50
516.17	760.51
516.53	774.59
516.89	788.81
517.25	803.01
517.61	817.44
517.97	831.89
518.33	846.21
518.69	860.99
519.05	875.95
519.41	891.10
519.77	906.73
520.13	922.08
520.49	937.44
520.85	952.79
521.21	968.45
521.57	984.72
521.93	1000.47
522.29	1016.95
522.65	1033.20
523.01	1049.41
523.37	1065.55
523.73	1081.76
524.09	1097.87
524.45	1114.16
524.81	1130.84
525.17	1147.60
525.53	1164.53
525.89	1181.50
526.25	1198.35
526.61	1214.76
526.97	1231.50
527.33	1248.01
527.68	1264.63
528.04	1281.16
528.40	1297.79
528.76	1314.72
529.12	1331.35
529.48	1348.15
529.84	1364.00
530.20	1380.69
530.56	1397.73
530.91	1415.14
531.27	1431.76
531.63	1448.29
531.99	1464.87
532.35	1480.72
532.71	1496.63
533.07	1512.89
533.42	1528.67
533.78	1544.62
534.14	1560.93
534.50	1576.26
534.86	1592.05
535.21	1607.25
535.57	1623.15
535.93	1638.70
536.29	1653.69
536.65	1668.53
537.00	1683.41
537.36	1698.78
537.72	1713.27
538.08	1727.61
538.44	1741.22
538.79	1755.03
539.15	1768.62
539.51	1782.30
539.87	1796.69
540.22	1810.47
540.58	1824.20
540.94	1837.61
541.29	1850.56
541.65	1863.21
542.01	1876.45
542.37	1888.74
542.72	1901.13
543.08	1912.95
543.44	1925.35
543.79	1936.53
544.15	1947.65
544.51	1959.29
544.87	1970.27
545.22	1981.02
545.58	1991.24
545.94	2000.94
546.29	2010.92
546.65	2020.69
547.01	2029.89
547.36	2038.53
547.72	2046.95
548.07	2054.77
548.43	2062.84
548.79	2070.88
549.14	2078.29
549.50	2085.50
549.86	2093.15
550.21	2100.60
550.57	2107.67
550.92	2114.08
551.28	2121.15
551.64	2128.20
551.99	2134.50
552.35	2140.60
552.70	2146.78
553.06	2152.79
553.41	2159.23
553.77	2165.44
554.13	2171.70
554.48	2178.03
554.84	2183.46
555.19	2188.65
555.55	2193.75
555.90	2198.27
556.26	2203.15
556.61	2207.94
556.97	2212.34
557.32	2216.38
557.68	2220.39
558.03	2224.60
558.39	2228.32
558.74	2232.90
559.10	2236.78
559.45	2240.66
559.81	2245.08
560.16	2248.97
560.52	2252.13
560.87	2255.51
561.23	2258.09
561.58	2261.01
561.94	2263.37
562.29	2265.84
562.64	2268.53
563.00	2271.06
563.35	2274.39
563.71	2277.51
564.06	2280.79
564.42	2283.59
564.77	2286.33
565.12	2288.64
565.48	2290.65
565.83	2292.58
566.19	2293.82
566.54	2294.85
566.89	2295.80
567.25	2296.26
567.60	2297.48
567.96	2299.02
568.31	2299.85
568.66	2300.76
569.02	2301.29
569.37	2301.68
569.72	2302.48
570.08	2302.69
570.43	2302.78
570.78	2302.34
571.14	2300.62
571.49	2299.24
571.84	2299.04
572.20	2297.73
572.55	2296.68
572.90	2295.11
573.26	2293.70
573.61	2292.02
573.96	2290.14
574.31	2287.23
574.67	2284.31
575.02	2280.86
575.37	2277.65
575.72	2273.85
576.08	2270.75
576.43	2267.45
576.78	2263.75
577.13	2260.78
577.49	2257.71
577.84	2254.32
578.19	2250.64
578.54	2247.06
578.90	2242.78
579.25	2237.14
579.60	2232.17
579.95	2226.99
580.30	2221.86
580.66	2216.71
581.01	2211.62
581.36	2206.62
581.71	2202.52
582.06	2197.90
582.42	2193.25
582.77	2187.99
583.12	2183.42
583.47	2178.36
583.82	2173.30
584.17	2168.04
584.53	2162.40
584.88	2156.77
585.23	2150.88
585.58	2145.30
585.93	2139.93
586.28	2135.26
586.63	2130.15
586.98	2125.12
587.34	2120.52
587.69	2115.64
588.04	2110.27
588.39	2104.73
588.74	2098.38
589.09	2092.16
589.44	2085.43
589.79	2079.46
590.14	2073.84
590.49	2067.27
590.84	2061.11
591.19	2055.21
591.54	2048.68
591.89	2041.26
592.25	2034.41
592.60	2027.22
592.95	2019.58
593.30	2012.14
593.65	2004.42
594.00	1997.49
594.35	1990.22
594.70	1982.30
595.05	1975.19
595.40	1967.89
595.75	1960.45
596.10	1954.14
596.45	1947.35
596.80	1941.32
597.15	1934.68
597.50	1927.39
597.85	1921.01
598.19	1914.25
598.54	1906.92
598.89	1900.34
599.24	1894.46
599.59	1887.62
599.94	1881.44
600.29	1875.17
600.64	1868.76
600.99	1861.27
601.34	1854.34
601.69	1847.42
602.04	1840.48
602.39	1833.12
602.74	1826.42
603.08	1819.61
603.43	1813.05
603.78	1805.62
604.13	1798.32
604.48	1790.87
604.83	1784.15
605.18	1777.08
605.53	1769.15
605.87	1761.18
606.22	1753.94
606.57	1746.03
606.92	1738.87
607.27	1731.76
607.62	1724.82
607.96	1717.43
608.31	1710.80
608.66	1703.15
609.01	1695.64
609.36	1688.07
609.70	1680.10
610.05	1671.99
610.40	1664.28
610.75	1655.77
611.10	1648.16
611.44	1639.76
611.79	1631.80
612.14	1623.07
612.49	1613.95
612.83	1605.59
613.18	1597.51
613.53	1589.45
613.88	1580.82
614.22	1572.42
614.57	1563.83
614.92	1555.74
615.27	1548.21
615.61	1539.95
615.96	1531.95
616.31	1524.23
616.65	1516.76
617.00	1509.11
617.35	1501.48
617.70	1493.20
618.04	1484.77
618.39	1476.57
618.74	1468.99
619.08	1460.73
619.43	1453.21
619.78	1446.37
620.12	1439.07
620.47	1431.49
620.82	1423.29
621.16	1416.02
621.51	1408.49
621.85	1400.72
622.20	1392.28
622.55	1383.88
622.89	1376.07
623.24	1368.42
623.59	1361.06
623.93	1353.65
624.28	1346.45
624.62	1338.82
624.97	1331.56
625.32	1324.89
625.66	1317.85
626.01	1310.59
626.35	1303.19
626.70	1295.38
627.04	1287.53
627.39	1279.91
627.73	1272.53
628.08	1265.61
628.43	1258.22
628.77	1250.83
629.12	1243.49
629.46	1236.33
629.81	1229.00
630.15	1221.73
630.50	1214.23
630.84	1206.03
631.19	1198.02
631.53	1190.52
631.88	1183.03
632.22	1175.50
632.57	1168.10
632.91	1160.64
633.26	1153.08
633.60	1145.69
633.95	1138.65
634.29	1131.74
634.64	1125.05
634.98	1117.74
635.32	1110.53
635.67	1103.88
636.01	1097.25
636.36	1090.25
636.70	1083.71
637.05	1077.12
637.39	1070.62
637.73	1064.12
638.08	1058.23
638.42	1052.23
638.77	1045.68
639.11	1039.09
639.45	1032.68
639.80	1025.94
640.14	1019.45
640.49	1013.05
640.83	1006.71
641.17	1000.40
641.52	993.93
641.86	987.45
642.20	981.58
642.55	975.35
642.89	968.84
643.23	962.37
643.58	956.71
643.92	950.48
644.26	944.32
644.61	938.27
644.95	932.33
645.29	925.68
645.64	918.97
645.98	912.71
646.32	906.83
646.66	900.76
647.01	895.02
647.35	889.34
647.69	883.50
648.04	877.95
648.38	872.26
648.72	866.26
649.06	860.19
649.41	854.28
649.75	848.30
650.09	842.39
650.43	836.56
650.78	830.32
651.12	824.34
651.46	818.64
651.80	812.93
652.14	807.55
652.49	802.22
652.83	797.07
653.17	791.26
653.51	785.61
653.85	780.34
654.20	774.69
654.54	768.70
654.88	762.92
655.22	757.07
655.56	751.40
655.90	745.96
656.25	740.75
656.59	735.32
656.93	730.24
657.27	725.11
657.61	719.68
657.95	714.62
658.29	709.59
658.64	704.43
658.98	699.14
659.32	693.65
659.66	688.40
660.00	683.05
660.34	678.18
660.68	673.24
661.02	668.12
661.36	663.44
661.70	658.88
662.05	654.59
662.39	650.28
662.73	645.78
663.07	641.39
663.41	636.88
663.75	632.46
664.09	627.84
664.43	623.43
664.77	619.33
665.11	615.03
665.45	610.85
665.79	606.71
666.13	602.47
666.47	598.34
666.81	594.19
667.15	590.13
667.49	586.24
667.83	582.40
668.17	578.44
668.51	574.34
668.85	570.32
669.19	566.46
669.53	562.61
669.87	558.69
670.21	555.05
670.55	551.48
670.89	548.09
671.23	544.67
671.57	541.13
671.91	537.49
672.25	534.04
672.58	530.55
672.92	527.17
673.26	524.06
673.60	520.92
673.94	517.81
674.28	514.87
674.62	511.95
674.96	508.87
675.30	505.96
675.64	503.05
675.97	500.28
676.31	497.41
676.65	494.46
676.99	491.79
677.33	488.91
677.67	486.02
678.01	482.92
678.34	479.94
678.68	477.12
679.02	474.35
679.36	471.52
679.70	468.81
680.04	466.05
680.37	463.17
680.71	460.41
681.05	457.79
681.39	455.03
681.73	452.33
682.06	449.79
682.40	447.26
682.74	444.74
683.08	442.23
683.42	439.63
683.75	437.12
684.09	434.58
684.43	432.09
684.77	429.63
685.10	427.22
685.44	424.96
685.78	422.69
686.12	420.47
686.45	418.23
686.79	415.94
687.13	413.70
687.46	411.58
687.80	409.45
688.14	407.30
688.48	405.29
688.81	403.03
689.15	400.89
689.49	398.74
689.82	396.66
690.16	394.57
690.50	392.63
690.83	390.70
691.17	388.67
691.51	386.77
691.84	384.89
692.18	382.99
692.52	381.01
692.85	379.06
693.19	377.13
693.52	375.31
693.86	373.51
694.20	371.76
694.53	369.92
694.87	368.09
695.21	366.27
695.54	364.43
695.88	362.70
696.21	361.01
696.55	359.32
696.88	357.61
697.22	355.95
697.56	354.29
697.89	352.62
698.23	351.05
698.56	349.43
698.90	347.86
699.23	346.25
699.57	344.67
699.90	343.16
700.24	341.66
700.58	340.10
700.91	338.59
701.25	337.09
701.58	335.72
701.92	334.34
702.25	332.96
702.59	331.58
702.92	330.27
703.26	328.90
703.59	327.59
703.93	326.39
704.26	325.13
704.60	323.86
704.93	322.62
705.26	321.35
705.60	320.19
705.93	319.03
706.27	317.99
706.60	316.94
706.94	315.82
707.27	314.68
707.61	313.63
707.94	312.61
708.27	311.54
708.61	310.47
708.94	309.46
709.28	308.48
709.61	307.52
709.94	306.57
710.28	305.56
710.61	304.62
710.95	303.61
711.28	302.68
711.61	301.75
711.95	300.83
712.28	299.93
712.61	298.92
712.95	298.01
713.28	297.14
713.61	296.21
713.95	295.29
714.28	294.49
714.61	293.61
714.95	292.77
715.28	291.92
715.61	291.04
715.95	290.19
716.28	289.32
716.61	288.50
716.95	287.71
717.28	287.00
717.61	286.23
717.94	285.43
718.28	284.62
718.61	283.89
718.94	283.17
719.27	282.49
719.61	281.86
719.94	281.20
720.27	280.47
720.60	279.82
720.94	279.24
721.27	278.64
721.60	278.07
721.93	277.44
722.27	276.93
722.60	276.41
722.93	275.85
723.26	275.34
723.59	274.79
723.93	274.25
724.26	273.67
724.59	273.12
724.92	272.64
725.25	272.20
725.59	271.68
725.92	271.18
726.25	270.65
726.58	270.13
726.91	269.65
727.24	269.17
727.57	268.70
727.91	268.18
728.24	267.73
728.57	267.27
728.90	266.83
729.23	266.32
729.56	265.87
729.89	265.41
730.22	264.92
730.55	264.44
730.89	264.00
731.22	263.57
731.55	263.12
731.88	262.69
732.21	262.25
732.54	261.82
732.87	261.37
733.20	261.01
733.53	260.69
733.86	260.35
734.19	259.97
734.52	259.62
734.85	259.33
735.18	258.86
735.51	258.51
735.84	258.10
736.17	257.74
736.50	257.35
736.83	257.09
737.16	256.76
737.49	256.43
737.82	256.08
738.15	255.75
738.48	255.43
738.81	255.10
739.14	254.76
739.47	254.43
739.80	254.15
740.13	253.82
740.46	253.45
740.79	253.11
741.12	252.81
741.45	252.49
741.78	252.12
742.11	251.87
742.44	251.55
742.77	251.29
743.10	250.97
743.43	250.66
743.75	250.28
744.08	250.13
744.41	249.86
744.74	249.59
745.07	249.30
745.40	249.06
745.73	248.83
746.06	248.60
746.39	248.32
746.71	248.05
747.04	247.79
747.37	247.55
747.70	247.23
748.03	247.00
748.36	246.77
748.68	246.54
749.01	246.29
749.34	246.04
749.67	245.80
750.00	245.62
750.33	245.44
750.65	245.26
750.98	244.90
751.31	244.67
751.64	244.50
751.97	244.32
752.29	244.11
752.62	243.83
752.95	243.59
753.28	243.40
753.60	243.19
753.93	243.04
754.26	242.85
754.59	242.68
754.91	242.45
755.24	242.27
755.57	242.08
755.90	241.90
756.22	241.70
756.55	241.48
756.88	241.26
757.20	241.05
757.53	240.84
757.86	240.64
758.19	240.50
758.51	240.28
758.84	240.08
759.17	239.86
759.49	239.69
759.82	239.57
760.15	239.40
760.47	239.26
760.80	239.06
761.13	238.90
761.45	238.73
761.78	238.60
762.11	238.42
762.43	238.25
762.76	238.10
763.08	237.97
763.41	237.86
763.74	237.74
764.06	237.58
764.39	237.44
764.71	237.34
765.04	237.22
765.37	237.09
765.69	236.96
766.02	236.87
766.34	236.80
766.67	236.64
767.00	236.57
767.32	236.47
767.65	236.42
767.97	236.32
768.30	236.24
768.62	236.10
768.95	235.99
769.27	235.87
769.60	235.77
769.92	235.63
770.25	235.50
770.57	235.37
770.90	235.28
771.22	235.20
771.55	235.09
771.87	234.95
772.20	234.88
772.52	234.87
772.85	234.85
773.17	234.75
773.50	234.67
773.82	234.55
774.15	234.44
774.47	234.28
774.80	234.13
775.12	234.05
775.45	233.96
775.77	233.89
776.09	233.84
776.42	233.78
776.74	233.76
777.07	233.68
777.39	233.64
777.72	233.58
778.04	233.48
778.36	233.41
778.69	233.37
779.01	233.27
779.33	233.13
779.66	232.97
779.98	232.88
780.31	232.83
780.63	232.81
780.95	232.74
781.28	232.67
781.60	232.62
781.92	232.52
782.25	232.48
782.57	232.43
782.89	232.36
783.22	232.29
783.54	232.22
783.86	232.18
784.19	232.10
784.51	232.07
784.83	232.01
785.16	231.93
785.48	231.87
785.80	231.82
786.12	231.79
786.45	231.73
786.77	231.70
787.09	231.62
787.42	231.55
787.74	231.52
788.06	231.52
788.38	231.50
788.71	231.50
789.03	231.45
789.35	231.40
789.67	231.33
789.99	231.27
790.32	231.23
790.64	231.23
790.96	231.27
791.28	231.19
791.61	231.16
791.93	231.17
792.25	231.11
792.57	231.14
792.89	231.06
793.21	231.05
793.54	230.99
793.86	230.93
794.18	230.87
794.50	230.82
794.82	230.75
795.14	230.72
795.47	230.66
795.79	230.62
796.11	230.58
796.43	230.55
796.75	230.53
797.07	230.47
797.39	230.38
797.71	230.28
798.04	230.21
798.36	230.18
798.68	230.12
799.00	230.08
799.32	230.02
799.64	230.03
799.96	230.01
800.28	229.99
800.60	229.95
800.92	229.92
801.24	229.89
801.56	229.87
801.89	229.81
802.21	229.81
802.53	229.77
802.85	229.75
803.17	229.73
803.49	229.69
803.81	229.69
804.13	229.66
804.45	229.63
804.77	229.65
805.09	229.63
805.41	229.58
805.73	229.55
806.05	229.51
806.37	229.46
806.69	229.44
807.01	229.42
807.33	229.41
807.65	229.34
807.97	229.34
808.28	229.30
808.60	229.28
808.92	229.24
809.24	229.28
809.56	229.24
809.88	229.20
810.20	229.19
810.52	229.16
810.84	229.14
811.16	229.09
811.48	229.06
811.80	229.06
812.12	229.04
812.43	229.06
812.75	229.01
813.07	228.96
813.39	228.91
813.71	228.88
814.03	228.85
814.35	228.86
814.67	228.82
814.98	228.81
815.30	228.79
815.62	228.75
815.94	228.65
816.26	228.68
816.58	228.63
816.89	228.62
817.21	228.60
817.53	228.58
817.85	228.56
818.17	228.51
818.48	228.45
818.80	228.44
819.12	228.39
819.44	228.39
819.76	228.37
820.07	228.36
820.39	228.34
820.71	228.33
821.03	228.30
821.34	228.27
821.66	228.27
821.98	228.26
822.30	228.24
822.61	228.27
822.93	228.21
823.25	228.18
823.57	228.16
823.88	228.17
824.20	228.17
824.52	228.17
824.83	228.17
825.15	228.19
825.47	228.19
825.79	228.20
826.10	228.18
826.42	228.13
826.74	228.16
827.05	228.17
827.37	228.15
827.69	228.14
828.00	228.13
828.32	228.10
828.64	228.11
828.95	228.12
829.27	228.11
829.58	228.11
829.90	228.13
830.22	228.17
830.53	228.12
830.85	228.09
831.17	228.06
831.48	228.04
831.80	228.02
832.11	227.97
832.43	227.93
832.75	227.90
833.06	227.97
833.38	227.93
833.69	227.89
834.01	227.89
834.32	227.88
834.64	227.85
834.96	227.83
835.27	227.82
835.59	227.79
835.90	227.75
836.22	227.71
836.53	227.68
836.85	227.61
837.16	227.69
837.48	227.67
837.79	227.70
838.11	227.73
838.42	227.73
838.74	227.76
839.05	227.77
839.37	227.75
839.68	227.72
840.00	227.72
840.31	227.76
840.63	227.73
840.94	227.70
841.26	227.71
841.57	227.72
841.88	227.69
842.20	227.71
842.51	227.69
842.83	227.75
843.14	227.84
843.46	227.84
843.77	227.82
844.08	227.80
844.40	227.80
844.71	227.77
845.03	227.74
845.34	227.72
845.65	227.69
845.97	227.69
846.28	227.70
846.60	227.70
846.91	227.67
847.22	227.69
847.54	227.72
847.85	227.75
848.16	227.75
848.48	227.74
848.79	227.78
849.10	227.80
849.42	227.77
849.73	227.69
850.04	227.68
850.36	227.63
850.67	227.66
850.98	227.64
851.30	227.63
851.61	227.65
851.92	227.68
852.23	227.72
852.55	227.75
852.86	227.72
853.17	227.74
853.49	227.75
853.80	227.76
854.11	227.77
854.42	227.75
854.74	227.71
855.05	227.68
855.36	227.60
855.67	227.62
855.99	227.61
856.30	227.72
856.61	227.72
856.92	227.73
857.23	227.72
857.55	227.73
857.86	227.73
858.17	227.74
858.48	227.70
858.79	227.67
859.11	227.65
859.42	227.63
859.73	227.57
860.04	227.53
860.35	227.50
860.66	227.46
860.98	227.44
861.29	227.44
861.60	227.46
861.91	227.47
862.22	227.41
862.53	227.38
862.84	227.25
863.16	227.27
863.47	227.25
863.78	227.22
864.09	227.22
864.40	227.20
864.71	227.15
865.02	227.14
865.33	227.13
865.64	227.09
865.95	227.10
866.27	227.13
866.58	227.14
866.89	227.14
867.20	227.11
867.51	227.07
867.82	227.06
868.13	227.08
868.44	227.09
868.75	227.12
869.06	227.13
869.37	227.15
869.68	227.14
869.99	227.15
870.30	227.15
870.61	227.13
870.92	227.09
871.23	227.15
871.54	227.16
871.85	227.16
872.16	227.19
872.47	227.18
872.78	227.15
873.09	227.19
873.40	227.18
873.71	227.20
874.02	227.23
874.33	227.24
874.64	227.23
874.95	227.22
875.26	227.23
875.56	227.25
875.87	227.24
876.18	227.22
876.49	227.32
876.80	227.34
877.11	227.29
877.42	227.36
877.73	227.35
878.04	227.34
878.35	227.36
878.66	227.38
878.96	227.39
879.27	227.39
879.58	227.38
879.89	227.38
880.20	227.43
880.51	227.43
880.82	227.45
881.12	227.43
881.43	227.40
881.74	227.38
882.05	227.39
882.36	227.39
882.67	227.40
882.97	227.29
883.28	227.27
883.59	227.30
883.90	227.28
884.21	227.26
884.51	227.26
884.82	227.27
885.13	227.23
885.44	227.25
885.74	227.22
886.05	227.20
886.36	227.20
886.67	227.16
886.98	227.21
887.28	227.20
887.59	227.22
887.90	227.25
888.20	227.24
888.51	227.23
888.82	227.21
889.13	227.20
889.43	227.28
889.74	227.30
890.05	227.31
890.35	227.30
890.66	227.33
890.97	227.32
891.28	227.27
891.58	227.31
891.89	227.28
892.20	227.29
892.50	227.29
892.81	227.29
893.12	227.28
893.42	227.22
893.73	227.22
894.04	227.23
894.34	227.24
894.65	227.24
894.95	227.22
895.26	227.23
895.57	227.29
895.87	227.20
896.18	227.20
896.48	227.19
896.79	227.21
897.10	227.21
897.40	227.22
897.71	227.23
898.01	227.21
898.32	227.22
898.63	227.21
898.93	227.22
899.24	227.22
899.54	227.21
899.85	227.21
900.15	227.19
900.46	227.15
900.76	227.16
901.07	227.16
901.38	227.17
901.68	227.16
901.99	227.09
902.29	227.08
902.60	227.07
902.90	227.06
903.21	227.03
903.51	226.99
903.82	226.99
904.12	226.99
904.43	226.98
904.73	226.96
905.03	226.96
905.34	227.05
905.64	227.02
905.95	227.01
906.25	227.00
906.56	226.96
906.86	226.98
907.17	226.95
907.47	226.95
907.77	226.91
908.08	226.90
908.38	226.90
908.69	226.92
908.99	226.90
909.30	226.93
909.60	226.93
909.90	226.92
910.21	226.88
910.51	226.85
910.81	226.86
911.12	226.84
911.42	226.86
911.73	226.74
912.03	226.77
912.33	226.77
912.64	226.77
912.94	226.78
913.24	226.76
913.55	226.78
913.85	226.79
914.15	226.81
914.46	226.84
914.76	226.82
915.06	226.82
915.37	226.80
915.67	226.77
915.97	226.77
916.27	226.76
916.58	226.79
916.88	226.82
917.18	226.78
917.49	226.88
917.79	226.86
918.09	226.86
918.39	226.88
918.70	226.89
919.00	226.91
919.30	226.97
919.60	226.96
919.91	226.92
920.21	226.91
920.51	226.91
920.81	226.90
921.12	226.96
921.42	226.97
921.72	226.96
922.02	226.96
922.32	226.99
922.63	227.02
922.93	227.05
923.23	227.05
923.53	227.08
923.83	227.02
924.13	227.04
924.44	227.08
924.74	227.11
925.04	227.14
925.34	227.10
925.64	227.07
925.94	227.08
926.24	227.15
926.55	227.12
926.85	227.11
927.15	227.11
927.45	227.08
927.75	227.07
928.05	227.11
928.35	227.15
928.65	227.14
928.95	227.13
929.26	227.12
929.56	227.15
929.86	227.13
930.16	227.12
930.46	227.11
930.76	227.07
931.06	227.00
931.36	226.99
931.66	227.00
931.96	227.01
932.26	227.00
932.56	226.93
932.86	226.95
933.16	226.98
933.46	226.96
933.76	226.94
934.06	226.95
934.36	226.95
934.66	226.88
934.96	226.88
935.26	226.86
935.56	226.89
935.86	226.87
936.16	226.86
936.46	226.81
936.76	226.79
937.06	226.77
937.36	226.78
937.66	226.78
937.96	226.78
938.26	226.74
938.56	226.72
938.86	226.73
939.16	226.78
939.46	226.76
939.76	226.77
940.06	226.76
940.35	226.74
940.65	226.72
940.95	226.76
941.25	226.71
941.55	226.71
941.85	226.69
942.15	226.69
942.45	226.72
942.75	226.72
943.04	226.71
943.34	226.77
943.64	226.75
943.94	226.72
944.24	226.71
944.54	226.73
944.84	226.73
945.13	226.73
945.43	226.69
945.73	226.69
946.03	226.67
946.33	226.67
946.62	226.65
946.92	226.67
947.22	226.69
947.52	226.71
947.82	226.73
948.11	226.69
948.41	226.66
948.71	226.63
949.01	226.67
949.31	226.67
949.60	226.63
949.90	226.65
950.20	226.66
950.50	226.66
950.79	226.66
951.09	226.70
951.39	226.65
951.69	226.65
951.98	226.66
952.28	226.65
952.58	226.67
952.87	226.69
953.17	226.71
953.47	226.67
953.76	226.67
954.06	226.67
954.36	226.66
954.66	226.68
954.95	226.71
955.25	226.69
955.55	226.71
955.84	226.70
956.14	226.71
956.44	226.74
956.73	226.71
957.03	226.73
957.32	226.74
957.62	226.78
957.92	226.79
958.21	226.79
958.51	226.90
958.81	226.89
959.10	226.89
959.40	226.90
959.69	226.93
959.99	226.95
960.29	226.94
960.58	226.98
960.88	227.02
961.17	227.02
961.47	227.03
961.76	227.01
962.06	227.01
962.36	227.01
962.65	227.02
962.95	227.04
963.24	227.01
963.54	226.99
963.83	226.97
964.13	226.98
964.42	226.96
964.72	226.89
965.01	226.90
965.31	226.86
965.60	226.84
965.90	226.88
966.19	226.82
966.49	226.83
966.78	226.79
967.08	226.79
967.37	226.73
967.67	226.70
967.96	226.72
968.26	226.74
968.55	226.74
968.85	226.71
969.14	226.74
969.43	226.75
969.73	226.76
970.02	226.77
970.32	226.71
970.61	226.71
970.91	226.69
971.20	226.65
971.49	226.68
971.79	226.67
972.08	226.63
972.38	226.62
972.67	226.61
972.96	226.60
973.26	226.55
973.55	226.60
973.85	226.61
974.14	226.59
974.43	226.55
974.73	226.51
975.02	226.52
975.31	226.50
975.61	226.46
975.90	226.43
976.19	226.48
976.49	226.51
976.78	226.50
977.07	226.46
977.37	226.51
977.66	226.50
977.95	226.47
978.24	226.45
978.54	226.51
978.83	226.49
979.12	226.51
979.42	226.51
979.71	226.50
980.00	226.51
980.29	226.53
980.59	226.52
980.88	226.55
981.17	226.54
981.46	226.51
981.76	226.50
982.05	226.48
982.34	226.46
982.63	226.46
982.93	226.45
983.22	226.50
983.51	226.47
983.80	226.50
984.09	226.54
984.39	226.53
984.68	226.48
984.97	226.47
985.26	226.47
985.55	226.48
985.85	226.47
986.14	226.48
986.43	226.50
986.72	226.53
987.01	226.49
987.30	226.51
987.59	226.55
987.89	226.55
988.18	226.58
988.47	226.58
988.76	226.54
989.05	226.53
989.34	226.53
989.63	226.56
989.92	226.56
990.22	226.53
990.51	226.53
990.80	226.56
991.09	226.62
991.38	226.61
991.67	226.61
991.96	226.60
992.25	226.58
992.54	226.55
992.83	226.54
993.12	226.57
993.41	226.56
993.70	226.58
993.99	226.59
994.28	226.58
994.58	226.59
994.87	226.64
995.16	226.65
995.45	226.63
995.74	226.60
996.03	226.62
996.32	226.64
996.61	226.70
996.90	226.70
997.19	226.67
997.48	226.67
997.77	226.66
998.06	226.68
998.34	226.71
998.63	226.73
998.92	226.73
999.21	226.77
999.50	226.78
999.79	226.76
1000.08	226.78
1000.37	226.79
1000.66	226.76
1000.95	226.75
1001.24	226.77
1001.53	226.81
1001.82	226.78
1002.11	226.74
1002.40	226.76
1002.68	226.75
1002.97	226.79
1003.26	226.80
1003.55	226.81
1003.84	226.81
1004.13	226.86
1004.42	226.86
1004.71	226.86
1004.99	226.84
1005.28	226.86
1005.57	226.86
1005.86	226.83
1006.15	226.84
1006.44	226.81
1006.72	226.86
1007.01	226.85
1007.30	226.89
1007.59	226.86
1007.88	226.88
1008.17	226.90
1008.45	226.89
1008.74	226.86
1009.03	226.81
1009.32	226.81
1009.60	226.82
1009.89	226.81
1010.18	226.73
1010.47	226.75
1010.76	226.72
1011.04	226.74
1011.33	226.73
1011.62	226.74
1011.91	226.79
1012.19	226.81
1012.48	226.82
1012.77	226.81
1013.05	226.86
1013.34	226.81
1013.63	226.82
1013.92	226.82
1014.20	226.82
1014.49	226.81
1014.78	226.81
1015.06	226.81
1015.35	226.81
1015.64	226.80
1015.92	226.84
1016.21	226.88
1016.50	226.84
1016.78	226.86
1017.07	226.88
1017.36	226.85
1017.64	226.84
1017.93	226.82
1018.22	226.79
1018.50	226.80
1018.79	226.78
1019.08	226.75
1019.36	226.74
1019.65	226.70
1019.93	226.73
1020.22	226.73
1020.51	226.76
1020.79	226.75
1021.08	226.49
1021.36	226.53
1021.65	226.91
1021.94	226.81
1022.22	226.26
1022.51	226.07
1022.79	227.22
1023.08	226.45
1023.36	227.58
1023.65	226.56
>>>>>End Processed Spectral Data<<<<<
