SpectraSuite Data File
++++++++++++++++++++++++++++++++++++
Date: Fri Feb 01 17:49:13 EST 2013
User: group
Dark Spectrum Present: No
Reference Spectrum Present: No
Number of Sampled Component Spectra: 1
Spectrometers: USB2E7196
Integration Time (usec): 35000 (USB2E7196)
Spectra Averaged: 100 (USB2E7196)
Boxcar Smoothing: 10 (USB2E7196)
Correct for Electrical Dark: No (USB2E7196)
Strobe/Lamp Enabled: No (USB2E7196)
Correct for Detector Non-linearity: No (USB2E7196)
Correct for Stray Light: No (USB2E7196)
Number of Pixels in Processed Spectrum: 2048
>>>>>Begin Processed Spectral Data<<<<<
339.09	0.00
339.48	213.14
339.86	213.81
340.24	215.23
340.63	216.68
341.01	219.65
341.39	219.79
341.78	220.88
342.16	222.12
342.54	222.35
342.93	211.04
343.31	221.71
343.69	222.23
344.07	222.68
344.46	223.12
344.84	223.50
345.22	223.75
345.60	223.98
345.99	224.19
346.37	224.32
346.75	224.43
347.13	224.47
347.52	224.53
347.90	224.60
348.28	224.63
348.66	224.65
349.05	224.65
349.43	224.67
349.81	224.72
350.19	224.75
350.57	224.79
350.96	224.87
351.34	224.94
351.72	224.99
352.10	225.10
352.48	225.16
352.87	225.21
353.25	225.26
353.63	225.31
354.01	225.35
354.39	225.40
354.77	225.47
355.15	225.58
355.54	225.64
355.92	225.65
356.30	225.70
356.68	225.87
357.06	225.98
357.44	226.04
357.82	226.12
358.20	226.22
358.58	226.31
358.97	226.37
359.35	226.45
359.73	226.54
360.11	226.60
360.49	226.69
360.87	226.71
361.25	226.78
361.63	226.87
362.01	226.94
362.39	226.99
362.77	227.02
363.15	227.07
363.53	227.12
363.91	227.16
364.29	227.21
364.67	227.16
365.05	227.14
365.43	227.21
365.81	227.24
366.19	227.25
366.57	227.27
366.95	227.29
367.33	227.27
367.71	227.26
368.09	227.32
368.47	227.28
368.85	227.30
369.23	227.31
369.61	227.25
369.99	227.27
370.37	227.27
370.75	227.29
371.13	227.23
371.51	227.19
371.89	227.19
372.27	227.17
372.65	227.13
373.03	227.13
373.41	227.06
373.78	227.03
374.16	226.99
374.54	226.96
374.92	226.93
375.30	226.93
375.68	226.88
376.06	226.80
376.44	226.75
376.82	226.70
377.19	226.65
377.57	226.62
377.95	226.50
378.33	226.43
378.71	226.33
379.09	226.29
379.47	226.24
379.84	226.13
380.22	226.06
380.60	225.98
380.98	225.89
381.36	225.82
381.73	225.71
382.11	225.62
382.49	225.54
382.87	225.46
383.25	225.35
383.62	225.42
384.00	225.35
384.38	225.30
384.76	225.25
385.13	225.22
385.51	225.17
385.89	225.13
386.27	225.08
386.64	225.04
387.02	224.98
387.40	224.92
387.78	224.90
388.15	224.86
388.53	224.82
388.91	224.77
389.29	224.77
389.66	224.75
390.04	224.72
390.42	224.73
390.79	224.69
391.17	224.67
391.55	224.52
391.92	224.49
392.30	224.49
392.68	224.44
393.05	224.46
393.43	224.46
393.81	224.46
394.18	224.42
394.56	224.46
394.94	224.46
395.31	224.47
395.69	224.54
396.06	224.56
396.44	224.57
396.82	224.61
397.19	224.67
397.57	224.68
397.95	224.73
398.32	224.71
398.70	224.79
399.07	224.86
399.45	224.91
399.82	224.98
400.20	225.00
400.58	225.09
400.95	225.09
401.33	225.19
401.70	225.35
402.08	225.45
402.45	225.52
402.83	225.68
403.20	225.78
403.58	225.87
403.95	226.00
404.33	226.17
404.71	226.25
405.08	226.42
405.46	226.56
405.83	226.75
406.21	226.93
406.58	227.10
406.96	227.31
407.33	227.54
407.70	227.76
408.08	228.09
408.45	228.33
408.83	228.61
409.20	228.86
409.58	229.08
409.95	229.44
410.33	229.79
410.70	230.08
411.08	230.47
411.45	230.86
411.82	231.23
412.20	231.67
412.57	232.21
412.95	232.62
413.32	233.18
413.69	233.67
414.07	234.23
414.44	234.81
414.82	235.38
415.19	236.08
415.56	236.78
415.94	237.48
416.31	238.30
416.68	239.12
417.06	240.03
417.43	240.89
417.81	241.84
418.18	242.84
418.55	243.92
418.93	245.08
419.30	246.26
419.67	247.51
420.04	248.76
420.42	250.04
420.79	251.52
421.16	253.02
421.54	254.57
421.91	256.17
422.28	257.81
422.66	259.53
423.03	261.22
423.40	262.94
423.77	264.81
424.15	266.68
424.52	268.60
424.89	270.69
425.26	272.72
425.64	274.62
426.01	276.67
426.38	278.84
426.75	280.97
427.13	283.17
427.50	285.51
427.87	287.92
428.24	290.33
428.61	292.66
428.99	295.17
429.36	297.92
429.73	300.61
430.10	303.23
430.47	305.91
430.85	308.72
431.22	311.66
431.59	314.71
431.96	317.64
432.33	320.90
432.70	324.01
433.08	327.65
433.45	331.03
433.82	334.44
434.19	338.17
434.56	341.84
434.93	345.28
435.30	348.71
435.68	352.49
436.05	356.17
436.42	359.78
436.79	363.06
437.16	366.59
437.53	370.22
437.90	373.90
438.27	377.46
438.64	381.12
439.01	384.46
439.38	387.38
439.75	390.17
440.13	393.42
440.50	396.43
440.87	398.82
441.24	401.36
441.61	404.18
441.98	406.16
442.35	408.51
442.72	410.96
443.09	413.30
443.46	414.61
443.83	415.38
444.20	416.07
444.57	417.17
444.94	417.53
445.31	418.07
445.68	418.49
446.05	418.64
446.42	418.17
446.79	417.65
447.16	417.15
447.53	416.75
447.90	415.24
448.27	413.78
448.64	411.82
449.01	410.41
449.37	407.88
449.74	405.43
450.11	402.51
450.48	399.36
450.85	396.09
451.22	393.28
451.59	390.64
451.96	388.14
452.33	384.73
452.70	381.73
453.07	378.02
453.43	374.29
453.80	370.66
454.17	367.16
454.54	363.85
454.91	360.24
455.28	356.75
455.65	353.55
456.02	350.28
456.38	347.41
456.75	343.91
457.12	340.97
457.49	338.01
457.86	335.17
458.23	332.67
458.59	330.01
458.96	327.30
459.33	324.94
459.70	322.47
460.07	320.52
460.43	318.19
460.80	316.03
461.17	314.13
461.54	312.17
461.91	310.28
462.27	308.37
462.64	306.75
463.01	304.99
463.38	303.25
463.74	301.51
464.11	300.03
464.48	298.67
464.85	297.21
465.21	296.10
465.58	294.89
465.95	293.47
466.32	292.29
466.68	291.09
467.05	289.89
467.42	288.75
467.78	287.52
468.15	286.41
468.52	285.58
468.88	284.43
469.25	283.43
469.62	282.62
469.98	281.77
470.35	280.90
470.72	280.13
471.08	279.24
471.45	278.50
471.82	277.72
472.18	276.91
472.55	276.33
472.92	275.64
473.28	275.01
473.65	274.41
474.02	273.80
474.38	273.28
474.75	272.84
475.11	272.31
475.48	271.93
475.85	271.55
476.21	271.19
476.58	270.96
476.94	270.75
477.31	270.52
477.67	270.23
478.04	270.05
478.41	269.91
478.77	269.87
479.14	269.74
479.50	269.71
479.87	269.77
480.23	269.77
480.60	269.79
480.96	269.83
481.33	270.00
481.69	270.13
482.06	270.27
482.42	270.44
482.79	270.67
483.15	270.95
483.52	271.31
483.88	271.65
484.25	271.99
484.61	272.37
484.98	272.79
485.34	273.34
485.71	273.95
486.07	274.55
486.44	275.10
486.80	275.80
487.17	276.55
487.53	277.33
487.90	278.19
488.26	279.12
488.62	280.11
488.99	281.09
489.35	282.17
489.72	283.38
490.08	284.62
490.44	285.88
490.81	287.27
491.17	288.66
491.54	290.17
491.90	291.76
492.26	293.43
492.63	295.22
492.99	297.07
493.36	299.02
493.72	301.16
494.08	303.40
494.45	305.77
494.81	308.24
495.17	310.78
495.54	313.49
495.90	316.31
496.26	319.22
496.63	322.30
496.99	325.57
497.35	328.98
497.72	332.50
498.08	336.24
498.44	340.07
498.80	344.23
499.17	348.50
499.53	352.89
499.89	357.53
500.26	362.23
500.62	367.15
500.98	372.36
501.34	377.70
501.71	383.25
502.07	388.99
502.43	394.90
502.79	401.08
503.16	407.47
503.52	414.03
503.88	420.80
504.24	427.84
504.60	435.08
504.97	442.53
505.33	450.26
505.69	458.38
506.05	466.61
506.41	474.90
506.78	483.42
507.14	492.41
507.50	501.57
507.86	511.14
508.22	520.82
508.59	530.56
508.95	540.65
509.31	551.01
509.67	561.68
510.03	572.54
510.39	583.61
510.75	595.07
511.12	606.61
511.48	618.59
511.84	630.76
512.20	642.96
512.56	655.66
512.92	668.53
513.28	681.69
513.64	694.87
514.00	708.39
514.37	722.24
514.73	736.01
515.09	749.84
515.45	763.95
515.81	778.42
516.17	793.28
516.53	808.41
516.89	823.52
517.25	838.67
517.61	854.02
517.97	869.63
518.33	884.94
518.69	900.83
519.05	916.89
519.41	933.09
519.77	949.74
520.13	966.30
520.49	982.90
520.85	999.36
521.21	1016.38
521.57	1033.78
521.93	1050.63
522.29	1068.29
522.65	1085.98
523.01	1103.42
523.37	1120.82
523.73	1138.34
524.09	1155.63
524.45	1173.29
524.81	1191.18
525.17	1209.45
525.53	1227.64
525.89	1245.99
526.25	1264.27
526.61	1282.10
526.97	1300.38
527.33	1318.38
527.68	1336.41
528.04	1354.46
528.40	1372.54
528.76	1391.05
529.12	1409.26
529.48	1427.82
529.84	1445.41
530.20	1463.52
530.56	1482.27
530.91	1501.38
531.27	1519.86
531.63	1537.97
531.99	1556.26
532.35	1573.96
532.71	1591.55
533.07	1609.59
533.42	1627.27
533.78	1645.02
534.14	1663.01
534.50	1680.03
534.86	1697.62
535.21	1714.71
535.57	1732.35
535.93	1749.67
536.29	1766.34
536.65	1783.14
537.00	1799.67
537.36	1816.87
537.72	1833.25
538.08	1849.55
538.44	1865.02
538.79	1880.76
539.15	1896.22
539.51	1911.78
539.87	1927.95
540.22	1943.42
540.58	1959.16
540.94	1974.37
541.29	1989.20
541.65	2003.85
542.01	2019.08
542.37	2033.42
542.72	2047.68
543.08	2061.43
543.44	2075.86
543.79	2089.06
544.15	2102.06
544.51	2115.59
544.87	2128.31
545.22	2141.06
545.58	2153.03
545.94	2164.65
546.29	2176.33
546.65	2188.24
547.01	2199.42
547.36	2210.03
547.72	2220.41
548.07	2229.84
548.43	2239.60
548.79	2249.36
549.14	2258.71
549.50	2267.60
549.86	2277.00
550.21	2286.06
550.57	2295.09
550.92	2303.35
551.28	2312.16
551.64	2320.93
551.99	2329.10
552.35	2337.16
552.70	2344.99
553.06	2352.59
553.41	2360.73
553.77	2368.37
554.13	2376.14
554.48	2384.15
554.84	2391.37
555.19	2398.15
555.55	2405.03
555.90	2411.17
556.26	2417.78
556.61	2423.97
556.97	2430.02
557.32	2435.54
557.68	2441.16
558.03	2446.80
558.39	2451.78
558.74	2457.84
559.10	2463.02
559.45	2468.14
559.81	2473.75
560.16	2478.84
560.52	2483.57
560.87	2488.33
561.23	2492.18
561.58	2496.23
561.94	2499.79
562.29	2503.20
562.64	2507.25
563.00	2510.96
563.35	2515.62
563.71	2519.69
564.06	2523.87
564.42	2527.84
564.77	2531.52
565.12	2535.10
565.48	2538.09
565.83	2541.14
566.19	2543.55
566.54	2545.32
566.89	2547.53
567.25	2549.00
567.60	2551.34
567.96	2553.93
568.31	2555.46
568.66	2557.55
569.02	2558.93
569.37	2559.96
569.72	2561.74
570.08	2562.68
570.43	2563.45
570.78	2563.72
571.14	2562.89
571.49	2562.17
571.84	2562.38
572.20	2561.92
572.55	2561.27
572.90	2559.91
573.26	2559.17
573.61	2557.55
573.96	2556.38
574.31	2553.51
574.67	2550.70
575.02	2547.37
575.37	2544.24
575.72	2540.64
576.08	2537.31
576.43	2534.08
576.78	2530.61
577.13	2527.43
577.49	2524.32
577.84	2520.88
578.19	2517.19
578.54	2513.61
578.90	2509.53
579.25	2503.72
579.60	2498.54
579.95	2493.23
580.30	2488.26
580.66	2482.83
581.01	2477.65
581.36	2472.38
581.71	2468.24
582.06	2463.73
582.42	2458.90
582.77	2453.38
583.12	2448.72
583.47	2444.08
583.82	2438.97
584.17	2433.38
584.53	2427.56
584.88	2421.58
585.23	2415.42
585.58	2409.39
585.93	2403.38
586.28	2398.23
586.63	2392.86
586.98	2387.44
587.34	2382.37
587.69	2376.96
588.04	2371.24
588.39	2365.23
588.74	2358.19
589.09	2351.44
589.44	2343.96
589.79	2337.32
590.14	2331.11
590.49	2323.74
590.84	2316.67
591.19	2309.97
591.54	2302.85
591.89	2294.80
592.25	2287.47
592.60	2279.50
592.95	2271.35
593.30	2263.22
593.65	2254.76
594.00	2246.99
594.35	2238.83
594.70	2230.03
595.05	2222.18
595.40	2213.94
595.75	2205.53
596.10	2198.67
596.45	2191.16
596.80	2184.30
597.15	2176.96
597.50	2169.07
597.85	2161.71
598.19	2154.17
598.54	2146.20
598.89	2138.70
599.24	2132.01
599.59	2124.51
599.94	2117.50
600.29	2110.28
600.64	2102.89
600.99	2094.48
601.34	2086.76
601.69	2078.85
602.04	2071.05
602.39	2062.64
602.74	2054.79
603.08	2047.21
603.43	2039.45
603.78	2031.09
604.13	2022.80
604.48	2014.59
604.83	2006.74
605.18	1999.05
605.53	1989.90
605.87	1980.82
606.22	1972.60
606.57	1963.47
606.92	1954.89
607.27	1946.82
607.62	1938.81
607.96	1930.54
608.31	1923.08
608.66	1914.26
609.01	1905.72
609.36	1896.99
609.70	1887.75
610.05	1878.68
610.40	1869.69
610.75	1860.21
611.10	1851.42
611.44	1841.68
611.79	1832.37
612.14	1822.53
612.49	1811.97
612.83	1802.18
613.18	1792.86
613.53	1783.62
613.88	1773.96
614.22	1764.41
614.57	1754.31
614.92	1745.12
615.27	1736.56
615.61	1726.81
615.96	1717.66
616.31	1708.72
616.65	1700.19
617.00	1691.61
617.35	1682.83
617.70	1673.38
618.04	1663.70
618.39	1654.12
618.74	1645.47
619.08	1635.93
619.43	1626.92
619.78	1618.90
620.12	1610.76
620.47	1602.13
620.82	1592.62
621.16	1583.90
621.51	1575.11
621.85	1566.33
622.20	1556.47
622.55	1546.51
622.89	1537.35
623.24	1528.40
623.59	1519.87
623.93	1511.24
624.28	1502.84
624.62	1494.11
624.97	1485.76
625.32	1477.76
625.66	1469.73
626.01	1461.52
626.35	1453.04
626.70	1444.14
627.04	1435.25
627.39	1426.25
627.73	1417.62
628.08	1409.63
628.43	1401.34
628.77	1392.93
629.12	1384.29
629.46	1375.99
629.81	1367.47
630.15	1359.27
630.50	1350.77
630.84	1341.41
631.19	1332.23
631.53	1323.43
631.88	1314.70
632.22	1306.03
632.57	1297.58
632.91	1288.81
633.26	1280.22
633.60	1271.54
633.95	1263.40
634.29	1255.29
634.64	1247.62
634.98	1239.14
635.32	1230.89
635.67	1223.20
636.01	1215.43
636.36	1207.61
636.70	1200.13
637.05	1192.64
637.39	1185.18
637.73	1177.74
638.08	1170.94
638.42	1164.07
638.77	1156.69
639.11	1149.09
639.45	1141.66
639.80	1134.17
640.14	1126.88
640.49	1119.48
640.83	1112.32
641.17	1105.16
641.52	1097.87
641.86	1090.45
642.20	1083.70
642.55	1076.39
642.89	1068.98
643.23	1061.46
643.58	1054.88
643.92	1047.77
644.26	1040.92
644.61	1033.97
644.95	1027.11
645.29	1019.59
645.64	1011.81
645.98	1004.56
646.32	997.88
646.66	991.05
647.01	984.37
647.35	977.89
647.69	971.18
648.04	964.81
648.38	958.21
648.72	951.47
649.06	944.67
649.41	937.99
649.75	931.36
650.09	924.59
650.43	918.06
650.78	911.02
651.12	904.32
651.46	897.80
651.80	891.36
652.14	885.23
652.49	879.19
652.83	873.37
653.17	867.01
653.51	860.58
653.85	854.45
654.20	848.06
654.54	841.14
654.88	834.62
655.22	827.93
655.56	821.50
655.90	815.23
656.25	809.24
656.59	803.11
656.93	797.21
657.27	791.35
657.61	785.21
657.95	779.44
658.29	773.63
658.64	767.60
658.98	761.57
659.32	755.32
659.66	749.35
660.00	743.34
660.34	737.74
660.68	732.11
661.02	726.30
661.36	720.89
661.70	715.79
662.05	710.80
662.39	705.98
662.73	700.93
663.07	695.99
663.41	690.90
663.75	685.87
664.09	680.72
664.43	675.72
664.77	671.06
665.11	666.23
665.45	661.51
665.79	656.93
666.13	652.24
666.47	647.65
666.81	642.92
667.15	638.25
667.49	633.80
667.83	629.43
668.17	625.13
668.51	620.61
668.85	616.12
669.19	611.76
669.53	607.44
669.87	603.01
670.21	598.77
670.55	594.66
670.89	590.71
671.23	586.93
671.57	583.00
671.91	579.00
672.25	575.01
672.58	571.07
672.92	567.12
673.26	563.50
673.60	559.93
673.94	556.44
674.28	553.12
674.62	549.81
674.96	546.34
675.30	542.99
675.64	539.60
675.97	536.39
676.31	533.12
676.65	529.79
676.99	526.72
677.33	523.52
677.67	520.33
678.01	516.90
678.34	513.50
678.68	510.21
679.02	507.05
679.36	503.88
679.70	500.81
680.04	497.76
680.37	494.54
680.71	491.36
681.05	488.36
681.39	485.29
681.73	482.23
682.06	479.31
682.40	476.43
682.74	473.57
683.08	470.68
683.42	467.73
683.75	464.88
684.09	461.96
684.43	459.13
684.77	456.35
685.10	453.67
685.44	451.00
685.78	448.40
686.12	445.80
686.45	443.23
686.79	440.61
687.13	438.11
687.46	435.63
687.80	433.12
688.14	430.58
688.48	428.25
688.81	425.73
689.15	423.33
689.49	420.87
689.82	418.51
690.16	416.12
690.50	413.88
690.83	411.65
691.17	409.41
691.51	407.23
691.84	405.10
692.18	402.94
692.52	400.70
692.85	398.46
693.19	396.28
693.52	394.17
693.86	392.07
694.20	390.02
694.53	387.97
694.87	385.89
695.21	383.86
695.54	381.73
695.88	379.70
696.21	377.74
696.55	375.81
696.88	373.86
697.22	371.97
697.56	370.12
697.89	368.25
698.23	366.41
698.56	364.61
698.90	362.83
699.23	360.97
699.57	359.22
699.90	357.46
700.24	355.74
700.58	354.00
700.91	352.32
701.25	350.65
701.58	349.09
701.92	347.51
702.25	345.96
702.59	344.42
702.92	342.97
703.26	341.45
703.59	339.97
703.93	338.63
704.26	337.24
704.60	335.76
704.93	334.33
705.26	332.91
705.60	331.49
705.93	330.08
706.27	328.87
706.60	327.63
706.94	326.43
707.27	325.16
707.61	323.92
707.94	322.71
708.27	321.45
708.61	320.19
708.94	319.06
709.28	317.88
709.61	316.81
709.94	315.70
710.28	314.55
710.61	313.40
710.95	312.14
711.28	311.08
711.61	310.01
711.95	308.92
712.28	307.87
712.61	306.76
712.95	305.72
713.28	304.70
713.61	303.67
713.95	302.63
714.28	301.62
714.61	300.67
714.95	299.70
715.28	298.73
715.61	297.75
715.95	296.76
716.28	295.79
716.61	294.81
716.95	293.85
717.28	292.96
717.61	292.12
717.94	291.33
718.28	290.40
718.61	289.55
718.94	288.75
719.27	287.96
719.61	287.25
719.94	286.50
720.27	285.67
720.60	284.89
720.94	284.19
721.27	283.51
721.60	282.84
721.93	282.15
722.27	281.55
722.60	280.90
722.93	280.24
723.26	279.63
723.59	279.02
723.93	278.45
724.26	277.84
724.59	277.22
724.92	276.63
725.25	276.07
725.59	275.46
725.92	274.90
726.25	274.30
726.58	273.72
726.91	273.11
727.24	272.60
727.57	272.07
727.91	271.52
728.24	271.01
728.57	270.42
728.90	269.90
729.23	269.35
729.56	268.86
729.89	268.36
730.22	267.83
730.55	267.30
730.89	266.78
731.22	266.27
731.55	265.75
731.88	265.27
732.21	264.75
732.54	264.29
732.87	263.82
733.20	263.38
733.53	262.97
733.86	262.58
734.19	262.13
734.52	261.70
734.85	261.32
735.18	260.83
735.51	260.43
735.84	260.01
736.17	259.61
736.50	259.18
736.83	258.89
737.16	258.49
737.49	258.08
737.82	257.69
738.15	257.33
738.48	256.96
738.81	256.54
739.14	256.22
739.47	255.90
739.80	255.53
740.13	255.19
740.46	254.79
740.79	254.42
741.12	254.07
741.45	253.71
741.78	253.34
742.11	253.03
742.44	252.67
742.77	252.32
743.10	251.99
743.43	251.66
743.75	251.24
744.08	251.07
744.41	250.76
744.74	250.45
745.07	250.14
745.40	249.85
745.73	249.61
746.06	249.27
746.39	248.93
746.71	248.64
747.04	248.31
747.37	248.07
747.70	247.81
748.03	247.50
748.36	247.26
748.68	247.01
749.01	246.74
749.34	246.50
749.67	246.29
750.00	246.01
750.33	245.83
750.65	245.59
750.98	245.21
751.31	244.98
751.64	244.76
751.97	244.56
752.29	244.28
752.62	243.98
752.95	243.75
753.28	243.49
753.60	243.26
753.93	243.06
754.26	242.83
754.59	242.56
754.91	242.36
755.24	242.13
755.57	241.88
755.90	241.64
756.22	241.41
756.55	241.14
756.88	240.91
757.20	240.62
757.53	240.38
757.86	240.18
758.19	240.00
758.51	239.72
758.84	239.46
759.17	239.28
759.49	239.11
759.82	238.98
760.15	238.82
760.47	238.66
760.80	238.48
761.13	238.28
761.45	238.08
761.78	237.87
762.11	237.69
762.43	237.52
762.76	237.34
763.08	237.17
763.41	237.07
763.74	236.94
764.06	236.78
764.39	236.63
764.71	236.45
765.04	236.25
765.37	236.14
765.69	236.01
766.02	235.88
766.34	235.72
766.67	235.54
767.00	235.41
767.32	235.31
767.65	235.23
767.97	235.11
768.30	235.02
768.62	234.93
768.95	234.81
769.27	234.67
769.60	234.60
769.92	234.48
770.25	234.34
770.57	234.21
770.90	234.10
771.22	233.97
771.55	233.89
771.87	233.82
772.20	233.68
772.52	233.63
772.85	233.62
773.17	233.55
773.50	233.43
773.82	233.36
774.15	233.20
774.47	233.03
774.80	232.93
775.12	232.81
775.45	232.73
775.77	232.63
776.09	232.57
776.42	232.47
776.74	232.43
777.07	232.31
777.39	232.23
777.72	232.15
778.04	232.12
778.36	232.04
778.69	231.96
779.01	231.95
779.33	231.83
779.66	231.65
779.98	231.55
780.31	231.47
780.63	231.42
780.95	231.38
781.28	231.30
781.60	231.22
781.92	231.13
782.25	231.05
782.57	230.99
782.89	230.90
783.22	230.83
783.54	230.76
783.86	230.70
784.19	230.62
784.51	230.57
784.83	230.45
785.16	230.37
785.48	230.34
785.80	230.23
786.12	230.19
786.45	230.12
786.77	230.09
787.09	230.00
787.42	229.92
787.74	229.84
788.06	229.79
788.38	229.76
788.71	229.75
789.03	229.72
789.35	229.69
789.67	229.63
789.99	229.61
790.32	229.55
790.64	229.53
790.96	229.56
791.28	229.47
791.61	229.43
791.93	229.39
792.25	229.34
792.57	229.38
792.89	229.28
793.21	229.24
793.54	229.19
793.86	229.16
794.18	229.10
794.50	229.07
794.82	229.04
795.14	228.97
795.47	228.93
795.79	228.91
796.11	228.80
796.43	228.76
796.75	228.71
797.07	228.63
797.39	228.57
797.71	228.46
798.04	228.44
798.36	228.40
798.68	228.33
799.00	228.27
799.32	228.18
799.64	228.15
799.96	228.11
800.28	228.07
800.60	228.03
800.92	227.99
801.24	227.93
801.56	227.89
801.89	227.82
802.21	227.77
802.53	227.67
802.85	227.67
803.17	227.68
803.49	227.61
803.81	227.54
804.13	227.50
804.45	227.47
804.77	227.40
805.09	227.38
805.41	227.35
805.73	227.31
806.05	227.22
806.37	227.21
806.69	227.14
807.01	227.10
807.33	227.09
807.65	227.03
807.97	227.06
808.28	227.03
808.60	227.00
808.92	226.94
809.24	227.00
809.56	226.93
809.88	226.89
810.20	226.93
810.52	226.93
810.84	226.90
811.16	226.85
811.48	226.84
811.80	226.87
812.12	226.83
812.43	226.78
812.75	226.81
813.07	226.76
813.39	226.79
813.71	226.77
814.03	226.74
814.35	226.74
814.67	226.66
814.98	226.64
815.30	226.64
815.62	226.63
815.94	226.53
816.26	226.60
816.58	226.52
816.89	226.48
817.21	226.47
817.53	226.47
817.85	226.49
818.17	226.48
818.48	226.43
818.80	226.43
819.12	226.44
819.44	226.37
819.76	226.38
820.07	226.38
820.39	226.36
820.71	226.34
821.03	226.34
821.34	226.36
821.66	226.33
821.98	226.32
822.30	226.32
822.61	226.38
822.93	226.32
823.25	226.34
823.57	226.29
823.88	226.33
824.20	226.29
824.52	226.32
824.83	226.33
825.15	226.29
825.47	226.30
825.79	226.28
826.10	226.30
826.42	226.29
826.74	226.29
827.05	226.28
827.37	226.29
827.69	226.27
828.00	226.28
828.32	226.30
828.64	226.29
828.95	226.32
829.27	226.25
829.58	226.26
829.90	226.26
830.22	226.29
830.53	226.24
830.85	226.21
831.17	226.16
831.48	226.11
831.80	226.10
832.11	226.09
832.43	226.09
832.75	226.07
833.06	226.12
833.38	226.06
833.69	225.99
834.01	226.00
834.32	225.98
834.64	225.94
834.96	225.91
835.27	225.88
835.59	225.84
835.90	225.84
836.22	225.81
836.53	225.79
836.85	225.75
837.16	225.85
837.48	225.85
837.79	225.86
838.11	225.89
838.42	225.90
838.74	225.90
839.05	225.88
839.37	225.85
839.68	225.76
840.00	225.78
840.31	225.81
840.63	225.75
840.94	225.75
841.26	225.72
841.57	225.69
841.88	225.70
842.20	225.68
842.51	225.65
842.83	225.64
843.14	225.69
843.46	225.67
843.77	225.57
844.08	225.60
844.40	225.54
844.71	225.52
845.03	225.51
845.34	225.47
845.65	225.45
845.97	225.45
846.28	225.45
846.60	225.44
846.91	225.42
847.22	225.41
847.54	225.39
847.85	225.41
848.16	225.44
848.48	225.38
848.79	225.38
849.10	225.37
849.42	225.35
849.73	225.28
850.04	225.29
850.36	225.26
850.67	225.26
850.98	225.26
851.30	225.22
851.61	225.16
851.92	225.15
852.23	225.18
852.55	225.20
852.86	225.21
853.17	225.19
853.49	225.18
853.80	225.21
854.11	225.19
854.42	225.18
854.74	225.15
855.05	225.20
855.36	225.18
855.67	225.18
855.99	225.17
856.30	225.28
856.61	225.29
856.92	225.26
857.23	225.27
857.55	225.23
857.86	225.26
858.17	225.32
858.48	225.30
858.79	225.26
859.11	225.27
859.42	225.24
859.73	225.22
860.04	225.25
860.35	225.22
860.66	225.19
860.98	225.18
861.29	225.16
861.60	225.13
861.91	225.18
862.22	225.16
862.53	225.14
862.84	225.03
863.16	225.00
863.47	225.01
863.78	224.97
864.09	225.00
864.40	225.02
864.71	225.02
865.02	225.02
865.33	225.02
865.64	224.99
865.95	225.02
866.27	225.09
866.58	225.07
866.89	225.09
867.20	225.09
867.51	225.08
867.82	225.08
868.13	225.11
868.44	225.04
868.75	225.09
869.06	225.07
869.37	225.05
869.68	225.02
869.99	225.03
870.30	225.04
870.61	225.03
870.92	224.99
871.23	224.97
871.54	224.98
871.85	224.98
872.16	224.98
872.47	224.96
872.78	224.88
873.09	224.86
873.40	224.85
873.71	224.85
874.02	224.86
874.33	224.86
874.64	224.82
874.95	224.85
875.26	224.80
875.56	224.84
875.87	224.82
876.18	224.84
876.49	224.94
876.80	224.91
877.11	224.90
877.42	224.91
877.73	224.89
878.04	224.88
878.35	224.88
878.66	224.89
878.96	224.88
879.27	224.90
879.58	224.90
879.89	224.90
880.20	224.96
880.51	224.93
880.82	224.93
881.12	224.97
881.43	224.95
881.74	224.94
882.05	224.89
882.36	224.92
882.67	224.93
882.97	224.82
883.28	224.81
883.59	224.83
883.90	224.82
884.21	224.85
884.51	224.86
884.82	224.84
885.13	224.84
885.44	224.87
885.74	224.86
886.05	224.85
886.36	224.82
886.67	224.77
886.98	224.82
887.28	224.81
887.59	224.81
887.90	224.81
888.20	224.82
888.51	224.85
888.82	224.83
889.13	224.85
889.43	224.93
889.74	224.96
890.05	224.94
890.35	224.93
890.66	224.91
890.97	224.93
891.28	224.93
891.58	224.95
891.89	224.94
892.20	224.94
892.50	224.97
892.81	224.96
893.12	224.95
893.42	224.91
893.73	224.93
894.04	224.91
894.34	224.92
894.65	224.89
894.95	224.91
895.26	224.90
895.57	224.91
895.87	224.82
896.18	224.84
896.48	224.85
896.79	224.89
897.10	224.88
897.40	224.87
897.71	224.88
898.01	224.83
898.32	224.86
898.63	224.84
898.93	224.82
899.24	224.83
899.54	224.86
899.85	224.87
900.15	224.85
900.46	224.89
900.76	224.88
901.07	224.88
901.38	224.86
901.68	224.85
901.99	224.85
902.29	224.86
902.60	224.84
902.90	224.83
903.21	224.80
903.51	224.82
903.82	224.86
904.12	224.81
904.43	224.85
904.73	224.84
905.03	224.82
905.34	224.89
905.64	224.86
905.95	224.81
906.25	224.77
906.56	224.79
906.86	224.75
907.17	224.75
907.47	224.78
907.77	224.74
908.08	224.76
908.38	224.72
908.69	224.71
908.99	224.74
909.30	224.74
909.60	224.71
909.90	224.72
910.21	224.65
910.51	224.68
910.81	224.68
911.12	224.62
911.42	224.63
911.73	224.51
912.03	224.55
912.33	224.61
912.64	224.63
912.94	224.59
913.24	224.57
913.55	224.57
913.85	224.55
914.15	224.56
914.46	224.55
914.76	224.59
915.06	224.55
915.37	224.49
915.67	224.47
915.97	224.45
916.27	224.40
916.58	224.40
916.88	224.38
917.18	224.34
917.49	224.43
917.79	224.47
918.09	224.49
918.39	224.52
918.70	224.49
919.00	224.49
919.30	224.56
919.60	224.56
919.91	224.54
920.21	224.51
920.51	224.53
920.81	224.54
921.12	224.51
921.42	224.55
921.72	224.57
922.02	224.58
922.32	224.62
922.63	224.67
922.93	224.74
923.23	224.74
923.53	224.73
923.83	224.65
924.13	224.63
924.44	224.65
924.74	224.68
925.04	224.69
925.34	224.71
925.64	224.64
925.94	224.66
926.24	224.72
926.55	224.73
926.85	224.73
927.15	224.74
927.45	224.76
927.75	224.74
928.05	224.73
928.35	224.74
928.65	224.76
928.95	224.75
929.26	224.71
929.56	224.74
929.86	224.80
930.16	224.80
930.46	224.79
930.76	224.79
931.06	224.75
931.36	224.74
931.66	224.74
931.96	224.76
932.26	224.79
932.56	224.75
932.86	224.76
933.16	224.77
933.46	224.77
933.76	224.75
934.06	224.83
934.36	224.89
934.66	224.90
934.96	224.91
935.26	224.91
935.56	224.93
935.86	224.89
936.16	224.89
936.46	224.92
936.76	224.92
937.06	224.91
937.36	224.91
937.66	224.93
937.96	224.90
938.26	224.88
938.56	224.87
938.86	224.89
939.16	224.94
939.46	224.98
939.76	224.97
940.06	224.99
940.35	224.94
940.65	224.89
940.95	224.90
941.25	224.87
941.55	224.89
941.85	224.88
942.15	224.92
942.45	224.92
942.75	224.87
943.04	224.88
943.34	224.89
943.64	224.86
943.94	224.85
944.24	224.88
944.54	224.89
944.84	224.89
945.13	224.87
945.43	224.84
945.73	224.82
946.03	224.82
946.33	224.77
946.62	224.75
946.92	224.72
947.22	224.72
947.52	224.71
947.82	224.68
948.11	224.65
948.41	224.62
948.71	224.58
949.01	224.63
949.31	224.62
949.60	224.61
949.90	224.69
950.20	224.67
950.50	224.64
950.79	224.62
951.09	224.61
951.39	224.63
951.69	224.61
951.98	224.62
952.28	224.61
952.58	224.60
952.87	224.61
953.17	224.63
953.47	224.60
953.76	224.59
954.06	224.59
954.36	224.59
954.66	224.61
954.95	224.63
955.25	224.61
955.55	224.60
955.84	224.58
956.14	224.56
956.44	224.56
956.73	224.56
957.03	224.56
957.32	224.55
957.62	224.55
957.92	224.55
958.21	224.52
958.51	224.61
958.81	224.64
959.10	224.67
959.40	224.70
959.69	224.72
959.99	224.74
960.29	224.73
960.58	224.75
960.88	224.76
961.17	224.75
961.47	224.76
961.76	224.77
962.06	224.82
962.36	224.76
962.65	224.78
962.95	224.78
963.24	224.79
963.54	224.79
963.83	224.79
964.13	224.80
964.42	224.79
964.72	224.74
965.01	224.74
965.31	224.73
965.60	224.73
965.90	224.78
966.19	224.76
966.49	224.79
966.78	224.76
967.08	224.76
967.37	224.79
967.67	224.78
967.96	224.81
968.26	224.79
968.55	224.84
968.85	224.83
969.14	224.83
969.43	224.76
969.73	224.76
970.02	224.74
970.32	224.73
970.61	224.73
970.91	224.67
971.20	224.65
971.49	224.60
971.79	224.59
972.08	224.54
972.38	224.54
972.67	224.48
972.96	224.54
973.26	224.47
973.55	224.47
973.85	224.43
974.14	224.41
974.43	224.40
974.73	224.40
975.02	224.36
975.31	224.38
975.61	224.46
975.90	224.42
976.19	224.40
976.49	224.40
976.78	224.41
977.07	224.43
977.37	224.43
977.66	224.44
977.95	224.42
978.24	224.42
978.54	224.43
978.83	224.42
979.12	224.40
979.42	224.41
979.71	224.40
980.00	224.38
980.29	224.38
980.59	224.37
980.88	224.37
981.17	224.37
981.46	224.36
981.76	224.34
982.05	224.42
982.34	224.43
982.63	224.44
982.93	224.40
983.22	224.40
983.51	224.43
983.80	224.43
984.09	224.45
984.39	224.42
984.68	224.40
984.97	224.42
985.26	224.39
985.55	224.41
985.85	224.37
986.14	224.41
986.43	224.41
986.72	224.40
987.01	224.36
987.30	224.39
987.59	224.38
987.89	224.38
988.18	224.33
988.47	224.34
988.76	224.35
989.05	224.38
989.34	224.37
989.63	224.39
989.92	224.39
990.22	224.37
990.51	224.39
990.80	224.40
991.09	224.43
991.38	224.47
991.67	224.48
991.96	224.50
992.25	224.52
992.54	224.51
992.83	224.53
993.12	224.54
993.41	224.55
993.70	224.61
993.99	224.66
994.28	224.68
994.58	224.68
994.87	224.68
995.16	224.68
995.45	224.71
995.74	224.64
996.03	224.68
996.32	224.69
996.61	224.69
996.90	224.69
997.19	224.66
997.48	224.65
997.77	224.63
998.06	224.63
998.34	224.59
998.63	224.60
998.92	224.61
999.21	224.62
999.50	224.65
999.79	224.59
1000.08	224.56
1000.37	224.56
1000.66	224.54
1000.95	224.55
1001.24	224.55
1001.53	224.52
1001.82	224.57
1002.11	224.55
1002.40	224.58
1002.68	224.62
1002.97	224.70
1003.26	224.71
1003.55	224.70
1003.84	224.73
1004.13	224.77
1004.42	224.75
1004.71	224.75
1004.99	224.78
1005.28	224.82
1005.57	224.76
1005.86	224.76
1006.15	224.76
1006.44	224.72
1006.72	224.74
1007.01	224.71
1007.30	224.67
1007.59	224.66
1007.88	224.65
1008.17	224.62
1008.45	224.59
1008.74	224.52
1009.03	224.49
1009.32	224.47
1009.60	224.48
1009.89	224.45
1010.18	224.38
1010.47	224.42
1010.76	224.44
1011.04	224.40
1011.33	224.37
1011.62	224.41
1011.91	224.43
1012.19	224.40
1012.48	224.42
1012.77	224.42
1013.05	224.47
1013.34	224.50
1013.63	224.49
1013.92	224.47
1014.20	224.45
1014.49	224.44
1014.78	224.45
1015.06	224.38
1015.35	224.39
1015.64	224.41
1015.92	224.40
1016.21	224.44
1016.50	224.46
1016.78	224.42
1017.07	224.44
1017.36	224.44
1017.64	224.42
1017.93	224.42
1018.22	224.40
1018.50	224.42
1018.79	224.41
1019.08	224.37
1019.36	224.38
1019.65	224.38
1019.93	224.42
1020.22	224.42
1020.51	224.45
1020.79	224.47
1021.08	223.96
1021.36	224.88
1021.65	224.29
1021.94	224.37
1022.22	224.75
1022.51	224.06
1022.79	224.81
1023.08	224.11
1023.36	224.75
1023.65	224.62
>>>>>End Processed Spectral Data<<<<<
