SpectraSuite Data File
++++++++++++++++++++++++++++++++++++
Date: Fri Feb 01 15:17:21 EST 2013
User: group
Dark Spectrum Present: No
Reference Spectrum Present: No
Number of Sampled Component Spectra: 1
Spectrometers: USB2E7196
Integration Time (usec): 35000 (USB2E7196)
Spectra Averaged: 100 (USB2E7196)
Boxcar Smoothing: 10 (USB2E7196)
Correct for Electrical Dark: No (USB2E7196)
Strobe/Lamp Enabled: No (USB2E7196)
Correct for Detector Non-linearity: No (USB2E7196)
Correct for Stray Light: No (USB2E7196)
Number of Pixels in Processed Spectrum: 2048
>>>>>Begin Processed Spectral Data<<<<<
339.09	0.00
339.48	215.11
339.86	216.67
340.24	218.26
340.63	219.18
341.01	221.88
341.39	222.06
341.78	222.86
342.16	224.73
342.54	225.22
342.93	213.51
343.31	224.31
343.69	224.87
344.07	225.33
344.46	225.77
344.84	226.14
345.22	226.37
345.60	226.61
345.99	226.83
346.37	226.96
346.75	227.06
347.13	227.14
347.52	227.18
347.90	227.23
348.28	227.23
348.66	227.27
349.05	227.25
349.43	227.31
349.81	227.35
350.19	227.37
350.57	227.41
350.96	227.48
351.34	227.55
351.72	227.61
352.10	227.71
352.48	227.78
352.87	227.85
353.25	227.95
353.63	228.02
354.01	228.09
354.39	228.16
354.77	228.22
355.15	228.33
355.54	228.38
355.92	228.44
356.30	228.57
356.68	228.69
357.06	228.75
357.44	228.77
357.82	228.86
358.20	228.94
358.58	229.01
358.97	229.07
359.35	229.17
359.73	229.24
360.11	229.28
360.49	229.34
360.87	229.37
361.25	229.43
361.63	229.49
362.01	229.54
362.39	229.57
362.77	229.65
363.15	229.62
363.53	229.67
363.91	229.69
364.29	229.67
364.67	229.59
365.05	229.57
365.43	229.59
365.81	229.60
366.19	229.65
366.57	229.67
366.95	229.62
367.33	229.57
367.71	229.54
368.09	229.53
368.47	229.47
368.85	229.45
369.23	229.41
369.61	229.34
369.99	229.32
370.37	229.27
370.75	229.22
371.13	229.16
371.51	229.06
371.89	229.04
372.27	228.98
372.65	228.95
373.03	228.91
373.41	228.80
373.78	228.70
374.16	228.59
374.54	228.51
374.92	228.45
375.30	228.38
375.68	228.31
376.06	228.22
376.44	228.15
376.82	228.07
377.19	228.00
377.57	227.92
377.95	227.84
378.33	227.80
378.71	227.66
379.09	227.62
379.47	227.57
379.84	227.46
380.22	227.40
380.60	227.31
380.98	227.25
381.36	227.21
381.73	227.12
382.11	227.06
382.49	226.99
382.87	226.90
383.25	226.83
383.62	226.91
384.00	226.86
384.38	226.81
384.76	226.79
385.13	226.80
385.51	226.74
385.89	226.63
386.27	226.56
386.64	226.56
387.02	226.47
387.40	226.43
387.78	226.42
388.15	226.38
388.53	226.34
388.91	226.31
389.29	226.27
389.66	226.29
390.04	226.25
390.42	226.27
390.79	226.29
391.17	226.30
391.55	226.14
391.92	226.16
392.30	226.18
392.68	226.14
393.05	226.13
393.43	226.17
393.81	226.22
394.18	226.22
394.56	226.26
394.94	226.36
395.31	226.40
395.69	226.46
396.06	226.50
396.44	226.54
396.82	226.57
397.19	226.69
397.57	226.71
397.95	226.80
398.32	226.78
398.70	226.84
399.07	226.92
399.45	226.98
399.82	227.00
400.20	227.04
400.58	227.13
400.95	227.18
401.33	227.29
401.70	227.45
402.08	227.52
402.45	227.62
402.83	227.74
403.20	227.84
403.58	227.94
403.95	228.10
404.33	228.25
404.71	228.40
405.08	228.55
405.46	228.70
405.83	228.83
406.21	229.01
406.58	229.19
406.96	229.34
407.33	229.57
407.70	229.81
408.08	230.12
408.45	230.35
408.83	230.61
409.20	230.80
409.58	230.99
409.95	231.30
410.33	231.56
410.70	231.80
411.08	232.09
411.45	232.39
411.82	232.67
412.20	233.03
412.57	233.45
412.95	233.77
413.32	234.19
413.69	234.60
414.07	235.08
414.44	235.54
414.82	236.00
415.19	236.53
415.56	237.03
415.94	237.57
416.31	238.22
416.68	238.79
417.06	239.53
417.43	240.20
417.81	240.95
418.18	241.71
418.55	242.55
418.93	243.42
419.30	244.33
419.67	245.26
420.04	246.21
420.42	247.20
420.79	248.39
421.16	249.52
421.54	250.71
421.91	251.88
422.28	253.11
422.66	254.46
423.03	255.75
423.40	257.10
423.77	258.51
424.15	259.93
424.52	261.42
424.89	262.98
425.26	264.54
425.64	265.97
426.01	267.59
426.38	269.25
426.75	270.92
427.13	272.66
427.50	274.51
427.87	276.37
428.24	278.23
428.61	279.95
428.99	281.91
429.36	284.01
429.73	286.11
430.10	288.18
430.47	290.24
430.85	292.37
431.22	294.63
431.59	296.96
431.96	299.21
432.33	301.70
432.70	304.12
433.08	306.91
433.45	309.57
433.82	312.19
434.19	315.06
434.56	317.82
434.93	320.49
435.30	323.07
435.68	326.03
436.05	328.88
436.42	331.67
436.79	334.22
437.16	336.93
437.53	339.78
437.90	342.57
438.27	345.33
438.64	348.18
439.01	350.78
439.38	353.13
439.75	355.25
440.13	357.79
440.50	360.14
440.87	362.04
441.24	363.97
441.61	366.14
441.98	367.72
442.35	369.59
442.72	371.44
443.09	373.31
443.46	374.25
443.83	374.86
444.20	375.37
444.57	376.21
444.94	376.50
445.31	376.81
445.68	377.16
446.05	377.26
446.42	376.88
446.79	376.48
447.16	375.99
447.53	375.67
447.90	374.52
448.27	373.36
448.64	371.76
449.01	370.61
449.37	368.61
449.74	366.59
450.11	364.32
450.48	361.83
450.85	359.27
451.22	357.15
451.59	355.08
451.96	353.17
452.33	350.54
452.70	348.17
453.07	345.38
453.43	342.50
453.80	339.72
454.17	337.01
454.54	334.44
454.91	331.68
455.28	329.03
455.65	326.53
456.02	324.09
456.38	321.92
456.75	319.29
457.12	317.01
457.49	314.80
457.86	312.63
458.23	310.78
458.59	308.76
458.96	306.65
459.33	304.79
459.70	302.86
460.07	301.34
460.43	299.65
460.80	298.01
461.17	296.58
461.54	295.07
461.91	293.61
462.27	292.15
462.64	290.93
463.01	289.54
463.38	288.23
463.74	286.82
464.11	285.64
464.48	284.59
464.85	283.52
465.21	282.68
465.58	281.77
465.95	280.66
466.32	279.70
466.68	278.78
467.05	277.90
467.42	277.05
467.78	276.10
468.15	275.17
468.52	274.46
468.88	273.57
469.25	272.78
469.62	272.17
469.98	271.49
470.35	270.80
470.72	270.24
471.08	269.56
471.45	269.01
471.82	268.46
472.18	267.84
472.55	267.38
472.92	266.83
473.28	266.32
473.65	265.85
474.02	265.41
474.38	265.04
474.75	264.70
475.11	264.34
475.48	264.06
475.85	263.83
476.21	263.63
476.58	263.42
476.94	263.25
477.31	263.06
477.67	262.88
478.04	262.79
478.41	262.67
478.77	262.69
479.14	262.62
479.50	262.63
479.87	262.71
480.23	262.76
480.60	262.85
480.96	262.95
481.33	263.18
481.69	263.37
482.06	263.53
482.42	263.71
482.79	263.98
483.15	264.31
483.52	264.71
483.88	265.06
484.25	265.49
484.61	265.93
484.98	266.40
485.34	266.98
485.71	267.59
486.07	268.22
486.44	268.83
486.80	269.54
487.17	270.28
487.53	271.11
487.90	271.97
488.26	272.90
488.62	273.90
488.99	274.88
489.35	275.92
489.72	277.09
490.08	278.33
490.44	279.59
490.81	280.95
491.17	282.31
491.54	283.77
491.90	285.29
492.26	286.93
492.63	288.71
492.99	290.49
493.36	292.36
493.72	294.41
494.08	296.51
494.45	298.75
494.81	301.16
495.17	303.58
495.54	306.18
495.90	308.87
496.26	311.70
496.63	314.69
496.99	317.81
497.35	321.10
497.72	324.46
498.08	327.97
498.44	331.63
498.80	335.53
499.17	339.57
499.53	343.72
499.89	348.08
500.26	352.55
500.62	357.24
500.98	362.24
501.34	367.28
501.71	372.61
502.07	378.04
502.43	383.65
502.79	389.45
503.16	395.50
503.52	401.76
503.88	408.16
504.24	414.81
504.60	421.69
504.97	428.79
505.33	436.11
505.69	443.78
506.05	451.54
506.41	459.39
506.78	467.55
507.14	476.00
507.50	484.69
507.86	493.71
508.22	502.88
508.59	512.07
508.95	521.67
509.31	531.46
509.67	541.60
510.03	551.84
510.39	562.43
510.75	573.20
511.12	584.12
511.48	595.39
511.84	606.80
512.20	618.33
512.56	630.24
512.92	642.47
513.28	654.80
513.64	667.30
514.00	680.08
514.37	692.99
514.73	706.00
515.09	719.15
515.45	732.42
515.81	746.01
516.17	760.01
516.53	774.15
516.89	788.30
517.25	802.53
517.61	817.01
517.97	831.52
518.33	846.04
518.69	860.81
519.05	875.79
519.41	890.95
519.77	906.52
520.13	922.02
520.49	937.41
520.85	952.78
521.21	968.48
521.57	984.70
521.93	1000.51
522.29	1017.06
522.65	1033.27
523.01	1049.63
523.37	1065.64
523.73	1081.88
524.09	1097.99
524.45	1114.36
524.81	1131.01
525.17	1147.83
525.53	1164.68
525.89	1181.58
526.25	1198.47
526.61	1215.02
526.97	1231.80
527.33	1248.30
527.68	1264.94
528.04	1281.48
528.40	1298.34
528.76	1315.53
529.12	1332.19
529.48	1349.14
529.84	1365.18
530.20	1381.81
530.56	1398.80
530.91	1416.36
531.27	1433.16
531.63	1449.79
531.99	1466.50
532.35	1482.45
532.71	1498.42
533.07	1514.81
533.42	1530.77
533.78	1546.93
534.14	1563.15
534.50	1578.57
534.86	1594.52
535.21	1609.68
535.57	1625.74
535.93	1641.22
536.29	1656.04
536.65	1671.26
537.00	1686.18
537.36	1701.61
537.72	1716.25
538.08	1730.84
538.44	1744.73
538.79	1758.67
539.15	1772.47
539.51	1786.35
539.87	1801.00
540.22	1814.91
540.58	1828.72
540.94	1842.19
541.29	1855.18
541.65	1868.08
542.01	1881.47
542.37	1893.90
542.72	1906.55
543.08	1918.20
543.44	1930.67
543.79	1942.01
544.15	1952.98
544.51	1964.58
544.87	1975.53
545.22	1986.49
545.58	1996.74
545.94	2006.57
546.29	2016.45
546.65	2026.13
547.01	2035.28
547.36	2043.98
547.72	2052.33
548.07	2060.30
548.43	2068.48
548.79	2076.47
549.14	2083.99
549.50	2091.47
549.86	2099.33
550.21	2106.61
550.57	2113.94
550.92	2120.48
551.28	2127.55
551.64	2134.64
551.99	2141.22
552.35	2147.44
552.70	2153.40
553.06	2159.29
553.41	2165.65
553.77	2171.84
554.13	2178.00
554.48	2184.20
554.84	2189.46
555.19	2194.82
555.55	2199.82
555.90	2204.27
556.26	2209.16
556.61	2213.83
556.97	2217.77
557.32	2221.65
557.68	2225.85
558.03	2230.14
558.39	2233.84
558.74	2238.35
559.10	2242.15
559.45	2245.70
559.81	2249.94
560.16	2253.86
560.52	2257.05
560.87	2260.37
561.23	2262.91
561.58	2265.80
561.94	2268.30
562.29	2270.77
562.64	2273.45
563.00	2276.15
563.35	2279.68
563.71	2282.87
564.06	2286.00
564.42	2288.98
564.77	2291.47
565.12	2293.65
565.48	2295.59
565.83	2297.51
566.19	2298.75
566.54	2299.71
566.89	2300.81
567.25	2301.29
567.60	2302.58
567.96	2304.25
568.31	2304.95
568.66	2305.86
569.02	2306.38
569.37	2306.64
569.72	2307.35
570.08	2307.32
570.43	2307.18
570.78	2306.30
571.14	2304.54
571.49	2303.18
571.84	2302.88
572.20	2301.65
572.55	2300.49
572.90	2298.68
573.26	2297.13
573.61	2295.34
573.96	2293.41
574.31	2290.25
574.67	2287.17
575.02	2283.53
575.37	2279.97
575.72	2276.09
576.08	2272.72
576.43	2269.35
576.78	2265.57
577.13	2262.37
577.49	2259.21
577.84	2255.64
578.19	2251.88
578.54	2248.25
578.90	2243.83
579.25	2238.06
579.60	2233.03
579.95	2227.98
580.30	2222.95
580.66	2217.68
581.01	2212.73
581.36	2207.64
581.71	2203.43
582.06	2198.92
582.42	2194.33
582.77	2189.08
583.12	2184.48
583.47	2179.66
583.82	2174.53
584.17	2169.15
584.53	2163.54
584.88	2157.87
585.23	2152.08
585.58	2146.58
585.93	2140.95
586.28	2136.20
586.63	2131.04
586.98	2125.90
587.34	2121.23
587.69	2116.26
588.04	2111.03
588.39	2105.26
588.74	2098.94
589.09	2092.72
589.44	2085.87
589.79	2079.79
590.14	2074.04
590.49	2067.46
590.84	2061.05
591.19	2054.93
591.54	2048.50
591.89	2041.05
592.25	2034.25
592.60	2026.96
592.95	2019.39
593.30	2012.02
593.65	2004.37
594.00	1997.32
594.35	1990.06
594.70	1981.80
595.05	1974.37
595.40	1966.94
595.75	1959.38
596.10	1952.97
596.45	1946.10
596.80	1939.82
597.15	1933.01
597.50	1925.94
597.85	1919.55
598.19	1912.79
598.54	1905.82
598.89	1899.01
599.24	1893.04
599.59	1886.14
599.94	1879.89
600.29	1873.50
600.64	1866.97
600.99	1859.51
601.34	1852.56
601.69	1845.42
602.04	1838.38
602.39	1831.14
602.74	1824.38
603.08	1817.63
603.43	1810.77
603.78	1803.47
604.13	1796.43
604.48	1789.11
604.83	1782.10
605.18	1774.87
605.53	1766.84
605.87	1758.56
606.22	1751.44
606.57	1743.48
606.92	1736.18
607.27	1728.91
607.62	1721.85
607.96	1714.48
608.31	1707.74
608.66	1700.10
609.01	1692.67
609.36	1685.26
609.70	1677.28
610.05	1669.00
610.40	1661.29
610.75	1653.08
611.10	1645.45
611.44	1636.92
611.79	1628.92
612.14	1620.29
612.49	1611.15
612.83	1602.90
613.18	1594.88
613.53	1586.79
613.88	1578.23
614.22	1569.88
614.57	1561.29
614.92	1553.29
615.27	1545.61
615.61	1537.27
615.96	1529.28
616.31	1521.51
616.65	1514.11
617.00	1506.46
617.35	1498.84
617.70	1490.43
618.04	1481.87
618.39	1473.67
618.74	1466.00
619.08	1457.72
619.43	1450.18
619.78	1443.24
620.12	1436.01
620.47	1428.40
620.82	1420.16
621.16	1412.77
621.51	1405.29
621.85	1397.65
622.20	1389.09
622.55	1380.78
622.89	1372.97
623.24	1365.46
623.59	1358.06
623.93	1350.48
624.28	1343.30
624.62	1335.81
624.97	1328.74
625.32	1321.97
625.66	1314.94
626.01	1307.71
626.35	1300.17
626.70	1292.43
627.04	1284.81
627.39	1276.95
627.73	1269.59
628.08	1262.73
628.43	1255.46
628.77	1248.03
629.12	1240.52
629.46	1233.44
629.81	1226.07
630.15	1218.80
630.50	1211.35
630.84	1203.38
631.19	1195.49
631.53	1187.93
631.88	1180.39
632.22	1172.70
632.57	1165.44
632.91	1157.88
633.26	1150.57
633.60	1143.26
633.95	1136.20
634.29	1129.20
634.64	1122.60
634.98	1115.28
635.32	1108.15
635.67	1101.58
636.01	1095.00
636.36	1088.26
636.70	1081.79
637.05	1075.26
637.39	1068.82
637.73	1062.38
638.08	1056.41
638.42	1050.43
638.77	1044.00
639.11	1037.30
639.45	1031.03
639.80	1024.35
640.14	1017.85
640.49	1011.32
640.83	1005.09
641.17	998.84
641.52	992.49
641.86	986.16
642.20	980.43
642.55	974.21
642.89	967.68
643.23	961.14
643.58	955.34
643.92	949.05
644.26	942.93
644.61	936.92
644.95	930.77
645.29	924.14
645.64	917.44
645.98	911.08
646.32	905.39
646.66	899.33
647.01	893.59
647.35	888.05
647.69	882.28
648.04	876.76
648.38	870.97
648.72	864.94
649.06	858.79
649.41	852.83
649.75	846.71
650.09	840.79
650.43	835.01
650.78	828.89
651.12	822.95
651.46	817.25
651.80	811.55
652.14	806.17
652.49	800.83
652.83	795.60
653.17	789.97
653.51	784.15
653.85	778.69
654.20	773.03
654.54	766.96
654.88	761.20
655.22	755.35
655.56	749.63
655.90	744.19
656.25	738.92
656.59	733.53
656.93	728.46
657.27	723.33
657.61	717.87
657.95	712.75
658.29	707.71
658.64	702.47
658.98	697.21
659.32	691.73
659.66	686.54
660.00	681.28
660.34	676.37
660.68	671.56
661.02	666.57
661.36	661.90
661.70	657.36
662.05	653.09
662.39	648.71
662.73	644.34
663.07	639.96
663.41	635.51
663.75	631.05
664.09	626.56
664.43	622.15
664.77	617.99
665.11	613.70
665.45	609.56
665.79	605.48
666.13	601.31
666.47	597.26
666.81	593.04
667.15	588.96
667.49	585.09
667.83	581.30
668.17	577.37
668.51	573.27
668.85	569.29
669.19	565.34
669.53	561.54
669.87	557.66
670.21	553.94
670.55	550.36
670.89	546.89
671.23	543.41
671.57	539.93
671.91	536.43
672.25	533.03
672.58	529.57
672.92	526.22
673.26	523.10
673.60	520.05
673.94	516.99
674.28	514.01
674.62	511.07
674.96	507.92
675.30	505.04
675.64	502.17
675.97	499.49
676.31	496.68
676.65	493.78
676.99	491.09
677.33	488.30
677.67	485.52
678.01	482.50
678.34	479.55
678.68	476.73
679.02	473.93
679.36	471.12
679.70	468.41
680.04	465.64
680.37	462.77
680.71	459.94
681.05	457.37
681.39	454.76
681.73	452.11
682.06	449.67
682.40	447.18
682.74	444.68
683.08	442.10
683.42	439.47
683.75	436.97
684.09	434.46
684.43	432.05
684.77	429.57
685.10	427.28
685.44	425.05
685.78	422.79
686.12	420.60
686.45	418.37
686.79	416.10
687.13	413.93
687.46	411.76
687.80	409.67
688.14	407.45
688.48	405.36
688.81	403.06
689.15	400.85
689.49	398.68
689.82	396.58
690.16	394.50
690.50	392.56
690.83	390.57
691.17	388.56
691.51	386.62
691.84	384.78
692.18	382.86
692.52	380.80
692.85	378.88
693.19	377.00
693.52	375.15
693.86	373.36
694.20	371.59
694.53	369.79
694.87	367.90
695.21	366.16
695.54	364.36
695.88	362.65
696.21	360.98
696.55	359.29
696.88	357.59
697.22	355.98
697.56	354.34
697.89	352.70
698.23	351.10
698.56	349.47
698.90	347.83
699.23	346.14
699.57	344.63
699.90	343.09
700.24	341.47
700.58	339.95
700.91	338.46
701.25	336.97
701.58	335.60
701.92	334.24
702.25	332.82
702.59	331.41
702.92	330.12
703.26	328.79
703.59	327.49
703.93	326.33
704.26	325.05
704.60	323.80
704.93	322.54
705.26	321.26
705.60	320.08
705.93	318.95
706.27	317.98
706.60	316.90
706.94	315.79
707.27	314.66
707.61	313.59
707.94	312.53
708.27	311.45
708.61	310.40
708.94	309.40
709.28	308.49
709.61	307.58
709.94	306.60
710.28	305.60
710.61	304.64
710.95	303.58
711.28	302.69
711.61	301.69
711.95	300.79
712.28	299.88
712.61	298.94
712.95	298.00
713.28	297.07
713.61	296.21
713.95	295.34
714.28	294.55
714.61	293.71
714.95	292.91
715.28	292.08
715.61	291.17
715.95	290.34
716.28	289.47
716.61	288.65
716.95	287.86
717.28	287.12
717.61	286.34
717.94	285.61
718.28	284.80
718.61	284.13
718.94	283.46
719.27	282.79
719.61	282.13
719.94	281.49
720.27	280.81
720.60	280.11
720.94	279.47
721.27	278.87
721.60	278.35
721.93	277.72
722.27	277.17
722.60	276.65
722.93	276.07
723.26	275.52
723.59	274.93
723.93	274.39
724.26	273.84
724.59	273.32
724.92	272.81
725.25	272.31
725.59	271.76
725.92	271.24
726.25	270.74
726.58	270.26
726.91	269.76
727.24	269.26
727.57	268.84
727.91	268.34
728.24	267.89
728.57	267.34
728.90	266.89
729.23	266.44
729.56	266.01
729.89	265.59
730.22	265.11
730.55	264.66
730.89	264.21
731.22	263.74
731.55	263.33
731.88	262.85
732.21	262.46
732.54	262.07
732.87	261.67
733.20	261.28
733.53	260.90
733.86	260.54
734.19	260.14
734.52	259.74
734.85	259.44
735.18	259.01
735.51	258.63
735.84	258.24
736.17	257.87
736.50	257.47
736.83	257.23
737.16	256.87
737.49	256.55
737.82	256.16
738.15	255.85
738.48	255.50
738.81	255.23
739.14	254.85
739.47	254.50
739.80	254.15
740.13	253.81
740.46	253.46
740.79	253.13
741.12	252.85
741.45	252.53
741.78	252.15
742.11	251.85
742.44	251.56
742.77	251.30
743.10	250.99
743.43	250.66
743.75	250.23
744.08	250.07
744.41	249.79
744.74	249.54
745.07	249.25
745.40	249.01
745.73	248.74
746.06	248.48
746.39	248.22
746.71	247.98
747.04	247.70
747.37	247.41
747.70	247.16
748.03	246.87
748.36	246.61
748.68	246.37
749.01	246.12
749.34	245.87
749.67	245.60
750.00	245.37
750.33	245.23
750.65	245.06
750.98	244.72
751.31	244.50
751.64	244.32
751.97	244.13
752.29	243.89
752.62	243.63
752.95	243.42
753.28	243.20
753.60	242.97
753.93	242.84
754.26	242.67
754.59	242.47
754.91	242.29
755.24	242.09
755.57	241.90
755.90	241.69
756.22	241.52
756.55	241.30
756.88	241.11
757.20	240.87
757.53	240.63
757.86	240.45
758.19	240.27
758.51	240.05
758.84	239.85
759.17	239.68
759.49	239.52
759.82	239.39
760.15	239.27
760.47	239.12
760.80	238.93
761.13	238.78
761.45	238.62
761.78	238.46
762.11	238.33
762.43	238.19
762.76	238.07
763.08	237.94
763.41	237.86
763.74	237.71
764.06	237.58
764.39	237.48
764.71	237.33
765.04	237.25
765.37	237.14
765.69	237.03
766.02	236.89
766.34	236.79
766.67	236.67
767.00	236.55
767.32	236.50
767.65	236.45
767.97	236.34
768.30	236.24
768.62	236.15
768.95	236.08
769.27	235.96
769.60	235.89
769.92	235.78
770.25	235.68
770.57	235.55
770.90	235.51
771.22	235.42
771.55	235.36
771.87	235.26
772.20	235.16
772.52	235.19
772.85	235.24
773.17	235.16
773.50	235.06
773.82	234.96
774.15	234.90
774.47	234.78
774.80	234.69
775.12	234.61
775.45	234.54
775.77	234.47
776.09	234.40
776.42	234.32
776.74	234.27
777.07	234.18
777.39	234.13
777.72	234.02
778.04	233.95
778.36	233.90
778.69	233.83
779.01	233.82
779.33	233.67
779.66	233.48
779.98	233.42
780.31	233.36
780.63	233.33
780.95	233.24
781.28	233.17
781.60	233.11
781.92	233.07
782.25	233.00
782.57	232.97
782.89	232.93
783.22	232.87
783.54	232.80
783.86	232.74
784.19	232.71
784.51	232.67
784.83	232.61
785.16	232.51
785.48	232.46
785.80	232.36
786.12	232.29
786.45	232.25
786.77	232.20
787.09	232.16
787.42	232.07
787.74	232.01
788.06	231.96
788.38	231.90
788.71	231.85
789.03	231.79
789.35	231.72
789.67	231.64
789.99	231.57
790.32	231.50
790.64	231.47
790.96	231.47
791.28	231.40
791.61	231.35
791.93	231.30
792.25	231.25
792.57	231.30
792.89	231.21
793.21	231.17
793.54	231.12
793.86	231.06
794.18	231.04
794.50	230.97
794.82	230.90
795.14	230.85
795.47	230.79
795.79	230.75
796.11	230.68
796.43	230.63
796.75	230.62
797.07	230.56
797.39	230.50
797.71	230.40
798.04	230.35
798.36	230.25
798.68	230.20
799.00	230.15
799.32	230.05
799.64	230.04
799.96	229.97
800.28	229.93
800.60	229.90
800.92	229.86
801.24	229.80
801.56	229.79
801.89	229.75
802.21	229.71
802.53	229.63
802.85	229.63
803.17	229.65
803.49	229.59
803.81	229.57
804.13	229.54
804.45	229.52
804.77	229.53
805.09	229.54
805.41	229.50
805.73	229.46
806.05	229.41
806.37	229.38
806.69	229.37
807.01	229.34
807.33	229.29
807.65	229.25
807.97	229.32
808.28	229.28
808.60	229.27
808.92	229.25
809.24	229.32
809.56	229.26
809.88	229.22
810.20	229.23
810.52	229.25
810.84	229.23
811.16	229.21
811.48	229.19
811.80	229.23
812.12	229.27
812.43	229.28
812.75	229.30
813.07	229.32
813.39	229.33
813.71	229.33
814.03	229.35
814.35	229.33
814.67	229.25
814.98	229.24
815.30	229.26
815.62	229.28
815.94	229.22
816.26	229.29
816.58	229.26
816.89	229.28
817.21	229.25
817.53	229.24
817.85	229.21
818.17	229.18
818.48	229.12
818.80	229.13
819.12	229.11
819.44	229.07
819.76	229.03
820.07	229.00
820.39	228.98
820.71	228.99
821.03	228.98
821.34	228.96
821.66	228.97
821.98	228.94
822.30	228.86
822.61	228.91
822.93	228.85
823.25	228.83
823.57	228.77
823.88	228.75
824.20	228.75
824.52	228.73
824.83	228.70
825.15	228.67
825.47	228.62
825.79	228.64
826.10	228.63
826.42	228.62
826.74	228.61
827.05	228.57
827.37	228.54
827.69	228.53
828.00	228.54
828.32	228.52
828.64	228.49
828.95	228.55
829.27	228.47
829.58	228.42
829.90	228.41
830.22	228.42
830.53	228.37
830.85	228.33
831.17	228.31
831.48	228.31
831.80	228.31
832.11	228.29
832.43	228.24
832.75	228.21
833.06	228.23
833.38	228.18
833.69	228.14
834.01	228.11
834.32	228.06
834.64	228.01
834.96	227.98
835.27	227.98
835.59	227.94
835.90	227.93
836.22	227.93
836.53	227.89
836.85	227.84
837.16	227.94
837.48	227.94
837.79	227.98
838.11	227.92
838.42	227.90
838.74	227.88
839.05	227.83
839.37	227.82
839.68	227.74
840.00	227.73
840.31	227.76
840.63	227.74
840.94	227.73
841.26	227.71
841.57	227.69
841.88	227.69
842.20	227.65
842.51	227.60
842.83	227.54
843.14	227.66
843.46	227.65
843.77	227.56
844.08	227.54
844.40	227.46
844.71	227.47
845.03	227.44
845.34	227.44
845.65	227.44
845.97	227.42
846.28	227.43
846.60	227.42
846.91	227.37
847.22	227.38
847.54	227.41
847.85	227.43
848.16	227.44
848.48	227.40
848.79	227.44
849.10	227.45
849.42	227.50
849.73	227.38
850.04	227.38
850.36	227.36
850.67	227.36
850.98	227.39
851.30	227.40
851.61	227.42
851.92	227.42
852.23	227.44
852.55	227.46
852.86	227.47
853.17	227.48
853.49	227.54
853.80	227.55
854.11	227.56
854.42	227.58
854.74	227.57
855.05	227.60
855.36	227.60
855.67	227.62
855.99	227.61
856.30	227.75
856.61	227.77
856.92	227.80
857.23	227.80
857.55	227.81
857.86	227.81
858.17	227.81
858.48	227.79
858.79	227.81
859.11	227.79
859.42	227.78
859.73	227.80
860.04	227.79
860.35	227.78
860.66	227.75
860.98	227.73
861.29	227.73
861.60	227.72
861.91	227.71
862.22	227.72
862.53	227.72
862.84	227.58
863.16	227.61
863.47	227.59
863.78	227.60
864.09	227.58
864.40	227.62
864.71	227.62
865.02	227.66
865.33	227.65
865.64	227.67
865.95	227.67
866.27	227.71
866.58	227.67
866.89	227.65
867.20	227.64
867.51	227.62
867.82	227.64
868.13	227.68
868.44	227.64
868.75	227.66
869.06	227.67
869.37	227.71
869.68	227.68
869.99	227.72
870.30	227.69
870.61	227.70
870.92	227.63
871.23	227.63
871.54	227.60
871.85	227.60
872.16	227.60
872.47	227.58
872.78	227.51
873.09	227.52
873.40	227.52
873.71	227.52
874.02	227.51
874.33	227.47
874.64	227.42
874.95	227.40
875.26	227.33
875.56	227.29
875.87	227.27
876.18	227.24
876.49	227.27
876.80	227.26
877.11	227.23
877.42	227.23
877.73	227.21
878.04	227.20
878.35	227.20
878.66	227.18
878.96	227.16
879.27	227.18
879.58	227.18
879.89	227.16
880.20	227.15
880.51	227.15
880.82	227.16
881.12	227.16
881.43	227.15
881.74	227.17
882.05	227.15
882.36	227.14
882.67	227.15
882.97	227.05
883.28	227.04
883.59	227.02
883.90	227.04
884.21	227.05
884.51	227.05
884.82	227.02
885.13	227.00
885.44	226.98
885.74	226.95
886.05	226.94
886.36	226.91
886.67	226.90
886.98	226.95
887.28	226.96
887.59	226.99
887.90	227.01
888.20	226.99
888.51	227.02
888.82	227.03
889.13	227.03
889.43	227.11
889.74	227.11
890.05	227.13
890.35	227.14
890.66	227.13
890.97	227.15
891.28	227.15
891.58	227.17
891.89	227.24
892.20	227.24
892.50	227.25
892.81	227.27
893.12	227.31
893.42	227.27
893.73	227.26
894.04	227.28
894.34	227.32
894.65	227.35
894.95	227.35
895.26	227.35
895.57	227.40
895.87	227.35
896.18	227.40
896.48	227.44
896.79	227.44
897.10	227.45
897.40	227.46
897.71	227.50
898.01	227.53
898.32	227.53
898.63	227.56
898.93	227.58
899.24	227.60
899.54	227.57
899.85	227.58
900.15	227.59
900.46	227.55
900.76	227.55
901.07	227.56
901.38	227.57
901.68	227.60
901.99	227.55
902.29	227.56
902.60	227.54
902.90	227.49
903.21	227.51
903.51	227.51
903.82	227.54
904.12	227.52
904.43	227.50
904.73	227.51
905.03	227.50
905.34	227.56
905.64	227.58
905.95	227.59
906.25	227.61
906.56	227.59
906.86	227.63
907.17	227.61
907.47	227.61
907.77	227.60
908.08	227.55
908.38	227.54
908.69	227.53
908.99	227.54
909.30	227.58
909.60	227.53
909.90	227.53
910.21	227.48
910.51	227.48
910.81	227.49
911.12	227.48
911.42	227.46
911.73	227.36
912.03	227.34
912.33	227.34
912.64	227.30
912.94	227.29
913.24	227.24
913.55	227.24
913.85	227.23
914.15	227.23
914.46	227.22
914.76	227.20
915.06	227.18
915.37	227.14
915.67	227.09
915.97	227.09
916.27	227.05
916.58	227.08
916.88	227.06
917.18	227.02
917.49	227.05
917.79	227.04
918.09	227.02
918.39	227.03
918.70	227.01
919.00	227.01
919.30	227.03
919.60	227.02
919.91	226.97
920.21	226.94
920.51	226.92
920.81	226.91
921.12	226.91
921.42	226.91
921.72	226.92
922.02	226.95
922.32	226.95
922.63	226.95
922.93	226.98
923.23	226.97
923.53	226.98
923.83	226.91
924.13	226.91
924.44	226.95
924.74	226.94
925.04	226.96
925.34	226.97
925.64	226.92
925.94	226.94
926.24	227.04
926.55	227.03
926.85	227.04
927.15	227.06
927.45	227.12
927.75	227.09
928.05	227.08
928.35	227.06
928.65	227.09
928.95	227.10
929.26	227.07
929.56	227.08
929.86	227.07
930.16	227.08
930.46	227.12
930.76	227.13
931.06	227.10
931.36	227.09
931.66	227.13
931.96	227.15
932.26	227.17
932.56	227.09
932.86	227.14
933.16	227.14
933.46	227.15
933.76	227.13
934.06	227.19
934.36	227.25
934.66	227.29
934.96	227.28
935.26	227.31
935.56	227.36
935.86	227.35
936.16	227.34
936.46	227.33
936.76	227.34
937.06	227.35
937.36	227.36
937.66	227.37
937.96	227.30
938.26	227.30
938.56	227.30
938.86	227.32
939.16	227.31
939.46	227.34
939.76	227.33
940.06	227.26
940.35	227.25
940.65	227.21
940.95	227.20
941.25	227.17
941.55	227.17
941.85	227.12
942.15	227.17
942.45	227.21
942.75	227.22
943.04	227.21
943.34	227.20
943.64	227.18
943.94	227.16
944.24	227.19
944.54	227.19
944.84	227.17
945.13	227.19
945.43	227.18
945.73	227.15
946.03	227.14
946.33	227.20
946.62	227.18
946.92	227.16
947.22	227.16
947.52	227.19
947.82	227.18
948.11	227.20
948.41	227.15
948.71	227.10
949.01	227.12
949.31	227.12
949.60	227.10
949.90	227.12
950.20	227.12
950.50	227.12
950.79	227.10
951.09	227.10
951.39	227.08
951.69	227.05
951.98	227.08
952.28	227.06
952.58	227.01
952.87	226.98
953.17	226.96
953.47	226.92
953.76	226.90
954.06	226.87
954.36	226.81
954.66	226.81
954.95	226.83
955.25	226.79
955.55	226.77
955.84	226.74
956.14	226.73
956.44	226.71
956.73	226.69
957.03	226.69
957.32	226.67
957.62	226.62
957.92	226.65
958.21	226.61
958.51	226.71
958.81	226.71
959.10	226.71
959.40	226.74
959.69	226.75
959.99	226.74
960.29	226.74
960.58	226.73
960.88	226.76
961.17	226.71
961.47	226.72
961.76	226.73
962.06	226.75
962.36	226.72
962.65	226.71
962.95	226.74
963.24	226.72
963.54	226.73
963.83	226.76
964.13	226.73
964.42	226.68
964.72	226.61
965.01	226.62
965.31	226.64
965.60	226.62
965.90	226.68
966.19	226.67
966.49	226.68
966.78	226.69
967.08	226.68
967.37	226.71
967.67	226.69
967.96	226.69
968.26	226.71
968.55	226.75
968.85	226.77
969.14	226.74
969.43	226.77
969.73	226.77
970.02	226.79
970.32	226.79
970.61	226.83
970.91	226.81
971.20	226.81
971.49	226.82
971.79	226.83
972.08	226.81
972.38	226.83
972.67	226.85
972.96	226.86
973.26	226.87
973.55	226.92
973.85	226.94
974.14	226.95
974.43	226.94
974.73	226.95
975.02	226.98
975.31	227.01
975.61	227.01
975.90	227.02
976.19	227.00
976.49	227.00
976.78	227.01
977.07	227.05
977.37	227.07
977.66	227.05
977.95	227.05
978.24	227.04
978.54	227.06
978.83	227.05
979.12	227.07
979.42	227.03
979.71	226.99
980.00	226.99
980.29	227.01
980.59	226.98
980.88	227.00
981.17	226.98
981.46	226.97
981.76	226.96
982.05	226.97
982.34	227.00
982.63	227.02
982.93	227.04
983.22	227.03
983.51	227.05
983.80	227.08
984.09	227.09
984.39	227.08
984.68	227.06
984.97	227.08
985.26	227.04
985.55	227.06
985.85	227.04
986.14	227.04
986.43	227.03
986.72	227.03
987.01	226.99
987.30	226.97
987.59	226.95
987.89	226.98
988.18	226.93
988.47	226.89
988.76	226.87
989.05	226.86
989.34	226.84
989.63	226.82
989.92	226.81
990.22	226.78
990.51	226.75
990.80	226.74
991.09	226.77
991.38	226.78
991.67	226.77
991.96	226.76
992.25	226.75
992.54	226.75
992.83	226.74
993.12	226.76
993.41	226.77
993.70	226.81
993.99	226.84
994.28	226.87
994.58	226.90
994.87	226.88
995.16	226.87
995.45	226.86
995.74	226.86
996.03	226.86
996.32	226.89
996.61	226.90
996.90	226.90
997.19	226.86
997.48	226.85
997.77	226.83
998.06	226.85
998.34	226.85
998.63	226.82
998.92	226.85
999.21	226.83
999.50	226.86
999.79	226.83
1000.08	226.79
1000.37	226.77
1000.66	226.76
1000.95	226.78
1001.24	226.82
1001.53	226.80
1001.82	226.82
1002.11	226.83
1002.40	226.84
1002.68	226.88
1002.97	226.95
1003.26	226.94
1003.55	226.93
1003.84	226.95
1004.13	226.97
1004.42	226.99
1004.71	227.03
1004.99	227.03
1005.28	227.07
1005.57	227.05
1005.86	227.04
1006.15	227.05
1006.44	227.08
1006.72	227.11
1007.01	227.14
1007.30	227.11
1007.59	227.13
1007.88	227.13
1008.17	227.14
1008.45	227.15
1008.74	227.11
1009.03	227.06
1009.32	227.06
1009.60	227.09
1009.89	227.07
1010.18	227.03
1010.47	227.00
1010.76	226.98
1011.04	226.98
1011.33	226.95
1011.62	226.96
1011.91	226.94
1012.19	226.94
1012.48	226.91
1012.77	226.88
1013.05	226.90
1013.34	226.89
1013.63	226.92
1013.92	226.93
1014.20	226.92
1014.49	226.89
1014.78	226.90
1015.06	226.86
1015.35	226.87
1015.64	226.87
1015.92	226.91
1016.21	226.95
1016.50	226.95
1016.78	226.97
1017.07	226.98
1017.36	226.95
1017.64	226.92
1017.93	226.97
1018.22	226.98
1018.50	226.98
1018.79	227.00
1019.08	226.95
1019.36	226.98
1019.65	226.95
1019.93	226.94
1020.22	226.93
1020.51	226.97
1020.79	226.97
1021.08	227.01
1021.36	226.77
1021.65	227.22
1021.94	227.08
1022.22	226.93
1022.51	226.98
1022.79	227.22
1023.08	226.93
1023.36	227.64
1023.65	226.75
>>>>>End Processed Spectral Data<<<<<
