SpectraSuite Data File
++++++++++++++++++++++++++++++++++++
Date: Fri Feb 01 15:00:58 EST 2013
User: group
Dark Spectrum Present: No
Reference Spectrum Present: No
Number of Sampled Component Spectra: 1
Spectrometers: USB2E7196
Integration Time (usec): 35000 (USB2E7196)
Spectra Averaged: 100 (USB2E7196)
Boxcar Smoothing: 10 (USB2E7196)
Correct for Electrical Dark: No (USB2E7196)
Strobe/Lamp Enabled: No (USB2E7196)
Correct for Detector Non-linearity: No (USB2E7196)
Correct for Stray Light: No (USB2E7196)
Number of Pixels in Processed Spectrum: 2048
>>>>>Begin Processed Spectral Data<<<<<
339.09	0.00
339.48	215.49
339.86	216.54
340.24	218.20
340.63	219.47
341.01	222.68
341.39	222.19
341.78	223.68
342.16	224.81
342.54	225.70
342.93	213.74
343.31	224.55
343.69	225.07
344.07	225.56
344.46	225.99
344.84	226.34
345.22	226.57
345.60	226.79
345.99	227.00
346.37	227.13
346.75	227.19
347.13	227.28
347.52	227.34
347.90	227.41
348.28	227.43
348.66	227.49
349.05	227.46
349.43	227.50
349.81	227.52
350.19	227.56
350.57	227.58
350.96	227.63
351.34	227.70
351.72	227.81
352.10	227.91
352.48	227.98
352.87	228.07
353.25	228.14
353.63	228.24
354.01	228.27
354.39	228.35
354.77	228.43
355.15	228.51
355.54	228.55
355.92	228.57
356.30	228.64
356.68	228.77
357.06	228.87
357.44	228.92
357.82	229.03
358.20	229.08
358.58	229.16
358.97	229.23
359.35	229.30
359.73	229.38
360.11	229.44
360.49	229.50
360.87	229.52
361.25	229.54
361.63	229.61
362.01	229.67
362.39	229.69
362.77	229.75
363.15	229.78
363.53	229.81
363.91	229.82
364.29	229.84
364.67	229.75
365.05	229.74
365.43	229.75
365.81	229.76
366.19	229.80
366.57	229.81
366.95	229.78
367.33	229.74
367.71	229.71
368.09	229.69
368.47	229.67
368.85	229.69
369.23	229.69
369.61	229.61
369.99	229.61
370.37	229.57
370.75	229.56
371.13	229.52
371.51	229.47
371.89	229.49
372.27	229.44
372.65	229.43
373.03	229.39
373.41	229.35
373.78	229.28
374.16	229.20
374.54	229.12
374.92	229.07
375.30	228.96
375.68	228.84
376.06	228.78
376.44	228.69
376.82	228.60
377.19	228.52
377.57	228.44
377.95	228.32
378.33	228.24
378.71	228.11
379.09	228.04
379.47	227.97
379.84	227.83
380.22	227.75
380.60	227.63
380.98	227.51
381.36	227.41
381.73	227.30
382.11	227.24
382.49	227.15
382.87	227.09
383.25	227.07
383.62	227.11
384.00	227.03
384.38	226.93
384.76	226.90
385.13	226.90
385.51	226.83
385.89	226.75
386.27	226.70
386.64	226.66
387.02	226.59
387.40	226.57
387.78	226.55
388.15	226.51
388.53	226.48
388.91	226.49
389.29	226.48
389.66	226.48
390.04	226.43
390.42	226.44
390.79	226.40
391.17	226.40
391.55	226.32
391.92	226.29
392.30	226.33
392.68	226.27
393.05	226.23
393.43	226.28
393.81	226.31
394.18	226.33
394.56	226.38
394.94	226.43
395.31	226.42
395.69	226.47
396.06	226.54
396.44	226.60
396.82	226.62
397.19	226.71
397.57	226.76
397.95	226.84
398.32	226.85
398.70	226.92
399.07	227.00
399.45	227.07
399.82	227.15
400.20	227.24
400.58	227.37
400.95	227.45
401.33	227.56
401.70	227.73
402.08	227.83
402.45	227.92
402.83	228.05
403.20	228.18
403.58	228.28
403.95	228.41
404.33	228.56
404.71	228.69
405.08	228.88
405.46	229.01
405.83	229.16
406.21	229.33
406.58	229.51
406.96	229.68
407.33	229.84
407.70	230.03
408.08	230.33
408.45	230.54
408.83	230.77
409.20	230.98
409.58	231.20
409.95	231.51
410.33	231.80
410.70	232.03
411.08	232.32
411.45	232.68
411.82	233.01
412.20	233.38
412.57	233.83
412.95	234.12
413.32	234.54
413.69	234.98
414.07	235.45
414.44	235.92
414.82	236.42
415.19	237.01
415.56	237.59
415.94	238.12
416.31	238.77
416.68	239.41
417.06	240.10
417.43	240.77
417.81	241.52
418.18	242.27
418.55	243.14
418.93	243.99
419.30	244.86
419.67	245.76
420.04	246.71
420.42	247.69
420.79	248.90
421.16	250.06
421.54	251.26
421.91	252.46
422.28	253.69
422.66	255.01
423.03	256.29
423.40	257.62
423.77	259.02
424.15	260.46
424.52	261.92
424.89	263.57
425.26	265.10
425.64	266.54
426.01	268.16
426.38	269.79
426.75	271.48
427.13	273.23
427.50	275.04
427.87	276.90
428.24	278.75
428.61	280.46
428.99	282.36
429.36	284.44
429.73	286.50
430.10	288.54
430.47	290.60
430.85	292.76
431.22	294.99
431.59	297.35
431.96	299.61
432.33	302.14
432.70	304.49
433.08	307.28
433.45	309.92
433.82	312.52
434.19	315.43
434.56	318.30
434.93	320.96
435.30	323.60
435.68	326.52
436.05	329.34
436.42	332.18
436.79	334.71
437.16	337.45
437.53	340.30
437.90	343.12
438.27	345.91
438.64	348.71
439.01	351.33
439.38	353.56
439.75	355.69
440.13	358.21
440.50	360.52
440.87	362.37
441.24	364.32
441.61	366.46
441.98	367.89
442.35	369.64
442.72	371.47
443.09	373.27
443.46	374.26
443.83	374.87
444.20	375.32
444.57	376.09
444.94	376.33
445.31	376.68
445.68	377.00
446.05	376.99
446.42	376.57
446.79	376.15
447.16	375.73
447.53	375.37
447.90	374.15
448.27	373.00
448.64	371.40
449.01	370.23
449.37	368.25
449.74	366.40
450.11	364.14
450.48	361.63
450.85	359.11
451.22	356.93
451.59	354.90
451.96	352.97
452.33	350.43
452.70	348.08
453.07	345.26
453.43	342.37
453.80	339.63
454.17	336.99
454.54	334.42
454.91	331.69
455.28	329.07
455.65	326.58
456.02	324.17
456.38	322.08
456.75	319.45
457.12	317.18
457.49	314.95
457.86	312.80
458.23	310.99
458.59	308.91
458.96	306.85
459.33	304.99
459.70	303.14
460.07	301.66
460.43	299.94
460.80	298.31
461.17	296.86
461.54	295.34
461.91	293.91
462.27	292.46
462.64	291.20
463.01	289.85
463.38	288.55
463.74	287.16
464.11	285.97
464.48	284.92
464.85	283.82
465.21	282.94
465.58	281.97
465.95	280.86
466.32	279.96
466.68	279.03
467.05	278.15
467.42	277.24
467.78	276.27
468.15	275.37
468.52	274.66
468.88	273.80
469.25	273.05
469.62	272.41
469.98	271.71
470.35	271.07
470.72	270.43
471.08	269.75
471.45	269.20
471.82	268.62
472.18	267.98
472.55	267.52
472.92	267.01
473.28	266.54
473.65	266.08
474.02	265.63
474.38	265.27
474.75	264.91
475.11	264.55
475.48	264.28
475.85	264.04
476.21	263.82
476.58	263.59
476.94	263.40
477.31	263.24
477.67	263.07
478.04	262.93
478.41	262.87
478.77	262.88
479.14	262.80
479.50	262.81
479.87	262.88
480.23	262.95
480.60	262.99
480.96	263.08
481.33	263.28
481.69	263.47
482.06	263.64
482.42	263.80
482.79	264.06
483.15	264.38
483.52	264.76
483.88	265.06
484.25	265.47
484.61	265.90
484.98	266.31
485.34	266.89
485.71	267.48
486.07	268.08
486.44	268.65
486.80	269.32
487.17	270.03
487.53	270.86
487.90	271.72
488.26	272.63
488.62	273.62
488.99	274.58
489.35	275.61
489.72	276.72
490.08	277.95
490.44	279.16
490.81	280.45
491.17	281.82
491.54	283.36
491.90	284.87
492.26	286.52
492.63	288.29
492.99	290.03
493.36	291.93
493.72	293.97
494.08	296.09
494.45	298.38
494.81	300.77
495.17	303.20
495.54	305.79
495.90	308.49
496.26	311.30
496.63	314.24
496.99	317.31
497.35	320.57
497.72	323.95
498.08	327.49
498.44	331.21
498.80	335.11
499.17	339.08
499.53	343.27
499.89	347.64
500.26	352.16
500.62	356.86
500.98	361.79
501.34	366.79
501.71	372.14
502.07	377.53
502.43	383.09
502.79	388.87
503.16	394.90
503.52	401.12
503.88	407.53
504.24	414.15
504.60	421.04
504.97	428.12
505.33	435.42
505.69	443.09
506.05	450.81
506.41	458.64
506.78	466.82
507.14	475.25
507.50	483.94
507.86	492.90
508.22	502.08
508.59	511.26
508.95	520.90
509.31	530.65
509.67	540.78
510.03	551.07
510.39	561.63
510.75	572.44
511.12	583.38
511.48	594.67
511.84	606.05
512.20	617.57
512.56	629.55
512.92	641.74
513.28	654.05
513.64	666.60
514.00	679.31
514.37	692.20
514.73	705.23
515.09	718.27
515.45	731.58
515.81	745.14
516.17	759.15
516.53	773.31
516.89	787.45
517.25	801.65
517.61	816.11
517.97	830.51
518.33	844.94
518.69	859.73
519.05	874.73
519.41	889.93
519.77	905.55
520.13	921.04
520.49	936.47
520.85	951.88
521.21	967.61
521.57	983.83
521.93	999.77
522.29	1016.22
522.65	1032.57
523.01	1048.86
523.37	1064.92
523.73	1081.16
524.09	1097.18
524.45	1113.67
524.81	1130.41
525.17	1147.35
525.53	1164.31
525.89	1181.18
526.25	1197.97
526.61	1214.37
526.97	1231.31
527.33	1247.76
527.68	1264.39
528.04	1281.02
528.40	1297.76
528.76	1314.80
529.12	1331.52
529.48	1348.31
529.84	1364.53
530.20	1381.26
530.56	1398.44
530.91	1416.03
531.27	1432.83
531.63	1449.47
531.99	1466.02
532.35	1481.89
532.71	1497.77
533.07	1514.11
533.42	1530.10
533.78	1546.30
534.14	1562.59
534.50	1577.91
534.86	1593.99
535.21	1609.29
535.57	1625.28
535.93	1640.92
536.29	1655.88
536.65	1671.17
537.00	1686.17
537.36	1701.49
537.72	1716.06
538.08	1730.48
538.44	1744.35
538.79	1758.39
539.15	1772.28
539.51	1786.15
539.87	1800.77
540.22	1814.68
540.58	1828.71
540.94	1842.34
541.29	1855.50
541.65	1868.39
542.01	1881.77
542.37	1894.06
542.72	1906.57
543.08	1918.39
543.44	1930.83
543.79	1942.18
544.15	1953.13
544.51	1964.75
544.87	1975.77
545.22	1986.63
545.58	1996.91
545.94	2006.75
546.29	2016.68
546.65	2026.36
547.01	2035.70
547.36	2044.50
547.72	2052.95
548.07	2060.74
548.43	2068.89
548.79	2076.88
549.14	2084.36
549.50	2091.62
549.86	2099.41
550.21	2106.60
550.57	2113.68
550.92	2120.31
551.28	2127.28
551.64	2134.35
551.99	2140.76
552.35	2146.82
552.70	2152.93
553.06	2158.88
553.41	2165.15
553.77	2171.12
554.13	2177.23
554.48	2183.32
554.84	2188.57
555.19	2193.93
555.55	2199.09
555.90	2203.54
556.26	2208.30
556.61	2213.13
556.97	2217.37
557.32	2221.32
557.68	2225.54
558.03	2229.99
558.39	2233.66
558.74	2238.26
559.10	2242.01
559.45	2245.74
559.81	2250.07
560.16	2253.77
560.52	2256.92
560.87	2260.30
561.23	2262.88
561.58	2265.81
561.94	2268.22
562.29	2270.55
562.64	2273.05
563.00	2275.54
563.35	2278.97
563.71	2282.05
564.06	2285.15
564.42	2287.96
564.77	2290.48
565.12	2292.55
565.48	2294.26
565.83	2295.94
566.19	2297.05
566.54	2297.93
566.89	2298.93
567.25	2299.35
567.60	2300.75
567.96	2302.27
568.31	2302.97
568.66	2303.92
569.02	2304.35
569.37	2304.53
569.72	2305.16
570.08	2305.13
570.43	2305.08
570.78	2304.13
571.14	2302.45
571.49	2300.95
571.84	2300.54
572.20	2299.26
572.55	2298.11
572.90	2296.45
573.26	2294.87
573.61	2293.25
573.96	2291.38
574.31	2288.16
574.67	2284.94
575.02	2281.07
575.37	2277.56
575.72	2273.50
576.08	2270.08
576.43	2266.69
576.78	2262.77
577.13	2259.66
577.49	2256.46
577.84	2252.83
578.19	2249.05
578.54	2245.23
578.90	2240.86
579.25	2235.04
579.60	2229.91
579.95	2224.71
580.30	2219.52
580.66	2214.25
581.01	2209.07
581.36	2203.95
581.71	2199.70
582.06	2195.17
582.42	2190.58
582.77	2185.13
583.12	2180.53
583.47	2175.57
583.82	2170.34
584.17	2165.07
584.53	2159.46
584.88	2153.64
585.23	2147.73
585.58	2142.14
585.93	2136.61
586.28	2131.77
586.63	2126.73
586.98	2121.59
587.34	2116.96
587.69	2111.96
588.04	2106.51
588.39	2100.58
588.74	2093.90
589.09	2087.69
589.44	2080.91
589.79	2074.84
590.14	2069.29
590.49	2062.61
590.84	2056.16
591.19	2050.02
591.54	2043.46
591.89	2035.80
592.25	2028.89
592.60	2021.51
592.95	2013.78
593.30	2006.17
593.65	1998.41
594.00	1991.28
594.35	1983.93
594.70	1975.78
595.05	1968.50
595.40	1961.26
595.75	1953.81
596.10	1947.46
596.45	1940.44
596.80	1934.08
597.15	1927.17
597.50	1919.84
597.85	1913.31
598.19	1906.64
598.54	1899.54
598.89	1892.87
599.24	1887.00
599.59	1880.30
599.94	1874.01
600.29	1867.69
600.64	1861.28
600.99	1853.78
601.34	1846.82
601.69	1839.86
602.04	1832.85
602.39	1825.46
602.74	1818.59
603.08	1811.89
603.43	1805.18
603.78	1798.04
604.13	1790.80
604.48	1783.57
604.83	1776.81
605.18	1769.83
605.53	1761.66
605.87	1753.63
606.22	1746.36
606.57	1738.28
606.92	1730.98
607.27	1723.73
607.62	1716.77
607.96	1709.43
608.31	1702.73
608.66	1695.03
609.01	1687.27
609.36	1679.66
609.70	1671.61
610.05	1663.43
610.40	1655.66
610.75	1647.45
611.10	1639.76
611.44	1631.43
611.79	1623.49
612.14	1614.69
612.49	1605.61
612.83	1597.29
613.18	1589.24
613.53	1581.23
613.88	1572.87
614.22	1564.54
614.57	1556.03
614.92	1548.04
615.27	1540.52
615.61	1532.29
615.96	1524.33
616.31	1516.80
616.65	1509.57
617.00	1502.05
617.35	1494.46
617.70	1486.12
618.04	1477.59
618.39	1469.30
618.74	1461.68
619.08	1453.42
619.43	1445.88
619.78	1438.99
620.12	1431.87
620.47	1424.32
620.82	1416.19
621.16	1408.75
621.51	1401.19
621.85	1393.73
622.20	1385.26
622.55	1376.97
622.89	1369.17
623.24	1361.75
623.59	1354.56
623.93	1347.06
624.28	1339.82
624.62	1332.36
624.97	1325.27
625.32	1318.56
625.66	1311.72
626.01	1304.45
626.35	1297.03
626.70	1289.32
627.04	1281.50
627.39	1273.87
627.73	1266.36
628.08	1259.47
628.43	1252.14
628.77	1244.80
629.12	1237.18
629.46	1230.14
629.81	1222.75
630.15	1215.57
630.50	1208.13
630.84	1199.89
631.19	1192.00
631.53	1184.60
631.88	1177.05
632.22	1169.45
632.57	1162.32
632.91	1154.79
633.26	1147.47
633.60	1140.17
633.95	1133.23
634.29	1126.30
634.64	1119.63
634.98	1112.46
635.32	1105.36
635.67	1098.88
636.01	1092.32
636.36	1085.57
636.70	1079.00
637.05	1072.42
637.39	1066.09
637.73	1059.63
638.08	1053.90
638.42	1047.92
638.77	1041.44
639.11	1034.90
639.45	1028.62
639.80	1021.84
640.14	1015.45
640.49	1008.98
640.83	1002.74
641.17	996.45
641.52	990.18
641.86	983.82
642.20	978.00
642.55	971.83
642.89	965.42
643.23	958.93
643.58	953.21
643.92	947.05
644.26	941.02
644.61	935.00
644.95	928.96
645.29	922.26
645.64	915.59
645.98	909.35
646.32	903.62
646.66	897.54
647.01	891.77
647.35	886.10
647.69	880.40
648.04	874.88
648.38	869.11
648.72	863.15
649.06	857.04
649.41	851.09
649.75	845.01
650.09	839.03
650.43	833.23
650.78	827.10
651.12	821.14
651.46	815.40
651.80	809.61
652.14	804.25
652.49	799.00
652.83	793.84
653.17	788.15
653.51	782.39
653.85	776.99
654.20	771.35
654.54	765.35
654.88	759.60
655.22	753.72
655.56	748.11
655.90	742.59
656.25	737.44
656.59	732.18
656.93	727.16
657.27	721.98
657.61	716.55
657.95	711.46
658.29	706.40
658.64	701.18
658.98	695.85
659.32	690.35
659.66	685.11
660.00	679.76
660.34	674.79
660.68	669.85
661.02	664.87
661.36	660.19
661.70	655.70
662.05	651.30
662.39	647.05
662.73	642.61
663.07	638.33
663.41	633.88
663.75	629.39
664.09	624.87
664.43	620.58
664.77	616.55
665.11	612.32
665.45	608.23
665.79	604.16
666.13	600.15
666.47	596.14
666.81	591.99
667.15	587.88
667.49	584.07
667.83	580.34
668.17	576.47
668.51	572.45
668.85	568.55
669.19	564.76
669.53	560.89
669.87	557.02
670.21	553.36
670.55	549.72
670.89	546.31
671.23	542.90
671.57	539.45
671.91	535.94
672.25	532.52
672.58	529.00
672.92	525.76
673.26	522.61
673.60	519.47
673.94	516.39
674.28	513.60
674.62	510.67
674.96	507.54
675.30	504.65
675.64	501.75
675.97	498.97
676.31	496.13
676.65	493.26
676.99	490.59
677.33	487.73
677.67	484.97
678.01	481.93
678.34	478.94
678.68	476.08
679.02	473.27
679.36	470.54
679.70	467.88
680.04	465.05
680.37	462.18
680.71	459.44
681.05	456.89
681.39	454.19
681.73	451.51
682.06	449.04
682.40	446.53
682.74	444.00
683.08	441.41
683.42	438.83
683.75	436.36
684.09	433.85
684.43	431.44
684.77	429.00
685.10	426.73
685.44	424.44
685.78	422.10
686.12	419.87
686.45	417.59
686.79	415.29
687.13	413.11
687.46	410.94
687.80	408.79
688.14	406.58
688.48	404.54
688.81	402.34
689.15	400.21
689.49	398.05
689.82	396.01
690.16	393.94
690.50	391.97
690.83	390.04
691.17	388.05
691.51	386.16
691.84	384.33
692.18	382.34
692.52	380.36
692.85	378.50
693.19	376.67
693.52	374.86
693.86	373.05
694.20	371.31
694.53	369.50
694.87	367.64
695.21	365.87
695.54	364.05
695.88	362.33
696.21	360.61
696.55	358.93
696.88	357.24
697.22	355.65
697.56	354.08
697.89	352.42
698.23	350.81
698.56	349.16
698.90	347.56
699.23	345.93
699.57	344.41
699.90	342.83
700.24	341.23
700.58	339.67
700.91	338.19
701.25	336.75
701.58	335.42
701.92	334.09
702.25	332.69
702.59	331.32
702.92	329.98
703.26	328.68
703.59	327.41
703.93	326.21
704.26	325.00
704.60	323.71
704.93	322.42
705.26	321.15
705.60	320.02
705.93	318.89
706.27	317.87
706.60	316.81
706.94	315.79
707.27	314.71
707.61	313.69
707.94	312.68
708.27	311.58
708.61	310.48
708.94	309.50
709.28	308.57
709.61	307.62
709.94	306.69
710.28	305.73
710.61	304.73
710.95	303.73
711.28	302.79
711.61	301.83
711.95	300.94
712.28	300.07
712.61	299.09
712.95	298.18
713.28	297.35
713.61	296.46
713.95	295.56
714.28	294.76
714.61	293.86
714.95	293.03
715.28	292.22
715.61	291.38
715.95	290.54
716.28	289.67
716.61	288.85
716.95	288.04
717.28	287.26
717.61	286.52
717.94	285.78
718.28	284.99
718.61	284.27
718.94	283.59
719.27	282.89
719.61	282.24
719.94	281.57
720.27	280.81
720.60	280.18
720.94	279.56
721.27	278.97
721.60	278.41
721.93	277.79
722.27	277.20
722.60	276.64
722.93	276.07
723.26	275.54
723.59	275.00
723.93	274.47
724.26	273.91
724.59	273.39
724.92	272.86
725.25	272.36
725.59	271.84
725.92	271.33
726.25	270.82
726.58	270.33
726.91	269.81
727.24	269.38
727.57	268.90
727.91	268.40
728.24	267.90
728.57	267.44
728.90	267.03
729.23	266.51
729.56	266.09
729.89	265.59
730.22	265.08
730.55	264.61
730.89	264.14
731.22	263.73
731.55	263.27
731.88	262.83
732.21	262.42
732.54	262.01
732.87	261.61
733.20	261.20
733.53	260.83
733.86	260.45
734.19	260.01
734.52	259.60
734.85	259.26
735.18	258.87
735.51	258.49
735.84	258.08
736.17	257.74
736.50	257.34
736.83	257.14
737.16	256.82
737.49	256.45
737.82	256.15
738.15	255.81
738.48	255.45
738.81	255.16
739.14	254.81
739.47	254.50
739.80	254.16
740.13	253.88
740.46	253.49
740.79	253.18
741.12	252.90
741.45	252.64
741.78	252.30
742.11	251.98
742.44	251.65
742.77	251.39
743.10	251.07
743.43	250.75
743.75	250.38
744.08	250.20
744.41	249.94
744.74	249.66
745.07	249.41
745.40	249.16
745.73	248.89
746.06	248.62
746.39	248.34
746.71	248.09
747.04	247.82
747.37	247.62
747.70	247.36
748.03	247.10
748.36	246.86
748.68	246.64
749.01	246.37
749.34	246.16
749.67	245.90
750.00	245.72
750.33	245.60
750.65	245.38
750.98	245.09
751.31	244.90
751.64	244.71
751.97	244.51
752.29	244.29
752.62	244.05
752.95	243.85
753.28	243.66
753.60	243.46
753.93	243.25
754.26	243.06
754.59	242.82
754.91	242.63
755.24	242.42
755.57	242.22
755.90	242.09
756.22	241.88
756.55	241.68
756.88	241.51
757.20	241.26
757.53	241.08
757.86	240.89
758.19	240.70
758.51	240.53
758.84	240.31
759.17	240.15
759.49	240.00
759.82	239.89
760.15	239.73
760.47	239.57
760.80	239.39
761.13	239.26
761.45	239.14
761.78	239.01
762.11	238.88
762.43	238.72
762.76	238.58
763.08	238.52
763.41	238.39
763.74	238.24
764.06	238.11
764.39	237.96
764.71	237.85
765.04	237.73
765.37	237.60
765.69	237.48
766.02	237.38
766.34	237.26
766.67	237.11
767.00	237.01
767.32	236.98
767.65	236.95
767.97	236.80
768.30	236.72
768.62	236.60
768.95	236.49
769.27	236.38
769.60	236.27
769.92	236.07
770.25	235.98
770.57	235.88
770.90	235.78
771.22	235.67
771.55	235.53
771.87	235.44
772.20	235.33
772.52	235.32
772.85	235.32
773.17	235.24
773.50	235.12
773.82	235.02
774.15	234.88
774.47	234.75
774.80	234.67
775.12	234.54
775.45	234.47
775.77	234.37
776.09	234.32
776.42	234.24
776.74	234.21
777.07	234.13
777.39	234.07
777.72	233.96
778.04	233.88
778.36	233.82
778.69	233.75
779.01	233.66
779.33	233.50
779.66	233.33
779.98	233.24
780.31	233.20
780.63	233.19
780.95	233.13
781.28	233.06
781.60	232.99
781.92	232.93
782.25	232.86
782.57	232.79
782.89	232.71
783.22	232.66
783.54	232.58
783.86	232.50
784.19	232.43
784.51	232.42
784.83	232.37
785.16	232.31
785.48	232.27
785.80	232.26
786.12	232.19
786.45	232.14
786.77	232.11
787.09	232.05
787.42	231.97
787.74	231.92
788.06	231.87
788.38	231.85
788.71	231.80
789.03	231.77
789.35	231.77
789.67	231.75
789.99	231.66
790.32	231.60
790.64	231.62
790.96	231.65
791.28	231.54
791.61	231.51
791.93	231.49
792.25	231.44
792.57	231.46
792.89	231.42
793.21	231.39
793.54	231.34
793.86	231.30
794.18	231.25
794.50	231.19
794.82	231.15
795.14	231.12
795.47	231.12
795.79	231.08
796.11	231.03
796.43	230.98
796.75	230.99
797.07	230.99
797.39	230.95
797.71	230.83
798.04	230.83
798.36	230.82
798.68	230.79
799.00	230.76
799.32	230.69
799.64	230.67
799.96	230.64
800.28	230.63
800.60	230.59
800.92	230.56
801.24	230.50
801.56	230.48
801.89	230.46
802.21	230.41
802.53	230.36
802.85	230.34
803.17	230.39
803.49	230.34
803.81	230.32
804.13	230.27
804.45	230.25
804.77	230.24
805.09	230.21
805.41	230.16
805.73	230.12
806.05	230.06
806.37	230.05
806.69	230.03
807.01	230.01
807.33	229.98
807.65	229.94
807.97	230.01
808.28	229.95
808.60	229.94
808.92	229.92
809.24	229.95
809.56	229.90
809.88	229.83
810.20	229.81
810.52	229.79
810.84	229.75
811.16	229.74
811.48	229.69
811.80	229.69
812.12	229.65
812.43	229.66
812.75	229.61
813.07	229.59
813.39	229.57
813.71	229.55
814.03	229.53
814.35	229.47
814.67	229.42
814.98	229.43
815.30	229.38
815.62	229.35
815.94	229.29
816.26	229.32
816.58	229.26
816.89	229.24
817.21	229.21
817.53	229.19
817.85	229.18
818.17	229.13
818.48	229.08
818.80	229.09
819.12	229.05
819.44	229.03
819.76	229.00
820.07	228.96
820.39	228.92
820.71	228.88
821.03	228.89
821.34	228.85
821.66	228.82
821.98	228.80
822.30	228.79
822.61	228.83
822.93	228.80
823.25	228.82
823.57	228.81
823.88	228.83
824.20	228.82
824.52	228.81
824.83	228.84
825.15	228.83
825.47	228.80
825.79	228.80
826.10	228.79
826.42	228.81
826.74	228.79
827.05	228.78
827.37	228.80
827.69	228.81
828.00	228.80
828.32	228.80
828.64	228.78
828.95	228.82
829.27	228.78
829.58	228.70
829.90	228.70
830.22	228.68
830.53	228.64
830.85	228.60
831.17	228.58
831.48	228.56
831.80	228.55
832.11	228.57
832.43	228.55
832.75	228.55
833.06	228.58
833.38	228.55
833.69	228.56
834.01	228.55
834.32	228.53
834.64	228.48
834.96	228.46
835.27	228.47
835.59	228.44
835.90	228.39
836.22	228.39
836.53	228.36
836.85	228.36
837.16	228.42
837.48	228.44
837.79	228.47
838.11	228.45
838.42	228.45
838.74	228.43
839.05	228.42
839.37	228.42
839.68	228.32
840.00	228.29
840.31	228.28
840.63	228.25
840.94	228.25
841.26	228.25
841.57	228.24
841.88	228.24
842.20	228.19
842.51	228.17
842.83	228.17
843.14	228.21
843.46	228.19
843.77	228.14
844.08	228.11
844.40	228.06
844.71	228.04
845.03	228.00
845.34	227.96
845.65	227.95
845.97	227.94
846.28	227.94
846.60	227.96
846.91	227.90
847.22	227.91
847.54	227.89
847.85	227.94
848.16	227.94
848.48	227.89
848.79	227.93
849.10	227.94
849.42	227.94
849.73	227.85
850.04	227.86
850.36	227.80
850.67	227.82
850.98	227.78
851.30	227.79
851.61	227.80
851.92	227.82
852.23	227.85
852.55	227.84
852.86	227.83
853.17	227.86
853.49	227.89
853.80	227.88
854.11	227.86
854.42	227.81
854.74	227.78
855.05	227.78
855.36	227.70
855.67	227.68
855.99	227.67
856.30	227.80
856.61	227.78
856.92	227.80
857.23	227.78
857.55	227.77
857.86	227.74
858.17	227.73
858.48	227.70
858.79	227.64
859.11	227.65
859.42	227.66
859.73	227.62
860.04	227.60
860.35	227.58
860.66	227.56
860.98	227.56
861.29	227.58
861.60	227.58
861.91	227.63
862.22	227.65
862.53	227.66
862.84	227.57
863.16	227.62
863.47	227.59
863.78	227.59
864.09	227.62
864.40	227.65
864.71	227.66
865.02	227.66
865.33	227.69
865.64	227.69
865.95	227.67
866.27	227.76
866.58	227.76
866.89	227.74
867.20	227.78
867.51	227.77
867.82	227.78
868.13	227.81
868.44	227.80
868.75	227.79
869.06	227.80
869.37	227.80
869.68	227.74
869.99	227.78
870.30	227.76
870.61	227.77
870.92	227.78
871.23	227.80
871.54	227.82
871.85	227.82
872.16	227.84
872.47	227.86
872.78	227.77
873.09	227.77
873.40	227.81
873.71	227.77
874.02	227.75
874.33	227.74
874.64	227.73
874.95	227.73
875.26	227.74
875.56	227.71
875.87	227.70
876.18	227.72
876.49	227.79
876.80	227.81
877.11	227.76
877.42	227.74
877.73	227.73
878.04	227.72
878.35	227.73
878.66	227.69
878.96	227.71
879.27	227.72
879.58	227.71
879.89	227.69
880.20	227.73
880.51	227.74
880.82	227.72
881.12	227.70
881.43	227.70
881.74	227.67
882.05	227.66
882.36	227.65
882.67	227.67
882.97	227.56
883.28	227.53
883.59	227.55
883.90	227.54
884.21	227.54
884.51	227.51
884.82	227.51
885.13	227.50
885.44	227.47
885.74	227.50
886.05	227.44
886.36	227.44
886.67	227.40
886.98	227.47
887.28	227.49
887.59	227.47
887.90	227.44
888.20	227.46
888.51	227.46
888.82	227.46
889.13	227.46
889.43	227.54
889.74	227.54
890.05	227.51
890.35	227.52
890.66	227.50
890.97	227.50
891.28	227.47
891.58	227.50
891.89	227.50
892.20	227.46
892.50	227.47
892.81	227.45
893.12	227.48
893.42	227.40
893.73	227.38
894.04	227.44
894.34	227.43
894.65	227.40
894.95	227.40
895.26	227.40
895.57	227.44
895.87	227.33
896.18	227.35
896.48	227.36
896.79	227.37
897.10	227.36
897.40	227.35
897.71	227.37
898.01	227.34
898.32	227.32
898.63	227.30
898.93	227.32
899.24	227.35
899.54	227.34
899.85	227.32
900.15	227.32
900.46	227.26
900.76	227.27
901.07	227.29
901.38	227.30
901.68	227.28
901.99	227.21
902.29	227.27
902.60	227.25
902.90	227.24
903.21	227.22
903.51	227.22
903.82	227.27
904.12	227.27
904.43	227.29
904.73	227.32
905.03	227.35
905.34	227.49
905.64	227.48
905.95	227.47
906.25	227.50
906.56	227.54
906.86	227.59
907.17	227.60
907.47	227.60
907.77	227.55
908.08	227.58
908.38	227.61
908.69	227.59
908.99	227.61
909.30	227.63
909.60	227.66
909.90	227.68
910.21	227.63
910.51	227.63
910.81	227.63
911.12	227.63
911.42	227.63
911.73	227.51
912.03	227.53
912.33	227.55
912.64	227.51
912.94	227.49
913.24	227.46
913.55	227.47
913.85	227.43
914.15	227.50
914.46	227.50
914.76	227.48
915.06	227.46
915.37	227.49
915.67	227.50
915.97	227.50
916.27	227.46
916.58	227.45
916.88	227.45
917.18	227.43
917.49	227.51
917.79	227.52
918.09	227.52
918.39	227.52
918.70	227.50
919.00	227.51
919.30	227.54
919.60	227.54
919.91	227.52
920.21	227.54
920.51	227.51
920.81	227.46
921.12	227.48
921.42	227.48
921.72	227.45
922.02	227.44
922.32	227.44
922.63	227.47
922.93	227.52
923.23	227.51
923.53	227.48
923.83	227.40
924.13	227.37
924.44	227.38
924.74	227.38
925.04	227.43
925.34	227.42
925.64	227.35
925.94	227.36
926.24	227.38
926.55	227.39
926.85	227.37
927.15	227.37
927.45	227.37
927.75	227.36
928.05	227.35
928.35	227.33
928.65	227.33
928.95	227.33
929.26	227.28
929.56	227.29
929.86	227.34
930.16	227.34
930.46	227.35
930.76	227.33
931.06	227.27
931.36	227.23
931.66	227.28
931.96	227.33
932.26	227.35
932.56	227.27
932.86	227.29
933.16	227.32
933.46	227.34
933.76	227.34
934.06	227.36
934.36	227.40
934.66	227.40
934.96	227.41
935.26	227.40
935.56	227.38
935.86	227.35
936.16	227.32
936.46	227.30
936.76	227.30
937.06	227.29
937.36	227.33
937.66	227.34
937.96	227.33
938.26	227.29
938.56	227.26
938.86	227.32
939.16	227.33
939.46	227.34
939.76	227.32
940.06	227.33
940.35	227.28
940.65	227.20
940.95	227.21
941.25	227.19
941.55	227.19
941.85	227.23
942.15	227.26
942.45	227.30
942.75	227.30
943.04	227.30
943.34	227.33
943.64	227.33
943.94	227.31
944.24	227.30
944.54	227.29
944.84	227.29
945.13	227.28
945.43	227.24
945.73	227.23
946.03	227.24
946.33	227.23
946.62	227.25
946.92	227.28
947.22	227.30
947.52	227.30
947.82	227.32
948.11	227.32
948.41	227.30
948.71	227.27
949.01	227.26
949.31	227.25
949.60	227.24
949.90	227.25
950.20	227.24
950.50	227.24
950.79	227.22
951.09	227.26
951.39	227.23
951.69	227.24
951.98	227.24
952.28	227.22
952.58	227.19
952.87	227.20
953.17	227.21
953.47	227.17
953.76	227.18
954.06	227.16
954.36	227.15
954.66	227.17
954.95	227.20
955.25	227.24
955.55	227.26
955.84	227.21
956.14	227.22
956.44	227.23
956.73	227.20
957.03	227.19
957.32	227.18
957.62	227.16
957.92	227.21
958.21	227.21
958.51	227.33
958.81	227.36
959.10	227.36
959.40	227.37
959.69	227.37
959.99	227.35
960.29	227.29
960.58	227.27
960.88	227.27
961.17	227.27
961.47	227.24
961.76	227.20
962.06	227.23
962.36	227.20
962.65	227.21
962.95	227.22
963.24	227.23
963.54	227.22
963.83	227.27
964.13	227.22
964.42	227.16
964.72	227.08
965.01	227.05
965.31	227.06
965.60	227.04
965.90	227.11
966.19	227.12
966.49	227.17
966.78	227.19
967.08	227.17
967.37	227.16
967.67	227.15
967.96	227.17
968.26	227.17
968.55	227.17
968.85	227.15
969.14	227.15
969.43	227.14
969.73	227.12
970.02	227.11
970.32	227.15
970.61	227.17
970.91	227.16
971.20	227.15
971.49	227.12
971.79	227.12
972.08	227.07
972.38	227.06
972.67	227.04
972.96	227.06
973.26	227.06
973.55	227.10
973.85	227.10
974.14	227.11
974.43	227.10
974.73	227.13
975.02	227.13
975.31	227.14
975.61	227.13
975.90	227.14
976.19	227.13
976.49	227.10
976.78	227.11
977.07	227.10
977.37	227.13
977.66	227.15
977.95	227.15
978.24	227.12
978.54	227.15
978.83	227.14
979.12	227.10
979.42	227.06
979.71	227.03
980.00	227.00
980.29	227.00
980.59	227.01
980.88	227.05
981.17	227.02
981.46	227.04
981.76	227.07
982.05	227.09
982.34	227.07
982.63	227.07
982.93	227.07
983.22	227.12
983.51	227.12
983.80	227.14
984.09	227.17
984.39	227.16
984.68	227.14
984.97	227.15
985.26	227.15
985.55	227.21
985.85	227.20
986.14	227.23
986.43	227.23
986.72	227.23
987.01	227.18
987.30	227.20
987.59	227.19
987.89	227.20
988.18	227.19
988.47	227.19
988.76	227.17
989.05	227.17
989.34	227.10
989.63	227.09
989.92	227.09
990.22	227.05
990.51	227.07
990.80	227.08
991.09	227.07
991.38	227.10
991.67	227.05
991.96	227.05
992.25	227.06
992.54	227.05
992.83	227.01
993.12	227.01
993.41	226.98
993.70	226.99
993.99	227.01
994.28	227.01
994.58	227.02
994.87	227.00
995.16	226.98
995.45	226.99
995.74	226.97
996.03	226.97
996.32	226.99
996.61	227.01
996.90	227.02
997.19	227.05
997.48	227.02
997.77	227.02
998.06	227.03
998.34	227.02
998.63	227.03
998.92	227.06
999.21	227.06
999.50	227.11
999.79	227.08
1000.08	227.04
1000.37	227.04
1000.66	227.03
1000.95	227.07
1001.24	227.09
1001.53	227.13
1001.82	227.13
1002.11	227.10
1002.40	227.09
1002.68	227.12
1002.97	227.15
1003.26	227.14
1003.55	227.14
1003.84	227.17
1004.13	227.20
1004.42	227.19
1004.71	227.18
1004.99	227.17
1005.28	227.20
1005.57	227.19
1005.86	227.20
1006.15	227.22
1006.44	227.22
1006.72	227.23
1007.01	227.25
1007.30	227.23
1007.59	227.19
1007.88	227.19
1008.17	227.23
1008.45	227.23
1008.74	227.19
1009.03	227.17
1009.32	227.15
1009.60	227.17
1009.89	227.16
1010.18	227.13
1010.47	227.13
1010.76	227.13
1011.04	227.13
1011.33	227.14
1011.62	227.16
1011.91	227.16
1012.19	227.18
1012.48	227.19
1012.77	227.22
1013.05	227.24
1013.34	227.26
1013.63	227.26
1013.92	227.30
1014.20	227.29
1014.49	227.28
1014.78	227.32
1015.06	227.29
1015.35	227.31
1015.64	227.33
1015.92	227.33
1016.21	227.34
1016.50	227.35
1016.78	227.38
1017.07	227.40
1017.36	227.35
1017.64	227.36
1017.93	227.37
1018.22	227.31
1018.50	227.30
1018.79	227.28
1019.08	227.25
1019.36	227.24
1019.65	227.28
1019.93	227.28
1020.22	227.30
1020.51	227.34
1020.79	227.26
1021.08	226.46
1021.36	227.20
1021.65	227.24
1021.94	227.20
1022.22	227.04
1022.51	227.80
1022.79	227.55
1023.08	227.46
1023.36	228.18
1023.65	226.24
>>>>>End Processed Spectral Data<<<<<
