SpectraSuite Data File
++++++++++++++++++++++++++++++++++++
Date: Fri Feb 01 17:11:35 EST 2013
User: group
Dark Spectrum Present: No
Reference Spectrum Present: No
Number of Sampled Component Spectra: 1
Spectrometers: USB2E7196
Integration Time (usec): 35000 (USB2E7196)
Spectra Averaged: 100 (USB2E7196)
Boxcar Smoothing: 10 (USB2E7196)
Correct for Electrical Dark: No (USB2E7196)
Strobe/Lamp Enabled: No (USB2E7196)
Correct for Detector Non-linearity: No (USB2E7196)
Correct for Stray Light: No (USB2E7196)
Number of Pixels in Processed Spectrum: 2048
>>>>>Begin Processed Spectral Data<<<<<
339.09	0.00
339.48	213.14
339.86	215.15
340.24	215.69
340.63	217.38
341.01	220.15
341.39	220.12
341.78	221.37
342.16	223.04
342.54	223.54
342.93	211.78
343.31	222.50
343.69	223.03
344.07	223.50
344.46	223.96
344.84	224.36
345.22	224.62
345.60	224.89
345.99	225.09
346.37	225.21
346.75	225.30
347.13	225.34
347.52	225.37
347.90	225.46
348.28	225.49
348.66	225.54
349.05	225.51
349.43	225.50
349.81	225.54
350.19	225.60
350.57	225.68
350.96	225.77
351.34	225.85
351.72	225.95
352.10	226.02
352.48	226.08
352.87	226.10
353.25	226.16
353.63	226.22
354.01	226.27
354.39	226.34
354.77	226.44
355.15	226.52
355.54	226.59
355.92	226.60
356.30	226.67
356.68	226.80
357.06	226.86
357.44	226.93
357.82	226.96
358.20	227.02
358.58	227.03
358.97	227.07
359.35	227.11
359.73	227.17
360.11	227.19
360.49	227.22
360.87	227.28
361.25	227.32
361.63	227.37
362.01	227.41
362.39	227.45
362.77	227.48
363.15	227.49
363.53	227.51
363.91	227.56
364.29	227.60
364.67	227.52
365.05	227.57
365.43	227.57
365.81	227.63
366.19	227.67
366.57	227.72
366.95	227.68
367.33	227.68
367.71	227.68
368.09	227.71
368.47	227.73
368.85	227.70
369.23	227.71
369.61	227.67
369.99	227.69
370.37	227.67
370.75	227.67
371.13	227.63
371.51	227.57
371.89	227.52
372.27	227.48
372.65	227.44
373.03	227.38
373.41	227.33
373.78	227.27
374.16	227.15
374.54	227.06
374.92	227.04
375.30	227.00
375.68	226.93
376.06	226.89
376.44	226.79
376.82	226.77
377.19	226.70
377.57	226.62
377.95	226.53
378.33	226.43
378.71	226.32
379.09	226.29
379.47	226.24
379.84	226.18
380.22	226.09
380.60	226.01
380.98	225.93
381.36	225.86
381.73	225.79
382.11	225.76
382.49	225.72
382.87	225.63
383.25	225.55
383.62	225.60
384.00	225.52
384.38	225.50
384.76	225.43
385.13	225.38
385.51	225.34
385.89	225.29
386.27	225.26
386.64	225.24
387.02	225.16
387.40	225.13
387.78	225.09
388.15	225.09
388.53	225.03
388.91	225.00
389.29	224.95
389.66	224.94
390.04	224.91
390.42	224.88
390.79	224.90
391.17	224.88
391.55	224.78
391.92	224.77
392.30	224.78
392.68	224.77
393.05	224.77
393.43	224.78
393.81	224.77
394.18	224.76
394.56	224.73
394.94	224.77
395.31	224.78
395.69	224.83
396.06	224.84
396.44	224.95
396.82	224.98
397.19	225.09
397.57	225.09
397.95	225.14
398.32	225.17
398.70	225.20
399.07	225.29
399.45	225.29
399.82	225.37
400.20	225.40
400.58	225.46
400.95	225.49
401.33	225.54
401.70	225.68
402.08	225.76
402.45	225.87
402.83	225.98
403.20	226.08
403.58	226.16
403.95	226.27
404.33	226.34
404.71	226.46
405.08	226.62
405.46	226.76
405.83	226.89
406.21	227.01
406.58	227.18
406.96	227.30
407.33	227.49
407.70	227.62
408.08	227.87
408.45	228.08
408.83	228.30
409.20	228.52
409.58	228.71
409.95	228.96
410.33	229.24
410.70	229.51
411.08	229.79
411.45	230.08
411.82	230.41
412.20	230.74
412.57	231.15
412.95	231.45
413.32	231.88
413.69	232.27
414.07	232.71
414.44	233.21
414.82	233.70
415.19	234.25
415.56	234.85
415.94	235.42
416.31	236.09
416.68	236.71
417.06	237.49
417.43	238.15
417.81	238.92
418.18	239.68
418.55	240.53
418.93	241.44
419.30	242.40
419.67	243.36
420.04	244.34
420.42	245.36
420.79	246.56
421.16	247.71
421.54	248.91
421.91	250.18
422.28	251.46
422.66	252.81
423.03	254.13
423.40	255.50
423.77	256.92
424.15	258.34
424.52	259.87
424.89	261.47
425.26	263.06
425.64	264.56
426.01	266.17
426.38	267.85
426.75	269.49
427.13	271.20
427.50	273.01
427.87	274.89
428.24	276.76
428.61	278.51
428.99	280.50
429.36	282.64
429.73	284.69
430.10	286.69
430.47	288.80
430.85	290.91
431.22	293.13
431.59	295.54
431.96	297.80
432.33	300.28
432.70	302.63
433.08	305.47
433.45	308.12
433.82	310.74
434.19	313.61
434.56	316.47
434.93	319.17
435.30	321.81
435.68	324.69
436.05	327.57
436.42	330.40
436.79	332.88
437.16	335.62
437.53	338.48
437.90	341.34
438.27	344.09
438.64	346.99
439.01	349.61
439.38	351.85
439.75	354.06
440.13	356.63
440.50	359.01
440.87	360.84
441.24	362.80
441.61	365.02
441.98	366.52
442.35	368.38
442.72	370.19
443.09	372.02
443.46	373.03
443.83	373.61
444.20	374.10
444.57	374.95
444.94	375.22
445.31	375.53
445.68	375.89
446.05	375.98
446.42	375.56
446.79	375.14
447.16	374.67
447.53	374.35
447.90	373.14
448.27	371.98
448.64	370.39
449.01	369.27
449.37	367.28
449.74	365.39
450.11	363.11
450.48	360.66
450.85	358.08
451.22	355.96
451.59	353.93
451.96	351.97
452.33	349.38
452.70	347.05
453.07	344.25
453.43	341.30
453.80	338.47
454.17	335.78
454.54	333.22
454.91	330.49
455.28	327.82
455.65	325.31
456.02	322.87
456.38	320.70
456.75	317.99
457.12	315.71
457.49	313.48
457.86	311.29
458.23	309.42
458.59	307.41
458.96	305.34
459.33	303.48
459.70	301.63
460.07	300.13
460.43	298.35
460.80	296.72
461.17	295.30
461.54	293.82
461.91	292.39
462.27	290.92
462.64	289.68
463.01	288.30
463.38	287.02
463.74	285.67
464.11	284.50
464.48	283.51
464.85	282.42
465.21	281.54
465.58	280.61
465.95	279.52
466.32	278.59
466.68	277.68
467.05	276.76
467.42	275.87
467.78	274.93
468.15	274.08
468.52	273.41
468.88	272.54
469.25	271.73
469.62	271.13
469.98	270.50
470.35	269.88
470.72	269.27
471.08	268.62
471.45	267.99
471.82	267.50
472.18	266.92
472.55	266.44
472.92	265.97
473.28	265.50
473.65	265.02
474.02	264.59
474.38	264.22
474.75	263.94
475.11	263.59
475.48	263.35
475.85	263.11
476.21	262.87
476.58	262.70
476.94	262.58
477.31	262.41
477.67	262.25
478.04	262.14
478.41	262.10
478.77	262.14
479.14	262.12
479.50	262.11
479.87	262.14
480.23	262.26
480.60	262.33
480.96	262.39
481.33	262.60
481.69	262.78
482.06	262.95
482.42	263.13
482.79	263.39
483.15	263.69
483.52	264.05
483.88	264.37
484.25	264.78
484.61	265.17
484.98	265.59
485.34	266.17
485.71	266.74
486.07	267.33
486.44	267.88
486.80	268.58
487.17	269.24
487.53	270.07
487.90	270.89
488.26	271.81
488.62	272.81
488.99	273.81
489.35	274.88
489.72	276.01
490.08	277.19
490.44	278.43
490.81	279.72
491.17	281.07
491.54	282.61
491.90	284.08
492.26	285.78
492.63	287.55
492.99	289.27
493.36	291.13
493.72	293.17
494.08	295.26
494.45	297.51
494.81	299.93
495.17	302.39
495.54	304.96
495.90	307.63
496.26	310.42
496.63	313.36
496.99	316.41
497.35	319.67
497.72	323.04
498.08	326.56
498.44	330.27
498.80	334.24
499.17	338.25
499.53	342.48
499.89	346.83
500.26	351.29
500.62	356.01
500.98	361.00
501.34	366.01
501.71	371.30
502.07	376.74
502.43	382.29
502.79	388.04
503.16	394.08
503.52	400.25
503.88	406.68
504.24	413.28
504.60	420.19
504.97	427.26
505.33	434.56
505.69	442.23
506.05	449.93
506.41	457.74
506.78	465.80
507.14	474.16
507.50	482.79
507.86	491.76
508.22	500.84
508.59	509.98
508.95	519.50
509.31	529.23
509.67	539.23
510.03	549.48
510.39	559.92
510.75	570.60
511.12	581.46
511.48	592.52
511.84	603.89
512.20	615.24
512.56	627.03
512.92	639.09
513.28	651.29
513.64	663.56
514.00	676.10
514.37	688.90
514.73	701.72
515.09	714.53
515.45	727.62
515.81	740.98
516.17	754.70
516.53	768.62
516.89	782.58
517.25	796.55
517.61	810.67
517.97	824.98
518.33	839.19
518.69	853.82
519.05	868.61
519.41	883.48
519.77	898.74
520.13	913.86
520.49	928.97
520.85	944.08
521.21	959.54
521.57	975.50
521.93	990.90
522.29	1006.97
522.65	1022.96
523.01	1038.77
523.37	1054.53
523.73	1070.44
524.09	1086.13
524.45	1102.09
524.81	1118.24
525.17	1134.67
525.53	1151.13
525.89	1167.67
526.25	1184.07
526.61	1200.16
526.97	1216.59
527.33	1232.77
527.68	1249.16
528.04	1265.20
528.40	1281.37
528.76	1298.10
529.12	1314.39
529.48	1330.99
529.84	1346.69
530.20	1363.01
530.56	1379.72
530.91	1396.67
531.27	1413.11
531.63	1429.34
531.99	1445.58
532.35	1461.37
532.71	1477.09
533.07	1492.99
533.42	1508.69
533.78	1524.51
534.14	1540.57
534.50	1555.63
534.86	1571.14
535.21	1585.95
535.57	1601.63
535.93	1616.80
536.29	1631.21
536.65	1645.79
537.00	1660.15
537.36	1675.16
537.72	1689.30
538.08	1703.46
538.44	1716.99
538.79	1730.53
539.15	1743.83
539.51	1757.25
539.87	1771.33
540.22	1784.64
540.58	1798.05
540.94	1810.87
541.29	1823.27
541.65	1835.52
542.01	1848.33
542.37	1860.43
542.72	1872.68
543.08	1884.29
543.44	1896.49
543.79	1907.74
544.15	1918.66
544.51	1930.24
544.87	1941.16
545.22	1952.05
545.58	1962.22
545.94	1972.04
546.29	1981.78
546.65	1991.81
547.01	2000.98
547.36	2009.64
547.72	2018.18
548.07	2026.29
548.43	2034.46
548.79	2042.39
549.14	2050.10
549.50	2057.56
549.86	2065.15
550.21	2072.55
550.57	2079.89
550.92	2086.53
551.28	2093.66
551.64	2100.80
551.99	2107.26
552.35	2113.35
552.70	2119.35
553.06	2125.43
553.41	2131.89
553.77	2137.99
554.13	2143.94
554.48	2150.11
554.84	2155.83
555.19	2161.22
555.55	2166.49
555.90	2171.31
556.26	2176.59
556.61	2181.39
556.97	2185.97
557.32	2190.42
557.68	2194.55
558.03	2198.83
558.39	2202.60
558.74	2207.16
559.10	2211.14
559.45	2214.95
559.81	2219.36
560.16	2223.50
560.52	2226.92
560.87	2230.36
561.23	2233.28
561.58	2236.41
561.94	2239.29
562.29	2241.69
562.64	2244.67
563.00	2247.24
563.35	2250.69
563.71	2253.95
564.06	2257.11
564.42	2260.11
564.77	2262.91
565.12	2265.60
565.48	2267.72
565.83	2269.93
566.19	2271.61
566.54	2272.68
566.89	2274.19
567.25	2275.14
567.60	2276.59
567.96	2278.60
568.31	2279.69
568.66	2280.99
569.02	2281.71
569.37	2282.36
569.72	2283.49
570.08	2283.89
570.43	2284.28
570.78	2284.07
571.14	2282.97
571.49	2282.00
571.84	2281.88
572.20	2280.95
572.55	2279.91
572.90	2278.45
573.26	2277.33
573.61	2275.78
573.96	2274.52
574.31	2271.72
574.67	2269.07
575.02	2265.71
575.37	2262.34
575.72	2258.96
576.08	2255.86
576.43	2252.71
576.78	2249.33
577.13	2246.15
577.49	2243.20
577.84	2239.87
578.19	2236.24
578.54	2232.74
578.90	2228.94
579.25	2223.51
579.60	2218.89
579.95	2214.26
580.30	2209.66
580.66	2204.69
581.01	2199.75
581.36	2194.77
581.71	2190.93
582.06	2186.54
582.42	2182.34
582.77	2177.53
583.12	2173.06
583.47	2168.75
583.82	2164.25
584.17	2159.25
584.53	2154.02
584.88	2148.60
585.23	2143.20
585.58	2138.02
585.93	2132.72
586.28	2127.79
586.63	2123.07
586.98	2117.99
587.34	2113.48
587.69	2108.60
588.04	2103.66
588.39	2098.48
588.74	2092.31
589.09	2086.33
589.44	2079.88
589.79	2073.86
590.14	2068.32
590.49	2061.89
590.84	2055.53
591.19	2049.61
591.54	2043.25
591.89	2036.29
592.25	2029.83
592.60	2022.73
592.95	2015.64
593.30	2008.49
593.65	2001.30
594.00	1994.37
594.35	1987.33
594.70	1979.35
595.05	1972.60
595.40	1965.37
595.75	1958.04
596.10	1952.19
596.45	1945.70
596.80	1939.69
597.15	1933.39
597.50	1926.70
597.85	1920.47
598.19	1914.06
598.54	1907.41
598.89	1900.88
599.24	1895.16
599.59	1888.66
599.94	1882.54
600.29	1876.10
600.64	1869.45
600.99	1862.10
601.34	1855.39
601.69	1848.40
602.04	1841.78
602.39	1834.44
602.74	1827.78
603.08	1821.13
603.43	1814.28
603.78	1807.12
604.13	1800.04
604.48	1792.83
604.83	1785.93
605.18	1779.17
605.53	1771.13
605.87	1762.83
606.22	1755.69
606.57	1747.63
606.92	1740.05
607.27	1733.05
607.62	1726.19
607.96	1719.14
608.31	1712.79
608.66	1705.32
609.01	1697.94
609.36	1690.36
609.70	1682.35
610.05	1674.38
610.40	1666.82
610.75	1658.57
611.10	1650.81
611.44	1642.29
611.79	1634.16
612.14	1625.46
612.49	1616.21
612.83	1607.80
613.18	1599.77
613.53	1591.61
613.88	1583.25
614.22	1575.15
614.57	1566.40
614.92	1558.30
615.27	1550.99
615.61	1542.57
615.96	1534.46
616.31	1526.83
616.65	1519.42
617.00	1511.87
617.35	1504.17
617.70	1495.86
618.04	1487.47
618.39	1479.24
618.74	1471.69
619.08	1463.51
619.43	1455.93
619.78	1448.95
620.12	1442.01
620.47	1434.54
620.82	1426.42
621.16	1418.82
621.51	1411.11
621.85	1403.44
622.20	1394.96
622.55	1386.38
622.89	1378.44
623.24	1370.74
623.59	1363.24
623.93	1355.78
624.28	1348.51
624.62	1340.91
624.97	1333.68
625.32	1326.75
625.66	1319.67
626.01	1312.59
626.35	1305.25
626.70	1297.41
627.04	1289.72
627.39	1281.79
627.73	1274.21
628.08	1267.21
628.43	1259.99
628.77	1252.73
629.12	1245.24
629.46	1238.15
629.81	1230.63
630.15	1223.42
630.50	1216.12
630.84	1208.06
631.19	1199.96
631.53	1192.44
631.88	1184.91
632.22	1177.15
632.57	1169.83
632.91	1162.28
633.26	1154.77
633.60	1147.21
633.95	1140.02
634.29	1132.92
634.64	1126.20
634.98	1118.97
635.32	1111.81
635.67	1105.15
636.01	1098.35
636.36	1091.59
636.70	1085.01
637.05	1078.45
637.39	1071.96
637.73	1065.38
638.08	1059.37
638.42	1053.39
638.77	1046.94
639.11	1040.43
639.45	1034.09
639.80	1027.45
640.14	1021.03
640.49	1014.50
640.83	1008.27
641.17	1002.10
641.52	995.80
641.86	989.24
642.20	983.33
642.55	976.96
642.89	970.58
643.23	963.98
643.58	958.13
643.92	951.95
644.26	945.98
644.61	939.84
644.95	933.86
645.29	927.34
645.64	920.56
645.98	914.19
646.32	908.10
646.66	902.04
647.01	896.18
647.35	890.48
647.69	884.58
648.04	878.98
648.38	873.16
648.72	867.21
649.06	861.27
649.41	855.25
649.75	849.39
650.09	843.36
650.43	837.57
650.78	831.41
651.12	825.40
651.46	819.60
651.80	814.01
652.14	808.58
652.49	803.22
652.83	798.08
653.17	792.46
653.51	786.87
653.85	781.48
654.20	775.84
654.54	769.82
654.88	764.09
655.22	758.10
655.56	752.35
655.90	746.72
656.25	741.45
656.59	736.15
656.93	730.90
657.27	725.85
657.61	720.47
657.95	715.39
658.29	710.30
658.64	704.97
658.98	699.58
659.32	694.11
659.66	688.87
660.00	683.60
660.34	678.57
660.68	673.63
661.02	668.55
661.36	663.91
661.70	659.42
662.05	655.04
662.39	650.81
662.73	646.42
663.07	642.09
663.41	637.56
663.75	633.07
664.09	628.57
664.43	624.08
664.77	619.98
665.11	615.77
665.45	611.61
665.79	607.59
666.13	603.46
666.47	599.32
666.81	595.15
667.15	591.01
667.49	587.11
667.83	583.22
668.17	579.29
668.51	575.22
668.85	571.11
669.19	567.18
669.53	563.33
669.87	559.46
670.21	555.75
670.55	552.16
670.89	548.76
671.23	545.40
671.57	541.85
671.91	538.25
672.25	534.68
672.58	531.13
672.92	527.70
673.26	524.51
673.60	521.35
673.94	518.28
674.28	515.32
674.62	512.42
674.96	509.38
675.30	506.53
675.64	503.62
675.97	500.87
676.31	498.03
676.65	495.12
676.99	492.37
677.33	489.52
677.67	486.69
678.01	483.67
678.34	480.64
678.68	477.75
679.02	474.93
679.36	472.16
679.70	469.43
680.04	466.63
680.37	463.80
680.71	460.99
681.05	458.35
681.39	455.66
681.73	452.95
682.06	450.42
682.40	447.81
682.74	445.22
683.08	442.62
683.42	440.05
683.75	437.49
684.09	434.91
684.43	432.45
684.77	429.98
685.10	427.58
685.44	425.26
685.78	422.97
686.12	420.71
686.45	418.41
686.79	416.15
687.13	413.97
687.46	411.80
687.80	409.65
688.14	407.35
688.48	405.30
688.81	403.11
689.15	400.90
689.49	398.71
689.82	396.62
690.16	394.49
690.50	392.52
690.83	390.58
691.17	388.53
691.51	386.52
691.84	384.58
692.18	382.64
692.52	380.71
692.85	378.73
693.19	376.89
693.52	375.04
693.86	373.14
694.20	371.34
694.53	369.54
694.87	367.65
695.21	365.86
695.54	363.98
695.88	362.16
696.21	360.39
696.55	358.75
696.88	357.11
697.22	355.44
697.56	353.74
697.89	352.10
698.23	350.56
698.56	348.98
698.90	347.49
699.23	345.86
699.57	344.22
699.90	342.63
700.24	341.04
700.58	339.49
700.91	338.04
701.25	336.55
701.58	335.12
701.92	333.72
702.25	332.35
702.59	330.99
702.92	329.70
703.26	328.43
703.59	327.10
703.93	325.85
704.26	324.62
704.60	323.37
704.93	322.07
705.26	320.78
705.60	319.57
705.93	318.33
706.27	317.30
706.60	316.25
706.94	315.22
707.27	314.08
707.61	312.95
707.94	311.87
708.27	310.83
708.61	309.72
708.94	308.75
709.28	307.78
709.61	306.83
709.94	305.86
710.28	304.80
710.61	303.83
710.95	302.74
711.28	301.82
711.61	300.86
711.95	299.94
712.28	299.00
712.61	298.06
712.95	297.14
713.28	296.22
713.61	295.33
713.95	294.42
714.28	293.59
714.61	292.80
714.95	292.00
715.28	291.13
715.61	290.30
715.95	289.43
716.28	288.55
716.61	287.69
716.95	286.88
717.28	286.10
717.61	285.31
717.94	284.62
718.28	283.83
718.61	283.10
718.94	282.39
719.27	281.74
719.61	281.07
719.94	280.40
720.27	279.69
720.60	279.05
720.94	278.45
721.27	277.85
721.60	277.22
721.93	276.58
722.27	276.04
722.60	275.45
722.93	274.89
723.26	274.36
723.59	273.81
723.93	273.24
724.26	272.75
724.59	272.20
724.92	271.67
725.25	271.16
725.59	270.63
725.92	270.14
726.25	269.62
726.58	269.13
726.91	268.62
727.24	268.13
727.57	267.64
727.91	267.10
728.24	266.66
728.57	266.18
728.90	265.73
729.23	265.19
729.56	264.77
729.89	264.28
730.22	263.81
730.55	263.31
730.89	262.87
731.22	262.41
731.55	261.95
731.88	261.44
732.21	260.99
732.54	260.58
732.87	260.14
733.20	259.71
733.53	259.31
733.86	258.93
734.19	258.53
734.52	258.14
734.85	257.82
735.18	257.37
735.51	257.02
735.84	256.64
736.17	256.29
736.50	255.90
736.83	255.63
737.16	255.28
737.49	254.96
737.82	254.62
738.15	254.26
738.48	253.94
738.81	253.63
739.14	253.29
739.47	252.96
739.80	252.61
740.13	252.29
740.46	251.96
740.79	251.62
741.12	251.27
741.45	250.92
741.78	250.53
742.11	250.24
742.44	249.89
742.77	249.63
743.10	249.33
743.43	249.03
743.75	248.66
744.08	248.48
744.41	248.19
744.74	247.91
745.07	247.59
745.40	247.36
745.73	247.12
746.06	246.84
746.39	246.56
746.71	246.33
747.04	246.08
747.37	245.82
747.70	245.57
748.03	245.33
748.36	245.16
748.68	244.96
749.01	244.69
749.34	244.47
749.67	244.21
750.00	244.00
750.33	243.80
750.65	243.58
750.98	243.26
751.31	243.02
751.64	242.83
751.97	242.71
752.29	242.47
752.62	242.25
752.95	242.03
753.28	241.83
753.60	241.63
753.93	241.47
754.26	241.28
754.59	241.07
754.91	240.85
755.24	240.61
755.57	240.39
755.90	240.23
756.22	240.04
756.55	239.85
756.88	239.65
757.20	239.43
757.53	239.24
757.86	239.12
758.19	239.00
758.51	238.81
758.84	238.61
759.17	238.46
759.49	238.30
759.82	238.21
760.15	238.10
760.47	237.94
760.80	237.74
761.13	237.63
761.45	237.48
761.78	237.37
762.11	237.26
762.43	237.14
762.76	237.00
763.08	236.88
763.41	236.75
763.74	236.63
764.06	236.50
764.39	236.36
764.71	236.20
765.04	236.03
765.37	235.90
765.69	235.74
766.02	235.61
766.34	235.45
766.67	235.28
767.00	235.14
767.32	235.06
767.65	235.03
767.97	234.88
768.30	234.75
768.62	234.63
768.95	234.51
769.27	234.39
769.60	234.27
769.92	234.13
770.25	234.01
770.57	233.88
770.90	233.80
771.22	233.68
771.55	233.58
771.87	233.51
772.20	233.41
772.52	233.42
772.85	233.40
773.17	233.32
773.50	233.23
773.82	233.10
774.15	232.96
774.47	232.79
774.80	232.71
775.12	232.64
775.45	232.57
775.77	232.48
776.09	232.39
776.42	232.33
776.74	232.27
777.07	232.18
777.39	232.11
777.72	232.00
778.04	231.94
778.36	231.85
778.69	231.76
779.01	231.68
779.33	231.52
779.66	231.34
779.98	231.26
780.31	231.17
780.63	231.15
780.95	231.10
781.28	231.02
781.60	230.93
781.92	230.86
782.25	230.77
782.57	230.71
782.89	230.65
783.22	230.56
783.54	230.50
783.86	230.42
784.19	230.35
784.51	230.34
784.83	230.27
785.16	230.21
785.48	230.16
785.80	230.12
786.12	230.09
786.45	230.06
786.77	230.03
787.09	229.97
787.42	229.90
787.74	229.89
788.06	229.87
788.38	229.81
788.71	229.76
789.03	229.76
789.35	229.75
789.67	229.71
789.99	229.69
790.32	229.67
790.64	229.66
790.96	229.69
791.28	229.63
791.61	229.60
791.93	229.57
792.25	229.54
792.57	229.56
792.89	229.50
793.21	229.45
793.54	229.40
793.86	229.39
794.18	229.33
794.50	229.25
794.82	229.21
795.14	229.20
795.47	229.21
795.79	229.16
796.11	229.10
796.43	229.06
796.75	229.03
797.07	228.99
797.39	228.96
797.71	228.87
798.04	228.84
798.36	228.81
798.68	228.79
799.00	228.75
799.32	228.70
799.64	228.65
799.96	228.62
800.28	228.58
800.60	228.52
800.92	228.50
801.24	228.45
801.56	228.41
801.89	228.36
802.21	228.32
802.53	228.27
802.85	228.26
803.17	228.26
803.49	228.21
803.81	228.16
804.13	228.11
804.45	228.06
804.77	228.02
805.09	227.98
805.41	227.90
805.73	227.87
806.05	227.78
806.37	227.74
806.69	227.70
807.01	227.68
807.33	227.66
807.65	227.61
807.97	227.66
808.28	227.66
808.60	227.64
808.92	227.60
809.24	227.62
809.56	227.56
809.88	227.52
810.20	227.51
810.52	227.48
810.84	227.46
811.16	227.44
811.48	227.37
811.80	227.37
812.12	227.37
812.43	227.35
812.75	227.37
813.07	227.35
813.39	227.36
813.71	227.33
814.03	227.31
814.35	227.30
814.67	227.25
814.98	227.19
815.30	227.18
815.62	227.16
815.94	227.06
816.26	227.07
816.58	227.03
816.89	227.02
817.21	226.99
817.53	226.99
817.85	226.97
818.17	226.97
818.48	226.95
818.80	226.96
819.12	226.96
819.44	226.90
819.76	226.87
820.07	226.85
820.39	226.83
820.71	226.82
821.03	226.80
821.34	226.78
821.66	226.78
821.98	226.75
822.30	226.72
822.61	226.78
822.93	226.73
823.25	226.71
823.57	226.67
823.88	226.69
824.20	226.66
824.52	226.65
824.83	226.62
825.15	226.56
825.47	226.53
825.79	226.50
826.10	226.48
826.42	226.49
826.74	226.47
827.05	226.46
827.37	226.45
827.69	226.45
828.00	226.42
828.32	226.41
828.64	226.41
828.95	226.46
829.27	226.39
829.58	226.37
829.90	226.38
830.22	226.36
830.53	226.32
830.85	226.32
831.17	226.29
831.48	226.28
831.80	226.30
832.11	226.29
832.43	226.28
832.75	226.27
833.06	226.30
833.38	226.28
833.69	226.27
834.01	226.27
834.32	226.28
834.64	226.27
834.96	226.27
835.27	226.25
835.59	226.25
835.90	226.23
836.22	226.25
836.53	226.21
836.85	226.21
837.16	226.32
837.48	226.30
837.79	226.31
838.11	226.34
838.42	226.33
838.74	226.32
839.05	226.30
839.37	226.27
839.68	226.23
840.00	226.21
840.31	226.19
840.63	226.18
840.94	226.16
841.26	226.14
841.57	226.13
841.88	226.13
842.20	226.06
842.51	226.06
842.83	226.06
843.14	226.16
843.46	226.17
843.77	226.12
844.08	226.12
844.40	226.11
844.71	226.10
845.03	226.09
845.34	226.11
845.65	226.10
845.97	226.13
846.28	226.13
846.60	226.17
846.91	226.16
847.22	226.14
847.54	226.14
847.85	226.16
848.16	226.13
848.48	226.11
848.79	226.16
849.10	226.17
849.42	226.18
849.73	226.09
850.04	226.08
850.36	226.05
850.67	226.07
850.98	226.05
851.30	226.06
851.61	226.06
851.92	226.06
852.23	226.08
852.55	226.09
852.86	226.10
853.17	226.09
853.49	226.13
853.80	226.12
854.11	226.11
854.42	226.09
854.74	226.10
855.05	226.13
855.36	226.07
855.67	226.05
855.99	226.03
856.30	226.12
856.61	226.11
856.92	226.09
857.23	226.09
857.55	226.08
857.86	226.06
858.17	226.06
858.48	226.04
858.79	226.01
859.11	226.02
859.42	226.01
859.73	225.99
860.04	226.00
860.35	226.01
860.66	225.99
860.98	225.99
861.29	225.97
861.60	225.93
861.91	225.93
862.22	225.92
862.53	225.93
862.84	225.83
863.16	225.87
863.47	225.85
863.78	225.83
864.09	225.85
864.40	225.88
864.71	225.89
865.02	225.88
865.33	225.87
865.64	225.80
865.95	225.80
866.27	225.83
866.58	225.77
866.89	225.74
867.20	225.72
867.51	225.71
867.82	225.72
868.13	225.76
868.44	225.76
868.75	225.77
869.06	225.77
869.37	225.78
869.68	225.73
869.99	225.75
870.30	225.72
870.61	225.71
870.92	225.66
871.23	225.63
871.54	225.63
871.85	225.65
872.16	225.66
872.47	225.66
872.78	225.63
873.09	225.67
873.40	225.68
873.71	225.69
874.02	225.68
874.33	225.67
874.64	225.66
874.95	225.68
875.26	225.67
875.56	225.67
875.87	225.63
876.18	225.61
876.49	225.69
876.80	225.71
877.11	225.69
877.42	225.74
877.73	225.73
878.04	225.72
878.35	225.72
878.66	225.76
878.96	225.76
879.27	225.75
879.58	225.73
879.89	225.73
880.20	225.76
880.51	225.76
880.82	225.76
881.12	225.80
881.43	225.76
881.74	225.77
882.05	225.75
882.36	225.81
882.67	225.83
882.97	225.70
883.28	225.68
883.59	225.69
883.90	225.63
884.21	225.67
884.51	225.69
884.82	225.65
885.13	225.67
885.44	225.66
885.74	225.64
886.05	225.65
886.36	225.65
886.67	225.59
886.98	225.65
887.28	225.67
887.59	225.60
887.90	225.60
888.20	225.59
888.51	225.61
888.82	225.56
889.13	225.55
889.43	225.66
889.74	225.63
890.05	225.61
890.35	225.60
890.66	225.57
890.97	225.54
891.28	225.53
891.58	225.48
891.89	225.45
892.20	225.44
892.50	225.39
892.81	225.42
893.12	225.43
893.42	225.34
893.73	225.31
894.04	225.35
894.34	225.36
894.65	225.35
894.95	225.33
895.26	225.31
895.57	225.35
895.87	225.24
896.18	225.29
896.48	225.28
896.79	225.29
897.10	225.28
897.40	225.30
897.71	225.31
898.01	225.32
898.32	225.34
898.63	225.36
898.93	225.39
899.24	225.35
899.54	225.36
899.85	225.36
900.15	225.38
900.46	225.34
900.76	225.31
901.07	225.28
901.38	225.28
901.68	225.28
901.99	225.22
902.29	225.24
902.60	225.25
902.90	225.25
903.21	225.27
903.51	225.29
903.82	225.29
904.12	225.35
904.43	225.34
904.73	225.31
905.03	225.30
905.34	225.38
905.64	225.35
905.95	225.35
906.25	225.34
906.56	225.33
906.86	225.36
907.17	225.38
907.47	225.41
907.77	225.40
908.08	225.39
908.38	225.40
908.69	225.40
908.99	225.41
909.30	225.41
909.60	225.37
909.90	225.36
910.21	225.36
910.51	225.28
910.81	225.27
911.12	225.32
911.42	225.32
911.73	225.25
912.03	225.25
912.33	225.27
912.64	225.29
912.94	225.29
913.24	225.30
913.55	225.29
913.85	225.27
914.15	225.30
914.46	225.35
914.76	225.37
915.06	225.35
915.37	225.31
915.67	225.30
915.97	225.34
916.27	225.32
916.58	225.29
916.88	225.33
917.18	225.34
917.49	225.38
917.79	225.35
918.09	225.38
918.39	225.41
918.70	225.40
919.00	225.42
919.30	225.49
919.60	225.46
919.91	225.44
920.21	225.45
920.51	225.41
920.81	225.40
921.12	225.39
921.42	225.40
921.72	225.40
922.02	225.40
922.32	225.37
922.63	225.40
922.93	225.46
923.23	225.47
923.53	225.49
923.83	225.44
924.13	225.49
924.44	225.45
924.74	225.48
925.04	225.49
925.34	225.48
925.64	225.40
925.94	225.41
926.24	225.43
926.55	225.41
926.85	225.43
927.15	225.43
927.45	225.45
927.75	225.45
928.05	225.46
928.35	225.44
928.65	225.47
928.95	225.49
929.26	225.44
929.56	225.44
929.86	225.43
930.16	225.40
930.46	225.37
930.76	225.36
931.06	225.31
931.36	225.27
931.66	225.26
931.96	225.24
932.26	225.23
932.56	225.24
932.86	225.26
933.16	225.25
933.46	225.22
933.76	225.14
934.06	225.18
934.36	225.20
934.66	225.24
934.96	225.23
935.26	225.21
935.56	225.26
935.86	225.21
936.16	225.19
936.46	225.19
936.76	225.19
937.06	225.20
937.36	225.18
937.66	225.20
937.96	225.24
938.26	225.22
938.56	225.24
938.86	225.25
939.16	225.28
939.46	225.29
939.76	225.29
940.06	225.33
940.35	225.26
940.65	225.24
940.95	225.22
941.25	225.24
941.55	225.22
941.85	225.19
942.15	225.24
942.45	225.27
942.75	225.28
943.04	225.32
943.34	225.34
943.64	225.36
943.94	225.35
944.24	225.34
944.54	225.39
944.84	225.37
945.13	225.36
945.43	225.31
945.73	225.29
946.03	225.31
946.33	225.30
946.62	225.32
946.92	225.31
947.22	225.33
947.52	225.30
947.82	225.33
948.11	225.31
948.41	225.29
948.71	225.27
949.01	225.28
949.31	225.24
949.60	225.23
949.90	225.22
950.20	225.18
950.50	225.18
950.79	225.14
951.09	225.17
951.39	225.20
951.69	225.20
951.98	225.23
952.28	225.22
952.58	225.19
952.87	225.22
953.17	225.25
953.47	225.26
953.76	225.27
954.06	225.21
954.36	225.20
954.66	225.20
954.95	225.24
955.25	225.25
955.55	225.21
955.84	225.21
956.14	225.21
956.44	225.26
956.73	225.24
957.03	225.26
957.32	225.21
957.62	225.16
957.92	225.18
958.21	225.18
958.51	225.27
958.81	225.31
959.10	225.30
959.40	225.29
959.69	225.28
959.99	225.27
960.29	225.29
960.58	225.29
960.88	225.29
961.17	225.21
961.47	225.21
961.76	225.23
962.06	225.23
962.36	225.22
962.65	225.20
962.95	225.22
963.24	225.20
963.54	225.22
963.83	225.23
964.13	225.21
964.42	225.17
964.72	225.11
965.01	225.08
965.31	225.07
965.60	225.05
965.90	225.09
966.19	225.07
966.49	225.10
966.78	225.09
967.08	225.07
967.37	225.09
967.67	225.07
967.96	225.13
968.26	225.14
968.55	225.15
968.85	225.14
969.14	225.10
969.43	225.09
969.73	225.09
970.02	225.08
970.32	225.07
970.61	225.09
970.91	225.08
971.20	225.05
971.49	225.06
971.79	225.06
972.08	224.99
972.38	224.98
972.67	224.94
972.96	224.97
973.26	224.96
973.55	225.01
973.85	224.99
974.14	224.94
974.43	224.94
974.73	224.91
975.02	224.89
975.31	224.89
975.61	224.88
975.90	224.86
976.19	224.85
976.49	224.87
976.78	224.87
977.07	224.86
977.37	224.91
977.66	224.90
977.95	224.90
978.24	224.94
978.54	224.97
978.83	224.98
979.12	224.94
979.42	224.94
979.71	224.93
980.00	224.92
980.29	224.90
980.59	224.89
980.88	224.93
981.17	224.96
981.46	224.94
981.76	224.97
982.05	225.05
982.34	225.09
982.63	225.08
982.93	225.07
983.22	225.09
983.51	225.07
983.80	225.10
984.09	225.11
984.39	225.11
984.68	225.09
984.97	225.11
985.26	225.15
985.55	225.18
985.85	225.17
986.14	225.23
986.43	225.27
986.72	225.28
987.01	225.24
987.30	225.24
987.59	225.24
987.89	225.22
988.18	225.17
988.47	225.14
988.76	225.13
989.05	225.15
989.34	225.14
989.63	225.17
989.92	225.16
990.22	225.12
990.51	225.12
990.80	225.17
991.09	225.16
991.38	225.18
991.67	225.17
991.96	225.15
992.25	225.11
992.54	225.09
992.83	225.08
993.12	225.08
993.41	225.11
993.70	225.15
993.99	225.17
994.28	225.16
994.58	225.17
994.87	225.17
995.16	225.12
995.45	225.09
995.74	225.05
996.03	225.04
996.32	225.05
996.61	225.06
996.90	225.02
997.19	225.01
997.48	224.99
997.77	224.97
998.06	225.00
998.34	224.98
998.63	224.95
998.92	224.93
999.21	224.94
999.50	224.92
999.79	224.94
1000.08	224.93
1000.37	224.97
1000.66	224.96
1000.95	224.99
1001.24	225.01
1001.53	225.04
1001.82	225.05
1002.11	225.05
1002.40	225.06
1002.68	225.08
1002.97	225.15
1003.26	225.14
1003.55	225.11
1003.84	225.13
1004.13	225.14
1004.42	225.16
1004.71	225.20
1004.99	225.25
1005.28	225.29
1005.57	225.27
1005.86	225.23
1006.15	225.23
1006.44	225.20
1006.72	225.20
1007.01	225.17
1007.30	225.18
1007.59	225.19
1007.88	225.16
1008.17	225.16
1008.45	225.15
1008.74	225.10
1009.03	225.04
1009.32	225.02
1009.60	225.04
1009.89	225.04
1010.18	225.01
1010.47	224.98
1010.76	224.97
1011.04	224.93
1011.33	224.92
1011.62	224.96
1011.91	224.97
1012.19	224.99
1012.48	224.99
1012.77	224.98
1013.05	225.01
1013.34	225.00
1013.63	224.97
1013.92	225.01
1014.20	225.02
1014.49	225.04
1014.78	225.05
1015.06	225.05
1015.35	225.07
1015.64	225.09
1015.92	225.07
1016.21	225.09
1016.50	225.10
1016.78	225.12
1017.07	225.13
1017.36	225.13
1017.64	225.11
1017.93	225.11
1018.22	225.08
1018.50	225.09
1018.79	225.10
1019.08	225.07
1019.36	225.10
1019.65	225.09
1019.93	225.08
1020.22	225.08
1020.51	225.14
1020.79	225.15
1021.08	225.10
1021.36	224.77
1021.65	225.22
1021.94	224.94
1022.22	225.34
1022.51	224.66
1022.79	225.12
1023.08	225.23
1023.36	226.57
1023.65	225.27
>>>>>End Processed Spectral Data<<<<<
