SpectraSuite Data File
++++++++++++++++++++++++++++++++++++
Date: Fri Feb 01 15:08:40 EST 2013
User: group
Dark Spectrum Present: No
Reference Spectrum Present: No
Number of Sampled Component Spectra: 1
Spectrometers: USB2E7196
Integration Time (usec): 35000 (USB2E7196)
Spectra Averaged: 100 (USB2E7196)
Boxcar Smoothing: 10 (USB2E7196)
Correct for Electrical Dark: No (USB2E7196)
Strobe/Lamp Enabled: No (USB2E7196)
Correct for Detector Non-linearity: No (USB2E7196)
Correct for Stray Light: No (USB2E7196)
Number of Pixels in Processed Spectrum: 2048
>>>>>Begin Processed Spectral Data<<<<<
339.09	0.00
339.48	215.10
339.86	216.91
340.24	217.74
340.63	219.45
341.01	221.74
341.39	222.21
341.78	223.41
342.16	224.71
342.54	225.21
342.93	213.59
343.31	224.41
343.69	224.97
344.07	225.46
344.46	225.91
344.84	226.31
345.22	226.58
345.60	226.83
345.99	227.02
346.37	227.17
346.75	227.27
347.13	227.33
347.52	227.36
347.90	227.46
348.28	227.51
348.66	227.55
349.05	227.54
349.43	227.57
349.81	227.63
350.19	227.64
350.57	227.69
350.96	227.76
351.34	227.83
351.72	227.89
352.10	227.95
352.48	228.02
352.87	228.05
353.25	228.12
353.63	228.17
354.01	228.27
354.39	228.35
354.77	228.43
355.15	228.52
355.54	228.57
355.92	228.59
356.30	228.66
356.68	228.79
357.06	228.83
357.44	228.90
357.82	228.95
358.20	229.05
358.58	229.09
358.97	229.13
359.35	229.17
359.73	229.27
360.11	229.32
360.49	229.38
360.87	229.43
361.25	229.47
361.63	229.55
362.01	229.56
362.39	229.54
362.77	229.57
363.15	229.59
363.53	229.63
363.91	229.68
364.29	229.71
364.67	229.64
365.05	229.65
365.43	229.64
365.81	229.64
366.19	229.64
366.57	229.70
366.95	229.68
367.33	229.66
367.71	229.61
368.09	229.61
368.47	229.57
368.85	229.54
369.23	229.54
369.61	229.46
369.99	229.46
370.37	229.46
370.75	229.46
371.13	229.39
371.51	229.34
371.89	229.30
372.27	229.22
372.65	229.12
373.03	229.08
373.41	229.01
373.78	228.99
374.16	228.88
374.54	228.77
374.92	228.70
375.30	228.61
375.68	228.52
376.06	228.46
376.44	228.40
376.82	228.34
377.19	228.22
377.57	228.17
377.95	228.05
378.33	227.96
378.71	227.84
379.09	227.80
379.47	227.74
379.84	227.65
380.22	227.56
380.60	227.52
380.98	227.44
381.36	227.38
381.73	227.29
382.11	227.29
382.49	227.25
382.87	227.17
383.25	227.11
383.62	227.18
384.00	227.08
384.38	227.04
384.76	226.99
385.13	226.98
385.51	226.92
385.89	226.86
386.27	226.80
386.64	226.75
387.02	226.69
387.40	226.63
387.78	226.58
388.15	226.56
388.53	226.50
388.91	226.48
389.29	226.48
389.66	226.42
390.04	226.36
390.42	226.31
390.79	226.29
391.17	226.29
391.55	226.16
391.92	226.21
392.30	226.19
392.68	226.18
393.05	226.21
393.43	226.25
393.81	226.30
394.18	226.30
394.56	226.32
394.94	226.36
395.31	226.40
395.69	226.45
396.06	226.50
396.44	226.56
396.82	226.57
397.19	226.67
397.57	226.73
397.95	226.83
398.32	226.90
398.70	227.00
399.07	227.09
399.45	227.17
399.82	227.21
400.20	227.27
400.58	227.36
400.95	227.41
401.33	227.49
401.70	227.63
402.08	227.76
402.45	227.85
402.83	227.99
403.20	228.09
403.58	228.24
403.95	228.39
404.33	228.54
404.71	228.72
405.08	228.89
405.46	229.03
405.83	229.21
406.21	229.36
406.58	229.53
406.96	229.68
407.33	229.86
407.70	230.05
408.08	230.36
408.45	230.60
408.83	230.83
409.20	231.05
409.58	231.24
409.95	231.52
410.33	231.84
410.70	232.08
411.08	232.43
411.45	232.71
411.82	233.00
412.20	233.34
412.57	233.76
412.95	234.04
413.32	234.49
413.69	234.89
414.07	235.33
414.44	235.79
414.82	236.29
415.19	236.84
415.56	237.40
415.94	237.96
416.31	238.58
416.68	239.21
417.06	239.93
417.43	240.60
417.81	241.35
418.18	242.14
418.55	242.97
418.93	243.82
419.30	244.72
419.67	245.66
420.04	246.61
420.42	247.57
420.79	248.74
421.16	249.86
421.54	251.03
421.91	252.26
422.28	253.50
422.66	254.83
423.03	256.15
423.40	257.51
423.77	258.88
424.15	260.28
424.52	261.75
424.89	263.34
425.26	264.89
425.64	266.38
426.01	267.95
426.38	269.59
426.75	271.30
427.13	273.04
427.50	274.89
427.87	276.77
428.24	278.68
428.61	280.42
428.99	282.33
429.36	284.44
429.73	286.49
430.10	288.52
430.47	290.59
430.85	292.67
431.22	294.89
431.59	297.30
431.96	299.57
432.33	302.07
432.70	304.47
433.08	307.30
433.45	309.91
433.82	312.53
434.19	315.44
434.56	318.21
434.93	320.86
435.30	323.46
435.68	326.36
436.05	329.18
436.42	331.96
436.79	334.48
437.16	337.15
437.53	340.01
437.90	342.82
438.27	345.58
438.64	348.44
439.01	351.03
439.38	353.26
439.75	355.40
440.13	357.90
440.50	360.25
440.87	362.08
441.24	364.05
441.61	366.18
441.98	367.70
442.35	369.51
442.72	371.38
443.09	373.19
443.46	374.18
443.83	374.76
444.20	375.29
444.57	376.15
444.94	376.50
445.31	376.80
445.68	377.16
446.05	377.23
446.42	376.83
446.79	376.42
447.16	376.00
447.53	375.68
447.90	374.53
448.27	373.34
448.64	371.74
449.01	370.56
449.37	368.61
449.74	366.66
450.11	364.38
450.48	361.94
450.85	359.43
451.22	357.30
451.59	355.26
451.96	353.31
452.33	350.76
452.70	348.37
453.07	345.56
453.43	342.65
453.80	339.87
454.17	337.16
454.54	334.61
454.91	331.88
455.28	329.20
455.65	326.68
456.02	324.26
456.38	322.13
456.75	319.48
457.12	317.22
457.49	315.05
457.86	312.85
458.23	310.97
458.59	308.85
458.96	306.75
459.33	304.86
459.70	302.97
460.07	301.41
460.43	299.67
460.80	298.05
461.17	296.59
461.54	295.11
461.91	293.71
462.27	292.26
462.64	290.99
463.01	289.63
463.38	288.36
463.74	286.97
464.11	285.79
464.48	284.79
464.85	283.66
465.21	282.76
465.58	281.85
465.95	280.75
466.32	279.87
466.68	278.95
467.05	278.09
467.42	277.22
467.78	276.28
468.15	275.41
468.52	274.73
468.88	273.88
469.25	273.09
469.62	272.45
469.98	271.76
470.35	271.11
470.72	270.55
471.08	269.85
471.45	269.31
471.82	268.76
472.18	268.07
472.55	267.65
472.92	267.08
473.28	266.60
473.65	266.06
474.02	265.61
474.38	265.22
474.75	264.89
475.11	264.54
475.48	264.26
475.85	264.01
476.21	263.75
476.58	263.54
476.94	263.37
477.31	263.22
477.67	263.04
478.04	262.91
478.41	262.78
478.77	262.81
479.14	262.73
479.50	262.71
479.87	262.79
480.23	262.88
480.60	262.96
480.96	263.06
481.33	263.31
481.69	263.52
482.06	263.72
482.42	263.92
482.79	264.17
483.15	264.52
483.52	264.89
483.88	265.22
484.25	265.64
484.61	266.05
484.98	266.48
485.34	267.07
485.71	267.69
486.07	268.28
486.44	268.85
486.80	269.58
487.17	270.33
487.53	271.18
487.90	271.97
488.26	272.87
488.62	273.85
488.99	274.79
489.35	275.81
489.72	276.92
490.08	278.09
490.44	279.30
490.81	280.62
491.17	281.97
491.54	283.46
491.90	284.93
492.26	286.60
492.63	288.30
492.99	290.06
493.36	291.94
493.72	294.02
494.08	296.13
494.45	298.37
494.81	300.71
495.17	303.13
495.54	305.70
495.90	308.42
496.26	311.24
496.63	314.25
496.99	317.35
497.35	320.63
497.72	324.04
498.08	327.55
498.44	331.20
498.80	335.09
499.17	339.12
499.53	343.31
499.89	347.69
500.26	352.19
500.62	356.85
500.98	361.76
501.34	366.77
501.71	372.12
502.07	377.50
502.43	383.11
502.79	388.91
503.16	394.98
503.52	401.21
503.88	407.58
504.24	414.18
504.60	421.04
504.97	428.10
505.33	435.41
505.69	443.11
506.05	450.79
506.41	458.65
506.78	466.78
507.14	475.19
507.50	483.87
507.86	492.89
508.22	502.08
508.59	511.26
508.95	520.90
509.31	530.62
509.67	540.70
510.03	550.97
510.39	561.53
510.75	572.32
511.12	583.27
511.48	594.64
511.84	606.06
512.20	617.59
512.56	629.55
512.92	641.76
513.28	654.10
513.64	666.66
514.00	679.46
514.37	692.45
514.73	705.60
515.09	718.63
515.45	731.92
515.81	745.53
516.17	759.54
516.53	773.65
516.89	787.94
517.25	802.19
517.61	816.57
517.97	831.05
518.33	845.51
518.69	860.31
519.05	875.18
519.41	890.40
519.77	905.95
520.13	921.43
520.49	936.78
520.85	952.21
521.21	967.98
521.57	984.25
521.93	1000.10
522.29	1016.52
522.65	1032.93
523.01	1049.26
523.37	1065.32
523.73	1081.50
524.09	1097.67
524.45	1113.98
524.81	1130.60
525.17	1147.56
525.53	1164.55
525.89	1181.49
526.25	1198.41
526.61	1214.93
526.97	1231.63
527.33	1248.26
527.68	1264.94
528.04	1281.60
528.40	1298.46
528.76	1315.61
529.12	1332.26
529.48	1349.15
529.84	1365.18
530.20	1381.84
530.56	1399.00
530.91	1416.46
531.27	1433.30
531.63	1449.78
531.99	1466.46
532.35	1482.55
532.71	1498.42
533.07	1514.73
533.42	1530.75
533.78	1546.78
534.14	1563.16
534.50	1578.76
534.86	1594.63
535.21	1609.91
535.57	1625.87
535.93	1641.35
536.29	1656.26
536.65	1671.34
537.00	1686.16
537.36	1701.51
537.72	1716.15
538.08	1730.45
538.44	1744.36
538.79	1758.51
539.15	1772.26
539.51	1786.13
539.87	1800.58
540.22	1814.47
540.58	1828.35
540.94	1841.81
541.29	1854.96
541.65	1867.74
542.01	1881.01
542.37	1893.38
542.72	1905.88
543.08	1917.64
543.44	1930.07
543.79	1941.22
544.15	1952.40
544.51	1964.04
544.87	1975.02
545.22	1985.87
545.58	1996.20
545.94	2005.99
546.29	2015.89
546.65	2025.87
547.01	2034.98
547.36	2043.74
547.72	2052.28
548.07	2060.21
548.43	2068.24
548.79	2076.18
549.14	2083.76
549.50	2091.04
549.86	2098.79
550.21	2106.03
550.57	2113.16
550.92	2119.80
551.28	2126.88
551.64	2133.88
551.99	2140.46
552.35	2146.74
552.70	2152.83
553.06	2158.77
553.41	2165.19
553.77	2171.05
554.13	2177.00
554.48	2183.12
554.84	2188.46
555.19	2193.69
555.55	2198.63
555.90	2203.14
556.26	2207.96
556.61	2212.64
556.97	2216.77
557.32	2220.97
557.68	2225.15
558.03	2229.58
558.39	2233.17
558.74	2237.81
559.10	2241.61
559.45	2245.17
559.81	2249.38
560.16	2253.16
560.52	2256.38
560.87	2259.65
561.23	2262.15
561.58	2265.14
561.94	2267.65
562.29	2270.14
562.64	2272.90
563.00	2275.67
563.35	2279.11
563.71	2282.24
564.06	2285.42
564.42	2288.38
564.77	2290.63
565.12	2292.72
565.48	2294.34
565.83	2296.13
566.19	2297.24
566.54	2298.22
566.89	2299.32
567.25	2299.83
567.60	2301.17
567.96	2302.78
568.31	2303.55
568.66	2304.66
569.02	2305.09
569.37	2305.35
569.72	2305.99
570.08	2305.95
570.43	2305.76
570.78	2304.99
571.14	2303.33
571.49	2301.99
571.84	2301.57
572.20	2300.36
572.55	2299.36
572.90	2297.79
573.26	2296.38
573.61	2294.69
573.96	2292.73
574.31	2289.61
574.67	2286.56
575.02	2282.71
575.37	2279.26
575.72	2275.39
576.08	2272.09
576.43	2268.74
576.78	2264.92
577.13	2261.71
577.49	2258.52
577.84	2254.95
578.19	2251.30
578.54	2247.46
578.90	2242.96
579.25	2237.31
579.60	2232.29
579.95	2227.13
580.30	2222.03
580.66	2216.69
581.01	2211.63
581.36	2206.61
581.71	2202.29
582.06	2197.56
582.42	2193.06
582.77	2187.68
583.12	2183.00
583.47	2177.94
583.82	2172.70
584.17	2167.42
584.53	2161.82
584.88	2156.13
585.23	2150.14
585.58	2144.48
585.93	2139.07
586.28	2134.22
586.63	2128.98
586.98	2123.71
587.34	2118.87
587.69	2113.78
588.04	2108.32
588.39	2102.53
588.74	2095.94
589.09	2089.75
589.44	2082.91
589.79	2076.70
590.14	2071.00
590.49	2064.30
590.84	2057.94
591.19	2051.78
591.54	2045.20
591.89	2037.56
592.25	2030.65
592.60	2023.39
592.95	2015.67
593.30	2008.19
593.65	2000.48
594.00	1993.43
594.35	1986.26
594.70	1978.23
595.05	1970.97
595.40	1963.60
595.75	1956.02
596.10	1949.63
596.45	1942.76
596.80	1936.53
597.15	1929.80
597.50	1922.51
597.85	1916.06
598.19	1909.35
598.54	1902.23
598.89	1895.58
599.24	1889.68
599.59	1882.85
599.94	1876.52
600.29	1870.20
600.64	1863.58
600.99	1856.09
601.34	1849.20
601.69	1842.12
602.04	1835.10
602.39	1827.80
602.74	1820.97
603.08	1814.31
603.43	1807.70
603.78	1800.41
604.13	1793.16
604.48	1785.69
604.83	1778.91
605.18	1771.77
605.53	1763.81
605.87	1755.81
606.22	1748.55
606.57	1740.73
606.92	1733.41
607.27	1726.27
607.62	1719.30
607.96	1711.93
608.31	1705.21
608.66	1697.51
609.01	1689.93
609.36	1682.35
609.70	1674.32
610.05	1666.31
610.40	1658.47
610.75	1650.09
611.10	1642.45
611.44	1634.14
611.79	1626.26
612.14	1617.46
612.49	1608.41
612.83	1600.07
613.18	1591.97
613.53	1583.88
613.88	1575.33
614.22	1566.96
614.57	1558.51
614.92	1550.51
615.27	1542.89
615.61	1534.61
615.96	1526.66
616.31	1519.26
616.65	1511.93
617.00	1504.47
617.35	1496.83
617.70	1488.42
618.04	1479.91
618.39	1471.71
618.74	1464.11
619.08	1455.98
619.43	1448.55
619.78	1441.69
620.12	1434.44
620.47	1426.94
620.82	1418.82
621.16	1411.42
621.51	1403.88
621.85	1396.18
622.20	1387.66
622.55	1379.41
622.89	1371.66
623.24	1364.05
623.59	1356.66
623.93	1349.16
624.28	1341.92
624.62	1334.43
624.97	1327.46
625.32	1320.73
625.66	1313.62
626.01	1306.31
626.35	1298.84
626.70	1291.21
627.04	1283.44
627.39	1275.72
627.73	1268.30
628.08	1261.39
628.43	1254.04
628.77	1246.63
629.12	1239.05
629.46	1231.87
629.81	1224.58
630.15	1217.32
630.50	1209.95
630.84	1201.72
631.19	1193.83
631.53	1186.31
631.88	1178.62
632.22	1170.94
632.57	1163.63
632.91	1156.21
633.26	1148.96
633.60	1141.64
633.95	1134.55
634.29	1127.52
634.64	1120.85
634.98	1113.51
635.32	1106.44
635.67	1099.99
636.01	1093.49
636.36	1086.73
636.70	1080.24
637.05	1073.60
637.39	1067.24
637.73	1060.76
638.08	1054.85
638.42	1048.90
638.77	1042.46
639.11	1035.99
639.45	1029.66
639.80	1023.01
640.14	1016.59
640.49	1010.03
640.83	1003.71
641.17	997.33
641.52	991.12
641.86	984.77
642.20	979.07
642.55	972.75
642.89	966.16
643.23	959.66
643.58	953.90
643.92	947.69
644.26	941.61
644.61	935.65
644.95	929.62
645.29	922.97
645.64	916.28
645.98	909.97
646.32	904.25
646.66	898.26
647.01	892.61
647.35	886.96
647.69	881.22
648.04	875.68
648.38	869.97
648.72	863.90
649.06	857.80
649.41	851.83
649.75	845.81
650.09	839.89
650.43	834.07
650.78	827.95
651.12	822.11
651.46	816.40
651.80	810.52
652.14	805.10
652.49	799.77
652.83	794.61
653.17	788.90
653.51	783.12
653.85	777.77
654.20	772.04
654.54	766.05
654.88	760.33
655.22	754.57
655.56	748.92
655.90	743.57
656.25	738.39
656.59	733.11
656.93	728.08
657.27	722.98
657.61	717.60
657.95	712.59
658.29	707.56
658.64	702.38
658.98	697.19
659.32	691.82
659.66	686.67
660.00	681.37
660.34	676.48
660.68	671.62
661.02	666.58
661.36	661.89
661.70	657.41
662.05	653.06
662.39	648.68
662.73	644.25
663.07	639.84
663.41	635.41
663.75	630.89
664.09	626.37
664.43	622.02
664.77	617.92
665.11	613.60
665.45	609.43
665.79	605.37
666.13	601.25
666.47	597.15
666.81	593.00
667.15	588.92
667.49	585.09
667.83	581.25
668.17	577.36
668.51	573.29
668.85	569.25
669.19	565.38
669.53	561.54
669.87	557.64
670.21	553.91
670.55	550.23
670.89	546.86
671.23	543.42
671.57	539.89
671.91	536.33
672.25	532.88
672.58	529.37
672.92	526.01
673.26	522.88
673.60	519.73
673.94	516.62
674.28	513.67
674.62	510.68
674.96	507.58
675.30	504.71
675.64	501.82
675.97	499.06
676.31	496.24
676.65	493.28
676.99	490.64
677.33	487.87
677.67	485.07
678.01	482.01
678.34	479.02
678.68	476.19
679.02	473.40
679.36	470.64
679.70	467.93
680.04	465.14
680.37	462.21
680.71	459.46
681.05	456.88
681.39	454.20
681.73	451.59
682.06	449.10
682.40	446.49
682.74	443.97
683.08	441.52
683.42	438.89
683.75	436.46
684.09	433.90
684.43	431.41
684.77	428.99
685.10	426.66
685.44	424.37
685.78	422.06
686.12	419.82
686.45	417.56
686.79	415.30
687.13	413.14
687.46	411.06
687.80	408.95
688.14	406.74
688.48	404.67
688.81	402.38
689.15	400.25
689.49	398.14
689.82	396.07
690.16	393.98
690.50	392.03
690.83	390.08
691.17	388.09
691.51	386.23
691.84	384.35
692.18	382.45
692.52	380.47
692.85	378.63
693.19	376.78
693.52	375.00
693.86	373.22
694.20	371.43
694.53	369.57
694.87	367.69
695.21	365.92
695.54	364.11
695.88	362.48
696.21	360.76
696.55	359.10
696.88	357.42
697.22	355.76
697.56	354.20
697.89	352.53
698.23	351.01
698.56	349.40
698.90	347.81
699.23	346.15
699.57	344.65
699.90	343.11
700.24	341.54
700.58	339.96
700.91	338.47
701.25	337.04
701.58	335.70
701.92	334.37
702.25	332.99
702.59	331.68
702.92	330.31
703.26	329.02
703.59	327.70
703.93	326.54
704.26	325.34
704.60	324.03
704.93	322.78
705.26	321.51
705.60	320.36
705.93	319.24
706.27	318.23
706.60	317.18
706.94	316.09
707.27	314.98
707.61	313.97
707.94	312.95
708.27	311.86
708.61	310.78
708.94	309.74
709.28	308.76
709.61	307.80
709.94	306.85
710.28	305.85
710.61	304.89
710.95	303.80
711.28	302.87
711.61	301.93
711.95	301.03
712.28	300.06
712.61	299.03
712.95	298.09
713.28	297.15
713.61	296.22
713.95	295.34
714.28	294.45
714.61	293.58
714.95	292.72
715.28	291.87
715.61	291.04
715.95	290.20
716.28	289.36
716.61	288.49
716.95	287.69
717.28	286.91
717.61	286.14
717.94	285.44
718.28	284.61
718.61	283.86
718.94	283.19
719.27	282.55
719.61	281.89
719.94	281.22
720.27	280.54
720.60	279.89
720.94	279.25
721.27	278.71
721.60	278.10
721.93	277.51
722.27	276.95
722.60	276.37
722.93	275.80
723.26	275.25
723.59	274.72
723.93	274.18
724.26	273.68
724.59	273.15
724.92	272.61
725.25	272.13
725.59	271.64
725.92	271.14
726.25	270.64
726.58	270.16
726.91	269.67
727.24	269.25
727.57	268.80
727.91	268.29
728.24	267.84
728.57	267.40
728.90	266.95
729.23	266.48
729.56	266.08
729.89	265.64
730.22	265.18
730.55	264.70
730.89	264.24
731.22	263.76
731.55	263.33
731.88	262.91
732.21	262.52
732.54	262.08
732.87	261.64
733.20	261.26
733.53	260.92
733.86	260.53
734.19	260.11
734.52	259.71
734.85	259.40
735.18	258.97
735.51	258.61
735.84	258.22
736.17	257.89
736.50	257.48
736.83	257.25
737.16	256.91
737.49	256.60
737.82	256.27
738.15	255.97
738.48	255.63
738.81	255.30
739.14	254.98
739.47	254.65
739.80	254.34
740.13	254.02
740.46	253.69
740.79	253.40
741.12	253.10
741.45	252.83
741.78	252.51
742.11	252.25
742.44	251.92
742.77	251.63
743.10	251.30
743.43	251.03
743.75	250.64
744.08	250.50
744.41	250.23
744.74	249.98
745.07	249.69
745.40	249.48
745.73	249.25
746.06	248.95
746.39	248.69
746.71	248.40
747.04	248.14
747.37	247.85
747.70	247.60
748.03	247.35
748.36	247.13
748.68	246.85
749.01	246.59
749.34	246.34
749.67	246.11
750.00	245.90
750.33	245.70
750.65	245.50
750.98	245.15
751.31	244.94
751.64	244.73
751.97	244.54
752.29	244.30
752.62	244.04
752.95	243.85
753.28	243.63
753.60	243.45
753.93	243.25
754.26	243.06
754.59	242.85
754.91	242.65
755.24	242.43
755.57	242.26
755.90	242.08
756.22	241.85
756.55	241.68
756.88	241.49
757.20	241.24
757.53	241.00
757.86	240.80
758.19	240.62
758.51	240.47
758.84	240.26
759.17	240.11
759.49	239.95
759.82	239.81
760.15	239.68
760.47	239.52
760.80	239.36
761.13	239.23
761.45	239.10
761.78	238.92
762.11	238.78
762.43	238.62
762.76	238.47
763.08	238.38
763.41	238.22
763.74	238.07
764.06	237.99
764.39	237.85
764.71	237.77
765.04	237.66
765.37	237.47
765.69	237.34
766.02	237.21
766.34	237.09
766.67	236.93
767.00	236.83
767.32	236.76
767.65	236.69
767.97	236.57
768.30	236.43
768.62	236.33
768.95	236.21
769.27	236.12
769.60	236.07
769.92	235.95
770.25	235.85
770.57	235.75
770.90	235.69
771.22	235.63
771.55	235.50
771.87	235.39
772.20	235.29
772.52	235.30
772.85	235.30
773.17	235.21
773.50	235.15
773.82	235.03
774.15	234.89
774.47	234.73
774.80	234.66
775.12	234.56
775.45	234.48
775.77	234.43
776.09	234.35
776.42	234.27
776.74	234.24
777.07	234.19
777.39	234.13
777.72	234.01
778.04	233.94
778.36	233.88
778.69	233.79
779.01	233.76
779.33	233.64
779.66	233.48
779.98	233.41
780.31	233.32
780.63	233.32
780.95	233.25
781.28	233.20
781.60	233.16
781.92	233.09
782.25	233.05
782.57	232.97
782.89	232.90
783.22	232.80
783.54	232.70
783.86	232.67
784.19	232.60
784.51	232.54
784.83	232.47
785.16	232.46
785.48	232.42
785.80	232.36
786.12	232.29
786.45	232.26
786.77	232.21
787.09	232.19
787.42	232.12
787.74	232.09
788.06	232.06
788.38	231.98
788.71	231.96
789.03	231.91
789.35	231.89
789.67	231.82
789.99	231.80
790.32	231.78
790.64	231.70
790.96	231.71
791.28	231.66
791.61	231.62
791.93	231.56
792.25	231.50
792.57	231.50
792.89	231.44
793.21	231.40
793.54	231.34
793.86	231.26
794.18	231.20
794.50	231.12
794.82	231.06
795.14	231.05
795.47	231.02
795.79	230.96
796.11	230.87
796.43	230.83
796.75	230.78
797.07	230.70
797.39	230.66
797.71	230.58
798.04	230.55
798.36	230.52
798.68	230.45
799.00	230.43
799.32	230.33
799.64	230.31
799.96	230.30
800.28	230.29
800.60	230.24
800.92	230.21
801.24	230.20
801.56	230.19
801.89	230.14
802.21	230.08
802.53	230.09
802.85	230.14
803.17	230.15
803.49	230.12
803.81	230.10
804.13	230.07
804.45	230.03
804.77	230.01
805.09	229.97
805.41	229.94
805.73	229.92
806.05	229.91
806.37	229.89
806.69	229.86
807.01	229.86
807.33	229.86
807.65	229.80
807.97	229.83
808.28	229.78
808.60	229.75
808.92	229.74
809.24	229.77
809.56	229.69
809.88	229.64
810.20	229.62
810.52	229.63
810.84	229.61
811.16	229.60
811.48	229.57
811.80	229.59
812.12	229.57
812.43	229.59
812.75	229.56
813.07	229.51
813.39	229.47
813.71	229.44
814.03	229.41
814.35	229.43
814.67	229.35
814.98	229.35
815.30	229.33
815.62	229.30
815.94	229.21
816.26	229.24
816.58	229.22
816.89	229.21
817.21	229.14
817.53	229.14
817.85	229.14
818.17	229.12
818.48	229.08
818.80	229.07
819.12	229.02
819.44	228.99
819.76	228.97
820.07	228.92
820.39	228.90
820.71	228.91
821.03	228.88
821.34	228.86
821.66	228.86
821.98	228.84
822.30	228.82
822.61	228.88
822.93	228.79
823.25	228.76
823.57	228.70
823.88	228.72
824.20	228.68
824.52	228.64
824.83	228.64
825.15	228.61
825.47	228.64
825.79	228.60
826.10	228.58
826.42	228.56
826.74	228.57
827.05	228.55
827.37	228.54
827.69	228.50
828.00	228.50
828.32	228.47
828.64	228.46
828.95	228.46
829.27	228.41
829.58	228.39
829.90	228.42
830.22	228.46
830.53	228.40
830.85	228.36
831.17	228.33
831.48	228.30
831.80	228.27
832.11	228.20
832.43	228.19
832.75	228.17
833.06	228.19
833.38	228.17
833.69	228.15
834.01	228.13
834.32	228.11
834.64	228.08
834.96	228.06
835.27	228.02
835.59	228.01
835.90	227.94
836.22	227.94
836.53	227.87
836.85	227.81
837.16	227.92
837.48	227.93
837.79	227.93
838.11	227.92
838.42	227.92
838.74	227.92
839.05	227.91
839.37	227.91
839.68	227.85
840.00	227.80
840.31	227.81
840.63	227.77
840.94	227.77
841.26	227.74
841.57	227.72
841.88	227.76
842.20	227.71
842.51	227.72
842.83	227.68
843.14	227.78
843.46	227.82
843.77	227.76
844.08	227.71
844.40	227.69
844.71	227.69
845.03	227.69
845.34	227.72
845.65	227.70
845.97	227.71
846.28	227.70
846.60	227.75
846.91	227.72
847.22	227.73
847.54	227.75
847.85	227.78
848.16	227.79
848.48	227.74
848.79	227.81
849.10	227.80
849.42	227.84
849.73	227.76
850.04	227.73
850.36	227.71
850.67	227.74
850.98	227.76
851.30	227.77
851.61	227.77
851.92	227.76
852.23	227.82
852.55	227.82
852.86	227.84
853.17	227.87
853.49	227.89
853.80	227.91
854.11	227.91
854.42	227.93
854.74	227.93
855.05	227.97
855.36	227.93
855.67	227.98
855.99	228.00
856.30	228.13
856.61	228.18
856.92	228.19
857.23	228.20
857.55	228.19
857.86	228.23
858.17	228.26
858.48	228.22
858.79	228.16
859.11	228.18
859.42	228.17
859.73	228.14
860.04	228.14
860.35	228.12
860.66	228.10
860.98	228.09
861.29	228.10
861.60	228.08
861.91	228.08
862.22	228.05
862.53	228.05
862.84	227.89
863.16	227.87
863.47	227.87
863.78	227.85
864.09	227.82
864.40	227.79
864.71	227.73
865.02	227.74
865.33	227.73
865.64	227.70
865.95	227.70
866.27	227.73
866.58	227.74
866.89	227.74
867.20	227.74
867.51	227.72
867.82	227.69
868.13	227.71
868.44	227.67
868.75	227.65
869.06	227.62
869.37	227.62
869.68	227.60
869.99	227.59
870.30	227.59
870.61	227.60
870.92	227.56
871.23	227.57
871.54	227.58
871.85	227.61
872.16	227.60
872.47	227.60
872.78	227.53
873.09	227.47
873.40	227.42
873.71	227.41
874.02	227.38
874.33	227.36
874.64	227.32
874.95	227.34
875.26	227.33
875.56	227.33
875.87	227.32
876.18	227.30
876.49	227.37
876.80	227.34
877.11	227.32
877.42	227.34
877.73	227.35
878.04	227.34
878.35	227.34
878.66	227.34
878.96	227.35
879.27	227.35
879.58	227.38
879.89	227.38
880.20	227.40
880.51	227.40
880.82	227.36
881.12	227.37
881.43	227.36
881.74	227.37
882.05	227.35
882.36	227.38
882.67	227.38
882.97	227.27
883.28	227.28
883.59	227.29
883.90	227.28
884.21	227.27
884.51	227.25
884.82	227.23
885.13	227.23
885.44	227.19
885.74	227.21
886.05	227.18
886.36	227.20
886.67	227.19
886.98	227.29
887.28	227.37
887.59	227.36
887.90	227.38
888.20	227.33
888.51	227.38
888.82	227.36
889.13	227.41
889.43	227.50
889.74	227.48
890.05	227.48
890.35	227.48
890.66	227.47
890.97	227.48
891.28	227.48
891.58	227.53
891.89	227.55
892.20	227.53
892.50	227.57
892.81	227.56
893.12	227.58
893.42	227.47
893.73	227.48
894.04	227.51
894.34	227.51
894.65	227.56
894.95	227.54
895.26	227.57
895.57	227.60
895.87	227.52
896.18	227.56
896.48	227.61
896.79	227.64
897.10	227.68
897.40	227.69
897.71	227.71
898.01	227.68
898.32	227.70
898.63	227.72
898.93	227.74
899.24	227.71
899.54	227.72
899.85	227.73
900.15	227.71
900.46	227.73
900.76	227.70
901.07	227.72
901.38	227.68
901.68	227.66
901.99	227.59
902.29	227.60
902.60	227.58
902.90	227.53
903.21	227.50
903.51	227.47
903.82	227.46
904.12	227.45
904.43	227.42
904.73	227.41
905.03	227.39
905.34	227.44
905.64	227.47
905.95	227.47
906.25	227.44
906.56	227.43
906.86	227.39
907.17	227.39
907.47	227.38
907.77	227.40
908.08	227.37
908.38	227.35
908.69	227.31
908.99	227.32
909.30	227.34
909.60	227.34
909.90	227.32
910.21	227.30
910.51	227.27
910.81	227.28
911.12	227.27
911.42	227.28
911.73	227.18
912.03	227.15
912.33	227.15
912.64	227.18
912.94	227.17
913.24	227.15
913.55	227.13
913.85	227.15
914.15	227.16
914.46	227.18
914.76	227.16
915.06	227.19
915.37	227.18
915.67	227.15
915.97	227.14
916.27	227.12
916.58	227.12
916.88	227.13
917.18	227.11
917.49	227.18
917.79	227.16
918.09	227.19
918.39	227.23
918.70	227.23
919.00	227.21
919.30	227.25
919.60	227.25
919.91	227.27
920.21	227.23
920.51	227.17
920.81	227.14
921.12	227.22
921.42	227.20
921.72	227.20
922.02	227.20
922.32	227.23
922.63	227.27
922.93	227.33
923.23	227.34
923.53	227.33
923.83	227.27
924.13	227.26
924.44	227.25
924.74	227.29
925.04	227.29
925.34	227.27
925.64	227.25
925.94	227.27
926.24	227.29
926.55	227.31
926.85	227.35
927.15	227.37
927.45	227.33
927.75	227.32
928.05	227.32
928.35	227.33
928.65	227.33
928.95	227.30
929.26	227.27
929.56	227.29
929.86	227.35
930.16	227.37
930.46	227.37
930.76	227.39
931.06	227.34
931.36	227.34
931.66	227.38
931.96	227.39
932.26	227.41
932.56	227.38
932.86	227.37
933.16	227.38
933.46	227.39
933.76	227.40
934.06	227.46
934.36	227.53
934.66	227.51
934.96	227.50
935.26	227.55
935.56	227.56
935.86	227.51
936.16	227.48
936.46	227.47
936.76	227.45
937.06	227.40
937.36	227.45
937.66	227.48
937.96	227.45
938.26	227.43
938.56	227.41
938.86	227.42
939.16	227.43
939.46	227.44
939.76	227.43
940.06	227.40
940.35	227.37
940.65	227.29
940.95	227.31
941.25	227.29
941.55	227.26
941.85	227.24
942.15	227.27
942.45	227.31
942.75	227.26
943.04	227.28
943.34	227.30
943.64	227.27
943.94	227.24
944.24	227.25
944.54	227.23
944.84	227.26
945.13	227.22
945.43	227.19
945.73	227.18
946.03	227.14
946.33	227.15
946.62	227.15
946.92	227.14
947.22	227.15
947.52	227.13
947.82	227.15
948.11	227.12
948.41	227.10
948.71	227.06
949.01	227.07
949.31	227.05
949.60	227.04
949.90	227.03
950.20	227.01
950.50	227.06
950.79	227.08
951.09	227.05
951.39	227.07
951.69	227.07
951.98	227.09
952.28	227.11
952.58	227.09
952.87	227.08
953.17	227.09
953.47	227.10
953.76	227.10
954.06	227.10
954.36	227.12
954.66	227.09
954.95	227.09
955.25	227.14
955.55	227.14
955.84	227.12
956.14	227.11
956.44	227.11
956.73	227.02
957.03	227.02
957.32	227.00
957.62	227.00
957.92	227.03
958.21	227.02
958.51	227.10
958.81	227.12
959.10	227.13
959.40	227.14
959.69	227.12
959.99	227.11
960.29	227.09
960.58	227.08
960.88	227.15
961.17	227.16
961.47	227.15
961.76	227.17
962.06	227.20
962.36	227.19
962.65	227.19
962.95	227.20
963.24	227.20
963.54	227.25
963.83	227.25
964.13	227.24
964.42	227.20
964.72	227.18
965.01	227.18
965.31	227.18
965.60	227.16
965.90	227.24
966.19	227.25
966.49	227.25
966.78	227.22
967.08	227.20
967.37	227.22
967.67	227.23
967.96	227.22
968.26	227.18
968.55	227.21
968.85	227.21
969.14	227.21
969.43	227.22
969.73	227.21
970.02	227.21
970.32	227.21
970.61	227.21
970.91	227.16
971.20	227.15
971.49	227.16
971.79	227.21
972.08	227.13
972.38	227.13
972.67	227.15
972.96	227.19
973.26	227.19
973.55	227.21
973.85	227.19
974.14	227.21
974.43	227.24
974.73	227.23
975.02	227.24
975.31	227.23
975.61	227.23
975.90	227.23
976.19	227.23
976.49	227.24
976.78	227.26
977.07	227.27
977.37	227.26
977.66	227.27
977.95	227.23
978.24	227.24
978.54	227.25
978.83	227.25
979.12	227.23
979.42	227.22
979.71	227.21
980.00	227.18
980.29	227.16
980.59	227.14
980.88	227.15
981.17	227.13
981.46	227.15
981.76	227.13
982.05	227.15
982.34	227.13
982.63	227.11
982.93	227.09
983.22	227.08
983.51	227.10
983.80	227.09
984.09	227.10
984.39	227.07
984.68	227.05
984.97	227.05
985.26	227.03
985.55	227.05
985.85	227.03
986.14	227.03
986.43	227.02
986.72	227.00
987.01	226.96
987.30	226.97
987.59	226.95
987.89	226.93
988.18	226.90
988.47	226.89
988.76	226.90
989.05	226.91
989.34	226.88
989.63	226.92
989.92	226.90
990.22	226.87
990.51	226.87
990.80	226.89
991.09	226.87
991.38	226.91
991.67	226.89
991.96	226.88
992.25	226.92
992.54	226.91
992.83	226.94
993.12	226.95
993.41	226.96
993.70	227.01
993.99	227.06
994.28	227.09
994.58	227.09
994.87	227.06
995.16	227.03
995.45	227.02
995.74	226.98
996.03	226.98
996.32	227.02
996.61	227.04
996.90	227.04
997.19	227.05
997.48	227.01
997.77	227.01
998.06	227.02
998.34	226.98
998.63	226.97
998.92	227.00
999.21	227.01
999.50	227.02
999.79	226.98
1000.08	226.99
1000.37	226.98
1000.66	227.00
1000.95	227.02
1001.24	227.01
1001.53	227.05
1001.82	227.07
1002.11	227.05
1002.40	227.03
1002.68	227.08
1002.97	227.17
1003.26	227.17
1003.55	227.20
1003.84	227.19
1004.13	227.21
1004.42	227.25
1004.71	227.27
1004.99	227.25
1005.28	227.27
1005.57	227.27
1005.86	227.30
1006.15	227.27
1006.44	227.22
1006.72	227.22
1007.01	227.20
1007.30	227.25
1007.59	227.26
1007.88	227.25
1008.17	227.26
1008.45	227.23
1008.74	227.15
1009.03	227.09
1009.32	227.07
1009.60	227.06
1009.89	227.06
1010.18	227.00
1010.47	226.98
1010.76	226.98
1011.04	226.98
1011.33	226.96
1011.62	226.96
1011.91	226.96
1012.19	226.95
1012.48	227.01
1012.77	227.01
1013.05	227.06
1013.34	227.04
1013.63	227.04
1013.92	227.04
1014.20	227.05
1014.49	227.09
1014.78	227.13
1015.06	227.09
1015.35	227.10
1015.64	227.09
1015.92	227.09
1016.21	227.11
1016.50	227.09
1016.78	227.11
1017.07	227.17
1017.36	227.16
1017.64	227.13
1017.93	227.10
1018.22	227.11
1018.50	227.08
1018.79	227.07
1019.08	227.04
1019.36	227.01
1019.65	226.97
1019.93	227.01
1020.22	227.00
1020.51	227.01
1020.79	226.98
1021.08	227.04
1021.36	226.66
1021.65	226.77
1021.94	227.08
1022.22	226.51
1022.51	226.55
1022.79	228.00
1023.08	226.78
1023.36	227.75
1023.65	226.57
>>>>>End Processed Spectral Data<<<<<
