SpectraSuite Data File
++++++++++++++++++++++++++++++++++++
Date: Fri Feb 01 16:08:56 EST 2013
User: group
Dark Spectrum Present: No
Reference Spectrum Present: No
Number of Sampled Component Spectra: 1
Spectrometers: USB2E7196
Integration Time (usec): 35000 (USB2E7196)
Spectra Averaged: 100 (USB2E7196)
Boxcar Smoothing: 10 (USB2E7196)
Correct for Electrical Dark: No (USB2E7196)
Strobe/Lamp Enabled: No (USB2E7196)
Correct for Detector Non-linearity: No (USB2E7196)
Correct for Stray Light: No (USB2E7196)
Number of Pixels in Processed Spectrum: 2048
>>>>>Begin Processed Spectral Data<<<<<
339.09	0.00
339.48	214.43
339.86	216.39
340.24	217.65
340.63	218.83
341.01	222.15
341.39	221.21
341.78	222.57
342.16	224.16
342.54	224.35
342.93	212.98
343.31	223.77
343.69	224.32
344.07	224.78
344.46	225.19
344.84	225.56
345.22	225.75
345.60	226.00
345.99	226.19
346.37	226.31
346.75	226.42
347.13	226.45
347.52	226.54
347.90	226.62
348.28	226.63
348.66	226.65
349.05	226.61
349.43	226.66
349.81	226.69
350.19	226.75
350.57	226.79
350.96	226.82
351.34	226.87
351.72	226.94
352.10	226.98
352.48	227.03
352.87	227.07
353.25	227.12
353.63	227.19
354.01	227.27
354.39	227.35
354.77	227.40
355.15	227.51
355.54	227.56
355.92	227.59
356.30	227.65
356.68	227.80
357.06	227.87
357.44	227.92
357.82	228.00
358.20	228.03
358.58	228.11
358.97	228.16
359.35	228.23
359.73	228.31
360.11	228.38
360.49	228.47
360.87	228.56
361.25	228.63
361.63	228.71
362.01	228.77
362.39	228.79
362.77	228.85
363.15	228.86
363.53	228.88
363.91	228.91
364.29	228.95
364.67	228.87
365.05	228.88
365.43	228.89
365.81	228.90
366.19	228.98
366.57	229.00
366.95	229.01
367.33	228.96
367.71	228.93
368.09	228.93
368.47	228.92
368.85	228.89
369.23	228.86
369.61	228.83
369.99	228.79
370.37	228.75
370.75	228.78
371.13	228.77
371.51	228.72
371.89	228.69
372.27	228.62
372.65	228.60
373.03	228.55
373.41	228.52
373.78	228.45
374.16	228.33
374.54	228.25
374.92	228.16
375.30	228.11
375.68	228.06
376.06	228.03
376.44	227.92
376.82	227.86
377.19	227.84
377.57	227.74
377.95	227.66
378.33	227.62
378.71	227.50
379.09	227.45
379.47	227.38
379.84	227.30
380.22	227.24
380.60	227.11
380.98	227.05
381.36	226.94
381.73	226.85
382.11	226.81
382.49	226.79
382.87	226.74
383.25	226.70
383.62	226.75
384.00	226.69
384.38	226.66
384.76	226.63
385.13	226.60
385.51	226.54
385.89	226.46
386.27	226.39
386.64	226.33
387.02	226.29
387.40	226.28
387.78	226.24
388.15	226.20
388.53	226.22
388.91	226.17
389.29	226.18
389.66	226.22
390.04	226.17
390.42	226.13
390.79	226.15
391.17	226.12
391.55	225.99
391.92	225.98
392.30	225.97
392.68	225.93
393.05	225.91
393.43	225.95
393.81	225.95
394.18	225.95
394.56	225.98
394.94	225.99
395.31	225.99
395.69	226.08
396.06	226.13
396.44	226.15
396.82	226.21
397.19	226.30
397.57	226.31
397.95	226.36
398.32	226.41
398.70	226.44
399.07	226.55
399.45	226.59
399.82	226.66
400.20	226.69
400.58	226.80
400.95	226.82
401.33	226.92
401.70	227.10
402.08	227.22
402.45	227.29
402.83	227.40
403.20	227.55
403.58	227.62
403.95	227.77
404.33	227.93
404.71	228.05
405.08	228.21
405.46	228.35
405.83	228.55
406.21	228.67
406.58	228.88
406.96	229.04
407.33	229.25
407.70	229.42
408.08	229.73
408.45	229.89
408.83	230.13
409.20	230.35
409.58	230.53
409.95	230.78
410.33	231.07
410.70	231.32
411.08	231.56
411.45	231.85
411.82	232.13
412.20	232.47
412.57	232.91
412.95	233.19
413.32	233.59
413.69	233.97
414.07	234.41
414.44	234.85
414.82	235.30
415.19	235.87
415.56	236.45
415.94	236.99
416.31	237.68
416.68	238.34
417.06	239.03
417.43	239.72
417.81	240.49
418.18	241.25
418.55	242.09
418.93	242.97
419.30	243.90
419.67	244.87
420.04	245.80
420.42	246.78
420.79	248.00
421.16	249.20
421.54	250.39
421.91	251.60
422.28	252.84
422.66	254.18
423.03	255.42
423.40	256.72
423.77	258.12
424.15	259.53
424.52	261.00
424.89	262.61
425.26	264.15
425.64	265.59
426.01	267.20
426.38	268.83
426.75	270.52
427.13	272.20
427.50	273.96
427.87	275.84
428.24	277.69
428.61	279.42
428.99	281.31
429.36	283.38
429.73	285.46
430.10	287.50
430.47	289.51
430.85	291.64
431.22	293.89
431.59	296.26
431.96	298.46
432.33	300.94
432.70	303.31
433.08	306.11
433.45	308.71
433.82	311.29
434.19	314.17
434.56	316.97
434.93	319.61
435.30	322.24
435.68	325.08
436.05	327.86
436.42	330.65
436.79	333.14
437.16	335.85
437.53	338.68
437.90	341.46
438.27	344.22
438.64	347.02
439.01	349.63
439.38	351.82
439.75	354.01
440.13	356.46
440.50	358.81
440.87	360.59
441.24	362.55
441.61	364.68
441.98	366.15
442.35	367.96
442.72	369.83
443.09	371.59
443.46	372.62
443.83	373.24
444.20	373.72
444.57	374.57
444.94	374.82
445.31	375.12
445.68	375.44
446.05	375.53
446.42	375.14
446.79	374.67
447.16	374.20
447.53	373.91
447.90	372.76
448.27	371.58
448.64	370.06
449.01	368.94
449.37	367.02
449.74	365.14
450.11	362.88
450.48	360.39
450.85	357.89
451.22	355.75
451.59	353.70
451.96	351.75
452.33	349.12
452.70	346.76
453.07	343.96
453.43	341.05
453.80	338.29
454.17	335.66
454.54	333.15
454.91	330.48
455.28	327.76
455.65	325.31
456.02	322.88
456.38	320.75
456.75	318.02
457.12	315.78
457.49	313.55
457.86	311.38
458.23	309.55
458.59	307.50
458.96	305.42
459.33	303.58
459.70	301.74
460.07	300.26
460.43	298.59
460.80	296.96
461.17	295.54
461.54	294.06
461.91	292.65
462.27	291.19
462.64	289.93
463.01	288.60
463.38	287.28
463.74	285.90
464.11	284.74
464.48	283.75
464.85	282.63
465.21	281.78
465.58	280.86
465.95	279.79
466.32	278.90
466.68	278.02
467.05	277.16
467.42	276.25
467.78	275.34
468.15	274.47
468.52	273.81
468.88	272.98
469.25	272.21
469.62	271.58
469.98	270.92
470.35	270.32
470.72	269.73
471.08	269.08
471.45	268.56
471.82	268.03
472.18	267.48
472.55	267.07
472.92	266.54
473.28	266.09
473.65	265.63
474.02	265.22
474.38	264.84
474.75	264.50
475.11	264.16
475.48	263.91
475.85	263.69
476.21	263.47
476.58	263.27
476.94	263.13
477.31	262.97
477.67	262.82
478.04	262.66
478.41	262.60
478.77	262.66
479.14	262.56
479.50	262.55
479.87	262.62
480.23	262.68
480.60	262.78
480.96	262.86
481.33	263.05
481.69	263.25
482.06	263.43
482.42	263.61
482.79	263.88
483.15	264.22
483.52	264.62
483.88	264.97
484.25	265.41
484.61	265.83
484.98	266.26
485.34	266.85
485.71	267.48
486.07	268.07
486.44	268.64
486.80	269.40
487.17	270.15
487.53	270.95
487.90	271.80
488.26	272.74
488.62	273.71
488.99	274.69
489.35	275.68
489.72	276.87
490.08	278.10
490.44	279.36
490.81	280.69
491.17	282.01
491.54	283.49
491.90	285.01
492.26	286.64
492.63	288.37
492.99	290.14
493.36	292.03
493.72	294.09
494.08	296.20
494.45	298.44
494.81	300.76
495.17	303.18
495.54	305.79
495.90	308.44
496.26	311.24
496.63	314.21
496.99	317.40
497.35	320.59
497.72	323.98
498.08	327.49
498.44	331.14
498.80	335.10
499.17	339.15
499.53	343.32
499.89	347.74
500.26	352.27
500.62	356.95
500.98	361.94
501.34	367.01
501.71	372.37
502.07	377.80
502.43	383.46
502.79	389.30
503.16	395.36
503.52	401.69
503.88	408.08
504.24	414.75
504.60	421.62
504.97	428.80
505.33	436.14
505.69	443.89
506.05	451.64
506.41	459.51
506.78	467.65
507.14	476.11
507.50	484.83
507.86	493.86
508.22	503.12
508.59	512.31
508.95	521.89
509.31	531.69
509.67	541.81
510.03	552.19
510.39	562.75
510.75	573.55
511.12	584.45
511.48	595.82
511.84	607.29
512.20	618.76
512.56	630.72
512.92	642.87
513.28	655.23
513.64	667.70
514.00	680.38
514.37	693.31
514.73	706.38
515.09	719.41
515.45	732.65
515.81	746.11
516.17	760.10
516.53	774.18
516.89	788.34
517.25	802.53
517.61	816.95
517.97	831.34
518.33	845.74
518.69	860.49
519.05	875.42
519.41	890.58
519.77	906.13
520.13	921.59
520.49	936.93
520.85	952.23
521.21	967.92
521.57	984.13
521.93	999.90
522.29	1016.24
522.65	1032.35
523.01	1048.52
523.37	1064.61
523.73	1080.62
524.09	1096.65
524.45	1112.94
524.81	1129.53
525.17	1146.18
525.53	1163.09
525.89	1179.96
526.25	1196.75
526.61	1213.15
526.97	1229.83
527.33	1246.21
527.68	1262.64
528.04	1279.16
528.40	1295.73
528.76	1312.81
529.12	1329.38
529.48	1346.21
529.84	1362.03
530.20	1378.71
530.56	1395.73
530.91	1413.04
531.27	1429.88
531.63	1446.45
531.99	1462.93
532.35	1478.73
532.71	1494.60
533.07	1510.73
533.42	1526.49
533.78	1542.48
534.14	1558.67
534.50	1573.91
534.86	1589.71
535.21	1604.89
535.57	1620.76
535.93	1636.13
536.29	1650.87
536.65	1665.88
537.00	1680.55
537.36	1695.91
537.72	1710.31
538.08	1724.66
538.44	1738.30
538.79	1752.01
539.15	1765.47
539.51	1779.15
539.87	1793.48
540.22	1807.18
540.58	1820.89
540.94	1834.16
541.29	1847.02
541.65	1859.64
542.01	1872.72
542.37	1885.03
542.72	1897.50
543.08	1909.05
543.44	1921.44
543.79	1932.51
544.15	1943.39
544.51	1954.90
544.87	1965.73
545.22	1976.58
545.58	1986.74
545.94	1996.44
546.29	2006.34
546.65	2016.31
547.01	2025.66
547.36	2034.20
547.72	2042.61
548.07	2050.42
548.43	2058.51
548.79	2066.69
549.14	2074.19
549.50	2081.49
549.86	2089.15
550.21	2096.41
550.57	2103.68
550.92	2110.04
551.28	2117.18
551.64	2124.17
551.99	2130.72
552.35	2137.01
552.70	2143.06
553.06	2149.06
553.41	2155.44
553.77	2161.46
554.13	2167.35
554.48	2173.40
554.84	2178.89
555.19	2184.18
555.55	2189.32
555.90	2194.00
556.26	2198.60
556.61	2203.39
556.97	2207.80
557.32	2211.88
557.68	2215.92
558.03	2220.15
558.39	2223.95
558.74	2228.52
559.10	2232.43
559.45	2236.07
559.81	2240.25
560.16	2244.17
560.52	2247.31
560.87	2250.70
561.23	2253.43
561.58	2256.39
561.94	2258.92
562.29	2261.33
562.64	2264.21
563.00	2266.79
563.35	2270.19
563.71	2273.44
564.06	2276.58
564.42	2279.44
564.77	2281.85
565.12	2284.06
565.48	2286.05
565.83	2287.97
566.19	2289.37
566.54	2290.36
566.89	2291.51
567.25	2292.12
567.60	2293.31
567.96	2295.03
568.31	2295.86
568.66	2296.89
569.02	2297.60
569.37	2297.84
569.72	2298.74
570.08	2298.79
570.43	2298.80
570.78	2298.28
571.14	2296.66
571.49	2295.28
571.84	2294.99
572.20	2294.09
572.55	2293.22
572.90	2291.56
573.26	2290.27
573.61	2288.56
573.96	2286.85
574.31	2283.94
574.67	2281.03
575.02	2277.53
575.37	2274.23
575.72	2270.50
576.08	2267.15
576.43	2263.81
576.78	2260.27
577.13	2257.09
577.49	2253.83
577.84	2250.39
578.19	2246.59
578.54	2242.97
578.90	2238.77
579.25	2233.22
579.60	2228.21
579.95	2223.26
580.30	2218.48
580.66	2213.26
581.01	2208.31
581.36	2203.42
581.71	2199.22
582.06	2194.66
582.42	2190.34
582.77	2185.11
583.12	2180.67
583.47	2176.09
583.82	2171.09
584.17	2165.84
584.53	2160.34
584.88	2154.81
585.23	2149.13
585.58	2143.73
585.93	2138.37
586.28	2133.71
586.63	2128.68
586.98	2123.68
587.34	2118.89
587.69	2113.93
588.04	2108.67
588.39	2103.08
588.74	2096.65
589.09	2090.53
589.44	2083.87
589.79	2077.75
590.14	2072.21
590.49	2065.67
590.84	2059.25
591.19	2053.26
591.54	2046.87
591.89	2039.72
592.25	2033.03
592.60	2025.77
592.95	2018.11
593.30	2010.78
593.65	2003.15
594.00	1996.18
594.35	1988.81
594.70	1980.77
595.05	1973.66
595.40	1966.43
595.75	1958.91
596.10	1952.71
596.45	1945.95
596.80	1939.82
597.15	1933.20
597.50	1926.12
597.85	1919.64
598.19	1913.00
598.54	1905.82
598.89	1899.07
599.24	1893.13
599.59	1886.47
599.94	1880.36
600.29	1874.12
600.64	1867.48
600.99	1860.10
601.34	1853.15
601.69	1846.36
602.04	1839.50
602.39	1832.06
602.74	1825.39
603.08	1818.54
603.43	1811.73
603.78	1804.45
604.13	1797.29
604.48	1789.96
604.83	1783.12
605.18	1776.26
605.53	1768.36
605.87	1760.46
606.22	1753.27
606.57	1745.24
606.92	1737.79
607.27	1730.74
607.62	1723.83
607.96	1716.66
608.31	1710.04
608.66	1702.49
609.01	1694.87
609.36	1687.36
609.70	1679.34
610.05	1671.22
610.40	1663.65
610.75	1655.30
611.10	1647.56
611.44	1639.06
611.79	1631.13
612.14	1622.40
612.49	1613.06
612.83	1604.70
613.18	1596.54
613.53	1588.48
613.88	1580.11
614.22	1571.93
614.57	1563.25
614.92	1555.31
615.27	1547.71
615.61	1539.49
615.96	1531.44
616.31	1523.78
616.65	1516.31
617.00	1508.77
617.35	1501.19
617.70	1492.89
618.04	1484.41
618.39	1476.29
618.74	1468.80
619.08	1460.53
619.43	1453.00
619.78	1446.26
620.12	1438.99
620.47	1431.50
620.82	1423.33
621.16	1415.84
621.51	1408.15
621.85	1400.48
622.20	1391.84
622.55	1383.47
622.89	1375.61
623.24	1368.09
623.59	1360.76
623.93	1353.33
624.28	1346.05
624.62	1338.47
624.97	1331.21
625.32	1324.54
625.66	1317.52
626.01	1310.29
626.35	1302.83
626.70	1295.06
627.04	1287.32
627.39	1279.58
627.73	1272.22
628.08	1265.44
628.43	1258.16
628.77	1250.81
629.12	1243.35
629.46	1236.28
629.81	1228.80
630.15	1221.57
630.50	1214.10
630.84	1205.94
631.19	1198.09
631.53	1190.66
631.88	1183.18
632.22	1175.64
632.57	1168.28
632.91	1160.72
633.26	1153.32
633.60	1145.91
633.95	1138.81
634.29	1131.73
634.64	1125.04
634.98	1117.61
635.32	1110.34
635.67	1103.78
636.01	1097.15
636.36	1090.29
636.70	1083.69
637.05	1077.18
637.39	1070.61
637.73	1064.11
638.08	1058.21
638.42	1052.11
638.77	1045.67
639.11	1039.03
639.45	1032.55
639.80	1025.91
640.14	1019.56
640.49	1013.02
640.83	1006.74
641.17	1000.45
641.52	994.07
641.86	987.59
642.20	981.72
642.55	975.37
642.89	968.81
643.23	962.26
643.58	956.55
643.92	950.32
644.26	944.28
644.61	938.24
644.95	932.23
645.29	925.64
645.64	918.95
645.98	912.54
646.32	906.71
646.66	900.74
647.01	894.97
647.35	889.21
647.69	883.37
648.04	877.84
648.38	872.04
648.72	866.06
649.06	860.02
649.41	854.15
649.75	848.24
650.09	842.29
650.43	836.50
650.78	830.25
651.12	824.32
651.46	818.56
651.80	812.80
652.14	807.45
652.49	802.05
652.83	796.86
653.17	791.22
653.51	785.41
653.85	779.97
654.20	774.24
654.54	768.25
654.88	762.54
655.22	756.64
655.56	751.02
655.90	745.59
656.25	740.38
656.59	735.03
656.93	729.94
657.27	724.80
657.61	719.33
657.95	714.30
658.29	709.31
658.64	704.10
658.98	698.82
659.32	693.33
659.66	688.14
660.00	682.90
660.34	677.99
660.68	673.10
661.02	668.08
661.36	663.41
661.70	658.91
662.05	654.54
662.39	650.24
662.73	645.76
663.07	641.34
663.41	636.83
663.75	632.42
664.09	627.86
664.43	623.53
664.77	619.45
665.11	615.20
665.45	610.97
665.79	606.92
666.13	602.80
666.47	598.66
666.81	594.48
667.15	590.31
667.49	586.40
667.83	582.56
668.17	578.61
668.51	574.55
668.85	570.51
669.19	566.72
669.53	562.86
669.87	558.97
670.21	555.30
670.55	551.65
670.89	548.17
671.23	544.74
671.57	541.16
671.91	537.65
672.25	534.12
672.58	530.61
672.92	527.19
673.26	524.01
673.60	520.89
673.94	517.84
674.28	514.97
674.62	512.03
674.96	508.97
675.30	506.07
675.64	503.17
675.97	500.40
676.31	497.45
676.65	494.57
676.99	491.86
677.33	489.01
677.67	486.22
678.01	483.18
678.34	480.16
678.68	477.33
679.02	474.47
679.36	471.71
679.70	469.02
680.04	466.26
680.37	463.40
680.71	460.56
681.05	457.90
681.39	455.18
681.73	452.47
682.06	449.96
682.40	447.41
682.74	444.88
683.08	442.33
683.42	439.77
683.75	437.21
684.09	434.66
684.43	432.18
684.77	429.69
685.10	427.31
685.44	425.02
685.78	422.67
686.12	420.46
686.45	418.14
686.79	415.82
687.13	413.58
687.46	411.45
687.80	409.31
688.14	407.09
688.48	405.01
688.81	402.80
689.15	400.64
689.49	398.46
689.82	396.38
690.16	394.30
690.50	392.31
690.83	390.38
691.17	388.41
691.51	386.49
691.84	384.68
692.18	382.76
692.52	380.80
692.85	378.88
693.19	376.97
693.52	375.17
693.86	373.32
694.20	371.53
694.53	369.72
694.87	367.88
695.21	366.09
695.54	364.26
695.88	362.53
696.21	360.81
696.55	359.17
696.88	357.47
697.22	355.80
697.56	354.17
697.89	352.48
698.23	350.88
698.56	349.23
698.90	347.65
699.23	345.99
699.57	344.42
699.90	342.87
700.24	341.33
700.58	339.79
700.91	338.34
701.25	336.93
701.58	335.56
701.92	334.18
702.25	332.79
702.59	331.39
702.92	330.07
703.26	328.71
703.59	327.40
703.93	326.20
704.26	324.94
704.60	323.66
704.93	322.40
705.26	321.15
705.60	319.97
705.93	318.79
706.27	317.77
706.60	316.74
706.94	315.68
707.27	314.57
707.61	313.47
707.94	312.42
708.27	311.30
708.61	310.21
708.94	309.24
709.28	308.25
709.61	307.30
709.94	306.38
710.28	305.38
710.61	304.40
710.95	303.35
711.28	302.45
711.61	301.52
711.95	300.66
712.28	299.73
712.61	298.79
712.95	297.86
713.28	296.97
713.61	296.01
713.95	295.13
714.28	294.27
714.61	293.44
714.95	292.64
715.28	291.77
715.61	290.92
715.95	290.05
716.28	289.20
716.61	288.39
716.95	287.53
717.28	286.83
717.61	286.04
717.94	285.33
718.28	284.53
718.61	283.77
718.94	283.04
719.27	282.37
719.61	281.74
719.94	281.07
720.27	280.34
720.60	279.72
720.94	279.09
721.27	278.48
721.60	277.91
721.93	277.32
722.27	276.77
722.60	276.21
722.93	275.65
723.26	275.10
723.59	274.54
723.93	273.99
724.26	273.44
724.59	272.91
724.92	272.36
725.25	271.87
725.59	271.37
725.92	270.87
726.25	270.37
726.58	269.87
726.91	269.38
727.24	268.92
727.57	268.45
727.91	267.96
728.24	267.51
728.57	266.99
728.90	266.47
729.23	266.00
729.56	265.58
729.89	265.12
730.22	264.67
730.55	264.18
730.89	263.76
731.22	263.29
731.55	262.84
731.88	262.39
732.21	261.94
732.54	261.51
732.87	261.05
733.20	260.66
733.53	260.25
733.86	259.88
734.19	259.50
734.52	259.10
734.85	258.76
735.18	258.36
735.51	258.01
735.84	257.65
736.17	257.30
736.50	256.89
736.83	256.63
737.16	256.30
737.49	255.97
737.82	255.60
738.15	255.25
738.48	254.92
738.81	254.59
739.14	254.25
739.47	253.93
739.80	253.66
740.13	253.31
740.46	252.95
740.79	252.62
741.12	252.28
741.45	251.95
741.78	251.59
742.11	251.29
742.44	250.97
742.77	250.74
743.10	250.44
743.43	250.12
743.75	249.72
744.08	249.55
744.41	249.28
744.74	249.02
745.07	248.77
745.40	248.51
745.73	248.31
746.06	248.07
746.39	247.81
746.71	247.55
747.04	247.27
747.37	247.03
747.70	246.77
748.03	246.53
748.36	246.33
748.68	246.09
749.01	245.83
749.34	245.62
749.67	245.37
750.00	245.14
750.33	245.03
750.65	244.82
750.98	244.46
751.31	244.23
751.64	244.00
751.97	243.83
752.29	243.61
752.62	243.35
752.95	243.13
753.28	242.90
753.60	242.69
753.93	242.55
754.26	242.38
754.59	242.16
754.91	241.96
755.24	241.77
755.57	241.59
755.90	241.43
756.22	241.20
756.55	240.96
756.88	240.77
757.20	240.52
757.53	240.33
757.86	240.18
758.19	240.04
758.51	239.89
758.84	239.68
759.17	239.49
759.49	239.33
759.82	239.19
760.15	239.06
760.47	238.90
760.80	238.71
761.13	238.58
761.45	238.45
761.78	238.26
762.11	238.11
762.43	237.96
762.76	237.83
763.08	237.75
763.41	237.63
763.74	237.48
764.06	237.36
764.39	237.21
764.71	237.07
765.04	236.93
765.37	236.77
765.69	236.64
766.02	236.54
766.34	236.39
766.67	236.26
767.00	236.17
767.32	236.13
767.65	236.07
767.97	235.98
768.30	235.85
768.62	235.74
768.95	235.60
769.27	235.52
769.60	235.38
769.92	235.25
770.25	235.12
770.57	234.98
770.90	234.87
771.22	234.81
771.55	234.75
771.87	234.63
772.20	234.53
772.52	234.49
772.85	234.52
773.17	234.44
773.50	234.32
773.82	234.20
774.15	234.04
774.47	233.89
774.80	233.76
775.12	233.69
775.45	233.60
775.77	233.57
776.09	233.51
776.42	233.43
776.74	233.36
777.07	233.33
777.39	233.29
777.72	233.21
778.04	233.14
778.36	233.03
778.69	232.99
779.01	232.91
779.33	232.76
779.66	232.58
779.98	232.52
780.31	232.46
780.63	232.41
780.95	232.35
781.28	232.27
781.60	232.20
781.92	232.14
782.25	232.10
782.57	232.02
782.89	231.92
783.22	231.88
783.54	231.82
783.86	231.76
784.19	231.66
784.51	231.63
784.83	231.54
785.16	231.48
785.48	231.42
785.80	231.36
786.12	231.34
786.45	231.28
786.77	231.22
787.09	231.18
787.42	231.13
787.74	231.05
788.06	231.04
788.38	230.99
788.71	230.92
789.03	230.90
789.35	230.87
789.67	230.84
789.99	230.79
790.32	230.72
790.64	230.68
790.96	230.75
791.28	230.67
791.61	230.64
791.93	230.59
792.25	230.53
792.57	230.57
792.89	230.53
793.21	230.51
793.54	230.47
793.86	230.40
794.18	230.35
794.50	230.33
794.82	230.27
795.14	230.22
795.47	230.21
795.79	230.14
796.11	230.08
796.43	230.04
796.75	230.03
797.07	230.01
797.39	229.99
797.71	229.89
798.04	229.86
798.36	229.83
798.68	229.81
799.00	229.81
799.32	229.73
799.64	229.72
799.96	229.71
800.28	229.71
800.60	229.69
800.92	229.65
801.24	229.61
801.56	229.64
801.89	229.63
802.21	229.61
802.53	229.58
802.85	229.56
803.17	229.54
803.49	229.48
803.81	229.43
804.13	229.39
804.45	229.34
804.77	229.33
805.09	229.32
805.41	229.29
805.73	229.25
806.05	229.21
806.37	229.17
806.69	229.11
807.01	229.06
807.33	229.06
807.65	229.02
807.97	229.04
808.28	228.97
808.60	228.92
808.92	228.87
809.24	228.92
809.56	228.90
809.88	228.82
810.20	228.80
810.52	228.79
810.84	228.75
811.16	228.70
811.48	228.66
811.80	228.67
812.12	228.62
812.43	228.60
812.75	228.59
813.07	228.58
813.39	228.58
813.71	228.56
814.03	228.53
814.35	228.54
814.67	228.50
814.98	228.45
815.30	228.44
815.62	228.42
815.94	228.35
816.26	228.35
816.58	228.36
816.89	228.40
817.21	228.36
817.53	228.35
817.85	228.35
818.17	228.35
818.48	228.30
818.80	228.30
819.12	228.28
819.44	228.27
819.76	228.21
820.07	228.15
820.39	228.12
820.71	228.10
821.03	228.06
821.34	228.03
821.66	228.06
821.98	228.06
822.30	228.05
822.61	228.07
822.93	228.04
823.25	228.00
823.57	227.96
823.88	227.99
824.20	227.99
824.52	227.98
824.83	227.96
825.15	227.93
825.47	227.93
825.79	227.91
826.10	227.88
826.42	227.86
826.74	227.90
827.05	227.89
827.37	227.87
827.69	227.86
828.00	227.87
828.32	227.86
828.64	227.84
828.95	227.92
829.27	227.89
829.58	227.86
829.90	227.91
830.22	227.90
830.53	227.88
830.85	227.84
831.17	227.82
831.48	227.82
831.80	227.83
832.11	227.84
832.43	227.83
832.75	227.82
833.06	227.90
833.38	227.85
833.69	227.84
834.01	227.82
834.32	227.83
834.64	227.80
834.96	227.80
835.27	227.75
835.59	227.65
835.90	227.63
836.22	227.59
836.53	227.55
836.85	227.52
837.16	227.62
837.48	227.64
837.79	227.65
838.11	227.65
838.42	227.59
838.74	227.58
839.05	227.57
839.37	227.59
839.68	227.53
840.00	227.50
840.31	227.51
840.63	227.51
840.94	227.45
841.26	227.44
841.57	227.43
841.88	227.46
842.20	227.47
842.51	227.45
842.83	227.48
843.14	227.56
843.46	227.57
843.77	227.46
844.08	227.46
844.40	227.43
844.71	227.42
845.03	227.46
845.34	227.47
845.65	227.45
845.97	227.41
846.28	227.38
846.60	227.40
846.91	227.40
847.22	227.41
847.54	227.44
847.85	227.43
848.16	227.42
848.48	227.39
848.79	227.41
849.10	227.41
849.42	227.42
849.73	227.33
850.04	227.31
850.36	227.30
850.67	227.30
850.98	227.31
851.30	227.32
851.61	227.32
851.92	227.29
852.23	227.31
852.55	227.34
852.86	227.37
853.17	227.38
853.49	227.42
853.80	227.46
854.11	227.47
854.42	227.49
854.74	227.47
855.05	227.49
855.36	227.44
855.67	227.47
855.99	227.46
856.30	227.54
856.61	227.56
856.92	227.53
857.23	227.54
857.55	227.53
857.86	227.53
858.17	227.53
858.48	227.53
858.79	227.52
859.11	227.50
859.42	227.46
859.73	227.46
860.04	227.45
860.35	227.39
860.66	227.39
860.98	227.38
861.29	227.39
861.60	227.36
861.91	227.39
862.22	227.33
862.53	227.33
862.84	227.24
863.16	227.26
863.47	227.26
863.78	227.22
864.09	227.23
864.40	227.16
864.71	227.14
865.02	227.15
865.33	227.15
865.64	227.14
865.95	227.18
866.27	227.24
866.58	227.21
866.89	227.23
867.20	227.19
867.51	227.17
867.82	227.16
868.13	227.23
868.44	227.17
868.75	227.22
869.06	227.19
869.37	227.17
869.68	227.12
869.99	227.10
870.30	227.10
870.61	227.09
870.92	227.10
871.23	227.08
871.54	227.09
871.85	227.09
872.16	227.09
872.47	227.05
872.78	226.96
873.09	226.97
873.40	226.93
873.71	226.91
874.02	226.91
874.33	226.89
874.64	226.79
874.95	226.83
875.26	226.77
875.56	226.77
875.87	226.76
876.18	226.76
876.49	226.85
876.80	226.83
877.11	226.79
877.42	226.80
877.73	226.82
878.04	226.77
878.35	226.77
878.66	226.77
878.96	226.75
879.27	226.72
879.58	226.69
879.89	226.72
880.20	226.77
880.51	226.76
880.82	226.73
881.12	226.75
881.43	226.71
881.74	226.71
882.05	226.74
882.36	226.73
882.67	226.74
882.97	226.68
883.28	226.68
883.59	226.70
883.90	226.68
884.21	226.69
884.51	226.70
884.82	226.65
885.13	226.66
885.44	226.68
885.74	226.70
886.05	226.68
886.36	226.65
886.67	226.62
886.98	226.66
887.28	226.70
887.59	226.71
887.90	226.72
888.20	226.71
888.51	226.68
888.82	226.67
889.13	226.68
889.43	226.75
889.74	226.73
890.05	226.72
890.35	226.71
890.66	226.70
890.97	226.73
891.28	226.77
891.58	226.77
891.89	226.77
892.20	226.76
892.50	226.76
892.81	226.74
893.12	226.75
893.42	226.71
893.73	226.71
894.04	226.72
894.34	226.73
894.65	226.73
894.95	226.72
895.26	226.74
895.57	226.75
895.87	226.66
896.18	226.71
896.48	226.73
896.79	226.75
897.10	226.78
897.40	226.76
897.71	226.75
898.01	226.73
898.32	226.76
898.63	226.72
898.93	226.73
899.24	226.77
899.54	226.75
899.85	226.74
900.15	226.72
900.46	226.72
900.76	226.72
901.07	226.75
901.38	226.76
901.68	226.76
901.99	226.75
902.29	226.75
902.60	226.72
902.90	226.72
903.21	226.69
903.51	226.65
903.82	226.66
904.12	226.64
904.43	226.62
904.73	226.60
905.03	226.63
905.34	226.75
905.64	226.68
905.95	226.70
906.25	226.73
906.56	226.72
906.86	226.70
907.17	226.68
907.47	226.69
907.77	226.69
908.08	226.67
908.38	226.64
908.69	226.65
908.99	226.66
909.30	226.70
909.60	226.71
909.90	226.72
910.21	226.70
910.51	226.71
910.81	226.73
911.12	226.72
911.42	226.71
911.73	226.61
912.03	226.66
912.33	226.67
912.64	226.64
912.94	226.63
913.24	226.62
913.55	226.64
913.85	226.61
914.15	226.61
914.46	226.61
914.76	226.63
915.06	226.61
915.37	226.58
915.67	226.55
915.97	226.55
916.27	226.55
916.58	226.56
916.88	226.56
917.18	226.53
917.49	226.61
917.79	226.61
918.09	226.61
918.39	226.65
918.70	226.63
919.00	226.62
919.30	226.66
919.60	226.67
919.91	226.64
920.21	226.65
920.51	226.64
920.81	226.63
921.12	226.62
921.42	226.64
921.72	226.66
922.02	226.65
922.32	226.64
922.63	226.62
922.93	226.62
923.23	226.60
923.53	226.61
923.83	226.54
924.13	226.57
924.44	226.56
924.74	226.55
925.04	226.58
925.34	226.59
925.64	226.57
925.94	226.56
926.24	226.62
926.55	226.62
926.85	226.66
927.15	226.68
927.45	226.69
927.75	226.67
928.05	226.65
928.35	226.63
928.65	226.67
928.95	226.71
929.26	226.70
929.56	226.71
929.86	226.73
930.16	226.71
930.46	226.67
930.76	226.66
931.06	226.60
931.36	226.57
931.66	226.63
931.96	226.66
932.26	226.65
932.56	226.61
932.86	226.59
933.16	226.58
933.46	226.57
933.76	226.52
934.06	226.57
934.36	226.63
934.66	226.66
934.96	226.63
935.26	226.61
935.56	226.63
935.86	226.64
936.16	226.60
936.46	226.61
936.76	226.63
937.06	226.63
937.36	226.66
937.66	226.66
937.96	226.62
938.26	226.59
938.56	226.59
938.86	226.59
939.16	226.62
939.46	226.63
939.76	226.63
940.06	226.67
940.35	226.63
940.65	226.58
940.95	226.55
941.25	226.57
941.55	226.55
941.85	226.49
942.15	226.51
942.45	226.53
942.75	226.50
943.04	226.55
943.34	226.52
943.64	226.51
943.94	226.51
944.24	226.51
944.54	226.51
944.84	226.53
945.13	226.53
945.43	226.50
945.73	226.47
946.03	226.46
946.33	226.41
946.62	226.41
946.92	226.40
947.22	226.45
947.52	226.45
947.82	226.45
948.11	226.50
948.41	226.48
948.71	226.47
949.01	226.52
949.31	226.47
949.60	226.50
949.90	226.50
950.20	226.52
950.50	226.51
950.79	226.46
951.09	226.49
951.39	226.46
951.69	226.49
951.98	226.49
952.28	226.48
952.58	226.52
952.87	226.51
953.17	226.52
953.47	226.49
953.76	226.46
954.06	226.45
954.36	226.44
954.66	226.42
954.95	226.43
955.25	226.44
955.55	226.44
955.84	226.41
956.14	226.42
956.44	226.40
956.73	226.37
957.03	226.40
957.32	226.39
957.62	226.42
957.92	226.41
958.21	226.40
958.51	226.54
958.81	226.54
959.10	226.59
959.40	226.60
959.69	226.62
959.99	226.63
960.29	226.64
960.58	226.62
960.88	226.67
961.17	226.66
961.47	226.65
961.76	226.65
962.06	226.67
962.36	226.69
962.65	226.69
962.95	226.70
963.24	226.68
963.54	226.66
963.83	226.64
964.13	226.62
964.42	226.60
964.72	226.52
965.01	226.49
965.31	226.46
965.60	226.45
965.90	226.49
966.19	226.47
966.49	226.47
966.78	226.46
967.08	226.46
967.37	226.47
967.67	226.48
967.96	226.48
968.26	226.46
968.55	226.48
968.85	226.45
969.14	226.47
969.43	226.48
969.73	226.50
970.02	226.51
970.32	226.52
970.61	226.53
970.91	226.47
971.20	226.48
971.49	226.47
971.79	226.47
972.08	226.41
972.38	226.43
972.67	226.46
972.96	226.46
973.26	226.42
973.55	226.41
973.85	226.37
974.14	226.36
974.43	226.39
974.73	226.38
975.02	226.41
975.31	226.40
975.61	226.42
975.90	226.39
976.19	226.40
976.49	226.40
976.78	226.40
977.07	226.40
977.37	226.43
977.66	226.42
977.95	226.39
978.24	226.41
978.54	226.43
978.83	226.40
979.12	226.42
979.42	226.45
979.71	226.47
980.00	226.47
980.29	226.46
980.59	226.41
980.88	226.39
981.17	226.37
981.46	226.37
981.76	226.37
982.05	226.39
982.34	226.37
982.63	226.40
982.93	226.39
983.22	226.40
983.51	226.40
983.80	226.43
984.09	226.47
984.39	226.47
984.68	226.44
984.97	226.45
985.26	226.42
985.55	226.42
985.85	226.37
986.14	226.42
986.43	226.45
986.72	226.48
987.01	226.47
987.30	226.47
987.59	226.45
987.89	226.48
988.18	226.47
988.47	226.48
988.76	226.45
989.05	226.43
989.34	226.44
989.63	226.47
989.92	226.46
990.22	226.42
990.51	226.39
990.80	226.37
991.09	226.40
991.38	226.43
991.67	226.44
991.96	226.42
992.25	226.42
992.54	226.41
992.83	226.42
993.12	226.40
993.41	226.41
993.70	226.46
993.99	226.45
994.28	226.46
994.58	226.46
994.87	226.46
995.16	226.46
995.45	226.47
995.74	226.40
996.03	226.41
996.32	226.46
996.61	226.48
996.90	226.51
997.19	226.47
997.48	226.44
997.77	226.42
998.06	226.48
998.34	226.44
998.63	226.43
998.92	226.42
999.21	226.46
999.50	226.46
999.79	226.44
1000.08	226.44
1000.37	226.42
1000.66	226.41
1000.95	226.41
1001.24	226.39
1001.53	226.39
1001.82	226.40
1002.11	226.37
1002.40	226.36
1002.68	226.38
1002.97	226.46
1003.26	226.48
1003.55	226.46
1003.84	226.49
1004.13	226.47
1004.42	226.47
1004.71	226.45
1004.99	226.43
1005.28	226.43
1005.57	226.44
1005.86	226.42
1006.15	226.40
1006.44	226.36
1006.72	226.39
1007.01	226.38
1007.30	226.39
1007.59	226.36
1007.88	226.36
1008.17	226.36
1008.45	226.34
1008.74	226.28
1009.03	226.20
1009.32	226.21
1009.60	226.22
1009.89	226.18
1010.18	226.19
1010.47	226.24
1010.76	226.24
1011.04	226.22
1011.33	226.23
1011.62	226.25
1011.91	226.27
1012.19	226.30
1012.48	226.34
1012.77	226.33
1013.05	226.39
1013.34	226.43
1013.63	226.43
1013.92	226.44
1014.20	226.46
1014.49	226.49
1014.78	226.51
1015.06	226.48
1015.35	226.47
1015.64	226.46
1015.92	226.50
1016.21	226.46
1016.50	226.45
1016.78	226.49
1017.07	226.49
1017.36	226.48
1017.64	226.46
1017.93	226.43
1018.22	226.45
1018.50	226.46
1018.79	226.43
1019.08	226.36
1019.36	226.34
1019.65	226.36
1019.93	226.37
1020.22	226.35
1020.51	226.41
1020.79	226.39
1021.08	226.89
1021.36	226.47
1021.65	225.88
1021.94	226.08
1022.22	226.54
1022.51	226.07
1022.79	226.54
1023.08	226.26
1023.36	227.75
1023.65	225.96
>>>>>End Processed Spectral Data<<<<<
