SpectraSuite Data File
++++++++++++++++++++++++++++++++++++
Date: Fri Feb 01 18:10:08 EST 2013
User: group
Dark Spectrum Present: No
Reference Spectrum Present: No
Number of Sampled Component Spectra: 1
Spectrometers: USB2E7196
Integration Time (usec): 35000 (USB2E7196)
Spectra Averaged: 100 (USB2E7196)
Boxcar Smoothing: 10 (USB2E7196)
Correct for Electrical Dark: No (USB2E7196)
Strobe/Lamp Enabled: No (USB2E7196)
Correct for Detector Non-linearity: No (USB2E7196)
Correct for Stray Light: No (USB2E7196)
Number of Pixels in Processed Spectrum: 2048
>>>>>Begin Processed Spectral Data<<<<<
339.09	0.00
339.48	213.30
339.86	214.56
340.24	216.26
340.63	216.91
341.01	220.17
341.39	220.37
341.78	221.39
342.16	222.70
342.54	222.87
342.93	211.54
343.31	222.23
343.69	222.74
344.07	223.19
344.46	223.60
344.84	224.00
345.22	224.23
345.60	224.46
345.99	224.65
346.37	224.77
346.75	224.86
347.13	224.94
347.52	225.00
347.90	225.07
348.28	225.11
348.66	225.13
349.05	225.14
349.43	225.18
349.81	225.22
350.19	225.26
350.57	225.31
350.96	225.38
351.34	225.44
351.72	225.53
352.10	225.65
352.48	225.74
352.87	225.80
353.25	225.86
353.63	225.92
354.01	226.01
354.39	226.10
354.77	226.18
355.15	226.29
355.54	226.35
355.92	226.41
356.30	226.49
356.68	226.66
357.06	226.74
357.44	226.79
357.82	226.85
358.20	226.93
358.58	227.01
358.97	227.07
359.35	227.17
359.73	227.29
360.11	227.36
360.49	227.40
360.87	227.47
361.25	227.51
361.63	227.60
362.01	227.67
362.39	227.72
362.77	227.77
363.15	227.79
363.53	227.81
363.91	227.82
364.29	227.81
364.67	227.78
365.05	227.78
365.43	227.80
365.81	227.81
366.19	227.87
366.57	227.91
366.95	227.93
367.33	227.93
367.71	227.92
368.09	227.92
368.47	227.90
368.85	227.88
369.23	227.91
369.61	227.84
369.99	227.81
370.37	227.80
370.75	227.83
371.13	227.79
371.51	227.76
371.89	227.74
372.27	227.74
372.65	227.67
373.03	227.63
373.41	227.61
373.78	227.57
374.16	227.48
374.54	227.39
374.92	227.30
375.30	227.24
375.68	227.15
376.06	227.06
376.44	227.02
376.82	226.96
377.19	226.88
377.57	226.85
377.95	226.75
378.33	226.67
378.71	226.58
379.09	226.50
379.47	226.48
379.84	226.43
380.22	226.34
380.60	226.29
380.98	226.23
381.36	226.16
381.73	226.09
382.11	226.04
382.49	226.00
382.87	225.95
383.25	225.90
383.62	225.98
384.00	225.92
384.38	225.90
384.76	225.88
385.13	225.89
385.51	225.82
385.89	225.78
386.27	225.74
386.64	225.67
387.02	225.65
387.40	225.58
387.78	225.52
388.15	225.49
388.53	225.43
388.91	225.40
389.29	225.36
389.66	225.37
390.04	225.35
390.42	225.35
390.79	225.33
391.17	225.32
391.55	225.19
391.92	225.21
392.30	225.17
392.68	225.11
393.05	225.11
393.43	225.12
393.81	225.11
394.18	225.06
394.56	225.09
394.94	225.12
395.31	225.09
395.69	225.16
396.06	225.21
396.44	225.25
396.82	225.29
397.19	225.36
397.57	225.37
397.95	225.42
398.32	225.40
398.70	225.44
399.07	225.51
399.45	225.56
399.82	225.61
400.20	225.68
400.58	225.75
400.95	225.78
401.33	225.87
401.70	226.04
402.08	226.17
402.45	226.26
402.83	226.36
403.20	226.52
403.58	226.61
403.95	226.74
404.33	226.87
404.71	227.02
405.08	227.24
405.46	227.41
405.83	227.61
406.21	227.83
406.58	228.06
406.96	228.26
407.33	228.47
407.70	228.71
408.08	229.03
408.45	229.29
408.83	229.60
409.20	229.88
409.58	230.12
409.95	230.45
410.33	230.80
410.70	231.14
411.08	231.50
411.45	231.87
411.82	232.29
412.20	232.76
412.57	233.28
412.95	233.67
413.32	234.22
413.69	234.74
414.07	235.32
414.44	235.97
414.82	236.60
415.19	237.38
415.56	238.13
415.94	238.88
416.31	239.79
416.68	240.64
417.06	241.62
417.43	242.57
417.81	243.64
418.18	244.73
418.55	245.89
418.93	247.15
419.30	248.42
419.67	249.75
420.04	251.09
420.42	252.50
420.79	254.13
421.16	255.75
421.54	257.41
421.91	259.10
422.28	260.84
422.66	262.74
423.03	264.50
423.40	266.37
423.77	268.34
424.15	270.31
424.52	272.40
424.89	274.63
425.26	276.80
425.64	278.83
426.01	281.07
426.38	283.39
426.75	285.72
427.13	288.18
427.50	290.69
427.87	293.33
428.24	295.98
428.61	298.50
428.99	301.20
429.36	304.17
429.73	307.08
430.10	309.92
430.47	312.79
430.85	315.82
431.22	318.95
431.59	322.25
431.96	325.46
432.33	328.95
432.70	332.28
433.08	336.23
433.45	339.94
433.82	343.56
434.19	347.63
434.56	351.52
434.93	355.20
435.30	358.94
435.68	363.04
436.05	366.99
436.42	370.87
436.79	374.40
437.16	378.20
437.53	382.17
437.90	386.11
438.27	390.03
438.64	393.96
439.01	397.60
439.38	400.78
439.75	403.79
440.13	407.28
440.50	410.61
440.87	413.21
441.24	415.95
441.61	419.01
441.98	421.11
442.35	423.70
442.72	426.37
443.09	428.88
443.46	430.26
443.83	431.05
444.20	431.79
444.57	432.98
444.94	433.34
445.31	433.87
445.68	434.32
446.05	434.34
446.42	433.85
446.79	433.31
447.16	432.74
447.53	432.34
447.90	430.73
448.27	429.05
448.64	426.82
449.01	425.22
449.37	422.43
449.74	419.80
450.11	416.57
450.48	413.07
450.85	409.49
451.22	406.50
451.59	403.70
451.96	400.91
452.33	397.28
452.70	394.00
453.07	389.97
453.43	385.92
453.80	382.04
454.17	378.26
454.54	374.67
454.91	370.81
455.28	367.04
455.65	363.51
456.02	359.99
456.38	356.94
456.75	353.20
457.12	350.02
457.49	346.85
457.86	343.84
458.23	341.19
458.59	338.28
458.96	335.31
459.33	332.68
459.70	330.07
460.07	327.90
460.43	325.47
460.80	323.18
461.17	321.12
461.54	318.99
461.91	316.97
462.27	314.89
462.64	313.11
463.01	311.20
463.38	309.38
463.74	307.56
464.11	305.92
464.48	304.46
464.85	302.96
465.21	301.72
465.58	300.40
465.95	298.86
466.32	297.58
466.68	296.27
467.05	294.98
467.42	293.70
467.78	292.36
468.15	291.12
468.52	290.15
468.88	288.92
469.25	287.88
469.62	286.95
469.98	286.03
470.35	285.11
470.72	284.23
471.08	283.31
471.45	282.50
471.82	281.73
472.18	280.87
472.55	280.17
472.92	279.43
473.28	278.74
473.65	278.14
474.02	277.52
474.38	276.97
474.75	276.50
475.11	276.03
475.48	275.65
475.85	275.26
476.21	274.91
476.58	274.64
476.94	274.36
477.31	274.04
477.67	273.77
478.04	273.55
478.41	273.37
478.77	273.30
479.14	273.17
479.50	273.07
479.87	273.05
480.23	273.06
480.60	273.03
480.96	273.06
481.33	273.18
481.69	273.31
482.06	273.47
482.42	273.61
482.79	273.80
483.15	274.05
483.52	274.38
483.88	274.71
484.25	275.04
484.61	275.45
484.98	275.96
485.34	276.50
485.71	277.06
486.07	277.65
486.44	278.20
486.80	278.90
487.17	279.63
487.53	280.46
487.90	281.34
488.26	282.33
488.62	283.34
488.99	284.32
489.35	285.36
489.72	286.53
490.08	287.82
490.44	289.11
490.81	290.56
491.17	291.98
491.54	293.54
491.90	295.18
492.26	296.92
492.63	298.72
492.99	300.58
493.36	302.60
493.72	304.78
494.08	307.06
494.45	309.42
494.81	311.93
495.17	314.56
495.54	317.28
495.90	320.13
496.26	323.12
496.63	326.35
496.99	329.72
497.35	333.20
497.72	336.77
498.08	340.54
498.44	344.45
498.80	348.70
499.17	353.01
499.53	357.49
499.89	362.21
500.26	367.10
500.62	372.13
500.98	377.46
501.34	382.91
501.71	388.61
502.07	394.52
502.43	400.58
502.79	406.85
503.16	413.39
503.52	420.18
503.88	427.07
504.24	434.18
504.60	441.59
504.97	449.30
505.33	457.18
505.69	465.53
506.05	473.88
506.41	482.32
506.78	491.08
507.14	500.23
507.50	509.59
507.86	519.32
508.22	529.29
508.59	539.26
508.95	549.64
509.31	560.26
509.67	571.17
510.03	582.27
510.39	593.73
510.75	605.50
511.12	617.35
511.48	629.69
511.84	642.17
512.20	654.67
512.56	667.58
512.92	680.85
513.28	694.30
513.64	707.96
514.00	721.87
514.37	736.08
514.73	750.41
515.09	764.67
515.45	779.11
515.81	793.94
516.17	809.23
516.53	824.84
516.89	840.48
517.25	856.00
517.61	871.88
517.97	887.75
518.33	903.53
518.69	919.83
519.05	936.31
519.41	952.99
519.77	970.19
520.13	987.41
520.49	1004.46
520.85	1021.45
521.21	1038.77
521.57	1056.74
521.93	1074.16
522.29	1092.27
522.65	1110.44
523.01	1128.54
523.37	1146.57
523.73	1164.71
524.09	1182.66
524.45	1200.76
524.81	1219.44
525.17	1238.17
525.53	1257.02
525.89	1275.95
526.25	1294.84
526.61	1313.27
526.97	1332.16
527.33	1350.71
527.68	1369.40
528.04	1388.01
528.40	1406.84
528.76	1426.24
529.12	1445.04
529.48	1464.23
529.84	1482.37
530.20	1501.20
530.56	1520.48
530.91	1540.16
531.27	1559.18
531.63	1577.84
531.99	1596.81
532.35	1615.11
532.71	1633.44
533.07	1652.16
533.42	1670.56
533.78	1689.12
534.14	1707.79
534.50	1725.66
534.86	1743.95
535.21	1761.53
535.57	1780.01
535.93	1797.84
536.29	1815.03
536.65	1832.63
537.00	1849.99
537.36	1867.88
537.72	1884.88
538.08	1901.84
538.44	1918.10
538.79	1934.41
539.15	1950.49
539.51	1966.75
539.87	1983.74
540.22	2000.13
540.58	2016.46
540.94	2032.36
541.29	2047.59
541.65	2062.94
542.01	2078.63
542.37	2093.63
542.72	2108.66
543.08	2122.96
543.44	2138.12
543.79	2151.94
544.15	2165.32
544.51	2179.43
544.87	2192.93
545.22	2206.44
545.58	2219.25
545.94	2231.54
546.29	2243.98
546.65	2256.52
547.01	2268.32
547.36	2279.49
547.72	2290.27
548.07	2300.54
548.43	2310.93
548.79	2321.25
549.14	2330.97
549.50	2340.51
549.86	2350.29
550.21	2359.71
550.57	2369.25
550.92	2377.90
551.28	2387.20
551.64	2396.60
551.99	2405.23
552.35	2413.58
552.70	2421.73
553.06	2429.77
553.41	2438.15
553.77	2446.29
554.13	2454.42
554.48	2462.63
554.84	2470.18
555.19	2477.38
555.55	2484.57
555.90	2491.22
556.26	2498.28
556.61	2504.87
556.97	2511.15
557.32	2517.27
557.68	2523.27
558.03	2529.32
558.39	2534.75
558.74	2541.25
559.10	2546.87
559.45	2552.24
559.81	2558.28
560.16	2563.85
560.52	2568.80
560.87	2573.74
561.23	2577.80
561.58	2582.21
561.94	2586.20
562.29	2589.79
562.64	2594.20
563.00	2598.18
563.35	2603.12
563.71	2607.59
564.06	2612.28
564.42	2616.72
564.77	2620.57
565.12	2624.41
565.48	2627.70
565.83	2631.15
566.19	2633.86
566.54	2635.77
566.89	2638.14
567.25	2639.91
567.60	2642.30
567.96	2645.18
568.31	2647.29
568.66	2649.65
569.02	2651.21
569.37	2652.52
569.72	2654.35
570.08	2655.30
570.43	2656.06
570.78	2656.17
571.14	2655.39
571.49	2654.69
571.84	2655.02
572.20	2654.60
572.55	2654.07
572.90	2652.76
573.26	2651.69
573.61	2650.16
573.96	2649.03
574.31	2646.17
574.67	2643.43
575.02	2639.98
575.37	2636.57
575.72	2632.81
576.08	2629.33
576.43	2626.01
576.78	2622.48
577.13	2619.40
577.49	2616.18
577.84	2612.69
578.19	2608.73
578.54	2604.86
578.90	2600.70
579.25	2594.62
579.60	2589.32
579.95	2584.01
580.30	2578.72
580.66	2573.17
581.01	2567.69
581.36	2562.16
581.71	2557.86
582.06	2553.09
582.42	2548.38
582.77	2542.84
583.12	2537.88
583.47	2533.03
583.82	2527.84
584.17	2521.95
584.53	2515.95
584.88	2509.88
585.23	2503.61
585.58	2497.60
585.93	2491.61
586.28	2486.04
586.63	2480.45
586.98	2474.86
587.34	2469.57
587.69	2464.10
588.04	2458.40
588.39	2452.14
588.74	2444.94
589.09	2438.07
589.44	2430.15
589.79	2422.91
590.14	2416.29
590.49	2408.73
590.84	2401.24
591.19	2394.10
591.54	2386.79
591.89	2378.56
592.25	2370.82
592.60	2362.58
592.95	2354.09
593.30	2345.59
593.65	2336.83
594.00	2328.60
594.35	2320.08
594.70	2310.53
595.05	2302.33
595.40	2293.62
595.75	2284.89
596.10	2277.71
596.45	2269.71
596.80	2262.68
597.15	2255.10
597.50	2247.02
597.85	2239.42
598.19	2231.73
598.54	2223.69
598.89	2215.92
599.24	2208.84
599.59	2201.01
599.94	2193.56
600.29	2185.84
600.64	2178.05
600.99	2169.40
601.34	2161.39
601.69	2153.15
602.04	2145.37
602.39	2136.65
602.74	2128.68
603.08	2120.77
603.43	2112.74
603.78	2103.97
604.13	2095.38
604.48	2086.79
604.83	2078.66
605.18	2070.65
605.53	2061.08
605.87	2051.37
606.22	2042.56
606.57	2032.87
606.92	2023.85
607.27	2015.44
607.62	2007.35
607.96	1998.78
608.31	1991.03
608.66	1982.13
609.01	1973.15
609.36	1964.06
609.70	1954.49
610.05	1944.80
610.40	1935.61
610.75	1925.68
611.10	1916.65
611.44	1906.39
611.79	1896.77
612.14	1886.30
612.49	1875.16
612.83	1865.16
613.18	1855.48
613.53	1845.83
613.88	1835.69
614.22	1825.99
614.57	1815.54
614.92	1805.94
615.27	1796.98
615.61	1786.87
615.96	1777.13
616.31	1768.03
616.65	1759.05
617.00	1749.77
617.35	1740.62
617.70	1730.66
618.04	1720.54
618.39	1710.69
618.74	1701.76
619.08	1691.88
619.43	1682.74
619.78	1674.33
620.12	1665.85
620.47	1656.74
620.82	1646.87
621.16	1638.00
621.51	1628.74
621.85	1619.46
622.20	1609.16
622.55	1599.00
622.89	1589.56
623.24	1580.23
623.59	1571.08
623.93	1562.12
624.28	1553.49
624.62	1544.34
624.97	1535.70
625.32	1527.32
625.66	1518.76
626.01	1510.16
626.35	1501.32
626.70	1491.93
627.04	1482.72
627.39	1473.22
627.73	1464.25
628.08	1455.97
628.43	1447.34
628.77	1438.56
629.12	1429.66
629.46	1421.01
629.81	1412.02
630.15	1403.31
630.50	1394.62
630.84	1384.97
631.19	1375.32
631.53	1366.35
631.88	1357.31
632.22	1348.13
632.57	1339.46
632.91	1330.43
633.26	1321.52
633.60	1312.55
633.95	1304.04
634.29	1295.58
634.64	1287.64
634.98	1279.03
635.32	1270.55
635.67	1262.46
636.01	1254.46
636.36	1246.31
636.70	1238.49
637.05	1230.65
637.39	1222.95
637.73	1215.14
638.08	1208.02
638.42	1200.90
638.77	1193.13
639.11	1185.38
639.45	1177.79
639.80	1169.84
640.14	1162.21
640.49	1154.48
640.83	1146.93
641.17	1139.55
641.52	1132.00
641.86	1124.23
642.20	1117.21
642.55	1109.58
642.89	1101.88
643.23	1094.01
643.58	1087.18
643.92	1079.88
644.26	1072.67
644.61	1065.46
644.95	1058.32
645.29	1050.69
645.64	1042.71
645.98	1035.25
646.32	1028.13
646.66	1020.93
647.01	1014.12
647.35	1007.39
647.69	1000.32
648.04	993.82
648.38	986.97
648.72	980.03
649.06	972.97
649.41	965.95
649.75	959.05
650.09	952.08
650.43	945.24
650.78	937.91
651.12	930.88
651.46	924.21
651.80	917.49
652.14	911.04
652.49	904.71
652.83	898.50
653.17	891.87
653.51	885.20
653.85	878.79
654.20	872.16
654.54	865.05
654.88	858.25
655.22	851.22
655.56	844.48
655.90	837.95
656.25	831.76
656.59	825.45
656.93	819.41
657.27	813.34
657.61	807.01
657.95	801.02
658.29	794.94
658.64	788.61
658.98	782.29
659.32	775.88
659.66	769.59
660.00	763.53
660.34	757.65
660.68	751.83
661.02	745.88
661.36	740.31
661.70	735.02
662.05	729.94
662.39	724.89
662.73	719.67
663.07	714.48
663.41	709.10
663.75	703.73
664.09	698.30
664.43	693.11
664.77	688.28
665.11	683.27
665.45	678.46
665.79	673.67
666.13	668.82
666.47	663.93
666.81	659.11
667.15	654.18
667.49	649.59
667.83	645.10
668.17	640.53
668.51	635.75
668.85	630.98
669.19	626.41
669.53	621.96
669.87	617.37
670.21	612.97
670.55	608.71
670.89	604.80
671.23	600.78
671.57	596.55
671.91	592.43
672.25	588.33
672.58	584.14
672.92	580.20
673.26	576.45
673.60	572.77
673.94	569.08
674.28	565.64
674.62	562.12
674.96	558.44
675.30	555.06
675.64	551.60
675.97	548.29
676.31	544.94
676.65	541.47
676.99	538.32
677.33	534.94
677.67	531.64
678.01	528.00
678.34	524.51
678.68	521.20
679.02	517.77
679.36	514.49
679.70	511.28
680.04	507.98
680.37	504.70
680.71	501.38
681.05	498.27
681.39	495.13
681.73	492.06
682.06	489.14
682.40	486.14
682.74	483.19
683.08	480.26
683.42	477.22
683.75	474.29
684.09	471.25
684.43	468.41
684.77	465.51
685.10	462.74
685.44	459.96
685.78	457.25
686.12	454.60
686.45	451.88
686.79	449.23
687.13	446.66
687.46	444.03
687.80	441.51
688.14	438.92
688.48	436.46
688.81	433.81
689.15	431.22
689.49	428.62
689.82	426.09
690.16	423.58
690.50	421.25
690.83	418.97
691.17	416.63
691.51	414.36
691.84	412.17
692.18	409.93
692.52	407.66
692.85	405.33
693.19	403.10
693.52	400.89
693.86	398.70
694.20	396.56
694.53	394.44
694.87	392.24
695.21	390.16
695.54	388.02
695.88	385.94
696.21	383.94
696.55	381.98
696.88	380.00
697.22	378.01
697.56	376.07
697.89	374.08
698.23	372.20
698.56	370.30
698.90	368.45
699.23	366.48
699.57	364.63
699.90	362.79
700.24	360.99
700.58	359.25
700.91	357.52
701.25	355.81
701.58	354.18
701.92	352.59
702.25	350.94
702.59	349.33
702.92	347.77
703.26	346.21
703.59	344.68
703.93	343.21
704.26	341.79
704.60	340.28
704.93	338.74
705.26	337.29
705.60	335.85
705.93	334.48
706.27	333.29
706.60	332.05
706.94	330.79
707.27	329.41
707.61	328.10
707.94	326.85
708.27	325.58
708.61	324.30
708.94	323.07
709.28	321.90
709.61	320.72
709.94	319.57
710.28	318.37
710.61	317.20
710.95	315.99
711.28	314.90
711.61	313.79
711.95	312.75
712.28	311.61
712.61	310.49
712.95	309.35
713.28	308.24
713.61	307.17
713.95	306.15
714.28	305.18
714.61	304.17
714.95	303.13
715.28	302.13
715.61	301.08
715.95	300.05
716.28	299.04
716.61	298.03
716.95	297.05
717.28	296.13
717.61	295.23
717.94	294.38
718.28	293.40
718.61	292.54
718.94	291.69
719.27	290.90
719.61	290.13
719.94	289.36
720.27	288.53
720.60	287.78
720.94	287.03
721.27	286.32
721.60	285.67
721.93	285.02
722.27	284.33
722.60	283.69
722.93	283.05
723.26	282.38
723.59	281.77
723.93	281.10
724.26	280.45
724.59	279.76
724.92	279.14
725.25	278.57
725.59	277.93
725.92	277.37
726.25	276.74
726.58	276.15
726.91	275.56
727.24	274.98
727.57	274.41
727.91	273.82
728.24	273.25
728.57	272.65
728.90	272.08
729.23	271.50
729.56	270.99
729.89	270.45
730.22	269.89
730.55	269.34
730.89	268.82
731.22	268.33
731.55	267.84
731.88	267.32
732.21	266.80
732.54	266.29
732.87	265.77
733.20	265.30
733.53	264.87
733.86	264.45
734.19	263.97
734.52	263.47
734.85	263.06
735.18	262.59
735.51	262.16
735.84	261.75
736.17	261.33
736.50	260.89
736.83	260.62
737.16	260.22
737.49	259.80
737.82	259.40
738.15	258.98
738.48	258.57
738.81	258.19
739.14	257.80
739.47	257.43
739.80	257.05
740.13	256.67
740.46	256.21
740.79	255.85
741.12	255.49
741.45	255.14
741.78	254.76
742.11	254.42
742.44	254.04
742.77	253.69
743.10	253.34
743.43	252.95
743.75	252.48
744.08	252.30
744.41	251.99
744.74	251.70
745.07	251.39
745.40	251.09
745.73	250.80
746.06	250.48
746.39	250.17
746.71	249.86
747.04	249.51
747.37	249.24
747.70	248.92
748.03	248.61
748.36	248.35
748.68	248.02
749.01	247.72
749.34	247.44
749.67	247.21
750.00	246.92
750.33	246.71
750.65	246.47
750.98	246.10
751.31	245.83
751.64	245.54
751.97	245.34
752.29	245.08
752.62	244.80
752.95	244.54
753.28	244.34
753.60	244.08
753.93	243.89
754.26	243.70
754.59	243.41
754.91	243.17
755.24	242.92
755.57	242.75
755.90	242.54
756.22	242.33
756.55	242.08
756.88	241.90
757.20	241.66
757.53	241.39
757.86	241.18
758.19	241.01
758.51	240.81
758.84	240.58
759.17	240.37
759.49	240.19
759.82	240.03
760.15	239.84
760.47	239.67
760.80	239.53
761.13	239.38
761.45	239.23
761.78	239.06
762.11	238.93
762.43	238.74
762.76	238.57
763.08	238.41
763.41	238.25
763.74	238.07
764.06	237.91
764.39	237.76
764.71	237.59
765.04	237.43
765.37	237.28
765.69	237.07
766.02	236.94
766.34	236.81
766.67	236.66
767.00	236.53
767.32	236.44
767.65	236.32
767.97	236.17
768.30	236.02
768.62	235.89
768.95	235.74
769.27	235.61
769.60	235.52
769.92	235.36
770.25	235.19
770.57	235.05
770.90	234.93
771.22	234.80
771.55	234.68
771.87	234.58
772.20	234.46
772.52	234.50
772.85	234.49
773.17	234.38
773.50	234.26
773.82	234.13
774.15	234.01
774.47	233.87
774.80	233.74
775.12	233.67
775.45	233.58
775.77	233.48
776.09	233.40
776.42	233.27
776.74	233.23
777.07	233.14
777.39	233.07
777.72	232.97
778.04	232.90
778.36	232.79
778.69	232.69
779.01	232.61
779.33	232.45
779.66	232.28
779.98	232.18
780.31	232.09
780.63	232.08
780.95	232.02
781.28	231.90
781.60	231.83
781.92	231.76
782.25	231.70
782.57	231.66
782.89	231.57
783.22	231.47
783.54	231.40
783.86	231.38
784.19	231.28
784.51	231.25
784.83	231.15
785.16	231.11
785.48	231.07
785.80	231.02
786.12	230.96
786.45	230.88
786.77	230.84
787.09	230.79
787.42	230.67
787.74	230.58
788.06	230.57
788.38	230.52
788.71	230.45
789.03	230.41
789.35	230.37
789.67	230.30
789.99	230.31
790.32	230.21
790.64	230.14
790.96	230.22
791.28	230.13
791.61	230.11
791.93	230.07
792.25	230.01
792.57	230.03
792.89	229.93
793.21	229.90
793.54	229.83
793.86	229.74
794.18	229.73
794.50	229.69
794.82	229.62
795.14	229.56
795.47	229.52
795.79	229.46
796.11	229.38
796.43	229.34
796.75	229.30
797.07	229.29
797.39	229.25
797.71	229.11
798.04	229.07
798.36	228.99
798.68	228.94
799.00	228.92
799.32	228.83
799.64	228.82
799.96	228.79
800.28	228.74
800.60	228.70
800.92	228.64
801.24	228.59
801.56	228.55
801.89	228.52
802.21	228.51
802.53	228.45
802.85	228.44
803.17	228.46
803.49	228.40
803.81	228.34
804.13	228.28
804.45	228.23
804.77	228.25
805.09	228.24
805.41	228.19
805.73	228.14
806.05	228.08
806.37	228.05
806.69	228.03
807.01	228.00
807.33	227.99
807.65	227.91
807.97	227.92
808.28	227.87
808.60	227.84
808.92	227.80
809.24	227.81
809.56	227.74
809.88	227.66
810.20	227.64
810.52	227.63
810.84	227.59
811.16	227.57
811.48	227.50
811.80	227.49
812.12	227.46
812.43	227.45
812.75	227.42
813.07	227.37
813.39	227.30
813.71	227.27
814.03	227.25
814.35	227.25
814.67	227.17
814.98	227.15
815.30	227.13
815.62	227.06
815.94	227.01
816.26	227.07
816.58	227.03
816.89	227.02
817.21	226.99
817.53	226.96
817.85	226.93
818.17	226.91
818.48	226.87
818.80	226.85
819.12	226.79
819.44	226.75
819.76	226.73
820.07	226.71
820.39	226.70
820.71	226.68
821.03	226.68
821.34	226.66
821.66	226.63
821.98	226.60
822.30	226.59
822.61	226.60
822.93	226.53
823.25	226.49
823.57	226.46
823.88	226.44
824.20	226.44
824.52	226.49
824.83	226.45
825.15	226.44
825.47	226.45
825.79	226.47
826.10	226.46
826.42	226.46
826.74	226.49
827.05	226.47
827.37	226.49
827.69	226.46
828.00	226.48
828.32	226.51
828.64	226.52
828.95	226.54
829.27	226.52
829.58	226.53
829.90	226.56
830.22	226.54
830.53	226.51
830.85	226.49
831.17	226.43
831.48	226.42
831.80	226.40
832.11	226.39
832.43	226.38
832.75	226.36
833.06	226.39
833.38	226.33
833.69	226.32
834.01	226.29
834.32	226.26
834.64	226.24
834.96	226.23
835.27	226.22
835.59	226.17
835.90	226.16
836.22	226.15
836.53	226.12
836.85	226.13
837.16	226.27
837.48	226.28
837.79	226.31
838.11	226.34
838.42	226.35
838.74	226.36
839.05	226.34
839.37	226.34
839.68	226.31
840.00	226.35
840.31	226.38
840.63	226.37
840.94	226.35
841.26	226.37
841.57	226.35
841.88	226.34
842.20	226.38
842.51	226.36
842.83	226.34
843.14	226.43
843.46	226.43
843.77	226.32
844.08	226.35
844.40	226.30
844.71	226.30
845.03	226.27
845.34	226.27
845.65	226.28
845.97	226.29
846.28	226.27
846.60	226.23
846.91	226.19
847.22	226.20
847.54	226.26
847.85	226.24
848.16	226.24
848.48	226.20
848.79	226.21
849.10	226.21
849.42	226.22
849.73	226.15
850.04	226.13
850.36	226.11
850.67	226.09
850.98	226.09
851.30	226.06
851.61	226.07
851.92	226.04
852.23	226.02
852.55	226.00
852.86	226.00
853.17	226.00
853.49	226.04
853.80	226.05
854.11	226.03
854.42	226.02
854.74	226.00
855.05	226.00
855.36	225.95
855.67	225.91
855.99	225.89
856.30	225.95
856.61	225.91
856.92	225.90
857.23	225.86
857.55	225.84
857.86	225.84
858.17	225.83
858.48	225.80
858.79	225.75
859.11	225.76
859.42	225.76
859.73	225.73
860.04	225.69
860.35	225.64
860.66	225.58
860.98	225.60
861.29	225.60
861.60	225.60
861.91	225.59
862.22	225.58
862.53	225.56
862.84	225.47
863.16	225.51
863.47	225.49
863.78	225.48
864.09	225.49
864.40	225.48
864.71	225.52
865.02	225.51
865.33	225.52
865.64	225.53
865.95	225.48
866.27	225.57
866.58	225.56
866.89	225.56
867.20	225.58
867.51	225.56
867.82	225.57
868.13	225.61
868.44	225.57
868.75	225.61
869.06	225.58
869.37	225.57
869.68	225.55
869.99	225.56
870.30	225.55
870.61	225.55
870.92	225.56
871.23	225.55
871.54	225.57
871.85	225.57
872.16	225.55
872.47	225.57
872.78	225.46
873.09	225.48
873.40	225.49
873.71	225.47
874.02	225.46
874.33	225.42
874.64	225.41
874.95	225.43
875.26	225.39
875.56	225.43
875.87	225.46
876.18	225.44
876.49	225.51
876.80	225.52
877.11	225.50
877.42	225.51
877.73	225.48
878.04	225.49
878.35	225.48
878.66	225.49
878.96	225.49
879.27	225.52
879.58	225.53
879.89	225.52
880.20	225.53
880.51	225.55
880.82	225.55
881.12	225.53
881.43	225.48
881.74	225.47
882.05	225.44
882.36	225.43
882.67	225.45
882.97	225.40
883.28	225.41
883.59	225.42
883.90	225.44
884.21	225.46
884.51	225.45
884.82	225.49
885.13	225.49
885.44	225.51
885.74	225.53
886.05	225.48
886.36	225.49
886.67	225.48
886.98	225.52
887.28	225.55
887.59	225.55
887.90	225.63
888.20	225.62
888.51	225.65
888.82	225.63
889.13	225.65
889.43	225.68
889.74	225.66
890.05	225.63
890.35	225.58
890.66	225.57
890.97	225.54
891.28	225.51
891.58	225.49
891.89	225.46
892.20	225.45
892.50	225.46
892.81	225.45
893.12	225.45
893.42	225.42
893.73	225.39
894.04	225.41
894.34	225.38
894.65	225.37
894.95	225.35
895.26	225.37
895.57	225.39
895.87	225.32
896.18	225.34
896.48	225.36
896.79	225.35
897.10	225.35
897.40	225.36
897.71	225.38
898.01	225.37
898.32	225.37
898.63	225.38
898.93	225.37
899.24	225.36
899.54	225.32
899.85	225.34
900.15	225.34
900.46	225.34
900.76	225.35
901.07	225.37
901.38	225.37
901.68	225.39
901.99	225.33
902.29	225.34
902.60	225.32
902.90	225.30
903.21	225.30
903.51	225.30
903.82	225.31
904.12	225.31
904.43	225.31
904.73	225.33
905.03	225.31
905.34	225.42
905.64	225.41
905.95	225.42
906.25	225.39
906.56	225.39
906.86	225.35
907.17	225.35
907.47	225.34
907.77	225.32
908.08	225.26
908.38	225.27
908.69	225.26
908.99	225.29
909.30	225.30
909.60	225.30
909.90	225.29
910.21	225.26
910.51	225.26
910.81	225.28
911.12	225.27
911.42	225.28
911.73	225.16
912.03	225.18
912.33	225.20
912.64	225.18
912.94	225.17
913.24	225.18
913.55	225.14
913.85	225.15
914.15	225.19
914.46	225.22
914.76	225.21
915.06	225.22
915.37	225.20
915.67	225.21
915.97	225.20
916.27	225.17
916.58	225.19
916.88	225.18
917.18	225.16
917.49	225.22
917.79	225.24
918.09	225.22
918.39	225.24
918.70	225.25
919.00	225.27
919.30	225.31
919.60	225.31
919.91	225.32
920.21	225.33
920.51	225.31
920.81	225.29
921.12	225.33
921.42	225.32
921.72	225.33
922.02	225.34
922.32	225.38
922.63	225.38
922.93	225.44
923.23	225.43
923.53	225.43
923.83	225.35
924.13	225.36
924.44	225.39
924.74	225.43
925.04	225.46
925.34	225.47
925.64	225.42
925.94	225.41
926.24	225.47
926.55	225.46
926.85	225.50
927.15	225.51
927.45	225.50
927.75	225.49
928.05	225.48
928.35	225.44
928.65	225.44
928.95	225.48
929.26	225.42
929.56	225.45
929.86	225.47
930.16	225.45
930.46	225.43
930.76	225.41
931.06	225.33
931.36	225.29
931.66	225.30
931.96	225.31
932.26	225.33
932.56	225.28
932.86	225.29
933.16	225.28
933.46	225.26
933.76	225.25
934.06	225.29
934.36	225.31
934.66	225.33
934.96	225.33
935.26	225.35
935.56	225.33
935.86	225.32
936.16	225.30
936.46	225.30
936.76	225.27
937.06	225.31
937.36	225.32
937.66	225.34
937.96	225.31
938.26	225.31
938.56	225.30
938.86	225.29
939.16	225.32
939.46	225.34
939.76	225.33
940.06	225.34
940.35	225.28
940.65	225.22
940.95	225.25
941.25	225.23
941.55	225.21
941.85	225.21
942.15	225.19
942.45	225.20
942.75	225.21
943.04	225.24
943.34	225.19
943.64	225.17
943.94	225.15
944.24	225.16
944.54	225.14
944.84	225.12
945.13	225.13
945.43	225.07
945.73	225.09
946.03	225.07
946.33	225.07
946.62	225.10
946.92	225.10
947.22	225.07
947.52	225.08
947.82	225.08
948.11	225.11
948.41	225.09
948.71	225.10
949.01	225.08
949.31	225.08
949.60	225.11
949.90	225.13
950.20	225.14
950.50	225.11
950.79	225.11
951.09	225.15
951.39	225.15
951.69	225.18
951.98	225.15
952.28	225.17
952.58	225.14
952.87	225.10
953.17	225.11
953.47	225.12
953.76	225.10
954.06	225.02
954.36	224.97
954.66	224.99
954.95	225.00
955.25	225.01
955.55	224.98
955.84	224.95
956.14	224.94
956.44	224.93
956.73	224.94
957.03	224.95
957.32	224.90
957.62	224.89
957.92	224.90
958.21	224.89
958.51	225.01
958.81	225.05
959.10	225.08
959.40	225.10
959.69	225.11
959.99	225.14
960.29	225.19
960.58	225.22
960.88	225.25
961.17	225.22
961.47	225.22
961.76	225.23
962.06	225.25
962.36	225.26
962.65	225.26
962.95	225.26
963.24	225.24
963.54	225.27
963.83	225.29
964.13	225.25
964.42	225.22
964.72	225.13
965.01	225.09
965.31	225.10
965.60	225.05
965.90	225.11
966.19	225.06
966.49	225.10
966.78	225.08
967.08	225.08
967.37	225.09
967.67	225.09
967.96	225.10
968.26	225.08
968.55	225.07
968.85	225.07
969.14	225.08
969.43	225.09
969.73	225.07
970.02	225.03
970.32	225.02
970.61	225.00
970.91	224.97
971.20	224.99
971.49	224.96
971.79	224.98
972.08	224.88
972.38	224.90
972.67	224.87
972.96	224.88
973.26	224.83
973.55	224.86
973.85	224.86
974.14	224.84
974.43	224.85
974.73	224.82
975.02	224.81
975.31	224.78
975.61	224.78
975.90	224.81
976.19	224.82
976.49	224.87
976.78	224.89
977.07	224.91
977.37	224.91
977.66	224.93
977.95	224.93
978.24	224.93
978.54	224.95
978.83	224.95
979.12	224.95
979.42	224.99
979.71	224.96
980.00	224.95
980.29	224.95
980.59	224.95
980.88	224.99
981.17	224.99
981.46	224.99
981.76	224.97
982.05	224.96
982.34	224.96
982.63	224.92
982.93	224.95
983.22	224.94
983.51	224.93
983.80	224.91
984.09	224.92
984.39	224.91
984.68	224.90
984.97	224.85
985.26	224.84
985.55	224.83
985.85	224.81
986.14	224.85
986.43	224.85
986.72	224.83
987.01	224.81
987.30	224.77
987.59	224.77
987.89	224.76
988.18	224.72
988.47	224.67
988.76	224.66
989.05	224.65
989.34	224.63
989.63	224.63
989.92	224.64
990.22	224.65
990.51	224.65
990.80	224.62
991.09	224.65
991.38	224.64
991.67	224.64
991.96	224.62
992.25	224.60
992.54	224.57
992.83	224.59
993.12	224.57
993.41	224.63
993.70	224.69
993.99	224.71
994.28	224.76
994.58	224.78
994.87	224.78
995.16	224.77
995.45	224.74
995.74	224.72
996.03	224.72
996.32	224.71
996.61	224.73
996.90	224.74
997.19	224.71
997.48	224.72
997.77	224.71
998.06	224.71
998.34	224.68
998.63	224.72
998.92	224.70
999.21	224.72
999.50	224.69
999.79	224.64
1000.08	224.62
1000.37	224.64
1000.66	224.62
1000.95	224.62
1001.24	224.65
1001.53	224.68
1001.82	224.69
1002.11	224.69
1002.40	224.70
1002.68	224.71
1002.97	224.79
1003.26	224.80
1003.55	224.81
1003.84	224.81
1004.13	224.87
1004.42	224.87
1004.71	224.85
1004.99	224.85
1005.28	224.84
1005.57	224.82
1005.86	224.83
1006.15	224.85
1006.44	224.79
1006.72	224.83
1007.01	224.83
1007.30	224.85
1007.59	224.84
1007.88	224.85
1008.17	224.85
1008.45	224.80
1008.74	224.77
1009.03	224.70
1009.32	224.71
1009.60	224.69
1009.89	224.70
1010.18	224.64
1010.47	224.64
1010.76	224.66
1011.04	224.68
1011.33	224.71
1011.62	224.75
1011.91	224.72
1012.19	224.71
1012.48	224.77
1012.77	224.79
1013.05	224.81
1013.34	224.79
1013.63	224.79
1013.92	224.78
1014.20	224.78
1014.49	224.84
1014.78	224.86
1015.06	224.82
1015.35	224.83
1015.64	224.84
1015.92	224.86
1016.21	224.92
1016.50	224.97
1016.78	224.98
1017.07	224.97
1017.36	224.95
1017.64	224.94
1017.93	224.98
1018.22	225.01
1018.50	225.01
1018.79	224.98
1019.08	224.98
1019.36	224.99
1019.65	224.98
1019.93	225.02
1020.22	225.04
1020.51	225.10
1020.79	225.10
1021.08	225.46
1021.36	225.26
1021.65	224.52
1021.94	225.25
1022.22	225.22
1022.51	224.52
1022.79	225.54
1023.08	225.21
1023.36	226.61
1023.65	224.77
>>>>>End Processed Spectral Data<<<<<
