SpectraSuite Data File
++++++++++++++++++++++++++++++++++++
Date: Fri Feb 01 16:29:32 EST 2013
User: group
Dark Spectrum Present: No
Reference Spectrum Present: No
Number of Sampled Component Spectra: 1
Spectrometers: USB2E7196
Integration Time (usec): 35000 (USB2E7196)
Spectra Averaged: 100 (USB2E7196)
Boxcar Smoothing: 10 (USB2E7196)
Correct for Electrical Dark: No (USB2E7196)
Strobe/Lamp Enabled: No (USB2E7196)
Correct for Detector Non-linearity: No (USB2E7196)
Correct for Stray Light: No (USB2E7196)
Number of Pixels in Processed Spectrum: 2048
>>>>>Begin Processed Spectral Data<<<<<
339.09	0.00
339.48	214.38
339.86	215.31
340.24	217.13
340.63	218.09
341.01	221.18
341.39	220.88
341.78	222.19
342.16	223.83
342.54	224.15
342.93	212.48
343.31	223.23
343.69	223.75
344.07	224.21
344.46	224.64
344.84	225.05
345.22	225.29
345.60	225.53
345.99	225.71
346.37	225.84
346.75	225.96
347.13	226.05
347.52	226.07
347.90	226.17
348.28	226.19
348.66	226.22
349.05	226.21
349.43	226.24
349.81	226.26
350.19	226.35
350.57	226.36
350.96	226.42
351.34	226.49
351.72	226.57
352.10	226.69
352.48	226.74
352.87	226.76
353.25	226.82
353.63	226.88
354.01	226.95
354.39	227.01
354.77	227.07
355.15	227.11
355.54	227.19
355.92	227.24
356.30	227.28
356.68	227.42
357.06	227.48
357.44	227.51
357.82	227.57
358.20	227.60
358.58	227.67
358.97	227.73
359.35	227.81
359.73	227.90
360.11	227.95
360.49	228.03
360.87	228.11
361.25	228.17
361.63	228.25
362.01	228.30
362.39	228.34
362.77	228.38
363.15	228.46
363.53	228.48
363.91	228.50
364.29	228.53
364.67	228.46
365.05	228.48
365.43	228.53
365.81	228.55
366.19	228.59
366.57	228.64
366.95	228.62
367.33	228.57
367.71	228.52
368.09	228.53
368.47	228.46
368.85	228.41
369.23	228.40
369.61	228.33
369.99	228.35
370.37	228.31
370.75	228.33
371.13	228.26
371.51	228.25
371.89	228.22
372.27	228.22
372.65	228.18
373.03	228.13
373.41	228.06
373.78	228.02
374.16	227.92
374.54	227.83
374.92	227.79
375.30	227.76
375.68	227.69
376.06	227.64
376.44	227.61
376.82	227.53
377.19	227.48
377.57	227.42
377.95	227.29
378.33	227.25
378.71	227.12
379.09	227.04
379.47	226.96
379.84	226.90
380.22	226.83
380.60	226.76
380.98	226.68
381.36	226.62
381.73	226.55
382.11	226.46
382.49	226.41
382.87	226.32
383.25	226.22
383.62	226.29
384.00	226.19
384.38	226.09
384.76	226.10
385.13	226.03
385.51	225.99
385.89	225.94
386.27	225.88
386.64	225.81
387.02	225.78
387.40	225.72
387.78	225.67
388.15	225.62
388.53	225.61
388.91	225.61
389.29	225.56
389.66	225.56
390.04	225.59
390.42	225.59
390.79	225.60
391.17	225.60
391.55	225.51
391.92	225.50
392.30	225.53
392.68	225.47
393.05	225.48
393.43	225.48
393.81	225.49
394.18	225.48
394.56	225.52
394.94	225.54
395.31	225.55
395.69	225.59
396.06	225.63
396.44	225.64
396.82	225.66
397.19	225.76
397.57	225.76
397.95	225.80
398.32	225.80
398.70	225.84
399.07	225.93
399.45	225.99
399.82	226.06
400.20	226.07
400.58	226.17
400.95	226.21
401.33	226.31
401.70	226.47
402.08	226.54
402.45	226.61
402.83	226.76
403.20	226.87
403.58	226.95
403.95	227.05
404.33	227.18
404.71	227.31
405.08	227.46
405.46	227.60
405.83	227.74
406.21	227.88
406.58	228.03
406.96	228.18
407.33	228.30
407.70	228.48
408.08	228.78
408.45	229.00
408.83	229.21
409.20	229.40
409.58	229.60
409.95	229.85
410.33	230.16
410.70	230.39
411.08	230.71
411.45	231.02
411.82	231.30
412.20	231.67
412.57	232.09
412.95	232.38
413.32	232.80
413.69	233.19
414.07	233.61
414.44	234.08
414.82	234.52
415.19	235.10
415.56	235.64
415.94	236.18
416.31	236.80
416.68	237.46
417.06	238.19
417.43	238.86
417.81	239.63
418.18	240.41
418.55	241.24
418.93	242.09
419.30	242.99
419.67	243.95
420.04	244.88
420.42	245.86
420.79	247.05
421.16	248.20
421.54	249.41
421.91	250.69
422.28	251.93
422.66	253.26
423.03	254.55
423.40	255.91
423.77	257.36
424.15	258.80
424.52	260.26
424.89	261.90
425.26	263.42
425.64	264.87
426.01	266.43
426.38	268.06
426.75	269.73
427.13	271.43
427.50	273.21
427.87	275.06
428.24	276.92
428.61	278.64
428.99	280.57
429.36	282.65
429.73	284.65
430.10	286.69
430.47	288.73
430.85	290.85
431.22	293.06
431.59	295.38
431.96	297.62
432.33	300.10
432.70	302.43
433.08	305.25
433.45	307.88
433.82	310.48
434.19	313.39
434.56	316.19
434.93	318.83
435.30	321.48
435.68	324.35
436.05	327.15
436.42	329.91
436.79	332.42
437.16	335.11
437.53	337.95
437.90	340.76
438.27	343.50
438.64	346.29
439.01	348.89
439.38	351.12
439.75	353.27
440.13	355.77
440.50	358.08
440.87	359.87
441.24	361.85
441.61	363.97
441.98	365.40
442.35	367.17
442.72	369.04
443.09	370.83
443.46	371.83
443.83	372.41
444.20	372.96
444.57	373.81
444.94	374.11
445.31	374.41
445.68	374.76
446.05	374.83
446.42	374.49
446.79	374.04
447.16	373.62
447.53	373.33
447.90	372.15
448.27	371.02
448.64	369.46
449.01	368.29
449.37	366.36
449.74	364.49
450.11	362.28
450.48	359.79
450.85	357.27
451.22	355.12
451.59	353.12
451.96	351.17
452.33	348.55
452.70	346.19
453.07	343.39
453.43	340.49
453.80	337.77
454.17	335.10
454.54	332.57
454.91	329.86
455.28	327.15
455.65	324.69
456.02	322.21
456.38	320.04
456.75	317.35
457.12	315.12
457.49	312.87
457.86	310.71
458.23	308.89
458.59	306.84
458.96	304.79
459.33	302.90
459.70	301.06
460.07	299.53
460.43	297.81
460.80	296.18
461.17	294.75
461.54	293.24
461.91	291.77
462.27	290.33
462.64	289.07
463.01	287.72
463.38	286.40
463.74	285.06
464.11	283.92
464.48	282.93
464.85	281.85
465.21	281.02
465.58	280.09
465.95	279.00
466.32	278.07
466.68	277.15
467.05	276.32
467.42	275.42
467.78	274.54
468.15	273.69
468.52	273.05
468.88	272.18
469.25	271.45
469.62	270.86
469.98	270.18
470.35	269.56
470.72	268.98
471.08	268.36
471.45	267.84
471.82	267.34
472.18	266.75
472.55	266.33
472.92	265.82
473.28	265.38
473.65	264.93
474.02	264.56
474.38	264.20
474.75	263.88
475.11	263.57
475.48	263.31
475.85	263.12
476.21	262.91
476.58	262.75
476.94	262.60
477.31	262.48
477.67	262.34
478.04	262.24
478.41	262.20
478.77	262.23
479.14	262.19
479.50	262.20
479.87	262.28
480.23	262.38
480.60	262.47
480.96	262.55
481.33	262.80
481.69	262.98
482.06	263.17
482.42	263.39
482.79	263.62
483.15	263.96
483.52	264.29
483.88	264.66
484.25	265.06
484.61	265.53
484.98	265.98
485.34	266.53
485.71	267.11
486.07	267.71
486.44	268.27
486.80	268.98
487.17	269.72
487.53	270.54
487.90	271.34
488.26	272.29
488.62	273.31
488.99	274.24
489.35	275.29
489.72	276.41
490.08	277.63
490.44	278.92
490.81	280.21
491.17	281.59
491.54	283.07
491.90	284.63
492.26	286.18
492.63	287.90
492.99	289.66
493.36	291.53
493.72	293.59
494.08	295.73
494.45	297.98
494.81	300.31
495.17	302.75
495.54	305.29
495.90	307.94
496.26	310.73
496.63	313.70
496.99	316.83
497.35	320.11
497.72	323.52
498.08	327.00
498.44	330.72
498.80	334.59
499.17	338.61
499.53	342.75
499.89	347.22
500.26	351.76
500.62	356.43
500.98	361.42
501.34	366.44
501.71	371.76
502.07	377.19
502.43	382.85
502.79	388.67
503.16	394.80
503.52	401.10
503.88	407.49
504.24	414.18
504.60	421.04
504.97	428.18
505.33	435.45
505.69	443.20
506.05	450.96
506.41	458.91
506.78	467.10
507.14	475.60
507.50	484.28
507.86	493.31
508.22	502.50
508.59	511.73
508.95	521.38
509.31	531.21
509.67	541.39
510.03	551.72
510.39	562.24
510.75	573.02
511.12	583.90
511.48	595.14
511.84	606.58
512.20	618.05
512.56	629.96
512.92	642.16
513.28	654.45
513.64	666.93
514.00	679.58
514.37	692.44
514.73	705.49
515.09	718.54
515.45	731.88
515.81	745.56
516.17	759.56
516.53	773.72
516.89	787.89
517.25	802.02
517.61	816.36
517.97	830.82
518.33	845.21
518.69	860.10
519.05	875.08
519.41	890.16
519.77	905.76
520.13	921.15
520.49	936.48
520.85	951.81
521.21	967.56
521.57	983.68
521.93	999.41
522.29	1015.69
522.65	1031.83
523.01	1047.91
523.37	1063.87
523.73	1079.89
524.09	1095.75
524.45	1111.95
524.81	1128.47
525.17	1145.20
525.53	1162.00
525.89	1178.93
526.25	1195.58
526.61	1211.95
526.97	1228.63
527.33	1244.87
527.68	1261.42
528.04	1277.81
528.40	1294.33
528.76	1311.22
529.12	1327.87
529.48	1344.66
529.84	1360.68
530.20	1377.30
530.56	1394.25
530.91	1411.52
531.27	1428.12
531.63	1444.54
531.99	1461.00
532.35	1476.94
532.71	1492.71
533.07	1508.88
533.42	1524.53
533.78	1540.50
534.14	1556.59
534.50	1571.87
534.86	1587.83
535.21	1602.87
535.57	1618.67
535.93	1634.11
536.29	1648.64
536.65	1663.45
537.00	1678.10
537.36	1693.35
537.72	1707.57
538.08	1721.80
538.44	1735.54
538.79	1749.44
539.15	1763.02
539.51	1776.63
539.87	1790.79
540.22	1804.46
540.58	1818.13
540.94	1831.31
541.29	1844.06
541.65	1856.72
542.01	1869.82
542.37	1881.96
542.72	1894.36
543.08	1906.01
543.44	1918.47
543.79	1929.79
544.15	1940.73
544.51	1952.31
544.87	1963.23
545.22	1974.13
545.58	1984.33
545.94	1993.99
546.29	2003.73
546.65	2013.60
547.01	2022.87
547.36	2031.54
547.72	2039.97
548.07	2047.74
548.43	2055.94
548.79	2063.94
549.14	2071.40
549.50	2078.58
549.86	2086.16
550.21	2093.38
550.57	2100.57
550.92	2106.95
551.28	2113.82
551.64	2120.96
551.99	2127.36
552.35	2133.33
552.70	2139.55
553.06	2145.53
553.41	2151.79
553.77	2157.88
554.13	2163.95
554.48	2170.08
554.84	2175.47
555.19	2180.81
555.55	2185.97
555.90	2190.46
556.26	2195.25
556.61	2199.92
556.97	2204.37
557.32	2208.59
557.68	2212.76
558.03	2217.01
558.39	2220.60
558.74	2225.42
559.10	2229.14
559.45	2232.86
559.81	2237.12
560.16	2240.86
560.52	2243.99
560.87	2247.41
561.23	2250.10
561.58	2252.93
561.94	2255.40
562.29	2257.75
562.64	2260.50
563.00	2263.04
563.35	2266.47
563.71	2269.68
564.06	2272.98
564.42	2275.70
564.77	2278.31
565.12	2280.64
565.48	2282.72
565.83	2284.82
566.19	2286.08
566.54	2286.91
566.89	2288.05
567.25	2288.73
567.60	2289.99
567.96	2291.84
568.31	2292.73
568.66	2293.81
569.02	2294.51
569.37	2294.88
569.72	2295.90
570.08	2295.85
570.43	2296.09
570.78	2295.58
571.14	2294.05
571.49	2292.81
571.84	2292.66
572.20	2291.54
572.55	2290.48
572.90	2288.83
573.26	2287.36
573.61	2285.76
573.96	2284.26
574.31	2281.47
574.67	2278.70
575.02	2275.23
575.37	2271.76
575.72	2268.15
576.08	2264.85
576.43	2261.53
576.78	2257.91
577.13	2254.77
577.49	2251.85
577.84	2248.28
578.19	2244.64
578.54	2241.08
578.90	2236.85
579.25	2231.36
579.60	2226.31
579.95	2221.40
580.30	2216.47
580.66	2211.51
581.01	2206.62
581.36	2201.74
581.71	2197.53
582.06	2192.97
582.42	2188.59
582.77	2183.60
583.12	2179.03
583.47	2174.45
583.82	2169.52
584.17	2164.42
584.53	2158.95
584.88	2153.34
585.23	2147.77
585.58	2142.34
585.93	2136.95
586.28	2132.30
586.63	2127.23
586.98	2122.36
587.34	2117.80
587.69	2112.91
588.04	2107.64
588.39	2102.09
588.74	2095.72
589.09	2089.61
589.44	2082.95
589.79	2077.01
590.14	2071.41
590.49	2064.81
590.84	2058.51
591.19	2052.59
591.54	2046.23
591.89	2039.03
592.25	2032.31
592.60	2025.16
592.95	2017.73
593.30	2010.46
593.65	2002.92
594.00	1995.94
594.35	1988.77
594.70	1980.72
595.05	1973.61
595.40	1966.51
595.75	1959.05
596.10	1952.76
596.45	1946.09
596.80	1939.95
597.15	1933.26
597.50	1926.21
597.85	1919.82
598.19	1913.08
598.54	1905.99
598.89	1899.34
599.24	1893.43
599.59	1886.72
599.94	1880.51
600.29	1874.10
600.64	1867.59
600.99	1860.19
601.34	1853.37
601.69	1846.48
602.04	1839.62
602.39	1832.31
602.74	1825.41
603.08	1818.63
603.43	1811.98
603.78	1804.76
604.13	1797.52
604.48	1790.26
604.83	1783.43
605.18	1776.52
605.53	1768.66
605.87	1760.70
606.22	1753.48
606.57	1745.64
606.92	1738.39
607.27	1731.27
607.62	1724.42
607.96	1717.18
608.31	1710.54
608.66	1703.14
609.01	1695.65
609.36	1688.09
609.70	1680.13
610.05	1672.04
610.40	1664.25
610.75	1655.99
611.10	1648.24
611.44	1639.81
611.79	1631.86
612.14	1623.25
612.49	1614.13
612.83	1605.73
613.18	1597.58
613.53	1589.37
613.88	1580.72
614.22	1572.37
614.57	1563.68
614.92	1555.66
615.27	1548.11
615.61	1539.81
615.96	1531.61
616.31	1523.79
616.65	1516.50
617.00	1508.94
617.35	1501.29
617.70	1493.10
618.04	1484.62
618.39	1476.48
618.74	1469.04
619.08	1460.74
619.43	1452.91
619.78	1445.98
620.12	1438.85
620.47	1431.40
620.82	1423.43
621.16	1416.06
621.51	1408.43
621.85	1400.82
622.20	1392.28
622.55	1383.88
622.89	1376.10
623.24	1368.49
623.59	1361.17
623.93	1353.60
624.28	1346.33
624.62	1338.70
624.97	1331.51
625.32	1324.77
625.66	1317.73
626.01	1310.55
626.35	1303.02
626.70	1295.34
627.04	1287.58
627.39	1279.76
627.73	1272.26
628.08	1265.22
628.43	1257.92
628.77	1250.58
629.12	1243.15
629.46	1236.05
629.81	1228.64
630.15	1221.37
630.50	1213.95
630.84	1205.74
631.19	1197.82
631.53	1190.28
631.88	1182.82
632.22	1175.13
632.57	1167.71
632.91	1160.12
633.26	1152.62
633.60	1145.32
633.95	1138.37
634.29	1131.29
634.64	1124.58
634.98	1117.22
635.32	1110.10
635.67	1103.45
636.01	1096.86
636.36	1090.03
636.70	1083.53
637.05	1076.91
637.39	1070.36
637.73	1063.83
638.08	1057.92
638.42	1051.94
638.77	1045.58
639.11	1039.05
639.45	1032.64
639.80	1025.97
640.14	1019.61
640.49	1013.10
640.83	1006.73
641.17	1000.34
641.52	993.99
641.86	987.56
642.20	981.79
642.55	975.47
642.89	969.06
643.23	962.50
643.58	956.65
643.92	950.37
644.26	944.37
644.61	938.42
644.95	932.47
645.29	925.87
645.64	919.09
645.98	912.73
646.32	906.78
646.66	900.82
647.01	895.06
647.35	889.30
647.69	883.46
648.04	878.01
648.38	872.31
648.72	866.45
649.06	860.37
649.41	854.40
649.75	848.41
650.09	842.39
650.43	836.64
650.78	830.56
651.12	824.67
651.46	818.91
651.80	813.18
652.14	807.74
652.49	802.35
652.83	797.16
653.17	791.45
653.51	785.83
653.85	780.43
654.20	774.76
654.54	768.79
654.88	762.95
655.22	757.02
655.56	751.29
655.90	745.82
656.25	740.59
656.59	735.24
656.93	730.23
657.27	725.10
657.61	719.57
657.95	714.42
658.29	709.29
658.64	703.98
658.98	698.61
659.32	693.17
659.66	687.98
660.00	682.67
660.34	677.72
660.68	672.74
661.02	667.71
661.36	663.04
661.70	658.49
662.05	654.14
662.39	649.87
662.73	645.47
663.07	641.02
663.41	636.54
663.75	632.04
664.09	627.41
664.43	622.99
664.77	618.92
665.11	614.63
665.45	610.51
665.79	606.49
666.13	602.34
666.47	598.19
666.81	594.03
667.15	589.89
667.49	585.99
667.83	582.13
668.17	578.18
668.51	574.11
668.85	570.08
669.19	566.24
669.53	562.35
669.87	558.41
670.21	554.76
670.55	551.11
670.89	547.64
671.23	544.26
671.57	540.76
671.91	537.25
672.25	533.79
672.58	530.24
672.92	526.78
673.26	523.63
673.60	520.49
673.94	517.40
674.28	514.53
674.62	511.54
674.96	508.46
675.30	505.52
675.64	502.62
675.97	499.82
676.31	497.03
676.65	494.04
676.99	491.32
677.33	488.41
677.67	485.56
678.01	482.54
678.34	479.50
678.68	476.67
679.02	473.79
679.36	471.00
679.70	468.25
680.04	465.50
680.37	462.58
680.71	459.77
681.05	457.17
681.39	454.41
681.73	451.79
682.06	449.30
682.40	446.74
682.74	444.21
683.08	441.67
683.42	439.00
683.75	436.52
684.09	433.97
684.43	431.51
684.77	429.11
685.10	426.77
685.44	424.48
685.78	422.11
686.12	419.93
686.45	417.65
686.79	415.39
687.13	413.21
687.46	411.08
687.80	408.93
688.14	406.66
688.48	404.61
688.81	402.34
689.15	400.15
689.49	397.99
689.82	395.93
690.16	393.90
690.50	392.00
690.83	390.06
691.17	388.13
691.51	386.23
691.84	384.35
692.18	382.44
692.52	380.49
692.85	378.58
693.19	376.68
693.52	374.82
693.86	372.94
694.20	371.12
694.53	369.32
694.87	367.47
695.21	365.71
695.54	363.88
695.88	362.19
696.21	360.45
696.55	358.77
696.88	357.05
697.22	355.37
697.56	353.75
697.89	352.12
698.23	350.49
698.56	348.84
698.90	347.23
699.23	345.58
699.57	344.01
699.90	342.46
700.24	340.91
700.58	339.36
700.91	337.91
701.25	336.45
701.58	335.08
701.92	333.75
702.25	332.38
702.59	330.99
702.92	329.64
703.26	328.32
703.59	327.06
703.93	325.90
704.26	324.65
704.60	323.30
704.93	321.98
705.26	320.72
705.60	319.59
705.93	318.44
706.27	317.40
706.60	316.32
706.94	315.23
707.27	314.06
707.61	313.01
707.94	312.01
708.27	310.92
708.61	309.84
708.94	308.80
709.28	307.79
709.61	306.85
709.94	305.92
710.28	304.93
710.61	303.96
710.95	302.88
711.28	301.96
711.61	301.03
711.95	300.15
712.28	299.22
712.61	298.25
712.95	297.34
713.28	296.45
713.61	295.56
713.95	294.71
714.28	293.94
714.61	293.09
714.95	292.21
715.28	291.41
715.61	290.53
715.95	289.72
716.28	288.86
716.61	288.04
716.95	287.22
717.28	286.49
717.61	285.72
717.94	284.99
718.28	284.20
718.61	283.46
718.94	282.76
719.27	282.10
719.61	281.42
719.94	280.75
720.27	280.08
720.60	279.43
720.94	278.80
721.27	278.16
721.60	277.54
721.93	276.95
722.27	276.38
722.60	275.85
722.93	275.25
723.26	274.75
723.59	274.19
723.93	273.65
724.26	273.07
724.59	272.46
724.92	271.93
725.25	271.43
725.59	270.95
725.92	270.43
726.25	269.93
726.58	269.43
726.91	268.93
727.24	268.40
727.57	267.93
727.91	267.42
728.24	266.94
728.57	266.49
728.90	266.06
729.23	265.56
729.56	265.13
729.89	264.69
730.22	264.17
730.55	263.69
730.89	263.25
731.22	262.82
731.55	262.42
731.88	261.99
732.21	261.53
732.54	261.07
732.87	260.64
733.20	260.23
733.53	259.85
733.86	259.45
734.19	259.04
734.52	258.67
734.85	258.36
735.18	257.97
735.51	257.61
735.84	257.18
736.17	256.81
736.50	256.38
736.83	256.13
737.16	255.79
737.49	255.44
737.82	255.07
738.15	254.73
738.48	254.39
738.81	254.01
739.14	253.69
739.47	253.35
739.80	253.06
740.13	252.73
740.46	252.40
740.79	252.06
741.12	251.76
741.45	251.41
741.78	251.04
742.11	250.73
742.44	250.41
742.77	250.16
743.10	249.84
743.43	249.58
743.75	249.20
744.08	249.07
744.41	248.80
744.74	248.53
745.07	248.23
745.40	248.00
745.73	247.80
746.06	247.52
746.39	247.24
746.71	246.94
747.04	246.64
747.37	246.39
747.70	246.15
748.03	245.93
748.36	245.72
748.68	245.46
749.01	245.21
749.34	244.98
749.67	244.74
750.00	244.52
750.33	244.35
750.65	244.12
750.98	243.78
751.31	243.57
751.64	243.34
751.97	243.19
752.29	242.95
752.62	242.69
752.95	242.50
753.28	242.30
753.60	242.12
753.93	241.99
754.26	241.78
754.59	241.56
754.91	241.33
755.24	241.09
755.57	240.92
755.90	240.75
756.22	240.58
756.55	240.36
756.88	240.18
757.20	239.94
757.53	239.75
757.86	239.57
758.19	239.40
758.51	239.26
758.84	239.04
759.17	238.89
759.49	238.76
759.82	238.62
760.15	238.48
760.47	238.34
760.80	238.15
761.13	238.02
761.45	237.89
761.78	237.76
762.11	237.65
762.43	237.51
762.76	237.36
763.08	237.22
763.41	237.10
763.74	236.98
764.06	236.83
764.39	236.68
764.71	236.52
765.04	236.41
765.37	236.26
765.69	236.13
766.02	236.00
766.34	235.85
766.67	235.69
767.00	235.60
767.32	235.50
767.65	235.49
767.97	235.37
768.30	235.25
768.62	235.11
768.95	234.98
769.27	234.86
769.60	234.75
769.92	234.63
770.25	234.56
770.57	234.47
770.90	234.38
771.22	234.30
771.55	234.20
771.87	234.13
772.20	234.05
772.52	234.04
772.85	234.06
773.17	233.98
773.50	233.87
773.82	233.76
774.15	233.62
774.47	233.46
774.80	233.35
775.12	233.27
775.45	233.24
775.77	233.16
776.09	233.08
776.42	232.98
776.74	232.90
777.07	232.79
777.39	232.71
777.72	232.61
778.04	232.53
778.36	232.50
778.69	232.37
779.01	232.29
779.33	232.14
779.66	231.98
779.98	231.91
780.31	231.89
780.63	231.83
780.95	231.80
781.28	231.71
781.60	231.65
781.92	231.59
782.25	231.52
782.57	231.44
782.89	231.41
783.22	231.41
783.54	231.32
783.86	231.26
784.19	231.20
784.51	231.19
784.83	231.12
785.16	231.04
785.48	231.03
785.80	231.01
786.12	230.94
786.45	230.89
786.77	230.84
787.09	230.78
787.42	230.75
787.74	230.73
788.06	230.72
788.38	230.66
788.71	230.62
789.03	230.57
789.35	230.58
789.67	230.49
789.99	230.44
790.32	230.41
790.64	230.42
790.96	230.46
791.28	230.41
791.61	230.38
791.93	230.34
792.25	230.28
792.57	230.29
792.89	230.29
793.21	230.28
793.54	230.23
793.86	230.16
794.18	230.12
794.50	230.08
794.82	230.03
795.14	230.03
795.47	230.00
795.79	229.96
796.11	229.91
796.43	229.92
796.75	229.88
797.07	229.88
797.39	229.82
797.71	229.67
798.04	229.66
798.36	229.66
798.68	229.64
799.00	229.61
799.32	229.52
799.64	229.46
799.96	229.39
800.28	229.38
800.60	229.36
800.92	229.34
801.24	229.29
801.56	229.28
801.89	229.22
802.21	229.20
802.53	229.12
802.85	229.12
803.17	229.10
803.49	229.06
803.81	228.99
804.13	228.92
804.45	228.90
804.77	228.84
805.09	228.78
805.41	228.75
805.73	228.72
806.05	228.70
806.37	228.69
806.69	228.63
807.01	228.59
807.33	228.56
807.65	228.46
807.97	228.44
808.28	228.39
808.60	228.37
808.92	228.32
809.24	228.37
809.56	228.32
809.88	228.28
810.20	228.24
810.52	228.25
810.84	228.24
811.16	228.21
811.48	228.16
811.80	228.18
812.12	228.12
812.43	228.10
812.75	228.04
813.07	228.00
813.39	228.01
813.71	227.98
814.03	227.96
814.35	227.95
814.67	227.91
814.98	227.89
815.30	227.87
815.62	227.83
815.94	227.75
816.26	227.78
816.58	227.75
816.89	227.75
817.21	227.71
817.53	227.71
817.85	227.72
818.17	227.71
818.48	227.67
818.80	227.71
819.12	227.67
819.44	227.66
819.76	227.58
820.07	227.57
820.39	227.57
820.71	227.57
821.03	227.57
821.34	227.54
821.66	227.51
821.98	227.50
822.30	227.51
822.61	227.58
822.93	227.52
823.25	227.48
823.57	227.48
823.88	227.47
824.20	227.45
824.52	227.44
824.83	227.45
825.15	227.42
825.47	227.37
825.79	227.37
826.10	227.36
826.42	227.40
826.74	227.41
827.05	227.39
827.37	227.39
827.69	227.38
828.00	227.42
828.32	227.41
828.64	227.40
828.95	227.45
829.27	227.40
829.58	227.42
829.90	227.43
830.22	227.44
830.53	227.44
830.85	227.40
831.17	227.39
831.48	227.37
831.80	227.38
832.11	227.36
832.43	227.36
832.75	227.35
833.06	227.41
833.38	227.36
833.69	227.32
834.01	227.30
834.32	227.31
834.64	227.26
834.96	227.28
835.27	227.26
835.59	227.21
835.90	227.20
836.22	227.21
836.53	227.19
836.85	227.17
837.16	227.21
837.48	227.23
837.79	227.26
838.11	227.25
838.42	227.26
838.74	227.28
839.05	227.24
839.37	227.22
839.68	227.14
840.00	227.17
840.31	227.19
840.63	227.20
840.94	227.18
841.26	227.20
841.57	227.18
841.88	227.20
842.20	227.19
842.51	227.16
842.83	227.12
843.14	227.19
843.46	227.17
843.77	227.12
844.08	227.11
844.40	227.08
844.71	227.04
845.03	226.99
845.34	226.94
845.65	226.96
845.97	226.97
846.28	226.99
846.60	226.95
846.91	226.92
847.22	226.90
847.54	226.88
847.85	226.83
848.16	226.81
848.48	226.75
848.79	226.77
849.10	226.75
849.42	226.77
849.73	226.68
850.04	226.65
850.36	226.62
850.67	226.64
850.98	226.59
851.30	226.61
851.61	226.62
851.92	226.63
852.23	226.64
852.55	226.63
852.86	226.61
853.17	226.65
853.49	226.67
853.80	226.70
854.11	226.71
854.42	226.72
854.74	226.65
855.05	226.66
855.36	226.60
855.67	226.63
855.99	226.62
856.30	226.70
856.61	226.70
856.92	226.69
857.23	226.67
857.55	226.70
857.86	226.68
858.17	226.67
858.48	226.66
858.79	226.65
859.11	226.66
859.42	226.65
859.73	226.61
860.04	226.63
860.35	226.58
860.66	226.54
860.98	226.53
861.29	226.59
861.60	226.59
861.91	226.58
862.22	226.58
862.53	226.60
862.84	226.51
863.16	226.56
863.47	226.56
863.78	226.54
864.09	226.54
864.40	226.55
864.71	226.58
865.02	226.60
865.33	226.62
865.64	226.59
865.95	226.58
866.27	226.62
866.58	226.60
866.89	226.63
867.20	226.62
867.51	226.63
867.82	226.65
868.13	226.70
868.44	226.71
868.75	226.71
869.06	226.68
869.37	226.69
869.68	226.63
869.99	226.64
870.30	226.66
870.61	226.69
870.92	226.67
871.23	226.62
871.54	226.64
871.85	226.66
872.16	226.69
872.47	226.67
872.78	226.64
873.09	226.67
873.40	226.66
873.71	226.69
874.02	226.68
874.33	226.64
874.64	226.60
874.95	226.63
875.26	226.62
875.56	226.62
875.87	226.61
876.18	226.64
876.49	226.73
876.80	226.71
877.11	226.64
877.42	226.64
877.73	226.67
878.04	226.65
878.35	226.60
878.66	226.58
878.96	226.58
879.27	226.56
879.58	226.55
879.89	226.54
880.20	226.55
880.51	226.54
880.82	226.56
881.12	226.56
881.43	226.52
881.74	226.49
882.05	226.48
882.36	226.49
882.67	226.48
882.97	226.38
883.28	226.36
883.59	226.37
883.90	226.42
884.21	226.41
884.51	226.41
884.82	226.40
885.13	226.40
885.44	226.37
885.74	226.36
886.05	226.32
886.36	226.34
886.67	226.30
886.98	226.36
887.28	226.35
887.59	226.33
887.90	226.34
888.20	226.33
888.51	226.31
888.82	226.28
889.13	226.26
889.43	226.35
889.74	226.36
890.05	226.35
890.35	226.29
890.66	226.29
890.97	226.25
891.28	226.24
891.58	226.24
891.89	226.25
892.20	226.26
892.50	226.26
892.81	226.20
893.12	226.19
893.42	226.12
893.73	226.13
894.04	226.13
894.34	226.14
894.65	226.12
894.95	226.14
895.26	226.19
895.57	226.22
895.87	226.09
896.18	226.08
896.48	226.08
896.79	226.08
897.10	226.08
897.40	226.08
897.71	226.08
898.01	226.08
898.32	226.11
898.63	226.08
898.93	226.06
899.24	226.06
899.54	226.06
899.85	226.08
900.15	226.07
900.46	226.03
900.76	226.01
901.07	226.00
901.38	225.97
901.68	225.92
901.99	225.87
902.29	225.88
902.60	225.89
902.90	225.89
903.21	225.90
903.51	225.88
903.82	225.90
904.12	225.92
904.43	225.92
904.73	225.91
905.03	225.91
905.34	226.00
905.64	225.99
905.95	225.99
906.25	225.96
906.56	225.96
906.86	226.00
907.17	226.01
907.47	226.04
907.77	226.05
908.08	226.03
908.38	226.04
908.69	226.05
908.99	226.09
909.30	226.12
909.60	226.11
909.90	226.14
910.21	226.13
910.51	226.11
910.81	226.09
911.12	226.10
911.42	226.13
911.73	226.04
912.03	226.06
912.33	226.11
912.64	226.15
912.94	226.14
913.24	226.10
913.55	226.09
913.85	226.09
914.15	226.12
914.46	226.17
914.76	226.16
915.06	226.17
915.37	226.14
915.67	226.13
915.97	226.15
916.27	226.12
916.58	226.13
916.88	226.14
917.18	226.17
917.49	226.23
917.79	226.21
918.09	226.23
918.39	226.25
918.70	226.20
919.00	226.18
919.30	226.23
919.60	226.25
919.91	226.23
920.21	226.21
920.51	226.18
920.81	226.15
921.12	226.15
921.42	226.13
921.72	226.10
922.02	226.09
922.32	226.08
922.63	226.10
922.93	226.13
923.23	226.13
923.53	226.11
923.83	226.02
924.13	226.02
924.44	226.01
924.74	225.99
925.04	226.03
925.34	226.01
925.64	225.96
925.94	225.96
926.24	226.02
926.55	226.01
926.85	225.99
927.15	225.97
927.45	225.98
927.75	225.97
928.05	225.98
928.35	225.98
928.65	225.97
928.95	225.94
929.26	225.89
929.56	225.87
929.86	225.87
930.16	225.86
930.46	225.82
930.76	225.84
931.06	225.81
931.36	225.76
931.66	225.78
931.96	225.78
932.26	225.80
932.56	225.76
932.86	225.78
933.16	225.81
933.46	225.81
933.76	225.80
934.06	225.85
934.36	225.88
934.66	225.85
934.96	225.85
935.26	225.84
935.56	225.87
935.86	225.89
936.16	225.86
936.46	225.86
936.76	225.86
937.06	225.83
937.36	225.84
937.66	225.89
937.96	225.88
938.26	225.87
938.56	225.87
938.86	225.87
939.16	225.88
939.46	225.87
939.76	225.91
940.06	225.93
940.35	225.90
940.65	225.88
940.95	225.92
941.25	225.94
941.55	225.93
941.85	225.92
942.15	225.97
942.45	226.00
942.75	226.01
943.04	226.05
943.34	226.08
943.64	226.06
943.94	226.07
944.24	226.05
944.54	226.10
944.84	226.10
945.13	226.11
945.43	226.11
945.73	226.11
946.03	226.08
946.33	226.06
946.62	226.08
946.92	226.06
947.22	226.07
947.52	226.04
947.82	226.09
948.11	226.08
948.41	226.02
948.71	225.99
949.01	226.00
949.31	226.01
949.60	226.00
949.90	226.05
950.20	226.03
950.50	226.07
950.79	226.01
951.09	226.00
951.39	226.01
951.69	225.99
951.98	226.02
952.28	226.06
952.58	226.08
952.87	226.07
953.17	226.10
953.47	226.07
953.76	226.09
954.06	226.05
954.36	226.03
954.66	226.06
954.95	226.07
955.25	226.07
955.55	226.04
955.84	226.02
956.14	226.01
956.44	226.02
956.73	225.98
957.03	226.01
957.32	226.00
957.62	226.00
957.92	226.04
958.21	226.02
958.51	226.08
958.81	226.05
959.10	226.06
959.40	226.05
959.69	226.06
959.99	226.07
960.29	226.04
960.58	226.08
960.88	226.10
961.17	226.10
961.47	226.12
961.76	226.13
962.06	226.13
962.36	226.14
962.65	226.11
962.95	226.11
963.24	226.06
963.54	226.05
963.83	226.03
964.13	226.01
964.42	225.96
964.72	225.86
965.01	225.85
965.31	225.84
965.60	225.83
965.90	225.87
966.19	225.83
966.49	225.86
966.78	225.86
967.08	225.83
967.37	225.82
967.67	225.80
967.96	225.79
968.26	225.78
968.55	225.78
968.85	225.78
969.14	225.78
969.43	225.78
969.73	225.80
970.02	225.77
970.32	225.76
970.61	225.75
970.91	225.76
971.20	225.75
971.49	225.73
971.79	225.72
972.08	225.64
972.38	225.65
972.67	225.63
972.96	225.64
973.26	225.59
973.55	225.61
973.85	225.60
974.14	225.59
974.43	225.59
974.73	225.57
975.02	225.56
975.31	225.55
975.61	225.54
975.90	225.52
976.19	225.53
976.49	225.53
976.78	225.57
977.07	225.52
977.37	225.54
977.66	225.54
977.95	225.51
978.24	225.55
978.54	225.57
978.83	225.58
979.12	225.55
979.42	225.56
979.71	225.59
980.00	225.59
980.29	225.60
980.59	225.63
980.88	225.64
981.17	225.66
981.46	225.67
981.76	225.72
982.05	225.77
982.34	225.79
982.63	225.83
982.93	225.79
983.22	225.85
983.51	225.86
983.80	225.88
984.09	225.94
984.39	225.92
984.68	225.91
984.97	225.92
985.26	225.91
985.55	225.94
985.85	225.90
986.14	225.91
986.43	225.93
986.72	225.89
987.01	225.90
987.30	225.87
987.59	225.88
987.89	225.85
988.18	225.82
988.47	225.79
988.76	225.75
989.05	225.78
989.34	225.77
989.63	225.80
989.92	225.80
990.22	225.77
990.51	225.78
990.80	225.80
991.09	225.79
991.38	225.83
991.67	225.81
991.96	225.82
992.25	225.82
992.54	225.81
992.83	225.84
993.12	225.82
993.41	225.84
993.70	225.86
993.99	225.88
994.28	225.91
994.58	225.93
994.87	225.94
995.16	225.92
995.45	225.94
995.74	225.92
996.03	225.93
996.32	225.95
996.61	225.97
996.90	225.95
997.19	225.94
997.48	225.96
997.77	226.00
998.06	225.99
998.34	226.00
998.63	226.02
998.92	226.00
999.21	226.03
999.50	226.05
999.79	226.02
1000.08	226.00
1000.37	225.99
1000.66	225.99
1000.95	226.00
1001.24	226.00
1001.53	226.00
1001.82	225.99
1002.11	225.96
1002.40	225.95
1002.68	225.97
1002.97	226.06
1003.26	226.04
1003.55	225.99
1003.84	225.99
1004.13	226.00
1004.42	225.96
1004.71	225.95
1004.99	225.95
1005.28	225.96
1005.57	225.96
1005.86	225.95
1006.15	225.98
1006.44	225.93
1006.72	225.94
1007.01	225.92
1007.30	225.91
1007.59	225.87
1007.88	225.87
1008.17	225.85
1008.45	225.84
1008.74	225.80
1009.03	225.75
1009.32	225.76
1009.60	225.76
1009.89	225.77
1010.18	225.76
1010.47	225.76
1010.76	225.76
1011.04	225.78
1011.33	225.79
1011.62	225.78
1011.91	225.82
1012.19	225.80
1012.48	225.86
1012.77	225.83
1013.05	225.90
1013.34	225.94
1013.63	225.96
1013.92	225.92
1014.20	225.95
1014.49	225.95
1014.78	225.97
1015.06	225.91
1015.35	225.92
1015.64	225.93
1015.92	225.91
1016.21	225.90
1016.50	225.95
1016.78	225.92
1017.07	225.94
1017.36	225.90
1017.64	225.88
1017.93	225.86
1018.22	225.87
1018.50	225.84
1018.79	225.86
1019.08	225.80
1019.36	225.80
1019.65	225.80
1019.93	225.87
1020.22	225.87
1020.51	225.92
1020.79	225.88
1021.08	226.14
1021.36	225.56
1021.65	225.87
1021.94	225.64
1022.22	226.13
1022.51	226.06
1022.79	226.44
1023.08	225.72
1023.36	226.87
1023.65	225.17
>>>>>End Processed Spectral Data<<<<<
