SpectraSuite Data File
++++++++++++++++++++++++++++++++++++
Date: Fri Feb 01 14:50:25 EST 2013
User: group
Dark Spectrum Present: No
Reference Spectrum Present: No
Number of Sampled Component Spectra: 1
Spectrometers: USB2E7196
Integration Time (usec): 35000 (USB2E7196)
Spectra Averaged: 100 (USB2E7196)
Boxcar Smoothing: 10 (USB2E7196)
Correct for Electrical Dark: No (USB2E7196)
Strobe/Lamp Enabled: No (USB2E7196)
Correct for Detector Non-linearity: No (USB2E7196)
Correct for Stray Light: No (USB2E7196)
Number of Pixels in Processed Spectrum: 2048
>>>>>Begin Processed Spectral Data<<<<<
339.09	0.00
339.48	215.20
339.86	217.48
340.24	218.42
340.63	220.60
341.01	223.08
341.39	222.83
341.78	224.17
342.16	225.71
342.54	226.17
342.93	214.24
343.31	225.07
343.69	225.62
344.07	226.05
344.46	226.50
344.84	226.85
345.22	227.09
345.60	227.32
345.99	227.51
346.37	227.61
346.75	227.71
347.13	227.76
347.52	227.85
347.90	227.92
348.28	227.95
348.66	227.97
349.05	227.98
349.43	228.02
349.81	228.03
350.19	228.04
350.57	228.10
350.96	228.14
351.34	228.20
351.72	228.29
352.10	228.42
352.48	228.47
352.87	228.52
353.25	228.53
353.63	228.59
354.01	228.66
354.39	228.74
354.77	228.81
355.15	228.93
355.54	228.99
355.92	229.04
356.30	229.12
356.68	229.23
357.06	229.27
357.44	229.32
357.82	229.39
358.20	229.46
358.58	229.51
358.97	229.57
359.35	229.66
359.73	229.72
360.11	229.75
360.49	229.80
360.87	229.82
361.25	229.89
361.63	229.96
362.01	230.00
362.39	230.00
362.77	230.03
363.15	230.04
363.53	230.04
363.91	230.02
364.29	230.02
364.67	229.93
365.05	229.92
365.43	229.92
365.81	229.93
366.19	229.94
366.57	229.99
366.95	229.92
367.33	229.88
367.71	229.88
368.09	229.88
368.47	229.85
368.85	229.83
369.23	229.82
369.61	229.77
369.99	229.74
370.37	229.72
370.75	229.68
371.13	229.60
371.51	229.53
371.89	229.49
372.27	229.45
372.65	229.42
373.03	229.38
373.41	229.30
373.78	229.22
374.16	229.12
374.54	229.00
374.92	228.97
375.30	228.91
375.68	228.79
376.06	228.70
376.44	228.61
376.82	228.54
377.19	228.46
377.57	228.35
377.95	228.25
378.33	228.18
378.71	228.06
379.09	228.01
379.47	227.98
379.84	227.90
380.22	227.82
380.60	227.71
380.98	227.64
381.36	227.57
381.73	227.48
382.11	227.46
382.49	227.39
382.87	227.30
383.25	227.24
383.62	227.31
384.00	227.23
384.38	227.18
384.76	227.15
385.13	227.17
385.51	227.11
385.89	227.05
386.27	226.98
386.64	226.96
387.02	226.92
387.40	226.85
387.78	226.83
388.15	226.81
388.53	226.77
388.91	226.72
389.29	226.68
389.66	226.69
390.04	226.63
390.42	226.63
390.79	226.63
391.17	226.60
391.55	226.46
391.92	226.47
392.30	226.47
392.68	226.46
393.05	226.41
393.43	226.48
393.81	226.53
394.18	226.53
394.56	226.56
394.94	226.63
395.31	226.65
395.69	226.69
396.06	226.73
396.44	226.80
396.82	226.84
397.19	226.97
397.57	227.00
397.95	227.09
398.32	227.12
398.70	227.22
399.07	227.33
399.45	227.44
399.82	227.53
400.20	227.60
400.58	227.66
400.95	227.71
401.33	227.81
401.70	227.94
402.08	228.08
402.45	228.18
402.83	228.25
403.20	228.38
403.58	228.53
403.95	228.67
404.33	228.82
404.71	228.99
405.08	229.19
405.46	229.35
405.83	229.50
406.21	229.68
406.58	229.85
406.96	230.00
407.33	230.17
407.70	230.39
408.08	230.72
408.45	230.98
408.83	231.23
409.20	231.47
409.58	231.66
409.95	231.95
410.33	232.21
410.70	232.50
411.08	232.82
411.45	233.11
411.82	233.47
412.20	233.83
412.57	234.24
412.95	234.51
413.32	234.93
413.69	235.36
414.07	235.78
414.44	236.27
414.82	236.78
415.19	237.33
415.56	237.89
415.94	238.40
416.31	239.00
416.68	239.66
417.06	240.32
417.43	241.02
417.81	241.78
418.18	242.58
418.55	243.41
418.93	244.29
419.30	245.20
419.67	246.10
420.04	247.04
420.42	248.06
420.79	249.25
421.16	250.36
421.54	251.55
421.91	252.78
422.28	254.00
422.66	255.29
423.03	256.61
423.40	257.92
423.77	259.34
424.15	260.77
424.52	262.26
424.89	263.86
425.26	265.41
425.64	266.82
426.01	268.35
426.38	269.99
426.75	271.67
427.13	273.36
427.50	275.18
427.87	277.03
428.24	278.86
428.61	280.58
428.99	282.50
429.36	284.56
429.73	286.60
430.10	288.65
430.47	290.69
430.85	292.74
431.22	294.95
431.59	297.30
431.96	299.54
432.33	302.00
432.70	304.37
433.08	307.17
433.45	309.75
433.82	312.38
434.19	315.25
434.56	317.98
434.93	320.66
435.30	323.23
435.68	326.10
436.05	328.93
436.42	331.68
436.79	334.22
437.16	336.93
437.53	339.75
437.90	342.56
438.27	345.32
438.64	348.17
439.01	350.76
439.38	353.01
439.75	355.15
440.13	357.60
440.50	359.93
440.87	361.75
441.24	363.74
441.61	365.86
441.98	367.36
442.35	369.15
442.72	370.96
443.09	372.79
443.46	373.80
443.83	374.38
444.20	374.92
444.57	375.70
444.94	375.97
445.31	376.30
445.68	376.60
446.05	376.67
446.42	376.31
446.79	375.89
447.16	375.40
447.53	375.09
447.90	373.98
448.27	372.84
448.64	371.30
449.01	370.15
449.37	368.22
449.74	366.36
450.11	364.18
450.48	361.72
450.85	359.21
451.22	357.06
451.59	355.07
451.96	353.18
452.33	350.64
452.70	348.29
453.07	345.48
453.43	342.58
453.80	339.86
454.17	337.18
454.54	334.68
454.91	331.99
455.28	329.32
455.65	326.86
456.02	324.42
456.38	322.28
456.75	319.67
457.12	317.42
457.49	315.19
457.86	313.04
458.23	311.23
458.59	309.19
458.96	307.11
459.33	305.23
459.70	303.32
460.07	301.85
460.43	300.16
460.80	298.60
461.17	297.23
461.54	295.73
461.91	294.29
462.27	292.81
462.64	291.59
463.01	290.27
463.38	288.97
463.74	287.59
464.11	286.41
464.48	285.38
464.85	284.26
465.21	283.37
465.58	282.42
465.95	281.28
466.32	280.35
466.68	279.48
467.05	278.59
467.42	277.70
467.78	276.75
468.15	275.84
468.52	275.13
468.88	274.22
469.25	273.41
469.62	272.77
469.98	272.13
470.35	271.46
470.72	270.83
471.08	270.13
471.45	269.56
471.82	268.98
472.18	268.35
472.55	267.88
472.92	267.38
473.28	266.92
473.65	266.48
474.02	266.05
474.38	265.63
474.75	265.31
475.11	264.93
475.48	264.64
475.85	264.39
476.21	264.12
476.58	263.94
476.94	263.79
477.31	263.61
477.67	263.44
478.04	263.31
478.41	263.25
478.77	263.27
479.14	263.18
479.50	263.14
479.87	263.18
480.23	263.28
480.60	263.27
480.96	263.33
481.33	263.50
481.69	263.66
482.06	263.82
482.42	263.99
482.79	264.22
483.15	264.53
483.52	264.88
483.88	265.23
484.25	265.58
484.61	265.99
484.98	266.43
485.34	266.96
485.71	267.58
486.07	268.20
486.44	268.73
486.80	269.43
487.17	270.20
487.53	271.02
487.90	271.83
488.26	272.77
488.62	273.77
488.99	274.72
489.35	275.73
489.72	276.91
490.08	278.10
490.44	279.34
490.81	280.63
491.17	281.98
491.54	283.46
491.90	284.99
492.26	286.60
492.63	288.31
492.99	290.06
493.36	291.91
493.72	293.88
494.08	296.00
494.45	298.23
494.81	300.54
495.17	302.93
495.54	305.51
495.90	308.22
496.26	311.02
496.63	313.97
496.99	317.04
497.35	320.22
497.72	323.60
498.08	327.10
498.44	330.81
498.80	334.73
499.17	338.73
499.53	342.86
499.89	347.23
500.26	351.72
500.62	356.39
500.98	361.33
501.34	366.35
501.71	371.67
502.07	377.10
502.43	382.70
502.79	388.51
503.16	394.56
503.52	400.72
503.88	407.03
504.24	413.65
504.60	420.50
504.97	427.61
505.33	434.87
505.69	442.51
506.05	450.21
506.41	458.00
506.78	466.11
507.14	474.52
507.50	483.20
507.86	492.11
508.22	501.27
508.59	510.41
508.95	519.93
509.31	529.66
509.67	539.75
510.03	549.98
510.39	560.50
510.75	571.28
511.12	582.21
511.48	593.38
511.84	604.78
512.20	616.30
512.56	628.21
512.92	640.37
513.28	652.71
513.64	665.14
514.00	677.81
514.37	690.67
514.73	703.76
515.09	716.69
515.45	729.96
515.81	743.41
516.17	757.33
516.53	771.52
516.89	785.60
517.25	799.75
517.61	814.16
517.97	828.60
518.33	842.89
518.69	857.69
519.05	872.82
519.41	887.92
519.77	903.39
520.13	918.86
520.49	934.23
520.85	949.69
521.21	965.36
521.57	981.66
521.93	997.45
522.29	1013.80
522.65	1030.11
523.01	1046.37
523.37	1062.55
523.73	1078.83
524.09	1094.89
524.45	1111.27
524.81	1128.04
525.17	1145.00
525.53	1161.81
525.89	1178.83
526.25	1195.61
526.61	1212.07
526.97	1228.92
527.33	1245.48
527.68	1262.15
528.04	1278.70
528.40	1295.26
528.76	1312.50
529.12	1329.02
529.48	1345.96
529.84	1362.14
530.20	1378.91
530.56	1395.96
530.91	1413.35
531.27	1430.14
531.63	1446.65
531.99	1463.21
532.35	1479.13
532.71	1494.88
533.07	1511.37
533.42	1527.33
533.78	1543.57
534.14	1559.79
534.50	1575.19
534.86	1591.05
535.21	1606.17
535.57	1622.24
535.93	1637.88
536.29	1652.67
536.65	1667.99
537.00	1682.83
537.36	1698.12
537.72	1712.71
538.08	1727.17
538.44	1741.05
538.79	1755.00
539.15	1768.85
539.51	1782.87
539.87	1797.38
540.22	1811.16
540.58	1824.93
540.94	1838.27
541.29	1851.12
541.65	1863.91
542.01	1877.14
542.37	1889.52
542.72	1902.11
543.08	1913.86
543.44	1926.23
543.79	1937.49
544.15	1948.41
544.51	1959.94
544.87	1970.93
545.22	1981.70
545.58	1992.09
545.94	2001.87
546.29	2011.75
546.65	2021.53
547.01	2030.74
547.36	2039.35
547.72	2047.88
548.07	2055.66
548.43	2063.91
548.79	2071.88
549.14	2079.50
549.50	2086.85
549.86	2094.62
550.21	2101.76
550.57	2108.91
550.92	2115.47
551.28	2122.66
551.64	2129.63
551.99	2136.13
552.35	2142.30
552.70	2148.27
553.06	2154.02
553.41	2160.32
553.77	2166.14
554.13	2172.10
554.48	2178.08
554.84	2183.42
555.19	2188.55
555.55	2193.68
555.90	2197.91
556.26	2202.85
556.61	2207.33
556.97	2211.46
557.32	2215.45
557.68	2219.63
558.03	2223.80
558.39	2227.25
558.74	2231.59
559.10	2235.31
559.45	2238.78
559.81	2242.89
560.16	2246.51
560.52	2249.48
560.87	2252.87
561.23	2255.60
561.58	2258.29
561.94	2260.59
562.29	2262.87
562.64	2265.44
563.00	2267.91
563.35	2271.48
563.71	2274.32
564.06	2277.41
564.42	2280.29
564.77	2282.59
565.12	2284.59
565.48	2286.20
565.83	2287.89
566.19	2289.05
566.54	2289.97
566.89	2290.93
567.25	2291.24
567.60	2292.60
567.96	2294.26
568.31	2294.66
568.66	2295.30
569.02	2295.74
569.37	2295.88
569.72	2296.38
570.08	2296.30
570.43	2295.86
570.78	2294.76
571.14	2292.99
571.49	2291.32
571.84	2290.54
572.20	2289.11
572.55	2287.72
572.90	2285.92
573.26	2284.29
573.61	2282.23
573.96	2280.12
574.31	2276.92
574.67	2273.64
575.02	2269.63
575.37	2265.87
575.72	2261.84
576.08	2258.32
576.43	2254.69
576.78	2250.77
577.13	2247.45
577.49	2244.22
577.84	2240.61
578.19	2236.61
578.54	2232.69
578.90	2228.23
579.25	2222.44
579.60	2217.41
579.95	2212.21
580.30	2206.99
580.66	2201.69
581.01	2196.63
581.36	2191.49
581.71	2187.13
582.06	2182.52
582.42	2177.94
582.77	2172.66
583.12	2167.90
583.47	2163.13
583.82	2158.04
584.17	2152.66
584.53	2147.05
584.88	2141.05
585.23	2135.19
585.58	2129.60
585.93	2123.94
586.28	2119.17
586.63	2114.01
586.98	2108.68
587.34	2104.04
587.69	2098.98
588.04	2093.62
588.39	2087.83
588.74	2081.14
589.09	2074.92
589.44	2068.13
589.79	2061.82
590.14	2056.02
590.49	2049.42
590.84	2042.82
591.19	2036.56
591.54	2030.09
591.89	2022.50
592.25	2015.67
592.60	2008.34
592.95	2000.70
593.30	1993.29
593.65	1985.43
594.00	1978.37
594.35	1971.02
594.70	1962.73
595.05	1955.50
595.40	1948.22
595.75	1940.58
596.10	1934.42
596.45	1927.45
596.80	1921.06
597.15	1914.51
597.50	1907.35
597.85	1900.87
598.19	1894.34
598.54	1887.37
598.89	1880.59
599.24	1874.65
599.59	1868.00
599.94	1861.76
600.29	1855.38
600.64	1848.85
600.99	1841.45
601.34	1834.47
601.69	1827.57
602.04	1820.62
602.39	1813.18
602.74	1806.31
603.08	1799.57
603.43	1792.91
603.78	1785.65
604.13	1778.42
604.48	1771.17
604.83	1764.25
605.18	1757.29
605.53	1749.18
605.87	1741.09
606.22	1733.92
606.57	1726.06
606.92	1718.78
607.27	1711.59
607.62	1704.77
607.96	1697.52
608.31	1691.00
608.66	1683.39
609.01	1675.88
609.36	1668.42
609.70	1660.54
610.05	1652.56
610.40	1645.02
610.75	1636.56
611.10	1629.04
611.44	1620.85
611.79	1612.82
612.14	1604.26
612.49	1595.20
612.83	1586.94
613.18	1578.93
613.53	1570.86
613.88	1562.48
614.22	1554.32
614.57	1545.86
614.92	1537.92
615.27	1530.46
615.61	1522.21
615.96	1514.25
616.31	1506.68
616.65	1499.38
617.00	1491.82
617.35	1484.12
617.70	1475.71
618.04	1467.35
618.39	1459.25
618.74	1451.62
619.08	1443.57
619.43	1436.21
619.78	1429.36
620.12	1422.30
620.47	1414.86
620.82	1406.85
621.16	1399.56
621.51	1392.07
621.85	1384.51
622.20	1376.06
622.55	1367.87
622.89	1360.18
623.24	1352.77
623.59	1345.49
623.93	1338.10
624.28	1331.10
624.62	1323.76
624.97	1316.71
625.32	1310.13
625.66	1303.14
626.01	1296.13
626.35	1288.67
626.70	1280.94
627.04	1273.33
627.39	1265.57
627.73	1258.27
628.08	1251.36
628.43	1244.11
628.77	1236.77
629.12	1229.37
629.46	1222.29
629.81	1214.95
630.15	1207.81
630.50	1200.63
630.84	1192.43
631.19	1184.73
631.53	1177.32
631.88	1169.85
632.22	1162.41
632.57	1155.25
632.91	1147.90
633.26	1140.60
633.60	1133.34
633.95	1126.48
634.29	1119.48
634.64	1112.95
634.98	1105.71
635.32	1098.73
635.67	1092.20
636.01	1085.67
636.36	1079.04
636.70	1072.67
637.05	1066.12
637.39	1059.82
637.73	1053.36
638.08	1047.74
638.42	1041.78
638.77	1035.37
639.11	1028.88
639.45	1022.61
639.80	1015.95
640.14	1009.60
640.49	1003.18
640.83	997.03
641.17	990.79
641.52	984.64
641.86	978.38
642.20	972.57
642.55	966.41
642.89	960.05
643.23	953.60
643.58	947.85
643.92	941.69
644.26	935.75
644.61	929.71
644.95	923.68
645.29	917.11
645.64	910.48
645.98	904.33
646.32	898.58
646.66	892.61
647.01	886.98
647.35	881.35
647.69	875.60
648.04	870.16
648.38	864.43
648.72	858.52
649.06	852.52
649.41	846.80
649.75	840.85
650.09	834.94
650.43	829.25
650.78	823.14
651.12	817.34
651.46	811.71
651.80	806.01
652.14	800.71
652.49	795.40
652.83	790.24
653.17	784.54
653.51	778.89
653.85	773.53
654.20	767.93
654.54	761.93
654.88	756.20
655.22	750.32
655.56	744.65
655.90	739.19
656.25	733.88
656.59	728.56
656.93	723.55
657.27	718.45
657.61	713.04
657.95	708.07
658.29	703.00
658.64	697.80
658.98	692.60
659.32	687.19
659.66	682.06
660.00	676.88
660.34	672.02
660.68	667.18
661.02	662.23
661.36	657.58
661.70	653.24
662.05	648.90
662.39	644.68
662.73	640.35
663.07	636.04
663.41	631.70
663.75	627.26
664.09	622.73
664.43	618.40
664.77	614.35
665.11	610.14
665.45	606.08
665.79	602.06
666.13	597.94
666.47	593.92
666.81	589.83
667.15	585.75
667.49	581.88
667.83	578.01
668.17	574.08
668.51	570.03
668.85	566.03
669.19	562.34
669.53	558.56
669.87	554.78
670.21	551.19
670.55	547.64
670.89	544.28
671.23	540.97
671.57	537.55
671.91	534.08
672.25	530.65
672.58	527.24
672.92	523.87
673.26	520.81
673.60	517.70
673.94	514.70
674.28	511.77
674.62	508.93
674.96	506.01
675.30	503.18
675.64	500.35
675.97	497.68
676.31	494.83
676.65	491.96
676.99	489.26
677.33	486.45
677.67	483.67
678.01	480.64
678.34	477.71
678.68	474.88
679.02	472.17
679.36	469.47
679.70	466.73
680.04	464.04
680.37	461.16
680.71	458.41
681.05	455.79
681.39	453.16
681.73	450.51
682.06	447.95
682.40	445.47
682.74	442.93
683.08	440.40
683.42	437.87
683.75	435.40
684.09	432.90
684.43	430.48
684.77	428.06
685.10	425.79
685.44	423.52
685.78	421.21
686.12	418.98
686.45	416.68
686.79	414.41
687.13	412.26
687.46	410.23
687.80	408.13
688.14	405.99
688.48	403.94
688.81	401.72
689.15	399.61
689.49	397.48
689.82	395.48
690.16	393.43
690.50	391.45
690.83	389.55
691.17	387.56
691.51	385.65
691.84	383.81
692.18	381.83
692.52	379.83
692.85	377.90
693.19	376.01
693.52	374.19
693.86	372.41
694.20	370.62
694.53	368.78
694.87	366.95
695.21	365.21
695.54	363.42
695.88	361.71
696.21	360.03
696.55	358.36
696.88	356.67
697.22	354.97
697.56	353.36
697.89	351.64
698.23	350.06
698.56	348.46
698.90	346.88
699.23	345.26
699.57	343.74
699.90	342.26
700.24	340.71
700.58	339.18
700.91	337.67
701.25	336.26
701.58	334.91
701.92	333.57
702.25	332.17
702.59	330.80
702.92	329.50
703.26	328.18
703.59	326.95
703.93	325.82
704.26	324.64
704.60	323.40
704.93	322.20
705.26	320.96
705.60	319.79
705.93	318.69
706.27	317.72
706.60	316.70
706.94	315.64
707.27	314.53
707.61	313.53
707.94	312.57
708.27	311.52
708.61	310.46
708.94	309.46
709.28	308.48
709.61	307.52
709.94	306.60
710.28	305.60
710.61	304.65
710.95	303.58
711.28	302.64
711.61	301.72
711.95	300.82
712.28	299.89
712.61	298.90
712.95	297.97
713.28	297.09
713.61	296.18
713.95	295.34
714.28	294.56
714.61	293.71
714.95	292.85
715.28	292.00
715.61	291.13
715.95	290.30
716.28	289.47
716.61	288.68
716.95	287.88
717.28	287.14
717.61	286.36
717.94	285.64
718.28	284.87
718.61	284.14
718.94	283.49
719.27	282.86
719.61	282.26
719.94	281.63
720.27	280.93
720.60	280.30
720.94	279.70
721.27	279.09
721.60	278.54
721.93	277.99
722.27	277.42
722.60	276.91
722.93	276.35
723.26	275.83
723.59	275.26
723.93	274.71
724.26	274.22
724.59	273.68
724.92	273.14
725.25	272.65
725.59	272.13
725.92	271.58
726.25	271.07
726.58	270.62
726.91	270.10
727.24	269.64
727.57	269.19
727.91	268.65
728.24	268.16
728.57	267.64
728.90	267.19
729.23	266.71
729.56	266.26
729.89	265.76
730.22	265.28
730.55	264.85
730.89	264.40
731.22	263.92
731.55	263.51
731.88	263.09
732.21	262.65
732.54	262.24
732.87	261.85
733.20	261.47
733.53	261.06
733.86	260.70
734.19	260.35
734.52	259.92
734.85	259.62
735.18	259.25
735.51	258.89
735.84	258.48
736.17	258.15
736.50	257.76
736.83	257.54
737.16	257.20
737.49	256.86
737.82	256.55
738.15	256.20
738.48	255.85
738.81	255.52
739.14	255.20
739.47	254.89
739.80	254.56
740.13	254.25
740.46	253.92
740.79	253.60
741.12	253.24
741.45	252.92
741.78	252.56
742.11	252.25
742.44	251.92
742.77	251.65
743.10	251.33
743.43	251.04
743.75	250.65
744.08	250.50
744.41	250.24
744.74	249.98
745.07	249.70
745.40	249.44
745.73	249.22
746.06	248.96
746.39	248.70
746.71	248.41
747.04	248.12
747.37	247.86
747.70	247.61
748.03	247.36
748.36	247.16
748.68	246.93
749.01	246.67
749.34	246.45
749.67	246.22
750.00	245.98
750.33	245.82
750.65	245.62
750.98	245.32
751.31	245.05
751.64	244.86
751.97	244.72
752.29	244.49
752.62	244.27
752.95	244.07
753.28	243.84
753.60	243.65
753.93	243.49
754.26	243.32
754.59	243.12
754.91	242.92
755.24	242.74
755.57	242.55
755.90	242.40
756.22	242.23
756.55	242.08
756.88	241.90
757.20	241.68
757.53	241.50
757.86	241.30
758.19	241.17
758.51	240.97
758.84	240.80
759.17	240.64
759.49	240.46
759.82	240.36
760.15	240.22
760.47	240.12
760.80	239.95
761.13	239.83
761.45	239.65
761.78	239.53
762.11	239.39
762.43	239.26
762.76	239.16
763.08	239.04
763.41	238.90
763.74	238.83
764.06	238.70
764.39	238.59
764.71	238.48
765.04	238.37
765.37	238.27
765.69	238.12
766.02	238.02
766.34	237.90
766.67	237.74
767.00	237.65
767.32	237.57
767.65	237.54
767.97	237.42
768.30	237.34
768.62	237.22
768.95	237.12
769.27	237.02
769.60	236.89
769.92	236.80
770.25	236.68
770.57	236.56
770.90	236.45
771.22	236.33
771.55	236.21
771.87	236.13
772.20	236.02
772.52	236.05
772.85	236.04
773.17	235.95
773.50	235.87
773.82	235.74
774.15	235.62
774.47	235.46
774.80	235.33
775.12	235.24
775.45	235.16
775.77	235.08
776.09	234.98
776.42	234.90
776.74	234.79
777.07	234.71
777.39	234.58
777.72	234.47
778.04	234.42
778.36	234.36
778.69	234.25
779.01	234.18
779.33	233.99
779.66	233.84
779.98	233.77
780.31	233.68
780.63	233.68
780.95	233.58
781.28	233.51
781.60	233.43
781.92	233.36
782.25	233.30
782.57	233.23
782.89	233.14
783.22	233.08
783.54	233.03
783.86	232.97
784.19	232.95
784.51	232.92
784.83	232.86
785.16	232.80
785.48	232.74
785.80	232.65
786.12	232.62
786.45	232.54
786.77	232.49
787.09	232.44
787.42	232.33
787.74	232.32
788.06	232.28
788.38	232.30
788.71	232.27
789.03	232.24
789.35	232.24
789.67	232.20
789.99	232.15
790.32	232.09
790.64	232.07
790.96	232.09
791.28	232.02
791.61	231.98
791.93	231.96
792.25	231.91
792.57	231.98
792.89	231.92
793.21	231.90
793.54	231.85
793.86	231.80
794.18	231.79
794.50	231.75
794.82	231.70
795.14	231.65
795.47	231.61
795.79	231.60
796.11	231.54
796.43	231.50
796.75	231.48
797.07	231.46
797.39	231.40
797.71	231.31
798.04	231.29
798.36	231.24
798.68	231.21
799.00	231.21
799.32	231.14
799.64	231.12
799.96	231.09
800.28	231.08
800.60	231.04
800.92	231.03
801.24	230.95
801.56	230.98
801.89	230.93
802.21	230.92
802.53	230.81
802.85	230.77
803.17	230.77
803.49	230.72
803.81	230.70
804.13	230.67
804.45	230.63
804.77	230.60
805.09	230.59
805.41	230.55
805.73	230.52
806.05	230.42
806.37	230.39
806.69	230.36
807.01	230.33
807.33	230.32
807.65	230.25
807.97	230.30
808.28	230.24
808.60	230.20
808.92	230.15
809.24	230.19
809.56	230.15
809.88	230.12
810.20	230.11
810.52	230.10
810.84	230.06
811.16	230.03
811.48	230.01
811.80	230.02
812.12	229.98
812.43	229.94
812.75	229.95
813.07	229.91
813.39	229.89
813.71	229.83
814.03	229.82
814.35	229.81
814.67	229.71
814.98	229.68
815.30	229.65
815.62	229.61
815.94	229.50
816.26	229.52
816.58	229.48
816.89	229.46
817.21	229.41
817.53	229.40
817.85	229.37
818.17	229.37
818.48	229.32
818.80	229.30
819.12	229.26
819.44	229.23
819.76	229.19
820.07	229.15
820.39	229.12
820.71	229.09
821.03	229.05
821.34	229.05
821.66	229.02
821.98	229.01
822.30	229.00
822.61	229.07
822.93	229.00
823.25	228.96
823.57	228.93
823.88	228.93
824.20	228.92
824.52	228.92
824.83	228.88
825.15	228.86
825.47	228.82
825.79	228.84
826.10	228.83
826.42	228.81
826.74	228.81
827.05	228.83
827.37	228.80
827.69	228.77
828.00	228.75
828.32	228.76
828.64	228.73
828.95	228.79
829.27	228.74
829.58	228.73
829.90	228.74
830.22	228.75
830.53	228.71
830.85	228.70
831.17	228.67
831.48	228.65
831.80	228.64
832.11	228.66
832.43	228.61
832.75	228.61
833.06	228.68
833.38	228.67
833.69	228.64
834.01	228.64
834.32	228.65
834.64	228.63
834.96	228.62
835.27	228.63
835.59	228.56
835.90	228.55
836.22	228.56
836.53	228.56
836.85	228.54
837.16	228.64
837.48	228.64
837.79	228.64
838.11	228.65
838.42	228.63
838.74	228.64
839.05	228.66
839.37	228.66
839.68	228.60
840.00	228.62
840.31	228.63
840.63	228.65
840.94	228.64
841.26	228.64
841.57	228.62
841.88	228.63
842.20	228.63
842.51	228.65
842.83	228.65
843.14	228.73
843.46	228.72
843.77	228.66
844.08	228.64
844.40	228.63
844.71	228.62
845.03	228.66
845.34	228.65
845.65	228.62
845.97	228.65
846.28	228.63
846.60	228.60
846.91	228.60
847.22	228.60
847.54	228.62
847.85	228.63
848.16	228.62
848.48	228.61
848.79	228.65
849.10	228.62
849.42	228.64
849.73	228.55
850.04	228.54
850.36	228.51
850.67	228.54
850.98	228.50
851.30	228.49
851.61	228.44
851.92	228.41
852.23	228.45
852.55	228.42
852.86	228.43
853.17	228.44
853.49	228.46
853.80	228.42
854.11	228.39
854.42	228.40
854.74	228.38
855.05	228.35
855.36	228.27
855.67	228.26
855.99	228.23
856.30	228.31
856.61	228.31
856.92	228.25
857.23	228.23
857.55	228.22
857.86	228.20
858.17	228.23
858.48	228.20
858.79	228.15
859.11	228.14
859.42	228.11
859.73	228.08
860.04	228.08
860.35	228.04
860.66	228.01
860.98	228.01
861.29	227.98
861.60	227.98
861.91	228.02
862.22	228.00
862.53	227.96
862.84	227.85
863.16	227.85
863.47	227.85
863.78	227.83
864.09	227.88
864.40	227.88
864.71	227.87
865.02	227.92
865.33	227.91
865.64	227.89
865.95	227.90
866.27	227.95
866.58	227.91
866.89	227.94
867.20	227.95
867.51	227.93
867.82	227.95
868.13	227.97
868.44	227.92
868.75	227.94
869.06	227.96
869.37	227.96
869.68	227.97
869.99	227.99
870.30	227.97
870.61	227.94
870.92	227.94
871.23	227.94
871.54	227.94
871.85	227.95
872.16	227.95
872.47	227.94
872.78	227.89
873.09	227.89
873.40	227.87
873.71	227.89
874.02	227.89
874.33	227.85
874.64	227.85
874.95	227.86
875.26	227.84
875.56	227.85
875.87	227.87
876.18	227.83
876.49	227.94
876.80	227.95
877.11	227.95
877.42	227.92
877.73	227.95
878.04	227.95
878.35	227.97
878.66	228.01
878.96	228.02
879.27	228.04
879.58	228.04
879.89	228.06
880.20	228.05
880.51	228.04
880.82	228.09
881.12	228.11
881.43	228.12
881.74	228.13
882.05	228.12
882.36	228.14
882.67	228.17
882.97	228.08
883.28	228.09
883.59	228.09
883.90	228.13
884.21	228.13
884.51	228.12
884.82	228.10
885.13	228.09
885.44	228.09
885.74	228.10
886.05	228.12
886.36	228.14
886.67	228.12
886.98	228.20
887.28	228.20
887.59	228.21
887.90	228.19
888.20	228.16
888.51	228.20
888.82	228.16
889.13	228.19
889.43	228.26
889.74	228.23
890.05	228.23
890.35	228.19
890.66	228.16
890.97	228.13
891.28	228.11
891.58	228.08
891.89	228.09
892.20	228.07
892.50	228.02
892.81	228.02
893.12	228.03
893.42	227.99
893.73	227.99
894.04	227.97
894.34	227.97
894.65	227.98
894.95	227.97
895.26	227.98
895.57	227.98
895.87	227.89
896.18	227.89
896.48	227.91
896.79	227.93
897.10	227.93
897.40	227.94
897.71	227.93
898.01	227.95
898.32	227.93
898.63	227.90
898.93	227.92
899.24	227.90
899.54	227.89
899.85	227.84
900.15	227.84
900.46	227.82
900.76	227.86
901.07	227.85
901.38	227.86
901.68	227.87
901.99	227.81
902.29	227.79
902.60	227.81
902.90	227.81
903.21	227.83
903.51	227.81
903.82	227.85
904.12	227.89
904.43	227.91
904.73	227.94
905.03	227.95
905.34	228.05
905.64	228.03
905.95	228.05
906.25	228.08
906.56	228.09
906.86	228.11
907.17	228.08
907.47	228.10
907.77	228.09
908.08	228.08
908.38	228.10
908.69	228.11
908.99	228.16
909.30	228.13
909.60	228.15
909.90	228.18
910.21	228.12
910.51	228.09
910.81	228.05
911.12	228.06
911.42	228.06
911.73	227.97
912.03	227.98
912.33	228.00
912.64	227.95
912.94	227.92
913.24	227.89
913.55	227.89
913.85	227.85
914.15	227.86
914.46	227.84
914.76	227.85
915.06	227.87
915.37	227.83
915.67	227.86
915.97	227.85
916.27	227.84
916.58	227.87
916.88	227.84
917.18	227.85
917.49	227.89
917.79	227.89
918.09	227.92
918.39	227.94
918.70	227.91
919.00	227.95
919.30	228.00
919.60	227.99
919.91	227.98
920.21	227.98
920.51	227.96
920.81	228.00
921.12	227.98
921.42	227.98
921.72	227.96
922.02	227.94
922.32	227.94
922.63	227.94
922.93	227.98
923.23	228.02
923.53	228.01
923.83	227.97
924.13	227.97
924.44	227.93
924.74	227.95
925.04	227.97
925.34	227.94
925.64	227.89
925.94	227.90
926.24	227.93
926.55	227.91
926.85	227.93
927.15	227.89
927.45	227.88
927.75	227.88
928.05	227.88
928.35	227.88
928.65	227.86
928.95	227.85
929.26	227.79
929.56	227.80
929.86	227.81
930.16	227.76
930.46	227.78
930.76	227.79
931.06	227.74
931.36	227.71
931.66	227.75
931.96	227.76
932.26	227.76
932.56	227.73
932.86	227.75
933.16	227.74
933.46	227.75
933.76	227.75
934.06	227.74
934.36	227.81
934.66	227.81
934.96	227.80
935.26	227.80
935.56	227.80
935.86	227.76
936.16	227.72
936.46	227.73
936.76	227.71
937.06	227.69
937.36	227.68
937.66	227.70
937.96	227.68
938.26	227.62
938.56	227.62
938.86	227.59
939.16	227.63
939.46	227.61
939.76	227.60
940.06	227.60
940.35	227.60
940.65	227.50
940.95	227.48
941.25	227.49
941.55	227.51
941.85	227.46
942.15	227.49
942.45	227.55
942.75	227.54
943.04	227.54
943.34	227.57
943.64	227.56
943.94	227.54
944.24	227.55
944.54	227.60
944.84	227.61
945.13	227.63
945.43	227.61
945.73	227.62
946.03	227.61
946.33	227.60
946.62	227.59
946.92	227.61
947.22	227.65
947.52	227.63
947.82	227.64
948.11	227.67
948.41	227.66
948.71	227.60
949.01	227.60
949.31	227.57
949.60	227.60
949.90	227.60
950.20	227.62
950.50	227.63
950.79	227.63
951.09	227.65
951.39	227.65
951.69	227.66
951.98	227.70
952.28	227.73
952.58	227.74
952.87	227.74
953.17	227.74
953.47	227.71
953.76	227.73
954.06	227.71
954.36	227.74
954.66	227.76
954.95	227.82
955.25	227.82
955.55	227.88
955.84	227.83
956.14	227.85
956.44	227.85
956.73	227.81
957.03	227.83
957.32	227.84
957.62	227.83
957.92	227.82
958.21	227.80
958.51	227.88
958.81	227.90
959.10	227.88
959.40	227.93
959.69	227.95
959.99	227.97
960.29	227.95
960.58	227.94
960.88	227.95
961.17	227.91
961.47	227.93
961.76	227.90
962.06	227.91
962.36	227.91
962.65	227.93
962.95	227.93
963.24	227.91
963.54	227.89
963.83	227.92
964.13	227.94
964.42	227.93
964.72	227.84
965.01	227.83
965.31	227.87
965.60	227.83
965.90	227.91
966.19	227.85
966.49	227.89
966.78	227.88
967.08	227.87
967.37	227.90
967.67	227.90
967.96	227.90
968.26	227.89
968.55	227.87
968.85	227.83
969.14	227.84
969.43	227.83
969.73	227.82
970.02	227.78
970.32	227.74
970.61	227.70
970.91	227.69
971.20	227.67
971.49	227.62
971.79	227.63
972.08	227.53
972.38	227.56
972.67	227.52
972.96	227.51
973.26	227.49
973.55	227.50
973.85	227.49
974.14	227.49
974.43	227.50
974.73	227.46
975.02	227.47
975.31	227.45
975.61	227.44
975.90	227.41
976.19	227.39
976.49	227.42
976.78	227.44
977.07	227.42
977.37	227.44
977.66	227.47
977.95	227.46
978.24	227.47
978.54	227.46
978.83	227.45
979.12	227.47
979.42	227.45
979.71	227.43
980.00	227.41
980.29	227.44
980.59	227.42
980.88	227.45
981.17	227.44
981.46	227.43
981.76	227.46
982.05	227.49
982.34	227.52
982.63	227.50
982.93	227.49
983.22	227.54
983.51	227.55
983.80	227.55
984.09	227.54
984.39	227.55
984.68	227.56
984.97	227.57
985.26	227.54
985.55	227.56
985.85	227.54
986.14	227.55
986.43	227.55
986.72	227.58
987.01	227.56
987.30	227.56
987.59	227.55
987.89	227.54
988.18	227.53
988.47	227.52
988.76	227.51
989.05	227.51
989.34	227.50
989.63	227.51
989.92	227.50
990.22	227.51
990.51	227.52
990.80	227.51
991.09	227.52
991.38	227.56
991.67	227.53
991.96	227.55
992.25	227.57
992.54	227.54
992.83	227.55
993.12	227.55
993.41	227.56
993.70	227.67
993.99	227.71
994.28	227.73
994.58	227.73
994.87	227.75
995.16	227.76
995.45	227.77
995.74	227.75
996.03	227.78
996.32	227.81
996.61	227.80
996.90	227.79
997.19	227.79
997.48	227.78
997.77	227.81
998.06	227.82
998.34	227.81
998.63	227.85
998.92	227.83
999.21	227.85
999.50	227.85
999.79	227.79
1000.08	227.76
1000.37	227.76
1000.66	227.75
1000.95	227.75
1001.24	227.77
1001.53	227.76
1001.82	227.76
1002.11	227.74
1002.40	227.71
1002.68	227.74
1002.97	227.82
1003.26	227.79
1003.55	227.78
1003.84	227.75
1004.13	227.79
1004.42	227.77
1004.71	227.74
1004.99	227.71
1005.28	227.74
1005.57	227.73
1005.86	227.72
1006.15	227.72
1006.44	227.70
1006.72	227.71
1007.01	227.68
1007.30	227.67
1007.59	227.66
1007.88	227.65
1008.17	227.64
1008.45	227.66
1008.74	227.62
1009.03	227.55
1009.32	227.55
1009.60	227.56
1009.89	227.55
1010.18	227.49
1010.47	227.49
1010.76	227.48
1011.04	227.49
1011.33	227.48
1011.62	227.50
1011.91	227.50
1012.19	227.52
1012.48	227.51
1012.77	227.51
1013.05	227.59
1013.34	227.57
1013.63	227.56
1013.92	227.54
1014.20	227.52
1014.49	227.50
1014.78	227.49
1015.06	227.47
1015.35	227.49
1015.64	227.48
1015.92	227.48
1016.21	227.49
1016.50	227.47
1016.78	227.48
1017.07	227.47
1017.36	227.42
1017.64	227.38
1017.93	227.38
1018.22	227.35
1018.50	227.34
1018.79	227.32
1019.08	227.26
1019.36	227.25
1019.65	227.24
1019.93	227.28
1020.22	227.27
1020.51	227.33
1020.79	227.31
1021.08	227.09
1021.36	227.28
1021.65	227.03
1021.94	227.47
1022.22	227.22
1022.51	227.09
1022.79	227.58
1023.08	227.30
1023.36	228.67
1023.65	226.84
>>>>>End Processed Spectral Data<<<<<
