SpectraSuite Data File
++++++++++++++++++++++++++++++++++++
Date: Fri Feb 01 14:58:18 EST 2013
User: group
Dark Spectrum Present: No
Reference Spectrum Present: No
Number of Sampled Component Spectra: 1
Spectrometers: USB2E7196
Integration Time (usec): 35000 (USB2E7196)
Spectra Averaged: 100 (USB2E7196)
Boxcar Smoothing: 10 (USB2E7196)
Correct for Electrical Dark: No (USB2E7196)
Strobe/Lamp Enabled: No (USB2E7196)
Correct for Detector Non-linearity: No (USB2E7196)
Correct for Stray Light: No (USB2E7196)
Number of Pixels in Processed Spectrum: 2048
>>>>>Begin Processed Spectral Data<<<<<
339.09	0.00
339.48	214.94
339.86	216.82
340.24	217.93
340.63	219.90
341.01	222.62
341.39	221.95
341.78	223.19
342.16	225.06
342.54	225.30
342.93	213.64
343.31	224.43
343.69	224.99
344.07	225.47
344.46	225.89
344.84	226.24
345.22	226.45
345.60	226.68
345.99	226.90
346.37	227.01
346.75	227.09
347.13	227.17
347.52	227.21
347.90	227.28
348.28	227.31
348.66	227.31
349.05	227.28
349.43	227.29
349.81	227.32
350.19	227.33
350.57	227.41
350.96	227.49
351.34	227.57
351.72	227.65
352.10	227.69
352.48	227.77
352.87	227.83
353.25	227.91
353.63	228.00
354.01	228.06
354.39	228.13
354.77	228.20
355.15	228.28
355.54	228.31
355.92	228.36
356.30	228.44
356.68	228.57
357.06	228.67
357.44	228.73
357.82	228.82
358.20	228.91
358.58	228.95
358.97	229.03
359.35	229.10
359.73	229.16
360.11	229.25
360.49	229.30
360.87	229.36
361.25	229.40
361.63	229.45
362.01	229.47
362.39	229.53
362.77	229.55
363.15	229.55
363.53	229.60
363.91	229.64
364.29	229.62
364.67	229.54
365.05	229.52
365.43	229.56
365.81	229.54
366.19	229.60
366.57	229.63
366.95	229.58
367.33	229.57
367.71	229.56
368.09	229.52
368.47	229.49
368.85	229.45
369.23	229.45
369.61	229.40
369.99	229.40
370.37	229.34
370.75	229.35
371.13	229.30
371.51	229.22
371.89	229.19
372.27	229.15
372.65	229.11
373.03	229.05
373.41	228.97
373.78	228.91
374.16	228.81
374.54	228.69
374.92	228.65
375.30	228.56
375.68	228.45
376.06	228.41
376.44	228.34
376.82	228.26
377.19	228.17
377.57	228.08
377.95	227.99
378.33	227.93
378.71	227.80
379.09	227.74
379.47	227.69
379.84	227.57
380.22	227.53
380.60	227.44
380.98	227.34
381.36	227.24
381.73	227.14
382.11	227.09
382.49	227.02
382.87	226.95
383.25	226.90
383.62	226.97
384.00	226.88
384.38	226.84
384.76	226.81
385.13	226.80
385.51	226.78
385.89	226.69
386.27	226.65
386.64	226.63
387.02	226.55
387.40	226.50
387.78	226.47
388.15	226.42
388.53	226.39
388.91	226.38
389.29	226.36
389.66	226.36
390.04	226.27
390.42	226.29
390.79	226.25
391.17	226.24
391.55	226.09
391.92	226.10
392.30	226.06
392.68	226.01
393.05	226.02
393.43	225.99
393.81	226.02
394.18	226.04
394.56	226.07
394.94	226.12
395.31	226.13
395.69	226.20
396.06	226.25
396.44	226.33
396.82	226.38
397.19	226.47
397.57	226.51
397.95	226.58
398.32	226.62
398.70	226.76
399.07	226.86
399.45	226.97
399.82	227.03
400.20	227.15
400.58	227.26
400.95	227.26
401.33	227.40
401.70	227.58
402.08	227.68
402.45	227.78
402.83	227.92
403.20	228.08
403.58	228.21
403.95	228.36
404.33	228.51
404.71	228.63
405.08	228.80
405.46	228.97
405.83	229.16
406.21	229.33
406.58	229.48
406.96	229.62
407.33	229.81
407.70	230.03
408.08	230.31
408.45	230.57
408.83	230.85
409.20	231.06
409.58	231.23
409.95	231.52
410.33	231.82
410.70	232.07
411.08	232.37
411.45	232.64
411.82	232.93
412.20	233.30
412.57	233.75
412.95	234.07
413.32	234.46
413.69	234.87
414.07	235.31
414.44	235.77
414.82	236.28
415.19	236.84
415.56	237.39
415.94	237.92
416.31	238.53
416.68	239.18
417.06	239.93
417.43	240.61
417.81	241.37
418.18	242.12
418.55	242.94
418.93	243.81
419.30	244.71
419.67	245.65
420.04	246.57
420.42	247.55
420.79	248.74
421.16	249.88
421.54	251.07
421.91	252.24
422.28	253.47
422.66	254.79
423.03	256.06
423.40	257.37
423.77	258.77
424.15	260.21
424.52	261.68
424.89	263.25
425.26	264.80
425.64	266.20
426.01	267.82
426.38	269.48
426.75	271.14
427.13	272.87
427.50	274.65
427.87	276.49
428.24	278.32
428.61	280.07
428.99	281.97
429.36	284.06
429.73	286.15
430.10	288.20
430.47	290.21
430.85	292.31
431.22	294.59
431.59	296.94
431.96	299.17
432.33	301.64
432.70	304.04
433.08	306.82
433.45	309.45
433.82	312.06
434.19	314.96
434.56	317.77
434.93	320.47
435.30	323.10
435.68	326.06
436.05	328.91
436.42	331.67
436.79	334.23
437.16	336.95
437.53	339.79
437.90	342.57
438.27	345.35
438.64	348.23
439.01	350.83
439.38	353.13
439.75	355.27
440.13	357.81
440.50	360.15
440.87	362.04
441.24	364.04
441.61	366.21
441.98	367.69
442.35	369.53
442.72	371.35
443.09	373.21
443.46	374.18
443.83	374.79
444.20	375.38
444.57	376.26
444.94	376.56
445.31	376.90
445.68	377.32
446.05	377.42
446.42	377.02
446.79	376.60
447.16	376.12
447.53	375.86
447.90	374.68
448.27	373.50
448.64	371.89
449.01	370.76
449.37	368.77
449.74	366.87
450.11	364.60
450.48	362.16
450.85	359.61
451.22	357.50
451.59	355.45
451.96	353.44
452.33	350.78
452.70	348.39
453.07	345.59
453.43	342.66
453.80	339.87
454.17	337.17
454.54	334.61
454.91	331.94
455.28	329.25
455.65	326.77
456.02	324.31
456.38	322.19
456.75	319.52
457.12	317.30
457.49	315.07
457.86	312.90
458.23	311.03
458.59	308.97
458.96	306.85
459.33	305.01
459.70	303.14
460.07	301.65
460.43	299.97
460.80	298.33
461.17	296.87
461.54	295.39
461.91	293.98
462.27	292.50
462.64	291.21
463.01	289.83
463.38	288.51
463.74	287.18
464.11	286.00
464.48	284.96
464.85	283.80
465.21	282.91
465.58	281.98
465.95	280.84
466.32	279.94
466.68	279.02
467.05	278.10
467.42	277.20
467.78	276.26
468.15	275.36
468.52	274.66
468.88	273.76
469.25	272.97
469.62	272.33
469.98	271.68
470.35	271.04
470.72	270.44
471.08	269.77
471.45	269.19
471.82	268.59
472.18	267.96
472.55	267.51
472.92	267.00
473.28	266.50
473.65	266.03
474.02	265.55
474.38	265.20
474.75	264.86
475.11	264.53
475.48	264.26
475.85	264.03
476.21	263.78
476.58	263.62
476.94	263.43
477.31	263.23
477.67	263.04
478.04	262.91
478.41	262.85
478.77	262.88
479.14	262.78
479.50	262.80
479.87	262.85
480.23	262.91
480.60	262.92
480.96	262.99
481.33	263.21
481.69	263.39
482.06	263.55
482.42	263.74
482.79	263.97
483.15	264.25
483.52	264.61
483.88	264.94
484.25	265.30
484.61	265.73
484.98	266.17
485.34	266.73
485.71	267.32
486.07	267.90
486.44	268.42
486.80	269.10
487.17	269.83
487.53	270.66
487.90	271.54
488.26	272.48
488.62	273.48
488.99	274.43
489.35	275.46
489.72	276.58
490.08	277.76
490.44	278.97
490.81	280.30
491.17	281.65
491.54	283.12
491.90	284.65
492.26	286.28
492.63	288.03
492.99	289.77
493.36	291.63
493.72	293.68
494.08	295.80
494.45	298.07
494.81	300.42
495.17	302.82
495.54	305.34
495.90	308.03
496.26	310.79
496.63	313.73
496.99	316.82
497.35	320.06
497.72	323.53
498.08	327.03
498.44	330.71
498.80	334.63
499.17	338.66
499.53	342.82
499.89	347.20
500.26	351.65
500.62	356.38
500.98	361.31
501.34	366.32
501.71	371.63
502.07	377.07
502.43	382.68
502.79	388.53
503.16	394.59
503.52	400.83
503.88	407.28
504.24	413.92
504.60	420.77
504.97	427.84
505.33	435.08
505.69	442.73
506.05	450.42
506.41	458.20
506.78	466.36
507.14	474.80
507.50	483.49
507.86	492.47
508.22	501.56
508.59	510.75
508.95	520.35
509.31	530.13
509.67	540.24
510.03	550.49
510.39	561.02
510.75	571.77
511.12	582.67
511.48	593.98
511.84	605.42
512.20	616.99
512.56	628.96
512.92	641.22
513.28	653.63
513.64	666.10
514.00	678.79
514.37	691.75
514.73	704.79
515.09	717.79
515.45	731.08
515.81	744.80
516.17	758.76
516.53	772.85
516.89	787.12
517.25	801.27
517.61	815.72
517.97	830.22
518.33	844.71
518.69	859.54
519.05	874.42
519.41	889.70
519.77	905.30
520.13	920.80
520.49	936.10
520.85	951.58
521.21	967.43
521.57	983.86
521.93	999.60
522.29	1016.12
522.65	1032.45
523.01	1048.74
523.37	1064.75
523.73	1081.08
524.09	1097.30
524.45	1113.61
524.81	1130.26
525.17	1147.08
525.53	1164.08
525.89	1180.96
526.25	1197.80
526.61	1214.35
526.97	1231.09
527.33	1247.64
527.68	1264.29
528.04	1280.84
528.40	1297.47
528.76	1314.50
529.12	1331.07
529.48	1347.97
529.84	1364.06
530.20	1380.85
530.56	1398.12
530.91	1415.66
531.27	1432.40
531.63	1448.84
531.99	1465.49
532.35	1481.54
532.71	1497.52
533.07	1513.67
533.42	1529.72
533.78	1545.86
534.14	1562.26
534.50	1577.67
534.86	1593.59
535.21	1608.91
535.57	1625.00
535.93	1640.57
536.29	1655.50
536.65	1670.74
537.00	1685.63
537.36	1700.99
537.72	1715.61
538.08	1729.98
538.44	1743.88
538.79	1757.87
539.15	1771.80
539.51	1785.71
539.87	1800.27
540.22	1814.16
540.58	1828.11
540.94	1841.66
541.29	1854.72
541.65	1867.36
542.01	1880.74
542.37	1893.13
542.72	1905.66
543.08	1917.47
543.44	1929.89
543.79	1941.14
544.15	1952.09
544.51	1963.73
544.87	1974.76
545.22	1985.53
545.58	1995.81
545.94	2005.63
546.29	2015.64
546.65	2025.42
547.01	2034.58
547.36	2043.40
547.72	2051.89
548.07	2059.79
548.43	2068.05
548.79	2076.05
549.14	2083.74
549.50	2091.10
549.86	2098.81
550.21	2106.04
550.57	2113.28
550.92	2119.86
551.28	2127.02
551.64	2134.02
551.99	2140.60
552.35	2146.76
552.70	2152.78
553.06	2158.54
553.41	2164.76
553.77	2170.70
554.13	2176.71
554.48	2182.85
554.84	2188.14
555.19	2193.42
555.55	2198.52
555.90	2202.78
556.26	2207.60
556.61	2212.32
556.97	2216.40
557.32	2220.48
557.68	2224.85
558.03	2229.03
558.39	2232.83
558.74	2237.43
559.10	2241.41
559.45	2245.01
559.81	2249.39
560.16	2253.24
560.52	2256.52
560.87	2259.92
561.23	2262.39
561.58	2265.33
561.94	2267.76
562.29	2270.14
562.64	2272.80
563.00	2275.42
563.35	2278.84
563.71	2282.03
564.06	2285.08
564.42	2287.98
564.77	2290.31
565.12	2292.19
565.48	2293.82
565.83	2295.55
566.19	2296.59
566.54	2297.37
566.89	2298.46
567.25	2298.75
567.60	2300.06
567.96	2301.59
568.31	2302.28
568.66	2303.39
569.02	2303.65
569.37	2303.86
569.72	2304.36
570.08	2304.11
570.43	2303.85
570.78	2303.00
571.14	2301.18
571.49	2299.63
571.84	2299.06
572.20	2297.93
572.55	2296.71
572.90	2295.17
573.26	2293.39
573.61	2291.59
573.96	2289.57
574.31	2286.36
574.67	2283.10
575.02	2279.26
575.37	2275.78
575.72	2271.80
576.08	2268.29
576.43	2265.01
576.78	2261.18
577.13	2258.09
577.49	2254.96
577.84	2251.32
578.19	2247.49
578.54	2243.57
578.90	2239.20
579.25	2233.51
579.60	2228.26
579.95	2223.00
580.30	2217.79
580.66	2212.62
581.01	2207.55
581.36	2202.38
581.71	2198.03
582.06	2193.48
582.42	2188.82
582.77	2183.46
583.12	2178.79
583.47	2173.87
583.82	2168.70
584.17	2163.28
584.53	2157.47
584.88	2151.77
585.23	2145.75
585.58	2140.15
585.93	2134.71
586.28	2129.89
586.63	2124.67
586.98	2119.50
587.34	2114.90
587.69	2109.88
588.04	2104.45
588.39	2098.74
588.74	2092.43
589.09	2086.07
589.44	2079.20
589.79	2073.11
590.14	2067.31
590.49	2060.62
590.84	2054.10
591.19	2047.92
591.54	2041.29
591.89	2033.81
592.25	2026.75
592.60	2019.57
592.95	2011.76
593.30	2004.32
593.65	1996.49
594.00	1989.44
594.35	1982.12
594.70	1973.95
595.05	1966.60
595.40	1959.30
595.75	1951.69
596.10	1945.17
596.45	1938.33
596.80	1931.93
597.15	1925.18
597.50	1917.97
597.85	1911.45
598.19	1904.79
598.54	1897.59
598.89	1891.07
599.24	1885.13
599.59	1878.44
599.94	1872.18
600.29	1866.01
600.64	1859.39
600.99	1851.92
601.34	1845.07
601.69	1838.00
602.04	1831.08
602.39	1823.78
602.74	1816.86
603.08	1810.12
603.43	1803.33
603.78	1796.12
604.13	1789.02
604.48	1781.65
604.83	1774.89
605.18	1767.92
605.53	1759.85
605.87	1751.86
606.22	1744.59
606.57	1736.74
606.92	1729.54
607.27	1722.25
607.62	1715.26
607.96	1707.95
608.31	1701.30
608.66	1693.56
609.01	1686.03
609.36	1678.38
609.70	1670.28
610.05	1662.29
610.40	1654.60
610.75	1646.46
611.10	1638.85
611.44	1630.57
611.79	1622.65
612.14	1613.88
612.49	1604.86
612.83	1596.52
613.18	1588.36
613.53	1580.24
613.88	1571.65
614.22	1563.24
614.57	1554.76
614.92	1546.68
615.27	1539.13
615.61	1530.90
615.96	1522.98
616.31	1515.41
616.65	1508.16
617.00	1500.76
617.35	1493.12
617.70	1484.74
618.04	1476.10
618.39	1467.81
618.74	1460.13
619.08	1451.86
619.43	1444.38
619.78	1437.32
620.12	1430.09
620.47	1422.65
620.82	1414.53
621.16	1407.13
621.51	1399.60
621.85	1392.11
622.20	1383.67
622.55	1375.52
622.89	1367.68
623.24	1360.20
623.59	1352.89
623.93	1345.32
624.28	1338.01
624.62	1330.57
624.97	1323.39
625.32	1316.68
625.66	1309.68
626.01	1302.46
626.35	1295.01
626.70	1287.34
627.04	1279.67
627.39	1272.05
627.73	1264.73
628.08	1257.87
628.43	1250.62
628.77	1243.24
629.12	1235.62
629.46	1228.51
629.81	1221.08
630.15	1213.98
630.50	1206.52
630.84	1198.33
631.19	1190.54
631.53	1183.17
631.88	1175.66
632.22	1168.24
632.57	1161.13
632.91	1153.77
633.26	1146.53
633.60	1139.24
633.95	1132.25
634.29	1125.31
634.64	1118.70
634.98	1111.41
635.32	1104.31
635.67	1097.84
636.01	1091.32
636.36	1084.58
636.70	1078.14
637.05	1071.58
637.39	1065.10
637.73	1058.67
638.08	1052.88
638.42	1046.93
638.77	1040.60
639.11	1033.97
639.45	1027.59
639.80	1020.85
640.14	1014.39
640.49	1007.84
640.83	1001.63
641.17	995.44
641.52	989.21
641.86	982.81
642.20	977.01
642.55	970.77
642.89	964.25
643.23	957.83
643.58	952.12
643.92	945.82
644.26	939.72
644.61	933.77
644.95	927.70
645.29	921.05
645.64	914.34
645.98	907.96
646.32	902.16
646.66	896.18
647.01	890.49
647.35	884.87
647.69	879.10
648.04	873.64
648.38	867.80
648.72	861.72
649.06	855.64
649.41	849.74
649.75	843.73
650.09	837.82
650.43	832.02
650.78	825.89
651.12	820.05
651.46	814.36
651.80	808.59
652.14	803.22
652.49	797.90
652.83	792.75
653.17	787.07
653.51	781.40
653.85	775.99
654.20	770.35
654.54	764.38
654.88	758.70
655.22	752.78
655.56	747.19
655.90	741.75
656.25	736.59
656.59	731.33
656.93	726.30
657.27	721.14
657.61	715.67
657.95	710.58
658.29	705.54
658.64	700.35
658.98	695.07
659.32	689.63
659.66	684.51
660.00	679.24
660.34	674.39
660.68	669.45
661.02	664.42
661.36	659.75
661.70	655.31
662.05	650.94
662.39	646.65
662.73	642.18
663.07	637.88
663.41	633.51
663.75	628.98
664.09	624.45
664.43	620.18
664.77	616.15
665.11	611.96
665.45	607.85
665.79	603.85
666.13	599.78
666.47	595.76
666.81	591.63
667.15	587.54
667.49	583.69
667.83	579.97
668.17	576.12
668.51	572.05
668.85	568.00
669.19	564.21
669.53	560.35
669.87	556.46
670.21	552.83
670.55	549.20
670.89	545.82
671.23	542.45
671.57	538.96
671.91	535.45
672.25	531.97
672.58	528.44
672.92	525.07
673.26	521.98
673.60	518.91
673.94	515.80
674.28	512.92
674.62	509.98
674.96	506.90
675.30	503.99
675.64	501.09
675.97	498.40
676.31	495.58
676.65	492.70
676.99	490.08
677.33	487.25
677.67	484.44
678.01	481.42
678.34	478.48
678.68	475.64
679.02	472.89
679.36	470.13
679.70	467.46
680.04	464.69
680.37	461.78
680.71	458.99
681.05	456.36
681.39	453.71
681.73	451.11
682.06	448.55
682.40	445.99
682.74	443.51
683.08	440.97
683.42	438.40
683.75	435.94
684.09	433.39
684.43	430.92
684.77	428.47
685.10	426.15
685.44	423.84
685.78	421.53
686.12	419.30
686.45	417.07
686.79	414.85
687.13	412.66
687.46	410.55
687.80	408.43
688.14	406.27
688.48	404.23
688.81	401.94
689.15	399.87
689.49	397.79
689.82	395.71
690.16	393.62
690.50	391.65
690.83	389.72
691.17	387.81
691.51	385.93
691.84	384.09
692.18	382.18
692.52	380.24
692.85	378.36
693.19	376.50
693.52	374.66
693.86	372.84
694.20	371.08
694.53	369.29
694.87	367.44
695.21	365.64
695.54	363.81
695.88	362.12
696.21	360.36
696.55	358.63
696.88	356.95
697.22	355.32
697.56	353.69
697.89	352.08
698.23	350.46
698.56	348.86
698.90	347.31
699.23	345.62
699.57	344.09
699.90	342.55
700.24	340.94
700.58	339.40
700.91	337.91
701.25	336.50
701.58	335.19
701.92	333.85
702.25	332.52
702.59	331.18
702.92	329.88
703.26	328.62
703.59	327.40
703.93	326.29
704.26	325.07
704.60	323.83
704.93	322.55
705.26	321.31
705.60	320.16
705.93	319.02
706.27	318.01
706.60	316.97
706.94	315.92
707.27	314.83
707.61	313.81
707.94	312.83
708.27	311.73
708.61	310.63
708.94	309.64
709.28	308.65
709.61	307.68
709.94	306.72
710.28	305.67
710.61	304.72
710.95	303.60
711.28	302.70
711.61	301.80
711.95	300.85
712.28	299.91
712.61	298.91
712.95	297.99
713.28	297.14
713.61	296.23
713.95	295.35
714.28	294.55
714.61	293.69
714.95	292.81
715.28	291.94
715.61	291.09
715.95	290.28
716.28	289.45
716.61	288.68
716.95	287.86
717.28	287.18
717.61	286.40
717.94	285.71
718.28	284.92
718.61	284.15
718.94	283.49
719.27	282.83
719.61	282.20
719.94	281.55
720.27	280.85
720.60	280.20
720.94	279.59
721.27	278.98
721.60	278.41
721.93	277.82
722.27	277.29
722.60	276.73
722.93	276.13
723.26	275.58
723.59	274.98
723.93	274.48
724.26	273.94
724.59	273.38
724.92	272.85
725.25	272.29
725.59	271.76
725.92	271.31
726.25	270.82
726.58	270.28
726.91	269.76
727.24	269.25
727.57	268.76
727.91	268.27
728.24	267.79
728.57	267.30
728.90	266.86
729.23	266.34
729.56	265.94
729.89	265.45
730.22	264.95
730.55	264.48
730.89	264.00
731.22	263.51
731.55	263.06
731.88	262.62
732.21	262.21
732.54	261.82
732.87	261.36
733.20	260.94
733.53	260.60
733.86	260.20
734.19	259.83
734.52	259.44
734.85	259.09
735.18	258.68
735.51	258.29
735.84	257.92
736.17	257.59
736.50	257.18
736.83	256.99
737.16	256.66
737.49	256.37
737.82	255.99
738.15	255.67
738.48	255.36
738.81	255.03
739.14	254.70
739.47	254.38
739.80	254.06
740.13	253.78
740.46	253.45
740.79	253.14
741.12	252.83
741.45	252.54
741.78	252.17
742.11	251.91
742.44	251.62
742.77	251.33
743.10	251.05
743.43	250.74
743.75	250.32
744.08	250.16
744.41	249.88
744.74	249.66
745.07	249.39
745.40	249.16
745.73	248.95
746.06	248.65
746.39	248.39
746.71	248.12
747.04	247.82
747.37	247.59
747.70	247.36
748.03	247.08
748.36	246.87
748.68	246.65
749.01	246.39
749.34	246.16
749.67	245.92
750.00	245.69
750.33	245.57
750.65	245.34
750.98	245.02
751.31	244.79
751.64	244.59
751.97	244.42
752.29	244.18
752.62	243.95
752.95	243.81
753.28	243.60
753.60	243.41
753.93	243.26
754.26	243.05
754.59	242.82
754.91	242.65
755.24	242.44
755.57	242.28
755.90	242.10
756.22	241.95
756.55	241.77
756.88	241.57
757.20	241.30
757.53	241.12
757.86	240.96
758.19	240.81
758.51	240.64
758.84	240.44
759.17	240.27
759.49	240.09
759.82	239.95
760.15	239.81
760.47	239.70
760.80	239.49
761.13	239.36
761.45	239.29
761.78	239.15
762.11	239.00
762.43	238.81
762.76	238.66
763.08	238.52
763.41	238.41
763.74	238.31
764.06	238.18
764.39	238.04
764.71	237.89
765.04	237.75
765.37	237.60
765.69	237.47
766.02	237.36
766.34	237.21
766.67	237.05
767.00	236.94
767.32	236.82
767.65	236.82
767.97	236.69
768.30	236.52
768.62	236.42
768.95	236.28
769.27	236.17
769.60	236.05
769.92	235.90
770.25	235.75
770.57	235.62
770.90	235.47
771.22	235.38
771.55	235.28
771.87	235.18
772.20	235.06
772.52	235.03
772.85	235.04
773.17	234.97
773.50	234.84
773.82	234.73
774.15	234.59
774.47	234.40
774.80	234.27
775.12	234.15
775.45	234.05
775.77	233.96
776.09	233.92
776.42	233.82
776.74	233.78
777.07	233.70
777.39	233.60
777.72	233.52
778.04	233.45
778.36	233.35
778.69	233.30
779.01	233.24
779.33	233.10
779.66	232.94
779.98	232.88
780.31	232.82
780.63	232.80
780.95	232.75
781.28	232.70
781.60	232.66
781.92	232.60
782.25	232.55
782.57	232.50
782.89	232.40
783.22	232.37
783.54	232.28
783.86	232.24
784.19	232.21
784.51	232.23
784.83	232.17
785.16	232.13
785.48	232.08
785.80	232.05
786.12	232.01
786.45	231.92
786.77	231.87
787.09	231.85
787.42	231.78
787.74	231.77
788.06	231.74
788.38	231.72
788.71	231.68
789.03	231.66
789.35	231.66
789.67	231.67
789.99	231.65
790.32	231.64
790.64	231.65
790.96	231.69
791.28	231.63
791.61	231.63
791.93	231.64
792.25	231.64
792.57	231.67
792.89	231.63
793.21	231.65
793.54	231.61
793.86	231.55
794.18	231.52
794.50	231.49
794.82	231.50
795.14	231.49
795.47	231.49
795.79	231.48
796.11	231.47
796.43	231.45
796.75	231.42
797.07	231.37
797.39	231.32
797.71	231.22
798.04	231.19
798.36	231.14
798.68	231.10
799.00	231.05
799.32	230.98
799.64	230.95
799.96	230.91
800.28	230.88
800.60	230.86
800.92	230.82
801.24	230.76
801.56	230.71
801.89	230.64
802.21	230.61
802.53	230.52
802.85	230.45
803.17	230.45
803.49	230.41
803.81	230.38
804.13	230.32
804.45	230.28
804.77	230.25
805.09	230.21
805.41	230.17
805.73	230.08
806.05	230.03
806.37	230.01
806.69	229.95
807.01	229.96
807.33	229.92
807.65	229.86
807.97	229.86
808.28	229.82
808.60	229.79
808.92	229.74
809.24	229.76
809.56	229.74
809.88	229.66
810.20	229.60
810.52	229.59
810.84	229.57
811.16	229.52
811.48	229.44
811.80	229.46
812.12	229.38
812.43	229.40
812.75	229.35
813.07	229.32
813.39	229.30
813.71	229.20
814.03	229.14
814.35	229.10
814.67	229.03
814.98	228.95
815.30	228.91
815.62	228.85
815.94	228.75
816.26	228.74
816.58	228.67
816.89	228.66
817.21	228.59
817.53	228.56
817.85	228.53
818.17	228.52
818.48	228.45
818.80	228.44
819.12	228.41
819.44	228.39
819.76	228.34
820.07	228.32
820.39	228.29
820.71	228.32
821.03	228.32
821.34	228.30
821.66	228.35
821.98	228.35
822.30	228.35
822.61	228.43
822.93	228.38
823.25	228.39
823.57	228.38
823.88	228.40
824.20	228.40
824.52	228.44
824.83	228.45
825.15	228.42
825.47	228.45
825.79	228.46
826.10	228.45
826.42	228.42
826.74	228.45
827.05	228.49
827.37	228.49
827.69	228.47
828.00	228.48
828.32	228.48
828.64	228.47
828.95	228.53
829.27	228.50
829.58	228.52
829.90	228.56
830.22	228.60
830.53	228.60
830.85	228.61
831.17	228.59
831.48	228.60
831.80	228.62
832.11	228.61
832.43	228.60
832.75	228.62
833.06	228.70
833.38	228.67
833.69	228.63
834.01	228.65
834.32	228.69
834.64	228.67
834.96	228.66
835.27	228.68
835.59	228.65
835.90	228.62
836.22	228.61
836.53	228.55
836.85	228.51
837.16	228.60
837.48	228.60
837.79	228.61
838.11	228.60
838.42	228.60
838.74	228.59
839.05	228.57
839.37	228.56
839.68	228.51
840.00	228.50
840.31	228.55
840.63	228.53
840.94	228.49
841.26	228.48
841.57	228.47
841.88	228.47
842.20	228.47
842.51	228.44
842.83	228.44
843.14	228.55
843.46	228.56
843.77	228.47
844.08	228.43
844.40	228.40
844.71	228.41
845.03	228.38
845.34	228.39
845.65	228.37
845.97	228.34
846.28	228.34
846.60	228.32
846.91	228.25
847.22	228.21
847.54	228.22
847.85	228.24
848.16	228.21
848.48	228.15
848.79	228.16
849.10	228.14
849.42	228.15
849.73	228.02
850.04	227.99
850.36	227.93
850.67	227.93
850.98	227.93
851.30	227.89
851.61	227.89
851.92	227.83
852.23	227.87
852.55	227.86
852.86	227.85
853.17	227.82
853.49	227.86
853.80	227.85
854.11	227.86
854.42	227.81
854.74	227.80
855.05	227.80
855.36	227.73
855.67	227.75
855.99	227.74
856.30	227.83
856.61	227.81
856.92	227.78
857.23	227.78
857.55	227.75
857.86	227.74
858.17	227.74
858.48	227.74
858.79	227.69
859.11	227.69
859.42	227.67
859.73	227.67
860.04	227.67
860.35	227.65
860.66	227.61
860.98	227.60
861.29	227.61
861.60	227.61
861.91	227.64
862.22	227.64
862.53	227.63
862.84	227.53
863.16	227.57
863.47	227.56
863.78	227.53
864.09	227.53
864.40	227.54
864.71	227.57
865.02	227.60
865.33	227.63
865.64	227.61
865.95	227.61
866.27	227.71
866.58	227.69
866.89	227.70
867.20	227.70
867.51	227.71
867.82	227.74
868.13	227.77
868.44	227.71
868.75	227.74
869.06	227.74
869.37	227.76
869.68	227.74
869.99	227.77
870.30	227.81
870.61	227.83
870.92	227.84
871.23	227.82
871.54	227.84
871.85	227.86
872.16	227.87
872.47	227.86
872.78	227.79
873.09	227.78
873.40	227.80
873.71	227.80
874.02	227.79
874.33	227.77
874.64	227.76
874.95	227.79
875.26	227.73
875.56	227.75
875.87	227.73
876.18	227.68
876.49	227.80
876.80	227.79
877.11	227.75
877.42	227.72
877.73	227.73
878.04	227.68
878.35	227.68
878.66	227.67
878.96	227.67
879.27	227.66
879.58	227.67
879.89	227.68
880.20	227.71
880.51	227.73
880.82	227.71
881.12	227.69
881.43	227.65
881.74	227.67
882.05	227.66
882.36	227.66
882.67	227.69
882.97	227.58
883.28	227.55
883.59	227.57
883.90	227.61
884.21	227.58
884.51	227.57
884.82	227.52
885.13	227.48
885.44	227.47
885.74	227.48
886.05	227.47
886.36	227.44
886.67	227.40
886.98	227.41
887.28	227.42
887.59	227.44
887.90	227.45
888.20	227.41
888.51	227.40
888.82	227.37
889.13	227.36
889.43	227.45
889.74	227.44
890.05	227.43
890.35	227.38
890.66	227.34
890.97	227.34
891.28	227.32
891.58	227.36
891.89	227.34
892.20	227.30
892.50	227.27
892.81	227.25
893.12	227.22
893.42	227.18
893.73	227.17
894.04	227.14
894.34	227.12
894.65	227.11
894.95	227.10
895.26	227.12
895.57	227.12
895.87	227.01
896.18	227.03
896.48	227.00
896.79	227.02
897.10	227.02
897.40	227.00
897.71	227.02
898.01	227.00
898.32	227.02
898.63	227.01
898.93	226.98
899.24	226.99
899.54	226.97
899.85	226.96
900.15	226.93
900.46	226.94
900.76	226.98
901.07	226.99
901.38	226.97
901.68	227.00
901.99	226.99
902.29	226.99
902.60	226.99
902.90	227.00
903.21	227.00
903.51	227.01
903.82	227.07
904.12	227.08
904.43	227.11
904.73	227.11
905.03	227.15
905.34	227.26
905.64	227.31
905.95	227.35
906.25	227.36
906.56	227.38
906.86	227.38
907.17	227.40
907.47	227.42
907.77	227.46
908.08	227.44
908.38	227.44
908.69	227.47
908.99	227.47
909.30	227.49
909.60	227.46
909.90	227.52
910.21	227.47
910.51	227.48
910.81	227.47
911.12	227.44
911.42	227.45
911.73	227.38
912.03	227.38
912.33	227.39
912.64	227.37
912.94	227.38
913.24	227.39
913.55	227.34
913.85	227.33
914.15	227.34
914.46	227.37
914.76	227.38
915.06	227.40
915.37	227.38
915.67	227.39
915.97	227.43
916.27	227.37
916.58	227.40
916.88	227.42
917.18	227.43
917.49	227.53
917.79	227.52
918.09	227.54
918.39	227.53
918.70	227.52
919.00	227.56
919.30	227.61
919.60	227.60
919.91	227.61
920.21	227.61
920.51	227.58
920.81	227.55
921.12	227.52
921.42	227.52
921.72	227.54
922.02	227.52
922.32	227.53
922.63	227.55
922.93	227.58
923.23	227.55
923.53	227.58
923.83	227.51
924.13	227.54
924.44	227.52
924.74	227.55
925.04	227.58
925.34	227.54
925.64	227.48
925.94	227.47
926.24	227.51
926.55	227.49
926.85	227.48
927.15	227.47
927.45	227.47
927.75	227.46
928.05	227.43
928.35	227.44
928.65	227.45
928.95	227.44
929.26	227.37
929.56	227.40
929.86	227.38
930.16	227.33
930.46	227.30
930.76	227.27
931.06	227.21
931.36	227.15
931.66	227.15
931.96	227.14
932.26	227.14
932.56	227.10
932.86	227.10
933.16	227.10
933.46	227.10
933.76	227.10
934.06	227.10
934.36	227.12
934.66	227.11
934.96	227.10
935.26	227.07
935.56	227.10
935.86	227.07
936.16	227.05
936.46	227.06
936.76	227.05
937.06	227.06
937.36	227.07
937.66	227.07
937.96	227.07
938.26	227.07
938.56	227.05
938.86	227.05
939.16	227.08
939.46	227.07
939.76	227.08
940.06	227.09
940.35	227.05
940.65	227.05
940.95	227.05
941.25	227.04
941.55	227.05
941.85	227.06
942.15	227.04
942.45	227.06
942.75	227.04
943.04	227.04
943.34	227.05
943.64	227.04
943.94	227.01
944.24	227.05
944.54	227.07
944.84	227.08
945.13	227.08
945.43	227.04
945.73	227.06
946.03	227.05
946.33	227.04
946.62	227.07
946.92	227.04
947.22	227.06
947.52	227.04
947.82	227.07
948.11	227.03
948.41	227.02
948.71	227.00
949.01	227.00
949.31	227.02
949.60	227.03
949.90	227.06
950.20	227.09
950.50	227.06
950.79	227.05
951.09	227.08
951.39	227.10
951.69	227.09
951.98	227.11
952.28	227.12
952.58	227.13
952.87	227.12
953.17	227.16
953.47	227.13
953.76	227.14
954.06	227.11
954.36	227.09
954.66	227.10
954.95	227.14
955.25	227.18
955.55	227.17
955.84	227.17
956.14	227.18
956.44	227.16
956.73	227.14
957.03	227.13
957.32	227.11
957.62	227.11
957.92	227.13
958.21	227.12
958.51	227.21
958.81	227.20
959.10	227.21
959.40	227.21
959.69	227.24
959.99	227.24
960.29	227.23
960.58	227.26
960.88	227.32
961.17	227.32
961.47	227.29
961.76	227.27
962.06	227.26
962.36	227.23
962.65	227.26
962.95	227.28
963.24	227.29
963.54	227.29
963.83	227.29
964.13	227.28
964.42	227.24
964.72	227.17
965.01	227.18
965.31	227.16
965.60	227.12
965.90	227.19
966.19	227.18
966.49	227.18
966.78	227.17
967.08	227.16
967.37	227.12
967.67	227.10
967.96	227.13
968.26	227.14
968.55	227.15
968.85	227.15
969.14	227.14
969.43	227.11
969.73	227.11
970.02	227.08
970.32	227.08
970.61	227.06
970.91	227.05
971.20	227.04
971.49	227.04
971.79	227.05
972.08	226.99
972.38	226.95
972.67	226.95
972.96	226.94
973.26	226.92
973.55	226.96
973.85	226.96
974.14	226.96
974.43	226.97
974.73	226.95
975.02	226.90
975.31	226.91
975.61	226.95
975.90	226.97
976.19	226.97
976.49	227.00
976.78	226.98
977.07	226.98
977.37	226.95
977.66	226.96
977.95	226.95
978.24	226.94
978.54	227.03
978.83	227.05
979.12	227.05
979.42	227.05
979.71	227.05
980.00	227.04
980.29	227.04
980.59	227.03
980.88	227.06
981.17	227.09
981.46	227.10
981.76	227.10
982.05	227.12
982.34	227.11
982.63	227.12
982.93	227.15
983.22	227.19
983.51	227.20
983.80	227.23
984.09	227.25
984.39	227.26
984.68	227.22
984.97	227.23
985.26	227.25
985.55	227.28
985.85	227.26
986.14	227.28
986.43	227.28
986.72	227.28
987.01	227.26
987.30	227.26
987.59	227.25
987.89	227.21
988.18	227.17
988.47	227.19
988.76	227.18
989.05	227.22
989.34	227.20
989.63	227.25
989.92	227.24
990.22	227.25
990.51	227.24
990.80	227.22
991.09	227.23
991.38	227.25
991.67	227.22
991.96	227.23
992.25	227.26
992.54	227.25
992.83	227.24
993.12	227.25
993.41	227.27
993.70	227.32
993.99	227.35
994.28	227.38
994.58	227.40
994.87	227.39
995.16	227.37
995.45	227.33
995.74	227.30
996.03	227.32
996.32	227.33
996.61	227.38
996.90	227.37
997.19	227.34
997.48	227.34
997.77	227.32
998.06	227.31
998.34	227.29
998.63	227.28
998.92	227.29
999.21	227.29
999.50	227.28
999.79	227.23
1000.08	227.22
1000.37	227.20
1000.66	227.16
1000.95	227.16
1001.24	227.14
1001.53	227.17
1001.82	227.17
1002.11	227.12
1002.40	227.13
1002.68	227.09
1002.97	227.16
1003.26	227.12
1003.55	227.07
1003.84	227.10
1004.13	227.11
1004.42	227.06
1004.71	227.05
1004.99	226.99
1005.28	226.99
1005.57	227.00
1005.86	226.99
1006.15	226.96
1006.44	226.93
1006.72	226.96
1007.01	226.94
1007.30	226.95
1007.59	226.94
1007.88	226.90
1008.17	226.91
1008.45	226.89
1008.74	226.83
1009.03	226.79
1009.32	226.84
1009.60	226.86
1009.89	226.82
1010.18	226.78
1010.47	226.80
1010.76	226.81
1011.04	226.82
1011.33	226.82
1011.62	226.80
1011.91	226.81
1012.19	226.83
1012.48	226.85
1012.77	226.85
1013.05	226.90
1013.34	226.88
1013.63	226.89
1013.92	226.93
1014.20	226.92
1014.49	226.92
1014.78	226.97
1015.06	226.94
1015.35	226.94
1015.64	226.98
1015.92	227.00
1016.21	227.03
1016.50	227.04
1016.78	227.03
1017.07	227.08
1017.36	227.12
1017.64	227.12
1017.93	227.13
1018.22	227.14
1018.50	227.14
1018.79	227.12
1019.08	227.09
1019.36	227.09
1019.65	227.09
1019.93	227.10
1020.22	227.12
1020.51	227.16
1020.79	227.15
1021.08	226.91
1021.36	227.18
1021.65	226.46
1021.94	227.30
1022.22	226.79
1022.51	227.00
1022.79	227.39
1023.08	227.45
1023.36	228.09
1023.65	226.94
>>>>>End Processed Spectral Data<<<<<
