SpectraSuite Data File
++++++++++++++++++++++++++++++++++++
Date: Fri Feb 01 15:22:42 EST 2013
User: group
Dark Spectrum Present: No
Reference Spectrum Present: No
Number of Sampled Component Spectra: 1
Spectrometers: USB2E7196
Integration Time (usec): 35000 (USB2E7196)
Spectra Averaged: 100 (USB2E7196)
Boxcar Smoothing: 10 (USB2E7196)
Correct for Electrical Dark: No (USB2E7196)
Strobe/Lamp Enabled: No (USB2E7196)
Correct for Detector Non-linearity: No (USB2E7196)
Correct for Stray Light: No (USB2E7196)
Number of Pixels in Processed Spectrum: 2048
>>>>>Begin Processed Spectral Data<<<<<
339.09	0.00
339.48	215.00
339.86	216.56
340.24	217.65
340.63	219.38
341.01	222.05
341.39	221.93
341.78	223.53
342.16	224.27
342.54	224.98
342.93	213.44
343.31	224.22
343.69	224.77
344.07	225.22
344.46	225.66
344.84	226.04
345.22	226.27
345.60	226.52
345.99	226.69
346.37	226.80
346.75	226.90
347.13	226.95
347.52	226.97
347.90	227.07
348.28	227.10
348.66	227.16
349.05	227.13
349.43	227.14
349.81	227.18
350.19	227.19
350.57	227.22
350.96	227.28
351.34	227.36
351.72	227.44
352.10	227.56
352.48	227.62
352.87	227.67
353.25	227.73
353.63	227.79
354.01	227.88
354.39	228.00
354.77	228.08
355.15	228.20
355.54	228.26
355.92	228.30
356.30	228.35
356.68	228.46
357.06	228.55
357.44	228.63
357.82	228.71
358.20	228.81
358.58	228.85
358.97	228.93
359.35	229.03
359.73	229.10
360.11	229.13
360.49	229.18
360.87	229.24
361.25	229.32
361.63	229.38
362.01	229.44
362.39	229.46
362.77	229.51
363.15	229.52
363.53	229.55
363.91	229.58
364.29	229.64
364.67	229.57
365.05	229.59
365.43	229.60
365.81	229.59
366.19	229.62
366.57	229.67
366.95	229.66
367.33	229.62
367.71	229.60
368.09	229.61
368.47	229.59
368.85	229.56
369.23	229.54
369.61	229.48
369.99	229.48
370.37	229.46
370.75	229.45
371.13	229.43
371.51	229.39
371.89	229.36
372.27	229.31
372.65	229.28
373.03	229.23
373.41	229.16
373.78	229.10
374.16	229.00
374.54	228.92
374.92	228.83
375.30	228.76
375.68	228.67
376.06	228.61
376.44	228.54
376.82	228.49
377.19	228.41
377.57	228.35
377.95	228.23
378.33	228.14
378.71	227.99
379.09	227.91
379.47	227.83
379.84	227.73
380.22	227.66
380.60	227.54
380.98	227.47
381.36	227.37
381.73	227.33
382.11	227.25
382.49	227.19
382.87	227.11
383.25	227.07
383.62	227.11
384.00	227.02
384.38	226.95
384.76	226.90
385.13	226.85
385.51	226.79
385.89	226.69
386.27	226.66
386.64	226.63
387.02	226.58
387.40	226.54
387.78	226.52
388.15	226.50
388.53	226.48
388.91	226.46
389.29	226.47
389.66	226.46
390.04	226.44
390.42	226.45
390.79	226.45
391.17	226.40
391.55	226.32
391.92	226.35
392.30	226.37
392.68	226.34
393.05	226.36
393.43	226.38
393.81	226.39
394.18	226.38
394.56	226.41
394.94	226.45
395.31	226.47
395.69	226.50
396.06	226.53
396.44	226.59
396.82	226.63
397.19	226.70
397.57	226.71
397.95	226.77
398.32	226.78
398.70	226.84
399.07	226.93
399.45	226.97
399.82	227.02
400.20	227.07
400.58	227.17
400.95	227.21
401.33	227.34
401.70	227.52
402.08	227.62
402.45	227.72
402.83	227.85
403.20	228.00
403.58	228.11
403.95	228.24
404.33	228.37
404.71	228.48
405.08	228.67
405.46	228.81
405.83	228.99
406.21	229.15
406.58	229.34
406.96	229.52
407.33	229.73
407.70	229.93
408.08	230.22
408.45	230.43
408.83	230.69
409.20	230.89
409.58	231.10
409.95	231.42
410.33	231.69
410.70	231.92
411.08	232.22
411.45	232.52
411.82	232.83
412.20	233.16
412.57	233.62
412.95	233.93
413.32	234.34
413.69	234.75
414.07	235.17
414.44	235.61
414.82	236.08
415.19	236.63
415.56	237.19
415.94	237.72
416.31	238.38
416.68	239.01
417.06	239.74
417.43	240.39
417.81	241.13
418.18	241.90
418.55	242.75
418.93	243.59
419.30	244.47
419.67	245.46
420.04	246.40
420.42	247.37
420.79	248.55
421.16	249.71
421.54	250.89
421.91	252.16
422.28	253.41
422.66	254.73
423.03	256.03
423.40	257.37
423.77	258.81
424.15	260.20
424.52	261.68
424.89	263.27
425.26	264.84
425.64	266.25
426.01	267.84
426.38	269.49
426.75	271.18
427.13	272.93
427.50	274.72
427.87	276.62
428.24	278.47
428.61	280.20
428.99	282.14
429.36	284.23
429.73	286.23
430.10	288.25
430.47	290.31
430.85	292.39
431.22	294.63
431.59	297.00
431.96	299.29
432.33	301.78
432.70	304.17
433.08	306.96
433.45	309.63
433.82	312.27
434.19	315.17
434.56	317.98
434.93	320.65
435.30	323.23
435.68	326.13
436.05	328.98
436.42	331.79
436.79	334.29
437.16	336.95
437.53	339.81
437.90	342.68
438.27	345.45
438.64	348.33
439.01	350.90
439.38	353.15
439.75	355.31
440.13	357.79
440.50	360.16
440.87	362.01
441.24	363.94
441.61	366.08
441.98	367.60
442.35	369.43
442.72	371.26
443.09	373.06
443.46	374.03
443.83	374.64
444.20	375.14
444.57	375.99
444.94	376.34
445.31	376.71
445.68	377.00
446.05	377.11
446.42	376.73
446.79	376.34
447.16	375.86
447.53	375.51
447.90	374.34
448.27	373.15
448.64	371.60
449.01	370.43
449.37	368.47
449.74	366.56
450.11	364.26
450.48	361.79
450.85	359.31
451.22	357.16
451.59	355.09
451.96	353.13
452.33	350.55
452.70	348.17
453.07	345.32
453.43	342.44
453.80	339.65
454.17	336.96
454.54	334.42
454.91	331.71
455.28	329.05
455.65	326.58
456.02	324.10
456.38	321.92
456.75	319.32
457.12	317.07
457.49	314.86
457.86	312.71
458.23	310.87
458.59	308.79
458.96	306.68
459.33	304.85
459.70	302.98
460.07	301.47
460.43	299.73
460.80	298.07
461.17	296.61
461.54	295.12
461.91	293.69
462.27	292.17
462.64	290.91
463.01	289.58
463.38	288.30
463.74	286.95
464.11	285.78
464.48	284.68
464.85	283.57
465.21	282.68
465.58	281.76
465.95	280.66
466.32	279.76
466.68	278.90
467.05	277.98
467.42	277.09
467.78	276.14
468.15	275.28
468.52	274.66
468.88	273.82
469.25	273.02
469.62	272.37
469.98	271.77
470.35	271.13
470.72	270.45
471.08	269.75
471.45	269.25
471.82	268.72
472.18	268.16
472.55	267.70
472.92	267.18
473.28	266.72
473.65	266.26
474.02	265.80
474.38	265.41
474.75	265.05
475.11	264.71
475.48	264.44
475.85	264.20
476.21	263.94
476.58	263.74
476.94	263.58
477.31	263.42
477.67	263.21
478.04	263.13
478.41	263.11
478.77	263.18
479.14	263.09
479.50	263.08
479.87	263.12
480.23	263.18
480.60	263.22
480.96	263.29
481.33	263.47
481.69	263.62
482.06	263.83
482.42	264.06
482.79	264.32
483.15	264.62
483.52	264.95
483.88	265.29
484.25	265.66
484.61	266.08
484.98	266.52
485.34	267.10
485.71	267.66
486.07	268.25
486.44	268.81
486.80	269.48
487.17	270.18
487.53	271.02
487.90	271.89
488.26	272.82
488.62	273.81
488.99	274.79
489.35	275.86
489.72	276.97
490.08	278.17
490.44	279.38
490.81	280.71
491.17	282.08
491.54	283.59
491.90	285.13
492.26	286.79
492.63	288.51
492.99	290.29
493.36	292.20
493.72	294.25
494.08	296.34
494.45	298.60
494.81	300.99
495.17	303.40
495.54	305.95
495.90	308.64
496.26	311.45
496.63	314.41
496.99	317.51
497.35	320.76
497.72	324.16
498.08	327.72
498.44	331.38
498.80	335.30
499.17	339.34
499.53	343.53
499.89	347.92
500.26	352.41
500.62	357.08
500.98	362.08
501.34	367.14
501.71	372.41
502.07	377.85
502.43	383.47
502.79	389.28
503.16	395.35
503.52	401.63
503.88	408.06
504.24	414.67
504.60	421.57
504.97	428.71
505.33	436.07
505.69	443.77
506.05	451.54
506.41	459.42
506.78	467.58
507.14	475.97
507.50	484.66
507.86	493.78
508.22	502.99
508.59	512.13
508.95	521.69
509.31	531.52
509.67	541.58
510.03	551.81
510.39	562.38
510.75	573.15
511.12	584.08
511.48	595.31
511.84	606.73
512.20	618.25
512.56	630.23
512.92	642.41
513.28	654.70
513.64	667.18
514.00	679.92
514.37	692.86
514.73	705.98
515.09	719.04
515.45	732.28
515.81	745.90
516.17	759.90
516.53	774.08
516.89	788.24
517.25	802.51
517.61	817.04
517.97	831.53
518.33	846.09
518.69	860.89
519.05	875.92
519.41	891.23
519.77	906.83
520.13	922.31
520.49	937.67
520.85	953.17
521.21	968.98
521.57	985.27
521.93	1001.03
522.29	1017.42
522.65	1033.69
523.01	1049.96
523.37	1066.02
523.73	1082.25
524.09	1098.46
524.45	1114.85
524.81	1131.54
525.17	1148.43
525.53	1165.41
525.89	1182.22
526.25	1199.05
526.61	1215.61
526.97	1232.34
527.33	1248.81
527.68	1265.38
528.04	1281.94
528.40	1298.60
528.76	1315.63
529.12	1332.27
529.48	1349.24
529.84	1365.44
530.20	1382.26
530.56	1399.43
530.91	1416.91
531.27	1433.76
531.63	1450.16
531.99	1466.84
532.35	1482.86
532.71	1498.78
533.07	1515.16
533.42	1531.17
533.78	1547.36
534.14	1563.60
534.50	1578.94
534.86	1595.00
535.21	1610.24
535.57	1626.37
535.93	1641.93
536.29	1656.86
536.65	1672.02
537.00	1686.84
537.36	1702.22
537.72	1716.61
538.08	1730.94
538.44	1744.85
538.79	1758.97
539.15	1772.79
539.51	1786.59
539.87	1801.00
540.22	1814.74
540.58	1828.44
540.94	1841.79
541.29	1854.84
541.65	1867.51
542.01	1880.90
542.37	1893.18
542.72	1905.78
543.08	1917.53
543.44	1929.89
543.79	1941.15
544.15	1952.23
544.51	1963.85
544.87	1974.81
545.22	1985.76
545.58	1996.08
545.94	2005.76
546.29	2015.59
546.65	2025.43
547.01	2034.64
547.36	2043.44
547.72	2051.92
548.07	2059.89
548.43	2068.14
548.79	2076.14
549.14	2083.84
549.50	2091.27
549.86	2099.06
550.21	2106.32
550.57	2113.58
550.92	2120.12
551.28	2127.26
551.64	2134.35
551.99	2140.98
552.35	2147.12
552.70	2153.31
553.06	2159.33
553.41	2165.76
553.77	2171.65
554.13	2177.87
554.48	2184.07
554.84	2189.40
555.19	2194.82
555.55	2200.01
555.90	2204.55
556.26	2209.41
556.61	2214.10
556.97	2218.19
557.32	2222.38
557.68	2226.56
558.03	2230.68
558.39	2234.60
558.74	2239.17
559.10	2242.93
559.45	2246.58
559.81	2250.91
560.16	2254.66
560.52	2257.73
560.87	2261.15
561.23	2263.71
561.58	2266.55
561.94	2269.09
562.29	2271.44
562.64	2274.04
563.00	2276.59
563.35	2280.06
563.71	2283.12
564.06	2286.31
564.42	2289.26
564.77	2291.69
565.12	2293.86
565.48	2295.78
565.83	2297.54
566.19	2298.65
566.54	2299.65
566.89	2300.61
567.25	2301.31
567.60	2302.69
567.96	2304.53
568.31	2305.38
568.66	2306.51
569.02	2307.02
569.37	2307.26
569.72	2307.99
570.08	2307.95
570.43	2307.94
570.78	2307.13
571.14	2305.56
571.49	2304.21
571.84	2303.79
572.20	2302.44
572.55	2301.47
572.90	2299.89
573.26	2298.55
573.61	2296.99
573.96	2295.02
574.31	2291.93
574.67	2288.54
575.02	2284.84
575.37	2281.20
575.72	2277.09
576.08	2273.87
576.43	2270.43
576.78	2266.61
577.13	2263.58
577.49	2260.65
577.84	2256.94
578.19	2253.21
578.54	2249.39
578.90	2244.99
579.25	2239.34
579.60	2234.28
579.95	2229.02
580.30	2223.85
580.66	2218.51
581.01	2213.44
581.36	2208.51
581.71	2204.35
582.06	2199.92
582.42	2195.34
582.77	2190.00
583.12	2185.41
583.47	2180.30
583.82	2175.28
584.17	2170.02
584.53	2164.35
584.88	2158.54
585.23	2152.66
585.58	2147.17
585.93	2141.66
586.28	2136.89
586.63	2131.71
586.98	2126.56
587.34	2121.98
587.69	2117.12
588.04	2111.70
588.39	2105.86
588.74	2099.37
589.09	2093.12
589.44	2086.12
589.79	2079.92
590.14	2074.33
590.49	2067.74
590.84	2061.50
591.19	2055.37
591.54	2048.85
591.89	2041.39
592.25	2034.49
592.60	2027.38
592.95	2019.59
593.30	2012.26
593.65	2004.62
594.00	1997.69
594.35	1990.49
594.70	1982.22
595.05	1974.74
595.40	1967.48
595.75	1959.95
596.10	1953.50
596.45	1946.59
596.80	1940.49
597.15	1933.82
597.50	1926.51
597.85	1920.10
598.19	1913.29
598.54	1906.07
598.89	1899.43
599.24	1893.47
599.59	1886.64
599.94	1880.38
600.29	1874.04
600.64	1867.37
600.99	1859.76
601.34	1852.76
601.69	1845.72
602.04	1838.72
602.39	1831.36
602.74	1824.49
603.08	1817.69
603.43	1810.97
603.78	1803.84
604.13	1796.60
604.48	1789.22
604.83	1782.48
605.18	1775.31
605.53	1767.29
605.87	1759.33
606.22	1751.94
606.57	1744.00
606.92	1736.72
607.27	1729.54
607.62	1722.74
607.96	1715.43
608.31	1708.79
608.66	1701.04
609.01	1693.44
609.36	1685.98
609.70	1677.99
610.05	1669.85
610.40	1662.16
610.75	1653.86
611.10	1646.06
611.44	1637.73
611.79	1629.88
612.14	1621.17
612.49	1612.14
612.83	1603.81
613.18	1595.72
613.53	1587.68
613.88	1579.18
614.22	1570.96
614.57	1562.23
614.92	1554.14
615.27	1546.56
615.61	1538.27
615.96	1530.37
616.31	1522.75
616.65	1515.39
617.00	1507.90
617.35	1500.26
617.70	1491.93
618.04	1483.35
618.39	1475.21
618.74	1467.51
619.08	1459.17
619.43	1451.70
619.78	1444.76
620.12	1437.52
620.47	1429.98
620.82	1421.91
621.16	1414.53
621.51	1406.89
621.85	1399.28
622.20	1390.62
622.55	1382.27
622.89	1374.48
623.24	1366.87
623.59	1359.52
623.93	1351.92
624.28	1344.65
624.62	1337.09
624.97	1329.95
625.32	1323.29
625.66	1316.24
626.01	1308.99
626.35	1301.41
626.70	1293.51
627.04	1285.69
627.39	1277.94
627.73	1270.54
628.08	1263.60
628.43	1256.20
628.77	1248.82
629.12	1241.18
629.46	1234.13
629.81	1226.73
630.15	1219.43
630.50	1212.01
630.84	1203.75
631.19	1195.87
631.53	1188.32
631.88	1180.79
632.22	1173.19
632.57	1165.86
632.91	1158.26
633.26	1150.98
633.60	1143.76
633.95	1136.78
634.29	1129.83
634.64	1123.16
634.98	1115.73
635.32	1108.50
635.67	1101.97
636.01	1095.31
636.36	1088.64
636.70	1082.13
637.05	1075.58
637.39	1069.24
637.73	1062.73
638.08	1056.93
638.42	1051.00
638.77	1044.58
639.11	1038.07
639.45	1031.69
639.80	1025.02
640.14	1018.64
640.49	1012.08
640.83	1005.78
641.17	999.53
641.52	993.24
641.86	986.84
642.20	981.00
642.55	974.81
642.89	968.26
643.23	961.80
643.58	956.06
643.92	949.88
644.26	943.77
644.61	937.57
644.95	931.61
645.29	924.96
645.64	918.14
645.98	911.80
646.32	905.89
646.66	899.79
647.01	894.05
647.35	888.37
647.69	882.60
648.04	877.16
648.38	871.28
648.72	865.22
649.06	859.17
649.41	853.36
649.75	847.33
650.09	841.45
650.43	835.65
650.78	829.43
651.12	823.45
651.46	817.69
651.80	812.00
652.14	806.63
652.49	801.27
652.83	796.21
653.17	790.53
653.51	784.80
653.85	779.54
654.20	773.81
654.54	767.79
654.88	761.99
655.22	756.00
655.56	750.33
655.90	744.89
656.25	739.60
656.59	734.23
656.93	729.12
657.27	723.89
657.61	718.46
657.95	713.30
658.29	708.25
658.64	703.06
658.98	697.80
659.32	692.25
659.66	687.00
660.00	681.61
660.34	676.72
660.68	671.89
661.02	666.76
661.36	662.01
661.70	657.58
662.05	653.28
662.39	649.01
662.73	644.60
663.07	640.27
663.41	635.85
663.75	631.33
664.09	626.78
664.43	622.47
664.77	618.28
665.11	614.11
665.45	609.99
665.79	605.94
666.13	601.75
666.47	597.67
666.81	593.58
667.15	589.56
667.49	585.69
667.83	581.90
668.17	578.03
668.51	574.04
668.85	570.00
669.19	566.15
669.53	562.32
669.87	558.46
670.21	554.80
670.55	551.18
670.89	547.81
671.23	544.38
671.57	540.83
671.91	537.31
672.25	533.82
672.58	530.30
672.92	526.94
673.26	523.81
673.60	520.71
673.94	517.56
674.28	514.64
674.62	511.68
674.96	508.55
675.30	505.64
675.64	502.75
675.97	500.01
676.31	497.16
676.65	494.20
676.99	491.48
677.33	488.56
677.67	485.72
678.01	482.66
678.34	479.70
678.68	476.92
679.02	474.17
679.36	471.41
679.70	468.71
680.04	465.94
680.37	463.07
680.71	460.27
681.05	457.70
681.39	454.95
681.73	452.31
682.06	449.74
682.40	447.21
682.74	444.72
683.08	442.22
683.42	439.62
683.75	437.09
684.09	434.59
684.43	432.13
684.77	429.69
685.10	427.38
685.44	425.07
685.78	422.74
686.12	420.53
686.45	418.25
686.79	415.95
687.13	413.77
687.46	411.65
687.80	409.51
688.14	407.32
688.48	405.32
688.81	403.03
689.15	400.91
689.49	398.78
689.82	396.65
690.16	394.48
690.50	392.46
690.83	390.56
691.17	388.51
691.51	386.63
691.84	384.78
692.18	382.80
692.52	380.84
692.85	378.94
693.19	377.02
693.52	375.19
693.86	373.37
694.20	371.59
694.53	369.79
694.87	367.97
695.21	366.16
695.54	364.29
695.88	362.59
696.21	360.85
696.55	359.14
696.88	357.45
697.22	355.84
697.56	354.23
697.89	352.57
698.23	350.99
698.56	349.39
698.90	347.77
699.23	346.10
699.57	344.47
699.90	342.91
700.24	341.38
700.58	339.84
700.91	338.30
701.25	336.86
701.58	335.49
701.92	334.13
702.25	332.74
702.59	331.38
702.92	330.03
703.26	328.74
703.59	327.46
703.93	326.30
704.26	325.03
704.60	323.74
704.93	322.45
705.26	321.23
705.60	320.06
705.93	318.94
706.27	317.96
706.60	316.96
706.94	315.89
707.27	314.79
707.61	313.75
707.94	312.77
708.27	311.66
708.61	310.58
708.94	309.53
709.28	308.59
709.61	307.62
709.94	306.69
710.28	305.67
710.61	304.69
710.95	303.60
711.28	302.67
711.61	301.75
711.95	300.83
712.28	299.87
712.61	298.88
712.95	297.95
713.28	297.07
713.61	296.14
713.95	295.25
714.28	294.40
714.61	293.55
714.95	292.72
715.28	291.86
715.61	291.00
715.95	290.22
716.28	289.34
716.61	288.56
716.95	287.77
717.28	287.03
717.61	286.29
717.94	285.58
718.28	284.80
718.61	284.08
718.94	283.44
719.27	282.77
719.61	282.16
719.94	281.51
720.27	280.82
720.60	280.20
720.94	279.58
721.27	279.00
721.60	278.41
721.93	277.84
722.27	277.32
722.60	276.80
722.93	276.20
723.26	275.72
723.59	275.19
723.93	274.68
724.26	274.13
724.59	273.56
724.92	273.03
725.25	272.53
725.59	272.03
725.92	271.48
726.25	271.00
726.58	270.52
726.91	269.98
727.24	269.49
727.57	269.01
727.91	268.50
728.24	268.00
728.57	267.54
728.90	267.08
729.23	266.59
729.56	266.13
729.89	265.67
730.22	265.16
730.55	264.65
730.89	264.17
731.22	263.75
731.55	263.37
731.88	262.94
732.21	262.51
732.54	262.09
732.87	261.71
733.20	261.33
733.53	260.90
733.86	260.59
734.19	260.22
734.52	259.86
734.85	259.53
735.18	259.12
735.51	258.75
735.84	258.30
736.17	257.92
736.50	257.52
736.83	257.26
737.16	256.92
737.49	256.62
737.82	256.26
738.15	255.93
738.48	255.56
738.81	255.25
739.14	254.95
739.47	254.61
739.80	254.29
740.13	253.96
740.46	253.65
740.79	253.31
741.12	252.97
741.45	252.64
741.78	252.31
742.11	252.04
742.44	251.73
742.77	251.50
743.10	251.21
743.43	250.93
743.75	250.56
744.08	250.43
744.41	250.11
744.74	249.84
745.07	249.54
745.40	249.30
745.73	249.02
746.06	248.73
746.39	248.49
746.71	248.23
747.04	247.95
747.37	247.69
747.70	247.45
748.03	247.20
748.36	246.96
748.68	246.71
749.01	246.44
749.34	246.20
749.67	245.94
750.00	245.70
750.33	245.54
750.65	245.32
750.98	244.97
751.31	244.77
751.64	244.57
751.97	244.40
752.29	244.18
752.62	243.94
752.95	243.74
753.28	243.50
753.60	243.31
753.93	243.14
754.26	242.95
754.59	242.72
754.91	242.53
755.24	242.36
755.57	242.19
755.90	242.04
756.22	241.81
756.55	241.61
756.88	241.44
757.20	241.20
757.53	240.98
757.86	240.80
758.19	240.64
758.51	240.46
758.84	240.27
759.17	240.09
759.49	239.96
759.82	239.87
760.15	239.71
760.47	239.52
760.80	239.35
761.13	239.22
761.45	239.06
761.78	238.92
762.11	238.75
762.43	238.57
762.76	238.43
763.08	238.32
763.41	238.21
763.74	238.06
764.06	237.95
764.39	237.82
764.71	237.69
765.04	237.53
765.37	237.40
765.69	237.26
766.02	237.11
766.34	236.96
766.67	236.75
767.00	236.65
767.32	236.58
767.65	236.55
767.97	236.43
768.30	236.32
768.62	236.20
768.95	236.04
769.27	235.94
769.60	235.85
769.92	235.73
770.25	235.59
770.57	235.50
770.90	235.38
771.22	235.27
771.55	235.15
771.87	235.08
772.20	234.99
772.52	234.98
772.85	235.02
773.17	234.92
773.50	234.84
773.82	234.74
774.15	234.61
774.47	234.42
774.80	234.30
775.12	234.20
775.45	234.13
775.77	234.10
776.09	234.02
776.42	233.92
776.74	233.85
777.07	233.78
777.39	233.70
777.72	233.61
778.04	233.51
778.36	233.44
778.69	233.39
779.01	233.34
779.33	233.17
779.66	233.01
779.98	232.94
780.31	232.90
780.63	232.85
780.95	232.83
781.28	232.78
781.60	232.72
781.92	232.66
782.25	232.58
782.57	232.52
782.89	232.44
783.22	232.37
783.54	232.33
783.86	232.29
784.19	232.25
784.51	232.25
784.83	232.22
785.16	232.16
785.48	232.10
785.80	232.04
786.12	232.01
786.45	231.96
786.77	231.92
787.09	231.82
787.42	231.78
787.74	231.73
788.06	231.71
788.38	231.67
788.71	231.65
789.03	231.63
789.35	231.60
789.67	231.60
789.99	231.56
790.32	231.47
790.64	231.44
790.96	231.45
791.28	231.39
791.61	231.36
791.93	231.31
792.25	231.29
792.57	231.33
792.89	231.26
793.21	231.21
793.54	231.19
793.86	231.18
794.18	231.16
794.50	231.11
794.82	231.05
795.14	231.03
795.47	230.99
795.79	230.96
796.11	230.91
796.43	230.86
796.75	230.84
797.07	230.86
797.39	230.80
797.71	230.69
798.04	230.65
798.36	230.62
798.68	230.59
799.00	230.56
799.32	230.44
799.64	230.45
799.96	230.47
800.28	230.44
800.60	230.42
800.92	230.37
801.24	230.36
801.56	230.36
801.89	230.31
802.21	230.29
802.53	230.25
802.85	230.25
803.17	230.25
803.49	230.20
803.81	230.16
804.13	230.14
804.45	230.11
804.77	230.08
805.09	230.06
805.41	230.02
805.73	229.96
806.05	229.94
806.37	229.87
806.69	229.80
807.01	229.79
807.33	229.76
807.65	229.70
807.97	229.69
808.28	229.61
808.60	229.58
808.92	229.56
809.24	229.57
809.56	229.49
809.88	229.43
810.20	229.40
810.52	229.36
810.84	229.34
811.16	229.28
811.48	229.22
811.80	229.21
812.12	229.20
812.43	229.17
812.75	229.17
813.07	229.16
813.39	229.14
813.71	229.08
814.03	228.98
814.35	228.94
814.67	228.86
814.98	228.83
815.30	228.80
815.62	228.76
815.94	228.68
816.26	228.70
816.58	228.65
816.89	228.66
817.21	228.63
817.53	228.62
817.85	228.59
818.17	228.65
818.48	228.61
818.80	228.58
819.12	228.56
819.44	228.52
819.76	228.49
820.07	228.48
820.39	228.47
820.71	228.50
821.03	228.49
821.34	228.48
821.66	228.50
821.98	228.51
822.30	228.47
822.61	228.54
822.93	228.48
823.25	228.49
823.57	228.45
823.88	228.47
824.20	228.44
824.52	228.47
824.83	228.42
825.15	228.41
825.47	228.40
825.79	228.40
826.10	228.36
826.42	228.36
826.74	228.37
827.05	228.38
827.37	228.38
827.69	228.38
828.00	228.40
828.32	228.41
828.64	228.37
828.95	228.43
829.27	228.42
829.58	228.46
829.90	228.49
830.22	228.49
830.53	228.46
830.85	228.48
831.17	228.47
831.48	228.45
831.80	228.46
832.11	228.47
832.43	228.48
832.75	228.49
833.06	228.57
833.38	228.53
833.69	228.51
834.01	228.55
834.32	228.54
834.64	228.54
834.96	228.55
835.27	228.57
835.59	228.54
835.90	228.50
836.22	228.49
836.53	228.47
836.85	228.47
837.16	228.57
837.48	228.54
837.79	228.54
838.11	228.56
838.42	228.54
838.74	228.57
839.05	228.58
839.37	228.57
839.68	228.50
840.00	228.51
840.31	228.52
840.63	228.49
840.94	228.47
841.26	228.43
841.57	228.38
841.88	228.37
842.20	228.35
842.51	228.33
842.83	228.29
843.14	228.35
843.46	228.36
843.77	228.29
844.08	228.31
844.40	228.30
844.71	228.29
845.03	228.27
845.34	228.24
845.65	228.19
845.97	228.19
846.28	228.19
846.60	228.18
846.91	228.20
847.22	228.20
847.54	228.22
847.85	228.23
848.16	228.24
848.48	228.22
848.79	228.25
849.10	228.24
849.42	228.25
849.73	228.16
850.04	228.13
850.36	228.07
850.67	228.07
850.98	228.07
851.30	228.04
851.61	228.03
851.92	227.99
852.23	228.02
852.55	228.00
852.86	227.96
853.17	227.95
853.49	227.91
853.80	227.88
854.11	227.87
854.42	227.86
854.74	227.83
855.05	227.82
855.36	227.73
855.67	227.73
855.99	227.72
856.30	227.83
856.61	227.82
856.92	227.81
857.23	227.79
857.55	227.74
857.86	227.73
858.17	227.71
858.48	227.70
858.79	227.66
859.11	227.65
859.42	227.64
859.73	227.63
860.04	227.60
860.35	227.57
860.66	227.53
860.98	227.51
861.29	227.52
861.60	227.51
861.91	227.53
862.22	227.51
862.53	227.48
862.84	227.32
863.16	227.34
863.47	227.33
863.78	227.28
864.09	227.30
864.40	227.31
864.71	227.34
865.02	227.33
865.33	227.31
865.64	227.28
865.95	227.27
866.27	227.33
866.58	227.33
866.89	227.37
867.20	227.37
867.51	227.36
867.82	227.35
868.13	227.39
868.44	227.39
868.75	227.40
869.06	227.41
869.37	227.42
869.68	227.38
869.99	227.42
870.30	227.45
870.61	227.46
870.92	227.44
871.23	227.45
871.54	227.49
871.85	227.52
872.16	227.57
872.47	227.59
872.78	227.54
873.09	227.52
873.40	227.50
873.71	227.54
874.02	227.56
874.33	227.53
874.64	227.51
874.95	227.53
875.26	227.51
875.56	227.51
875.87	227.53
876.18	227.56
876.49	227.65
876.80	227.66
877.11	227.64
877.42	227.66
877.73	227.65
878.04	227.64
878.35	227.66
878.66	227.68
878.96	227.67
879.27	227.68
879.58	227.71
879.89	227.73
880.20	227.75
880.51	227.73
880.82	227.73
881.12	227.75
881.43	227.72
881.74	227.75
882.05	227.76
882.36	227.74
882.67	227.71
882.97	227.56
883.28	227.55
883.59	227.55
883.90	227.57
884.21	227.57
884.51	227.56
884.82	227.55
885.13	227.50
885.44	227.50
885.74	227.49
886.05	227.48
886.36	227.46
886.67	227.41
886.98	227.48
887.28	227.51
887.59	227.49
887.90	227.49
888.20	227.44
888.51	227.44
888.82	227.42
889.13	227.43
889.43	227.53
889.74	227.51
890.05	227.50
890.35	227.44
890.66	227.43
890.97	227.42
891.28	227.38
891.58	227.39
891.89	227.39
892.20	227.39
892.50	227.37
892.81	227.36
893.12	227.34
893.42	227.28
893.73	227.30
894.04	227.30
894.34	227.31
894.65	227.29
894.95	227.27
895.26	227.25
895.57	227.29
895.87	227.20
896.18	227.22
896.48	227.21
896.79	227.23
897.10	227.23
897.40	227.22
897.71	227.25
898.01	227.24
898.32	227.27
898.63	227.21
898.93	227.22
899.24	227.23
899.54	227.25
899.85	227.25
900.15	227.20
900.46	227.18
900.76	227.19
901.07	227.20
901.38	227.19
901.68	227.26
901.99	227.22
902.29	227.22
902.60	227.18
902.90	227.19
903.21	227.17
903.51	227.18
903.82	227.20
904.12	227.19
904.43	227.17
904.73	227.15
905.03	227.19
905.34	227.27
905.64	227.25
905.95	227.24
906.25	227.26
906.56	227.27
906.86	227.28
907.17	227.26
907.47	227.32
907.77	227.32
908.08	227.29
908.38	227.30
908.69	227.34
908.99	227.38
909.30	227.36
909.60	227.36
909.90	227.34
910.21	227.35
910.51	227.36
910.81	227.35
911.12	227.36
911.42	227.36
911.73	227.26
912.03	227.27
912.33	227.28
912.64	227.27
912.94	227.27
913.24	227.26
913.55	227.26
913.85	227.22
914.15	227.25
914.46	227.28
914.76	227.28
915.06	227.29
915.37	227.28
915.67	227.31
915.97	227.34
916.27	227.34
916.58	227.34
916.88	227.31
917.18	227.34
917.49	227.37
917.79	227.37
918.09	227.41
918.39	227.44
918.70	227.43
919.00	227.43
919.30	227.49
919.60	227.47
919.91	227.48
920.21	227.50
920.51	227.46
920.81	227.45
921.12	227.48
921.42	227.45
921.72	227.46
922.02	227.46
922.32	227.48
922.63	227.48
922.93	227.50
923.23	227.54
923.53	227.51
923.83	227.50
924.13	227.50
924.44	227.46
924.74	227.47
925.04	227.50
925.34	227.48
925.64	227.42
925.94	227.43
926.24	227.47
926.55	227.44
926.85	227.46
927.15	227.44
927.45	227.43
927.75	227.42
928.05	227.39
928.35	227.36
928.65	227.37
928.95	227.36
929.26	227.30
929.56	227.27
929.86	227.32
930.16	227.23
930.46	227.23
930.76	227.24
931.06	227.21
931.36	227.19
931.66	227.22
931.96	227.19
932.26	227.21
932.56	227.17
932.86	227.17
933.16	227.15
933.46	227.14
933.76	227.09
934.06	227.11
934.36	227.16
934.66	227.18
934.96	227.15
935.26	227.15
935.56	227.17
935.86	227.12
936.16	227.10
936.46	227.13
936.76	227.11
937.06	227.09
937.36	227.07
937.66	227.02
937.96	227.02
938.26	227.01
938.56	226.96
938.86	226.97
939.16	226.99
939.46	227.00
939.76	227.00
940.06	227.00
940.35	227.00
940.65	226.95
940.95	226.93
941.25	226.91
941.55	226.88
941.85	226.87
942.15	226.92
942.45	226.92
942.75	226.95
943.04	226.95
943.34	226.97
943.64	226.96
943.94	226.96
944.24	226.92
944.54	226.92
944.84	226.96
945.13	226.94
945.43	226.91
945.73	226.93
946.03	226.93
946.33	226.93
946.62	226.91
946.92	226.87
947.22	226.89
947.52	226.89
947.82	226.92
948.11	226.92
948.41	226.88
948.71	226.88
949.01	226.85
949.31	226.83
949.60	226.81
949.90	226.84
950.20	226.83
950.50	226.87
950.79	226.90
951.09	226.92
951.39	226.95
951.69	226.96
951.98	226.96
952.28	226.93
952.58	226.94
952.87	226.94
953.17	227.00
953.47	226.98
953.76	227.02
954.06	226.98
954.36	226.97
954.66	226.98
954.95	227.00
955.25	227.04
955.55	227.08
955.84	227.08
956.14	227.08
956.44	227.11
956.73	227.10
957.03	227.11
957.32	227.11
957.62	227.08
957.92	227.10
958.21	227.11
958.51	227.20
958.81	227.24
959.10	227.26
959.40	227.28
959.69	227.29
959.99	227.28
960.29	227.33
960.58	227.32
960.88	227.36
961.17	227.35
961.47	227.34
961.76	227.33
962.06	227.34
962.36	227.34
962.65	227.33
962.95	227.30
963.24	227.25
963.54	227.24
963.83	227.26
964.13	227.26
964.42	227.23
964.72	227.19
965.01	227.17
965.31	227.15
965.60	227.12
965.90	227.17
966.19	227.14
966.49	227.12
966.78	227.13
967.08	227.09
967.37	227.09
967.67	227.08
967.96	227.08
968.26	227.05
968.55	227.07
968.85	227.10
969.14	227.10
969.43	227.14
969.73	227.14
970.02	227.12
970.32	227.10
970.61	227.08
970.91	227.04
971.20	227.00
971.49	226.97
971.79	226.96
972.08	226.89
972.38	226.87
972.67	226.86
972.96	226.86
973.26	226.87
973.55	226.89
973.85	226.88
974.14	226.88
974.43	226.91
974.73	226.90
975.02	226.89
975.31	226.89
975.61	226.87
975.90	226.82
976.19	226.78
976.49	226.76
976.78	226.76
977.07	226.76
977.37	226.76
977.66	226.80
977.95	226.79
978.24	226.82
978.54	226.85
978.83	226.85
979.12	226.84
979.42	226.80
979.71	226.77
980.00	226.78
980.29	226.79
980.59	226.76
980.88	226.78
981.17	226.78
981.46	226.77
981.76	226.76
982.05	226.77
982.34	226.83
982.63	226.85
982.93	226.86
983.22	226.89
983.51	226.92
983.80	226.88
984.09	226.90
984.39	226.89
984.68	226.86
984.97	226.86
985.26	226.90
985.55	226.97
985.85	226.99
986.14	227.00
986.43	226.99
986.72	226.99
987.01	226.95
987.30	226.93
987.59	226.95
987.89	226.97
988.18	226.97
988.47	226.96
988.76	226.98
989.05	227.01
989.34	226.98
989.63	227.02
989.92	227.04
990.22	227.02
990.51	227.02
990.80	227.04
991.09	227.06
991.38	227.02
991.67	226.99
991.96	226.95
992.25	226.92
992.54	226.90
992.83	226.88
993.12	226.91
993.41	226.96
993.70	227.02
993.99	227.03
994.28	227.06
994.58	227.08
994.87	227.04
995.16	227.00
995.45	227.00
995.74	226.96
996.03	226.98
996.32	227.02
996.61	227.04
996.90	227.03
997.19	227.05
997.48	227.09
997.77	227.10
998.06	227.11
998.34	227.13
998.63	227.11
998.92	227.13
999.21	227.13
999.50	227.11
999.79	227.06
1000.08	227.06
1000.37	227.06
1000.66	227.06
1000.95	227.09
1001.24	227.11
1001.53	227.13
1001.82	227.14
1002.11	227.10
1002.40	227.09
1002.68	227.13
1002.97	227.21
1003.26	227.20
1003.55	227.18
1003.84	227.19
1004.13	227.26
1004.42	227.23
1004.71	227.26
1004.99	227.24
1005.28	227.25
1005.57	227.25
1005.86	227.22
1006.15	227.22
1006.44	227.19
1006.72	227.18
1007.01	227.17
1007.30	227.16
1007.59	227.15
1007.88	227.13
1008.17	227.12
1008.45	227.10
1008.74	227.04
1009.03	226.99
1009.32	227.00
1009.60	226.98
1009.89	226.96
1010.18	226.88
1010.47	226.91
1010.76	226.92
1011.04	226.92
1011.33	226.94
1011.62	226.91
1011.91	226.94
1012.19	226.93
1012.48	226.93
1012.77	226.91
1013.05	226.96
1013.34	227.00
1013.63	226.98
1013.92	227.02
1014.20	227.03
1014.49	227.05
1014.78	227.07
1015.06	227.04
1015.35	227.01
1015.64	227.03
1015.92	227.03
1016.21	227.04
1016.50	227.04
1016.78	227.04
1017.07	227.05
1017.36	227.01
1017.64	227.00
1017.93	226.97
1018.22	226.95
1018.50	226.94
1018.79	226.95
1019.08	226.86
1019.36	226.83
1019.65	226.83
1019.93	226.83
1020.22	226.85
1020.51	226.90
1020.79	226.86
1021.08	226.54
1021.36	226.65
1021.65	226.74
1021.94	226.20
1022.22	226.81
1022.51	226.96
1022.79	227.16
1023.08	227.26
1023.36	228.09
1023.65	226.56
>>>>>End Processed Spectral Data<<<<<
