SpectraSuite Data File
++++++++++++++++++++++++++++++++++++
Date: Fri Feb 01 16:46:05 EST 2013
User: group
Dark Spectrum Present: No
Reference Spectrum Present: No
Number of Sampled Component Spectra: 1
Spectrometers: USB2E7196
Integration Time (usec): 35000 (USB2E7196)
Spectra Averaged: 100 (USB2E7196)
Boxcar Smoothing: 10 (USB2E7196)
Correct for Electrical Dark: No (USB2E7196)
Strobe/Lamp Enabled: No (USB2E7196)
Correct for Detector Non-linearity: No (USB2E7196)
Correct for Stray Light: No (USB2E7196)
Number of Pixels in Processed Spectrum: 2048
>>>>>Begin Processed Spectral Data<<<<<
339.09	0.00
339.48	213.27
339.86	215.24
340.24	215.98
340.63	218.00
341.01	220.69
341.39	220.31
341.78	222.05
342.16	222.84
342.54	223.12
342.93	211.79
343.31	222.52
343.69	223.08
344.07	223.50
344.46	223.93
344.84	224.29
345.22	224.52
345.60	224.77
345.99	224.96
346.37	225.08
346.75	225.19
347.13	225.29
347.52	225.38
347.90	225.45
348.28	225.45
348.66	225.49
349.05	225.50
349.43	225.56
349.81	225.59
350.19	225.66
350.57	225.70
350.96	225.77
351.34	225.83
351.72	225.89
352.10	226.03
352.48	226.10
352.87	226.16
353.25	226.20
353.63	226.28
354.01	226.30
354.39	226.37
354.77	226.46
355.15	226.57
355.54	226.63
355.92	226.66
356.30	226.76
356.68	226.93
357.06	227.00
357.44	227.04
357.82	227.12
358.20	227.19
358.58	227.25
358.97	227.32
359.35	227.39
359.73	227.47
360.11	227.52
360.49	227.58
360.87	227.61
361.25	227.71
361.63	227.79
362.01	227.87
362.39	227.93
362.77	227.97
363.15	227.98
363.53	227.98
363.91	228.03
364.29	228.05
364.67	227.99
365.05	228.03
365.43	228.05
365.81	228.07
366.19	228.10
366.57	228.16
366.95	228.17
367.33	228.15
367.71	228.14
368.09	228.10
368.47	228.07
368.85	228.06
369.23	228.05
369.61	227.96
369.99	227.93
370.37	227.89
370.75	227.88
371.13	227.83
371.51	227.82
371.89	227.81
372.27	227.77
372.65	227.71
373.03	227.64
373.41	227.57
373.78	227.48
374.16	227.39
374.54	227.29
374.92	227.19
375.30	227.15
375.68	227.08
376.06	227.05
376.44	227.02
376.82	226.97
377.19	226.92
377.57	226.87
377.95	226.77
378.33	226.71
378.71	226.59
379.09	226.54
379.47	226.48
379.84	226.41
380.22	226.33
380.60	226.25
380.98	226.17
381.36	226.14
381.73	226.10
382.11	226.04
382.49	225.95
382.87	225.90
383.25	225.81
383.62	225.84
384.00	225.76
384.38	225.68
384.76	225.67
385.13	225.62
385.51	225.57
385.89	225.53
386.27	225.49
386.64	225.49
387.02	225.42
387.40	225.34
387.78	225.27
388.15	225.22
388.53	225.20
388.91	225.13
389.29	225.05
389.66	225.03
390.04	225.01
390.42	225.04
390.79	225.05
391.17	225.09
391.55	224.96
391.92	224.95
392.30	224.98
392.68	224.92
393.05	224.90
393.43	224.92
393.81	224.93
394.18	224.93
394.56	224.93
394.94	224.96
395.31	224.99
395.69	225.06
396.06	225.13
396.44	225.15
396.82	225.23
397.19	225.35
397.57	225.38
397.95	225.43
398.32	225.43
398.70	225.46
399.07	225.50
399.45	225.56
399.82	225.67
400.20	225.72
400.58	225.82
400.95	225.86
401.33	225.92
401.70	226.05
402.08	226.14
402.45	226.22
402.83	226.33
403.20	226.42
403.58	226.49
403.95	226.59
404.33	226.71
404.71	226.81
405.08	226.96
405.46	227.10
405.83	227.23
406.21	227.39
406.58	227.55
406.96	227.67
407.33	227.85
407.70	228.00
408.08	228.22
408.45	228.44
408.83	228.68
409.20	228.91
409.58	229.10
409.95	229.35
410.33	229.62
410.70	229.88
411.08	230.17
411.45	230.47
411.82	230.79
412.20	231.14
412.57	231.56
412.95	231.84
413.32	232.23
413.69	232.64
414.07	233.07
414.44	233.53
414.82	234.02
415.19	234.59
415.56	235.12
415.94	235.68
416.31	236.31
416.68	236.94
417.06	237.61
417.43	238.27
417.81	239.05
418.18	239.80
418.55	240.62
418.93	241.52
419.30	242.38
419.67	243.29
420.04	244.22
420.42	245.21
420.79	246.36
421.16	247.51
421.54	248.72
421.91	249.92
422.28	251.19
422.66	252.50
423.03	253.74
423.40	255.06
423.77	256.43
424.15	257.82
424.52	259.27
424.89	260.88
425.26	262.41
425.64	263.84
426.01	265.43
426.38	267.08
426.75	268.74
427.13	270.47
427.50	272.27
427.87	274.12
428.24	275.99
428.61	277.78
428.99	279.69
429.36	281.76
429.73	283.76
430.10	285.72
430.47	287.77
430.85	289.87
431.22	292.10
431.59	294.44
431.96	296.71
432.33	299.15
432.70	301.51
433.08	304.29
433.45	306.91
433.82	309.51
434.19	312.33
434.56	315.06
434.93	317.66
435.30	320.24
435.68	323.08
436.05	325.84
436.42	328.57
436.79	331.04
437.16	333.70
437.53	336.52
437.90	339.29
438.27	341.99
438.64	344.77
439.01	347.33
439.38	349.55
439.75	351.65
440.13	354.11
440.50	356.41
440.87	358.26
441.24	360.19
441.61	362.31
441.98	363.79
442.35	365.60
442.72	367.46
443.09	369.26
443.46	370.28
443.83	370.87
444.20	371.42
444.57	372.26
444.94	372.61
445.31	372.96
445.68	373.35
446.05	373.45
446.42	373.13
446.79	372.79
447.16	372.40
447.53	372.11
447.90	371.03
448.27	369.88
448.64	368.35
449.01	367.23
449.37	365.29
449.74	363.45
450.11	361.24
450.48	358.82
450.85	356.36
451.22	354.24
451.59	352.26
451.96	350.30
452.33	347.76
452.70	345.39
453.07	342.61
453.43	339.76
453.80	337.05
454.17	334.37
454.54	331.83
454.91	329.12
455.28	326.50
455.65	324.02
456.02	321.64
456.38	319.55
456.75	316.91
457.12	314.68
457.49	312.48
457.86	310.34
458.23	308.50
458.59	306.47
458.96	304.40
459.33	302.58
459.70	300.72
460.07	299.26
460.43	297.59
460.80	295.99
461.17	294.56
461.54	293.06
461.91	291.66
462.27	290.20
462.64	288.99
463.01	287.62
463.38	286.34
463.74	284.95
464.11	283.73
464.48	282.72
464.85	281.66
465.21	280.80
465.58	279.87
465.95	278.78
466.32	277.87
466.68	277.02
467.05	276.12
467.42	275.28
467.78	274.34
468.15	273.47
468.52	272.77
468.88	271.90
469.25	271.13
469.62	270.53
469.98	269.89
470.35	269.25
470.72	268.65
471.08	268.01
471.45	267.50
471.82	266.97
472.18	266.39
472.55	265.96
472.92	265.43
473.28	264.98
473.65	264.55
474.02	264.11
474.38	263.72
474.75	263.40
475.11	263.04
475.48	262.78
475.85	262.54
476.21	262.35
476.58	262.18
476.94	262.05
477.31	261.89
477.67	261.71
478.04	261.62
478.41	261.58
478.77	261.59
479.14	261.50
479.50	261.51
479.87	261.58
480.23	261.64
480.60	261.72
480.96	261.85
481.33	262.06
481.69	262.28
482.06	262.48
482.42	262.69
482.79	262.96
483.15	263.27
483.52	263.69
483.88	264.06
484.25	264.48
484.61	264.92
484.98	265.35
485.34	265.94
485.71	266.51
486.07	267.16
486.44	267.78
486.80	268.51
487.17	269.27
487.53	270.08
487.90	270.95
488.26	271.93
488.62	272.91
488.99	273.92
489.35	274.97
489.72	276.11
490.08	277.31
490.44	278.62
490.81	279.93
491.17	281.23
491.54	282.72
491.90	284.26
492.26	285.92
492.63	287.69
492.99	289.49
493.36	291.41
493.72	293.45
494.08	295.54
494.45	297.79
494.81	300.17
495.17	302.61
495.54	305.17
495.90	307.86
496.26	310.62
496.63	313.58
496.99	316.72
497.35	319.93
497.72	323.36
498.08	326.85
498.44	330.56
498.80	334.52
499.17	338.56
499.53	342.72
499.89	347.08
500.26	351.60
500.62	356.24
500.98	361.22
501.34	366.29
501.71	371.66
502.07	377.15
502.43	382.70
502.79	388.52
503.16	394.55
503.52	400.80
503.88	407.25
504.24	413.86
504.60	420.73
504.97	427.88
505.33	435.19
505.69	442.86
506.05	450.63
506.41	458.50
506.78	466.60
507.14	475.02
507.50	483.69
507.86	492.69
508.22	501.91
508.59	511.10
508.95	520.61
509.31	530.36
509.67	540.41
510.03	550.73
510.39	561.18
510.75	571.94
511.12	582.79
511.48	594.06
511.84	605.43
512.20	616.84
512.56	628.71
512.92	640.89
513.28	653.20
513.64	665.61
514.00	678.29
514.37	691.13
514.73	704.10
515.09	717.09
515.45	730.24
515.81	743.76
516.17	757.66
516.53	771.72
516.89	785.85
517.25	799.88
517.61	814.20
517.97	828.57
518.33	842.92
518.69	857.58
519.05	872.38
519.41	887.47
519.77	902.80
520.13	918.11
520.49	933.28
520.85	948.46
521.21	964.02
521.57	980.00
521.93	995.60
522.29	1011.88
522.65	1027.94
523.01	1044.00
523.37	1059.84
523.73	1075.81
524.09	1091.82
524.45	1107.92
524.81	1124.39
525.17	1140.90
525.53	1157.72
525.89	1174.36
526.25	1191.14
526.61	1207.42
526.97	1223.91
527.33	1240.31
527.68	1256.74
528.04	1273.04
528.40	1289.48
528.76	1306.33
529.12	1322.88
529.48	1339.66
529.84	1355.44
530.20	1372.03
530.56	1388.85
530.91	1406.05
531.27	1422.64
531.63	1438.91
531.99	1455.23
532.35	1470.98
532.71	1486.75
533.07	1502.72
533.42	1518.63
533.78	1534.38
534.14	1550.36
534.50	1565.55
534.86	1581.27
535.21	1596.38
535.57	1612.11
535.93	1627.42
536.29	1642.06
536.65	1656.90
537.00	1671.52
537.36	1686.77
537.72	1701.04
538.08	1715.45
538.44	1729.09
538.79	1742.83
539.15	1756.23
539.51	1769.90
539.87	1784.08
540.22	1797.62
540.58	1811.37
540.94	1824.49
541.29	1837.25
541.65	1849.82
542.01	1862.91
542.37	1875.12
542.72	1887.30
543.08	1899.12
543.44	1911.39
543.79	1922.46
544.15	1933.32
544.51	1944.71
544.87	1955.48
545.22	1966.19
545.58	1976.29
545.94	1985.92
546.29	1995.66
546.65	2005.42
547.01	2014.61
547.36	2023.24
547.72	2031.81
548.07	2039.47
548.43	2047.35
548.79	2055.32
549.14	2062.82
549.50	2070.06
549.86	2077.62
550.21	2084.89
550.57	2091.86
550.92	2098.42
551.28	2105.50
551.64	2112.48
551.99	2118.99
552.35	2125.17
552.70	2131.36
553.06	2137.14
553.41	2143.45
553.77	2149.45
554.13	2155.54
554.48	2161.59
554.84	2167.17
555.19	2172.25
555.55	2177.50
555.90	2182.14
556.26	2187.02
556.61	2191.67
556.97	2195.96
557.32	2200.05
557.68	2204.21
558.03	2208.46
558.39	2212.05
558.74	2216.70
559.10	2220.60
559.45	2224.17
559.81	2228.41
560.16	2232.10
560.52	2235.62
560.87	2238.98
561.23	2241.68
561.58	2244.57
561.94	2247.23
562.29	2249.57
562.64	2252.33
563.00	2254.65
563.35	2258.13
563.71	2261.02
564.06	2264.32
564.42	2267.29
564.77	2269.98
565.12	2272.24
565.48	2274.28
565.83	2276.25
566.19	2277.60
566.54	2278.53
566.89	2279.77
567.25	2280.49
567.60	2281.77
567.96	2283.45
568.31	2284.47
568.66	2285.83
569.02	2286.49
569.37	2286.77
569.72	2287.67
570.08	2287.86
570.43	2288.24
570.78	2287.75
571.14	2286.53
571.49	2285.25
571.84	2284.98
572.20	2283.94
572.55	2282.98
572.90	2281.42
573.26	2280.26
573.61	2278.52
573.96	2276.99
574.31	2274.04
574.67	2271.09
575.02	2267.71
575.37	2264.28
575.72	2260.65
576.08	2257.06
576.43	2253.84
576.78	2250.34
577.13	2247.21
577.49	2244.20
577.84	2240.85
578.19	2237.26
578.54	2233.71
578.90	2229.58
579.25	2224.01
579.60	2219.06
579.95	2214.10
580.30	2209.11
580.66	2203.93
581.01	2199.26
581.36	2194.40
581.71	2190.46
582.06	2186.15
582.42	2181.82
582.77	2176.76
583.12	2172.23
583.47	2167.77
583.82	2162.84
584.17	2157.64
584.53	2152.15
584.88	2146.78
585.23	2141.12
585.58	2135.67
585.93	2130.26
586.28	2125.49
586.63	2120.66
586.98	2115.71
587.34	2111.01
587.69	2106.34
588.04	2101.29
588.39	2095.60
588.74	2089.10
589.09	2083.05
589.44	2076.25
589.79	2070.23
590.14	2064.69
590.49	2058.18
590.84	2051.72
591.19	2045.92
591.54	2039.64
591.89	2032.63
592.25	2025.83
592.60	2018.62
592.95	2011.25
593.30	2004.03
593.65	1996.69
594.00	1989.66
594.35	1982.48
594.70	1974.66
595.05	1967.60
595.40	1960.31
595.75	1952.97
596.10	1946.99
596.45	1940.31
596.80	1934.32
597.15	1927.79
597.50	1920.81
597.85	1914.41
598.19	1907.98
598.54	1900.83
598.89	1894.14
599.24	1888.19
599.59	1881.71
599.94	1875.64
600.29	1869.34
600.64	1862.78
600.99	1855.47
601.34	1848.81
601.69	1841.98
602.04	1835.20
602.39	1827.87
602.74	1821.17
603.08	1814.53
603.43	1807.77
603.78	1800.54
604.13	1793.42
604.48	1786.15
604.83	1779.24
605.18	1772.43
605.53	1764.61
605.87	1756.72
606.22	1749.62
606.57	1741.88
606.92	1734.50
607.27	1727.35
607.62	1720.51
607.96	1713.44
608.31	1707.00
608.66	1699.50
609.01	1692.02
609.36	1684.55
609.70	1676.56
610.05	1668.57
610.40	1660.90
610.75	1652.61
611.10	1645.11
611.44	1636.61
611.79	1628.69
612.14	1620.12
612.49	1611.05
612.83	1602.56
613.18	1594.50
613.53	1586.39
613.88	1577.81
614.22	1569.53
614.57	1561.05
614.92	1553.01
615.27	1545.45
615.61	1537.04
615.96	1528.97
616.31	1521.34
616.65	1513.97
617.00	1506.37
617.35	1498.65
617.70	1490.33
618.04	1481.99
618.39	1473.63
618.74	1466.16
619.08	1457.92
619.43	1450.35
619.78	1443.37
620.12	1436.31
620.47	1428.83
620.82	1420.70
621.16	1413.31
621.51	1405.71
621.85	1398.00
622.20	1389.36
622.55	1381.03
622.89	1373.17
623.24	1365.51
623.59	1358.05
623.93	1350.60
624.28	1343.52
624.62	1336.01
624.97	1328.87
625.32	1322.03
625.66	1315.13
626.01	1308.02
626.35	1300.56
626.70	1292.86
627.04	1285.22
627.39	1277.40
627.73	1270.04
628.08	1263.16
628.43	1255.96
628.77	1248.58
629.12	1241.01
629.46	1234.04
629.81	1226.60
630.15	1219.40
630.50	1212.00
630.84	1203.86
631.19	1195.89
631.53	1188.32
631.88	1180.78
632.22	1173.21
632.57	1165.92
632.91	1158.33
633.26	1150.80
633.60	1143.45
633.95	1136.26
634.29	1129.17
634.64	1122.51
634.98	1115.16
635.32	1107.94
635.67	1101.24
636.01	1094.74
636.36	1087.97
636.70	1081.37
637.05	1074.83
637.39	1068.38
637.73	1061.91
638.08	1056.11
638.42	1050.12
638.77	1043.78
639.11	1037.25
639.45	1030.82
639.80	1024.08
640.14	1017.73
640.49	1011.26
640.83	1005.00
641.17	998.87
641.52	992.49
641.86	986.03
642.20	980.18
642.55	973.93
642.89	967.46
643.23	960.82
643.58	955.12
643.92	949.06
644.26	943.00
644.61	936.90
644.95	930.95
645.29	924.26
645.64	917.56
645.98	911.22
646.32	905.39
646.66	899.38
647.01	893.65
647.35	887.87
647.69	882.08
648.04	876.53
648.38	870.78
648.72	864.87
649.06	858.79
649.41	852.84
649.75	846.88
650.09	840.93
650.43	835.22
650.78	829.02
651.12	823.01
651.46	817.32
651.80	811.60
652.14	806.19
652.49	800.99
652.83	795.76
653.17	790.03
653.51	784.37
653.85	778.97
654.20	773.35
654.54	767.38
654.88	761.54
655.22	755.67
655.56	749.97
655.90	744.52
656.25	739.36
656.59	734.02
656.93	729.01
657.27	723.85
657.61	718.37
657.95	713.37
658.29	708.30
658.64	703.02
658.98	697.74
659.32	692.27
659.66	687.00
660.00	681.75
660.34	676.78
660.68	671.80
661.02	666.80
661.36	662.08
661.70	657.61
662.05	653.29
662.39	648.98
662.73	644.46
663.07	640.09
663.41	635.62
663.75	631.22
664.09	626.62
664.43	622.29
664.77	618.21
665.11	613.92
665.45	609.75
665.79	605.71
666.13	601.61
666.47	597.55
666.81	593.38
667.15	589.31
667.49	585.44
667.83	581.61
668.17	577.66
668.51	573.62
668.85	569.57
669.19	565.77
669.53	561.92
669.87	558.08
670.21	554.40
670.55	550.78
670.89	547.24
671.23	543.76
671.57	540.21
671.91	536.69
672.25	533.18
672.58	529.69
672.92	526.27
673.26	523.03
673.60	519.86
673.94	516.73
674.28	513.77
674.62	510.81
674.96	507.75
675.30	504.88
675.64	501.88
675.97	499.12
676.31	496.24
676.65	493.33
676.99	490.64
677.33	487.75
677.67	484.96
678.01	481.94
678.34	479.03
678.68	476.17
679.02	473.35
679.36	470.58
679.70	467.88
680.04	465.09
680.37	462.26
680.71	459.44
681.05	456.84
681.39	454.09
681.73	451.43
682.06	448.88
682.40	446.30
682.74	443.80
683.08	441.21
683.42	438.61
683.75	436.07
684.09	433.45
684.43	430.97
684.77	428.48
685.10	426.17
685.44	423.81
685.78	421.51
686.12	419.18
686.45	416.90
686.79	414.60
687.13	412.41
687.46	410.25
687.80	408.10
688.14	405.86
688.48	403.82
688.81	401.60
689.15	399.46
689.49	397.27
689.82	395.24
690.16	393.11
690.50	391.19
690.83	389.27
691.17	387.32
691.51	385.43
691.84	383.54
692.18	381.59
692.52	379.61
692.85	377.65
693.19	375.80
693.52	373.92
693.86	372.10
694.20	370.33
694.53	368.50
694.87	366.67
695.21	364.90
695.54	363.08
695.88	361.36
696.21	359.62
696.55	357.96
696.88	356.26
697.22	354.60
697.56	352.91
697.89	351.24
698.23	349.64
698.56	347.99
698.90	346.43
699.23	344.77
699.57	343.24
699.90	341.74
700.24	340.19
700.58	338.69
700.91	337.21
701.25	335.74
701.58	334.40
701.92	333.07
702.25	331.70
702.59	330.31
702.92	328.95
703.26	327.66
703.59	326.38
703.93	325.18
704.26	323.97
704.60	322.72
704.93	321.43
705.26	320.17
705.60	318.99
705.93	317.83
706.27	316.85
706.60	315.81
706.94	314.75
707.27	313.59
707.61	312.45
707.94	311.40
708.27	310.34
708.61	309.28
708.94	308.23
709.28	307.26
709.61	306.32
709.94	305.42
710.28	304.39
710.61	303.45
710.95	302.36
711.28	301.46
711.61	300.50
711.95	299.62
712.28	298.71
712.61	297.78
712.95	296.82
713.28	295.91
713.61	294.99
713.95	294.05
714.28	293.24
714.61	292.45
714.95	291.60
715.28	290.73
715.61	289.83
715.95	288.99
716.28	288.10
716.61	287.25
716.95	286.42
717.28	285.67
717.61	284.87
717.94	284.15
718.28	283.33
718.61	282.60
718.94	281.91
719.27	281.22
719.61	280.59
719.94	279.94
720.27	279.25
720.60	278.59
720.94	278.00
721.27	277.40
721.60	276.82
721.93	276.24
722.27	275.70
722.60	275.17
722.93	274.60
723.26	274.09
723.59	273.59
723.93	273.01
724.26	272.45
724.59	271.92
724.92	271.45
725.25	270.98
725.59	270.45
725.92	269.93
726.25	269.44
726.58	268.93
726.91	268.48
727.24	267.98
727.57	267.52
727.91	267.03
728.24	266.59
728.57	266.09
728.90	265.60
729.23	265.10
729.56	264.66
729.89	264.19
730.22	263.70
730.55	263.20
730.89	262.74
731.22	262.29
731.55	261.84
731.88	261.36
732.21	260.92
732.54	260.51
732.87	260.08
733.20	259.66
733.53	259.25
733.86	258.85
734.19	258.44
734.52	258.04
734.85	257.70
735.18	257.27
735.51	256.91
735.84	256.57
736.17	256.23
736.50	255.81
736.83	255.59
737.16	255.27
737.49	254.92
737.82	254.59
738.15	254.28
738.48	253.95
738.81	253.63
739.14	253.31
739.47	252.99
739.80	252.70
740.13	252.38
740.46	252.06
740.79	251.75
741.12	251.46
741.45	251.15
741.78	250.79
742.11	250.51
742.44	250.19
742.77	249.87
743.10	249.55
743.43	249.27
743.75	248.86
744.08	248.72
744.41	248.47
744.74	248.23
745.07	247.90
745.40	247.65
745.73	247.42
746.06	247.14
746.39	246.91
746.71	246.60
747.04	246.32
747.37	246.03
747.70	245.77
748.03	245.53
748.36	245.31
748.68	245.11
749.01	244.86
749.34	244.64
749.67	244.44
750.00	244.20
750.33	244.06
750.65	243.87
750.98	243.48
751.31	243.28
751.64	243.04
751.97	242.93
752.29	242.72
752.62	242.47
752.95	242.24
753.28	242.02
753.60	241.84
753.93	241.70
754.26	241.54
754.59	241.32
754.91	241.12
755.24	240.90
755.57	240.68
755.90	240.49
756.22	240.30
756.55	240.05
756.88	239.88
757.20	239.69
757.53	239.50
757.86	239.33
758.19	239.15
758.51	239.00
758.84	238.77
759.17	238.60
759.49	238.47
759.82	238.35
760.15	238.21
760.47	238.07
760.80	237.90
761.13	237.69
761.45	237.52
761.78	237.40
762.11	237.27
762.43	237.09
762.76	236.97
763.08	236.87
763.41	236.77
763.74	236.67
764.06	236.48
764.39	236.34
764.71	236.23
765.04	236.09
765.37	235.94
765.69	235.81
766.02	235.69
766.34	235.57
766.67	235.43
767.00	235.35
767.32	235.28
767.65	235.22
767.97	235.13
768.30	235.05
768.62	234.93
768.95	234.80
769.27	234.75
769.60	234.66
769.92	234.51
770.25	234.37
770.57	234.25
770.90	234.13
771.22	234.01
771.55	233.90
771.87	233.82
772.20	233.72
772.52	233.72
772.85	233.73
773.17	233.63
773.50	233.55
773.82	233.41
774.15	233.28
774.47	233.13
774.80	233.04
775.12	232.95
775.45	232.86
775.77	232.78
776.09	232.69
776.42	232.58
776.74	232.53
777.07	232.51
777.39	232.41
777.72	232.34
778.04	232.27
778.36	232.22
778.69	232.14
779.01	232.08
779.33	231.92
779.66	231.71
779.98	231.60
780.31	231.53
780.63	231.50
780.95	231.48
781.28	231.40
781.60	231.33
781.92	231.26
782.25	231.19
782.57	231.15
782.89	231.07
783.22	231.03
783.54	230.95
783.86	230.84
784.19	230.76
784.51	230.75
784.83	230.68
785.16	230.59
785.48	230.53
785.80	230.46
786.12	230.39
786.45	230.37
786.77	230.34
787.09	230.26
787.42	230.16
787.74	230.07
788.06	230.03
788.38	229.97
788.71	229.92
789.03	229.89
789.35	229.83
789.67	229.77
789.99	229.69
790.32	229.63
790.64	229.60
790.96	229.62
791.28	229.52
791.61	229.49
791.93	229.47
792.25	229.42
792.57	229.46
792.89	229.41
793.21	229.33
793.54	229.27
793.86	229.23
794.18	229.21
794.50	229.15
794.82	229.11
795.14	229.06
795.47	229.05
795.79	228.99
796.11	228.94
796.43	228.90
796.75	228.90
797.07	228.84
797.39	228.85
797.71	228.76
798.04	228.78
798.36	228.74
798.68	228.71
799.00	228.67
799.32	228.58
799.64	228.59
799.96	228.56
800.28	228.54
800.60	228.51
800.92	228.50
801.24	228.48
801.56	228.42
801.89	228.43
802.21	228.40
802.53	228.35
802.85	228.35
803.17	228.36
803.49	228.30
803.81	228.28
804.13	228.22
804.45	228.19
804.77	228.14
805.09	228.14
805.41	228.10
805.73	228.07
806.05	228.01
806.37	227.95
806.69	227.95
807.01	227.90
807.33	227.88
807.65	227.83
807.97	227.86
808.28	227.85
808.60	227.82
808.92	227.77
809.24	227.82
809.56	227.76
809.88	227.70
810.20	227.67
810.52	227.68
810.84	227.64
811.16	227.61
811.48	227.58
811.80	227.58
812.12	227.56
812.43	227.58
812.75	227.57
813.07	227.56
813.39	227.53
813.71	227.51
814.03	227.51
814.35	227.48
814.67	227.44
814.98	227.43
815.30	227.37
815.62	227.35
815.94	227.25
816.26	227.25
816.58	227.23
816.89	227.23
817.21	227.19
817.53	227.20
817.85	227.17
818.17	227.14
818.48	227.07
818.80	227.09
819.12	227.02
819.44	227.02
819.76	226.97
820.07	226.95
820.39	226.94
820.71	226.91
821.03	226.90
821.34	226.82
821.66	226.83
821.98	226.82
822.30	226.79
822.61	226.85
822.93	226.82
823.25	226.80
823.57	226.77
823.88	226.78
824.20	226.77
824.52	226.80
824.83	226.79
825.15	226.78
825.47	226.73
825.79	226.76
826.10	226.71
826.42	226.70
826.74	226.70
827.05	226.70
827.37	226.68
827.69	226.67
828.00	226.67
828.32	226.62
828.64	226.60
828.95	226.65
829.27	226.63
829.58	226.61
829.90	226.62
830.22	226.62
830.53	226.56
830.85	226.56
831.17	226.50
831.48	226.46
831.80	226.44
832.11	226.46
832.43	226.38
832.75	226.39
833.06	226.46
833.38	226.44
833.69	226.40
834.01	226.42
834.32	226.38
834.64	226.37
834.96	226.39
835.27	226.37
835.59	226.33
835.90	226.29
836.22	226.30
836.53	226.24
836.85	226.22
837.16	226.32
837.48	226.29
837.79	226.32
838.11	226.34
838.42	226.32
838.74	226.27
839.05	226.28
839.37	226.26
839.68	226.18
840.00	226.16
840.31	226.19
840.63	226.17
840.94	226.15
841.26	226.16
841.57	226.16
841.88	226.17
842.20	226.17
842.51	226.16
842.83	226.13
843.14	226.22
843.46	226.24
843.77	226.20
844.08	226.20
844.40	226.18
844.71	226.20
845.03	226.22
845.34	226.23
845.65	226.24
845.97	226.24
846.28	226.26
846.60	226.26
846.91	226.23
847.22	226.23
847.54	226.25
847.85	226.26
848.16	226.24
848.48	226.19
848.79	226.21
849.10	226.23
849.42	226.24
849.73	226.14
850.04	226.13
850.36	226.09
850.67	226.12
850.98	226.10
851.30	226.06
851.61	226.05
851.92	226.06
852.23	226.08
852.55	226.06
852.86	226.05
853.17	226.07
853.49	226.07
853.80	226.10
854.11	226.07
854.42	226.05
854.74	226.04
855.05	226.07
855.36	226.03
855.67	226.01
855.99	226.04
856.30	226.18
856.61	226.19
856.92	226.15
857.23	226.15
857.55	226.11
857.86	226.13
858.17	226.14
858.48	226.13
858.79	226.10
859.11	226.10
859.42	226.09
859.73	226.05
860.04	226.03
860.35	226.00
860.66	225.99
860.98	225.99
861.29	225.98
861.60	225.96
861.91	225.97
862.22	225.95
862.53	225.90
862.84	225.74
863.16	225.75
863.47	225.74
863.78	225.71
864.09	225.76
864.40	225.74
864.71	225.72
865.02	225.71
865.33	225.69
865.64	225.65
865.95	225.64
866.27	225.71
866.58	225.68
866.89	225.68
867.20	225.69
867.51	225.67
867.82	225.66
868.13	225.69
868.44	225.66
868.75	225.70
869.06	225.70
869.37	225.72
869.68	225.67
869.99	225.67
870.30	225.69
870.61	225.68
870.92	225.67
871.23	225.66
871.54	225.65
871.85	225.67
872.16	225.70
872.47	225.72
872.78	225.67
873.09	225.72
873.40	225.71
873.71	225.68
874.02	225.70
874.33	225.69
874.64	225.68
874.95	225.71
875.26	225.68
875.56	225.69
875.87	225.70
876.18	225.72
876.49	225.83
876.80	225.79
877.11	225.80
877.42	225.81
877.73	225.81
878.04	225.83
878.35	225.86
878.66	225.87
878.96	225.87
879.27	225.87
879.58	225.84
879.89	225.83
880.20	225.88
880.51	225.89
880.82	225.91
881.12	225.91
881.43	225.87
881.74	225.85
882.05	225.85
882.36	225.84
882.67	225.86
882.97	225.73
883.28	225.74
883.59	225.71
883.90	225.72
884.21	225.73
884.51	225.71
884.82	225.67
885.13	225.65
885.44	225.65
885.74	225.64
886.05	225.65
886.36	225.63
886.67	225.59
886.98	225.61
887.28	225.60
887.59	225.60
887.90	225.58
888.20	225.61
888.51	225.63
888.82	225.63
889.13	225.61
889.43	225.75
889.74	225.74
890.05	225.74
890.35	225.70
890.66	225.67
890.97	225.69
891.28	225.69
891.58	225.68
891.89	225.66
892.20	225.63
892.50	225.63
892.81	225.64
893.12	225.65
893.42	225.59
893.73	225.60
894.04	225.60
894.34	225.59
894.65	225.55
894.95	225.54
895.26	225.51
895.57	225.56
895.87	225.43
896.18	225.41
896.48	225.43
896.79	225.44
897.10	225.47
897.40	225.46
897.71	225.48
898.01	225.46
898.32	225.48
898.63	225.48
898.93	225.47
899.24	225.45
899.54	225.43
899.85	225.42
900.15	225.41
900.46	225.42
900.76	225.43
901.07	225.43
901.38	225.40
901.68	225.40
901.99	225.35
902.29	225.35
902.60	225.38
902.90	225.36
903.21	225.34
903.51	225.33
903.82	225.34
904.12	225.34
904.43	225.34
904.73	225.32
905.03	225.33
905.34	225.43
905.64	225.42
905.95	225.42
906.25	225.42
906.56	225.43
906.86	225.41
907.17	225.36
907.47	225.38
907.77	225.38
908.08	225.37
908.38	225.36
908.69	225.34
908.99	225.36
909.30	225.36
909.60	225.38
909.90	225.38
910.21	225.33
910.51	225.29
910.81	225.30
911.12	225.29
911.42	225.28
911.73	225.21
912.03	225.19
912.33	225.19
912.64	225.19
912.94	225.15
913.24	225.16
913.55	225.21
913.85	225.21
914.15	225.22
914.46	225.23
914.76	225.22
915.06	225.24
915.37	225.19
915.67	225.20
915.97	225.19
916.27	225.19
916.58	225.20
916.88	225.22
917.18	225.20
917.49	225.29
917.79	225.31
918.09	225.27
918.39	225.34
918.70	225.37
919.00	225.37
919.30	225.44
919.60	225.44
919.91	225.44
920.21	225.46
920.51	225.48
920.81	225.48
921.12	225.51
921.42	225.51
921.72	225.54
922.02	225.56
922.32	225.58
922.63	225.59
922.93	225.66
923.23	225.67
923.53	225.69
923.83	225.64
924.13	225.67
924.44	225.70
924.74	225.69
925.04	225.73
925.34	225.74
925.64	225.70
925.94	225.70
926.24	225.74
926.55	225.73
926.85	225.73
927.15	225.77
927.45	225.77
927.75	225.80
928.05	225.84
928.35	225.80
928.65	225.84
928.95	225.84
929.26	225.80
929.56	225.83
929.86	225.83
930.16	225.79
930.46	225.77
930.76	225.79
931.06	225.77
931.36	225.75
931.66	225.77
931.96	225.80
932.26	225.80
932.56	225.73
932.86	225.75
933.16	225.73
933.46	225.67
933.76	225.66
934.06	225.66
934.36	225.67
934.66	225.66
934.96	225.61
935.26	225.60
935.56	225.61
935.86	225.56
936.16	225.54
936.46	225.54
936.76	225.53
937.06	225.49
937.36	225.51
937.66	225.49
937.96	225.48
938.26	225.43
938.56	225.40
938.86	225.43
939.16	225.43
939.46	225.41
939.76	225.45
940.06	225.42
940.35	225.40
940.65	225.33
940.95	225.36
941.25	225.35
941.55	225.35
941.85	225.34
942.15	225.39
942.45	225.42
942.75	225.43
943.04	225.40
943.34	225.43
943.64	225.40
943.94	225.37
944.24	225.39
944.54	225.40
944.84	225.38
945.13	225.37
945.43	225.37
945.73	225.40
946.03	225.39
946.33	225.40
946.62	225.36
946.92	225.39
947.22	225.39
947.52	225.37
947.82	225.37
948.11	225.36
948.41	225.31
948.71	225.29
949.01	225.31
949.31	225.33
949.60	225.32
949.90	225.32
950.20	225.34
950.50	225.31
950.79	225.31
951.09	225.34
951.39	225.33
951.69	225.32
951.98	225.33
952.28	225.32
952.58	225.35
952.87	225.38
953.17	225.38
953.47	225.34
953.76	225.35
954.06	225.35
954.36	225.36
954.66	225.39
954.95	225.42
955.25	225.43
955.55	225.42
955.84	225.39
956.14	225.42
956.44	225.42
956.73	225.42
957.03	225.43
957.32	225.46
957.62	225.46
957.92	225.49
958.21	225.49
958.51	225.63
958.81	225.62
959.10	225.65
959.40	225.66
959.69	225.72
959.99	225.76
960.29	225.74
960.58	225.71
960.88	225.76
961.17	225.72
961.47	225.74
961.76	225.72
962.06	225.73
962.36	225.74
962.65	225.74
962.95	225.75
963.24	225.75
963.54	225.72
963.83	225.76
964.13	225.76
964.42	225.75
964.72	225.69
965.01	225.70
965.31	225.67
965.60	225.67
965.90	225.73
966.19	225.69
966.49	225.73
966.78	225.71
967.08	225.70
967.37	225.70
967.67	225.65
967.96	225.70
968.26	225.68
968.55	225.68
968.85	225.67
969.14	225.68
969.43	225.67
969.73	225.68
970.02	225.63
970.32	225.61
970.61	225.58
970.91	225.51
971.20	225.50
971.49	225.51
971.79	225.52
972.08	225.45
972.38	225.44
972.67	225.42
972.96	225.46
973.26	225.41
973.55	225.47
973.85	225.46
974.14	225.42
974.43	225.43
974.73	225.39
975.02	225.40
975.31	225.38
975.61	225.37
975.90	225.35
976.19	225.34
976.49	225.35
976.78	225.36
977.07	225.32
977.37	225.31
977.66	225.30
977.95	225.28
978.24	225.27
978.54	225.29
978.83	225.27
979.12	225.24
979.42	225.23
979.71	225.21
980.00	225.18
980.29	225.18
980.59	225.14
980.88	225.17
981.17	225.17
981.46	225.15
981.76	225.13
982.05	225.18
982.34	225.18
982.63	225.18
982.93	225.16
983.22	225.21
983.51	225.24
983.80	225.22
984.09	225.22
984.39	225.19
984.68	225.19
984.97	225.20
985.26	225.23
985.55	225.27
985.85	225.23
986.14	225.28
986.43	225.31
986.72	225.33
987.01	225.29
987.30	225.27
987.59	225.28
987.89	225.29
988.18	225.22
988.47	225.23
988.76	225.22
989.05	225.20
989.34	225.18
989.63	225.20
989.92	225.19
990.22	225.14
990.51	225.14
990.80	225.12
991.09	225.12
991.38	225.12
991.67	225.09
991.96	225.07
992.25	225.05
992.54	225.02
992.83	225.03
993.12	225.05
993.41	225.08
993.70	225.12
993.99	225.16
994.28	225.19
994.58	225.23
994.87	225.21
995.16	225.22
995.45	225.22
995.74	225.18
996.03	225.18
996.32	225.25
996.61	225.30
996.90	225.30
997.19	225.28
997.48	225.26
997.77	225.27
998.06	225.28
998.34	225.31
998.63	225.33
998.92	225.35
999.21	225.36
999.50	225.36
999.79	225.33
1000.08	225.31
1000.37	225.32
1000.66	225.28
1000.95	225.31
1001.24	225.29
1001.53	225.33
1001.82	225.33
1002.11	225.31
1002.40	225.29
1002.68	225.33
1002.97	225.39
1003.26	225.42
1003.55	225.39
1003.84	225.37
1004.13	225.42
1004.42	225.41
1004.71	225.41
1004.99	225.38
1005.28	225.40
1005.57	225.38
1005.86	225.36
1006.15	225.36
1006.44	225.33
1006.72	225.33
1007.01	225.36
1007.30	225.38
1007.59	225.35
1007.88	225.38
1008.17	225.40
1008.45	225.39
1008.74	225.33
1009.03	225.30
1009.32	225.27
1009.60	225.32
1009.89	225.35
1010.18	225.28
1010.47	225.23
1010.76	225.21
1011.04	225.22
1011.33	225.21
1011.62	225.24
1011.91	225.27
1012.19	225.30
1012.48	225.28
1012.77	225.30
1013.05	225.30
1013.34	225.30
1013.63	225.28
1013.92	225.24
1014.20	225.22
1014.49	225.23
1014.78	225.24
1015.06	225.22
1015.35	225.25
1015.64	225.22
1015.92	225.21
1016.21	225.24
1016.50	225.27
1016.78	225.31
1017.07	225.32
1017.36	225.27
1017.64	225.27
1017.93	225.30
1018.22	225.26
1018.50	225.31
1018.79	225.30
1019.08	225.28
1019.36	225.28
1019.65	225.31
1019.93	225.37
1020.22	225.38
1020.51	225.42
1020.79	225.39
1021.08	224.92
1021.36	225.73
1021.65	225.29
1021.94	225.70
1022.22	225.32
1022.51	225.38
1022.79	225.91
1023.08	225.14
1023.36	226.25
1023.65	224.83
>>>>>End Processed Spectral Data<<<<<
