SpectraSuite Data File
++++++++++++++++++++++++++++++++++++
Date: Fri Feb 01 14:55:56 EST 2013
User: group
Dark Spectrum Present: No
Reference Spectrum Present: No
Number of Sampled Component Spectra: 1
Spectrometers: USB2E7196
Integration Time (usec): 35000 (USB2E7196)
Spectra Averaged: 100 (USB2E7196)
Boxcar Smoothing: 10 (USB2E7196)
Correct for Electrical Dark: No (USB2E7196)
Strobe/Lamp Enabled: No (USB2E7196)
Correct for Detector Non-linearity: No (USB2E7196)
Correct for Stray Light: No (USB2E7196)
Number of Pixels in Processed Spectrum: 2048
>>>>>Begin Processed Spectral Data<<<<<
339.09	0.00
339.48	215.59
339.86	216.53
340.24	219.00
340.63	219.48
341.01	222.44
341.39	222.26
341.78	223.84
342.16	224.88
342.54	225.50
342.93	213.68
343.31	224.46
343.69	224.98
344.07	225.46
344.46	225.83
344.84	226.19
345.22	226.39
345.60	226.61
345.99	226.77
346.37	226.90
346.75	226.97
347.13	227.07
347.52	227.12
347.90	227.21
348.28	227.22
348.66	227.23
349.05	227.25
349.43	227.29
349.81	227.31
350.19	227.38
350.57	227.45
350.96	227.51
351.34	227.63
351.72	227.72
352.10	227.83
352.48	227.92
352.87	227.97
353.25	228.06
353.63	228.13
354.01	228.21
354.39	228.26
354.77	228.34
355.15	228.44
355.54	228.51
355.92	228.50
356.30	228.58
356.68	228.74
357.06	228.80
357.44	228.84
357.82	228.90
358.20	228.97
358.58	229.02
358.97	229.09
359.35	229.14
359.73	229.22
360.11	229.20
360.49	229.23
360.87	229.31
361.25	229.36
361.63	229.45
362.01	229.51
362.39	229.53
362.77	229.60
363.15	229.60
363.53	229.61
363.91	229.70
364.29	229.76
364.67	229.68
365.05	229.71
365.43	229.74
365.81	229.74
366.19	229.76
366.57	229.78
366.95	229.77
367.33	229.74
367.71	229.71
368.09	229.77
368.47	229.75
368.85	229.71
369.23	229.74
369.61	229.66
369.99	229.64
370.37	229.64
370.75	229.62
371.13	229.58
371.51	229.53
371.89	229.48
372.27	229.41
372.65	229.33
373.03	229.24
373.41	229.17
373.78	229.13
374.16	229.04
374.54	228.93
374.92	228.87
375.30	228.79
375.68	228.70
376.06	228.62
376.44	228.55
376.82	228.49
377.19	228.39
377.57	228.30
377.95	228.21
378.33	228.11
378.71	228.00
379.09	227.92
379.47	227.83
379.84	227.72
380.22	227.61
380.60	227.55
380.98	227.50
381.36	227.41
381.73	227.32
382.11	227.27
382.49	227.19
382.87	227.11
383.25	227.05
383.62	227.09
384.00	227.02
384.38	226.97
384.76	226.91
385.13	226.87
385.51	226.84
385.89	226.72
386.27	226.68
386.64	226.61
387.02	226.53
387.40	226.47
387.78	226.43
388.15	226.40
388.53	226.33
388.91	226.29
389.29	226.27
389.66	226.27
390.04	226.21
390.42	226.21
390.79	226.20
391.17	226.20
391.55	226.08
391.92	226.06
392.30	226.03
392.68	226.02
393.05	226.01
393.43	226.01
393.81	226.06
394.18	226.08
394.56	226.12
394.94	226.19
395.31	226.23
395.69	226.29
396.06	226.35
396.44	226.42
396.82	226.48
397.19	226.56
397.57	226.58
397.95	226.65
398.32	226.67
398.70	226.72
399.07	226.78
399.45	226.85
399.82	226.92
400.20	227.02
400.58	227.08
400.95	227.16
401.33	227.26
401.70	227.41
402.08	227.49
402.45	227.60
402.83	227.73
403.20	227.87
403.58	227.99
403.95	228.12
404.33	228.28
404.71	228.41
405.08	228.60
405.46	228.74
405.83	228.93
406.21	229.13
406.58	229.32
406.96	229.51
407.33	229.68
407.70	229.89
408.08	230.14
408.45	230.40
408.83	230.66
409.20	230.90
409.58	231.11
409.95	231.42
410.33	231.70
410.70	231.95
411.08	232.23
411.45	232.53
411.82	232.84
412.20	233.19
412.57	233.59
412.95	233.91
413.32	234.32
413.69	234.71
414.07	235.14
414.44	235.63
414.82	236.13
415.19	236.71
415.56	237.29
415.94	237.86
416.31	238.49
416.68	239.10
417.06	239.80
417.43	240.51
417.81	241.26
418.18	242.05
418.55	242.93
418.93	243.79
419.30	244.70
419.67	245.64
420.04	246.56
420.42	247.56
420.79	248.74
421.16	249.92
421.54	251.13
421.91	252.35
422.28	253.61
422.66	254.92
423.03	256.21
423.40	257.53
423.77	258.92
424.15	260.34
424.52	261.83
424.89	263.47
425.26	265.01
425.64	266.47
426.01	268.04
426.38	269.66
426.75	271.34
427.13	273.02
427.50	274.85
427.87	276.76
428.24	278.62
428.61	280.36
428.99	282.30
429.36	284.40
429.73	286.47
430.10	288.47
430.47	290.54
430.85	292.66
431.22	294.92
431.59	297.26
431.96	299.51
432.33	302.05
432.70	304.41
433.08	307.22
433.45	309.87
433.82	312.51
434.19	315.40
434.56	318.23
434.93	320.97
435.30	323.53
435.68	326.45
436.05	329.32
436.42	332.13
436.79	334.68
437.16	337.39
437.53	340.21
437.90	343.06
438.27	345.80
438.64	348.66
439.01	351.28
439.38	353.61
439.75	355.78
440.13	358.29
440.50	360.61
440.87	362.40
441.24	364.37
441.61	366.55
441.98	368.07
442.35	369.86
442.72	371.70
443.09	373.53
443.46	374.49
443.83	375.03
444.20	375.50
444.57	376.31
444.94	376.59
445.31	376.94
445.68	377.31
446.05	377.37
446.42	376.98
446.79	376.50
447.16	376.03
447.53	375.70
447.90	374.47
448.27	373.35
448.64	371.83
449.01	370.69
449.37	368.66
449.74	366.72
450.11	364.48
450.48	361.96
450.85	359.43
451.22	357.28
451.59	355.24
451.96	353.31
452.33	350.72
452.70	348.33
453.07	345.49
453.43	342.56
453.80	339.81
454.17	337.17
454.54	334.59
454.91	331.84
455.28	329.19
455.65	326.70
456.02	324.21
456.38	322.01
456.75	319.33
457.12	317.12
457.49	314.90
457.86	312.76
458.23	310.94
458.59	308.89
458.96	306.85
459.33	305.03
459.70	303.19
460.07	301.67
460.43	299.94
460.80	298.34
461.17	296.87
461.54	295.38
461.91	293.91
462.27	292.49
462.64	291.24
463.01	289.83
463.38	288.58
463.74	287.22
464.11	286.06
464.48	285.03
464.85	283.88
465.21	283.02
465.58	282.06
465.95	280.98
466.32	280.07
466.68	279.15
467.05	278.26
467.42	277.35
467.78	276.42
468.15	275.52
468.52	274.82
468.88	273.97
469.25	273.16
469.62	272.54
469.98	271.86
470.35	271.21
470.72	270.63
471.08	269.94
471.45	269.42
471.82	268.86
472.18	268.20
472.55	267.74
472.92	267.18
473.28	266.73
473.65	266.23
474.02	265.80
474.38	265.38
474.75	265.05
475.11	264.66
475.48	264.37
475.85	264.15
476.21	263.89
476.58	263.69
476.94	263.54
477.31	263.34
477.67	263.18
478.04	263.07
478.41	262.99
478.77	263.00
479.14	262.87
479.50	262.88
479.87	262.96
480.23	263.03
480.60	263.07
480.96	263.13
481.33	263.31
481.69	263.48
482.06	263.69
482.42	263.86
482.79	264.14
483.15	264.40
483.52	264.76
483.88	265.10
484.25	265.46
484.61	265.88
484.98	266.32
485.34	266.86
485.71	267.48
486.07	268.07
486.44	268.63
486.80	269.33
487.17	270.04
487.53	270.83
487.90	271.67
488.26	272.59
488.62	273.57
488.99	274.54
489.35	275.54
489.72	276.61
490.08	277.75
490.44	278.96
490.81	280.30
491.17	281.64
491.54	283.13
491.90	284.68
492.26	286.33
492.63	288.03
492.99	289.78
493.36	291.61
493.72	293.63
494.08	295.72
494.45	297.93
494.81	300.25
495.17	302.67
495.54	305.23
495.90	307.94
496.26	310.74
496.63	313.68
496.99	316.76
497.35	320.04
497.72	323.47
498.08	326.96
498.44	330.64
498.80	334.57
499.17	338.60
499.53	342.73
499.89	347.11
500.26	351.59
500.62	356.27
500.98	361.20
501.34	366.27
501.71	371.58
502.07	377.01
502.43	382.62
502.79	388.43
503.16	394.46
503.52	400.68
503.88	407.02
504.24	413.63
504.60	420.54
504.97	427.61
505.33	434.87
505.69	442.54
506.05	450.28
506.41	458.16
506.78	466.29
507.14	474.72
507.50	483.38
507.86	492.40
508.22	501.58
508.59	510.76
508.95	520.32
509.31	530.08
509.67	540.13
510.03	550.41
510.39	560.96
510.75	571.77
511.12	582.70
511.48	593.98
511.84	605.39
512.20	616.85
512.56	628.86
512.92	641.11
513.28	653.46
513.64	665.93
514.00	678.60
514.37	691.44
514.73	704.47
515.09	717.52
515.45	730.87
515.81	744.42
516.17	758.40
516.53	772.46
516.89	786.66
517.25	800.88
517.61	815.34
517.97	829.86
518.33	844.28
518.69	859.07
519.05	874.25
519.41	889.48
519.77	905.12
520.13	920.63
520.49	936.03
520.85	951.44
521.21	967.20
521.57	983.39
521.93	999.33
522.29	1015.77
522.65	1032.16
523.01	1048.34
523.37	1064.46
523.73	1080.70
524.09	1096.99
524.45	1113.35
524.81	1130.09
525.17	1147.04
525.53	1163.99
525.89	1180.97
526.25	1197.89
526.61	1214.18
526.97	1230.97
527.33	1247.52
527.68	1264.16
528.04	1280.65
528.40	1297.35
528.76	1314.49
529.12	1331.23
529.48	1348.17
529.84	1364.28
530.20	1380.88
530.56	1398.06
530.91	1415.53
531.27	1432.36
531.63	1448.84
531.99	1465.49
532.35	1481.56
532.71	1497.48
533.07	1513.69
533.42	1529.55
533.78	1545.71
534.14	1562.11
534.50	1577.44
534.86	1593.41
535.21	1608.61
535.57	1624.71
535.93	1640.20
536.29	1655.20
536.65	1670.39
537.00	1685.25
537.36	1700.71
537.72	1715.36
538.08	1729.88
538.44	1743.72
538.79	1757.79
539.15	1771.63
539.51	1785.51
539.87	1799.93
540.22	1813.79
540.58	1827.67
540.94	1841.33
541.29	1854.38
541.65	1867.11
542.01	1880.60
542.37	1892.92
542.72	1905.47
543.08	1917.40
543.44	1930.06
543.79	1941.24
544.15	1952.32
544.51	1963.81
544.87	1974.81
545.22	1985.69
545.58	1995.95
545.94	2005.73
546.29	2015.54
546.65	2025.36
547.01	2034.60
547.36	2043.32
547.72	2051.72
548.07	2059.64
548.43	2067.72
548.79	2075.73
549.14	2083.13
549.50	2090.50
549.86	2098.25
550.21	2105.52
550.57	2112.64
550.92	2119.15
551.28	2126.09
551.64	2133.21
551.99	2139.78
552.35	2145.80
552.70	2151.85
553.06	2157.67
553.41	2164.13
553.77	2170.13
554.13	2176.18
554.48	2182.33
554.84	2187.78
555.19	2193.18
555.55	2198.24
555.90	2202.77
556.26	2207.51
556.61	2212.30
556.97	2216.29
557.32	2220.31
557.68	2224.46
558.03	2228.65
558.39	2232.47
558.74	2237.12
559.10	2240.70
559.45	2244.21
559.81	2248.61
560.16	2252.38
560.52	2255.67
560.87	2258.99
561.23	2261.47
561.58	2264.28
561.94	2266.69
562.29	2269.08
562.64	2271.59
563.00	2274.27
563.35	2277.64
563.71	2280.76
564.06	2283.94
564.42	2286.90
564.77	2289.42
565.12	2291.47
565.48	2293.14
565.83	2294.60
566.19	2295.82
566.54	2296.68
566.89	2297.87
567.25	2298.23
567.60	2299.52
567.96	2300.87
568.31	2301.64
568.66	2302.68
569.02	2303.10
569.37	2303.24
569.72	2303.80
570.08	2303.66
570.43	2303.54
570.78	2302.58
571.14	2300.87
571.49	2299.26
571.84	2298.63
572.20	2297.11
572.55	2295.82
572.90	2294.17
573.26	2292.74
573.61	2290.76
573.96	2288.83
574.31	2285.68
574.67	2282.47
575.02	2278.54
575.37	2275.04
575.72	2270.83
576.08	2267.48
576.43	2264.06
576.78	2260.13
577.13	2256.87
577.49	2253.66
577.84	2249.96
578.19	2246.19
578.54	2242.28
578.90	2237.92
579.25	2232.39
579.60	2227.40
579.95	2222.41
580.30	2217.27
580.66	2211.91
581.01	2206.84
581.36	2201.69
581.71	2197.30
582.06	2192.75
582.42	2188.05
582.77	2182.78
583.12	2178.18
583.47	2173.04
583.82	2167.87
584.17	2162.47
584.53	2156.70
584.88	2151.01
585.23	2144.98
585.58	2139.41
585.93	2133.96
586.28	2129.09
586.63	2123.77
586.98	2118.47
587.34	2113.67
587.69	2108.72
588.04	2103.33
588.39	2097.61
588.74	2091.20
589.09	2084.89
589.44	2078.00
589.79	2072.00
590.14	2066.30
590.49	2059.69
590.84	2053.24
591.19	2047.16
591.54	2040.73
591.89	2033.26
592.25	2026.36
592.60	2019.09
592.95	2011.32
593.30	2003.79
593.65	1996.13
594.00	1989.00
594.35	1981.70
594.70	1973.51
595.05	1966.11
595.40	1958.77
595.75	1951.16
596.10	1944.72
596.45	1937.76
596.80	1931.47
597.15	1924.72
597.50	1917.34
597.85	1910.80
598.19	1904.14
598.54	1896.94
598.89	1890.33
599.24	1884.30
599.59	1877.50
599.94	1871.27
600.29	1864.91
600.64	1858.31
600.99	1850.76
601.34	1843.74
601.69	1836.82
602.04	1829.77
602.39	1822.38
602.74	1815.51
603.08	1808.83
603.43	1802.17
603.78	1794.97
604.13	1787.65
604.48	1780.33
604.83	1773.54
605.18	1766.41
605.53	1758.34
605.87	1750.27
606.22	1743.01
606.57	1735.18
606.92	1727.88
607.27	1720.61
607.62	1713.78
607.96	1706.45
608.31	1699.89
608.66	1692.33
609.01	1684.70
609.36	1677.26
609.70	1669.19
610.05	1661.15
610.40	1653.45
610.75	1645.17
611.10	1637.50
611.44	1629.29
611.79	1621.32
612.14	1612.58
612.49	1603.66
612.83	1595.37
613.18	1587.32
613.53	1579.23
613.88	1570.64
614.22	1562.44
614.57	1553.99
614.92	1545.92
615.27	1538.24
615.61	1529.97
615.96	1522.00
616.31	1514.46
616.65	1507.11
617.00	1499.68
617.35	1491.98
617.70	1483.63
618.04	1475.07
618.39	1466.93
618.74	1459.23
619.08	1450.97
619.43	1443.55
619.78	1436.62
620.12	1429.52
620.47	1421.96
620.82	1413.87
621.16	1406.63
621.51	1399.01
621.85	1391.35
622.20	1382.82
622.55	1374.70
622.89	1366.83
623.24	1359.40
623.59	1352.07
623.93	1344.52
624.28	1337.39
624.62	1329.92
624.97	1322.83
625.32	1316.12
625.66	1309.10
626.01	1302.00
626.35	1294.59
626.70	1287.01
627.04	1279.31
627.39	1271.56
627.73	1264.31
628.08	1257.36
628.43	1250.09
628.77	1242.65
629.12	1235.09
629.46	1228.07
629.81	1220.76
630.15	1213.64
630.50	1206.20
630.84	1198.05
631.19	1190.25
631.53	1182.73
631.88	1175.25
632.22	1167.67
632.57	1160.43
632.91	1152.98
633.26	1145.74
633.60	1138.54
633.95	1131.49
634.29	1124.53
634.64	1117.96
634.98	1110.53
635.32	1103.52
635.67	1097.02
636.01	1090.57
636.36	1083.94
636.70	1077.52
637.05	1071.03
637.39	1064.63
637.73	1058.19
638.08	1052.35
638.42	1046.43
638.77	1040.10
639.11	1033.52
639.45	1027.26
639.80	1020.63
640.14	1014.23
640.49	1007.67
640.83	1001.34
641.17	995.06
641.52	988.82
641.86	982.41
642.20	976.72
642.55	970.45
642.89	963.92
643.23	957.45
643.58	951.70
643.92	945.43
644.26	939.25
644.61	933.25
644.95	927.25
645.29	920.64
645.64	913.96
645.98	907.61
646.32	901.92
646.66	895.83
647.01	890.06
647.35	884.51
647.69	878.79
648.04	873.36
648.38	867.57
648.72	861.55
649.06	855.61
649.41	849.75
649.75	843.80
650.09	837.84
650.43	832.04
650.78	825.89
651.12	819.97
651.46	814.31
651.80	808.56
652.14	803.25
652.49	798.00
652.83	792.80
653.17	787.07
653.51	781.30
653.85	775.90
654.20	770.27
654.54	764.20
654.88	758.45
655.22	752.57
655.56	746.93
655.90	741.47
656.25	736.17
656.59	730.84
656.93	725.70
657.27	720.55
657.61	715.16
657.95	710.12
658.29	705.09
658.64	699.94
658.98	694.73
659.32	689.25
659.66	684.12
660.00	678.81
660.34	674.01
660.68	669.15
661.02	664.23
661.36	659.66
661.70	655.24
662.05	650.86
662.39	646.56
662.73	642.09
663.07	637.77
663.41	633.33
663.75	628.86
664.09	624.34
664.43	620.07
664.77	615.92
665.11	611.68
665.45	607.60
665.79	603.55
666.13	599.37
666.47	595.31
666.81	591.09
667.15	587.08
667.49	583.26
667.83	579.49
668.17	575.58
668.51	571.51
668.85	567.52
669.19	563.74
669.53	559.93
669.87	556.12
670.21	552.45
670.55	548.84
670.89	545.49
671.23	542.11
671.57	538.65
671.91	535.19
672.25	531.78
672.58	528.27
672.92	524.87
673.26	521.77
673.60	518.72
673.94	515.70
674.28	512.77
674.62	509.85
674.96	506.80
675.30	503.90
675.64	501.02
675.97	498.31
676.31	495.50
676.65	492.62
676.99	489.93
677.33	487.08
677.67	484.31
678.01	481.21
678.34	478.23
678.68	475.42
679.02	472.68
679.36	469.94
679.70	467.27
680.04	464.54
680.37	461.70
680.71	458.92
681.05	456.39
681.39	453.76
681.73	451.14
682.06	448.60
682.40	446.10
682.74	443.58
683.08	441.02
683.42	438.48
683.75	436.02
684.09	433.51
684.43	431.18
684.77	428.78
685.10	426.51
685.44	424.31
685.78	422.04
686.12	419.79
686.45	417.56
686.79	415.28
687.13	413.15
687.46	411.01
687.80	408.89
688.14	406.65
688.48	404.62
688.81	402.36
689.15	400.24
689.49	398.11
689.82	396.03
690.16	394.00
690.50	392.00
690.83	390.02
691.17	388.09
691.51	386.13
691.84	384.26
692.18	382.32
692.52	380.27
692.85	378.33
693.19	376.44
693.52	374.58
693.86	372.82
694.20	371.04
694.53	369.27
694.87	367.40
695.21	365.64
695.54	363.79
695.88	362.04
696.21	360.28
696.55	358.60
696.88	356.92
697.22	355.26
697.56	353.70
697.89	352.06
698.23	350.46
698.56	348.85
698.90	347.25
699.23	345.63
699.57	344.13
699.90	342.61
700.24	341.11
700.58	339.57
700.91	338.06
701.25	336.59
701.58	335.21
701.92	333.86
702.25	332.46
702.59	331.09
702.92	329.82
703.26	328.57
703.59	327.29
703.93	326.14
704.26	324.92
704.60	323.57
704.93	322.33
705.26	321.08
705.60	319.92
705.93	318.78
706.27	317.76
706.60	316.68
706.94	315.62
707.27	314.45
707.61	313.41
707.94	312.42
708.27	311.35
708.61	310.29
708.94	309.30
709.28	308.33
709.61	307.42
709.94	306.42
710.28	305.38
710.61	304.46
710.95	303.39
711.28	302.47
711.61	301.56
711.95	300.61
712.28	299.69
712.61	298.75
712.95	297.84
713.28	296.98
713.61	296.14
713.95	295.23
714.28	294.41
714.61	293.57
714.95	292.68
715.28	291.85
715.61	291.01
715.95	290.14
716.28	289.33
716.61	288.51
716.95	287.77
717.28	287.09
717.61	286.32
717.94	285.60
718.28	284.80
718.61	284.09
718.94	283.45
719.27	282.79
719.61	282.15
719.94	281.49
720.27	280.81
720.60	280.14
720.94	279.54
721.27	278.97
721.60	278.40
721.93	277.82
722.27	277.27
722.60	276.74
722.93	276.16
723.26	275.61
723.59	275.06
723.93	274.51
724.26	273.93
724.59	273.37
724.92	272.86
725.25	272.39
725.59	271.87
725.92	271.35
726.25	270.84
726.58	270.33
726.91	269.85
727.24	269.36
727.57	268.89
727.91	268.40
728.24	267.93
728.57	267.44
728.90	266.97
729.23	266.51
729.56	266.02
729.89	265.61
730.22	265.09
730.55	264.63
730.89	264.18
731.22	263.74
731.55	263.29
731.88	262.87
732.21	262.43
732.54	261.99
732.87	261.57
733.20	261.17
733.53	260.80
733.86	260.41
734.19	260.02
734.52	259.64
734.85	259.30
735.18	258.90
735.51	258.54
735.84	258.18
736.17	257.86
736.50	257.46
736.83	257.21
737.16	256.90
737.49	256.55
737.82	256.21
738.15	255.88
738.48	255.57
738.81	255.23
739.14	254.88
739.47	254.56
739.80	254.25
740.13	253.93
740.46	253.59
740.79	253.25
741.12	252.96
741.45	252.65
741.78	252.32
742.11	252.04
742.44	251.74
742.77	251.46
743.10	251.09
743.43	250.80
743.75	250.41
744.08	250.28
744.41	250.00
744.74	249.70
745.07	249.42
745.40	249.19
745.73	248.96
746.06	248.68
746.39	248.44
746.71	248.17
747.04	247.90
747.37	247.64
747.70	247.43
748.03	247.16
748.36	246.91
748.68	246.66
749.01	246.38
749.34	246.13
749.67	245.88
750.00	245.70
750.33	245.56
750.65	245.35
750.98	245.00
751.31	244.81
751.64	244.64
751.97	244.45
752.29	244.24
752.62	244.04
752.95	243.84
753.28	243.62
753.60	243.45
753.93	243.29
754.26	243.09
754.59	242.85
754.91	242.63
755.24	242.44
755.57	242.23
755.90	242.06
756.22	241.90
756.55	241.74
756.88	241.54
757.20	241.30
757.53	241.13
757.86	240.96
758.19	240.80
758.51	240.62
758.84	240.41
759.17	240.24
759.49	240.06
759.82	239.95
760.15	239.81
760.47	239.64
760.80	239.48
761.13	239.37
761.45	239.20
761.78	239.06
762.11	238.94
762.43	238.85
762.76	238.71
763.08	238.56
763.41	238.41
763.74	238.27
764.06	238.12
764.39	237.96
764.71	237.85
765.04	237.66
765.37	237.54
765.69	237.44
766.02	237.29
766.34	237.15
766.67	236.99
767.00	236.90
767.32	236.82
767.65	236.77
767.97	236.66
768.30	236.59
768.62	236.50
768.95	236.35
769.27	236.25
769.60	236.15
769.92	236.01
770.25	235.88
770.57	235.77
770.90	235.71
771.22	235.62
771.55	235.52
771.87	235.47
772.20	235.37
772.52	235.34
772.85	235.38
773.17	235.35
773.50	235.26
773.82	235.12
774.15	235.01
774.47	234.84
774.80	234.75
775.12	234.65
775.45	234.55
775.77	234.50
776.09	234.42
776.42	234.36
776.74	234.33
777.07	234.25
777.39	234.19
777.72	234.11
778.04	234.05
778.36	233.97
778.69	233.90
779.01	233.83
779.33	233.67
779.66	233.47
779.98	233.38
780.31	233.35
780.63	233.34
780.95	233.31
781.28	233.20
781.60	233.13
781.92	233.09
782.25	233.03
782.57	232.97
782.89	232.91
783.22	232.83
783.54	232.79
783.86	232.73
784.19	232.66
784.51	232.62
784.83	232.54
785.16	232.47
785.48	232.44
785.80	232.39
786.12	232.35
786.45	232.30
786.77	232.24
787.09	232.17
787.42	232.06
787.74	232.00
788.06	231.99
788.38	231.94
788.71	231.88
789.03	231.84
789.35	231.81
789.67	231.76
789.99	231.73
790.32	231.67
790.64	231.63
790.96	231.66
791.28	231.58
791.61	231.56
791.93	231.53
792.25	231.48
792.57	231.51
792.89	231.43
793.21	231.39
793.54	231.30
793.86	231.24
794.18	231.20
794.50	231.14
794.82	231.10
795.14	231.08
795.47	231.04
795.79	231.00
796.11	230.90
796.43	230.83
796.75	230.76
797.07	230.73
797.39	230.70
797.71	230.59
798.04	230.56
798.36	230.50
798.68	230.44
799.00	230.39
799.32	230.30
799.64	230.29
799.96	230.25
800.28	230.25
800.60	230.21
800.92	230.21
801.24	230.17
801.56	230.13
801.89	230.07
802.21	230.05
802.53	230.00
802.85	230.01
803.17	230.02
803.49	229.98
803.81	229.95
804.13	229.93
804.45	229.89
804.77	229.88
805.09	229.86
805.41	229.85
805.73	229.83
806.05	229.76
806.37	229.74
806.69	229.71
807.01	229.69
807.33	229.67
807.65	229.58
807.97	229.60
808.28	229.56
808.60	229.54
808.92	229.49
809.24	229.51
809.56	229.47
809.88	229.41
810.20	229.39
810.52	229.36
810.84	229.29
811.16	229.26
811.48	229.24
811.80	229.27
812.12	229.22
812.43	229.19
812.75	229.15
813.07	229.13
813.39	229.12
813.71	229.07
814.03	229.04
814.35	229.06
814.67	228.99
814.98	229.00
815.30	228.98
815.62	228.94
815.94	228.88
816.26	228.93
816.58	228.89
816.89	228.88
817.21	228.83
817.53	228.86
817.85	228.83
818.17	228.80
818.48	228.71
818.80	228.77
819.12	228.75
819.44	228.73
819.76	228.69
820.07	228.66
820.39	228.65
820.71	228.65
821.03	228.63
821.34	228.62
821.66	228.60
821.98	228.60
822.30	228.59
822.61	228.64
822.93	228.56
823.25	228.58
823.57	228.57
823.88	228.60
824.20	228.58
824.52	228.61
824.83	228.63
825.15	228.60
825.47	228.54
825.79	228.53
826.10	228.56
826.42	228.56
826.74	228.59
827.05	228.59
827.37	228.60
827.69	228.61
828.00	228.62
828.32	228.63
828.64	228.61
828.95	228.67
829.27	228.65
829.58	228.61
829.90	228.64
830.22	228.67
830.53	228.60
830.85	228.60
831.17	228.58
831.48	228.53
831.80	228.55
832.11	228.54
832.43	228.55
832.75	228.50
833.06	228.58
833.38	228.52
833.69	228.49
834.01	228.48
834.32	228.44
834.64	228.41
834.96	228.39
835.27	228.36
835.59	228.32
835.90	228.32
836.22	228.37
836.53	228.33
836.85	228.30
837.16	228.44
837.48	228.44
837.79	228.43
838.11	228.43
838.42	228.44
838.74	228.48
839.05	228.46
839.37	228.47
839.68	228.40
840.00	228.41
840.31	228.42
840.63	228.36
840.94	228.36
841.26	228.35
841.57	228.35
841.88	228.37
842.20	228.35
842.51	228.31
842.83	228.30
843.14	228.35
843.46	228.34
843.77	228.29
844.08	228.26
844.40	228.24
844.71	228.22
845.03	228.19
845.34	228.16
845.65	228.12
845.97	228.10
846.28	228.08
846.60	228.09
846.91	228.08
847.22	228.10
847.54	228.12
847.85	228.12
848.16	228.08
848.48	228.08
848.79	228.10
849.10	228.10
849.42	228.09
849.73	227.98
850.04	227.96
850.36	227.89
850.67	227.90
850.98	227.91
851.30	227.90
851.61	227.89
851.92	227.87
852.23	227.90
852.55	227.92
852.86	227.91
853.17	227.92
853.49	227.92
853.80	227.93
854.11	227.91
854.42	227.90
854.74	227.90
855.05	227.88
855.36	227.82
855.67	227.81
855.99	227.81
856.30	227.93
856.61	227.92
856.92	227.92
857.23	227.90
857.55	227.89
857.86	227.90
858.17	227.92
858.48	227.89
858.79	227.88
859.11	227.84
859.42	227.83
859.73	227.82
860.04	227.84
860.35	227.82
860.66	227.80
860.98	227.81
861.29	227.84
861.60	227.84
861.91	227.85
862.22	227.86
862.53	227.81
862.84	227.70
863.16	227.72
863.47	227.70
863.78	227.72
864.09	227.71
864.40	227.70
864.71	227.67
865.02	227.73
865.33	227.69
865.64	227.69
865.95	227.68
866.27	227.73
866.58	227.71
866.89	227.72
867.20	227.73
867.51	227.71
867.82	227.71
868.13	227.74
868.44	227.72
868.75	227.71
869.06	227.72
869.37	227.71
869.68	227.67
869.99	227.70
870.30	227.70
870.61	227.71
870.92	227.71
871.23	227.73
871.54	227.72
871.85	227.75
872.16	227.77
872.47	227.79
872.78	227.74
873.09	227.73
873.40	227.72
873.71	227.73
874.02	227.73
874.33	227.71
874.64	227.67
874.95	227.71
875.26	227.73
875.56	227.73
875.87	227.76
876.18	227.76
876.49	227.86
876.80	227.81
877.11	227.81
877.42	227.80
877.73	227.81
878.04	227.80
878.35	227.81
878.66	227.79
878.96	227.77
879.27	227.73
879.58	227.73
879.89	227.73
880.20	227.76
880.51	227.76
880.82	227.74
881.12	227.75
881.43	227.74
881.74	227.74
882.05	227.73
882.36	227.74
882.67	227.75
882.97	227.65
883.28	227.63
883.59	227.64
883.90	227.67
884.21	227.65
884.51	227.62
884.82	227.62
885.13	227.63
885.44	227.61
885.74	227.64
886.05	227.64
886.36	227.62
886.67	227.55
886.98	227.60
887.28	227.62
887.59	227.60
887.90	227.55
888.20	227.52
888.51	227.56
888.82	227.55
889.13	227.54
889.43	227.60
889.74	227.62
890.05	227.56
890.35	227.53
890.66	227.52
890.97	227.50
891.28	227.50
891.58	227.45
891.89	227.45
892.20	227.41
892.50	227.39
892.81	227.41
893.12	227.41
893.42	227.32
893.73	227.31
894.04	227.31
894.34	227.33
894.65	227.35
894.95	227.29
895.26	227.28
895.57	227.32
895.87	227.25
896.18	227.24
896.48	227.28
896.79	227.31
897.10	227.34
897.40	227.33
897.71	227.33
898.01	227.37
898.32	227.39
898.63	227.39
898.93	227.37
899.24	227.36
899.54	227.36
899.85	227.36
900.15	227.36
900.46	227.36
900.76	227.36
901.07	227.29
901.38	227.32
901.68	227.34
901.99	227.28
902.29	227.27
902.60	227.29
902.90	227.27
903.21	227.25
903.51	227.24
903.82	227.25
904.12	227.25
904.43	227.24
904.73	227.23
905.03	227.27
905.34	227.38
905.64	227.35
905.95	227.33
906.25	227.36
906.56	227.36
906.86	227.35
907.17	227.35
907.47	227.39
907.77	227.38
908.08	227.34
908.38	227.33
908.69	227.34
908.99	227.35
909.30	227.36
909.60	227.37
909.90	227.38
910.21	227.36
910.51	227.36
910.81	227.37
911.12	227.36
911.42	227.34
911.73	227.24
912.03	227.25
912.33	227.32
912.64	227.31
912.94	227.31
913.24	227.29
913.55	227.27
913.85	227.27
914.15	227.27
914.46	227.31
914.76	227.32
915.06	227.30
915.37	227.29
915.67	227.31
915.97	227.29
916.27	227.25
916.58	227.29
916.88	227.28
917.18	227.25
917.49	227.36
917.79	227.36
918.09	227.39
918.39	227.43
918.70	227.41
919.00	227.42
919.30	227.46
919.60	227.48
919.91	227.50
920.21	227.51
920.51	227.49
920.81	227.47
921.12	227.52
921.42	227.56
921.72	227.55
922.02	227.55
922.32	227.59
922.63	227.64
922.93	227.68
923.23	227.69
923.53	227.70
923.83	227.62
924.13	227.62
924.44	227.62
924.74	227.63
925.04	227.65
925.34	227.66
925.64	227.60
925.94	227.60
926.24	227.62
926.55	227.64
926.85	227.64
927.15	227.67
927.45	227.64
927.75	227.61
928.05	227.60
928.35	227.58
928.65	227.54
928.95	227.50
929.26	227.44
929.56	227.47
929.86	227.45
930.16	227.40
930.46	227.39
930.76	227.38
931.06	227.30
931.36	227.28
931.66	227.27
931.96	227.30
932.26	227.32
932.56	227.30
932.86	227.25
933.16	227.26
933.46	227.23
933.76	227.22
934.06	227.24
934.36	227.28
934.66	227.27
934.96	227.28
935.26	227.30
935.56	227.31
935.86	227.26
936.16	227.25
936.46	227.28
936.76	227.26
937.06	227.25
937.36	227.25
937.66	227.26
937.96	227.26
938.26	227.23
938.56	227.18
938.86	227.15
939.16	227.20
939.46	227.23
939.76	227.25
940.06	227.23
940.35	227.21
940.65	227.15
940.95	227.15
941.25	227.15
941.55	227.15
941.85	227.13
942.15	227.17
942.45	227.21
942.75	227.21
943.04	227.21
943.34	227.26
943.64	227.26
943.94	227.23
944.24	227.21
944.54	227.21
944.84	227.24
945.13	227.24
945.43	227.22
945.73	227.20
946.03	227.17
946.33	227.16
946.62	227.18
946.92	227.20
947.22	227.21
947.52	227.21
947.82	227.20
948.11	227.22
948.41	227.19
948.71	227.15
949.01	227.15
949.31	227.18
949.60	227.14
949.90	227.21
950.20	227.23
950.50	227.26
950.79	227.27
951.09	227.25
951.39	227.25
951.69	227.26
951.98	227.27
952.28	227.29
952.58	227.28
952.87	227.29
953.17	227.27
953.47	227.27
953.76	227.26
954.06	227.25
954.36	227.22
954.66	227.25
954.95	227.29
955.25	227.28
955.55	227.27
955.84	227.25
956.14	227.22
956.44	227.20
956.73	227.15
957.03	227.15
957.32	227.15
957.62	227.13
957.92	227.14
958.21	227.11
958.51	227.21
958.81	227.24
959.10	227.22
959.40	227.26
959.69	227.26
959.99	227.29
960.29	227.30
960.58	227.29
960.88	227.34
961.17	227.33
961.47	227.36
961.76	227.32
962.06	227.35
962.36	227.35
962.65	227.32
962.95	227.33
963.24	227.32
963.54	227.31
963.83	227.35
964.13	227.35
964.42	227.35
964.72	227.26
965.01	227.26
965.31	227.26
965.60	227.23
965.90	227.27
966.19	227.25
966.49	227.26
966.78	227.25
967.08	227.21
967.37	227.18
967.67	227.14
967.96	227.20
968.26	227.19
968.55	227.23
968.85	227.25
969.14	227.27
969.43	227.27
969.73	227.28
970.02	227.28
970.32	227.25
970.61	227.24
970.91	227.22
971.20	227.19
971.49	227.20
971.79	227.23
972.08	227.16
972.38	227.12
972.67	227.09
972.96	227.11
973.26	227.10
973.55	227.17
973.85	227.17
974.14	227.13
974.43	227.13
974.73	227.08
975.02	227.07
975.31	227.05
975.61	227.07
975.90	227.04
976.19	227.01
976.49	227.02
976.78	227.02
977.07	227.03
977.37	227.05
977.66	227.03
977.95	227.00
978.24	227.04
978.54	227.11
978.83	227.10
979.12	227.10
979.42	227.09
979.71	227.03
980.00	227.02
980.29	227.02
980.59	226.99
980.88	227.03
981.17	227.01
981.46	226.99
981.76	226.98
982.05	227.05
982.34	227.08
982.63	227.09
982.93	227.08
983.22	227.09
983.51	227.09
983.80	227.12
984.09	227.12
984.39	227.08
984.68	227.05
984.97	227.06
985.26	227.07
985.55	227.09
985.85	227.10
986.14	227.14
986.43	227.18
986.72	227.17
987.01	227.12
987.30	227.13
987.59	227.16
987.89	227.17
988.18	227.10
988.47	227.10
988.76	227.09
989.05	227.11
989.34	227.11
989.63	227.14
989.92	227.12
990.22	227.12
990.51	227.12
990.80	227.13
991.09	227.15
991.38	227.17
991.67	227.18
991.96	227.20
992.25	227.19
992.54	227.15
992.83	227.20
993.12	227.23
993.41	227.26
993.70	227.32
993.99	227.33
994.28	227.34
994.58	227.35
994.87	227.32
995.16	227.31
995.45	227.29
995.74	227.27
996.03	227.30
996.32	227.33
996.61	227.35
996.90	227.35
997.19	227.33
997.48	227.34
997.77	227.33
998.06	227.29
998.34	227.30
998.63	227.34
998.92	227.32
999.21	227.32
999.50	227.32
999.79	227.28
1000.08	227.28
1000.37	227.30
1000.66	227.27
1000.95	227.33
1001.24	227.35
1001.53	227.38
1001.82	227.33
1002.11	227.31
1002.40	227.28
1002.68	227.31
1002.97	227.36
1003.26	227.35
1003.55	227.31
1003.84	227.29
1004.13	227.35
1004.42	227.35
1004.71	227.34
1004.99	227.34
1005.28	227.33
1005.57	227.36
1005.86	227.31
1006.15	227.30
1006.44	227.26
1006.72	227.24
1007.01	227.22
1007.30	227.23
1007.59	227.21
1007.88	227.25
1008.17	227.24
1008.45	227.23
1008.74	227.21
1009.03	227.17
1009.32	227.17
1009.60	227.21
1009.89	227.22
1010.18	227.15
1010.47	227.14
1010.76	227.12
1011.04	227.08
1011.33	227.11
1011.62	227.08
1011.91	227.13
1012.19	227.15
1012.48	227.15
1012.77	227.21
1013.05	227.24
1013.34	227.24
1013.63	227.22
1013.92	227.21
1014.20	227.23
1014.49	227.22
1014.78	227.20
1015.06	227.15
1015.35	227.17
1015.64	227.15
1015.92	227.14
1016.21	227.14
1016.50	227.13
1016.78	227.15
1017.07	227.17
1017.36	227.14
1017.64	227.15
1017.93	227.16
1018.22	227.15
1018.50	227.20
1018.79	227.18
1019.08	227.16
1019.36	227.12
1019.65	227.12
1019.93	227.13
1020.22	227.16
1020.51	227.20
1020.79	227.18
1021.08	227.10
1021.36	227.35
1021.65	227.36
1021.94	227.41
1022.22	226.64
1022.51	226.79
1022.79	227.31
1023.08	227.87
1023.36	228.11
1023.65	226.35
>>>>>End Processed Spectral Data<<<<<
