SpectraSuite Data File
++++++++++++++++++++++++++++++++++++
Date: Fri Feb 01 15:49:44 EST 2013
User: group
Dark Spectrum Present: No
Reference Spectrum Present: No
Number of Sampled Component Spectra: 1
Spectrometers: USB2E7196
Integration Time (usec): 35000 (USB2E7196)
Spectra Averaged: 100 (USB2E7196)
Boxcar Smoothing: 10 (USB2E7196)
Correct for Electrical Dark: No (USB2E7196)
Strobe/Lamp Enabled: No (USB2E7196)
Correct for Detector Non-linearity: No (USB2E7196)
Correct for Stray Light: No (USB2E7196)
Number of Pixels in Processed Spectrum: 2048
>>>>>Begin Processed Spectral Data<<<<<
339.09	0.00
339.48	215.04
339.86	216.16
340.24	217.08
340.63	219.11
341.01	221.85
341.39	222.00
341.78	223.22
342.16	224.39
342.54	225.03
342.93	213.03
343.31	223.79
343.69	224.29
344.07	224.78
344.46	225.24
344.84	225.60
345.22	225.81
345.60	226.02
345.99	226.20
346.37	226.29
346.75	226.36
347.13	226.44
347.52	226.46
347.90	226.55
348.28	226.59
348.66	226.64
349.05	226.67
349.43	226.74
349.81	226.80
350.19	226.87
350.57	226.92
350.96	227.02
351.34	227.11
351.72	227.22
352.10	227.31
352.48	227.39
352.87	227.44
353.25	227.53
353.63	227.63
354.01	227.68
354.39	227.82
354.77	227.91
355.15	228.02
355.54	228.11
355.92	228.14
356.30	228.17
356.68	228.32
357.06	228.37
357.44	228.40
357.82	228.45
358.20	228.52
358.58	228.59
358.97	228.64
359.35	228.72
359.73	228.79
360.11	228.87
360.49	228.92
360.87	228.99
361.25	229.05
361.63	229.10
362.01	229.15
362.39	229.18
362.77	229.20
363.15	229.22
363.53	229.25
363.91	229.27
364.29	229.34
364.67	229.29
365.05	229.30
365.43	229.37
365.81	229.38
366.19	229.41
366.57	229.46
366.95	229.46
367.33	229.44
367.71	229.44
368.09	229.41
368.47	229.37
368.85	229.33
369.23	229.29
369.61	229.25
369.99	229.27
370.37	229.26
370.75	229.31
371.13	229.26
371.51	229.23
371.89	229.19
372.27	229.13
372.65	229.09
373.03	229.04
373.41	228.96
373.78	228.90
374.16	228.81
374.54	228.70
374.92	228.61
375.30	228.55
375.68	228.47
376.06	228.41
376.44	228.37
376.82	228.32
377.19	228.28
377.57	228.22
377.95	228.11
378.33	228.02
378.71	227.86
379.09	227.80
379.47	227.74
379.84	227.71
380.22	227.63
380.60	227.58
380.98	227.50
381.36	227.45
381.73	227.38
382.11	227.34
382.49	227.29
382.87	227.23
383.25	227.17
383.62	227.22
384.00	227.16
384.38	227.10
384.76	227.07
385.13	227.05
385.51	226.99
385.89	226.93
386.27	226.87
386.64	226.84
387.02	226.77
387.40	226.73
387.78	226.67
388.15	226.63
388.53	226.57
388.91	226.55
389.29	226.50
389.66	226.52
390.04	226.45
390.42	226.47
390.79	226.47
391.17	226.47
391.55	226.33
391.92	226.32
392.30	226.31
392.68	226.28
393.05	226.28
393.43	226.29
393.81	226.32
394.18	226.32
394.56	226.37
394.94	226.44
395.31	226.43
395.69	226.49
396.06	226.54
396.44	226.56
396.82	226.58
397.19	226.68
397.57	226.67
397.95	226.73
398.32	226.72
398.70	226.78
399.07	226.86
399.45	226.91
399.82	226.94
400.20	227.01
400.58	227.09
400.95	227.11
401.33	227.21
401.70	227.35
402.08	227.46
402.45	227.54
402.83	227.65
403.20	227.78
403.58	227.86
403.95	227.98
404.33	228.14
404.71	228.25
405.08	228.41
405.46	228.57
405.83	228.73
406.21	228.89
406.58	229.05
406.96	229.17
407.33	229.34
407.70	229.59
408.08	229.88
408.45	230.07
408.83	230.34
409.20	230.55
409.58	230.72
409.95	230.99
410.33	231.26
410.70	231.48
411.08	231.75
411.45	232.10
411.82	232.40
412.20	232.72
412.57	233.15
412.95	233.45
413.32	233.86
413.69	234.23
414.07	234.68
414.44	235.16
414.82	235.65
415.19	236.21
415.56	236.71
415.94	237.23
416.31	237.90
416.68	238.50
417.06	239.20
417.43	239.90
417.81	240.65
418.18	241.39
418.55	242.24
418.93	243.12
419.30	243.97
419.67	244.91
420.04	245.85
420.42	246.84
420.79	248.03
421.16	249.18
421.54	250.41
421.91	251.60
422.28	252.87
422.66	254.21
423.03	255.52
423.40	256.89
423.77	258.29
424.15	259.71
424.52	261.21
424.89	262.82
425.26	264.35
425.64	265.81
426.01	267.41
426.38	269.04
426.75	270.70
427.13	272.45
427.50	274.29
427.87	276.22
428.24	278.07
428.61	279.82
428.99	281.74
429.36	283.84
429.73	285.92
430.10	287.90
430.47	289.97
430.85	292.05
431.22	294.27
431.59	296.69
431.96	298.94
432.33	301.42
432.70	303.80
433.08	306.61
433.45	309.26
433.82	311.85
434.19	314.77
434.56	317.61
434.93	320.22
435.30	322.81
435.68	325.67
436.05	328.46
436.42	331.24
436.79	333.75
437.16	336.47
437.53	339.30
437.90	342.14
438.27	344.83
438.64	347.69
439.01	350.27
439.38	352.50
439.75	354.66
440.13	357.14
440.50	359.49
440.87	361.38
441.24	363.28
441.61	365.46
441.98	366.92
442.35	368.67
442.72	370.58
443.09	372.40
443.46	373.37
443.83	374.00
444.20	374.46
444.57	375.27
444.94	375.51
445.31	375.85
445.68	376.19
446.05	376.29
446.42	375.93
446.79	375.51
447.16	375.03
447.53	374.70
447.90	373.52
448.27	372.35
448.64	370.72
449.01	369.61
449.37	367.63
449.74	365.72
450.11	363.46
450.48	360.96
450.85	358.40
451.22	356.30
451.59	354.27
451.96	352.37
452.33	349.75
452.70	347.38
453.07	344.53
453.43	341.61
453.80	338.83
454.17	336.11
454.54	333.54
454.91	330.81
455.28	328.16
455.65	325.70
456.02	323.23
456.38	321.07
456.75	318.40
457.12	316.14
457.49	313.98
457.86	311.84
458.23	309.98
458.59	307.95
458.96	305.86
459.33	304.01
459.70	302.15
460.07	300.70
460.43	299.05
460.80	297.47
461.17	296.04
461.54	294.56
461.91	293.14
462.27	291.72
462.64	290.45
463.01	289.08
463.38	287.77
463.74	286.43
464.11	285.29
464.48	284.26
464.85	283.19
465.21	282.25
465.58	281.31
465.95	280.23
466.32	279.33
466.68	278.42
467.05	277.53
467.42	276.62
467.78	275.68
468.15	274.77
468.52	274.12
468.88	273.26
469.25	272.51
469.62	271.91
469.98	271.23
470.35	270.63
470.72	270.05
471.08	269.40
471.45	268.86
471.82	268.33
472.18	267.70
472.55	267.26
472.92	266.79
473.28	266.34
473.65	265.92
474.02	265.48
474.38	265.14
474.75	264.81
475.11	264.51
475.48	264.26
475.85	264.04
476.21	263.81
476.58	263.63
476.94	263.48
477.31	263.29
477.67	263.18
478.04	263.05
478.41	263.00
478.77	263.08
479.14	263.02
479.50	263.03
479.87	263.16
480.23	263.24
480.60	263.30
480.96	263.43
481.33	263.63
481.69	263.83
482.06	264.03
482.42	264.25
482.79	264.51
483.15	264.79
483.52	265.18
483.88	265.52
484.25	265.92
484.61	266.35
484.98	266.83
485.34	267.37
485.71	267.95
486.07	268.56
486.44	269.10
486.80	269.78
487.17	270.48
487.53	271.27
487.90	272.15
488.26	273.11
488.62	274.07
488.99	275.04
489.35	276.07
489.72	277.18
490.08	278.37
490.44	279.58
490.81	280.93
491.17	282.29
491.54	283.80
491.90	285.34
492.26	287.00
492.63	288.71
492.99	290.48
493.36	292.41
493.72	294.43
494.08	296.56
494.45	298.86
494.81	301.28
495.17	303.70
495.54	306.24
495.90	308.90
496.26	311.71
496.63	314.63
496.99	317.77
497.35	321.02
497.72	324.44
498.08	327.96
498.44	331.61
498.80	335.51
499.17	339.54
499.53	343.71
499.89	348.06
500.26	352.56
500.62	357.27
500.98	362.20
501.34	367.24
501.71	372.58
502.07	377.98
502.43	383.57
502.79	389.42
503.16	395.49
503.52	401.79
503.88	408.19
504.24	414.86
504.60	421.71
504.97	428.85
505.33	436.13
505.69	443.82
506.05	451.60
506.41	459.47
506.78	467.65
507.14	476.11
507.50	484.79
507.86	493.83
508.22	502.99
508.59	512.26
508.95	521.87
509.31	531.70
509.67	541.83
510.03	552.11
510.39	562.65
510.75	573.44
511.12	584.38
511.48	595.65
511.84	607.13
512.20	618.71
512.56	630.63
512.92	642.91
513.28	655.26
513.64	667.78
514.00	680.49
514.37	693.43
514.73	706.44
515.09	719.46
515.45	732.78
515.81	746.35
516.17	760.27
516.53	774.38
516.89	788.54
517.25	802.64
517.61	817.10
517.97	831.64
518.33	846.07
518.69	860.87
519.05	875.91
519.41	891.12
519.77	906.58
520.13	922.01
520.49	937.27
520.85	952.65
521.21	968.37
521.57	984.72
521.93	1000.40
522.29	1016.85
522.65	1033.17
523.01	1049.38
523.37	1065.49
523.73	1081.64
524.09	1097.76
524.45	1114.07
524.81	1130.69
525.17	1147.48
525.53	1164.35
525.89	1181.22
526.25	1197.92
526.61	1214.35
526.97	1231.09
527.33	1247.54
527.68	1264.28
528.04	1280.80
528.40	1297.41
528.76	1314.46
529.12	1330.95
529.48	1347.81
529.84	1363.81
530.20	1380.47
530.56	1397.53
530.91	1414.87
531.27	1431.59
531.63	1448.12
531.99	1464.65
532.35	1480.58
532.71	1496.41
533.07	1512.51
533.42	1528.26
533.78	1544.33
534.14	1560.65
534.50	1575.96
534.86	1591.80
535.21	1606.94
535.57	1622.99
535.93	1638.59
536.29	1653.46
536.65	1668.52
537.00	1683.31
537.36	1698.59
537.72	1713.02
538.08	1727.33
538.44	1741.14
538.79	1755.12
539.15	1768.68
539.51	1782.28
539.87	1796.65
540.22	1810.51
540.58	1824.37
540.94	1837.93
541.29	1850.78
541.65	1863.35
542.01	1876.60
542.37	1888.97
542.72	1901.43
543.08	1912.97
543.44	1925.25
543.79	1936.28
544.15	1947.19
544.51	1958.75
544.87	1969.76
545.22	1980.54
545.58	1990.73
545.94	2000.40
546.29	2010.18
546.65	2020.03
547.01	2029.29
547.36	2038.13
547.72	2046.36
548.07	2054.15
548.43	2062.22
548.79	2070.25
549.14	2077.53
549.50	2084.83
549.86	2092.44
550.21	2099.68
550.57	2107.06
550.92	2113.66
551.28	2120.79
551.64	2127.88
551.99	2134.46
552.35	2140.53
552.70	2146.63
553.06	2152.64
553.41	2159.05
553.77	2165.15
554.13	2171.23
554.48	2177.45
554.84	2182.70
555.19	2188.25
555.55	2193.42
555.90	2197.95
556.26	2202.79
556.61	2207.71
556.97	2211.87
557.32	2216.03
557.68	2220.07
558.03	2224.24
558.39	2227.85
558.74	2232.39
559.10	2236.36
559.45	2239.92
559.81	2244.21
560.16	2248.06
560.52	2251.34
560.87	2254.65
561.23	2257.23
561.58	2260.11
561.94	2262.64
562.29	2265.05
562.64	2267.60
563.00	2270.15
563.35	2273.50
563.71	2276.63
564.06	2279.85
564.42	2282.73
564.77	2285.20
565.12	2287.45
565.48	2289.36
565.83	2291.24
566.19	2292.64
566.54	2293.45
566.89	2294.61
567.25	2295.10
567.60	2296.47
567.96	2298.07
568.31	2299.09
568.66	2300.17
569.02	2300.77
569.37	2300.96
569.72	2301.89
570.08	2301.94
570.43	2302.11
570.78	2301.55
571.14	2300.14
571.49	2298.86
571.84	2298.57
572.20	2297.41
572.55	2296.42
572.90	2294.86
573.26	2293.61
573.61	2291.87
573.96	2289.99
574.31	2287.02
574.67	2284.22
575.02	2280.54
575.37	2277.14
575.72	2273.22
576.08	2269.90
576.43	2266.58
576.78	2262.93
577.13	2259.82
577.49	2256.73
577.84	2253.06
578.19	2249.47
578.54	2245.74
578.90	2241.41
579.25	2235.90
579.60	2230.94
579.95	2225.90
580.30	2220.92
580.66	2215.72
581.01	2210.74
581.36	2205.86
581.71	2201.61
582.06	2197.10
582.42	2192.64
582.77	2187.55
583.12	2182.94
583.47	2178.10
583.82	2173.09
584.17	2167.86
584.53	2162.23
584.88	2156.67
585.23	2150.92
585.58	2145.34
585.93	2139.99
586.28	2135.37
586.63	2130.21
586.98	2125.19
587.34	2120.53
587.69	2115.57
588.04	2110.31
588.39	2104.70
588.74	2098.41
589.09	2092.44
589.44	2085.57
589.79	2079.58
590.14	2073.86
590.49	2067.38
590.84	2061.16
591.19	2055.22
591.54	2048.79
591.89	2041.41
592.25	2034.60
592.60	2027.33
592.95	2019.77
593.30	2012.35
593.65	2004.64
594.00	1997.64
594.35	1990.35
594.70	1982.28
595.05	1974.98
595.40	1967.68
595.75	1960.13
596.10	1953.76
596.45	1946.88
596.80	1940.79
597.15	1934.15
597.50	1926.93
597.85	1920.43
598.19	1913.70
598.54	1906.56
598.89	1899.95
599.24	1894.21
599.59	1887.36
599.94	1881.36
600.29	1874.94
600.64	1868.45
600.99	1861.05
601.34	1854.24
601.69	1847.31
602.04	1840.41
602.39	1833.06
602.74	1826.23
603.08	1819.42
603.43	1812.80
603.78	1805.45
604.13	1798.13
604.48	1790.83
604.83	1784.02
605.18	1776.99
605.53	1768.98
605.87	1760.89
606.22	1753.66
606.57	1745.60
606.92	1738.48
607.27	1731.10
607.62	1724.15
607.96	1716.72
608.31	1710.09
608.66	1702.40
609.01	1694.90
609.36	1687.39
609.70	1679.41
610.05	1671.31
610.40	1663.56
610.75	1655.14
611.10	1647.50
611.44	1639.19
611.79	1631.13
612.14	1622.50
612.49	1613.41
612.83	1605.13
613.18	1597.07
613.53	1588.95
613.88	1580.32
614.22	1572.05
614.57	1563.56
614.92	1555.65
615.27	1548.00
615.61	1539.61
615.96	1531.54
616.31	1523.84
616.65	1516.35
617.00	1508.71
617.35	1501.03
617.70	1492.80
618.04	1484.36
618.39	1476.09
618.74	1468.47
619.08	1460.13
619.43	1452.50
619.78	1445.53
620.12	1438.26
620.47	1430.75
620.82	1422.57
621.16	1415.23
621.51	1407.55
621.85	1399.88
622.20	1391.20
622.55	1382.95
622.89	1375.18
623.24	1367.66
623.59	1360.33
623.93	1352.82
624.28	1345.72
624.62	1338.28
624.97	1331.10
625.32	1324.24
625.66	1317.17
626.01	1309.87
626.35	1302.44
626.70	1294.72
627.04	1287.05
627.39	1279.25
627.73	1271.84
628.08	1264.94
628.43	1257.56
628.77	1250.13
629.12	1242.56
629.46	1235.55
629.81	1228.15
630.15	1220.84
630.50	1213.40
630.84	1205.17
631.19	1197.38
631.53	1189.87
631.88	1182.11
632.22	1174.50
632.57	1167.30
632.91	1159.85
633.26	1152.52
633.60	1145.18
633.95	1138.12
634.29	1131.09
634.64	1124.47
634.98	1117.12
635.32	1109.94
635.67	1103.43
636.01	1096.88
636.36	1090.09
636.70	1083.46
637.05	1076.94
637.39	1070.51
637.73	1063.95
638.08	1058.06
638.42	1052.02
638.77	1045.55
639.11	1039.04
639.45	1032.68
639.80	1026.03
640.14	1019.66
640.49	1013.12
640.83	1006.90
641.17	1000.62
641.52	994.26
641.86	987.78
642.20	981.92
642.55	975.60
642.89	969.13
643.23	962.48
643.58	956.67
643.92	950.53
644.26	944.37
644.61	938.32
644.95	932.28
645.29	925.73
645.64	918.94
645.98	912.64
646.32	906.86
646.66	900.85
647.01	894.98
647.35	889.22
647.69	883.38
648.04	877.77
648.38	872.05
648.72	866.02
649.06	859.94
649.41	854.04
649.75	848.16
650.09	842.21
650.43	836.54
650.78	830.34
651.12	824.42
651.46	818.73
651.80	812.93
652.14	807.52
652.49	802.11
652.83	797.01
653.17	791.21
653.51	785.44
653.85	780.05
654.20	774.37
654.54	768.35
654.88	762.67
655.22	756.86
655.56	751.18
655.90	745.74
656.25	740.52
656.59	735.12
656.93	729.98
657.27	724.80
657.61	719.33
657.95	714.27
658.29	709.15
658.64	703.92
658.98	698.70
659.32	693.31
659.66	688.04
660.00	682.75
660.34	677.84
660.68	672.89
661.02	667.81
661.36	663.13
661.70	658.67
662.05	654.31
662.39	649.95
662.73	645.46
663.07	641.08
663.41	636.62
663.75	632.14
664.09	627.54
664.43	623.16
664.77	619.10
665.11	614.91
665.45	610.79
665.79	606.71
666.13	602.57
666.47	598.47
666.81	594.37
667.15	590.19
667.49	586.30
667.83	582.59
668.17	578.66
668.51	574.61
668.85	570.56
669.19	566.69
669.53	562.81
669.87	558.89
670.21	555.15
670.55	551.52
670.89	548.08
671.23	544.70
671.57	541.20
671.91	537.55
672.25	534.04
672.58	530.54
672.92	527.16
673.26	523.97
673.60	520.83
673.94	517.73
674.28	514.76
674.62	511.82
674.96	508.63
675.30	505.68
675.64	502.70
675.97	499.95
676.31	497.05
676.65	494.10
676.99	491.40
677.33	488.60
677.67	485.79
678.01	482.74
678.34	479.73
678.68	476.83
679.02	474.04
679.36	471.29
679.70	468.52
680.04	465.73
680.37	462.84
680.71	460.02
681.05	457.36
681.39	454.73
681.73	452.06
682.06	449.58
682.40	447.05
682.74	444.55
683.08	442.00
683.42	439.44
683.75	436.94
684.09	434.41
684.43	431.97
684.77	429.48
685.10	427.13
685.44	424.91
685.78	422.68
686.12	420.49
686.45	418.18
686.79	415.89
687.13	413.71
687.46	411.56
687.80	409.46
688.14	407.29
688.48	405.25
688.81	403.01
689.15	400.85
689.49	398.74
689.82	396.66
690.16	394.61
690.50	392.70
690.83	390.77
691.17	388.81
691.51	386.88
691.84	385.08
692.18	383.19
692.52	381.14
692.85	379.20
693.19	377.29
693.52	375.48
693.86	373.74
694.20	371.97
694.53	370.20
694.87	368.34
695.21	366.54
695.54	364.68
695.88	362.99
696.21	361.25
696.55	359.59
696.88	357.94
697.22	356.28
697.56	354.63
697.89	353.00
698.23	351.43
698.56	349.77
698.90	348.15
699.23	346.51
699.57	345.00
699.90	343.46
700.24	341.94
700.58	340.39
700.91	338.88
701.25	337.40
701.58	336.01
701.92	334.60
702.25	333.21
702.59	331.84
702.92	330.49
703.26	329.20
703.59	327.90
703.93	326.72
704.26	325.44
704.60	324.15
704.93	322.92
705.26	321.62
705.60	320.43
705.93	319.27
706.27	318.23
706.60	317.15
706.94	316.08
707.27	314.93
707.61	313.87
707.94	312.84
708.27	311.77
708.61	310.70
708.94	309.76
709.28	308.79
709.61	307.83
709.94	306.86
710.28	305.83
710.61	304.85
710.95	303.77
711.28	302.88
711.61	301.88
711.95	300.92
712.28	299.98
712.61	299.05
712.95	298.11
713.28	297.20
713.61	296.29
713.95	295.37
714.28	294.52
714.61	293.63
714.95	292.76
715.28	291.88
715.61	291.01
715.95	290.13
716.28	289.26
716.61	288.44
716.95	287.62
717.28	286.89
717.61	286.11
717.94	285.37
718.28	284.53
718.61	283.82
718.94	283.13
719.27	282.49
719.61	281.85
719.94	281.18
720.27	280.45
720.60	279.78
720.94	279.12
721.27	278.51
721.60	277.91
721.93	277.30
722.27	276.77
722.60	276.22
722.93	275.63
723.26	275.10
723.59	274.52
723.93	273.97
724.26	273.38
724.59	272.82
724.92	272.28
725.25	271.77
725.59	271.26
725.92	270.74
726.25	270.21
726.58	269.68
726.91	269.18
727.24	268.72
727.57	268.26
727.91	267.74
728.24	267.30
728.57	266.87
728.90	266.46
729.23	265.96
729.56	265.49
729.89	265.04
730.22	264.57
730.55	264.13
730.89	263.72
731.22	263.29
731.55	262.88
731.88	262.44
732.21	262.05
732.54	261.59
732.87	261.17
733.20	260.78
733.53	260.41
733.86	260.05
734.19	259.69
734.52	259.30
734.85	259.06
735.18	258.69
735.51	258.31
735.84	257.94
736.17	257.60
736.50	257.23
736.83	256.99
737.16	256.67
737.49	256.34
737.82	255.97
738.15	255.68
738.48	255.33
738.81	255.05
739.14	254.74
739.47	254.43
739.80	254.17
740.13	253.89
740.46	253.57
740.79	253.26
741.12	252.96
741.45	252.67
741.78	252.27
742.11	251.93
742.44	251.59
742.77	251.28
743.10	250.96
743.43	250.68
743.75	250.28
744.08	250.11
744.41	249.84
744.74	249.55
745.07	249.26
745.40	249.02
745.73	248.76
746.06	248.48
746.39	248.23
746.71	247.91
747.04	247.61
747.37	247.37
747.70	247.14
748.03	246.89
748.36	246.65
748.68	246.40
749.01	246.18
749.34	245.97
749.67	245.73
750.00	245.52
750.33	245.37
750.65	245.18
750.98	244.84
751.31	244.62
751.64	244.42
751.97	244.26
752.29	244.03
752.62	243.79
752.95	243.57
753.28	243.35
753.60	243.15
753.93	243.00
754.26	242.81
754.59	242.57
754.91	242.33
755.24	242.15
755.57	241.98
755.90	241.83
756.22	241.61
756.55	241.44
756.88	241.23
757.20	241.00
757.53	240.77
757.86	240.59
758.19	240.43
758.51	240.27
758.84	240.03
759.17	239.84
759.49	239.70
759.82	239.56
760.15	239.41
760.47	239.27
760.80	239.05
761.13	238.92
761.45	238.78
761.78	238.64
762.11	238.50
762.43	238.36
762.76	238.18
763.08	238.06
763.41	237.94
763.74	237.81
764.06	237.63
764.39	237.48
764.71	237.36
765.04	237.23
765.37	237.08
765.69	236.96
766.02	236.85
766.34	236.73
766.67	236.58
767.00	236.50
767.32	236.41
767.65	236.40
767.97	236.26
768.30	236.15
768.62	236.03
768.95	235.92
769.27	235.82
769.60	235.75
769.92	235.62
770.25	235.48
770.57	235.34
770.90	235.24
771.22	235.17
771.55	235.10
771.87	234.98
772.20	234.88
772.52	234.88
772.85	234.90
773.17	234.77
773.50	234.69
773.82	234.58
774.15	234.45
774.47	234.28
774.80	234.17
775.12	234.08
775.45	234.03
775.77	233.96
776.09	233.86
776.42	233.78
776.74	233.74
777.07	233.66
777.39	233.63
777.72	233.58
778.04	233.52
778.36	233.46
778.69	233.43
779.01	233.39
779.33	233.24
779.66	233.05
779.98	232.98
780.31	232.92
780.63	232.86
780.95	232.85
781.28	232.81
781.60	232.78
781.92	232.71
782.25	232.64
782.57	232.58
782.89	232.52
783.22	232.42
783.54	232.36
783.86	232.31
784.19	232.24
784.51	232.21
784.83	232.14
785.16	232.07
785.48	232.01
785.80	231.96
786.12	231.93
786.45	231.91
786.77	231.90
787.09	231.86
787.42	231.78
787.74	231.69
788.06	231.65
788.38	231.56
788.71	231.51
789.03	231.46
789.35	231.41
789.67	231.35
789.99	231.34
790.32	231.29
790.64	231.26
790.96	231.30
791.28	231.24
791.61	231.21
791.93	231.17
792.25	231.12
792.57	231.13
792.89	231.05
793.21	231.01
793.54	230.94
793.86	230.89
794.18	230.86
794.50	230.82
794.82	230.78
795.14	230.74
795.47	230.74
795.79	230.69
796.11	230.66
796.43	230.63
796.75	230.55
797.07	230.49
797.39	230.46
797.71	230.33
798.04	230.29
798.36	230.25
798.68	230.19
799.00	230.15
799.32	230.06
799.64	230.03
799.96	229.99
800.28	229.97
800.60	229.92
800.92	229.90
801.24	229.83
801.56	229.81
801.89	229.77
802.21	229.75
802.53	229.72
802.85	229.71
803.17	229.73
803.49	229.73
803.81	229.76
804.13	229.69
804.45	229.67
804.77	229.63
805.09	229.58
805.41	229.54
805.73	229.48
806.05	229.45
806.37	229.43
806.69	229.39
807.01	229.38
807.33	229.39
807.65	229.34
807.97	229.40
808.28	229.35
808.60	229.32
808.92	229.27
809.24	229.32
809.56	229.20
809.88	229.15
810.20	229.10
810.52	229.05
810.84	229.03
811.16	228.98
811.48	228.96
811.80	228.99
812.12	228.97
812.43	228.99
812.75	228.98
813.07	228.95
813.39	228.93
813.71	228.88
814.03	228.83
814.35	228.81
814.67	228.73
814.98	228.70
815.30	228.70
815.62	228.71
815.94	228.61
816.26	228.69
816.58	228.69
816.89	228.72
817.21	228.71
817.53	228.73
817.85	228.74
818.17	228.71
818.48	228.67
818.80	228.67
819.12	228.63
819.44	228.59
819.76	228.56
820.07	228.53
820.39	228.55
820.71	228.53
821.03	228.51
821.34	228.51
821.66	228.54
821.98	228.52
822.30	228.52
822.61	228.59
822.93	228.53
823.25	228.52
823.57	228.47
823.88	228.48
824.20	228.45
824.52	228.49
824.83	228.51
825.15	228.48
825.47	228.50
825.79	228.51
826.10	228.51
826.42	228.49
826.74	228.50
827.05	228.47
827.37	228.47
827.69	228.46
828.00	228.45
828.32	228.42
828.64	228.41
828.95	228.41
829.27	228.33
829.58	228.31
829.90	228.31
830.22	228.32
830.53	228.25
830.85	228.24
831.17	228.17
831.48	228.16
831.80	228.15
832.11	228.12
832.43	228.09
832.75	228.09
833.06	228.18
833.38	228.14
833.69	228.16
834.01	228.16
834.32	228.15
834.64	228.14
834.96	228.16
835.27	228.18
835.59	228.12
835.90	228.12
836.22	228.11
836.53	228.05
836.85	228.00
837.16	228.08
837.48	228.04
837.79	228.08
838.11	228.04
838.42	228.03
838.74	228.03
839.05	228.02
839.37	227.98
839.68	227.90
840.00	227.90
840.31	227.91
840.63	227.91
840.94	227.88
841.26	227.86
841.57	227.84
841.88	227.82
842.20	227.82
842.51	227.79
842.83	227.77
843.14	227.85
843.46	227.87
843.77	227.85
844.08	227.81
844.40	227.74
844.71	227.73
845.03	227.71
845.34	227.71
845.65	227.70
845.97	227.72
846.28	227.72
846.60	227.69
846.91	227.62
847.22	227.58
847.54	227.61
847.85	227.63
848.16	227.62
848.48	227.60
848.79	227.63
849.10	227.63
849.42	227.66
849.73	227.53
850.04	227.50
850.36	227.44
850.67	227.46
850.98	227.48
851.30	227.50
851.61	227.48
851.92	227.48
852.23	227.50
852.55	227.50
852.86	227.48
853.17	227.50
853.49	227.54
853.80	227.57
854.11	227.55
854.42	227.56
854.74	227.53
855.05	227.53
855.36	227.46
855.67	227.47
855.99	227.47
856.30	227.63
856.61	227.64
856.92	227.65
857.23	227.63
857.55	227.60
857.86	227.57
858.17	227.59
858.48	227.53
858.79	227.51
859.11	227.49
859.42	227.49
859.73	227.48
860.04	227.46
860.35	227.40
860.66	227.37
860.98	227.36
861.29	227.36
861.60	227.33
861.91	227.33
862.22	227.31
862.53	227.25
862.84	227.10
863.16	227.14
863.47	227.11
863.78	227.11
864.09	227.13
864.40	227.13
864.71	227.12
865.02	227.15
865.33	227.15
865.64	227.14
865.95	227.14
866.27	227.19
866.58	227.21
866.89	227.23
867.20	227.21
867.51	227.15
867.82	227.13
868.13	227.13
868.44	227.12
868.75	227.14
869.06	227.15
869.37	227.19
869.68	227.14
869.99	227.15
870.30	227.15
870.61	227.18
870.92	227.17
871.23	227.17
871.54	227.18
871.85	227.19
872.16	227.22
872.47	227.21
872.78	227.15
873.09	227.10
873.40	227.10
873.71	227.13
874.02	227.17
874.33	227.19
874.64	227.19
874.95	227.18
875.26	227.18
875.56	227.18
875.87	227.17
876.18	227.17
876.49	227.25
876.80	227.24
877.11	227.22
877.42	227.21
877.73	227.21
878.04	227.17
878.35	227.17
878.66	227.17
878.96	227.19
879.27	227.22
879.58	227.23
879.89	227.19
880.20	227.20
880.51	227.20
880.82	227.16
881.12	227.16
881.43	227.18
881.74	227.19
882.05	227.18
882.36	227.16
882.67	227.17
882.97	227.06
883.28	227.04
883.59	227.02
883.90	227.06
884.21	227.07
884.51	227.10
884.82	227.08
885.13	227.09
885.44	227.07
885.74	227.06
886.05	227.09
886.36	227.14
886.67	227.13
886.98	227.20
887.28	227.24
887.59	227.25
887.90	227.25
888.20	227.22
888.51	227.25
888.82	227.25
889.13	227.24
889.43	227.36
889.74	227.35
890.05	227.40
890.35	227.40
890.66	227.38
890.97	227.35
891.28	227.33
891.58	227.31
891.89	227.28
892.20	227.25
892.50	227.24
892.81	227.20
893.12	227.18
893.42	227.11
893.73	227.11
894.04	227.14
894.34	227.13
894.65	227.17
894.95	227.15
895.26	227.15
895.57	227.19
895.87	227.09
896.18	227.15
896.48	227.16
896.79	227.12
897.10	227.16
897.40	227.18
897.71	227.22
898.01	227.17
898.32	227.19
898.63	227.21
898.93	227.19
899.24	227.18
899.54	227.23
899.85	227.22
900.15	227.21
900.46	227.23
900.76	227.24
901.07	227.21
901.38	227.20
901.68	227.21
901.99	227.19
902.29	227.18
902.60	227.15
902.90	227.11
903.21	227.14
903.51	227.11
903.82	227.10
904.12	227.09
904.43	227.13
904.73	227.11
905.03	227.11
905.34	227.22
905.64	227.22
905.95	227.18
906.25	227.15
906.56	227.09
906.86	227.04
907.17	227.02
907.47	226.98
907.77	227.00
908.08	226.98
908.38	226.93
908.69	226.94
908.99	226.93
909.30	226.93
909.60	226.90
909.90	226.89
910.21	226.87
910.51	226.85
910.81	226.84
911.12	226.83
911.42	226.80
911.73	226.68
912.03	226.70
912.33	226.73
912.64	226.73
912.94	226.75
913.24	226.73
913.55	226.73
913.85	226.76
914.15	226.76
914.46	226.76
914.76	226.78
915.06	226.75
915.37	226.74
915.67	226.75
915.97	226.77
916.27	226.80
916.58	226.79
916.88	226.81
917.18	226.79
917.49	226.87
917.79	226.89
918.09	226.90
918.39	226.89
918.70	226.86
919.00	226.90
919.30	226.94
919.60	226.94
919.91	226.94
920.21	226.93
920.51	226.90
920.81	226.91
921.12	226.90
921.42	226.91
921.72	226.92
922.02	226.93
922.32	226.93
922.63	226.89
922.93	226.92
923.23	226.91
923.53	226.93
923.83	226.89
924.13	226.88
924.44	226.88
924.74	226.93
925.04	226.95
925.34	226.87
925.64	226.87
925.94	226.89
926.24	226.93
926.55	226.95
926.85	226.99
927.15	227.00
927.45	226.98
927.75	226.98
928.05	226.98
928.35	226.95
928.65	226.97
928.95	226.99
929.26	226.94
929.56	226.96
929.86	226.96
930.16	226.95
930.46	226.98
930.76	226.97
931.06	226.91
931.36	226.88
931.66	226.92
931.96	226.90
932.26	226.86
932.56	226.82
932.86	226.79
933.16	226.75
933.46	226.73
933.76	226.75
934.06	226.77
934.36	226.82
934.66	226.82
934.96	226.81
935.26	226.82
935.56	226.84
935.86	226.80
936.16	226.76
936.46	226.72
936.76	226.69
937.06	226.69
937.36	226.72
937.66	226.70
937.96	226.70
938.26	226.67
938.56	226.71
938.86	226.70
939.16	226.72
939.46	226.74
939.76	226.74
940.06	226.70
940.35	226.70
940.65	226.64
940.95	226.68
941.25	226.66
941.55	226.63
941.85	226.59
942.15	226.61
942.45	226.63
942.75	226.64
943.04	226.67
943.34	226.68
943.64	226.67
943.94	226.69
944.24	226.66
944.54	226.68
944.84	226.65
945.13	226.67
945.43	226.65
945.73	226.66
946.03	226.66
946.33	226.69
946.62	226.66
946.92	226.62
947.22	226.58
947.52	226.55
947.82	226.58
948.11	226.60
948.41	226.58
948.71	226.55
949.01	226.56
949.31	226.52
949.60	226.52
949.90	226.51
950.20	226.51
950.50	226.52
950.79	226.53
951.09	226.56
951.39	226.51
951.69	226.50
951.98	226.51
952.28	226.51
952.58	226.44
952.87	226.45
953.17	226.50
953.47	226.53
953.76	226.53
954.06	226.49
954.36	226.47
954.66	226.49
954.95	226.52
955.25	226.52
955.55	226.53
955.84	226.51
956.14	226.51
956.44	226.51
956.73	226.51
957.03	226.50
957.32	226.47
957.62	226.49
957.92	226.53
958.21	226.50
958.51	226.61
958.81	226.68
959.10	226.71
959.40	226.75
959.69	226.76
959.99	226.78
960.29	226.79
960.58	226.80
960.88	226.82
961.17	226.82
961.47	226.85
961.76	226.86
962.06	226.90
962.36	226.91
962.65	226.92
962.95	226.94
963.24	226.96
963.54	226.95
963.83	226.96
964.13	226.92
964.42	226.93
964.72	226.85
965.01	226.83
965.31	226.80
965.60	226.74
965.90	226.78
966.19	226.75
966.49	226.76
966.78	226.74
967.08	226.76
967.37	226.75
967.67	226.72
967.96	226.74
968.26	226.72
968.55	226.72
968.85	226.73
969.14	226.69
969.43	226.69
969.73	226.72
970.02	226.72
970.32	226.70
970.61	226.68
970.91	226.67
971.20	226.65
971.49	226.65
971.79	226.65
972.08	226.60
972.38	226.61
972.67	226.59
972.96	226.64
973.26	226.61
973.55	226.67
973.85	226.67
974.14	226.65
974.43	226.65
974.73	226.65
975.02	226.63
975.31	226.65
975.61	226.63
975.90	226.64
976.19	226.63
976.49	226.65
976.78	226.64
977.07	226.66
977.37	226.71
977.66	226.73
977.95	226.73
978.24	226.71
978.54	226.73
978.83	226.72
979.12	226.71
979.42	226.69
979.71	226.67
980.00	226.68
980.29	226.67
980.59	226.69
980.88	226.70
981.17	226.66
981.46	226.70
981.76	226.72
982.05	226.74
982.34	226.80
982.63	226.80
982.93	226.83
983.22	226.84
983.51	226.82
983.80	226.84
984.09	226.87
984.39	226.89
984.68	226.88
984.97	226.89
985.26	226.88
985.55	226.89
985.85	226.86
986.14	226.85
986.43	226.87
986.72	226.84
987.01	226.79
987.30	226.82
987.59	226.79
987.89	226.78
988.18	226.74
988.47	226.69
988.76	226.72
989.05	226.73
989.34	226.70
989.63	226.74
989.92	226.71
990.22	226.65
990.51	226.63
990.80	226.62
991.09	226.64
991.38	226.66
991.67	226.67
991.96	226.66
992.25	226.68
992.54	226.69
992.83	226.70
993.12	226.70
993.41	226.70
993.70	226.73
993.99	226.74
994.28	226.80
994.58	226.80
994.87	226.75
995.16	226.72
995.45	226.73
995.74	226.62
996.03	226.65
996.32	226.65
996.61	226.68
996.90	226.68
997.19	226.66
997.48	226.65
997.77	226.62
998.06	226.62
998.34	226.62
998.63	226.60
998.92	226.57
999.21	226.59
999.50	226.60
999.79	226.58
1000.08	226.54
1000.37	226.47
1000.66	226.45
1000.95	226.48
1001.24	226.48
1001.53	226.51
1001.82	226.52
1002.11	226.51
1002.40	226.55
1002.68	226.59
1002.97	226.65
1003.26	226.65
1003.55	226.63
1003.84	226.62
1004.13	226.63
1004.42	226.59
1004.71	226.56
1004.99	226.57
1005.28	226.59
1005.57	226.59
1005.86	226.59
1006.15	226.60
1006.44	226.60
1006.72	226.63
1007.01	226.61
1007.30	226.61
1007.59	226.61
1007.88	226.62
1008.17	226.61
1008.45	226.57
1008.74	226.54
1009.03	226.49
1009.32	226.48
1009.60	226.48
1009.89	226.48
1010.18	226.48
1010.47	226.50
1010.76	226.54
1011.04	226.55
1011.33	226.57
1011.62	226.56
1011.91	226.60
1012.19	226.61
1012.48	226.61
1012.77	226.61
1013.05	226.67
1013.34	226.68
1013.63	226.64
1013.92	226.67
1014.20	226.65
1014.49	226.65
1014.78	226.66
1015.06	226.63
1015.35	226.63
1015.64	226.65
1015.92	226.66
1016.21	226.66
1016.50	226.63
1016.78	226.61
1017.07	226.59
1017.36	226.59
1017.64	226.60
1017.93	226.58
1018.22	226.58
1018.50	226.59
1018.79	226.59
1019.08	226.56
1019.36	226.59
1019.65	226.58
1019.93	226.60
1020.22	226.64
1020.51	226.71
1020.79	226.69
1021.08	226.47
1021.36	226.66
1021.65	226.91
1021.94	226.88
1022.22	226.95
1022.51	226.02
1022.79	227.00
1023.08	227.41
1023.36	228.00
1023.65	226.31
>>>>>End Processed Spectral Data<<<<<
