SpectraSuite Data File
++++++++++++++++++++++++++++++++++++
Date: Fri Feb 01 17:27:35 EST 2013
User: group
Dark Spectrum Present: No
Reference Spectrum Present: No
Number of Sampled Component Spectra: 1
Spectrometers: USB2E7196
Integration Time (usec): 35000 (USB2E7196)
Spectra Averaged: 100 (USB2E7196)
Boxcar Smoothing: 10 (USB2E7196)
Correct for Electrical Dark: No (USB2E7196)
Strobe/Lamp Enabled: No (USB2E7196)
Correct for Detector Non-linearity: No (USB2E7196)
Correct for Stray Light: No (USB2E7196)
Number of Pixels in Processed Spectrum: 2048
>>>>>Begin Processed Spectral Data<<<<<
339.09	0.00
339.48	213.41
339.86	213.81
340.24	215.81
340.63	217.53
341.01	220.23
341.39	220.23
341.78	221.16
342.16	222.09
342.54	222.59
342.93	211.40
343.31	222.09
343.69	222.61
344.07	223.08
344.46	223.51
344.84	223.84
345.22	224.06
345.60	224.29
345.99	224.47
346.37	224.60
346.75	224.70
347.13	224.77
347.52	224.79
347.90	224.85
348.28	224.84
348.66	224.89
349.05	224.87
349.43	224.89
349.81	224.89
350.19	224.93
350.57	224.95
350.96	225.01
351.34	225.08
351.72	225.16
352.10	225.26
352.48	225.31
352.87	225.41
353.25	225.48
353.63	225.51
354.01	225.55
354.39	225.64
354.77	225.74
355.15	225.80
355.54	225.85
355.92	225.86
356.30	225.95
356.68	226.10
357.06	226.19
357.44	226.23
357.82	226.31
358.20	226.39
358.58	226.46
358.97	226.51
359.35	226.59
359.73	226.66
360.11	226.73
360.49	226.80
360.87	226.79
361.25	226.86
361.63	226.96
362.01	227.03
362.39	227.05
362.77	227.10
363.15	227.13
363.53	227.22
363.91	227.31
364.29	227.35
364.67	227.27
365.05	227.27
365.43	227.32
365.81	227.38
366.19	227.42
366.57	227.46
366.95	227.47
367.33	227.44
367.71	227.43
368.09	227.45
368.47	227.43
368.85	227.44
369.23	227.43
369.61	227.37
369.99	227.38
370.37	227.36
370.75	227.35
371.13	227.30
371.51	227.24
371.89	227.16
372.27	227.14
372.65	227.06
373.03	227.05
373.41	226.98
373.78	226.95
374.16	226.84
374.54	226.76
374.92	226.72
375.30	226.69
375.68	226.61
376.06	226.57
376.44	226.50
376.82	226.44
377.19	226.35
377.57	226.28
377.95	226.20
378.33	226.12
378.71	226.00
379.09	225.97
379.47	225.95
379.84	225.89
380.22	225.77
380.60	225.71
380.98	225.62
381.36	225.56
381.73	225.45
382.11	225.42
382.49	225.39
382.87	225.31
383.25	225.25
383.62	225.33
384.00	225.25
384.38	225.22
384.76	225.16
385.13	225.16
385.51	225.12
385.89	225.08
386.27	225.05
386.64	225.04
387.02	225.00
387.40	224.94
387.78	224.94
388.15	224.95
388.53	224.93
388.91	224.89
389.29	224.85
389.66	224.87
390.04	224.83
390.42	224.82
390.79	224.80
391.17	224.77
391.55	224.62
391.92	224.60
392.30	224.59
392.68	224.61
393.05	224.59
393.43	224.59
393.81	224.58
394.18	224.56
394.56	224.55
394.94	224.55
395.31	224.55
395.69	224.58
396.06	224.58
396.44	224.61
396.82	224.66
397.19	224.75
397.57	224.71
397.95	224.77
398.32	224.78
398.70	224.84
399.07	224.88
399.45	224.91
399.82	224.95
400.20	224.98
400.58	225.05
400.95	225.07
401.33	225.18
401.70	225.34
402.08	225.44
402.45	225.55
402.83	225.66
403.20	225.78
403.58	225.88
403.95	226.01
404.33	226.15
404.71	226.27
405.08	226.44
405.46	226.62
405.83	226.76
406.21	226.92
406.58	227.06
406.96	227.26
407.33	227.48
407.70	227.66
408.08	227.95
408.45	228.15
408.83	228.41
409.20	228.60
409.58	228.78
409.95	229.07
410.33	229.32
410.70	229.56
411.08	229.84
411.45	230.12
411.82	230.43
412.20	230.80
412.57	231.25
412.95	231.55
413.32	231.95
413.69	232.36
414.07	232.80
414.44	233.28
414.82	233.76
415.19	234.31
415.56	234.88
415.94	235.45
416.31	236.10
416.68	236.72
417.06	237.47
417.43	238.17
417.81	238.93
418.18	239.74
418.55	240.64
418.93	241.55
419.30	242.45
419.67	243.43
420.04	244.42
420.42	245.38
420.79	246.62
421.16	247.83
421.54	249.09
421.91	250.34
422.28	251.70
422.66	253.12
423.03	254.49
423.40	255.88
423.77	257.35
424.15	258.84
424.52	260.39
424.89	262.06
425.26	263.65
425.64	265.14
426.01	266.81
426.38	268.51
426.75	270.26
427.13	272.08
427.50	273.96
427.87	275.91
428.24	277.85
428.61	279.66
428.99	281.69
429.36	283.87
429.73	286.02
430.10	288.10
430.47	290.18
430.85	292.35
431.22	294.71
431.59	297.17
431.96	299.53
432.33	302.11
432.70	304.56
433.08	307.47
433.45	310.27
433.82	312.98
434.19	315.97
434.56	318.85
434.93	321.61
435.30	324.30
435.68	327.31
436.05	330.26
436.42	333.17
436.79	335.79
437.16	338.59
437.53	341.56
437.90	344.47
438.27	347.34
438.64	350.28
439.01	352.98
439.38	355.27
439.75	357.53
440.13	360.13
440.50	362.58
440.87	364.54
441.24	366.58
441.61	368.87
441.98	370.46
442.35	372.38
442.72	374.33
443.09	376.29
443.46	377.32
443.83	377.93
444.20	378.49
444.57	379.35
444.94	379.68
445.31	380.02
445.68	380.43
446.05	380.58
446.42	380.18
446.79	379.75
447.16	379.31
447.53	378.97
447.90	377.83
448.27	376.68
448.64	375.06
449.01	373.87
449.37	371.80
449.74	369.84
450.11	367.49
450.48	364.90
450.85	362.28
451.22	360.09
451.59	358.04
451.96	356.04
452.33	353.37
452.70	350.97
453.07	348.02
453.43	344.97
453.80	342.08
454.17	339.35
454.54	336.74
454.91	333.95
455.28	331.20
455.65	328.60
456.02	326.03
456.38	323.81
456.75	321.04
457.12	318.70
457.49	316.39
457.86	314.14
458.23	312.23
458.59	310.10
458.96	307.94
459.33	305.98
459.70	304.00
460.07	302.41
460.43	300.58
460.80	298.88
461.17	297.43
461.54	295.85
461.91	294.32
462.27	292.80
462.64	291.46
463.01	290.05
463.38	288.71
463.74	287.24
464.11	286.02
464.48	285.00
464.85	283.84
465.21	282.93
465.58	281.99
465.95	280.87
466.32	279.89
466.68	278.95
467.05	278.02
467.42	277.10
467.78	276.13
468.15	275.25
468.52	274.58
468.88	273.70
469.25	272.91
469.62	272.31
469.98	271.64
470.35	271.01
470.72	270.38
471.08	269.68
471.45	269.15
471.82	268.57
472.18	267.91
472.55	267.43
472.92	266.88
473.28	266.39
473.65	265.89
474.02	265.42
474.38	265.05
474.75	264.76
475.11	264.37
475.48	264.11
475.85	263.86
476.21	263.62
476.58	263.41
476.94	263.25
477.31	263.05
477.67	262.85
478.04	262.73
478.41	262.66
478.77	262.68
479.14	262.60
479.50	262.60
479.87	262.67
480.23	262.80
480.60	262.89
480.96	263.00
481.33	263.23
481.69	263.46
482.06	263.64
482.42	263.81
482.79	264.10
483.15	264.42
483.52	264.78
483.88	265.13
484.25	265.52
484.61	265.96
484.98	266.36
485.34	266.97
485.71	267.54
486.07	268.17
486.44	268.77
486.80	269.46
487.17	270.20
487.53	271.01
487.90	271.83
488.26	272.74
488.62	273.72
488.99	274.67
489.35	275.71
489.72	276.82
490.08	278.05
490.44	279.28
490.81	280.57
491.17	281.90
491.54	283.36
491.90	284.87
492.26	286.50
492.63	288.26
492.99	289.99
493.36	291.87
493.72	293.89
494.08	295.97
494.45	298.26
494.81	300.59
495.17	303.04
495.54	305.58
495.90	308.28
496.26	311.11
496.63	314.05
496.99	317.15
497.35	320.39
497.72	323.72
498.08	327.22
498.44	330.86
498.80	334.81
499.17	338.83
499.53	342.97
499.89	347.30
500.26	351.80
500.62	356.44
500.98	361.38
501.34	366.39
501.71	371.59
502.07	376.98
502.43	382.49
502.79	388.15
503.16	394.13
503.52	400.32
503.88	406.57
504.24	413.06
504.60	419.84
504.97	426.88
505.33	434.09
505.69	441.68
506.05	449.35
506.41	457.04
506.78	465.00
507.14	473.26
507.50	481.78
507.86	490.62
508.22	499.67
508.59	508.68
508.95	518.05
509.31	527.80
509.67	537.68
510.03	547.79
510.39	558.16
510.75	568.73
511.12	579.35
511.48	590.45
511.84	601.67
512.20	612.86
512.56	624.50
512.92	636.38
513.28	648.46
513.64	660.57
514.00	673.10
514.37	685.77
514.73	698.55
515.09	711.28
515.45	724.23
515.81	737.51
516.17	751.12
516.53	764.86
516.89	778.52
517.25	792.34
517.61	806.43
517.97	820.55
518.33	834.61
518.69	849.08
519.05	863.57
519.41	878.37
519.77	893.54
520.13	908.59
520.49	923.71
520.85	938.64
521.21	953.96
521.57	969.58
521.93	984.90
522.29	1000.85
522.65	1016.63
523.01	1032.31
523.37	1047.81
523.73	1063.59
524.09	1079.25
524.45	1095.17
524.81	1111.41
525.17	1127.64
525.53	1144.05
525.89	1160.52
526.25	1176.94
526.61	1192.94
526.97	1209.13
527.33	1225.14
527.68	1241.26
528.04	1257.12
528.40	1273.14
528.76	1289.80
529.12	1306.00
529.48	1322.48
529.84	1338.01
530.20	1354.26
530.56	1370.82
530.91	1387.75
531.27	1403.99
531.63	1420.00
531.99	1436.18
532.35	1451.71
532.71	1467.15
533.07	1482.97
533.42	1498.57
533.78	1514.13
534.14	1530.04
534.50	1545.07
534.86	1560.62
535.21	1575.53
535.57	1591.27
535.93	1606.47
536.29	1620.96
536.65	1635.67
537.00	1650.10
537.36	1665.14
537.72	1679.32
538.08	1693.62
538.44	1707.23
538.79	1720.95
539.15	1734.41
539.51	1747.93
539.87	1762.01
540.22	1775.63
540.58	1789.23
540.94	1802.20
541.29	1814.75
541.65	1827.33
542.01	1840.35
542.37	1852.54
542.72	1864.84
543.08	1876.42
543.44	1888.68
543.79	1899.90
544.15	1910.90
544.51	1922.34
544.87	1933.28
545.22	1944.09
545.58	1954.17
545.94	1964.03
546.29	1974.08
546.65	1984.16
547.01	1993.60
547.36	2002.29
547.72	2010.94
548.07	2018.97
548.43	2027.25
548.79	2035.46
549.14	2043.23
549.50	2050.71
549.86	2058.61
550.21	2066.03
550.57	2073.48
550.92	2080.41
551.28	2087.67
551.64	2094.94
551.99	2101.77
552.35	2108.22
552.70	2114.69
553.06	2121.07
553.41	2127.54
553.77	2133.63
554.13	2139.97
554.48	2146.19
554.84	2152.26
555.19	2157.70
555.55	2163.24
555.90	2168.15
556.26	2173.49
556.61	2178.35
556.97	2183.12
557.32	2187.49
557.68	2192.02
558.03	2196.53
558.39	2200.44
558.74	2205.38
559.10	2209.65
559.45	2213.63
559.81	2218.07
560.16	2222.16
560.52	2225.83
560.87	2229.60
561.23	2232.59
561.58	2235.62
561.94	2238.67
562.29	2241.07
562.64	2244.26
563.00	2247.02
563.35	2250.65
563.71	2254.13
564.06	2257.71
564.42	2261.04
564.77	2264.04
565.12	2266.86
565.48	2269.25
565.83	2271.77
566.19	2273.57
566.54	2274.73
566.89	2276.35
567.25	2277.46
567.60	2279.15
567.96	2281.08
568.31	2282.35
568.66	2283.88
569.02	2284.84
569.37	2285.46
569.72	2286.85
570.08	2287.43
570.43	2287.89
570.78	2287.93
571.14	2286.77
571.49	2285.82
571.84	2285.71
572.20	2285.02
572.55	2284.30
572.90	2282.93
573.26	2281.79
573.61	2280.21
573.96	2279.05
574.31	2276.48
574.67	2273.95
575.02	2270.80
575.37	2267.91
575.72	2264.64
576.08	2261.58
576.43	2258.55
576.78	2255.34
577.13	2252.46
577.49	2249.55
577.84	2246.51
578.19	2243.00
578.54	2239.72
578.90	2235.98
579.25	2230.85
579.60	2226.20
579.95	2221.48
580.30	2216.91
580.66	2212.16
581.01	2207.51
581.36	2202.79
581.71	2198.96
582.06	2194.98
582.42	2190.81
582.77	2185.77
583.12	2181.38
583.47	2177.11
583.82	2172.67
584.17	2167.83
584.53	2162.56
584.88	2157.34
585.23	2151.91
585.58	2146.77
585.93	2141.56
586.28	2136.89
586.63	2132.22
586.98	2127.39
587.34	2122.91
587.69	2118.23
588.04	2113.33
588.39	2107.99
588.74	2101.76
589.09	2095.89
589.44	2089.22
589.79	2083.34
590.14	2077.86
590.49	2071.57
590.84	2065.35
591.19	2059.52
591.54	2053.17
591.89	2046.27
592.25	2039.80
592.60	2032.83
592.95	2025.61
593.30	2018.51
593.65	2011.16
594.00	2004.05
594.35	1997.00
594.70	1989.02
595.05	1982.19
595.40	1974.96
595.75	1967.68
596.10	1961.75
596.45	1955.19
596.80	1949.09
597.15	1942.73
597.50	1936.07
597.85	1929.69
598.19	1923.29
598.54	1916.41
598.89	1909.90
599.24	1903.99
599.59	1897.53
599.94	1891.29
600.29	1884.76
600.64	1878.33
600.99	1871.11
601.34	1864.52
601.69	1857.54
602.04	1850.98
602.39	1843.62
602.74	1836.87
603.08	1830.29
603.43	1823.48
603.78	1816.24
604.13	1809.20
604.48	1802.04
604.83	1795.08
605.18	1788.41
605.53	1780.48
605.87	1772.47
606.22	1765.32
606.57	1757.40
606.92	1749.87
607.27	1742.83
607.62	1736.24
607.96	1729.04
608.31	1722.50
608.66	1715.03
609.01	1707.57
609.36	1699.94
609.70	1692.05
610.05	1684.08
610.40	1676.39
610.75	1668.10
611.10	1660.44
611.44	1651.92
611.79	1643.77
612.14	1635.13
612.49	1625.78
612.83	1617.22
613.18	1608.98
613.53	1600.77
613.88	1592.12
614.22	1583.84
614.57	1574.99
614.92	1566.83
615.27	1559.31
615.61	1550.93
615.96	1542.69
616.31	1534.81
616.65	1527.31
617.00	1519.61
617.35	1511.74
617.70	1503.42
618.04	1494.94
618.39	1486.51
618.74	1478.89
619.08	1470.59
619.43	1462.86
619.78	1455.83
620.12	1448.65
620.47	1441.05
620.82	1432.70
621.16	1425.25
621.51	1417.43
621.85	1409.80
622.20	1401.24
622.55	1392.64
622.89	1384.68
623.24	1377.01
623.59	1369.60
623.93	1362.10
624.28	1354.73
624.62	1347.24
624.97	1339.80
625.32	1332.84
625.66	1325.65
626.01	1318.44
626.35	1311.01
626.70	1303.20
627.04	1295.44
627.39	1287.55
627.73	1280.06
628.08	1273.05
628.43	1265.83
628.77	1258.64
629.12	1250.99
629.46	1243.68
629.81	1236.03
630.15	1228.58
630.50	1221.01
630.84	1212.83
631.19	1204.62
631.53	1196.90
631.88	1189.12
632.22	1181.52
632.57	1174.12
632.91	1166.51
633.26	1159.01
633.60	1151.32
633.95	1144.06
634.29	1136.88
634.64	1130.11
634.98	1122.69
635.32	1115.59
635.67	1108.66
636.01	1101.77
636.36	1094.94
636.70	1088.31
637.05	1081.80
637.39	1075.38
637.73	1068.92
638.08	1062.95
638.42	1057.03
638.77	1050.66
639.11	1044.13
639.45	1037.66
639.80	1031.05
640.14	1024.67
640.49	1018.03
640.83	1011.71
641.17	1005.53
641.52	999.23
641.86	992.70
642.20	986.94
642.55	980.40
642.89	974.03
643.23	967.32
643.58	961.49
643.92	955.32
644.26	949.32
644.61	943.15
644.95	937.04
645.29	930.49
645.64	923.71
645.98	917.23
646.32	911.17
646.66	905.05
647.01	899.12
647.35	893.41
647.69	887.56
648.04	882.06
648.38	876.19
648.72	870.21
649.06	864.21
649.41	858.23
649.75	852.41
650.09	846.42
650.43	840.76
650.78	834.64
651.12	828.62
651.46	822.78
651.80	817.13
652.14	811.66
652.49	806.26
652.83	801.01
653.17	795.45
653.51	789.85
653.85	784.44
654.20	778.85
654.54	772.74
654.88	766.94
655.22	761.02
655.56	755.30
655.90	749.73
656.25	744.39
656.59	738.95
656.93	733.82
657.27	728.71
657.61	723.23
657.95	718.07
658.29	713.01
658.64	707.69
658.98	702.34
659.32	696.87
659.66	691.67
660.00	686.44
660.34	681.35
660.68	676.34
661.02	671.32
661.36	666.55
661.70	662.13
662.05	657.78
662.39	653.47
662.73	648.94
663.07	644.52
663.41	640.08
663.75	635.65
664.09	631.04
664.43	626.59
664.77	622.52
665.11	618.28
665.45	614.08
665.79	610.06
666.13	605.85
666.47	601.80
666.81	597.60
667.15	593.36
667.49	589.43
667.83	585.60
668.17	581.61
668.51	577.59
668.85	573.47
669.19	569.53
669.53	565.70
669.87	561.92
670.21	558.23
670.55	554.55
670.89	551.00
671.23	547.61
671.57	544.02
671.91	540.49
672.25	536.92
672.58	533.42
672.92	529.94
673.26	526.74
673.60	523.49
673.94	520.34
674.28	517.43
674.62	514.47
674.96	511.32
675.30	508.41
675.64	505.45
675.97	502.63
676.31	499.75
676.65	496.72
676.99	493.93
677.33	491.02
677.67	488.17
678.01	485.11
678.34	482.04
678.68	479.16
679.02	476.26
679.36	473.45
679.70	470.66
680.04	467.87
680.37	464.99
680.71	462.16
681.05	459.49
681.39	456.75
681.73	454.07
682.06	451.59
682.40	449.04
682.74	446.43
683.08	443.86
683.42	441.22
683.75	438.71
684.09	436.09
684.43	433.61
684.77	431.11
685.10	428.73
685.44	426.43
685.78	424.10
686.12	421.83
686.45	419.51
686.79	417.22
687.13	414.97
687.46	412.75
687.80	410.57
688.14	408.35
688.48	406.23
688.81	403.97
689.15	401.76
689.49	399.54
689.82	397.45
690.16	395.35
690.50	393.37
690.83	391.41
691.17	389.42
691.51	387.51
691.84	385.66
692.18	383.77
692.52	381.78
692.85	379.79
693.19	377.94
693.52	376.11
693.86	374.21
694.20	372.43
694.53	370.65
694.87	368.77
695.21	366.89
695.54	365.06
695.88	363.30
696.21	361.57
696.55	359.84
696.88	358.08
697.22	356.37
697.56	354.71
697.89	353.08
698.23	351.47
698.56	349.83
698.90	348.26
699.23	346.60
699.57	345.00
699.90	343.44
700.24	341.80
700.58	340.28
700.91	338.85
701.25	337.42
701.58	336.08
701.92	334.75
702.25	333.42
702.59	332.04
702.92	330.72
703.26	329.40
703.59	328.19
703.93	327.02
704.26	325.80
704.60	324.58
704.93	323.26
705.26	322.02
705.60	320.81
705.93	319.63
706.27	318.55
706.60	317.51
706.94	316.44
707.27	315.30
707.61	314.19
707.94	313.10
708.27	311.96
708.61	310.80
708.94	309.74
709.28	308.77
709.61	307.78
709.94	306.80
710.28	305.75
710.61	304.77
710.95	303.65
711.28	302.73
711.61	301.74
711.95	300.84
712.28	299.86
712.61	298.88
712.95	297.94
713.28	297.04
713.61	296.11
713.95	295.22
714.28	294.37
714.61	293.48
714.95	292.65
715.28	291.80
715.61	290.96
715.95	290.07
716.28	289.16
716.61	288.31
716.95	287.46
717.28	286.69
717.61	285.87
717.94	285.13
718.28	284.30
718.61	283.52
718.94	282.79
719.27	282.11
719.61	281.46
719.94	280.73
720.27	279.96
720.60	279.30
720.94	278.61
721.27	278.01
721.60	277.44
721.93	276.77
722.27	276.16
722.60	275.59
722.93	274.98
723.26	274.41
723.59	273.86
723.93	273.32
724.26	272.78
724.59	272.21
724.92	271.69
725.25	271.19
725.59	270.60
725.92	270.04
726.25	269.45
726.58	268.91
726.91	268.40
727.24	267.93
727.57	267.41
727.91	266.88
728.24	266.35
728.57	265.83
728.90	265.40
729.23	264.86
729.56	264.40
729.89	263.95
730.22	263.47
730.55	262.96
730.89	262.48
731.22	262.00
731.55	261.51
731.88	261.05
732.21	260.58
732.54	260.18
732.87	259.78
733.20	259.43
733.53	259.07
733.86	258.67
734.19	258.27
734.52	257.89
734.85	257.59
735.18	257.21
735.51	256.84
735.84	256.42
736.17	256.11
736.50	255.67
736.83	255.44
737.16	255.11
737.49	254.77
737.82	254.46
738.15	254.12
738.48	253.82
738.81	253.50
739.14	253.19
739.47	252.89
739.80	252.53
740.13	252.21
740.46	251.86
740.79	251.53
741.12	251.23
741.45	250.89
741.78	250.55
742.11	250.29
742.44	249.96
742.77	249.71
743.10	249.42
743.43	249.16
743.75	248.77
744.08	248.62
744.41	248.36
744.74	248.08
745.07	247.79
745.40	247.54
745.73	247.27
746.06	247.00
746.39	246.76
746.71	246.51
747.04	246.23
747.37	245.95
747.70	245.77
748.03	245.49
748.36	245.26
748.68	245.03
749.01	244.77
749.34	244.55
749.67	244.29
750.00	244.05
750.33	243.86
750.65	243.64
750.98	243.31
751.31	243.09
751.64	242.87
751.97	242.72
752.29	242.46
752.62	242.23
752.95	242.01
753.28	241.79
753.60	241.60
753.93	241.41
754.26	241.26
754.59	241.00
754.91	240.78
755.24	240.59
755.57	240.36
755.90	240.14
756.22	239.96
756.55	239.74
756.88	239.54
757.20	239.30
757.53	239.09
757.86	238.89
758.19	238.71
758.51	238.53
758.84	238.28
759.17	238.12
759.49	237.95
759.82	237.81
760.15	237.60
760.47	237.44
760.80	237.27
761.13	237.09
761.45	236.94
761.78	236.79
762.11	236.63
762.43	236.48
762.76	236.33
763.08	236.14
763.41	236.01
763.74	235.88
764.06	235.75
764.39	235.61
764.71	235.48
765.04	235.33
765.37	235.20
765.69	235.08
766.02	234.92
766.34	234.80
766.67	234.65
767.00	234.57
767.32	234.48
767.65	234.42
767.97	234.27
768.30	234.13
768.62	234.02
768.95	233.93
769.27	233.85
769.60	233.79
769.92	233.69
770.25	233.58
770.57	233.45
770.90	233.34
771.22	233.25
771.55	233.15
771.87	233.05
772.20	232.96
772.52	232.94
772.85	232.99
773.17	232.89
773.50	232.79
773.82	232.69
774.15	232.59
774.47	232.42
774.80	232.35
775.12	232.28
775.45	232.20
775.77	232.12
776.09	232.01
776.42	231.91
776.74	231.86
777.07	231.80
777.39	231.74
777.72	231.69
778.04	231.63
778.36	231.55
778.69	231.49
779.01	231.42
779.33	231.28
779.66	231.12
779.98	231.05
780.31	230.99
780.63	230.99
780.95	230.91
781.28	230.91
781.60	230.84
781.92	230.81
782.25	230.80
782.57	230.71
782.89	230.69
783.22	230.63
783.54	230.57
783.86	230.53
784.19	230.48
784.51	230.47
784.83	230.39
785.16	230.34
785.48	230.29
785.80	230.27
786.12	230.23
786.45	230.17
786.77	230.14
787.09	230.13
787.42	230.03
787.74	229.98
788.06	229.91
788.38	229.87
788.71	229.80
789.03	229.72
789.35	229.70
789.67	229.65
789.99	229.59
790.32	229.54
790.64	229.51
790.96	229.53
791.28	229.43
791.61	229.38
791.93	229.33
792.25	229.27
792.57	229.29
792.89	229.22
793.21	229.18
793.54	229.11
793.86	229.01
794.18	228.97
794.50	228.92
794.82	228.91
795.14	228.88
795.47	228.85
795.79	228.83
796.11	228.78
796.43	228.73
796.75	228.71
797.07	228.66
797.39	228.66
797.71	228.53
798.04	228.50
798.36	228.49
798.68	228.48
799.00	228.47
799.32	228.39
799.64	228.41
799.96	228.37
800.28	228.36
800.60	228.36
800.92	228.30
801.24	228.25
801.56	228.20
801.89	228.17
802.21	228.17
802.53	228.08
802.85	228.09
803.17	228.08
803.49	228.04
803.81	228.00
804.13	227.93
804.45	227.91
804.77	227.89
805.09	227.86
805.41	227.81
805.73	227.74
806.05	227.64
806.37	227.58
806.69	227.51
807.01	227.48
807.33	227.46
807.65	227.42
807.97	227.41
808.28	227.38
808.60	227.31
808.92	227.26
809.24	227.28
809.56	227.22
809.88	227.17
810.20	227.13
810.52	227.12
810.84	227.09
811.16	227.05
811.48	227.05
811.80	227.08
812.12	227.03
812.43	227.05
812.75	227.05
813.07	227.01
813.39	227.01
813.71	226.99
814.03	226.95
814.35	226.93
814.67	226.89
814.98	226.86
815.30	226.87
815.62	226.82
815.94	226.76
816.26	226.78
816.58	226.73
816.89	226.73
817.21	226.69
817.53	226.68
817.85	226.67
818.17	226.66
818.48	226.58
818.80	226.60
819.12	226.58
819.44	226.56
819.76	226.55
820.07	226.56
820.39	226.51
820.71	226.52
821.03	226.55
821.34	226.57
821.66	226.58
821.98	226.58
822.30	226.56
822.61	226.61
822.93	226.56
823.25	226.56
823.57	226.56
823.88	226.59
824.20	226.58
824.52	226.56
824.83	226.53
825.15	226.51
825.47	226.49
825.79	226.49
826.10	226.51
826.42	226.50
826.74	226.48
827.05	226.49
827.37	226.45
827.69	226.41
828.00	226.36
828.32	226.35
828.64	226.32
828.95	226.39
829.27	226.33
829.58	226.31
829.90	226.31
830.22	226.31
830.53	226.28
830.85	226.23
831.17	226.20
831.48	226.18
831.80	226.19
832.11	226.18
832.43	226.15
832.75	226.09
833.06	226.09
833.38	226.08
833.69	226.06
834.01	226.07
834.32	226.06
834.64	226.07
834.96	226.05
835.27	226.04
835.59	225.97
835.90	225.93
836.22	225.95
836.53	225.94
836.85	225.89
837.16	225.96
837.48	225.99
837.79	226.03
838.11	226.00
838.42	225.96
838.74	225.93
839.05	225.89
839.37	225.90
839.68	225.85
840.00	225.84
840.31	225.83
840.63	225.80
840.94	225.75
841.26	225.71
841.57	225.71
841.88	225.70
842.20	225.67
842.51	225.68
842.83	225.64
843.14	225.71
843.46	225.71
843.77	225.66
844.08	225.63
844.40	225.59
844.71	225.56
845.03	225.57
845.34	225.56
845.65	225.57
845.97	225.56
846.28	225.58
846.60	225.57
846.91	225.58
847.22	225.58
847.54	225.61
847.85	225.64
848.16	225.62
848.48	225.60
848.79	225.65
849.10	225.66
849.42	225.66
849.73	225.58
850.04	225.58
850.36	225.54
850.67	225.55
850.98	225.57
851.30	225.62
851.61	225.59
851.92	225.62
852.23	225.64
852.55	225.64
852.86	225.62
853.17	225.64
853.49	225.65
853.80	225.68
854.11	225.68
854.42	225.67
854.74	225.68
855.05	225.70
855.36	225.63
855.67	225.62
855.99	225.60
856.30	225.68
856.61	225.69
856.92	225.69
857.23	225.68
857.55	225.66
857.86	225.64
858.17	225.66
858.48	225.62
858.79	225.60
859.11	225.59
859.42	225.59
859.73	225.55
860.04	225.54
860.35	225.48
860.66	225.46
860.98	225.45
861.29	225.43
861.60	225.40
861.91	225.44
862.22	225.40
862.53	225.40
862.84	225.31
863.16	225.32
863.47	225.31
863.78	225.29
864.09	225.29
864.40	225.28
864.71	225.28
865.02	225.32
865.33	225.29
865.64	225.30
865.95	225.31
866.27	225.37
866.58	225.36
866.89	225.41
867.20	225.41
867.51	225.43
867.82	225.42
868.13	225.45
868.44	225.44
868.75	225.46
869.06	225.46
869.37	225.42
869.68	225.40
869.99	225.41
870.30	225.39
870.61	225.38
870.92	225.40
871.23	225.39
871.54	225.39
871.85	225.43
872.16	225.42
872.47	225.41
872.78	225.34
873.09	225.33
873.40	225.28
873.71	225.27
874.02	225.26
874.33	225.27
874.64	225.24
874.95	225.23
875.26	225.21
875.56	225.24
875.87	225.25
876.18	225.24
876.49	225.34
876.80	225.37
877.11	225.35
877.42	225.33
877.73	225.30
878.04	225.28
878.35	225.26
878.66	225.27
878.96	225.30
879.27	225.30
879.58	225.32
879.89	225.32
880.20	225.38
880.51	225.34
880.82	225.30
881.12	225.33
881.43	225.32
881.74	225.31
882.05	225.26
882.36	225.30
882.67	225.30
882.97	225.20
883.28	225.19
883.59	225.20
883.90	225.21
884.21	225.24
884.51	225.23
884.82	225.19
885.13	225.18
885.44	225.14
885.74	225.16
886.05	225.15
886.36	225.16
886.67	225.12
886.98	225.19
887.28	225.23
887.59	225.24
887.90	225.24
888.20	225.25
888.51	225.28
888.82	225.25
889.13	225.26
889.43	225.32
889.74	225.31
890.05	225.31
890.35	225.31
890.66	225.29
890.97	225.33
891.28	225.34
891.58	225.32
891.89	225.29
892.20	225.27
892.50	225.25
892.81	225.26
893.12	225.20
893.42	225.15
893.73	225.14
894.04	225.11
894.34	225.11
894.65	225.11
894.95	225.11
895.26	225.12
895.57	225.19
895.87	225.12
896.18	225.13
896.48	225.15
896.79	225.16
897.10	225.19
897.40	225.15
897.71	225.19
898.01	225.20
898.32	225.21
898.63	225.19
898.93	225.23
899.24	225.21
899.54	225.24
899.85	225.23
900.15	225.23
900.46	225.22
900.76	225.26
901.07	225.25
901.38	225.27
901.68	225.27
901.99	225.18
902.29	225.17
902.60	225.14
902.90	225.13
903.21	225.13
903.51	225.10
903.82	225.11
904.12	225.10
904.43	225.09
904.73	225.09
905.03	225.14
905.34	225.21
905.64	225.23
905.95	225.24
906.25	225.22
906.56	225.23
906.86	225.25
907.17	225.24
907.47	225.25
907.77	225.21
908.08	225.21
908.38	225.23
908.69	225.23
908.99	225.26
909.30	225.27
909.60	225.26
909.90	225.31
910.21	225.29
910.51	225.29
910.81	225.33
911.12	225.33
911.42	225.30
911.73	225.22
912.03	225.20
912.33	225.22
912.64	225.23
912.94	225.20
913.24	225.18
913.55	225.17
913.85	225.16
914.15	225.21
914.46	225.21
914.76	225.17
915.06	225.15
915.37	225.13
915.67	225.12
915.97	225.13
916.27	225.07
916.58	225.08
916.88	225.06
917.18	225.02
917.49	225.09
917.79	225.10
918.09	225.09
918.39	225.13
918.70	225.12
919.00	225.15
919.30	225.21
919.60	225.23
919.91	225.21
920.21	225.20
920.51	225.15
920.81	225.11
921.12	225.17
921.42	225.19
921.72	225.21
922.02	225.19
922.32	225.18
922.63	225.21
922.93	225.25
923.23	225.23
923.53	225.26
923.83	225.21
924.13	225.18
924.44	225.16
924.74	225.20
925.04	225.20
925.34	225.17
925.64	225.11
925.94	225.08
926.24	225.15
926.55	225.15
926.85	225.15
927.15	225.17
927.45	225.12
927.75	225.14
928.05	225.10
928.35	225.09
928.65	225.10
928.95	225.07
929.26	225.01
929.56	225.07
929.86	225.06
930.16	225.04
930.46	225.05
930.76	225.06
931.06	225.00
931.36	224.99
931.66	225.02
931.96	225.00
932.26	225.01
932.56	224.99
932.86	224.99
933.16	224.99
933.46	224.95
933.76	224.95
934.06	224.93
934.36	224.96
934.66	224.98
934.96	224.98
935.26	224.97
935.56	225.00
935.86	224.94
936.16	224.92
936.46	224.92
936.76	224.91
937.06	224.89
937.36	224.87
937.66	224.85
937.96	224.84
938.26	224.84
938.56	224.83
938.86	224.80
939.16	224.82
939.46	224.84
939.76	224.84
940.06	224.85
940.35	224.82
940.65	224.78
940.95	224.76
941.25	224.73
941.55	224.75
941.85	224.68
942.15	224.71
942.45	224.71
942.75	224.68
943.04	224.67
943.34	224.71
943.64	224.72
943.94	224.72
944.24	224.71
944.54	224.71
944.84	224.72
945.13	224.72
945.43	224.70
945.73	224.69
946.03	224.67
946.33	224.66
946.62	224.66
946.92	224.68
947.22	224.67
947.52	224.66
947.82	224.67
948.11	224.69
948.41	224.66
948.71	224.66
949.01	224.69
949.31	224.71
949.60	224.67
949.90	224.69
950.20	224.68
950.50	224.65
950.79	224.64
951.09	224.66
951.39	224.68
951.69	224.67
951.98	224.67
952.28	224.73
952.58	224.72
952.87	224.70
953.17	224.73
953.47	224.71
953.76	224.74
954.06	224.71
954.36	224.70
954.66	224.71
954.95	224.72
955.25	224.73
955.55	224.70
955.84	224.70
956.14	224.69
956.44	224.72
956.73	224.74
957.03	224.73
957.32	224.74
957.62	224.70
957.92	224.74
958.21	224.73
958.51	224.84
958.81	224.91
959.10	224.95
959.40	224.95
959.69	224.95
959.99	224.94
960.29	224.94
960.58	224.96
960.88	224.98
961.17	224.96
961.47	224.96
961.76	224.98
962.06	225.01
962.36	225.00
962.65	225.00
962.95	224.97
963.24	224.98
963.54	224.98
963.83	224.97
964.13	224.95
964.42	224.95
964.72	224.83
965.01	224.79
965.31	224.80
965.60	224.77
965.90	224.86
966.19	224.85
966.49	224.87
966.78	224.87
967.08	224.88
967.37	224.89
967.67	224.86
967.96	224.90
968.26	224.89
968.55	224.91
968.85	224.90
969.14	224.92
969.43	224.92
969.73	224.90
970.02	224.92
970.32	224.90
970.61	224.88
970.91	224.86
971.20	224.85
971.49	224.79
971.79	224.79
972.08	224.74
972.38	224.75
972.67	224.76
972.96	224.78
973.26	224.77
973.55	224.80
973.85	224.82
974.14	224.79
974.43	224.79
974.73	224.75
975.02	224.73
975.31	224.73
975.61	224.74
975.90	224.74
976.19	224.72
976.49	224.75
976.78	224.75
977.07	224.73
977.37	224.75
977.66	224.78
977.95	224.80
978.24	224.80
978.54	224.81
978.83	224.82
979.12	224.81
979.42	224.80
979.71	224.80
980.00	224.79
980.29	224.80
980.59	224.78
980.88	224.82
981.17	224.81
981.46	224.85
981.76	224.82
982.05	224.84
982.34	224.83
982.63	224.82
982.93	224.86
983.22	224.93
983.51	224.96
983.80	224.98
984.09	225.00
984.39	224.99
984.68	224.97
984.97	224.96
985.26	224.92
985.55	224.92
985.85	224.88
986.14	224.87
986.43	224.85
986.72	224.83
987.01	224.81
987.30	224.83
987.59	224.80
987.89	224.82
988.18	224.80
988.47	224.81
988.76	224.80
989.05	224.73
989.34	224.72
989.63	224.69
989.92	224.69
990.22	224.65
990.51	224.63
990.80	224.61
991.09	224.62
991.38	224.64
991.67	224.64
991.96	224.66
992.25	224.69
992.54	224.69
992.83	224.69
993.12	224.71
993.41	224.72
993.70	224.76
993.99	224.77
994.28	224.79
994.58	224.80
994.87	224.80
995.16	224.84
995.45	224.80
995.74	224.77
996.03	224.77
996.32	224.78
996.61	224.80
996.90	224.81
997.19	224.84
997.48	224.85
997.77	224.85
998.06	224.83
998.34	224.79
998.63	224.81
998.92	224.83
999.21	224.81
999.50	224.81
999.79	224.79
1000.08	224.77
1000.37	224.78
1000.66	224.79
1000.95	224.83
1001.24	224.83
1001.53	224.87
1001.82	224.90
1002.11	224.88
1002.40	224.89
1002.68	224.94
1002.97	225.03
1003.26	224.99
1003.55	224.97
1003.84	224.98
1004.13	225.04
1004.42	225.06
1004.71	225.06
1004.99	225.02
1005.28	225.05
1005.57	225.04
1005.86	225.02
1006.15	225.02
1006.44	225.01
1006.72	225.01
1007.01	225.00
1007.30	225.02
1007.59	224.99
1007.88	224.99
1008.17	224.95
1008.45	224.93
1008.74	224.86
1009.03	224.80
1009.32	224.81
1009.60	224.79
1009.89	224.80
1010.18	224.70
1010.47	224.71
1010.76	224.68
1011.04	224.69
1011.33	224.70
1011.62	224.71
1011.91	224.72
1012.19	224.74
1012.48	224.74
1012.77	224.74
1013.05	224.77
1013.34	224.75
1013.63	224.75
1013.92	224.74
1014.20	224.77
1014.49	224.81
1014.78	224.83
1015.06	224.79
1015.35	224.79
1015.64	224.83
1015.92	224.81
1016.21	224.84
1016.50	224.82
1016.78	224.88
1017.07	224.89
1017.36	224.87
1017.64	224.83
1017.93	224.83
1018.22	224.82
1018.50	224.83
1018.79	224.81
1019.08	224.74
1019.36	224.76
1019.65	224.74
1019.93	224.77
1020.22	224.76
1020.51	224.78
1020.79	224.78
1021.08	224.84
1021.36	225.00
1021.65	224.61
1021.94	224.35
1022.22	225.06
1022.51	224.48
1022.79	225.13
1023.08	224.40
1023.36	225.97
1023.65	224.73
>>>>>End Processed Spectral Data<<<<<
