SpectraSuite Data File
++++++++++++++++++++++++++++++++++++
Date: Fri Feb 01 15:14:51 EST 2013
User: group
Dark Spectrum Present: No
Reference Spectrum Present: No
Number of Sampled Component Spectra: 1
Spectrometers: USB2E7196
Integration Time (usec): 35000 (USB2E7196)
Spectra Averaged: 100 (USB2E7196)
Boxcar Smoothing: 10 (USB2E7196)
Correct for Electrical Dark: No (USB2E7196)
Strobe/Lamp Enabled: No (USB2E7196)
Correct for Detector Non-linearity: No (USB2E7196)
Correct for Stray Light: No (USB2E7196)
Number of Pixels in Processed Spectrum: 2048
>>>>>Begin Processed Spectral Data<<<<<
339.09	0.00
339.48	214.70
339.86	216.51
340.24	217.84
340.63	219.39
341.01	222.41
341.39	222.18
341.78	223.65
342.16	224.68
342.54	224.95
342.93	213.58
343.31	224.38
343.69	224.96
344.07	225.42
344.46	225.88
344.84	226.25
345.22	226.49
345.60	226.74
345.99	226.92
346.37	227.05
346.75	227.14
347.13	227.21
347.52	227.24
347.90	227.28
348.28	227.30
348.66	227.32
349.05	227.29
349.43	227.32
349.81	227.38
350.19	227.46
350.57	227.50
350.96	227.58
351.34	227.67
351.72	227.73
352.10	227.85
352.48	227.90
352.87	227.97
353.25	228.03
353.63	228.09
354.01	228.14
354.39	228.22
354.77	228.30
355.15	228.39
355.54	228.44
355.92	228.52
356.30	228.58
356.68	228.72
357.06	228.80
357.44	228.81
357.82	228.86
358.20	228.93
358.58	228.99
358.97	229.02
359.35	229.08
359.73	229.14
360.11	229.17
360.49	229.23
360.87	229.28
361.25	229.32
361.63	229.40
362.01	229.43
362.39	229.47
362.77	229.51
363.15	229.57
363.53	229.57
363.91	229.59
364.29	229.61
364.67	229.51
365.05	229.52
365.43	229.53
365.81	229.56
366.19	229.57
366.57	229.60
366.95	229.62
367.33	229.56
367.71	229.58
368.09	229.56
368.47	229.56
368.85	229.51
369.23	229.48
369.61	229.40
369.99	229.40
370.37	229.37
370.75	229.34
371.13	229.25
371.51	229.23
371.89	229.15
372.27	229.09
372.65	229.06
373.03	228.99
373.41	228.95
373.78	228.89
374.16	228.78
374.54	228.67
374.92	228.56
375.30	228.51
375.68	228.41
376.06	228.35
376.44	228.24
376.82	228.18
377.19	228.13
377.57	228.03
377.95	227.95
378.33	227.84
378.71	227.72
379.09	227.69
379.47	227.61
379.84	227.53
380.22	227.46
380.60	227.35
380.98	227.27
381.36	227.17
381.73	227.07
382.11	227.00
382.49	226.95
382.87	226.89
383.25	226.81
383.62	226.83
384.00	226.74
384.38	226.67
384.76	226.62
385.13	226.60
385.51	226.58
385.89	226.49
386.27	226.44
386.64	226.45
387.02	226.40
387.40	226.32
387.78	226.30
388.15	226.28
388.53	226.25
388.91	226.25
389.29	226.21
389.66	226.20
390.04	226.18
390.42	226.16
390.79	226.16
391.17	226.16
391.55	226.07
391.92	226.09
392.30	226.09
392.68	226.12
393.05	226.13
393.43	226.14
393.81	226.19
394.18	226.21
394.56	226.20
394.94	226.21
395.31	226.26
395.69	226.31
396.06	226.36
396.44	226.40
396.82	226.45
397.19	226.58
397.57	226.63
397.95	226.70
398.32	226.77
398.70	226.84
399.07	226.93
399.45	227.01
399.82	227.08
400.20	227.19
400.58	227.26
400.95	227.25
401.33	227.40
401.70	227.53
402.08	227.62
402.45	227.74
402.83	227.90
403.20	228.03
403.58	228.15
403.95	228.28
404.33	228.44
404.71	228.54
405.08	228.73
405.46	228.89
405.83	229.07
406.21	229.22
406.58	229.37
406.96	229.52
407.33	229.70
407.70	229.91
408.08	230.18
408.45	230.41
408.83	230.67
409.20	230.86
409.58	231.08
409.95	231.40
410.33	231.68
410.70	231.94
411.08	232.24
411.45	232.56
411.82	232.87
412.20	233.22
412.57	233.66
412.95	233.94
413.32	234.32
413.69	234.72
414.07	235.15
414.44	235.63
414.82	236.16
415.19	236.68
415.56	237.25
415.94	237.77
416.31	238.39
416.68	239.06
417.06	239.75
417.43	240.40
417.81	241.14
418.18	241.92
418.55	242.73
418.93	243.58
419.30	244.44
419.67	245.38
420.04	246.32
420.42	247.31
420.79	248.52
421.16	249.71
421.54	250.87
421.91	252.08
422.28	253.33
422.66	254.62
423.03	255.96
423.40	257.26
423.77	258.70
424.15	260.12
424.52	261.60
424.89	263.23
425.26	264.80
425.64	266.25
426.01	267.81
426.38	269.46
426.75	271.16
427.13	272.88
427.50	274.67
427.87	276.57
428.24	278.43
428.61	280.19
428.99	282.12
429.36	284.27
429.73	286.33
430.10	288.33
430.47	290.38
430.85	292.49
431.22	294.76
431.59	297.14
431.96	299.38
432.33	301.84
432.70	304.25
433.08	307.08
433.45	309.73
433.82	312.36
434.19	315.30
434.56	318.10
434.93	320.78
435.30	323.40
435.68	326.31
436.05	329.19
436.42	331.94
436.79	334.46
437.16	337.12
437.53	339.96
437.90	342.84
438.27	345.59
438.64	348.40
439.01	351.02
439.38	353.22
439.75	355.44
440.13	357.96
440.50	360.31
440.87	362.12
441.24	364.08
441.61	366.28
441.98	367.76
442.35	369.60
442.72	371.49
443.09	373.30
443.46	374.26
443.83	374.80
444.20	375.36
444.57	376.16
444.94	376.50
445.31	376.85
445.68	377.20
446.05	377.29
446.42	376.93
446.79	376.50
447.16	376.07
447.53	375.74
447.90	374.56
448.27	373.36
448.64	371.81
449.01	370.67
449.37	368.67
449.74	366.77
450.11	364.54
450.48	362.04
450.85	359.52
451.22	357.37
451.59	355.37
451.96	353.39
452.33	350.82
452.70	348.41
453.07	345.58
453.43	342.65
453.80	339.88
454.17	337.17
454.54	334.62
454.91	331.90
455.28	329.21
455.65	326.70
456.02	324.23
456.38	322.08
456.75	319.41
457.12	317.17
457.49	314.91
457.86	312.71
458.23	310.84
458.59	308.80
458.96	306.73
459.33	304.85
459.70	303.01
460.07	301.51
460.43	299.79
460.80	298.15
461.17	296.66
461.54	295.21
461.91	293.80
462.27	292.33
462.64	291.04
463.01	289.69
463.38	288.39
463.74	287.03
464.11	285.83
464.48	284.76
464.85	283.60
465.21	282.73
465.58	281.76
465.95	280.64
466.32	279.74
466.68	278.80
467.05	277.93
467.42	277.00
467.78	276.04
468.15	275.16
468.52	274.49
468.88	273.64
469.25	272.80
469.62	272.16
469.98	271.49
470.35	270.84
470.72	270.23
471.08	269.54
471.45	268.98
471.82	268.44
472.18	267.84
472.55	267.40
472.92	266.88
473.28	266.42
473.65	265.99
474.02	265.50
474.38	265.11
474.75	264.72
475.11	264.37
475.48	264.07
475.85	263.81
476.21	263.57
476.58	263.41
476.94	263.27
477.31	263.08
477.67	262.91
478.04	262.80
478.41	262.71
478.77	262.77
479.14	262.68
479.50	262.67
479.87	262.73
480.23	262.74
480.60	262.79
480.96	262.86
481.33	263.04
481.69	263.24
482.06	263.45
482.42	263.70
482.79	263.98
483.15	264.34
483.52	264.74
483.88	265.10
484.25	265.48
484.61	265.92
484.98	266.37
485.34	266.93
485.71	267.53
486.07	268.14
486.44	268.70
486.80	269.42
487.17	270.17
487.53	271.03
487.90	271.92
488.26	272.89
488.62	273.90
488.99	274.91
489.35	275.97
489.72	277.11
490.08	278.28
490.44	279.54
490.81	280.87
491.17	282.24
491.54	283.74
491.90	285.30
492.26	286.94
492.63	288.70
492.99	290.45
493.36	292.32
493.72	294.39
494.08	296.55
494.45	298.83
494.81	301.19
495.17	303.64
495.54	306.19
495.90	308.87
496.26	311.69
496.63	314.65
496.99	317.74
497.35	321.01
497.72	324.38
498.08	327.87
498.44	331.50
498.80	335.44
499.17	339.41
499.53	343.54
499.89	347.91
500.26	352.43
500.62	357.12
500.98	362.08
501.34	367.13
501.71	372.43
502.07	377.85
502.43	383.43
502.79	389.25
503.16	395.34
503.52	401.61
503.88	407.99
504.24	414.60
504.60	421.53
504.97	428.63
505.33	435.96
505.69	443.69
506.05	451.43
506.41	459.25
506.78	467.47
507.14	475.91
507.50	484.58
507.86	493.56
508.22	502.72
508.59	511.93
508.95	521.48
509.31	531.22
509.67	541.28
510.03	551.61
510.39	562.17
510.75	572.97
511.12	583.95
511.48	595.28
511.84	606.69
512.20	618.13
512.56	630.07
512.92	642.27
513.28	654.57
513.64	667.09
514.00	679.75
514.37	692.72
514.73	705.81
515.09	718.86
515.45	732.18
515.81	745.80
516.17	759.82
516.53	773.91
516.89	788.09
517.25	802.25
517.61	816.68
517.97	831.09
518.33	845.51
518.69	860.22
519.05	875.18
519.41	890.39
519.77	906.02
520.13	921.43
520.49	936.88
520.85	952.34
521.21	968.14
521.57	984.53
521.93	1000.31
522.29	1016.71
522.65	1033.05
523.01	1049.25
523.37	1065.34
523.73	1081.63
524.09	1097.83
524.45	1114.17
524.81	1130.95
525.17	1147.83
525.53	1164.88
525.89	1181.82
526.25	1198.65
526.61	1215.18
526.97	1232.04
527.33	1248.68
527.68	1265.36
528.04	1281.86
528.40	1298.51
528.76	1315.63
529.12	1332.19
529.48	1349.07
529.84	1365.17
530.20	1381.92
530.56	1399.06
530.91	1416.45
531.27	1433.19
531.63	1449.70
531.99	1466.44
532.35	1482.46
532.71	1498.35
533.07	1514.67
533.42	1530.57
533.78	1546.68
534.14	1563.03
534.50	1578.40
534.86	1594.22
535.21	1609.59
535.57	1625.67
535.93	1641.26
536.29	1656.07
536.65	1671.43
537.00	1686.31
537.36	1701.74
537.72	1716.34
538.08	1730.82
538.44	1744.88
538.79	1758.89
539.15	1772.77
539.51	1786.62
539.87	1800.97
540.22	1814.84
540.58	1828.69
540.94	1842.30
541.29	1855.38
541.65	1868.09
542.01	1881.46
542.37	1893.79
542.72	1906.26
543.08	1917.98
543.44	1930.37
543.79	1941.72
544.15	1952.69
544.51	1964.22
544.87	1975.16
545.22	1985.94
545.58	1996.29
545.94	2006.03
546.29	2015.98
546.65	2025.65
547.01	2034.90
547.36	2043.75
547.72	2052.25
548.07	2060.09
548.43	2068.25
548.79	2076.32
549.14	2083.99
549.50	2091.39
549.86	2099.24
550.21	2106.45
550.57	2113.66
550.92	2120.28
551.28	2127.40
551.64	2134.25
551.99	2140.94
552.35	2147.13
552.70	2153.31
553.06	2159.10
553.41	2165.32
553.77	2171.29
554.13	2177.40
554.48	2183.54
554.84	2188.90
555.19	2194.26
555.55	2199.31
555.90	2203.68
556.26	2208.44
556.61	2213.12
556.97	2217.20
557.32	2221.36
557.68	2225.56
558.03	2229.85
558.39	2233.69
558.74	2238.28
559.10	2242.28
559.45	2245.82
559.81	2250.09
560.16	2253.89
560.52	2257.08
560.87	2260.58
561.23	2263.13
561.58	2266.20
561.94	2268.53
562.29	2270.95
562.64	2273.55
563.00	2276.13
563.35	2279.61
563.71	2282.94
564.06	2285.99
564.42	2288.86
564.77	2291.18
565.12	2293.45
565.48	2295.25
565.83	2296.93
566.19	2298.10
566.54	2299.05
566.89	2300.16
567.25	2300.58
567.60	2301.88
567.96	2303.56
568.31	2304.43
568.66	2305.54
569.02	2305.98
569.37	2306.37
569.72	2306.91
570.08	2306.93
570.43	2306.85
570.78	2306.04
571.14	2304.19
571.49	2302.81
571.84	2302.40
572.20	2301.17
572.55	2300.00
572.90	2298.40
573.26	2297.03
573.61	2295.32
573.96	2293.29
574.31	2290.19
574.67	2287.15
575.02	2283.39
575.37	2279.90
575.72	2275.92
576.08	2272.52
576.43	2269.10
576.78	2265.31
577.13	2262.38
577.49	2259.27
577.84	2255.86
578.19	2252.20
578.54	2248.57
578.90	2244.32
579.25	2238.73
579.60	2233.64
579.95	2228.59
580.30	2223.61
580.66	2218.32
581.01	2213.39
581.36	2208.39
581.71	2204.20
582.06	2199.65
582.42	2195.08
582.77	2189.80
583.12	2185.06
583.47	2180.16
583.82	2175.01
584.17	2169.63
584.53	2163.95
584.88	2158.07
585.23	2152.01
585.58	2146.39
585.93	2140.90
586.28	2136.03
586.63	2130.67
586.98	2125.54
587.34	2120.59
587.69	2115.41
588.04	2110.02
588.39	2104.02
588.74	2097.50
589.09	2091.30
589.44	2084.53
589.79	2078.50
590.14	2072.81
590.49	2066.23
590.84	2059.88
591.19	2053.69
591.54	2047.28
591.89	2039.69
592.25	2032.96
592.60	2025.86
592.95	2018.17
593.30	2010.58
593.65	2002.83
594.00	1995.83
594.35	1988.61
594.70	1980.61
595.05	1973.37
595.40	1966.02
595.75	1958.52
596.10	1952.29
596.45	1945.46
596.80	1939.24
597.15	1932.48
597.50	1925.28
597.85	1918.79
598.19	1911.95
598.54	1904.87
598.89	1898.16
599.24	1892.30
599.59	1885.42
599.94	1879.07
600.29	1872.78
600.64	1866.29
600.99	1858.75
601.34	1851.85
601.69	1844.82
602.04	1837.78
602.39	1830.36
602.74	1823.60
603.08	1816.88
603.43	1810.06
603.78	1802.58
604.13	1795.23
604.48	1787.86
604.83	1780.99
605.18	1773.80
605.53	1765.77
605.87	1757.64
606.22	1750.35
606.57	1742.47
606.92	1735.17
607.27	1727.88
607.62	1720.98
607.96	1713.54
608.31	1706.86
608.66	1699.18
609.01	1691.54
609.36	1684.07
609.70	1676.13
610.05	1667.84
610.40	1660.04
610.75	1651.62
611.10	1644.03
611.44	1635.67
611.79	1627.68
612.14	1618.97
612.49	1609.96
612.83	1601.63
613.18	1593.63
613.53	1585.50
613.88	1576.77
614.22	1568.62
614.57	1560.19
614.92	1552.09
615.27	1544.56
615.61	1536.27
615.96	1528.37
616.31	1520.77
616.65	1513.40
617.00	1505.79
617.35	1498.18
617.70	1489.79
618.04	1481.37
618.39	1473.20
618.74	1465.58
619.08	1457.37
619.43	1449.81
619.78	1442.93
620.12	1435.84
620.47	1428.40
620.82	1420.31
621.16	1413.06
621.51	1405.40
621.85	1397.83
622.20	1389.25
622.55	1380.91
622.89	1373.16
623.24	1365.63
623.59	1358.34
623.93	1350.84
624.28	1343.66
624.62	1336.24
624.97	1329.13
625.32	1322.47
625.66	1315.39
626.01	1308.24
626.35	1300.70
626.70	1292.99
627.04	1285.27
627.39	1277.44
627.73	1270.02
628.08	1263.03
628.43	1255.61
628.77	1248.24
629.12	1240.53
629.46	1233.44
629.81	1226.09
630.15	1218.95
630.50	1211.43
630.84	1203.19
631.19	1195.30
631.53	1187.78
631.88	1180.22
632.22	1172.62
632.57	1165.29
632.91	1157.79
633.26	1150.45
633.60	1143.14
633.95	1136.05
634.29	1129.04
634.64	1122.45
634.98	1115.06
635.32	1108.01
635.67	1101.50
636.01	1094.80
636.36	1088.06
636.70	1081.51
637.05	1074.91
637.39	1068.38
637.73	1061.91
638.08	1056.02
638.42	1050.03
638.77	1043.56
639.11	1036.89
639.45	1030.56
639.80	1023.83
640.14	1017.45
640.49	1010.92
640.83	1004.61
641.17	998.38
641.52	991.99
641.86	985.55
642.20	979.73
642.55	973.46
642.89	966.90
643.23	960.45
643.58	954.73
643.92	948.58
644.26	942.44
644.61	936.47
644.95	930.39
645.29	923.75
645.64	917.00
645.98	910.70
646.32	905.00
646.66	899.00
647.01	893.26
647.35	887.50
647.69	881.62
648.04	876.20
648.38	870.40
648.72	864.40
649.06	858.34
649.41	852.45
649.75	846.39
650.09	840.48
650.43	834.73
650.78	828.60
651.12	822.64
651.46	816.99
651.80	811.18
652.14	805.83
652.49	800.51
652.83	795.33
653.17	789.63
653.51	783.79
653.85	778.39
654.20	772.68
654.54	766.74
654.88	761.08
655.22	755.15
655.56	749.54
655.90	744.13
656.25	738.90
656.59	733.58
656.93	728.51
657.27	723.41
657.61	717.95
657.95	712.82
658.29	707.76
658.64	702.59
658.98	697.36
659.32	691.90
659.66	686.66
660.00	681.39
660.34	676.46
660.68	671.62
661.02	666.62
661.36	661.97
661.70	657.45
662.05	653.01
662.39	648.66
662.73	644.17
663.07	639.81
663.41	635.33
663.75	630.81
664.09	626.25
664.43	621.80
664.77	617.72
665.11	613.51
665.45	609.37
665.79	605.27
666.13	601.12
666.47	597.03
666.81	592.88
667.15	588.77
667.49	584.94
667.83	581.20
668.17	577.27
668.51	573.24
668.85	569.22
669.19	565.41
669.53	561.56
669.87	557.67
670.21	554.01
670.55	550.38
670.89	547.00
671.23	543.60
671.57	540.14
671.91	536.64
672.25	533.12
672.58	529.64
672.92	526.25
673.26	523.15
673.60	520.04
673.94	516.94
674.28	514.07
674.62	511.11
674.96	508.00
675.30	505.07
675.64	502.14
675.97	499.44
676.31	496.61
676.65	493.75
676.99	491.07
677.33	488.23
677.67	485.42
678.01	482.38
678.34	479.40
678.68	476.57
679.02	473.74
679.36	470.99
679.70	468.23
680.04	465.49
680.37	462.58
680.71	459.81
681.05	457.27
681.39	454.59
681.73	451.91
682.06	449.36
682.40	446.81
682.74	444.31
683.08	441.77
683.42	439.16
683.75	436.64
684.09	434.09
684.43	431.65
684.77	429.19
685.10	426.92
685.44	424.65
685.78	422.35
686.12	420.12
686.45	417.82
686.79	415.56
687.13	413.35
687.46	411.24
687.80	409.13
688.14	406.92
688.48	404.84
688.81	402.60
689.15	400.44
689.49	398.34
689.82	396.26
690.16	394.18
690.50	392.21
690.83	390.28
691.17	388.29
691.51	386.36
691.84	384.57
692.18	382.55
692.52	380.58
692.85	378.68
693.19	376.80
693.52	374.98
693.86	373.18
694.20	371.38
694.53	369.57
694.87	367.75
695.21	365.94
695.54	364.11
695.88	362.38
696.21	360.65
696.55	358.95
696.88	357.25
697.22	355.59
697.56	353.96
697.89	352.29
698.23	350.71
698.56	349.09
698.90	347.47
699.23	345.85
699.57	344.32
699.90	342.78
700.24	341.22
700.58	339.72
700.91	338.20
701.25	336.74
701.58	335.32
701.92	333.92
702.25	332.56
702.59	331.18
702.92	329.90
703.26	328.61
703.59	327.36
703.93	326.19
704.26	324.96
704.60	323.71
704.93	322.47
705.26	321.22
705.60	320.08
705.93	318.92
706.27	317.94
706.60	316.92
706.94	315.83
707.27	314.78
707.61	313.73
707.94	312.76
708.27	311.70
708.61	310.68
708.94	309.70
709.28	308.73
709.61	307.82
709.94	306.90
710.28	305.87
710.61	304.91
710.95	303.86
711.28	302.97
711.61	302.03
711.95	301.11
712.28	300.17
712.61	299.16
712.95	298.23
713.28	297.31
713.61	296.38
713.95	295.53
714.28	294.69
714.61	293.83
714.95	292.99
715.28	292.15
715.61	291.28
715.95	290.47
716.28	289.62
716.61	288.80
716.95	287.98
717.28	287.28
717.61	286.53
717.94	285.81
718.28	285.01
718.61	284.28
718.94	283.62
719.27	282.97
719.61	282.37
719.94	281.74
720.27	281.04
720.60	280.39
720.94	279.74
721.27	279.10
721.60	278.48
721.93	277.88
722.27	277.34
722.60	276.79
722.93	276.19
723.26	275.64
723.59	275.09
723.93	274.53
724.26	274.01
724.59	273.46
724.92	272.93
725.25	272.43
725.59	271.93
725.92	271.38
726.25	270.89
726.58	270.38
726.91	269.92
727.24	269.44
727.57	269.01
727.91	268.51
728.24	268.04
728.57	267.60
728.90	267.15
729.23	266.66
729.56	266.22
729.89	265.77
730.22	265.32
730.55	264.82
730.89	264.39
731.22	263.89
731.55	263.43
731.88	262.99
732.21	262.54
732.54	262.07
732.87	261.69
733.20	261.29
733.53	260.92
733.86	260.49
734.19	260.10
734.52	259.68
734.85	259.37
735.18	258.95
735.51	258.58
735.84	258.22
736.17	257.87
736.50	257.45
736.83	257.20
737.16	256.88
737.49	256.57
737.82	256.22
738.15	255.91
738.48	255.60
738.81	255.26
739.14	254.95
739.47	254.68
739.80	254.37
740.13	254.04
740.46	253.70
740.79	253.38
741.12	253.07
741.45	252.77
741.78	252.42
742.11	252.16
742.44	251.82
742.77	251.50
743.10	251.20
743.43	250.92
743.75	250.55
744.08	250.38
744.41	250.07
744.74	249.77
745.07	249.49
745.40	249.23
745.73	249.00
746.06	248.73
746.39	248.43
746.71	248.16
747.04	247.89
747.37	247.64
747.70	247.40
748.03	247.15
748.36	246.95
748.68	246.70
749.01	246.45
749.34	246.27
749.67	246.03
750.00	245.82
750.33	245.68
750.65	245.46
750.98	245.15
751.31	244.92
751.64	244.73
751.97	244.54
752.29	244.32
752.62	244.09
752.95	243.88
753.28	243.69
753.60	243.48
753.93	243.33
754.26	243.13
754.59	242.88
754.91	242.67
755.24	242.44
755.57	242.28
755.90	242.10
756.22	241.86
756.55	241.69
756.88	241.50
757.20	241.28
757.53	241.10
757.86	240.91
758.19	240.78
758.51	240.61
758.84	240.40
759.17	240.24
759.49	240.10
759.82	239.97
760.15	239.83
760.47	239.64
760.80	239.44
761.13	239.30
761.45	239.17
761.78	239.05
762.11	238.94
762.43	238.79
762.76	238.63
763.08	238.52
763.41	238.37
763.74	238.22
764.06	238.05
764.39	237.89
764.71	237.75
765.04	237.64
765.37	237.54
765.69	237.42
766.02	237.29
766.34	237.12
766.67	236.95
767.00	236.82
767.32	236.77
767.65	236.73
767.97	236.60
768.30	236.48
768.62	236.34
768.95	236.20
769.27	236.07
769.60	235.97
769.92	235.81
770.25	235.73
770.57	235.61
770.90	235.52
771.22	235.43
771.55	235.30
771.87	235.18
772.20	235.05
772.52	235.06
772.85	235.08
773.17	234.98
773.50	234.89
773.82	234.81
774.15	234.69
774.47	234.54
774.80	234.43
775.12	234.35
775.45	234.29
775.77	234.21
776.09	234.15
776.42	234.04
776.74	234.01
777.07	233.93
777.39	233.87
777.72	233.80
778.04	233.73
778.36	233.69
778.69	233.64
779.01	233.57
779.33	233.41
779.66	233.26
779.98	233.22
780.31	233.19
780.63	233.15
780.95	233.13
781.28	233.09
781.60	233.04
781.92	232.96
782.25	232.90
782.57	232.83
782.89	232.75
783.22	232.70
783.54	232.64
783.86	232.60
784.19	232.55
784.51	232.50
784.83	232.43
785.16	232.36
785.48	232.33
785.80	232.28
786.12	232.24
786.45	232.21
786.77	232.18
787.09	232.12
787.42	232.05
787.74	231.96
788.06	231.91
788.38	231.87
788.71	231.84
789.03	231.78
789.35	231.78
789.67	231.73
789.99	231.73
790.32	231.69
790.64	231.63
790.96	231.66
791.28	231.62
791.61	231.57
791.93	231.51
792.25	231.46
792.57	231.49
792.89	231.42
793.21	231.35
793.54	231.29
793.86	231.27
794.18	231.22
794.50	231.19
794.82	231.16
795.14	231.16
795.47	231.13
795.79	231.13
796.11	231.07
796.43	231.08
796.75	230.99
797.07	230.94
797.39	230.90
797.71	230.79
798.04	230.73
798.36	230.72
798.68	230.69
799.00	230.66
799.32	230.59
799.64	230.59
799.96	230.55
800.28	230.53
800.60	230.48
800.92	230.45
801.24	230.39
801.56	230.35
801.89	230.30
802.21	230.26
802.53	230.17
802.85	230.16
803.17	230.14
803.49	230.11
803.81	230.08
804.13	230.06
804.45	230.00
804.77	230.00
805.09	229.98
805.41	229.97
805.73	229.94
806.05	229.88
806.37	229.84
806.69	229.80
807.01	229.76
807.33	229.75
807.65	229.71
807.97	229.74
808.28	229.71
808.60	229.67
808.92	229.65
809.24	229.72
809.56	229.70
809.88	229.65
810.20	229.62
810.52	229.64
810.84	229.57
811.16	229.55
811.48	229.51
811.80	229.50
812.12	229.45
812.43	229.44
812.75	229.40
813.07	229.39
813.39	229.38
813.71	229.33
814.03	229.31
814.35	229.27
814.67	229.21
814.98	229.19
815.30	229.14
815.62	229.09
815.94	229.00
816.26	229.00
816.58	228.98
816.89	228.96
817.21	228.92
817.53	228.94
817.85	228.94
818.17	228.92
818.48	228.87
818.80	228.88
819.12	228.86
819.44	228.85
819.76	228.81
820.07	228.79
820.39	228.75
820.71	228.74
821.03	228.72
821.34	228.68
821.66	228.68
821.98	228.70
822.30	228.70
822.61	228.77
822.93	228.70
823.25	228.65
823.57	228.64
823.88	228.63
824.20	228.64
824.52	228.65
824.83	228.65
825.15	228.62
825.47	228.60
825.79	228.57
826.10	228.55
826.42	228.51
826.74	228.53
827.05	228.55
827.37	228.55
827.69	228.55
828.00	228.59
828.32	228.57
828.64	228.53
828.95	228.57
829.27	228.50
829.58	228.50
829.90	228.52
830.22	228.54
830.53	228.50
830.85	228.47
831.17	228.40
831.48	228.37
831.80	228.36
832.11	228.36
832.43	228.35
832.75	228.32
833.06	228.35
833.38	228.30
833.69	228.29
834.01	228.26
834.32	228.26
834.64	228.22
834.96	228.22
835.27	228.18
835.59	228.14
835.90	228.10
836.22	228.07
836.53	228.05
836.85	228.01
837.16	228.12
837.48	228.12
837.79	228.14
838.11	228.16
838.42	228.16
838.74	228.16
839.05	228.15
839.37	228.14
839.68	228.11
840.00	228.10
840.31	228.12
840.63	228.10
840.94	228.09
841.26	228.05
841.57	228.05
841.88	228.11
842.20	228.09
842.51	228.05
842.83	228.04
843.14	228.12
843.46	228.13
843.77	228.02
844.08	228.03
844.40	228.02
844.71	227.95
845.03	227.98
845.34	228.00
845.65	227.99
845.97	227.98
846.28	227.98
846.60	228.00
846.91	227.92
847.22	227.93
847.54	227.93
847.85	227.95
848.16	227.90
848.48	227.89
848.79	227.92
849.10	227.96
849.42	227.98
849.73	227.88
850.04	227.90
850.36	227.88
850.67	227.85
850.98	227.84
851.30	227.85
851.61	227.83
851.92	227.79
852.23	227.80
852.55	227.85
852.86	227.83
853.17	227.81
853.49	227.86
853.80	227.87
854.11	227.87
854.42	227.89
854.74	227.89
855.05	227.89
855.36	227.84
855.67	227.85
855.99	227.85
856.30	227.97
856.61	227.95
856.92	227.98
857.23	228.01
857.55	228.03
857.86	228.04
858.17	228.04
858.48	228.01
858.79	228.00
859.11	227.96
859.42	227.97
859.73	228.00
860.04	227.96
860.35	227.91
860.66	227.89
860.98	227.85
861.29	227.88
861.60	227.86
861.91	227.86
862.22	227.83
862.53	227.81
862.84	227.72
863.16	227.71
863.47	227.68
863.78	227.66
864.09	227.67
864.40	227.71
864.71	227.72
865.02	227.73
865.33	227.73
865.64	227.74
865.95	227.71
866.27	227.74
866.58	227.77
866.89	227.79
867.20	227.78
867.51	227.81
867.82	227.76
868.13	227.80
868.44	227.80
868.75	227.82
869.06	227.81
869.37	227.77
869.68	227.77
869.99	227.78
870.30	227.80
870.61	227.75
870.92	227.74
871.23	227.71
871.54	227.73
871.85	227.78
872.16	227.80
872.47	227.83
872.78	227.81
873.09	227.78
873.40	227.80
873.71	227.82
874.02	227.82
874.33	227.83
874.64	227.80
874.95	227.81
875.26	227.82
875.56	227.83
875.87	227.85
876.18	227.84
876.49	227.91
876.80	227.87
877.11	227.90
877.42	227.86
877.73	227.85
878.04	227.84
878.35	227.81
878.66	227.78
878.96	227.74
879.27	227.71
879.58	227.71
879.89	227.71
880.20	227.71
880.51	227.69
880.82	227.72
881.12	227.71
881.43	227.66
881.74	227.60
882.05	227.59
882.36	227.59
882.67	227.61
882.97	227.55
883.28	227.54
883.59	227.51
883.90	227.53
884.21	227.54
884.51	227.50
884.82	227.50
885.13	227.51
885.44	227.52
885.74	227.51
886.05	227.52
886.36	227.50
886.67	227.48
886.98	227.53
887.28	227.50
887.59	227.51
887.90	227.50
888.20	227.51
888.51	227.49
888.82	227.46
889.13	227.42
889.43	227.45
889.74	227.42
890.05	227.40
890.35	227.36
890.66	227.35
890.97	227.36
891.28	227.32
891.58	227.26
891.89	227.26
892.20	227.27
892.50	227.23
892.81	227.22
893.12	227.21
893.42	227.14
893.73	227.11
894.04	227.10
894.34	227.12
894.65	227.13
894.95	227.15
895.26	227.16
895.57	227.20
895.87	227.09
896.18	227.12
896.48	227.14
896.79	227.14
897.10	227.14
897.40	227.10
897.71	227.13
898.01	227.14
898.32	227.13
898.63	227.09
898.93	227.11
899.24	227.08
899.54	227.08
899.85	227.11
900.15	227.11
900.46	227.13
900.76	227.16
901.07	227.14
901.38	227.11
901.68	227.13
901.99	227.08
902.29	227.12
902.60	227.10
902.90	227.10
903.21	227.08
903.51	227.07
903.82	227.09
904.12	227.11
904.43	227.13
904.73	227.15
905.03	227.14
905.34	227.23
905.64	227.23
905.95	227.23
906.25	227.21
906.56	227.20
906.86	227.19
907.17	227.17
907.47	227.18
907.77	227.17
908.08	227.14
908.38	227.15
908.69	227.12
908.99	227.13
909.30	227.15
909.60	227.15
909.90	227.15
910.21	227.14
910.51	227.08
910.81	227.08
911.12	227.07
911.42	227.09
911.73	226.98
912.03	227.00
912.33	226.99
912.64	227.01
912.94	227.00
913.24	226.99
913.55	226.96
913.85	226.93
914.15	226.96
914.46	226.95
914.76	226.94
915.06	226.97
915.37	226.98
915.67	226.95
915.97	226.98
916.27	226.96
916.58	226.98
916.88	227.01
917.18	226.98
917.49	227.06
917.79	227.05
918.09	227.09
918.39	227.09
918.70	227.09
919.00	227.08
919.30	227.13
919.60	227.10
919.91	227.12
920.21	227.14
920.51	227.12
920.81	227.13
921.12	227.12
921.42	227.14
921.72	227.14
922.02	227.17
922.32	227.18
922.63	227.20
922.93	227.22
923.23	227.21
923.53	227.19
923.83	227.13
924.13	227.12
924.44	227.10
924.74	227.12
925.04	227.15
925.34	227.15
925.64	227.11
925.94	227.12
926.24	227.14
926.55	227.12
926.85	227.15
927.15	227.16
927.45	227.17
927.75	227.15
928.05	227.13
928.35	227.13
928.65	227.13
928.95	227.15
929.26	227.15
929.56	227.16
929.86	227.20
930.16	227.18
930.46	227.19
930.76	227.18
931.06	227.14
931.36	227.10
931.66	227.14
931.96	227.17
932.26	227.19
932.56	227.21
932.86	227.23
933.16	227.21
933.46	227.19
933.76	227.19
934.06	227.21
934.36	227.26
934.66	227.25
934.96	227.22
935.26	227.22
935.56	227.23
935.86	227.23
936.16	227.22
936.46	227.24
936.76	227.24
937.06	227.25
937.36	227.28
937.66	227.28
937.96	227.25
938.26	227.21
938.56	227.22
938.86	227.21
939.16	227.23
939.46	227.28
939.76	227.29
940.06	227.24
940.35	227.20
940.65	227.13
940.95	227.15
941.25	227.15
941.55	227.10
941.85	227.05
942.15	227.08
942.45	227.10
942.75	227.11
943.04	227.11
943.34	227.15
943.64	227.12
943.94	227.08
944.24	227.07
944.54	227.12
944.84	227.10
945.13	227.07
945.43	227.10
945.73	227.03
946.03	227.01
946.33	227.03
946.62	227.04
946.92	227.06
947.22	227.04
947.52	227.04
947.82	227.07
948.11	227.08
948.41	227.05
948.71	227.01
949.01	226.99
949.31	226.95
949.60	226.94
949.90	226.98
950.20	226.98
950.50	227.00
950.79	226.97
951.09	227.00
951.39	227.01
951.69	226.96
951.98	227.02
952.28	227.06
952.58	227.07
952.87	227.08
953.17	227.10
953.47	227.12
953.76	227.12
954.06	227.07
954.36	227.07
954.66	227.07
954.95	227.09
955.25	227.09
955.55	227.14
955.84	227.09
956.14	227.09
956.44	227.12
956.73	227.11
957.03	227.14
957.32	227.11
957.62	227.10
957.92	227.12
958.21	227.09
958.51	227.21
958.81	227.23
959.10	227.22
959.40	227.22
959.69	227.22
959.99	227.24
960.29	227.30
960.58	227.29
960.88	227.35
961.17	227.34
961.47	227.34
961.76	227.33
962.06	227.38
962.36	227.34
962.65	227.34
962.95	227.32
963.24	227.27
963.54	227.27
963.83	227.26
964.13	227.26
964.42	227.23
964.72	227.13
965.01	227.12
965.31	227.13
965.60	227.12
965.90	227.18
966.19	227.18
966.49	227.13
966.78	227.11
967.08	227.08
967.37	227.11
967.67	227.09
967.96	227.12
968.26	227.13
968.55	227.16
968.85	227.17
969.14	227.13
969.43	227.18
969.73	227.17
970.02	227.19
970.32	227.17
970.61	227.16
970.91	227.14
971.20	227.11
971.49	227.10
971.79	227.10
972.08	227.01
972.38	227.00
972.67	227.03
972.96	227.06
973.26	227.11
973.55	227.10
973.85	227.13
974.14	227.08
974.43	227.09
974.73	227.06
975.02	227.07
975.31	227.10
975.61	227.08
975.90	227.09
976.19	227.07
976.49	227.10
976.78	227.12
977.07	227.13
977.37	227.16
977.66	227.21
977.95	227.20
978.24	227.21
978.54	227.23
978.83	227.22
979.12	227.24
979.42	227.19
979.71	227.17
980.00	227.16
980.29	227.19
980.59	227.17
980.88	227.19
981.17	227.17
981.46	227.17
981.76	227.16
982.05	227.20
982.34	227.23
982.63	227.21
982.93	227.19
983.22	227.20
983.51	227.18
983.80	227.17
984.09	227.17
984.39	227.18
984.68	227.16
984.97	227.15
985.26	227.08
985.55	227.08
985.85	227.07
986.14	227.09
986.43	227.07
986.72	227.05
987.01	226.99
987.30	226.99
987.59	226.99
987.89	227.00
988.18	226.93
988.47	226.92
988.76	226.90
989.05	226.94
989.34	226.94
989.63	226.94
989.92	226.90
990.22	226.89
990.51	226.89
990.80	226.89
991.09	226.91
991.38	226.96
991.67	226.96
991.96	226.95
992.25	226.91
992.54	226.89
992.83	226.87
993.12	226.90
993.41	226.93
993.70	226.95
993.99	226.95
994.28	226.96
994.58	226.96
994.87	226.93
995.16	226.89
995.45	226.86
995.74	226.83
996.03	226.86
996.32	226.90
996.61	226.90
996.90	226.91
997.19	226.89
997.48	226.89
997.77	226.88
998.06	226.89
998.34	226.93
998.63	226.97
998.92	226.99
999.21	227.00
999.50	226.97
999.79	226.94
1000.08	226.95
1000.37	226.96
1000.66	226.95
1000.95	227.01
1001.24	227.04
1001.53	227.07
1001.82	227.08
1002.11	227.05
1002.40	227.03
1002.68	227.06
1002.97	227.12
1003.26	227.12
1003.55	227.14
1003.84	227.15
1004.13	227.15
1004.42	227.12
1004.71	227.11
1004.99	227.13
1005.28	227.15
1005.57	227.17
1005.86	227.17
1006.15	227.15
1006.44	227.15
1006.72	227.17
1007.01	227.15
1007.30	227.13
1007.59	227.12
1007.88	227.11
1008.17	227.14
1008.45	227.16
1008.74	227.13
1009.03	227.10
1009.32	227.09
1009.60	227.11
1009.89	227.09
1010.18	227.06
1010.47	227.08
1010.76	227.07
1011.04	227.06
1011.33	227.09
1011.62	227.10
1011.91	227.13
1012.19	227.18
1012.48	227.19
1012.77	227.21
1013.05	227.26
1013.34	227.27
1013.63	227.31
1013.92	227.31
1014.20	227.32
1014.49	227.31
1014.78	227.34
1015.06	227.30
1015.35	227.35
1015.64	227.35
1015.92	227.37
1016.21	227.40
1016.50	227.39
1016.78	227.43
1017.07	227.44
1017.36	227.38
1017.64	227.36
1017.93	227.34
1018.22	227.29
1018.50	227.27
1018.79	227.25
1019.08	227.19
1019.36	227.18
1019.65	227.14
1019.93	227.15
1020.22	227.10
1020.51	227.09
1020.79	227.06
1021.08	226.92
1021.36	226.79
1021.65	227.09
1021.94	226.85
1022.22	226.91
1022.51	226.71
1022.79	226.96
1023.08	226.16
1023.36	227.55
1023.65	226.61
>>>>>End Processed Spectral Data<<<<<
