SpectraSuite Data File
++++++++++++++++++++++++++++++++++++
Date: Fri Feb 01 15:34:43 EST 2013
User: group
Dark Spectrum Present: No
Reference Spectrum Present: No
Number of Sampled Component Spectra: 1
Spectrometers: USB2E7196
Integration Time (usec): 35000 (USB2E7196)
Spectra Averaged: 100 (USB2E7196)
Boxcar Smoothing: 10 (USB2E7196)
Correct for Electrical Dark: No (USB2E7196)
Strobe/Lamp Enabled: No (USB2E7196)
Correct for Detector Non-linearity: No (USB2E7196)
Correct for Stray Light: No (USB2E7196)
Number of Pixels in Processed Spectrum: 2048
>>>>>Begin Processed Spectral Data<<<<<
339.09	0.00
339.48	214.71
339.86	216.40
340.24	217.69
340.63	218.99
341.01	221.98
341.39	221.79
341.78	223.60
342.16	224.21
342.54	225.16
342.93	213.37
343.31	224.15
343.69	224.71
344.07	225.17
344.46	225.60
344.84	226.00
345.22	226.25
345.60	226.49
345.99	226.69
346.37	226.82
346.75	226.92
347.13	226.96
347.52	227.00
347.90	227.10
348.28	227.12
348.66	227.17
349.05	227.18
349.43	227.19
349.81	227.23
350.19	227.26
350.57	227.32
350.96	227.39
351.34	227.45
351.72	227.52
352.10	227.61
352.48	227.66
352.87	227.70
353.25	227.73
353.63	227.78
354.01	227.83
354.39	227.90
354.77	227.95
355.15	228.07
355.54	228.12
355.92	228.12
356.30	228.19
356.68	228.30
357.06	228.35
357.44	228.41
357.82	228.46
358.20	228.53
358.58	228.58
358.97	228.63
359.35	228.70
359.73	228.78
360.11	228.84
360.49	228.91
360.87	228.97
361.25	229.04
361.63	229.10
362.01	229.12
362.39	229.16
362.77	229.19
363.15	229.21
363.53	229.23
363.91	229.28
364.29	229.30
364.67	229.23
365.05	229.24
365.43	229.30
365.81	229.32
366.19	229.34
366.57	229.37
366.95	229.34
367.33	229.31
367.71	229.29
368.09	229.27
368.47	229.26
368.85	229.24
369.23	229.22
369.61	229.17
369.99	229.17
370.37	229.16
370.75	229.21
371.13	229.13
371.51	229.10
371.89	229.08
372.27	229.01
372.65	228.97
373.03	228.93
373.41	228.84
373.78	228.77
374.16	228.68
374.54	228.57
374.92	228.51
375.30	228.47
375.68	228.38
376.06	228.35
376.44	228.30
376.82	228.23
377.19	228.16
377.57	228.10
377.95	228.02
378.33	227.91
378.71	227.76
379.09	227.74
379.47	227.67
379.84	227.58
380.22	227.52
380.60	227.44
380.98	227.38
381.36	227.32
381.73	227.25
382.11	227.20
382.49	227.17
382.87	227.11
383.25	227.05
383.62	227.11
384.00	227.00
384.38	226.92
384.76	226.89
385.13	226.88
385.51	226.83
385.89	226.77
386.27	226.75
386.64	226.73
387.02	226.67
387.40	226.64
387.78	226.59
388.15	226.57
388.53	226.54
388.91	226.48
389.29	226.43
389.66	226.41
390.04	226.37
390.42	226.37
390.79	226.36
391.17	226.36
391.55	226.22
391.92	226.24
392.30	226.27
392.68	226.22
393.05	226.20
393.43	226.24
393.81	226.26
394.18	226.26
394.56	226.27
394.94	226.31
395.31	226.30
395.69	226.38
396.06	226.41
396.44	226.42
396.82	226.46
397.19	226.57
397.57	226.63
397.95	226.71
398.32	226.72
398.70	226.80
399.07	226.83
399.45	226.93
399.82	226.99
400.20	227.05
400.58	227.17
400.95	227.23
401.33	227.32
401.70	227.48
402.08	227.57
402.45	227.64
402.83	227.77
403.20	227.92
403.58	228.00
403.95	228.14
404.33	228.27
404.71	228.43
405.08	228.61
405.46	228.72
405.83	228.87
406.21	229.04
406.58	229.21
406.96	229.39
407.33	229.57
407.70	229.78
408.08	230.05
408.45	230.24
408.83	230.49
409.20	230.68
409.58	230.85
409.95	231.15
410.33	231.45
410.70	231.71
411.08	231.98
411.45	232.28
411.82	232.58
412.20	232.95
412.57	233.35
412.95	233.65
413.32	234.05
413.69	234.46
414.07	234.90
414.44	235.31
414.82	235.80
415.19	236.34
415.56	236.88
415.94	237.39
416.31	238.03
416.68	238.65
417.06	239.40
417.43	240.12
417.81	240.87
418.18	241.66
418.55	242.48
418.93	243.38
419.30	244.29
419.67	245.23
420.04	246.22
420.42	247.21
420.79	248.36
421.16	249.53
421.54	250.73
421.91	251.94
422.28	253.25
422.66	254.58
423.03	255.90
423.40	257.23
423.77	258.64
424.15	260.10
424.52	261.59
424.89	263.21
425.26	264.74
425.64	266.16
426.01	267.77
426.38	269.43
426.75	271.08
427.13	272.77
427.50	274.59
427.87	276.42
428.24	278.30
428.61	280.06
428.99	282.02
429.36	284.14
429.73	286.21
430.10	288.22
430.47	290.26
430.85	292.40
431.22	294.62
431.59	297.06
431.96	299.31
432.33	301.74
432.70	304.12
433.08	306.95
433.45	309.62
433.82	312.20
434.19	315.09
434.56	317.90
434.93	320.60
435.30	323.23
435.68	326.15
436.05	328.96
436.42	331.76
436.79	334.23
437.16	336.92
437.53	339.74
437.90	342.55
438.27	345.29
438.64	348.11
439.01	350.69
439.38	352.88
439.75	355.07
440.13	357.63
440.50	359.93
440.87	361.73
441.24	363.68
441.61	365.82
441.98	367.29
442.35	369.10
442.72	370.91
443.09	372.72
443.46	373.68
443.83	374.29
444.20	374.74
444.57	375.61
444.94	375.88
445.31	376.24
445.68	376.60
446.05	376.66
446.42	376.26
446.79	375.84
447.16	375.41
447.53	375.03
447.90	373.82
448.27	372.68
448.64	371.12
449.01	369.96
449.37	368.00
449.74	366.09
450.11	363.82
450.48	361.37
450.85	358.79
451.22	356.67
451.59	354.63
451.96	352.72
452.33	350.11
452.70	347.75
453.07	344.93
453.43	342.02
453.80	339.26
454.17	336.56
454.54	334.02
454.91	331.30
455.28	328.63
455.65	326.16
456.02	323.73
456.38	321.55
456.75	318.90
457.12	316.64
457.49	314.45
457.86	312.31
458.23	310.45
458.59	308.46
458.96	306.38
459.33	304.52
459.70	302.67
460.07	301.16
460.43	299.45
460.80	297.80
461.17	296.37
461.54	294.90
461.91	293.50
462.27	292.05
462.64	290.78
463.01	289.45
463.38	288.15
463.74	286.77
464.11	285.65
464.48	284.62
464.85	283.53
465.21	282.67
465.58	281.72
465.95	280.63
466.32	279.69
466.68	278.77
467.05	277.87
467.42	276.95
467.78	276.03
468.15	275.16
468.52	274.52
468.88	273.65
469.25	272.86
469.62	272.25
469.98	271.57
470.35	270.96
470.72	270.33
471.08	269.67
471.45	269.12
471.82	268.53
472.18	267.92
472.55	267.47
472.92	266.92
473.28	266.48
473.65	266.06
474.02	265.63
474.38	265.23
474.75	264.91
475.11	264.59
475.48	264.33
475.85	264.09
476.21	263.84
476.58	263.62
476.94	263.47
477.31	263.23
477.67	263.08
478.04	262.94
478.41	262.88
478.77	262.90
479.14	262.82
479.50	262.85
479.87	262.94
480.23	263.02
480.60	263.07
480.96	263.15
481.33	263.32
481.69	263.50
482.06	263.75
482.42	263.93
482.79	264.15
483.15	264.44
483.52	264.81
483.88	265.16
484.25	265.56
484.61	265.95
484.98	266.42
485.34	266.99
485.71	267.56
486.07	268.17
486.44	268.74
486.80	269.44
487.17	270.15
487.53	270.97
487.90	271.81
488.26	272.73
488.62	273.71
488.99	274.72
489.35	275.75
489.72	276.83
490.08	278.04
490.44	279.29
490.81	280.64
491.17	281.96
491.54	283.44
491.90	285.00
492.26	286.66
492.63	288.45
492.99	290.21
493.36	292.09
493.72	294.14
494.08	296.25
494.45	298.50
494.81	300.87
495.17	303.29
495.54	305.83
495.90	308.58
496.26	311.36
496.63	314.28
496.99	317.43
497.35	320.69
497.72	324.15
498.08	327.68
498.44	331.35
498.80	335.29
499.17	339.35
499.53	343.52
499.89	347.89
500.26	352.33
500.62	356.95
500.98	361.94
501.34	367.04
501.71	372.33
502.07	377.80
502.43	383.42
502.79	389.25
503.16	395.33
503.52	401.58
503.88	408.03
504.24	414.69
504.60	421.59
504.97	428.72
505.33	436.01
505.69	443.72
506.05	451.52
506.41	459.42
506.78	467.58
507.14	476.00
507.50	484.79
507.86	493.87
508.22	503.15
508.59	512.39
508.95	521.93
509.31	531.80
509.67	541.89
510.03	552.21
510.39	562.75
510.75	573.53
511.12	584.49
511.48	595.84
511.84	607.30
512.20	618.84
512.56	630.87
512.92	643.10
513.28	655.45
513.64	667.93
514.00	680.64
514.37	693.50
514.73	706.58
515.09	719.64
515.45	732.87
515.81	746.47
516.17	760.43
516.53	774.59
516.89	788.82
517.25	802.96
517.61	817.39
517.97	831.94
518.33	846.36
518.69	861.12
519.05	876.11
519.41	891.26
519.77	906.78
520.13	922.21
520.49	937.58
520.85	952.98
521.21	968.67
521.57	984.92
521.93	1000.80
522.29	1017.22
522.65	1033.45
523.01	1049.78
523.37	1065.86
523.73	1082.06
524.09	1098.21
524.45	1114.49
524.81	1131.25
525.17	1148.10
525.53	1164.93
525.89	1181.93
526.25	1198.73
526.61	1215.08
526.97	1231.84
527.33	1248.41
527.68	1265.00
528.04	1281.47
528.40	1298.15
528.76	1315.36
529.12	1331.98
529.48	1348.79
529.84	1364.83
530.20	1381.44
530.56	1398.48
530.91	1415.86
531.27	1432.76
531.63	1449.22
531.99	1465.84
532.35	1481.83
532.71	1497.68
533.07	1514.07
533.42	1529.93
533.78	1546.03
534.14	1562.34
534.50	1577.78
534.86	1593.60
535.21	1608.80
535.57	1624.83
535.93	1640.32
536.29	1655.00
536.65	1670.18
537.00	1685.16
537.36	1700.59
537.72	1715.24
538.08	1729.60
538.44	1743.43
538.79	1757.30
539.15	1770.99
539.51	1784.71
539.87	1799.18
540.22	1813.13
540.58	1826.89
540.94	1840.31
541.29	1853.26
541.65	1866.01
542.01	1879.20
542.37	1891.49
542.72	1903.90
543.08	1915.67
543.44	1928.20
543.79	1939.59
544.15	1950.54
544.51	1962.01
544.87	1972.94
545.22	1983.81
545.58	1994.14
545.94	2003.98
546.29	2013.80
546.65	2023.73
547.01	2033.03
547.36	2041.69
547.72	2050.00
548.07	2057.71
548.43	2065.93
548.79	2073.98
549.14	2081.54
549.50	2088.96
549.86	2096.80
550.21	2104.20
550.57	2111.43
550.92	2117.87
551.28	2124.97
551.64	2132.09
551.99	2138.55
552.35	2144.64
552.70	2150.59
553.06	2156.51
553.41	2162.78
553.77	2168.79
554.13	2174.92
554.48	2181.11
554.84	2186.50
555.19	2191.91
555.55	2197.18
555.90	2201.52
556.26	2206.42
556.61	2211.21
556.97	2215.37
557.32	2219.36
557.68	2223.46
558.03	2227.74
558.39	2231.64
558.74	2236.11
559.10	2239.92
559.45	2243.75
559.81	2248.14
560.16	2252.07
560.52	2255.31
560.87	2258.83
561.23	2261.54
561.58	2264.48
561.94	2266.93
562.29	2269.30
562.64	2271.95
563.00	2274.59
563.35	2278.19
563.71	2281.39
564.06	2284.53
564.42	2287.60
564.77	2290.16
565.12	2292.46
565.48	2294.18
565.83	2295.83
566.19	2297.20
566.54	2298.12
566.89	2299.16
567.25	2299.72
567.60	2301.12
567.96	2302.87
568.31	2303.70
568.66	2304.79
569.02	2305.33
569.37	2305.64
569.72	2306.51
570.08	2306.61
570.43	2306.52
570.78	2305.82
571.14	2304.20
571.49	2302.81
571.84	2302.27
572.20	2301.02
572.55	2299.82
572.90	2298.42
573.26	2297.04
573.61	2295.26
573.96	2293.50
574.31	2290.50
574.67	2287.37
575.02	2283.65
575.37	2280.22
575.72	2276.28
576.08	2272.92
576.43	2269.54
576.78	2265.74
577.13	2262.57
577.49	2259.40
577.84	2255.89
578.19	2252.10
578.54	2248.36
578.90	2244.00
579.25	2238.44
579.60	2233.51
579.95	2228.46
580.30	2223.36
580.66	2218.14
581.01	2213.10
581.36	2208.07
581.71	2203.71
582.06	2199.28
582.42	2194.71
582.77	2189.33
583.12	2184.66
583.47	2179.74
583.82	2174.58
584.17	2169.32
584.53	2163.74
584.88	2158.02
585.23	2152.24
585.58	2146.84
585.93	2141.31
586.28	2136.66
586.63	2131.55
586.98	2126.28
587.34	2121.67
587.69	2116.75
588.04	2111.41
588.39	2105.69
588.74	2099.17
589.09	2093.15
589.44	2086.33
589.79	2080.25
590.14	2074.50
590.49	2067.98
590.84	2061.61
591.19	2055.56
591.54	2049.11
591.89	2041.53
592.25	2034.68
592.60	2027.44
592.95	2019.71
593.30	2012.33
593.65	2004.63
594.00	1997.54
594.35	1990.51
594.70	1982.46
595.05	1975.12
595.40	1967.84
595.75	1960.30
596.10	1954.07
596.45	1947.21
596.80	1941.06
597.15	1934.39
597.50	1927.39
597.85	1920.91
598.19	1914.29
598.54	1907.14
598.89	1900.54
599.24	1894.77
599.59	1887.97
599.94	1881.79
600.29	1875.54
600.64	1868.89
600.99	1861.38
601.34	1854.61
601.69	1847.54
602.04	1840.53
602.39	1833.14
602.74	1826.33
603.08	1819.76
603.43	1813.01
603.78	1805.67
604.13	1798.39
604.48	1791.10
604.83	1784.15
605.18	1777.15
605.53	1769.18
605.87	1761.12
606.22	1753.82
606.57	1745.65
606.92	1738.45
607.27	1731.14
607.62	1724.17
607.96	1716.89
608.31	1710.25
608.66	1702.51
609.01	1694.88
609.36	1687.27
609.70	1679.18
610.05	1671.07
610.40	1663.28
610.75	1654.97
611.10	1647.30
611.44	1638.94
611.79	1630.94
612.14	1622.29
612.49	1613.01
612.83	1604.53
613.18	1596.45
613.53	1588.34
613.88	1579.87
614.22	1571.50
614.57	1562.91
614.92	1554.84
615.27	1547.19
615.61	1538.83
615.96	1530.74
616.31	1523.12
616.65	1515.83
617.00	1508.35
617.35	1500.61
617.70	1492.15
618.04	1483.55
618.39	1475.25
618.74	1467.49
619.08	1459.19
619.43	1451.61
619.78	1444.67
620.12	1437.45
620.47	1429.88
620.82	1421.69
621.16	1414.32
621.51	1406.64
621.85	1398.95
622.20	1390.39
622.55	1382.16
622.89	1374.31
623.24	1366.73
623.59	1359.35
623.93	1351.75
624.28	1344.56
624.62	1337.05
624.97	1329.99
625.32	1323.17
625.66	1316.21
626.01	1308.95
626.35	1301.35
626.70	1293.57
627.04	1285.96
627.39	1278.11
627.73	1270.80
628.08	1263.93
628.43	1256.56
628.77	1249.30
629.12	1241.84
629.46	1234.69
629.81	1227.25
630.15	1220.02
630.50	1212.70
630.84	1204.39
631.19	1196.54
631.53	1188.97
631.88	1181.40
632.22	1173.73
632.57	1166.45
632.91	1158.87
633.26	1151.50
633.60	1144.24
633.95	1137.28
634.29	1130.17
634.64	1123.59
634.98	1116.16
635.32	1109.06
635.67	1102.60
636.01	1095.94
636.36	1089.08
636.70	1082.69
637.05	1076.11
637.39	1069.66
637.73	1063.11
638.08	1057.32
638.42	1051.40
638.77	1045.00
639.11	1038.48
639.45	1032.08
639.80	1025.45
640.14	1019.08
640.49	1012.66
640.83	1006.33
641.17	1000.00
641.52	993.76
641.86	987.45
642.20	981.68
642.55	975.29
642.89	968.74
643.23	962.32
643.58	956.54
643.92	950.26
644.26	944.23
644.61	938.24
644.95	932.24
645.29	925.63
645.64	918.75
645.98	912.38
646.32	906.53
646.66	900.62
647.01	894.87
647.35	889.12
647.69	883.33
648.04	877.87
648.38	872.10
648.72	866.04
649.06	859.91
649.41	853.97
649.75	847.95
650.09	842.00
650.43	836.10
650.78	829.98
651.12	823.98
651.46	818.21
651.80	812.43
652.14	807.04
652.49	801.76
652.83	796.63
653.17	790.95
653.51	785.17
653.85	779.68
654.20	773.94
654.54	768.01
654.88	762.28
655.22	756.41
655.56	750.72
655.90	745.33
656.25	740.02
656.59	734.65
656.93	729.63
657.27	724.48
657.61	719.03
657.95	713.84
658.29	708.72
658.64	703.46
658.98	698.21
659.32	692.71
659.66	687.41
660.00	682.03
660.34	677.07
660.68	672.21
661.02	667.23
661.36	662.58
661.70	658.04
662.05	653.59
662.39	649.16
662.73	644.71
663.07	640.26
663.41	635.83
663.75	631.34
664.09	626.80
664.43	622.45
664.77	618.35
665.11	614.20
665.45	610.14
665.79	606.09
666.13	601.92
666.47	597.82
666.81	593.71
667.15	589.66
667.49	585.84
667.83	582.01
668.17	578.03
668.51	573.94
668.85	569.97
669.19	566.16
669.53	562.40
669.87	558.52
670.21	554.85
670.55	551.18
670.89	547.74
671.23	544.29
671.57	540.76
671.91	537.29
672.25	533.79
672.58	530.28
672.92	526.89
673.26	523.76
673.60	520.64
673.94	517.47
674.28	514.54
674.62	511.54
674.96	508.48
675.30	505.56
675.64	502.66
675.97	499.89
676.31	497.04
676.65	494.08
676.99	491.39
677.33	488.58
677.67	485.85
678.01	482.84
678.34	479.85
678.68	477.01
679.02	474.17
679.36	471.44
679.70	468.72
680.04	465.96
680.37	463.09
680.71	460.28
681.05	457.76
681.39	455.10
681.73	452.47
682.06	449.96
682.40	447.39
682.74	444.93
683.08	442.36
683.42	439.81
683.75	437.36
684.09	434.78
684.43	432.35
684.77	429.86
685.10	427.56
685.44	425.30
685.78	423.04
686.12	420.79
686.45	418.53
686.79	416.26
687.13	414.10
687.46	411.98
687.80	409.87
688.14	407.68
688.48	405.64
688.81	403.42
689.15	401.26
689.49	399.19
689.82	397.09
690.16	394.98
690.50	393.08
690.83	391.17
691.17	389.19
691.51	387.24
691.84	385.39
692.18	383.42
692.52	381.42
692.85	379.41
693.19	377.52
693.52	375.68
693.86	373.88
694.20	372.06
694.53	370.25
694.87	368.43
695.21	366.61
695.54	364.78
695.88	363.05
696.21	361.31
696.55	359.65
696.88	357.97
697.22	356.31
697.56	354.62
697.89	352.91
698.23	351.31
698.56	349.69
698.90	348.09
699.23	346.50
699.57	344.96
699.90	343.47
700.24	341.90
700.58	340.35
700.91	338.83
701.25	337.34
701.58	335.92
701.92	334.55
702.25	333.18
702.59	331.77
702.92	330.45
703.26	329.10
703.59	327.77
703.93	326.58
704.26	325.33
704.60	324.00
704.93	322.76
705.26	321.51
705.60	320.31
705.93	319.14
706.27	318.07
706.60	316.99
706.94	315.92
707.27	314.80
707.61	313.69
707.94	312.64
708.27	311.56
708.61	310.47
708.94	309.46
709.28	308.48
709.61	307.52
709.94	306.51
710.28	305.48
710.61	304.50
710.95	303.39
711.28	302.46
711.61	301.52
711.95	300.58
712.28	299.63
712.61	298.66
712.95	297.73
713.28	296.83
713.61	295.95
713.95	295.05
714.28	294.22
714.61	293.37
714.95	292.56
715.28	291.71
715.61	290.86
715.95	289.96
716.28	289.06
716.61	288.22
716.95	287.46
717.28	286.76
717.61	286.01
717.94	285.29
718.28	284.53
718.61	283.83
718.94	283.14
719.27	282.49
719.61	281.85
719.94	281.20
720.27	280.47
720.60	279.82
720.94	279.21
721.27	278.65
721.60	278.10
721.93	277.52
722.27	277.01
722.60	276.44
722.93	275.90
723.26	275.36
723.59	274.83
723.93	274.26
724.26	273.74
724.59	273.17
724.92	272.65
725.25	272.12
725.59	271.60
725.92	271.11
726.25	270.61
726.58	270.15
726.91	269.65
727.24	269.23
727.57	268.76
727.91	268.26
728.24	267.74
728.57	267.24
728.90	266.79
729.23	266.29
729.56	265.88
729.89	265.36
730.22	264.90
730.55	264.39
730.89	263.98
731.22	263.48
731.55	263.04
731.88	262.60
732.21	262.19
732.54	261.75
732.87	261.33
733.20	260.94
733.53	260.54
733.86	260.19
734.19	259.76
734.52	259.37
734.85	259.06
735.18	258.70
735.51	258.37
735.84	257.98
736.17	257.64
736.50	257.21
736.83	257.04
737.16	256.72
737.49	256.44
737.82	256.08
738.15	255.76
738.48	255.43
738.81	255.13
739.14	254.80
739.47	254.47
739.80	254.13
740.13	253.78
740.46	253.45
740.79	253.12
741.12	252.85
741.45	252.54
741.78	252.16
742.11	251.86
742.44	251.51
742.77	251.23
743.10	250.91
743.43	250.62
743.75	250.24
744.08	250.09
744.41	249.80
744.74	249.53
745.07	249.24
745.40	249.00
745.73	248.77
746.06	248.49
746.39	248.26
746.71	247.97
747.04	247.70
747.37	247.41
747.70	247.14
748.03	246.86
748.36	246.60
748.68	246.39
749.01	246.09
749.34	245.83
749.67	245.57
750.00	245.37
750.33	245.21
750.65	245.01
750.98	244.66
751.31	244.43
751.64	244.22
751.97	244.11
752.29	243.86
752.62	243.58
752.95	243.35
753.28	243.13
753.60	242.95
753.93	242.77
754.26	242.62
754.59	242.38
754.91	242.17
755.24	242.01
755.57	241.80
755.90	241.64
756.22	241.48
756.55	241.27
756.88	241.09
757.20	240.86
757.53	240.66
757.86	240.51
758.19	240.36
758.51	240.21
758.84	239.96
759.17	239.84
759.49	239.69
759.82	239.59
760.15	239.44
760.47	239.31
760.80	239.17
761.13	239.07
761.45	238.94
761.78	238.81
762.11	238.66
762.43	238.53
762.76	238.41
763.08	238.28
763.41	238.18
763.74	238.04
764.06	237.91
764.39	237.79
764.71	237.67
765.04	237.53
765.37	237.38
765.69	237.27
766.02	237.12
766.34	237.02
766.67	236.88
767.00	236.77
767.32	236.70
767.65	236.65
767.97	236.52
768.30	236.44
768.62	236.31
768.95	236.20
769.27	236.08
769.60	235.98
769.92	235.85
770.25	235.72
770.57	235.62
770.90	235.51
771.22	235.39
771.55	235.29
771.87	235.20
772.20	235.09
772.52	235.05
772.85	235.07
773.17	234.99
773.50	234.88
773.82	234.80
774.15	234.66
774.47	234.51
774.80	234.42
775.12	234.32
775.45	234.24
775.77	234.18
776.09	234.12
776.42	234.06
776.74	234.04
777.07	233.99
777.39	233.89
777.72	233.83
778.04	233.74
778.36	233.66
778.69	233.62
779.01	233.57
779.33	233.42
779.66	233.25
779.98	233.21
780.31	233.15
780.63	233.12
780.95	233.04
781.28	232.95
781.60	232.85
781.92	232.80
782.25	232.74
782.57	232.68
782.89	232.62
783.22	232.53
783.54	232.46
783.86	232.38
784.19	232.32
784.51	232.27
784.83	232.20
785.16	232.13
785.48	232.04
785.80	231.99
786.12	231.96
786.45	231.87
786.77	231.77
787.09	231.72
787.42	231.63
787.74	231.59
788.06	231.54
788.38	231.50
788.71	231.46
789.03	231.42
789.35	231.35
789.67	231.25
789.99	231.20
790.32	231.14
790.64	231.11
790.96	231.13
791.28	231.03
791.61	230.99
791.93	230.96
792.25	230.94
792.57	230.97
792.89	230.89
793.21	230.85
793.54	230.79
793.86	230.75
794.18	230.68
794.50	230.63
794.82	230.58
795.14	230.55
795.47	230.47
795.79	230.42
796.11	230.36
796.43	230.37
796.75	230.34
797.07	230.31
797.39	230.26
797.71	230.14
798.04	230.16
798.36	230.12
798.68	230.08
799.00	230.04
799.32	229.93
799.64	229.93
799.96	229.91
800.28	229.91
800.60	229.87
800.92	229.86
801.24	229.83
801.56	229.81
801.89	229.78
802.21	229.81
802.53	229.78
802.85	229.79
803.17	229.78
803.49	229.74
803.81	229.69
804.13	229.66
804.45	229.68
804.77	229.65
805.09	229.64
805.41	229.62
805.73	229.62
806.05	229.61
806.37	229.57
806.69	229.57
807.01	229.55
807.33	229.56
807.65	229.53
807.97	229.59
808.28	229.57
808.60	229.54
808.92	229.44
809.24	229.50
809.56	229.47
809.88	229.45
810.20	229.46
810.52	229.47
810.84	229.44
811.16	229.39
811.48	229.40
811.80	229.39
812.12	229.39
812.43	229.35
812.75	229.34
813.07	229.32
813.39	229.28
813.71	229.25
814.03	229.22
814.35	229.20
814.67	229.14
814.98	229.11
815.30	229.10
815.62	229.12
815.94	229.01
816.26	229.05
816.58	228.99
816.89	228.98
817.21	228.94
817.53	228.94
817.85	228.95
818.17	228.91
818.48	228.87
818.80	228.84
819.12	228.82
819.44	228.77
819.76	228.73
820.07	228.74
820.39	228.70
820.71	228.69
821.03	228.68
821.34	228.64
821.66	228.65
821.98	228.67
822.30	228.65
822.61	228.72
822.93	228.64
823.25	228.63
823.57	228.59
823.88	228.60
824.20	228.60
824.52	228.57
824.83	228.55
825.15	228.50
825.47	228.45
825.79	228.43
826.10	228.42
826.42	228.41
826.74	228.38
827.05	228.37
827.37	228.34
827.69	228.32
828.00	228.29
828.32	228.25
828.64	228.20
828.95	228.25
829.27	228.20
829.58	228.22
829.90	228.21
830.22	228.18
830.53	228.12
830.85	228.09
831.17	228.07
831.48	228.07
831.80	228.09
832.11	228.11
832.43	228.07
832.75	228.04
833.06	228.09
833.38	228.09
833.69	228.04
834.01	228.02
834.32	228.02
834.64	228.00
834.96	227.99
835.27	227.97
835.59	227.89
835.90	227.82
836.22	227.78
836.53	227.74
836.85	227.72
837.16	227.83
837.48	227.81
837.79	227.80
838.11	227.80
838.42	227.76
838.74	227.75
839.05	227.77
839.37	227.79
839.68	227.70
840.00	227.69
840.31	227.72
840.63	227.70
840.94	227.68
841.26	227.67
841.57	227.66
841.88	227.67
842.20	227.65
842.51	227.67
842.83	227.67
843.14	227.75
843.46	227.75
843.77	227.68
844.08	227.69
844.40	227.68
844.71	227.65
845.03	227.68
845.34	227.70
845.65	227.71
845.97	227.68
846.28	227.71
846.60	227.69
846.91	227.68
847.22	227.67
847.54	227.68
847.85	227.69
848.16	227.70
848.48	227.68
848.79	227.72
849.10	227.69
849.42	227.71
849.73	227.66
850.04	227.65
850.36	227.62
850.67	227.62
850.98	227.64
851.30	227.64
851.61	227.62
851.92	227.60
852.23	227.61
852.55	227.61
852.86	227.61
853.17	227.62
853.49	227.63
853.80	227.69
854.11	227.69
854.42	227.68
854.74	227.68
855.05	227.69
855.36	227.67
855.67	227.68
855.99	227.66
856.30	227.76
856.61	227.74
856.92	227.73
857.23	227.72
857.55	227.69
857.86	227.67
858.17	227.67
858.48	227.63
858.79	227.58
859.11	227.58
859.42	227.57
859.73	227.57
860.04	227.56
860.35	227.50
860.66	227.45
860.98	227.45
861.29	227.45
861.60	227.45
861.91	227.46
862.22	227.43
862.53	227.41
862.84	227.29
863.16	227.33
863.47	227.29
863.78	227.27
864.09	227.30
864.40	227.27
864.71	227.26
865.02	227.26
865.33	227.28
865.64	227.28
865.95	227.27
866.27	227.33
866.58	227.29
866.89	227.29
867.20	227.32
867.51	227.31
867.82	227.29
868.13	227.29
868.44	227.24
868.75	227.25
869.06	227.22
869.37	227.21
869.68	227.17
869.99	227.17
870.30	227.14
870.61	227.12
870.92	227.15
871.23	227.15
871.54	227.15
871.85	227.16
872.16	227.16
872.47	227.15
872.78	227.09
873.09	227.09
873.40	227.09
873.71	227.07
874.02	227.07
874.33	227.05
874.64	227.02
874.95	227.05
875.26	227.04
875.56	227.10
875.87	227.12
876.18	227.13
876.49	227.27
876.80	227.27
877.11	227.26
877.42	227.25
877.73	227.27
878.04	227.29
878.35	227.30
878.66	227.31
878.96	227.30
879.27	227.28
879.58	227.27
879.89	227.27
880.20	227.31
880.51	227.29
880.82	227.28
881.12	227.30
881.43	227.31
881.74	227.30
882.05	227.25
882.36	227.25
882.67	227.23
882.97	227.11
883.28	227.11
883.59	227.14
883.90	227.15
884.21	227.14
884.51	227.13
884.82	227.08
885.13	227.07
885.44	227.10
885.74	227.11
886.05	227.13
886.36	227.13
886.67	227.10
886.98	227.17
887.28	227.21
887.59	227.20
887.90	227.19
888.20	227.22
888.51	227.25
888.82	227.23
889.13	227.28
889.43	227.36
889.74	227.36
890.05	227.35
890.35	227.35
890.66	227.36
890.97	227.33
891.28	227.35
891.58	227.39
891.89	227.35
892.20	227.37
892.50	227.36
892.81	227.36
893.12	227.34
893.42	227.28
893.73	227.26
894.04	227.24
894.34	227.23
894.65	227.22
894.95	227.18
895.26	227.19
895.57	227.19
895.87	227.09
896.18	227.08
896.48	227.06
896.79	227.07
897.10	227.06
897.40	227.08
897.71	227.11
898.01	227.04
898.32	227.07
898.63	227.03
898.93	227.05
899.24	227.04
899.54	227.04
899.85	227.04
900.15	227.08
900.46	227.10
900.76	227.09
901.07	227.07
901.38	227.09
901.68	227.09
901.99	227.06
902.29	227.09
902.60	227.07
902.90	227.06
903.21	227.02
903.51	227.01
903.82	227.02
904.12	227.02
904.43	227.05
904.73	227.03
905.03	227.03
905.34	227.12
905.64	227.13
905.95	227.13
906.25	227.11
906.56	227.08
906.86	227.07
907.17	227.08
907.47	227.08
907.77	227.09
908.08	227.09
908.38	227.10
908.69	227.08
908.99	227.11
909.30	227.13
909.60	227.14
909.90	227.13
910.21	227.13
910.51	227.08
910.81	227.08
911.12	227.09
911.42	227.10
911.73	226.99
912.03	226.98
912.33	226.98
912.64	226.97
912.94	226.95
913.24	226.91
913.55	226.90
913.85	226.93
914.15	226.88
914.46	226.89
914.76	226.86
915.06	226.85
915.37	226.82
915.67	226.80
915.97	226.80
916.27	226.80
916.58	226.78
916.88	226.80
917.18	226.79
917.49	226.84
917.79	226.85
918.09	226.87
918.39	226.90
918.70	226.89
919.00	226.90
919.30	226.94
919.60	226.94
919.91	226.97
920.21	226.95
920.51	226.97
920.81	226.97
921.12	226.99
921.42	227.01
921.72	227.02
922.02	227.06
922.32	227.09
922.63	227.09
922.93	227.09
923.23	227.09
923.53	227.07
923.83	227.03
924.13	227.03
924.44	227.03
924.74	227.05
925.04	227.09
925.34	227.08
925.64	227.05
925.94	227.06
926.24	227.09
926.55	227.11
926.85	227.10
927.15	227.08
927.45	227.11
927.75	227.11
928.05	227.10
928.35	227.08
928.65	227.11
928.95	227.09
929.26	227.11
929.56	227.12
929.86	227.15
930.16	227.14
930.46	227.16
930.76	227.13
931.06	227.08
931.36	227.05
931.66	227.08
931.96	227.12
932.26	227.11
932.56	227.07
932.86	227.03
933.16	227.05
933.46	227.04
933.76	227.02
934.06	227.03
934.36	227.07
934.66	227.08
934.96	227.09
935.26	227.13
935.56	227.16
935.86	227.11
936.16	227.10
936.46	227.09
936.76	227.07
937.06	227.07
937.36	227.11
937.66	227.11
937.96	227.10
938.26	227.08
938.56	227.09
938.86	227.13
939.16	227.18
939.46	227.21
939.76	227.18
940.06	227.20
940.35	227.19
940.65	227.14
940.95	227.14
941.25	227.08
941.55	227.04
941.85	227.01
942.15	227.05
942.45	227.08
942.75	227.07
943.04	227.07
943.34	227.09
943.64	227.09
943.94	227.06
944.24	227.07
944.54	227.05
944.84	227.03
945.13	226.97
945.43	226.92
945.73	226.88
946.03	226.92
946.33	226.88
946.62	226.90
946.92	226.88
947.22	226.86
947.52	226.87
947.82	226.89
948.11	226.88
948.41	226.83
948.71	226.79
949.01	226.78
949.31	226.78
949.60	226.78
949.90	226.77
950.20	226.79
950.50	226.78
950.79	226.81
951.09	226.85
951.39	226.89
951.69	226.90
951.98	226.90
952.28	226.89
952.58	226.93
952.87	226.89
953.17	226.94
953.47	226.97
953.76	226.97
954.06	226.98
954.36	226.98
954.66	227.02
954.95	227.03
955.25	227.07
955.55	227.07
955.84	227.06
956.14	227.05
956.44	227.04
956.73	227.03
957.03	227.03
957.32	227.03
957.62	227.00
957.92	227.00
958.21	227.02
958.51	227.14
958.81	227.15
959.10	227.18
959.40	227.17
959.69	227.16
959.99	227.17
960.29	227.17
960.58	227.16
960.88	227.16
961.17	227.15
961.47	227.15
961.76	227.13
962.06	227.16
962.36	227.16
962.65	227.15
962.95	227.19
963.24	227.14
963.54	227.14
963.83	227.16
964.13	227.16
964.42	227.12
964.72	227.01
965.01	226.98
965.31	226.94
965.60	226.93
965.90	226.99
966.19	226.96
966.49	226.94
966.78	226.92
967.08	226.95
967.37	226.95
967.67	226.93
967.96	226.94
968.26	226.92
968.55	226.94
968.85	226.94
969.14	226.89
969.43	226.93
969.73	226.89
970.02	226.89
970.32	226.88
970.61	226.89
970.91	226.83
971.20	226.83
971.49	226.84
971.79	226.88
972.08	226.80
972.38	226.83
972.67	226.85
972.96	226.87
973.26	226.82
973.55	226.86
973.85	226.84
974.14	226.83
974.43	226.83
974.73	226.80
975.02	226.81
975.31	226.82
975.61	226.81
975.90	226.81
976.19	226.80
976.49	226.78
976.78	226.77
977.07	226.81
977.37	226.77
977.66	226.80
977.95	226.74
978.24	226.74
978.54	226.75
978.83	226.75
979.12	226.75
979.42	226.76
979.71	226.72
980.00	226.73
980.29	226.74
980.59	226.73
980.88	226.78
981.17	226.79
981.46	226.78
981.76	226.78
982.05	226.81
982.34	226.80
982.63	226.82
982.93	226.85
983.22	226.90
983.51	226.95
983.80	226.95
984.09	226.99
984.39	226.97
984.68	226.97
984.97	226.97
985.26	226.98
985.55	226.97
985.85	227.00
986.14	227.02
986.43	227.02
986.72	227.01
987.01	226.96
987.30	226.93
987.59	226.94
987.89	226.96
988.18	226.91
988.47	226.91
988.76	226.90
989.05	226.90
989.34	226.85
989.63	226.86
989.92	226.85
990.22	226.84
990.51	226.85
990.80	226.83
991.09	226.84
991.38	226.85
991.67	226.85
991.96	226.80
992.25	226.79
992.54	226.77
992.83	226.78
993.12	226.75
993.41	226.75
993.70	226.79
993.99	226.79
994.28	226.86
994.58	226.91
994.87	226.90
995.16	226.89
995.45	226.89
995.74	226.81
996.03	226.82
996.32	226.82
996.61	226.87
996.90	226.84
997.19	226.82
997.48	226.79
997.77	226.78
998.06	226.75
998.34	226.78
998.63	226.78
998.92	226.76
999.21	226.78
999.50	226.79
999.79	226.77
1000.08	226.74
1000.37	226.72
1000.66	226.70
1000.95	226.73
1001.24	226.70
1001.53	226.73
1001.82	226.78
1002.11	226.74
1002.40	226.73
1002.68	226.73
1002.97	226.79
1003.26	226.78
1003.55	226.77
1003.84	226.75
1004.13	226.81
1004.42	226.77
1004.71	226.75
1004.99	226.73
1005.28	226.76
1005.57	226.75
1005.86	226.72
1006.15	226.71
1006.44	226.68
1006.72	226.65
1007.01	226.61
1007.30	226.63
1007.59	226.59
1007.88	226.57
1008.17	226.57
1008.45	226.57
1008.74	226.53
1009.03	226.47
1009.32	226.48
1009.60	226.48
1009.89	226.49
1010.18	226.46
1010.47	226.46
1010.76	226.48
1011.04	226.49
1011.33	226.50
1011.62	226.51
1011.91	226.51
1012.19	226.54
1012.48	226.54
1012.77	226.53
1013.05	226.60
1013.34	226.56
1013.63	226.57
1013.92	226.60
1014.20	226.58
1014.49	226.58
1014.78	226.62
1015.06	226.63
1015.35	226.64
1015.64	226.66
1015.92	226.65
1016.21	226.67
1016.50	226.69
1016.78	226.71
1017.07	226.69
1017.36	226.67
1017.64	226.65
1017.93	226.64
1018.22	226.60
1018.50	226.58
1018.79	226.61
1019.08	226.57
1019.36	226.59
1019.65	226.59
1019.93	226.62
1020.22	226.66
1020.51	226.72
1020.79	226.67
1021.08	225.93
1021.36	226.26
1021.65	227.07
1021.94	226.52
1022.22	226.38
1022.51	226.41
1022.79	227.41
1023.08	227.05
1023.36	227.98
1023.65	226.39
>>>>>End Processed Spectral Data<<<<<
