SpectraSuite Data File
++++++++++++++++++++++++++++++++++++
Date: Fri Feb 01 15:32:47 EST 2013
User: group
Dark Spectrum Present: No
Reference Spectrum Present: No
Number of Sampled Component Spectra: 1
Spectrometers: USB2E7196
Integration Time (usec): 35000 (USB2E7196)
Spectra Averaged: 100 (USB2E7196)
Boxcar Smoothing: 10 (USB2E7196)
Correct for Electrical Dark: No (USB2E7196)
Strobe/Lamp Enabled: No (USB2E7196)
Correct for Detector Non-linearity: No (USB2E7196)
Correct for Stray Light: No (USB2E7196)
Number of Pixels in Processed Spectrum: 2048
>>>>>Begin Processed Spectral Data<<<<<
339.09	0.00
339.48	215.34
339.86	216.40
340.24	217.47
340.63	218.86
341.01	221.77
341.39	221.82
341.78	223.34
342.16	224.44
342.54	224.55
342.93	213.14
343.31	223.93
343.69	224.45
344.07	224.90
344.46	225.34
344.84	225.73
345.22	225.97
345.60	226.22
345.99	226.42
346.37	226.53
346.75	226.66
347.13	226.76
347.52	226.82
347.90	226.91
348.28	226.94
348.66	227.01
349.05	227.03
349.43	227.04
349.81	227.09
350.19	227.14
350.57	227.21
350.96	227.31
351.34	227.37
351.72	227.46
352.10	227.58
352.48	227.64
352.87	227.68
353.25	227.74
353.63	227.82
354.01	227.88
354.39	227.98
354.77	228.03
355.15	228.12
355.54	228.18
355.92	228.21
356.30	228.30
356.68	228.39
357.06	228.44
357.44	228.50
357.82	228.53
358.20	228.59
358.58	228.63
358.97	228.65
359.35	228.75
359.73	228.84
360.11	228.89
360.49	228.95
360.87	229.01
361.25	229.05
361.63	229.09
362.01	229.11
362.39	229.12
362.77	229.17
363.15	229.20
363.53	229.21
363.91	229.23
364.29	229.27
364.67	229.21
365.05	229.20
365.43	229.19
365.81	229.21
366.19	229.27
366.57	229.33
366.95	229.33
367.33	229.31
367.71	229.29
368.09	229.28
368.47	229.27
368.85	229.24
369.23	229.24
369.61	229.18
369.99	229.20
370.37	229.20
370.75	229.19
371.13	229.14
371.51	229.08
371.89	229.06
372.27	228.98
372.65	228.95
373.03	228.89
373.41	228.85
373.78	228.81
374.16	228.70
374.54	228.60
374.92	228.55
375.30	228.45
375.68	228.35
376.06	228.28
376.44	228.19
376.82	228.14
377.19	228.10
377.57	228.05
377.95	227.95
378.33	227.85
378.71	227.75
379.09	227.68
379.47	227.65
379.84	227.57
380.22	227.50
380.60	227.41
380.98	227.36
381.36	227.32
381.73	227.24
382.11	227.19
382.49	227.10
382.87	227.02
383.25	226.95
383.62	227.01
384.00	226.94
384.38	226.94
384.76	226.90
385.13	226.84
385.51	226.78
385.89	226.71
386.27	226.70
386.64	226.66
387.02	226.64
387.40	226.59
387.78	226.52
388.15	226.50
388.53	226.48
388.91	226.44
389.29	226.38
389.66	226.39
390.04	226.34
390.42	226.39
390.79	226.38
391.17	226.37
391.55	226.26
391.92	226.26
392.30	226.24
392.68	226.21
393.05	226.20
393.43	226.23
393.81	226.26
394.18	226.22
394.56	226.25
394.94	226.24
395.31	226.27
395.69	226.35
396.06	226.39
396.44	226.44
396.82	226.45
397.19	226.55
397.57	226.57
397.95	226.65
398.32	226.64
398.70	226.73
399.07	226.81
399.45	226.86
399.82	226.93
400.20	226.99
400.58	227.07
400.95	227.13
401.33	227.19
401.70	227.33
402.08	227.47
402.45	227.54
402.83	227.71
403.20	227.82
403.58	227.93
403.95	228.05
404.33	228.19
404.71	228.30
405.08	228.50
405.46	228.63
405.83	228.80
406.21	228.99
406.58	229.11
406.96	229.29
407.33	229.47
407.70	229.64
408.08	229.95
408.45	230.16
408.83	230.40
409.20	230.64
409.58	230.82
409.95	231.07
410.33	231.35
410.70	231.59
411.08	231.88
411.45	232.19
411.82	232.51
412.20	232.87
412.57	233.31
412.95	233.57
413.32	233.99
413.69	234.38
414.07	234.80
414.44	235.25
414.82	235.73
415.19	236.28
415.56	236.85
415.94	237.34
416.31	237.99
416.68	238.61
417.06	239.30
417.43	239.99
417.81	240.76
418.18	241.54
418.55	242.35
418.93	243.23
419.30	244.09
419.67	245.04
420.04	245.97
420.42	246.99
420.79	248.19
421.16	249.33
421.54	250.54
421.91	251.76
422.28	253.04
422.66	254.36
423.03	255.69
423.40	257.00
423.77	258.44
424.15	259.89
424.52	261.37
424.89	262.99
425.26	264.54
425.64	266.01
426.01	267.57
426.38	269.27
426.75	270.93
427.13	272.66
427.50	274.43
427.87	276.35
428.24	278.21
428.61	279.96
428.99	281.88
429.36	284.00
429.73	286.06
430.10	288.09
430.47	290.17
430.85	292.29
431.22	294.58
431.59	296.98
431.96	299.22
432.33	301.73
432.70	304.10
433.08	306.93
433.45	309.57
433.82	312.23
434.19	315.14
434.56	317.95
434.93	320.61
435.30	323.23
435.68	326.13
436.05	328.96
436.42	331.73
436.79	334.24
437.16	336.91
437.53	339.78
437.90	342.59
438.27	345.35
438.64	348.19
439.01	350.74
439.38	352.99
439.75	355.16
440.13	357.72
440.50	360.03
440.87	361.92
441.24	363.86
441.61	366.00
441.98	367.48
442.35	369.25
442.72	371.15
443.09	373.03
443.46	374.02
443.83	374.58
444.20	375.14
444.57	376.01
444.94	376.28
445.31	376.59
445.68	376.98
446.05	377.05
446.42	376.68
446.79	376.30
447.16	375.87
447.53	375.54
447.90	374.26
448.27	373.14
448.64	371.53
449.01	370.37
449.37	368.40
449.74	366.47
450.11	364.29
450.48	361.81
450.85	359.26
451.22	357.06
451.59	355.05
451.96	353.10
452.33	350.49
452.70	348.14
453.07	345.31
453.43	342.35
453.80	339.55
454.17	336.86
454.54	334.25
454.91	331.47
455.28	328.80
455.65	326.35
456.02	323.91
456.38	321.76
456.75	319.07
457.12	316.82
457.49	314.60
457.86	312.40
458.23	310.51
458.59	308.47
458.96	306.38
459.33	304.51
459.70	302.62
460.07	301.11
460.43	299.36
460.80	297.76
461.17	296.32
461.54	294.83
461.91	293.37
462.27	291.96
462.64	290.71
463.01	289.33
463.38	288.06
463.74	286.68
464.11	285.46
464.48	284.50
464.85	283.36
465.21	282.49
465.58	281.56
465.95	280.46
466.32	279.51
466.68	278.65
467.05	277.79
467.42	276.90
467.78	275.94
468.15	275.08
468.52	274.41
468.88	273.57
469.25	272.80
469.62	272.19
469.98	271.53
470.35	270.91
470.72	270.31
471.08	269.62
471.45	269.05
471.82	268.50
472.18	267.87
472.55	267.46
472.92	266.95
473.28	266.51
473.65	266.07
474.02	265.64
474.38	265.26
474.75	264.93
475.11	264.60
475.48	264.39
475.85	264.15
476.21	263.92
476.58	263.71
476.94	263.56
477.31	263.41
477.67	263.27
478.04	263.15
478.41	263.13
478.77	263.18
479.14	263.13
479.50	263.18
479.87	263.25
480.23	263.32
480.60	263.36
480.96	263.46
481.33	263.66
481.69	263.87
482.06	264.07
482.42	264.29
482.79	264.54
483.15	264.82
483.52	265.20
483.88	265.52
484.25	265.90
484.61	266.33
484.98	266.77
485.34	267.31
485.71	267.88
486.07	268.44
486.44	269.01
486.80	269.75
487.17	270.47
487.53	271.30
487.90	272.14
488.26	273.09
488.62	274.09
488.99	275.06
489.35	276.08
489.72	277.21
490.08	278.39
490.44	279.65
490.81	281.00
491.17	282.36
491.54	283.87
491.90	285.42
492.26	287.09
492.63	288.80
492.99	290.59
493.36	292.51
493.72	294.59
494.08	296.68
494.45	298.91
494.81	301.27
495.17	303.67
495.54	306.28
495.90	308.95
496.26	311.72
496.63	314.68
496.99	317.83
497.35	321.07
497.72	324.47
498.08	327.93
498.44	331.63
498.80	335.55
499.17	339.57
499.53	343.78
499.89	348.11
500.26	352.66
500.62	357.27
500.98	362.21
501.34	367.27
501.71	372.61
502.07	378.02
502.43	383.56
502.79	389.39
503.16	395.45
503.52	401.75
503.88	408.12
504.24	414.74
504.60	421.56
504.97	428.68
505.33	436.01
505.69	443.77
506.05	451.53
506.41	459.41
506.78	467.58
507.14	476.01
507.50	484.70
507.86	493.71
508.22	502.94
508.59	512.09
508.95	521.65
509.31	531.45
509.67	541.62
510.03	551.93
510.39	562.50
510.75	573.28
511.12	584.25
511.48	595.55
511.84	606.95
512.20	618.50
512.56	630.47
512.92	642.65
513.28	654.92
513.64	667.38
514.00	680.12
514.37	693.03
514.73	706.03
515.09	719.19
515.45	732.48
515.81	746.09
516.17	760.16
516.53	774.37
516.89	788.56
517.25	802.74
517.61	817.28
517.97	831.82
518.33	846.26
518.69	860.99
519.05	876.03
519.41	891.28
519.77	906.80
520.13	922.23
520.49	937.62
520.85	953.20
521.21	969.05
521.57	985.39
521.93	1001.30
522.29	1017.80
522.65	1034.01
523.01	1050.19
523.37	1066.32
523.73	1082.60
524.09	1098.64
524.45	1114.98
524.81	1131.67
525.17	1148.51
525.53	1165.35
525.89	1182.27
526.25	1199.21
526.61	1215.66
526.97	1232.57
527.33	1249.15
527.68	1265.95
528.04	1282.54
528.40	1299.03
528.76	1316.05
529.12	1332.70
529.48	1349.62
529.84	1365.75
530.20	1382.51
530.56	1399.67
530.91	1417.00
531.27	1433.67
531.63	1450.25
531.99	1466.96
532.35	1483.01
532.71	1498.91
533.07	1515.21
533.42	1531.19
533.78	1547.10
534.14	1563.43
534.50	1578.68
534.86	1594.57
535.21	1609.71
535.57	1625.69
535.93	1641.30
536.29	1656.25
536.65	1671.26
537.00	1686.09
537.36	1701.35
537.72	1715.81
538.08	1730.28
538.44	1744.27
538.79	1758.20
539.15	1771.92
539.51	1785.54
539.87	1799.86
540.22	1813.66
540.58	1827.60
540.94	1840.97
541.29	1854.06
541.65	1866.76
542.01	1880.05
542.37	1892.44
542.72	1904.89
543.08	1916.77
543.44	1929.19
543.79	1940.31
544.15	1951.35
544.51	1962.92
544.87	1973.93
545.22	1984.83
545.58	1994.96
545.94	2004.57
546.29	2014.51
546.65	2024.35
547.01	2033.72
547.36	2042.49
547.72	2051.01
548.07	2058.85
548.43	2066.94
548.79	2075.05
549.14	2082.63
549.50	2090.05
549.86	2097.85
550.21	2105.16
550.57	2112.22
550.92	2118.86
551.28	2125.98
551.64	2133.01
551.99	2139.56
552.35	2145.72
552.70	2151.81
553.06	2157.76
553.41	2164.19
553.77	2170.27
554.13	2176.41
554.48	2182.56
554.84	2187.96
555.19	2193.25
555.55	2198.29
555.90	2202.85
556.26	2207.56
556.61	2212.23
556.97	2216.42
557.32	2220.38
557.68	2224.54
558.03	2228.86
558.39	2232.62
558.74	2237.28
559.10	2241.11
559.45	2244.71
559.81	2249.08
560.16	2252.94
560.52	2256.29
560.87	2259.83
561.23	2262.51
561.58	2265.44
561.94	2267.99
562.29	2270.29
562.64	2272.98
563.00	2275.65
563.35	2279.20
563.71	2282.40
564.06	2285.68
564.42	2288.57
564.77	2291.10
565.12	2293.17
565.48	2294.94
565.83	2296.71
566.19	2297.84
566.54	2298.91
566.89	2300.10
567.25	2300.55
567.60	2301.96
567.96	2303.58
568.31	2304.26
568.66	2305.17
569.02	2305.68
569.37	2305.79
569.72	2306.73
570.08	2306.65
570.43	2306.69
570.78	2306.01
571.14	2304.38
571.49	2302.91
571.84	2302.55
572.20	2301.41
572.55	2300.51
572.90	2299.05
573.26	2297.49
573.61	2295.80
573.96	2293.77
574.31	2290.55
574.67	2287.54
575.02	2283.83
575.37	2280.45
575.72	2276.58
576.08	2273.41
576.43	2270.14
576.78	2266.49
577.13	2263.24
577.49	2260.18
577.84	2256.53
578.19	2252.66
578.54	2248.90
578.90	2244.50
579.25	2238.90
579.60	2233.96
579.95	2228.91
580.30	2223.68
580.66	2218.52
581.01	2213.58
581.36	2208.66
581.71	2204.54
582.06	2200.10
582.42	2195.47
582.77	2190.04
583.12	2185.39
583.47	2180.47
583.82	2175.18
584.17	2169.83
584.53	2164.32
584.88	2158.63
585.23	2152.83
585.58	2147.44
585.93	2142.05
586.28	2137.46
586.63	2132.26
586.98	2127.07
587.34	2122.32
587.69	2117.52
588.04	2112.32
588.39	2106.55
588.74	2100.10
589.09	2093.88
589.44	2086.86
589.79	2080.87
590.14	2075.26
590.49	2068.75
590.84	2062.35
591.19	2056.48
591.54	2050.13
591.89	2042.68
592.25	2035.83
592.60	2028.60
592.95	2020.86
593.30	2013.46
593.65	2005.75
594.00	1998.68
594.35	1991.45
594.70	1983.30
595.05	1975.89
595.40	1968.44
595.75	1960.95
596.10	1954.66
596.45	1947.90
596.80	1941.87
597.15	1935.11
597.50	1928.00
597.85	1921.58
598.19	1914.91
598.54	1907.76
598.89	1901.07
599.24	1895.19
599.59	1888.48
599.94	1882.21
600.29	1875.87
600.64	1869.28
600.99	1861.75
601.34	1854.86
601.69	1847.76
602.04	1840.94
602.39	1833.61
602.74	1826.77
603.08	1819.99
603.43	1813.24
603.78	1805.88
604.13	1798.50
604.48	1791.15
604.83	1784.25
605.18	1777.18
605.53	1769.06
605.87	1761.02
606.22	1753.81
606.57	1745.79
606.92	1738.43
607.27	1731.28
607.62	1724.28
607.96	1716.86
608.31	1710.13
608.66	1702.49
609.01	1694.97
609.36	1687.33
609.70	1679.39
610.05	1671.34
610.40	1663.59
610.75	1655.27
611.10	1647.55
611.44	1639.26
611.79	1631.50
612.14	1622.75
612.49	1613.48
612.83	1605.22
613.18	1597.09
613.53	1588.89
613.88	1580.34
614.22	1571.99
614.57	1563.37
614.92	1555.44
615.27	1547.87
615.61	1539.69
615.96	1531.81
616.31	1524.12
616.65	1516.71
617.00	1509.12
617.35	1501.52
617.70	1493.17
618.04	1484.56
618.39	1476.31
618.74	1468.59
619.08	1460.16
619.43	1452.67
619.78	1445.83
620.12	1438.51
620.47	1430.93
620.82	1422.72
621.16	1415.32
621.51	1407.80
621.85	1400.16
622.20	1391.55
622.55	1383.27
622.89	1375.35
623.24	1367.67
623.59	1360.28
623.93	1352.69
624.28	1345.54
624.62	1337.90
624.97	1330.76
625.32	1324.08
625.66	1317.16
626.01	1309.95
626.35	1302.46
626.70	1294.64
627.04	1286.81
627.39	1279.14
627.73	1271.55
628.08	1264.62
628.43	1257.21
628.77	1249.83
629.12	1242.26
629.46	1235.18
629.81	1227.92
630.15	1220.60
630.50	1213.15
630.84	1205.00
631.19	1197.18
631.53	1189.53
631.88	1182.05
632.22	1174.44
632.57	1167.06
632.91	1159.46
633.26	1152.06
633.60	1144.72
633.95	1137.72
634.29	1130.76
634.64	1124.03
634.98	1116.80
635.32	1109.75
635.67	1103.24
636.01	1096.58
636.36	1089.75
636.70	1083.20
637.05	1076.54
637.39	1070.24
637.73	1063.70
638.08	1057.88
638.42	1051.97
638.77	1045.66
639.11	1039.06
639.45	1032.68
639.80	1026.07
640.14	1019.72
640.49	1013.20
640.83	1006.91
641.17	1000.60
641.52	994.23
641.86	987.84
642.20	981.94
642.55	975.56
642.89	969.10
643.23	962.58
643.58	956.85
643.92	950.66
644.26	944.50
644.61	938.35
644.95	932.36
645.29	925.66
645.64	918.79
645.98	912.44
646.32	906.55
646.66	900.51
647.01	894.70
647.35	888.94
647.69	883.16
648.04	877.63
648.38	871.87
648.72	865.82
649.06	859.79
649.41	854.01
649.75	848.03
650.09	842.06
650.43	836.30
650.78	830.11
651.12	824.16
651.46	818.47
651.80	812.73
652.14	807.33
652.49	801.98
652.83	796.78
653.17	791.03
653.51	785.32
653.85	779.88
654.20	774.22
654.54	768.26
654.88	762.57
655.22	756.68
655.56	750.92
655.90	745.54
656.25	740.24
656.59	734.85
656.93	729.79
657.27	724.57
657.61	719.08
657.95	713.99
658.29	708.92
658.64	703.68
658.98	698.37
659.32	692.90
659.66	687.68
660.00	682.37
660.34	677.44
660.68	672.58
661.02	667.57
661.36	662.88
661.70	658.36
662.05	653.91
662.39	649.55
662.73	645.23
663.07	640.85
663.41	636.43
663.75	631.95
664.09	627.42
664.43	623.13
664.77	619.01
665.11	614.80
665.45	610.67
665.79	606.61
666.13	602.47
666.47	598.43
666.81	594.27
667.15	590.17
667.49	586.30
667.83	582.46
668.17	578.50
668.51	574.45
668.85	570.41
669.19	566.53
669.53	562.65
669.87	558.68
670.21	555.02
670.55	551.31
670.89	547.87
671.23	544.41
671.57	540.82
671.91	537.28
672.25	533.78
672.58	530.23
672.92	526.80
673.26	523.67
673.60	520.50
673.94	517.41
674.28	514.49
674.62	511.55
674.96	508.43
675.30	505.57
675.64	502.68
675.97	499.98
676.31	497.15
676.65	494.25
676.99	491.59
677.33	488.67
677.67	485.85
678.01	482.81
678.34	479.83
678.68	477.02
679.02	474.21
679.36	471.47
679.70	468.74
680.04	465.98
680.37	463.16
680.71	460.39
681.05	457.80
681.39	455.11
681.73	452.46
682.06	449.93
682.40	447.37
682.74	444.80
683.08	442.18
683.42	439.63
683.75	437.19
684.09	434.62
684.43	432.16
684.77	429.72
685.10	427.39
685.44	425.10
685.78	422.81
686.12	420.60
686.45	418.32
686.79	416.05
687.13	413.85
687.46	411.69
687.80	409.51
688.14	407.29
688.48	405.25
688.81	403.00
689.15	400.85
689.49	398.68
689.82	396.64
690.16	394.60
690.50	392.66
690.83	390.65
691.17	388.66
691.51	386.80
691.84	384.97
692.18	383.02
692.52	381.05
692.85	379.11
693.19	377.25
693.52	375.44
693.86	373.66
694.20	371.91
694.53	370.13
694.87	368.31
695.21	366.55
695.54	364.70
695.88	362.99
696.21	361.29
696.55	359.65
696.88	357.94
697.22	356.33
697.56	354.71
697.89	353.10
698.23	351.49
698.56	349.92
698.90	348.30
699.23	346.70
699.57	345.16
699.90	343.63
700.24	342.04
700.58	340.47
700.91	338.94
701.25	337.50
701.58	336.10
701.92	334.75
702.25	333.35
702.59	332.02
702.92	330.70
703.26	329.40
703.59	328.13
703.93	326.92
704.26	325.62
704.60	324.33
704.93	323.09
705.26	321.86
705.60	320.67
705.93	319.52
706.27	318.46
706.60	317.42
706.94	316.34
707.27	315.20
707.61	314.16
707.94	313.16
708.27	312.03
708.61	310.93
708.94	309.92
709.28	308.95
709.61	307.95
709.94	306.97
710.28	305.98
710.61	304.98
710.95	303.89
711.28	302.98
711.61	302.02
711.95	301.06
712.28	300.14
712.61	299.13
712.95	298.17
713.28	297.27
713.61	296.38
713.95	295.51
714.28	294.68
714.61	293.83
714.95	292.95
715.28	292.13
715.61	291.27
715.95	290.42
716.28	289.56
716.61	288.75
716.95	287.94
717.28	287.17
717.61	286.37
717.94	285.64
718.28	284.85
718.61	284.13
718.94	283.45
719.27	282.75
719.61	282.08
719.94	281.47
720.27	280.75
720.60	280.05
720.94	279.43
721.27	278.87
721.60	278.30
721.93	277.70
722.27	277.16
722.60	276.60
722.93	276.04
723.26	275.50
723.59	274.92
723.93	274.37
724.26	273.77
724.59	273.23
724.92	272.74
725.25	272.22
725.59	271.67
725.92	271.11
726.25	270.62
726.58	270.16
726.91	269.66
727.24	269.19
727.57	268.75
727.91	268.22
728.24	267.70
728.57	267.22
728.90	266.76
729.23	266.27
729.56	265.86
729.89	265.37
730.22	264.89
730.55	264.43
730.89	264.00
731.22	263.59
731.55	263.13
731.88	262.68
732.21	262.28
732.54	261.88
732.87	261.51
733.20	261.10
733.53	260.70
733.86	260.34
734.19	259.94
734.52	259.53
734.85	259.25
735.18	258.88
735.51	258.52
735.84	258.15
736.17	257.82
736.50	257.39
736.83	257.12
737.16	256.79
737.49	256.42
737.82	256.06
738.15	255.72
738.48	255.41
738.81	255.07
739.14	254.72
739.47	254.39
739.80	254.06
740.13	253.75
740.46	253.47
740.79	253.10
741.12	252.81
741.45	252.50
741.78	252.12
742.11	251.81
742.44	251.47
742.77	251.18
743.10	250.85
743.43	250.55
743.75	250.21
744.08	250.06
744.41	249.82
744.74	249.55
745.07	249.28
745.40	249.06
745.73	248.86
746.06	248.62
746.39	248.35
746.71	248.09
747.04	247.82
747.37	247.54
747.70	247.32
748.03	247.07
748.36	246.81
748.68	246.58
749.01	246.31
749.34	246.06
749.67	245.85
750.00	245.62
750.33	245.49
750.65	245.26
750.98	244.95
751.31	244.70
751.64	244.51
751.97	244.34
752.29	244.09
752.62	243.85
752.95	243.60
753.28	243.40
753.60	243.20
753.93	243.01
754.26	242.82
754.59	242.60
754.91	242.39
755.24	242.21
755.57	242.01
755.90	241.84
756.22	241.68
756.55	241.46
756.88	241.27
757.20	241.03
757.53	240.84
757.86	240.65
758.19	240.51
758.51	240.33
758.84	240.13
759.17	239.97
759.49	239.81
759.82	239.69
760.15	239.55
760.47	239.37
760.80	239.22
761.13	239.09
761.45	238.94
761.78	238.80
762.11	238.68
762.43	238.56
762.76	238.40
763.08	238.26
763.41	238.13
763.74	237.99
764.06	237.89
764.39	237.73
764.71	237.59
765.04	237.45
765.37	237.32
765.69	237.20
766.02	237.03
766.34	236.92
766.67	236.78
767.00	236.69
767.32	236.65
767.65	236.58
767.97	236.43
768.30	236.33
768.62	236.20
768.95	236.04
769.27	235.91
769.60	235.87
769.92	235.75
770.25	235.64
770.57	235.52
770.90	235.37
771.22	235.26
771.55	235.13
771.87	235.06
772.20	234.93
772.52	234.93
772.85	234.97
773.17	234.86
773.50	234.76
773.82	234.65
774.15	234.51
774.47	234.37
774.80	234.34
775.12	234.23
775.45	234.16
775.77	234.13
776.09	234.07
776.42	233.96
776.74	233.89
777.07	233.81
777.39	233.75
777.72	233.70
778.04	233.67
778.36	233.60
778.69	233.53
779.01	233.48
779.33	233.33
779.66	233.16
779.98	233.11
780.31	233.05
780.63	232.99
780.95	232.94
781.28	232.85
781.60	232.77
781.92	232.72
782.25	232.64
782.57	232.55
782.89	232.51
783.22	232.41
783.54	232.36
783.86	232.32
784.19	232.29
784.51	232.24
784.83	232.17
785.16	232.14
785.48	232.08
785.80	232.03
786.12	231.97
786.45	231.89
786.77	231.82
787.09	231.77
787.42	231.68
787.74	231.63
788.06	231.59
788.38	231.53
788.71	231.47
789.03	231.47
789.35	231.45
789.67	231.40
789.99	231.39
790.32	231.32
790.64	231.28
790.96	231.29
791.28	231.22
791.61	231.19
791.93	231.14
792.25	231.09
792.57	231.12
792.89	231.05
793.21	231.01
793.54	231.00
793.86	230.94
794.18	230.92
794.50	230.88
794.82	230.85
795.14	230.83
795.47	230.80
795.79	230.77
796.11	230.71
796.43	230.67
796.75	230.64
797.07	230.61
797.39	230.59
797.71	230.52
798.04	230.48
798.36	230.43
798.68	230.37
799.00	230.33
799.32	230.25
799.64	230.25
799.96	230.26
800.28	230.25
800.60	230.23
800.92	230.22
801.24	230.17
801.56	230.16
801.89	230.08
802.21	230.06
802.53	229.96
802.85	229.94
803.17	229.94
803.49	229.90
803.81	229.85
804.13	229.80
804.45	229.74
804.77	229.74
805.09	229.69
805.41	229.67
805.73	229.63
806.05	229.58
806.37	229.54
806.69	229.51
807.01	229.44
807.33	229.40
807.65	229.33
807.97	229.32
808.28	229.29
808.60	229.28
808.92	229.25
809.24	229.31
809.56	229.28
809.88	229.22
810.20	229.22
810.52	229.19
810.84	229.18
811.16	229.14
811.48	229.10
811.80	229.13
812.12	229.12
812.43	229.12
812.75	229.12
813.07	229.07
813.39	229.05
813.71	229.01
814.03	228.99
814.35	228.97
814.67	228.94
814.98	228.89
815.30	228.90
815.62	228.85
815.94	228.81
816.26	228.84
816.58	228.81
816.89	228.81
817.21	228.78
817.53	228.76
817.85	228.75
818.17	228.73
818.48	228.69
818.80	228.68
819.12	228.65
819.44	228.61
819.76	228.61
820.07	228.61
820.39	228.59
820.71	228.58
821.03	228.59
821.34	228.55
821.66	228.55
821.98	228.54
822.30	228.52
822.61	228.53
822.93	228.45
823.25	228.42
823.57	228.35
823.88	228.38
824.20	228.36
824.52	228.36
824.83	228.34
825.15	228.34
825.47	228.34
825.79	228.36
826.10	228.34
826.42	228.36
826.74	228.34
827.05	228.35
827.37	228.35
827.69	228.33
828.00	228.34
828.32	228.35
828.64	228.35
828.95	228.40
829.27	228.37
829.58	228.36
829.90	228.37
830.22	228.42
830.53	228.38
830.85	228.34
831.17	228.32
831.48	228.35
831.80	228.32
832.11	228.32
832.43	228.30
832.75	228.31
833.06	228.33
833.38	228.29
833.69	228.29
834.01	228.29
834.32	228.29
834.64	228.27
834.96	228.25
835.27	228.21
835.59	228.15
835.90	228.13
836.22	228.12
836.53	228.11
836.85	228.07
837.16	228.17
837.48	228.19
837.79	228.20
838.11	228.19
838.42	228.18
838.74	228.18
839.05	228.16
839.37	228.14
839.68	228.08
840.00	228.05
840.31	228.03
840.63	228.01
840.94	227.97
841.26	227.97
841.57	227.96
841.88	227.95
842.20	227.92
842.51	227.95
842.83	227.95
843.14	227.99
843.46	228.00
843.77	227.92
844.08	227.90
844.40	227.88
844.71	227.84
845.03	227.86
845.34	227.80
845.65	227.77
845.97	227.77
846.28	227.80
846.60	227.85
846.91	227.83
847.22	227.83
847.54	227.85
847.85	227.83
848.16	227.82
848.48	227.83
848.79	227.85
849.10	227.84
849.42	227.86
849.73	227.78
850.04	227.75
850.36	227.69
850.67	227.72
850.98	227.71
851.30	227.72
851.61	227.69
851.92	227.73
852.23	227.77
852.55	227.77
852.86	227.77
853.17	227.75
853.49	227.79
853.80	227.81
854.11	227.82
854.42	227.83
854.74	227.84
855.05	227.84
855.36	227.82
855.67	227.80
855.99	227.75
856.30	227.88
856.61	227.89
856.92	227.95
857.23	227.90
857.55	227.89
857.86	227.87
858.17	227.88
858.48	227.81
858.79	227.77
859.11	227.75
859.42	227.72
859.73	227.70
860.04	227.68
860.35	227.62
860.66	227.61
860.98	227.62
861.29	227.60
861.60	227.59
861.91	227.59
862.22	227.60
862.53	227.61
862.84	227.48
863.16	227.49
863.47	227.44
863.78	227.43
864.09	227.44
864.40	227.46
864.71	227.45
865.02	227.48
865.33	227.50
865.64	227.46
865.95	227.45
866.27	227.51
866.58	227.50
866.89	227.52
867.20	227.52
867.51	227.48
867.82	227.46
868.13	227.50
868.44	227.49
868.75	227.48
869.06	227.44
869.37	227.43
869.68	227.40
869.99	227.39
870.30	227.40
870.61	227.41
870.92	227.37
871.23	227.35
871.54	227.35
871.85	227.35
872.16	227.40
872.47	227.38
872.78	227.33
873.09	227.35
873.40	227.32
873.71	227.30
874.02	227.30
874.33	227.29
874.64	227.23
874.95	227.23
875.26	227.20
875.56	227.22
875.87	227.25
876.18	227.22
876.49	227.31
876.80	227.33
877.11	227.28
877.42	227.30
877.73	227.30
878.04	227.31
878.35	227.33
878.66	227.30
878.96	227.32
879.27	227.28
879.58	227.22
879.89	227.21
880.20	227.23
880.51	227.23
880.82	227.22
881.12	227.23
881.43	227.23
881.74	227.23
882.05	227.24
882.36	227.23
882.67	227.21
882.97	227.13
883.28	227.10
883.59	227.11
883.90	227.12
884.21	227.16
884.51	227.13
884.82	227.09
885.13	227.09
885.44	227.09
885.74	227.11
886.05	227.14
886.36	227.13
886.67	227.11
886.98	227.16
887.28	227.17
887.59	227.18
887.90	227.17
888.20	227.17
888.51	227.16
888.82	227.18
889.13	227.23
889.43	227.29
889.74	227.30
890.05	227.30
890.35	227.28
890.66	227.26
890.97	227.24
891.28	227.24
891.58	227.26
891.89	227.28
892.20	227.25
892.50	227.27
892.81	227.30
893.12	227.30
893.42	227.25
893.73	227.27
894.04	227.26
894.34	227.27
894.65	227.27
894.95	227.28
895.26	227.26
895.57	227.30
895.87	227.18
896.18	227.21
896.48	227.21
896.79	227.23
897.10	227.22
897.40	227.21
897.71	227.22
898.01	227.18
898.32	227.17
898.63	227.22
898.93	227.20
899.24	227.17
899.54	227.18
899.85	227.19
900.15	227.18
900.46	227.19
900.76	227.19
901.07	227.20
901.38	227.18
901.68	227.17
901.99	227.11
902.29	227.16
902.60	227.11
902.90	227.10
903.21	227.06
903.51	227.07
903.82	227.11
904.12	227.10
904.43	227.12
904.73	227.07
905.03	227.06
905.34	227.16
905.64	227.15
905.95	227.12
906.25	227.09
906.56	227.08
906.86	227.06
907.17	227.01
907.47	226.97
907.77	226.97
908.08	226.97
908.38	226.98
908.69	226.93
908.99	226.95
909.30	226.94
909.60	226.95
909.90	226.94
910.21	226.92
910.51	226.88
910.81	226.88
911.12	226.91
911.42	226.88
911.73	226.80
912.03	226.81
912.33	226.80
912.64	226.83
912.94	226.82
913.24	226.81
913.55	226.81
913.85	226.83
914.15	226.83
914.46	226.84
914.76	226.83
915.06	226.90
915.37	226.88
915.67	226.88
915.97	226.88
916.27	226.87
916.58	226.86
916.88	226.86
917.18	226.90
917.49	227.00
917.79	227.02
918.09	227.02
918.39	227.06
918.70	227.10
919.00	227.10
919.30	227.17
919.60	227.17
919.91	227.18
920.21	227.22
920.51	227.19
920.81	227.22
921.12	227.22
921.42	227.22
921.72	227.25
922.02	227.24
922.32	227.30
922.63	227.30
922.93	227.37
923.23	227.43
923.53	227.40
923.83	227.31
924.13	227.29
924.44	227.31
924.74	227.33
925.04	227.36
925.34	227.33
925.64	227.29
925.94	227.31
926.24	227.39
926.55	227.38
926.85	227.42
927.15	227.41
927.45	227.42
927.75	227.42
928.05	227.40
928.35	227.46
928.65	227.46
928.95	227.49
929.26	227.45
929.56	227.44
929.86	227.45
930.16	227.45
930.46	227.46
930.76	227.48
931.06	227.42
931.36	227.37
931.66	227.42
931.96	227.38
932.26	227.38
932.56	227.33
932.86	227.31
933.16	227.30
933.46	227.25
933.76	227.25
934.06	227.28
934.36	227.30
934.66	227.29
934.96	227.25
935.26	227.24
935.56	227.25
935.86	227.25
936.16	227.22
936.46	227.21
936.76	227.19
937.06	227.13
937.36	227.14
937.66	227.13
937.96	227.13
938.26	227.13
938.56	227.12
938.86	227.09
939.16	227.10
939.46	227.10
939.76	227.09
940.06	227.10
940.35	227.04
940.65	226.96
940.95	226.97
941.25	226.92
941.55	226.88
941.85	226.84
942.15	226.83
942.45	226.86
942.75	226.84
943.04	226.82
943.34	226.83
943.64	226.82
943.94	226.77
944.24	226.74
944.54	226.75
944.84	226.74
945.13	226.76
945.43	226.76
945.73	226.74
946.03	226.73
946.33	226.70
946.62	226.69
946.92	226.72
947.22	226.71
947.52	226.72
947.82	226.74
948.11	226.72
948.41	226.73
948.71	226.67
949.01	226.68
949.31	226.71
949.60	226.71
949.90	226.72
950.20	226.75
950.50	226.78
950.79	226.75
951.09	226.77
951.39	226.76
951.69	226.72
951.98	226.78
952.28	226.80
952.58	226.84
952.87	226.84
953.17	226.86
953.47	226.85
953.76	226.88
954.06	226.87
954.36	226.89
954.66	226.89
954.95	226.92
955.25	226.93
955.55	226.94
955.84	226.95
956.14	226.97
956.44	226.97
956.73	226.97
957.03	226.94
957.32	226.96
957.62	226.94
957.92	227.01
958.21	227.00
958.51	227.10
958.81	227.10
959.10	227.12
959.40	227.13
959.69	227.13
959.99	227.16
960.29	227.16
960.58	227.13
960.88	227.15
961.17	227.17
961.47	227.17
961.76	227.16
962.06	227.17
962.36	227.18
962.65	227.20
962.95	227.18
963.24	227.21
963.54	227.20
963.83	227.25
964.13	227.24
964.42	227.21
964.72	227.16
965.01	227.14
965.31	227.13
965.60	227.10
965.90	227.18
966.19	227.13
966.49	227.11
966.78	227.11
967.08	227.10
967.37	227.10
967.67	227.08
967.96	227.11
968.26	227.10
968.55	227.10
968.85	227.08
969.14	227.11
969.43	227.12
969.73	227.08
970.02	227.03
970.32	226.98
970.61	226.99
970.91	226.96
971.20	226.96
971.49	226.95
971.79	226.94
972.08	226.88
972.38	226.90
972.67	226.94
972.96	227.00
973.26	226.99
973.55	227.03
973.85	227.01
974.14	226.99
974.43	226.99
974.73	226.94
975.02	226.94
975.31	226.91
975.61	226.89
975.90	226.89
976.19	226.89
976.49	226.92
976.78	226.91
977.07	226.89
977.37	226.90
977.66	226.93
977.95	226.97
978.24	226.96
978.54	226.97
978.83	226.92
979.12	226.89
979.42	226.87
979.71	226.82
980.00	226.84
980.29	226.82
980.59	226.80
980.88	226.83
981.17	226.84
981.46	226.83
981.76	226.85
982.05	226.88
982.34	226.89
982.63	226.88
982.93	226.87
983.22	226.88
983.51	226.84
983.80	226.84
984.09	226.84
984.39	226.81
984.68	226.79
984.97	226.80
985.26	226.79
985.55	226.78
985.85	226.78
986.14	226.77
986.43	226.80
986.72	226.78
987.01	226.73
987.30	226.70
987.59	226.72
987.89	226.70
988.18	226.68
988.47	226.66
988.76	226.64
989.05	226.61
989.34	226.62
989.63	226.66
989.92	226.64
990.22	226.62
990.51	226.63
990.80	226.61
991.09	226.61
991.38	226.60
991.67	226.60
991.96	226.60
992.25	226.63
992.54	226.61
992.83	226.63
993.12	226.64
993.41	226.64
993.70	226.65
993.99	226.66
994.28	226.66
994.58	226.70
994.87	226.70
995.16	226.74
995.45	226.71
995.74	226.65
996.03	226.66
996.32	226.66
996.61	226.69
996.90	226.68
997.19	226.69
997.48	226.72
997.77	226.71
998.06	226.72
998.34	226.69
998.63	226.70
998.92	226.66
999.21	226.68
999.50	226.70
999.79	226.66
1000.08	226.66
1000.37	226.70
1000.66	226.68
1000.95	226.70
1001.24	226.67
1001.53	226.70
1001.82	226.73
1002.11	226.71
1002.40	226.73
1002.68	226.78
1002.97	226.88
1003.26	226.86
1003.55	226.85
1003.84	226.85
1004.13	226.88
1004.42	226.87
1004.71	226.90
1004.99	226.94
1005.28	226.96
1005.57	226.95
1005.86	226.96
1006.15	226.94
1006.44	226.92
1006.72	226.95
1007.01	226.95
1007.30	226.99
1007.59	226.97
1007.88	226.99
1008.17	226.97
1008.45	226.95
1008.74	226.88
1009.03	226.82
1009.32	226.82
1009.60	226.82
1009.89	226.83
1010.18	226.82
1010.47	226.84
1010.76	226.83
1011.04	226.82
1011.33	226.83
1011.62	226.85
1011.91	226.91
1012.19	226.89
1012.48	226.88
1012.77	226.84
1013.05	226.86
1013.34	226.89
1013.63	226.88
1013.92	226.89
1014.20	226.89
1014.49	226.92
1014.78	226.93
1015.06	226.90
1015.35	226.90
1015.64	226.92
1015.92	226.90
1016.21	226.90
1016.50	226.90
1016.78	226.91
1017.07	226.92
1017.36	226.90
1017.64	226.88
1017.93	226.87
1018.22	226.87
1018.50	226.88
1018.79	226.88
1019.08	226.83
1019.36	226.80
1019.65	226.77
1019.93	226.78
1020.22	226.80
1020.51	226.79
1020.79	226.78
1021.08	226.04
1021.36	226.93
1021.65	226.50
1021.94	226.25
1022.22	226.82
1022.51	226.45
1022.79	227.09
1023.08	227.08
1023.36	227.00
1023.65	226.46
>>>>>End Processed Spectral Data<<<<<
