SpectraSuite Data File
++++++++++++++++++++++++++++++++++++
Date: Fri Feb 01 15:55:54 EST 2013
User: group
Dark Spectrum Present: No
Reference Spectrum Present: No
Number of Sampled Component Spectra: 1
Spectrometers: USB2E7196
Integration Time (usec): 35000 (USB2E7196)
Spectra Averaged: 100 (USB2E7196)
Boxcar Smoothing: 10 (USB2E7196)
Correct for Electrical Dark: No (USB2E7196)
Strobe/Lamp Enabled: No (USB2E7196)
Correct for Detector Non-linearity: No (USB2E7196)
Correct for Stray Light: No (USB2E7196)
Number of Pixels in Processed Spectrum: 2048
>>>>>Begin Processed Spectral Data<<<<<
339.09	0.00
339.48	214.62
339.86	215.99
340.24	217.35
340.63	218.69
341.01	221.64
341.39	221.64
341.78	222.29
342.16	224.20
342.54	224.97
342.93	213.02
343.31	223.78
343.69	224.34
344.07	224.80
344.46	225.25
344.84	225.63
345.22	225.85
345.60	226.12
345.99	226.34
346.37	226.47
346.75	226.58
347.13	226.65
347.52	226.74
347.90	226.77
348.28	226.81
348.66	226.87
349.05	226.93
349.43	226.98
349.81	227.02
350.19	227.05
350.57	227.12
350.96	227.18
351.34	227.28
351.72	227.37
352.10	227.50
352.48	227.56
352.87	227.67
353.25	227.75
353.63	227.79
354.01	227.86
354.39	227.95
354.77	227.99
355.15	228.08
355.54	228.14
355.92	228.20
356.30	228.29
356.68	228.37
357.06	228.44
357.44	228.47
357.82	228.52
358.20	228.59
358.58	228.63
358.97	228.71
359.35	228.77
359.73	228.86
360.11	228.90
360.49	228.95
360.87	228.97
361.25	229.02
361.63	229.10
362.01	229.13
362.39	229.15
362.77	229.20
363.15	229.23
363.53	229.25
363.91	229.28
364.29	229.27
364.67	229.22
365.05	229.26
365.43	229.30
365.81	229.37
366.19	229.35
366.57	229.37
366.95	229.31
367.33	229.28
367.71	229.25
368.09	229.25
368.47	229.23
368.85	229.22
369.23	229.22
369.61	229.13
369.99	229.17
370.37	229.12
370.75	229.12
371.13	229.02
371.51	228.95
371.89	228.90
372.27	228.84
372.65	228.83
373.03	228.74
373.41	228.68
373.78	228.59
374.16	228.51
374.54	228.43
374.92	228.39
375.30	228.33
375.68	228.22
376.06	228.15
376.44	228.06
376.82	227.98
377.19	227.90
377.57	227.86
377.95	227.73
378.33	227.69
378.71	227.53
379.09	227.52
379.47	227.47
379.84	227.39
380.22	227.35
380.60	227.24
380.98	227.17
381.36	227.07
381.73	227.00
382.11	226.99
382.49	226.95
382.87	226.86
383.25	226.81
383.62	226.88
384.00	226.79
384.38	226.75
384.76	226.74
385.13	226.71
385.51	226.64
385.89	226.58
386.27	226.52
386.64	226.51
387.02	226.44
387.40	226.40
387.78	226.37
388.15	226.31
388.53	226.28
388.91	226.27
389.29	226.26
389.66	226.21
390.04	226.17
390.42	226.16
390.79	226.16
391.17	226.17
391.55	226.05
391.92	226.06
392.30	226.09
392.68	226.02
393.05	226.00
393.43	226.01
393.81	226.02
394.18	226.03
394.56	226.05
394.94	226.10
395.31	226.11
395.69	226.16
396.06	226.22
396.44	226.24
396.82	226.25
397.19	226.33
397.57	226.38
397.95	226.45
398.32	226.46
398.70	226.51
399.07	226.58
399.45	226.65
399.82	226.70
400.20	226.75
400.58	226.88
400.95	226.96
401.33	227.07
401.70	227.24
402.08	227.37
402.45	227.48
402.83	227.61
403.20	227.73
403.58	227.84
403.95	227.97
404.33	228.14
404.71	228.29
405.08	228.46
405.46	228.60
405.83	228.75
406.21	228.90
406.58	229.09
406.96	229.22
407.33	229.40
407.70	229.57
408.08	229.84
408.45	230.01
408.83	230.26
409.20	230.48
409.58	230.65
409.95	230.88
410.33	231.16
410.70	231.39
411.08	231.72
411.45	232.06
411.82	232.36
412.20	232.72
412.57	233.16
412.95	233.47
413.32	233.87
413.69	234.26
414.07	234.72
414.44	235.20
414.82	235.69
415.19	236.23
415.56	236.81
415.94	237.32
416.31	237.94
416.68	238.55
417.06	239.28
417.43	239.97
417.81	240.71
418.18	241.45
418.55	242.27
418.93	243.13
419.30	243.96
419.67	244.89
420.04	245.83
420.42	246.78
420.79	247.99
421.16	249.16
421.54	250.37
421.91	251.58
422.28	252.82
422.66	254.17
423.03	255.49
423.40	256.81
423.77	258.26
424.15	259.66
424.52	261.14
424.89	262.71
425.26	264.27
425.64	265.72
426.01	267.35
426.38	269.01
426.75	270.67
427.13	272.39
427.50	274.20
427.87	276.06
428.24	277.93
428.61	279.65
428.99	281.59
429.36	283.66
429.73	285.70
430.10	287.73
430.47	289.76
430.85	291.87
431.22	294.10
431.59	296.46
431.96	298.74
432.33	301.22
432.70	303.58
433.08	306.38
433.45	309.01
433.82	311.60
434.19	314.50
434.56	317.28
434.93	319.92
435.30	322.50
435.68	325.38
436.05	328.19
436.42	330.92
436.79	333.42
437.16	336.14
437.53	338.95
437.90	341.71
438.27	344.40
438.64	347.18
439.01	349.77
439.38	352.03
439.75	354.18
440.13	356.66
440.50	359.02
440.87	360.88
441.24	362.88
441.61	365.02
441.98	366.50
442.35	368.29
442.72	370.09
443.09	371.93
443.46	372.96
443.83	373.51
444.20	374.05
444.57	374.87
444.94	375.18
445.31	375.50
445.68	375.88
446.05	376.02
446.42	375.64
446.79	375.27
447.16	374.75
447.53	374.43
447.90	373.29
448.27	372.12
448.64	370.48
449.01	369.27
449.37	367.29
449.74	365.37
450.11	363.18
450.48	360.77
450.85	358.23
451.22	356.06
451.59	354.08
451.96	352.14
452.33	349.52
452.70	347.16
453.07	344.36
453.43	341.47
453.80	338.71
454.17	336.08
454.54	333.48
454.91	330.82
455.28	328.15
455.65	325.66
456.02	323.25
456.38	321.10
456.75	318.50
457.12	316.29
457.49	314.09
457.86	311.88
458.23	310.08
458.59	308.07
458.96	305.99
459.33	304.11
459.70	302.23
460.07	300.75
460.43	298.99
460.80	297.34
461.17	295.87
461.54	294.36
461.91	292.89
462.27	291.44
462.64	290.19
463.01	288.85
463.38	287.54
463.74	286.16
464.11	285.03
464.48	283.99
464.85	282.85
465.21	281.98
465.58	281.08
465.95	279.99
466.32	279.06
466.68	278.18
467.05	277.31
467.42	276.44
467.78	275.53
468.15	274.67
468.52	274.07
468.88	273.25
469.25	272.54
469.62	271.96
469.98	271.32
470.35	270.69
470.72	270.09
471.08	269.44
471.45	268.89
471.82	268.30
472.18	267.72
472.55	267.28
472.92	266.74
473.28	266.26
473.65	265.81
474.02	265.39
474.38	265.03
474.75	264.74
475.11	264.44
475.48	264.19
475.85	263.97
476.21	263.75
476.58	263.58
476.94	263.37
477.31	263.20
477.67	263.03
478.04	262.91
478.41	262.89
478.77	262.94
479.14	262.89
479.50	262.96
479.87	263.02
480.23	263.14
480.60	263.22
480.96	263.31
481.33	263.52
481.69	263.67
482.06	263.89
482.42	264.08
482.79	264.31
483.15	264.59
483.52	264.98
483.88	265.31
484.25	265.67
484.61	266.13
484.98	266.56
485.34	267.18
485.71	267.81
486.07	268.39
486.44	268.96
486.80	269.66
487.17	270.36
487.53	271.14
487.90	271.94
488.26	272.90
488.62	273.88
488.99	274.81
489.35	275.84
489.72	276.92
490.08	278.10
490.44	279.36
490.81	280.71
491.17	282.07
491.54	283.52
491.90	285.08
492.26	286.71
492.63	288.44
492.99	290.18
493.36	292.08
493.72	294.15
494.08	296.23
494.45	298.52
494.81	300.90
495.17	303.35
495.54	305.94
495.90	308.62
496.26	311.47
496.63	314.46
496.99	317.57
497.35	320.83
497.72	324.25
498.08	327.75
498.44	331.38
498.80	335.31
499.17	339.39
499.53	343.54
499.89	347.96
500.26	352.48
500.62	357.12
500.98	362.07
501.34	367.16
501.71	372.55
502.07	378.00
502.43	383.60
502.79	389.42
503.16	395.52
503.52	401.80
503.88	408.20
504.24	414.85
504.60	421.81
504.97	428.95
505.33	436.26
505.69	444.00
506.05	451.81
506.41	459.70
506.78	467.82
507.14	476.30
507.50	484.95
507.86	493.99
508.22	503.22
508.59	512.35
508.95	521.89
509.31	531.68
509.67	541.82
510.03	552.13
510.39	562.77
510.75	573.52
511.12	584.48
511.48	595.80
511.84	607.29
512.20	618.76
512.56	630.66
512.92	642.90
513.28	655.21
513.64	667.72
514.00	680.44
514.37	693.47
514.73	706.52
515.09	719.60
515.45	732.88
515.81	746.43
516.17	760.50
516.53	774.66
516.89	788.87
517.25	802.98
517.61	817.35
517.97	831.77
518.33	846.14
518.69	860.84
519.05	875.81
519.41	890.91
519.77	906.53
520.13	922.03
520.49	937.36
520.85	952.77
521.21	968.39
521.57	984.57
521.93	1000.28
522.29	1016.61
522.65	1032.93
523.01	1049.12
523.37	1065.24
523.73	1081.29
524.09	1097.36
524.45	1113.61
524.81	1130.16
525.17	1146.99
525.53	1163.88
525.89	1180.92
526.25	1197.72
526.61	1214.18
526.97	1230.94
527.33	1247.20
527.68	1263.86
528.04	1280.32
528.40	1296.96
528.76	1314.03
529.12	1330.56
529.48	1347.40
529.84	1363.47
530.20	1379.97
530.56	1396.93
530.91	1414.20
531.27	1430.99
531.63	1447.44
531.99	1463.94
532.35	1479.93
532.71	1495.75
533.07	1511.93
533.42	1527.65
533.78	1543.64
534.14	1559.80
534.50	1575.01
534.86	1590.98
535.21	1606.07
535.57	1621.91
535.93	1637.35
536.29	1651.97
536.65	1667.12
537.00	1681.85
537.36	1697.03
537.72	1711.43
538.08	1726.07
538.44	1739.75
538.79	1753.60
539.15	1767.22
539.51	1780.93
539.87	1795.29
540.22	1809.07
540.58	1822.71
540.94	1836.01
541.29	1848.95
541.65	1861.71
542.01	1874.95
542.37	1887.24
542.72	1899.58
543.08	1911.35
543.44	1923.63
543.79	1934.91
544.15	1945.80
544.51	1957.40
544.87	1968.31
545.22	1979.28
545.58	1989.21
545.94	1999.07
546.29	2008.86
546.65	2018.75
547.01	2028.05
547.36	2036.74
547.72	2045.08
548.07	2052.92
548.43	2061.06
548.79	2069.18
549.14	2076.55
549.50	2083.80
549.86	2091.54
550.21	2098.83
550.57	2106.05
550.92	2112.62
551.28	2119.80
551.64	2126.89
551.99	2133.26
552.35	2139.38
552.70	2145.37
553.06	2151.42
553.41	2157.77
553.77	2163.74
554.13	2169.80
554.48	2175.85
554.84	2181.30
555.19	2186.76
555.55	2192.00
555.90	2196.52
556.26	2201.17
556.61	2205.96
556.97	2210.32
557.32	2214.26
557.68	2218.33
558.03	2222.63
558.39	2226.35
558.74	2230.97
559.10	2234.87
559.45	2238.68
559.81	2243.08
560.16	2246.86
560.52	2250.01
560.87	2253.38
561.23	2256.14
561.58	2259.06
561.94	2261.53
562.29	2263.91
562.64	2266.50
563.00	2269.04
563.35	2272.62
563.71	2275.79
564.06	2278.94
564.42	2281.76
564.77	2284.42
565.12	2286.77
565.48	2288.55
565.83	2290.36
566.19	2291.51
566.54	2292.40
566.89	2293.42
567.25	2294.04
567.60	2295.45
567.96	2297.16
568.31	2298.02
568.66	2299.08
569.02	2299.68
569.37	2300.05
569.72	2300.82
570.08	2300.82
570.43	2300.98
570.78	2300.34
571.14	2298.72
571.49	2297.33
571.84	2297.02
572.20	2295.79
572.55	2294.68
572.90	2293.25
573.26	2291.90
573.61	2290.27
573.96	2288.45
574.31	2285.65
574.67	2282.51
575.02	2278.95
575.37	2275.62
575.72	2271.83
576.08	2268.61
576.43	2265.22
576.78	2261.57
577.13	2258.49
577.49	2255.56
577.84	2251.96
578.19	2248.17
578.54	2244.61
578.90	2240.41
579.25	2234.91
579.60	2230.00
579.95	2225.19
580.30	2219.99
580.66	2214.86
581.01	2210.03
581.36	2205.06
581.71	2200.92
582.06	2196.61
582.42	2192.17
582.77	2186.90
583.12	2182.36
583.47	2177.57
583.82	2172.56
584.17	2167.22
584.53	2161.61
584.88	2155.96
585.23	2150.18
585.58	2144.85
585.93	2139.42
586.28	2134.69
586.63	2129.55
586.98	2124.51
587.34	2119.73
587.69	2114.98
588.04	2109.66
588.39	2103.92
588.74	2097.64
589.09	2091.25
589.44	2084.38
589.79	2078.32
590.14	2072.79
590.49	2066.24
590.84	2060.03
591.19	2053.99
591.54	2047.67
591.89	2040.31
592.25	2033.43
592.60	2026.29
592.95	2018.58
593.30	2011.22
593.65	2003.62
594.00	1996.67
594.35	1989.37
594.70	1981.18
595.05	1973.92
595.40	1966.84
595.75	1959.31
596.10	1952.95
596.45	1946.26
596.80	1940.10
597.15	1933.47
597.50	1926.22
597.85	1919.73
598.19	1912.95
598.54	1905.84
598.89	1899.25
599.24	1893.40
599.59	1886.75
599.94	1880.60
600.29	1874.15
600.64	1867.56
600.99	1860.19
601.34	1853.38
601.69	1846.51
602.04	1839.72
602.39	1832.42
602.74	1825.38
603.08	1818.69
603.43	1812.03
603.78	1804.71
604.13	1797.43
604.48	1790.10
604.83	1783.19
605.18	1776.27
605.53	1768.26
605.87	1760.26
606.22	1752.94
606.57	1745.06
606.92	1737.72
607.27	1730.48
607.62	1723.80
607.96	1716.54
608.31	1709.97
608.66	1702.30
609.01	1694.68
609.36	1687.11
609.70	1678.97
610.05	1671.04
610.40	1663.31
610.75	1654.81
611.10	1647.20
611.44	1638.89
611.79	1630.96
612.14	1622.38
612.49	1613.17
612.83	1604.78
613.18	1596.70
613.53	1588.60
613.88	1579.95
614.22	1571.79
614.57	1563.23
614.92	1555.08
615.27	1547.50
615.61	1539.04
615.96	1530.98
616.31	1523.36
616.65	1516.05
617.00	1508.53
617.35	1500.76
617.70	1492.39
618.04	1483.97
618.39	1475.78
618.74	1468.29
619.08	1459.98
619.43	1452.36
619.78	1445.51
620.12	1438.36
620.47	1430.89
620.82	1422.70
621.16	1415.42
621.51	1407.75
621.85	1400.04
622.20	1391.53
622.55	1383.17
622.89	1375.30
623.24	1367.71
623.59	1360.35
623.93	1352.76
624.28	1345.66
624.62	1338.12
624.97	1330.98
625.32	1324.25
625.66	1317.24
626.01	1310.01
626.35	1302.46
626.70	1294.88
627.04	1287.16
627.39	1279.36
627.73	1271.99
628.08	1265.05
628.43	1257.68
628.77	1250.31
629.12	1242.87
629.46	1235.83
629.81	1228.48
630.15	1221.36
630.50	1213.99
630.84	1205.75
631.19	1197.88
631.53	1190.32
631.88	1182.93
632.22	1175.41
632.57	1168.10
632.91	1160.54
633.26	1153.05
633.60	1145.74
633.95	1138.62
634.29	1131.58
634.64	1124.93
634.98	1117.53
635.32	1110.35
635.67	1103.74
636.01	1097.10
636.36	1090.28
636.70	1083.70
637.05	1077.07
637.39	1070.55
637.73	1064.08
638.08	1058.25
638.42	1052.29
638.77	1045.80
639.11	1039.16
639.45	1032.70
639.80	1026.06
640.14	1019.60
640.49	1013.13
640.83	1006.85
641.17	1000.52
641.52	994.19
641.86	987.70
642.20	981.85
642.55	975.61
642.89	969.18
643.23	962.65
643.58	956.82
643.92	950.62
644.26	944.63
644.61	938.56
644.95	932.49
645.29	925.84
645.64	919.11
645.98	912.88
646.32	907.07
646.66	901.03
647.01	895.21
647.35	889.51
647.69	883.64
648.04	878.12
648.38	872.30
648.72	866.28
649.06	860.24
649.41	854.32
649.75	848.42
650.09	842.52
650.43	836.82
650.78	830.63
651.12	824.64
651.46	818.89
651.80	813.19
652.14	807.71
652.49	802.33
652.83	797.13
653.17	791.30
653.51	785.55
653.85	780.24
654.20	774.64
654.54	768.66
654.88	762.98
655.22	757.05
655.56	751.40
655.90	745.94
656.25	740.70
656.59	735.27
656.93	730.07
657.27	724.87
657.61	719.38
657.95	714.29
658.29	709.27
658.64	704.03
658.98	698.73
659.32	693.30
659.66	688.14
660.00	682.72
660.34	677.87
660.68	672.85
661.02	667.69
661.36	662.99
661.70	658.46
662.05	654.03
662.39	649.68
662.73	645.19
663.07	640.80
663.41	636.28
663.75	631.89
664.09	627.40
664.43	622.97
664.77	618.75
665.11	614.50
665.45	610.28
665.79	606.19
666.13	602.04
666.47	597.97
666.81	593.85
667.15	589.82
667.49	585.89
667.83	582.13
668.17	578.25
668.51	574.11
668.85	570.11
669.19	566.31
669.53	562.49
669.87	558.65
670.21	555.00
670.55	551.41
670.89	547.92
671.23	544.49
671.57	541.00
671.91	537.53
672.25	534.03
672.58	530.54
672.92	527.14
673.26	524.04
673.60	520.89
673.94	517.71
674.28	514.80
674.62	511.84
674.96	508.76
675.30	505.86
675.64	502.96
675.97	500.19
676.31	497.31
676.65	494.37
676.99	491.64
677.33	488.72
677.67	485.91
678.01	482.86
678.34	479.83
678.68	476.99
679.02	474.18
679.36	471.45
679.70	468.74
680.04	465.95
680.37	463.07
680.71	460.25
681.05	457.68
681.39	454.97
681.73	452.32
682.06	449.77
682.40	447.18
682.74	444.71
683.08	442.17
683.42	439.57
683.75	437.10
684.09	434.55
684.43	432.10
684.77	429.59
685.10	427.27
685.44	425.03
685.78	422.71
686.12	420.45
686.45	418.11
686.79	415.80
687.13	413.62
687.46	411.42
687.80	409.29
688.14	407.03
688.48	405.02
688.81	402.76
689.15	400.64
689.49	398.57
689.82	396.45
690.16	394.34
690.50	392.41
690.83	390.44
691.17	388.44
691.51	386.50
691.84	384.68
692.18	382.76
692.52	380.73
692.85	378.80
693.19	376.91
693.52	375.06
693.86	373.24
694.20	371.44
694.53	369.68
694.87	367.85
695.21	366.09
695.54	364.22
695.88	362.52
696.21	360.78
696.55	359.06
696.88	357.34
697.22	355.65
697.56	354.05
697.89	352.41
698.23	350.80
698.56	349.23
698.90	347.66
699.23	346.01
699.57	344.47
699.90	342.93
700.24	341.40
700.58	339.90
700.91	338.38
701.25	336.96
701.58	335.56
701.92	334.18
702.25	332.79
702.59	331.44
702.92	330.09
703.26	328.78
703.59	327.48
703.93	326.34
704.26	325.15
704.60	323.83
704.93	322.58
705.26	321.38
705.60	320.16
705.93	318.97
706.27	317.94
706.60	316.89
706.94	315.78
707.27	314.67
707.61	313.62
707.94	312.62
708.27	311.53
708.61	310.47
708.94	309.48
709.28	308.55
709.61	307.59
709.94	306.64
710.28	305.65
710.61	304.69
710.95	303.59
711.28	302.65
711.61	301.69
711.95	300.77
712.28	299.82
712.61	298.87
712.95	297.97
713.28	297.08
713.61	296.24
713.95	295.40
714.28	294.60
714.61	293.75
714.95	292.94
715.28	292.11
715.61	291.24
715.95	290.40
716.28	289.53
716.61	288.70
716.95	287.88
717.28	287.14
717.61	286.39
717.94	285.68
718.28	284.90
718.61	284.18
718.94	283.49
719.27	282.86
719.61	282.22
719.94	281.57
720.27	280.87
720.60	280.17
720.94	279.51
721.27	278.87
721.60	278.31
721.93	277.70
722.27	277.18
722.60	276.63
722.93	276.04
723.26	275.48
723.59	274.91
723.93	274.36
724.26	273.80
724.59	273.22
724.92	272.67
725.25	272.17
725.59	271.65
725.92	271.14
726.25	270.59
726.58	270.09
726.91	269.57
727.24	269.05
727.57	268.58
727.91	268.06
728.24	267.62
728.57	267.14
728.90	266.67
729.23	266.15
729.56	265.73
729.89	265.28
730.22	264.80
730.55	264.32
730.89	263.87
731.22	263.43
731.55	263.04
731.88	262.64
732.21	262.21
732.54	261.74
732.87	261.30
733.20	260.90
733.53	260.52
733.86	260.14
734.19	259.75
734.52	259.34
734.85	259.06
735.18	258.64
735.51	258.22
735.84	257.86
736.17	257.48
736.50	257.04
736.83	256.78
737.16	256.43
737.49	256.12
737.82	255.76
738.15	255.41
738.48	255.05
738.81	254.70
739.14	254.37
739.47	254.06
739.80	253.75
740.13	253.45
740.46	253.12
740.79	252.79
741.12	252.51
741.45	252.22
741.78	251.84
742.11	251.55
742.44	251.21
742.77	250.91
743.10	250.61
743.43	250.34
743.75	249.96
744.08	249.85
744.41	249.54
744.74	249.28
745.07	249.01
745.40	248.78
745.73	248.54
746.06	248.28
746.39	248.04
746.71	247.76
747.04	247.49
747.37	247.21
747.70	247.01
748.03	246.73
748.36	246.50
748.68	246.28
749.01	246.03
749.34	245.86
749.67	245.65
750.00	245.45
750.33	245.30
750.65	245.06
750.98	244.73
751.31	244.54
751.64	244.35
751.97	244.17
752.29	243.94
752.62	243.70
752.95	243.50
753.28	243.28
753.60	243.11
753.93	242.97
754.26	242.82
754.59	242.59
754.91	242.42
755.24	242.25
755.57	242.09
755.90	241.93
756.22	241.72
756.55	241.49
756.88	241.28
757.20	241.02
757.53	240.81
757.86	240.64
758.19	240.50
758.51	240.31
758.84	240.13
759.17	239.93
759.49	239.76
759.82	239.60
760.15	239.49
760.47	239.34
760.80	239.14
761.13	238.99
761.45	238.83
761.78	238.67
762.11	238.50
762.43	238.33
762.76	238.20
763.08	238.07
763.41	237.95
763.74	237.84
764.06	237.71
764.39	237.62
764.71	237.49
765.04	237.33
765.37	237.20
765.69	237.06
766.02	236.96
766.34	236.86
766.67	236.72
767.00	236.60
767.32	236.53
767.65	236.49
767.97	236.37
768.30	236.31
768.62	236.20
768.95	236.08
769.27	235.93
769.60	235.82
769.92	235.71
770.25	235.56
770.57	235.43
770.90	235.32
771.22	235.20
771.55	235.12
771.87	235.02
772.20	234.90
772.52	234.89
772.85	234.88
773.17	234.74
773.50	234.64
773.82	234.50
774.15	234.35
774.47	234.16
774.80	234.06
775.12	233.94
775.45	233.85
775.77	233.77
776.09	233.70
776.42	233.58
776.74	233.51
777.07	233.45
777.39	233.37
777.72	233.29
778.04	233.22
778.36	233.14
778.69	233.05
779.01	233.00
779.33	232.84
779.66	232.68
779.98	232.63
780.31	232.58
780.63	232.56
780.95	232.49
781.28	232.47
781.60	232.41
781.92	232.31
782.25	232.21
782.57	232.14
782.89	232.09
783.22	232.06
783.54	231.98
783.86	231.93
784.19	231.88
784.51	231.82
784.83	231.77
785.16	231.71
785.48	231.69
785.80	231.63
786.12	231.59
786.45	231.54
786.77	231.50
787.09	231.47
787.42	231.40
787.74	231.37
788.06	231.31
788.38	231.24
788.71	231.23
789.03	231.22
789.35	231.19
789.67	231.14
789.99	231.08
790.32	231.03
790.64	231.00
790.96	231.01
791.28	230.94
791.61	230.90
791.93	230.87
792.25	230.83
792.57	230.84
792.89	230.79
793.21	230.72
793.54	230.69
793.86	230.62
794.18	230.58
794.50	230.51
794.82	230.47
795.14	230.43
795.47	230.37
795.79	230.35
796.11	230.31
796.43	230.27
796.75	230.25
797.07	230.23
797.39	230.21
797.71	230.12
798.04	230.13
798.36	230.11
798.68	230.05
799.00	230.00
799.32	229.97
799.64	229.99
799.96	229.99
800.28	229.95
800.60	229.95
800.92	229.94
801.24	229.90
801.56	229.87
801.89	229.88
802.21	229.86
802.53	229.83
802.85	229.83
803.17	229.87
803.49	229.82
803.81	229.80
804.13	229.78
804.45	229.73
804.77	229.68
805.09	229.63
805.41	229.60
805.73	229.54
806.05	229.46
806.37	229.37
806.69	229.36
807.01	229.34
807.33	229.28
807.65	229.20
807.97	229.22
808.28	229.18
808.60	229.12
808.92	229.09
809.24	229.08
809.56	229.04
809.88	228.96
810.20	228.91
810.52	228.90
810.84	228.83
811.16	228.83
811.48	228.78
811.80	228.77
812.12	228.74
812.43	228.74
812.75	228.70
813.07	228.68
813.39	228.62
813.71	228.57
814.03	228.55
814.35	228.55
814.67	228.49
814.98	228.46
815.30	228.43
815.62	228.38
815.94	228.32
816.26	228.34
816.58	228.31
816.89	228.32
817.21	228.28
817.53	228.26
817.85	228.22
818.17	228.25
818.48	228.23
818.80	228.24
819.12	228.22
819.44	228.19
819.76	228.20
820.07	228.18
820.39	228.17
820.71	228.16
821.03	228.15
821.34	228.14
821.66	228.13
821.98	228.15
822.30	228.14
822.61	228.18
822.93	228.13
823.25	228.13
823.57	228.11
823.88	228.11
824.20	228.14
824.52	228.15
824.83	228.13
825.15	228.13
825.47	228.13
825.79	228.12
826.10	228.11
826.42	228.11
826.74	228.12
827.05	228.10
827.37	228.14
827.69	228.10
828.00	228.14
828.32	228.14
828.64	228.11
828.95	228.12
829.27	228.07
829.58	228.03
829.90	228.03
830.22	228.05
830.53	228.03
830.85	227.98
831.17	227.94
831.48	227.91
831.80	227.93
832.11	227.90
832.43	227.90
832.75	227.92
833.06	227.96
833.38	227.95
833.69	227.97
834.01	227.97
834.32	228.00
834.64	227.99
834.96	227.99
835.27	227.98
835.59	227.97
835.90	227.96
836.22	228.00
836.53	227.98
836.85	227.96
837.16	228.03
837.48	228.05
837.79	228.08
838.11	228.08
838.42	228.03
838.74	228.04
839.05	228.02
839.37	228.00
839.68	227.94
840.00	227.94
840.31	227.95
840.63	227.92
840.94	227.89
841.26	227.87
841.57	227.88
841.88	227.89
842.20	227.89
842.51	227.89
842.83	227.88
843.14	228.00
843.46	228.00
843.77	227.95
844.08	227.94
844.40	227.90
844.71	227.87
845.03	227.85
845.34	227.82
845.65	227.80
845.97	227.81
846.28	227.79
846.60	227.79
846.91	227.73
847.22	227.71
847.54	227.73
847.85	227.69
848.16	227.62
848.48	227.62
848.79	227.63
849.10	227.62
849.42	227.61
849.73	227.48
850.04	227.46
850.36	227.39
850.67	227.42
850.98	227.42
851.30	227.42
851.61	227.39
851.92	227.39
852.23	227.40
852.55	227.38
852.86	227.38
853.17	227.34
853.49	227.33
853.80	227.35
854.11	227.35
854.42	227.36
854.74	227.35
855.05	227.32
855.36	227.27
855.67	227.27
855.99	227.24
856.30	227.36
856.61	227.31
856.92	227.29
857.23	227.25
857.55	227.24
857.86	227.24
858.17	227.31
858.48	227.28
858.79	227.24
859.11	227.25
859.42	227.26
859.73	227.23
860.04	227.24
860.35	227.16
860.66	227.11
860.98	227.09
861.29	227.12
861.60	227.11
861.91	227.11
862.22	227.08
862.53	227.08
862.84	226.94
863.16	227.00
863.47	227.00
863.78	227.02
864.09	227.02
864.40	227.02
864.71	226.96
865.02	226.97
865.33	226.95
865.64	226.93
865.95	226.93
866.27	227.01
866.58	227.00
866.89	227.03
867.20	227.05
867.51	227.04
867.82	227.04
868.13	227.08
868.44	227.05
868.75	227.09
869.06	227.09
869.37	227.12
869.68	227.11
869.99	227.13
870.30	227.12
870.61	227.13
870.92	227.12
871.23	227.14
871.54	227.15
871.85	227.20
872.16	227.24
872.47	227.21
872.78	227.20
873.09	227.21
873.40	227.23
873.71	227.24
874.02	227.25
874.33	227.23
874.64	227.24
874.95	227.29
875.26	227.27
875.56	227.27
875.87	227.28
876.18	227.25
876.49	227.36
876.80	227.35
877.11	227.37
877.42	227.34
877.73	227.32
878.04	227.36
878.35	227.36
878.66	227.33
878.96	227.36
879.27	227.31
879.58	227.32
879.89	227.33
880.20	227.35
880.51	227.35
880.82	227.35
881.12	227.36
881.43	227.31
881.74	227.30
882.05	227.29
882.36	227.29
882.67	227.28
882.97	227.16
883.28	227.15
883.59	227.15
883.90	227.19
884.21	227.22
884.51	227.17
884.82	227.16
885.13	227.16
885.44	227.14
885.74	227.12
886.05	227.10
886.36	227.08
886.67	227.03
886.98	227.06
887.28	227.08
887.59	227.06
887.90	227.11
888.20	227.11
888.51	227.13
888.82	227.10
889.13	227.11
889.43	227.16
889.74	227.16
890.05	227.11
890.35	227.07
890.66	227.06
890.97	227.08
891.28	227.02
891.58	227.02
891.89	226.98
892.20	226.98
892.50	226.95
892.81	226.91
893.12	226.93
893.42	226.86
893.73	226.85
894.04	226.82
894.34	226.79
894.65	226.77
894.95	226.71
895.26	226.71
895.57	226.76
895.87	226.70
896.18	226.73
896.48	226.72
896.79	226.74
897.10	226.74
897.40	226.73
897.71	226.75
898.01	226.76
898.32	226.80
898.63	226.80
898.93	226.81
899.24	226.83
899.54	226.80
899.85	226.82
900.15	226.82
900.46	226.82
900.76	226.82
901.07	226.83
901.38	226.86
901.68	226.87
901.99	226.84
902.29	226.83
902.60	226.82
902.90	226.86
903.21	226.86
903.51	226.83
903.82	226.85
904.12	226.90
904.43	226.90
904.73	226.86
905.03	226.91
905.34	227.01
905.64	227.02
905.95	227.03
906.25	227.01
906.56	227.00
906.86	226.98
907.17	227.00
907.47	226.96
907.77	226.97
908.08	226.95
908.38	226.92
908.69	226.94
908.99	226.95
909.30	226.93
909.60	226.91
909.90	226.94
910.21	226.89
910.51	226.86
910.81	226.87
911.12	226.87
911.42	226.85
911.73	226.74
912.03	226.75
912.33	226.74
912.64	226.77
912.94	226.77
913.24	226.78
913.55	226.76
913.85	226.77
914.15	226.81
914.46	226.84
914.76	226.84
915.06	226.85
915.37	226.82
915.67	226.85
915.97	226.86
916.27	226.83
916.58	226.84
916.88	226.81
917.18	226.82
917.49	226.90
917.79	226.88
918.09	226.88
918.39	226.91
918.70	226.92
919.00	226.92
919.30	226.98
919.60	226.98
919.91	226.98
920.21	226.99
920.51	226.90
920.81	226.89
921.12	226.91
921.42	226.87
921.72	226.91
922.02	226.89
922.32	226.90
922.63	226.92
922.93	226.93
923.23	226.99
923.53	226.95
923.83	226.86
924.13	226.88
924.44	226.88
924.74	226.86
925.04	226.86
925.34	226.83
925.64	226.77
925.94	226.77
926.24	226.82
926.55	226.76
926.85	226.79
927.15	226.78
927.45	226.77
927.75	226.77
928.05	226.73
928.35	226.70
928.65	226.69
928.95	226.67
929.26	226.65
929.56	226.62
929.86	226.66
930.16	226.68
930.46	226.64
930.76	226.66
931.06	226.64
931.36	226.64
931.66	226.66
931.96	226.69
932.26	226.67
932.56	226.62
932.86	226.68
933.16	226.70
933.46	226.65
933.76	226.61
934.06	226.64
934.36	226.70
934.66	226.71
934.96	226.71
935.26	226.70
935.56	226.73
935.86	226.72
936.16	226.67
936.46	226.64
936.76	226.64
937.06	226.61
937.36	226.62
937.66	226.61
937.96	226.60
938.26	226.54
938.56	226.57
938.86	226.57
939.16	226.59
939.46	226.59
939.76	226.63
940.06	226.67
940.35	226.65
940.65	226.58
940.95	226.58
941.25	226.55
941.55	226.55
941.85	226.55
942.15	226.56
942.45	226.60
942.75	226.58
943.04	226.60
943.34	226.67
943.64	226.65
943.94	226.65
944.24	226.68
944.54	226.70
944.84	226.68
945.13	226.68
945.43	226.65
945.73	226.68
946.03	226.70
946.33	226.69
946.62	226.69
946.92	226.70
947.22	226.70
947.52	226.72
947.82	226.74
948.11	226.73
948.41	226.72
948.71	226.73
949.01	226.80
949.31	226.76
949.60	226.71
949.90	226.73
950.20	226.73
950.50	226.69
950.79	226.70
951.09	226.72
951.39	226.73
951.69	226.77
951.98	226.76
952.28	226.76
952.58	226.75
952.87	226.76
953.17	226.80
953.47	226.80
953.76	226.83
954.06	226.80
954.36	226.78
954.66	226.79
954.95	226.79
955.25	226.79
955.55	226.83
955.84	226.81
956.14	226.81
956.44	226.83
956.73	226.86
957.03	226.86
957.32	226.87
957.62	226.82
957.92	226.77
958.21	226.75
958.51	226.85
958.81	226.86
959.10	226.87
959.40	226.86
959.69	226.88
959.99	226.87
960.29	226.86
960.58	226.86
960.88	226.89
961.17	226.88
961.47	226.85
961.76	226.84
962.06	226.85
962.36	226.81
962.65	226.78
962.95	226.76
963.24	226.76
963.54	226.76
963.83	226.76
964.13	226.78
964.42	226.74
964.72	226.65
965.01	226.65
965.31	226.62
965.60	226.60
965.90	226.64
966.19	226.63
966.49	226.64
966.78	226.62
967.08	226.62
967.37	226.63
967.67	226.63
967.96	226.67
968.26	226.65
968.55	226.66
968.85	226.67
969.14	226.66
969.43	226.65
969.73	226.63
970.02	226.64
970.32	226.64
970.61	226.65
970.91	226.66
971.20	226.62
971.49	226.62
971.79	226.64
972.08	226.55
972.38	226.53
972.67	226.53
972.96	226.56
973.26	226.51
973.55	226.54
973.85	226.52
974.14	226.50
974.43	226.52
974.73	226.55
975.02	226.57
975.31	226.58
975.61	226.57
975.90	226.55
976.19	226.55
976.49	226.57
976.78	226.58
977.07	226.54
977.37	226.60
977.66	226.65
977.95	226.61
978.24	226.64
978.54	226.68
978.83	226.71
979.12	226.72
979.42	226.74
979.71	226.74
980.00	226.77
980.29	226.76
980.59	226.77
980.88	226.79
981.17	226.78
981.46	226.78
981.76	226.80
982.05	226.85
982.34	226.86
982.63	226.86
982.93	226.91
983.22	226.98
983.51	226.96
983.80	226.96
984.09	226.98
984.39	226.99
984.68	227.00
984.97	226.96
985.26	226.91
985.55	226.91
985.85	226.88
986.14	226.88
986.43	226.87
986.72	226.87
987.01	226.84
987.30	226.86
987.59	226.87
987.89	226.90
988.18	226.88
988.47	226.88
988.76	226.85
989.05	226.81
989.34	226.77
989.63	226.80
989.92	226.76
990.22	226.76
990.51	226.77
990.80	226.75
991.09	226.76
991.38	226.83
991.67	226.83
991.96	226.82
992.25	226.80
992.54	226.77
992.83	226.76
993.12	226.76
993.41	226.79
993.70	226.80
993.99	226.78
994.28	226.80
994.58	226.78
994.87	226.82
995.16	226.82
995.45	226.81
995.74	226.78
996.03	226.80
996.32	226.84
996.61	226.82
996.90	226.80
997.19	226.81
997.48	226.81
997.77	226.79
998.06	226.79
998.34	226.80
998.63	226.84
998.92	226.84
999.21	226.83
999.50	226.83
999.79	226.82
1000.08	226.81
1000.37	226.79
1000.66	226.80
1000.95	226.77
1001.24	226.78
1001.53	226.75
1001.82	226.72
1002.11	226.70
1002.40	226.69
1002.68	226.68
1002.97	226.76
1003.26	226.73
1003.55	226.68
1003.84	226.66
1004.13	226.69
1004.42	226.68
1004.71	226.68
1004.99	226.68
1005.28	226.68
1005.57	226.65
1005.86	226.62
1006.15	226.61
1006.44	226.57
1006.72	226.58
1007.01	226.55
1007.30	226.54
1007.59	226.54
1007.88	226.55
1008.17	226.57
1008.45	226.53
1008.74	226.52
1009.03	226.48
1009.32	226.51
1009.60	226.53
1009.89	226.54
1010.18	226.52
1010.47	226.52
1010.76	226.50
1011.04	226.51
1011.33	226.55
1011.62	226.56
1011.91	226.57
1012.19	226.58
1012.48	226.64
1012.77	226.62
1013.05	226.71
1013.34	226.70
1013.63	226.71
1013.92	226.71
1014.20	226.71
1014.49	226.71
1014.78	226.74
1015.06	226.71
1015.35	226.69
1015.64	226.70
1015.92	226.71
1016.21	226.69
1016.50	226.68
1016.78	226.71
1017.07	226.72
1017.36	226.69
1017.64	226.65
1017.93	226.68
1018.22	226.66
1018.50	226.62
1018.79	226.64
1019.08	226.58
1019.36	226.59
1019.65	226.57
1019.93	226.60
1020.22	226.61
1020.51	226.67
1020.79	226.63
1021.08	226.27
1021.36	226.36
1021.65	226.69
1021.94	226.42
1022.22	226.44
1022.51	226.31
1022.79	226.94
1023.08	226.88
1023.36	227.82
1023.65	226.07
>>>>>End Processed Spectral Data<<<<<
