SpectraSuite Data File
++++++++++++++++++++++++++++++++++++
Date: Fri Feb 01 16:12:34 EST 2013
User: group
Dark Spectrum Present: No
Reference Spectrum Present: No
Number of Sampled Component Spectra: 1
Spectrometers: USB2E7196
Integration Time (usec): 35000 (USB2E7196)
Spectra Averaged: 100 (USB2E7196)
Boxcar Smoothing: 10 (USB2E7196)
Correct for Electrical Dark: No (USB2E7196)
Strobe/Lamp Enabled: No (USB2E7196)
Correct for Detector Non-linearity: No (USB2E7196)
Correct for Stray Light: No (USB2E7196)
Number of Pixels in Processed Spectrum: 2048
>>>>>Begin Processed Spectral Data<<<<<
339.09	0.00
339.48	214.57
339.86	215.91
340.24	217.54
340.63	218.20
341.01	221.68
341.39	221.58
341.78	222.74
342.16	223.54
342.54	224.41
342.93	212.88
343.31	223.63
343.69	224.18
344.07	224.66
344.46	225.05
344.84	225.47
345.22	225.67
345.60	225.89
345.99	226.05
346.37	226.17
346.75	226.24
347.13	226.29
347.52	226.31
347.90	226.38
348.28	226.37
348.66	226.40
349.05	226.38
349.43	226.40
349.81	226.46
350.19	226.45
350.57	226.50
350.96	226.56
351.34	226.64
351.72	226.70
352.10	226.78
352.48	226.85
352.87	226.87
353.25	226.95
353.63	227.02
354.01	227.09
354.39	227.20
354.77	227.30
355.15	227.41
355.54	227.51
355.92	227.53
356.30	227.62
356.68	227.73
357.06	227.80
357.44	227.87
357.82	227.92
358.20	228.03
358.58	228.09
358.97	228.14
359.35	228.21
359.73	228.31
360.11	228.34
360.49	228.41
360.87	228.47
361.25	228.51
361.63	228.61
362.01	228.65
362.39	228.66
362.77	228.68
363.15	228.70
363.53	228.69
363.91	228.72
364.29	228.74
364.67	228.68
365.05	228.69
365.43	228.69
365.81	228.71
366.19	228.75
366.57	228.81
366.95	228.82
367.33	228.82
367.71	228.79
368.09	228.81
368.47	228.79
368.85	228.77
369.23	228.79
369.61	228.73
369.99	228.77
370.37	228.79
370.75	228.81
371.13	228.74
371.51	228.72
371.89	228.67
372.27	228.62
372.65	228.57
373.03	228.54
373.41	228.49
373.78	228.43
374.16	228.31
374.54	228.22
374.92	228.19
375.30	228.09
375.68	228.03
376.06	227.99
376.44	227.91
376.82	227.82
377.19	227.75
377.57	227.67
377.95	227.56
378.33	227.42
378.71	227.29
379.09	227.27
379.47	227.21
379.84	227.15
380.22	227.10
380.60	227.03
380.98	226.97
381.36	226.89
381.73	226.83
382.11	226.80
382.49	226.73
382.87	226.62
383.25	226.60
383.62	226.64
384.00	226.54
384.38	226.48
384.76	226.48
385.13	226.43
385.51	226.38
385.89	226.29
386.27	226.27
386.64	226.29
387.02	226.22
387.40	226.16
387.78	226.09
388.15	226.06
388.53	226.04
388.91	225.97
389.29	225.93
389.66	225.92
390.04	225.90
390.42	225.87
390.79	225.84
391.17	225.79
391.55	225.68
391.92	225.66
392.30	225.67
392.68	225.63
393.05	225.62
393.43	225.64
393.81	225.68
394.18	225.63
394.56	225.63
394.94	225.64
395.31	225.66
395.69	225.71
396.06	225.75
396.44	225.77
396.82	225.79
397.19	225.87
397.57	225.91
397.95	225.94
398.32	225.97
398.70	226.04
399.07	226.12
399.45	226.15
399.82	226.23
400.20	226.29
400.58	226.34
400.95	226.36
401.33	226.48
401.70	226.62
402.08	226.74
402.45	226.79
402.83	226.91
403.20	227.00
403.58	227.12
403.95	227.24
404.33	227.38
404.71	227.51
405.08	227.66
405.46	227.75
405.83	227.89
406.21	228.05
406.58	228.20
406.96	228.37
407.33	228.53
407.70	228.71
408.08	228.98
408.45	229.23
408.83	229.45
409.20	229.62
409.58	229.77
409.95	230.03
410.33	230.32
410.70	230.56
411.08	230.83
411.45	231.14
411.82	231.44
412.20	231.79
412.57	232.20
412.95	232.50
413.32	232.92
413.69	233.35
414.07	233.77
414.44	234.24
414.82	234.73
415.19	235.27
415.56	235.83
415.94	236.37
416.31	236.97
416.68	237.60
417.06	238.32
417.43	239.02
417.81	239.80
418.18	240.56
418.55	241.40
418.93	242.29
419.30	243.18
419.67	244.11
420.04	245.05
420.42	246.05
420.79	247.27
421.16	248.43
421.54	249.61
421.91	250.84
422.28	252.12
422.66	253.47
423.03	254.79
423.40	256.11
423.77	257.51
424.15	258.95
424.52	260.49
424.89	262.09
425.26	263.64
425.64	265.08
426.01	266.68
426.38	268.38
426.75	270.06
427.13	271.78
427.50	273.57
427.87	275.44
428.24	277.31
428.61	279.03
428.99	280.96
429.36	283.04
429.73	285.07
430.10	287.12
430.47	289.15
430.85	291.26
431.22	293.47
431.59	295.83
431.96	298.09
432.33	300.53
432.70	302.94
433.08	305.76
433.45	308.39
433.82	311.01
434.19	313.90
434.56	316.75
434.93	319.39
435.30	322.05
435.68	324.96
436.05	327.76
436.42	330.53
436.79	333.08
437.16	335.79
437.53	338.60
437.90	341.38
438.27	344.14
438.64	346.95
439.01	349.58
439.38	351.84
439.75	353.97
440.13	356.50
440.50	358.80
440.87	360.60
441.24	362.53
441.61	364.65
441.98	366.10
442.35	367.87
442.72	369.73
443.09	371.47
443.46	372.42
443.83	372.99
444.20	373.50
444.57	374.31
444.94	374.56
445.31	374.89
445.68	375.20
446.05	375.23
446.42	374.88
446.79	374.46
447.16	374.00
447.53	373.67
447.90	372.51
448.27	371.37
448.64	369.84
449.01	368.72
449.37	366.76
449.74	364.84
450.11	362.61
450.48	360.14
450.85	357.64
451.22	355.53
451.59	353.52
451.96	351.60
452.33	349.00
452.70	346.68
453.07	343.87
453.43	340.99
453.80	338.26
454.17	335.56
454.54	333.01
454.91	330.31
455.28	327.63
455.65	325.14
456.02	322.67
456.38	320.51
456.75	317.82
457.12	315.60
457.49	313.43
457.86	311.23
458.23	309.40
458.59	307.38
458.96	305.29
459.33	303.44
459.70	301.57
460.07	300.07
460.43	298.38
460.80	296.79
461.17	295.37
461.54	293.86
461.91	292.44
462.27	290.99
462.64	289.75
463.01	288.43
463.38	287.12
463.74	285.78
464.11	284.62
464.48	283.61
464.85	282.47
465.21	281.55
465.58	280.59
465.95	279.50
466.32	278.57
466.68	277.67
467.05	276.80
467.42	275.91
467.78	274.95
468.15	274.05
468.52	273.38
468.88	272.53
469.25	271.81
469.62	271.17
469.98	270.52
470.35	269.88
470.72	269.30
471.08	268.65
471.45	268.10
471.82	267.55
472.18	267.00
472.55	266.58
472.92	266.11
473.28	265.66
473.65	265.21
474.02	264.82
474.38	264.47
474.75	264.16
475.11	263.81
475.48	263.61
475.85	263.38
476.21	263.17
476.58	262.99
476.94	262.79
477.31	262.64
477.67	262.49
478.04	262.40
478.41	262.32
478.77	262.36
479.14	262.31
479.50	262.33
479.87	262.38
480.23	262.51
480.60	262.56
480.96	262.67
481.33	262.90
481.69	263.06
482.06	263.28
482.42	263.49
482.79	263.78
483.15	264.08
483.52	264.49
483.88	264.82
484.25	265.19
484.61	265.69
484.98	266.18
485.34	266.78
485.71	267.36
486.07	267.99
486.44	268.60
486.80	269.30
487.17	270.08
487.53	270.89
487.90	271.71
488.26	272.67
488.62	273.65
488.99	274.59
489.35	275.65
489.72	276.77
490.08	278.00
490.44	279.28
490.81	280.66
491.17	282.04
491.54	283.55
491.90	285.12
492.26	286.76
492.63	288.51
492.99	290.32
493.36	292.25
493.72	294.32
494.08	296.41
494.45	298.67
494.81	301.03
495.17	303.49
495.54	306.07
495.90	308.77
496.26	311.62
496.63	314.63
496.99	317.78
497.35	321.07
497.72	324.46
498.08	327.97
498.44	331.59
498.80	335.48
499.17	339.56
499.53	343.71
499.89	348.10
500.26	352.54
500.62	357.19
500.98	362.13
501.34	367.16
501.71	372.48
502.07	377.92
502.43	383.53
502.79	389.36
503.16	395.46
503.52	401.72
503.88	408.10
504.24	414.73
504.60	421.60
504.97	428.73
505.33	436.04
505.69	443.70
506.05	451.53
506.41	459.40
506.78	467.51
507.14	475.95
507.50	484.65
507.86	493.68
508.22	502.89
508.59	512.12
508.95	521.75
509.31	531.60
509.67	541.72
510.03	551.96
510.39	562.51
510.75	573.24
511.12	584.08
511.48	595.41
511.84	606.92
512.20	618.44
512.56	630.34
512.92	642.48
513.28	654.84
513.64	667.25
514.00	679.97
514.37	692.94
514.73	705.91
515.09	718.97
515.45	732.26
515.81	745.84
516.17	759.81
516.53	773.89
516.89	787.99
517.25	802.16
517.61	816.69
517.97	831.09
518.33	845.53
518.69	860.44
519.05	875.46
519.41	890.58
519.77	906.10
520.13	921.52
520.49	936.92
520.85	952.36
521.21	968.08
521.57	984.29
521.93	1000.02
522.29	1016.47
522.65	1032.64
523.01	1048.76
523.37	1064.83
523.73	1080.96
524.09	1097.04
524.45	1113.37
524.81	1129.90
525.17	1146.61
525.53	1163.42
525.89	1180.22
526.25	1197.02
526.61	1213.26
526.97	1229.91
527.33	1246.28
527.68	1262.87
528.04	1279.30
528.40	1295.83
528.76	1312.94
529.12	1329.50
529.48	1346.42
529.84	1362.30
530.20	1379.01
530.56	1395.92
530.91	1413.17
531.27	1429.88
531.63	1446.29
531.99	1462.82
532.35	1478.84
532.71	1494.74
533.07	1511.04
533.42	1526.98
533.78	1542.89
534.14	1559.22
534.50	1574.52
534.86	1590.32
535.21	1605.46
535.57	1621.26
535.93	1636.62
536.29	1651.19
536.65	1666.23
537.00	1680.77
537.36	1696.21
537.72	1710.69
538.08	1725.14
538.44	1738.88
538.79	1752.66
539.15	1766.12
539.51	1779.78
539.87	1794.05
540.22	1807.67
540.58	1821.17
540.94	1834.32
541.29	1847.03
541.65	1859.47
542.01	1872.66
542.37	1885.05
542.72	1897.42
543.08	1909.24
543.44	1921.63
543.79	1932.86
544.15	1943.65
544.51	1955.35
544.87	1966.11
545.22	1976.76
545.58	1986.94
545.94	1996.63
546.29	2006.46
546.65	2016.35
547.01	2025.68
547.36	2034.28
547.72	2042.63
548.07	2050.64
548.43	2058.69
548.79	2066.66
549.14	2074.35
549.50	2081.45
549.86	2089.03
550.21	2096.14
550.57	2103.37
550.92	2109.95
551.28	2116.99
551.64	2124.14
551.99	2130.58
552.35	2136.73
552.70	2142.84
553.06	2148.81
553.41	2155.13
553.77	2161.10
554.13	2167.07
554.48	2173.02
554.84	2178.60
555.19	2183.83
555.55	2188.95
555.90	2193.49
556.26	2198.58
556.61	2203.20
556.97	2207.81
557.32	2211.91
557.68	2216.20
558.03	2220.44
558.39	2224.06
558.74	2228.63
559.10	2232.42
559.45	2236.01
559.81	2240.13
560.16	2243.94
560.52	2247.26
560.87	2250.70
561.23	2253.47
561.58	2256.47
561.94	2259.08
562.29	2261.25
562.64	2264.13
563.00	2266.63
563.35	2270.14
563.71	2273.22
564.06	2276.40
564.42	2279.26
564.77	2281.94
565.12	2284.37
565.48	2286.20
565.83	2288.16
566.19	2289.71
566.54	2290.63
566.89	2291.90
567.25	2292.72
567.60	2293.93
567.96	2295.58
568.31	2296.35
568.66	2297.39
569.02	2297.91
569.37	2298.21
569.72	2299.29
570.08	2299.37
570.43	2299.44
570.78	2299.01
571.14	2297.48
571.49	2296.06
571.84	2295.51
572.20	2294.35
572.55	2293.28
572.90	2291.72
573.26	2290.25
573.61	2288.30
573.96	2286.74
574.31	2283.70
574.67	2280.72
575.02	2277.23
575.37	2273.88
575.72	2270.34
576.08	2267.00
576.43	2263.67
576.78	2260.11
577.13	2256.77
577.49	2253.58
577.84	2250.26
578.19	2246.34
578.54	2242.84
578.90	2238.90
579.25	2233.49
579.60	2228.50
579.95	2223.43
580.30	2218.37
580.66	2213.26
581.01	2208.31
581.36	2203.34
581.71	2199.36
582.06	2195.10
582.42	2190.77
582.77	2185.49
583.12	2180.81
583.47	2176.32
583.82	2171.67
584.17	2166.49
584.53	2161.10
584.88	2155.60
585.23	2149.89
585.58	2144.56
585.93	2138.96
586.28	2134.09
586.63	2129.02
586.98	2123.90
587.34	2119.13
587.69	2114.30
588.04	2109.20
588.39	2103.73
588.74	2097.34
589.09	2090.98
589.44	2084.20
589.79	2077.98
590.14	2072.42
590.49	2065.88
590.84	2059.31
591.19	2052.95
591.54	2046.38
591.89	2039.12
592.25	2032.54
592.60	2025.34
592.95	2017.80
593.30	2010.50
593.65	2002.88
594.00	1995.88
594.35	1988.74
594.70	1980.73
595.05	1973.68
595.40	1966.32
595.75	1958.76
596.10	1952.63
596.45	1946.04
596.80	1939.89
597.15	1933.47
597.50	1926.57
597.85	1920.23
598.19	1913.65
598.54	1906.89
598.89	1900.30
599.24	1894.38
599.59	1887.63
599.94	1881.44
600.29	1875.16
600.64	1868.51
600.99	1861.15
601.34	1854.30
601.69	1847.30
602.04	1840.63
602.39	1833.28
602.74	1826.54
603.08	1819.89
603.43	1812.94
603.78	1805.59
604.13	1798.35
604.48	1791.12
604.83	1784.13
605.18	1777.21
605.53	1769.30
605.87	1761.12
606.22	1753.80
606.57	1745.75
606.92	1738.34
607.27	1731.20
607.62	1724.29
607.96	1717.21
608.31	1710.67
608.66	1703.22
609.01	1695.83
609.36	1688.31
609.70	1680.27
610.05	1672.35
610.40	1664.65
610.75	1656.41
611.10	1648.80
611.44	1640.23
611.79	1632.11
612.14	1623.44
612.49	1614.15
612.83	1605.65
613.18	1597.63
613.53	1589.62
613.88	1581.24
614.22	1572.97
614.57	1564.22
614.92	1556.12
615.27	1548.56
615.61	1540.22
615.96	1532.14
616.31	1524.36
616.65	1516.80
617.00	1509.30
617.35	1501.49
617.70	1493.27
618.04	1484.80
618.39	1476.48
618.74	1468.97
619.08	1460.78
619.43	1453.22
619.78	1446.31
620.12	1439.32
620.47	1431.82
620.82	1423.67
621.16	1416.19
621.51	1408.51
621.85	1400.97
622.20	1392.56
622.55	1384.12
622.89	1376.29
623.24	1368.64
623.59	1361.27
623.93	1353.84
624.28	1346.59
624.62	1339.07
624.97	1331.85
625.32	1325.00
625.66	1318.00
626.01	1310.84
626.35	1303.44
626.70	1295.74
627.04	1288.16
627.39	1280.24
627.73	1272.75
628.08	1265.80
628.43	1258.61
628.77	1251.35
629.12	1243.82
629.46	1236.65
629.81	1229.20
630.15	1221.97
630.50	1214.53
630.84	1206.30
631.19	1198.31
631.53	1190.78
631.88	1183.18
632.22	1175.54
632.57	1168.23
632.91	1160.69
633.26	1153.29
633.60	1145.84
633.95	1138.55
634.29	1131.38
634.64	1124.68
634.98	1117.38
635.32	1110.23
635.67	1103.49
636.01	1096.86
636.36	1090.11
636.70	1083.43
637.05	1076.94
637.39	1070.48
637.73	1063.95
638.08	1058.05
638.42	1052.11
638.77	1045.63
639.11	1039.18
639.45	1032.77
639.80	1026.16
640.14	1019.86
640.49	1013.34
640.83	1007.01
641.17	1000.94
641.52	994.63
641.86	988.21
642.20	982.39
642.55	976.10
642.89	969.64
643.23	962.99
643.58	957.17
643.92	951.06
644.26	945.02
644.61	938.93
644.95	932.94
645.29	926.40
645.64	919.63
645.98	913.26
646.32	907.20
646.66	901.19
647.01	895.36
647.35	889.54
647.69	883.66
648.04	878.15
648.38	872.32
648.72	866.41
649.06	860.37
649.41	854.37
649.75	848.41
650.09	842.48
650.43	836.72
650.78	830.55
651.12	824.61
651.46	818.84
651.80	813.12
652.14	807.66
652.49	802.32
652.83	797.14
653.17	791.51
653.51	785.83
653.85	780.38
654.20	774.81
654.54	768.84
654.88	763.10
655.22	757.13
655.56	751.36
655.90	745.80
656.25	740.52
656.59	735.25
656.93	730.10
657.27	725.02
657.61	719.60
657.95	714.52
658.29	709.44
658.64	704.22
658.98	698.85
659.32	693.44
659.66	688.19
660.00	682.88
660.34	677.92
660.68	673.03
661.02	667.99
661.36	663.26
661.70	658.75
662.05	654.36
662.39	650.08
662.73	645.62
663.07	641.28
663.41	636.80
663.75	632.31
664.09	627.79
664.43	623.36
664.77	619.28
665.11	614.98
665.45	610.84
665.79	606.77
666.13	602.69
666.47	598.58
666.81	594.43
667.15	590.31
667.49	586.36
667.83	582.54
668.17	578.63
668.51	574.55
668.85	570.52
669.19	566.66
669.53	562.85
669.87	559.00
670.21	555.25
670.55	551.63
670.89	548.17
671.23	544.69
671.57	541.17
671.91	537.64
672.25	534.11
672.58	530.56
672.92	527.06
673.26	523.92
673.60	520.72
673.94	517.66
674.28	514.75
674.62	511.87
674.96	508.74
675.30	505.84
675.64	502.91
675.97	500.11
676.31	497.26
676.65	494.32
676.99	491.60
677.33	488.78
677.67	485.98
678.01	482.95
678.34	480.02
678.68	477.07
679.02	474.30
679.36	471.58
679.70	468.86
680.04	466.17
680.37	463.24
680.71	460.50
681.05	457.80
681.39	455.09
681.73	452.41
682.06	449.94
682.40	447.39
682.74	444.81
683.08	442.27
683.42	439.65
683.75	437.14
684.09	434.57
684.43	432.07
684.77	429.62
685.10	427.23
685.44	424.89
685.78	422.62
686.12	420.28
686.45	418.01
686.79	415.71
687.13	413.47
687.46	411.30
687.80	409.07
688.14	406.81
688.48	404.75
688.81	402.55
689.15	400.36
689.49	398.18
689.82	396.13
690.16	394.03
690.50	392.09
690.83	390.13
691.17	388.19
691.51	386.28
691.84	384.37
692.18	382.46
692.52	380.52
692.85	378.55
693.19	376.65
693.52	374.80
693.86	372.99
694.20	371.19
694.53	369.42
694.87	367.62
695.21	365.86
695.54	364.02
695.88	362.22
696.21	360.50
696.55	358.85
696.88	357.16
697.22	355.46
697.56	353.80
697.89	352.16
698.23	350.54
698.56	348.93
698.90	347.41
699.23	345.79
699.57	344.26
699.90	342.74
700.24	341.21
700.58	339.68
700.91	338.18
701.25	336.78
701.58	335.41
701.92	334.03
702.25	332.72
702.59	331.33
702.92	330.04
703.26	328.71
703.59	327.44
703.93	326.26
704.26	325.04
704.60	323.77
704.93	322.51
705.26	321.22
705.60	320.03
705.93	318.81
706.27	317.75
706.60	316.68
706.94	315.58
707.27	314.44
707.61	313.35
707.94	312.32
708.27	311.19
708.61	310.07
708.94	309.03
709.28	308.00
709.61	307.04
709.94	306.06
710.28	305.06
710.61	304.02
710.95	302.92
711.28	302.04
711.61	301.05
711.95	300.15
712.28	299.27
712.61	298.29
712.95	297.37
713.28	296.50
713.61	295.57
713.95	294.70
714.28	293.89
714.61	293.05
714.95	292.23
715.28	291.42
715.61	290.55
715.95	289.73
716.28	288.86
716.61	288.03
716.95	287.20
717.28	286.41
717.61	285.66
717.94	284.96
718.28	284.13
718.61	283.43
718.94	282.72
719.27	282.02
719.61	281.40
719.94	280.74
720.27	280.02
720.60	279.42
720.94	278.79
721.27	278.19
721.60	277.56
721.93	276.96
722.27	276.40
722.60	275.89
722.93	275.32
723.26	274.81
723.59	274.28
723.93	273.76
724.26	273.22
724.59	272.66
724.92	272.11
725.25	271.61
725.59	271.07
725.92	270.57
726.25	270.06
726.58	269.55
726.91	269.08
727.24	268.58
727.57	268.08
727.91	267.58
728.24	267.09
728.57	266.63
728.90	266.17
729.23	265.71
729.56	265.27
729.89	264.80
730.22	264.32
730.55	263.83
730.89	263.38
731.22	262.95
731.55	262.52
731.88	262.09
732.21	261.68
732.54	261.22
732.87	260.78
733.20	260.37
733.53	259.99
733.86	259.62
734.19	259.26
734.52	258.84
734.85	258.54
735.18	258.14
735.51	257.79
735.84	257.41
736.17	257.01
736.50	256.61
736.83	256.38
737.16	256.05
737.49	255.71
737.82	255.37
738.15	255.04
738.48	254.67
738.81	254.36
739.14	254.02
739.47	253.77
739.80	253.50
740.13	253.17
740.46	252.84
740.79	252.51
741.12	252.17
741.45	251.86
741.78	251.51
742.11	251.26
742.44	250.93
742.77	250.64
743.10	250.36
743.43	250.03
743.75	249.62
744.08	249.48
744.41	249.23
744.74	248.92
745.07	248.66
745.40	248.46
745.73	248.16
746.06	247.89
746.39	247.63
746.71	247.32
747.04	247.05
747.37	246.78
747.70	246.50
748.03	246.26
748.36	246.03
748.68	245.79
749.01	245.48
749.34	245.27
749.67	245.03
750.00	244.78
750.33	244.65
750.65	244.46
750.98	244.11
751.31	243.87
751.64	243.69
751.97	243.51
752.29	243.26
752.62	243.05
752.95	242.86
753.28	242.61
753.60	242.40
753.93	242.23
754.26	242.05
754.59	241.85
754.91	241.64
755.24	241.45
755.57	241.23
755.90	241.05
756.22	240.83
756.55	240.66
756.88	240.48
757.20	240.24
757.53	240.01
757.86	239.89
758.19	239.73
758.51	239.53
758.84	239.33
759.17	239.15
759.49	239.01
759.82	238.91
760.15	238.77
760.47	238.65
760.80	238.46
761.13	238.36
761.45	238.20
761.78	238.07
762.11	237.93
762.43	237.79
762.76	237.67
763.08	237.56
763.41	237.40
763.74	237.27
764.06	237.12
764.39	237.01
764.71	236.82
765.04	236.65
765.37	236.53
765.69	236.39
766.02	236.29
766.34	236.17
766.67	236.01
767.00	235.93
767.32	235.87
767.65	235.85
767.97	235.73
768.30	235.62
768.62	235.50
768.95	235.36
769.27	235.23
769.60	235.17
769.92	235.08
770.25	234.99
770.57	234.88
770.90	234.81
771.22	234.72
771.55	234.62
771.87	234.54
772.20	234.45
772.52	234.44
772.85	234.47
773.17	234.36
773.50	234.24
773.82	234.11
774.15	233.98
774.47	233.81
774.80	233.74
775.12	233.67
775.45	233.63
775.77	233.58
776.09	233.55
776.42	233.44
776.74	233.35
777.07	233.29
777.39	233.20
777.72	233.10
778.04	233.03
778.36	232.99
778.69	232.93
779.01	232.88
779.33	232.74
779.66	232.54
779.98	232.47
780.31	232.41
780.63	232.40
780.95	232.30
781.28	232.21
781.60	232.12
781.92	232.03
782.25	231.94
782.57	231.87
782.89	231.76
783.22	231.71
783.54	231.65
783.86	231.58
784.19	231.54
784.51	231.47
784.83	231.39
785.16	231.30
785.48	231.23
785.80	231.18
786.12	231.14
786.45	231.10
786.77	231.08
787.09	230.99
787.42	230.90
787.74	230.89
788.06	230.88
788.38	230.81
788.71	230.77
789.03	230.73
789.35	230.70
789.67	230.70
789.99	230.66
790.32	230.58
790.64	230.53
790.96	230.56
791.28	230.51
791.61	230.48
791.93	230.47
792.25	230.46
792.57	230.48
792.89	230.40
793.21	230.33
793.54	230.28
793.86	230.28
794.18	230.27
794.50	230.19
794.82	230.16
795.14	230.15
795.47	230.13
795.79	230.10
796.11	230.05
796.43	229.99
796.75	229.95
797.07	229.92
797.39	229.88
797.71	229.78
798.04	229.76
798.36	229.72
798.68	229.67
799.00	229.62
799.32	229.59
799.64	229.57
799.96	229.57
800.28	229.55
800.60	229.52
800.92	229.52
801.24	229.50
801.56	229.49
801.89	229.47
802.21	229.46
802.53	229.42
802.85	229.40
803.17	229.45
803.49	229.38
803.81	229.38
804.13	229.34
804.45	229.32
804.77	229.32
805.09	229.31
805.41	229.29
805.73	229.27
806.05	229.20
806.37	229.20
806.69	229.16
807.01	229.16
807.33	229.17
807.65	229.09
807.97	229.13
808.28	229.09
808.60	229.07
808.92	229.01
809.24	229.03
809.56	228.98
809.88	228.89
810.20	228.90
810.52	228.93
810.84	228.93
811.16	228.90
811.48	228.84
811.80	228.87
812.12	228.85
812.43	228.84
812.75	228.82
813.07	228.75
813.39	228.76
813.71	228.68
814.03	228.63
814.35	228.62
814.67	228.57
814.98	228.56
815.30	228.50
815.62	228.48
815.94	228.40
816.26	228.47
816.58	228.46
816.89	228.44
817.21	228.33
817.53	228.31
817.85	228.28
818.17	228.28
818.48	228.19
818.80	228.18
819.12	228.15
819.44	228.10
819.76	228.11
820.07	228.09
820.39	228.07
820.71	228.08
821.03	228.03
821.34	227.99
821.66	227.96
821.98	227.95
822.30	227.94
822.61	227.98
822.93	227.88
823.25	227.83
823.57	227.80
823.88	227.81
824.20	227.79
824.52	227.76
824.83	227.71
825.15	227.70
825.47	227.67
825.79	227.65
826.10	227.64
826.42	227.58
826.74	227.54
827.05	227.52
827.37	227.53
827.69	227.49
828.00	227.45
828.32	227.45
828.64	227.42
828.95	227.44
829.27	227.39
829.58	227.39
829.90	227.40
830.22	227.39
830.53	227.35
830.85	227.33
831.17	227.34
831.48	227.36
831.80	227.34
832.11	227.34
832.43	227.30
832.75	227.29
833.06	227.38
833.38	227.34
833.69	227.33
834.01	227.32
834.32	227.33
834.64	227.34
834.96	227.31
835.27	227.31
835.59	227.27
835.90	227.26
836.22	227.22
836.53	227.18
836.85	227.19
837.16	227.28
837.48	227.26
837.79	227.27
838.11	227.27
838.42	227.27
838.74	227.28
839.05	227.31
839.37	227.29
839.68	227.22
840.00	227.22
840.31	227.23
840.63	227.18
840.94	227.17
841.26	227.15
841.57	227.15
841.88	227.17
842.20	227.18
842.51	227.16
842.83	227.20
843.14	227.32
843.46	227.28
843.77	227.24
844.08	227.25
844.40	227.23
844.71	227.19
845.03	227.18
845.34	227.14
845.65	227.15
845.97	227.16
846.28	227.18
846.60	227.17
846.91	227.13
847.22	227.12
847.54	227.11
847.85	227.14
848.16	227.12
848.48	227.10
848.79	227.11
849.10	227.10
849.42	227.10
849.73	226.98
850.04	226.98
850.36	226.91
850.67	226.90
850.98	226.88
851.30	226.88
851.61	226.86
851.92	226.86
852.23	226.84
852.55	226.83
852.86	226.80
853.17	226.79
853.49	226.84
853.80	226.86
854.11	226.89
854.42	226.91
854.74	226.90
855.05	226.88
855.36	226.86
855.67	226.86
855.99	226.85
856.30	226.95
856.61	226.94
856.92	226.97
857.23	226.96
857.55	226.93
857.86	226.94
858.17	226.96
858.48	226.95
858.79	226.95
859.11	226.94
859.42	226.94
859.73	226.95
860.04	226.96
860.35	226.91
860.66	226.84
860.98	226.76
861.29	226.74
861.60	226.72
861.91	226.76
862.22	226.74
862.53	226.74
862.84	226.64
863.16	226.66
863.47	226.63
863.78	226.63
864.09	226.64
864.40	226.63
864.71	226.65
865.02	226.66
865.33	226.64
865.64	226.63
865.95	226.64
866.27	226.72
866.58	226.69
866.89	226.73
867.20	226.77
867.51	226.76
867.82	226.78
868.13	226.82
868.44	226.75
868.75	226.77
869.06	226.79
869.37	226.77
869.68	226.77
869.99	226.80
870.30	226.83
870.61	226.85
870.92	226.83
871.23	226.80
871.54	226.83
871.85	226.89
872.16	226.88
872.47	226.86
872.78	226.74
873.09	226.75
873.40	226.74
873.71	226.78
874.02	226.79
874.33	226.78
874.64	226.78
874.95	226.81
875.26	226.80
875.56	226.78
875.87	226.80
876.18	226.77
876.49	226.86
876.80	226.85
877.11	226.83
877.42	226.84
877.73	226.85
878.04	226.82
878.35	226.78
878.66	226.78
878.96	226.78
879.27	226.82
879.58	226.82
879.89	226.82
880.20	226.81
880.51	226.82
880.82	226.83
881.12	226.82
881.43	226.78
881.74	226.74
882.05	226.72
882.36	226.72
882.67	226.72
882.97	226.60
883.28	226.58
883.59	226.58
883.90	226.59
884.21	226.61
884.51	226.59
884.82	226.60
885.13	226.62
885.44	226.62
885.74	226.61
886.05	226.57
886.36	226.57
886.67	226.53
886.98	226.58
887.28	226.54
887.59	226.54
887.90	226.57
888.20	226.57
888.51	226.61
888.82	226.59
889.13	226.63
889.43	226.71
889.74	226.69
890.05	226.70
890.35	226.69
890.66	226.65
890.97	226.64
891.28	226.62
891.58	226.59
891.89	226.59
892.20	226.60
892.50	226.60
892.81	226.59
893.12	226.57
893.42	226.53
893.73	226.55
894.04	226.53
894.34	226.53
894.65	226.50
894.95	226.45
895.26	226.47
895.57	226.50
895.87	226.41
896.18	226.41
896.48	226.41
896.79	226.44
897.10	226.44
897.40	226.42
897.71	226.42
898.01	226.46
898.32	226.46
898.63	226.43
898.93	226.42
899.24	226.42
899.54	226.42
899.85	226.40
900.15	226.41
900.46	226.45
900.76	226.45
901.07	226.44
901.38	226.47
901.68	226.49
901.99	226.45
902.29	226.45
902.60	226.45
902.90	226.43
903.21	226.41
903.51	226.41
903.82	226.44
904.12	226.46
904.43	226.45
904.73	226.47
905.03	226.49
905.34	226.58
905.64	226.60
905.95	226.61
906.25	226.61
906.56	226.61
906.86	226.59
907.17	226.60
907.47	226.61
907.77	226.60
908.08	226.57
908.38	226.56
908.69	226.57
908.99	226.57
909.30	226.59
909.60	226.58
909.90	226.62
910.21	226.58
910.51	226.54
910.81	226.52
911.12	226.51
911.42	226.52
911.73	226.42
912.03	226.36
912.33	226.39
912.64	226.37
912.94	226.37
913.24	226.37
913.55	226.38
913.85	226.39
914.15	226.40
914.46	226.41
914.76	226.41
915.06	226.44
915.37	226.44
915.67	226.46
915.97	226.45
916.27	226.43
916.58	226.45
916.88	226.47
917.18	226.48
917.49	226.53
917.79	226.55
918.09	226.61
918.39	226.67
918.70	226.65
919.00	226.68
919.30	226.70
919.60	226.71
919.91	226.70
920.21	226.70
920.51	226.68
920.81	226.69
921.12	226.69
921.42	226.67
921.72	226.68
922.02	226.68
922.32	226.72
922.63	226.72
922.93	226.77
923.23	226.75
923.53	226.76
923.83	226.67
924.13	226.69
924.44	226.65
924.74	226.66
925.04	226.69
925.34	226.70
925.64	226.68
925.94	226.66
926.24	226.70
926.55	226.70
926.85	226.74
927.15	226.69
927.45	226.67
927.75	226.65
928.05	226.63
928.35	226.60
928.65	226.60
928.95	226.59
929.26	226.54
929.56	226.54
929.86	226.53
930.16	226.53
930.46	226.48
930.76	226.47
931.06	226.42
931.36	226.38
931.66	226.38
931.96	226.35
932.26	226.37
932.56	226.31
932.86	226.30
933.16	226.30
933.46	226.31
933.76	226.31
934.06	226.31
934.36	226.36
934.66	226.38
934.96	226.34
935.26	226.35
935.56	226.35
935.86	226.32
936.16	226.29
936.46	226.30
936.76	226.30
937.06	226.29
937.36	226.27
937.66	226.26
937.96	226.25
938.26	226.23
938.56	226.18
938.86	226.21
939.16	226.22
939.46	226.20
939.76	226.20
940.06	226.19
940.35	226.18
940.65	226.11
940.95	226.10
941.25	226.09
941.55	226.08
941.85	226.05
942.15	226.08
942.45	226.11
942.75	226.12
943.04	226.12
943.34	226.14
943.64	226.16
943.94	226.15
944.24	226.13
944.54	226.13
944.84	226.16
945.13	226.13
945.43	226.09
945.73	226.11
946.03	226.11
946.33	226.12
946.62	226.11
946.92	226.11
947.22	226.14
947.52	226.12
947.82	226.09
948.11	226.11
948.41	226.11
948.71	226.10
949.01	226.13
949.31	226.14
949.60	226.12
949.90	226.15
950.20	226.16
950.50	226.16
950.79	226.14
951.09	226.17
951.39	226.20
951.69	226.24
951.98	226.26
952.28	226.27
952.58	226.24
952.87	226.27
953.17	226.28
953.47	226.27
953.76	226.27
954.06	226.29
954.36	226.28
954.66	226.29
954.95	226.34
955.25	226.30
955.55	226.29
955.84	226.29
956.14	226.29
956.44	226.33
956.73	226.36
957.03	226.42
957.32	226.42
957.62	226.39
957.92	226.39
958.21	226.41
958.51	226.53
958.81	226.57
959.10	226.57
959.40	226.62
959.69	226.65
959.99	226.69
960.29	226.70
960.58	226.71
960.88	226.75
961.17	226.72
961.47	226.74
961.76	226.75
962.06	226.79
962.36	226.77
962.65	226.82
962.95	226.82
963.24	226.80
963.54	226.83
963.83	226.82
964.13	226.81
964.42	226.75
964.72	226.67
965.01	226.66
965.31	226.69
965.60	226.62
965.90	226.64
966.19	226.62
966.49	226.63
966.78	226.64
967.08	226.61
967.37	226.62
967.67	226.59
967.96	226.62
968.26	226.59
968.55	226.59
968.85	226.56
969.14	226.53
969.43	226.48
969.73	226.42
970.02	226.43
970.32	226.44
970.61	226.45
970.91	226.40
971.20	226.36
971.49	226.33
971.79	226.35
972.08	226.31
972.38	226.30
972.67	226.29
972.96	226.28
973.26	226.23
973.55	226.23
973.85	226.23
974.14	226.23
974.43	226.24
974.73	226.21
975.02	226.17
975.31	226.17
975.61	226.20
975.90	226.18
976.19	226.18
976.49	226.14
976.78	226.12
977.07	226.10
977.37	226.12
977.66	226.09
977.95	226.08
978.24	226.07
978.54	226.08
978.83	226.05
979.12	226.07
979.42	226.08
979.71	226.07
980.00	226.06
980.29	226.03
980.59	225.99
980.88	226.02
981.17	226.02
981.46	226.01
981.76	225.99
982.05	226.03
982.34	226.04
982.63	226.03
982.93	226.03
983.22	226.07
983.51	226.05
983.80	226.08
984.09	226.07
984.39	226.04
984.68	226.02
984.97	226.04
985.26	226.03
985.55	226.06
985.85	226.01
986.14	226.02
986.43	226.02
986.72	226.06
987.01	226.05
987.30	226.05
987.59	226.04
987.89	226.04
988.18	225.99
988.47	225.97
988.76	225.97
989.05	226.00
989.34	225.97
989.63	225.99
989.92	225.96
990.22	225.99
990.51	226.00
990.80	226.01
991.09	225.97
991.38	225.99
991.67	225.94
991.96	225.96
992.25	225.94
992.54	225.94
992.83	225.90
993.12	225.86
993.41	225.90
993.70	225.98
993.99	226.01
994.28	226.06
994.58	226.08
994.87	226.11
995.16	226.06
995.45	226.07
995.74	226.07
996.03	226.14
996.32	226.15
996.61	226.18
996.90	226.19
997.19	226.21
997.48	226.21
997.77	226.26
998.06	226.27
998.34	226.30
998.63	226.32
998.92	226.33
999.21	226.38
999.50	226.34
999.79	226.30
1000.08	226.31
1000.37	226.28
1000.66	226.26
1000.95	226.27
1001.24	226.31
1001.53	226.32
1001.82	226.32
1002.11	226.27
1002.40	226.27
1002.68	226.30
1002.97	226.40
1003.26	226.41
1003.55	226.41
1003.84	226.40
1004.13	226.42
1004.42	226.42
1004.71	226.43
1004.99	226.42
1005.28	226.41
1005.57	226.40
1005.86	226.38
1006.15	226.38
1006.44	226.42
1006.72	226.44
1007.01	226.43
1007.30	226.43
1007.59	226.48
1007.88	226.48
1008.17	226.50
1008.45	226.50
1008.74	226.49
1009.03	226.41
1009.32	226.39
1009.60	226.39
1009.89	226.35
1010.18	226.35
1010.47	226.32
1010.76	226.30
1011.04	226.33
1011.33	226.38
1011.62	226.40
1011.91	226.44
1012.19	226.44
1012.48	226.42
1012.77	226.42
1013.05	226.46
1013.34	226.44
1013.63	226.37
1013.92	226.35
1014.20	226.33
1014.49	226.30
1014.78	226.26
1015.06	226.25
1015.35	226.23
1015.64	226.23
1015.92	226.24
1016.21	226.26
1016.50	226.27
1016.78	226.29
1017.07	226.26
1017.36	226.22
1017.64	226.18
1017.93	226.16
1018.22	226.11
1018.50	226.13
1018.79	226.10
1019.08	226.05
1019.36	226.05
1019.65	226.05
1019.93	226.10
1020.22	226.14
1020.51	226.19
1020.79	226.17
1021.08	225.46
1021.36	226.58
1021.65	226.12
1021.94	225.83
1022.22	225.94
1022.51	225.60
1022.79	227.03
1023.08	226.80
1023.36	227.08
1023.65	225.59
>>>>>End Processed Spectral Data<<<<<
