SpectraSuite Data File
++++++++++++++++++++++++++++++++++++
Date: Fri Feb 01 17:00:56 EST 2013
User: group
Dark Spectrum Present: No
Reference Spectrum Present: No
Number of Sampled Component Spectra: 1
Spectrometers: USB2E7196
Integration Time (usec): 35000 (USB2E7196)
Spectra Averaged: 100 (USB2E7196)
Boxcar Smoothing: 10 (USB2E7196)
Correct for Electrical Dark: No (USB2E7196)
Strobe/Lamp Enabled: No (USB2E7196)
Correct for Detector Non-linearity: No (USB2E7196)
Correct for Stray Light: No (USB2E7196)
Number of Pixels in Processed Spectrum: 2048
>>>>>Begin Processed Spectral Data<<<<<
339.09	0.00
339.48	213.20
339.86	214.76
340.24	216.29
340.63	217.57
341.01	220.35
341.39	220.17
341.78	221.50
342.16	223.11
342.54	223.59
342.93	211.77
343.31	222.46
343.69	223.02
344.07	223.48
344.46	223.90
344.84	224.28
345.22	224.51
345.60	224.78
345.99	224.96
346.37	225.06
346.75	225.14
347.13	225.19
347.52	225.22
347.90	225.30
348.28	225.30
348.66	225.33
349.05	225.32
349.43	225.33
349.81	225.38
350.19	225.37
350.57	225.41
350.96	225.50
351.34	225.57
351.72	225.64
352.10	225.76
352.48	225.84
352.87	225.90
353.25	225.96
353.63	226.03
354.01	226.09
354.39	226.20
354.77	226.30
355.15	226.40
355.54	226.48
355.92	226.51
356.30	226.59
356.68	226.73
357.06	226.82
357.44	226.88
357.82	226.97
358.20	227.07
358.58	227.16
358.97	227.22
359.35	227.32
359.73	227.39
360.11	227.43
360.49	227.49
360.87	227.51
361.25	227.59
361.63	227.64
362.01	227.70
362.39	227.71
362.77	227.72
363.15	227.77
363.53	227.82
363.91	227.86
364.29	227.93
364.67	227.86
365.05	227.89
365.43	227.92
365.81	227.88
366.19	227.95
366.57	227.96
366.95	227.99
367.33	227.95
367.71	227.97
368.09	227.96
368.47	227.96
368.85	227.97
369.23	227.95
369.61	227.91
369.99	227.92
370.37	227.92
370.75	227.94
371.13	227.88
371.51	227.81
371.89	227.76
372.27	227.69
372.65	227.68
373.03	227.63
373.41	227.59
373.78	227.54
374.16	227.43
374.54	227.34
374.92	227.22
375.30	227.18
375.68	227.10
376.06	227.03
376.44	226.97
376.82	226.88
377.19	226.83
377.57	226.75
377.95	226.66
378.33	226.60
378.71	226.47
379.09	226.43
379.47	226.40
379.84	226.32
380.22	226.24
380.60	226.13
380.98	226.07
381.36	226.00
381.73	225.92
382.11	225.87
382.49	225.82
382.87	225.77
383.25	225.69
383.62	225.70
384.00	225.59
384.38	225.50
384.76	225.47
385.13	225.44
385.51	225.40
385.89	225.31
386.27	225.24
386.64	225.22
387.02	225.18
387.40	225.11
387.78	225.08
388.15	225.07
388.53	225.07
388.91	225.03
389.29	224.97
389.66	225.00
390.04	224.94
390.42	224.94
390.79	224.94
391.17	224.95
391.55	224.86
391.92	224.89
392.30	224.89
392.68	224.85
393.05	224.83
393.43	224.79
393.81	224.81
394.18	224.80
394.56	224.82
394.94	224.83
395.31	224.82
395.69	224.88
396.06	224.91
396.44	224.91
396.82	224.89
397.19	225.00
397.57	225.00
397.95	225.07
398.32	225.08
398.70	225.11
399.07	225.17
399.45	225.23
399.82	225.28
400.20	225.35
400.58	225.43
400.95	225.44
401.33	225.54
401.70	225.69
402.08	225.78
402.45	225.85
402.83	225.97
403.20	226.05
403.58	226.13
403.95	226.23
404.33	226.39
404.71	226.53
405.08	226.67
405.46	226.82
405.83	226.97
406.21	227.14
406.58	227.32
406.96	227.49
407.33	227.66
407.70	227.81
408.08	228.07
408.45	228.29
408.83	228.57
409.20	228.79
409.58	228.96
409.95	229.20
410.33	229.47
410.70	229.69
411.08	230.02
411.45	230.29
411.82	230.58
412.20	230.91
412.57	231.30
412.95	231.59
413.32	232.00
413.69	232.38
414.07	232.76
414.44	233.23
414.82	233.70
415.19	234.25
415.56	234.83
415.94	235.32
416.31	235.95
416.68	236.55
417.06	237.26
417.43	237.90
417.81	238.70
418.18	239.46
418.55	240.33
418.93	241.18
419.30	242.10
419.67	243.01
420.04	243.95
420.42	244.94
420.79	246.15
421.16	247.28
421.54	248.48
421.91	249.72
422.28	250.96
422.66	252.24
423.03	253.53
423.40	254.85
423.77	256.27
424.15	257.69
424.52	259.17
424.89	260.78
425.26	262.37
425.64	263.74
426.01	265.35
426.38	266.98
426.75	268.63
427.13	270.35
427.50	272.20
427.87	274.06
428.24	275.93
428.61	277.63
428.99	279.57
429.36	281.66
429.73	283.73
430.10	285.76
430.47	287.84
430.85	289.96
431.22	292.18
431.59	294.52
431.96	296.75
432.33	299.20
432.70	301.58
433.08	304.34
433.45	306.99
433.82	309.60
434.19	312.47
434.56	315.28
434.93	317.92
435.30	320.49
435.68	323.36
436.05	326.13
436.42	328.90
436.79	331.36
437.16	334.02
437.53	336.81
437.90	339.61
438.27	342.30
438.64	345.08
439.01	347.67
439.38	349.91
439.75	352.02
440.13	354.50
440.50	356.87
440.87	358.65
441.24	360.59
441.61	362.68
441.98	364.11
442.35	365.93
442.72	367.80
443.09	369.67
443.46	370.68
443.83	371.31
444.20	371.84
444.57	372.64
444.94	372.92
445.31	373.28
445.68	373.61
446.05	373.70
446.42	373.30
446.79	372.89
447.16	372.48
447.53	372.23
447.90	371.10
448.27	369.91
448.64	368.40
449.01	367.26
449.37	365.34
449.74	363.49
450.11	361.23
450.48	358.76
450.85	356.20
451.22	354.05
451.59	352.05
451.96	350.14
452.33	347.60
452.70	345.28
453.07	342.45
453.43	339.59
453.80	336.85
454.17	334.24
454.54	331.68
454.91	328.97
455.28	326.32
455.65	323.84
456.02	321.45
456.38	319.36
456.75	316.71
457.12	314.51
457.49	312.32
457.86	310.19
458.23	308.35
458.59	306.34
458.96	304.32
459.33	302.45
459.70	300.59
460.07	299.08
460.43	297.40
460.80	295.82
461.17	294.36
461.54	292.86
461.91	291.47
462.27	290.07
462.64	288.80
463.01	287.43
463.38	286.17
463.74	284.78
464.11	283.58
464.48	282.59
464.85	281.48
465.21	280.64
465.58	279.75
465.95	278.63
466.32	277.70
466.68	276.81
467.05	275.89
467.42	275.00
467.78	274.12
468.15	273.21
468.52	272.56
468.88	271.73
469.25	270.99
469.62	270.36
469.98	269.70
470.35	269.12
470.72	268.57
471.08	267.86
471.45	267.34
471.82	266.86
472.18	266.30
472.55	265.85
472.92	265.33
473.28	264.85
473.65	264.45
474.02	264.05
474.38	263.68
474.75	263.43
475.11	263.12
475.48	262.87
475.85	262.66
476.21	262.44
476.58	262.28
476.94	262.12
477.31	261.95
477.67	261.83
478.04	261.72
478.41	261.64
478.77	261.70
479.14	261.64
479.50	261.59
479.87	261.62
480.23	261.74
480.60	261.82
480.96	261.91
481.33	262.11
481.69	262.29
482.06	262.50
482.42	262.68
482.79	262.93
483.15	263.27
483.52	263.63
483.88	263.97
484.25	264.37
484.61	264.82
484.98	265.27
485.34	265.80
485.71	266.36
486.07	266.98
486.44	267.58
486.80	268.27
487.17	269.01
487.53	269.84
487.90	270.70
488.26	271.60
488.62	272.57
488.99	273.56
489.35	274.65
489.72	275.74
490.08	276.96
490.44	278.18
490.81	279.50
491.17	280.86
491.54	282.35
491.90	283.87
492.26	285.49
492.63	287.22
492.99	289.02
493.36	290.93
493.72	292.99
494.08	295.07
494.45	297.31
494.81	299.68
495.17	302.12
495.54	304.64
495.90	307.33
496.26	310.13
496.63	313.06
496.99	316.12
497.35	319.41
497.72	322.79
498.08	326.33
498.44	329.92
498.80	333.87
499.17	337.90
499.53	342.04
499.89	346.44
500.26	350.93
500.62	355.59
500.98	360.55
501.34	365.63
501.71	370.93
502.07	376.39
502.43	381.95
502.79	387.69
503.16	393.74
503.52	399.95
503.88	406.34
504.24	412.85
504.60	419.70
504.97	426.68
505.33	433.93
505.69	441.56
506.05	449.35
506.41	457.12
506.78	465.15
507.14	473.50
507.50	482.09
507.86	490.97
508.22	500.07
508.59	509.13
508.95	518.49
509.31	528.18
509.67	538.11
510.03	548.31
510.39	558.77
510.75	569.38
511.12	580.23
511.48	591.38
511.84	602.72
512.20	614.08
512.56	625.94
512.92	637.96
513.28	650.15
513.64	662.42
514.00	674.97
514.37	687.76
514.73	700.68
515.09	713.51
515.45	726.58
515.81	739.93
516.17	753.71
516.53	767.70
516.89	781.75
517.25	795.68
517.61	809.88
517.97	824.13
518.33	838.33
518.69	852.80
519.05	867.51
519.41	882.42
519.77	897.63
520.13	912.73
520.49	927.78
520.85	942.86
521.21	958.30
521.57	974.26
521.93	989.70
522.29	1005.74
522.65	1021.69
523.01	1037.61
523.37	1053.26
523.73	1069.08
524.09	1084.71
524.45	1100.63
524.81	1116.97
525.17	1133.34
525.53	1149.80
525.89	1166.39
526.25	1182.89
526.61	1199.01
526.97	1215.43
527.33	1231.61
527.68	1247.94
528.04	1264.19
528.40	1280.37
528.76	1297.09
529.12	1313.21
529.48	1329.87
529.84	1345.42
530.20	1361.70
530.56	1378.27
530.91	1395.47
531.27	1411.91
531.63	1428.16
531.99	1444.28
532.35	1459.95
532.71	1475.66
533.07	1491.67
533.42	1507.26
533.78	1523.04
534.14	1538.86
534.50	1553.90
534.86	1569.39
535.21	1584.14
535.57	1599.72
535.93	1615.03
536.29	1629.49
536.65	1644.27
537.00	1658.52
537.36	1673.66
537.72	1687.90
538.08	1702.18
538.44	1715.52
538.79	1729.11
539.15	1742.37
539.51	1755.85
539.87	1769.87
540.22	1783.18
540.58	1796.57
540.94	1809.48
541.29	1821.95
541.65	1834.26
542.01	1847.16
542.37	1859.32
542.72	1871.53
543.08	1883.09
543.44	1895.18
543.79	1906.08
544.15	1916.77
544.51	1928.18
544.87	1938.97
545.22	1949.62
545.58	1959.60
545.94	1969.25
546.29	1978.89
546.65	1988.82
547.01	1998.00
547.36	2006.52
547.72	2014.84
548.07	2022.62
548.43	2030.71
548.79	2038.63
549.14	2046.34
549.50	2053.46
549.86	2060.95
550.21	2068.19
550.57	2075.31
550.92	2081.78
551.28	2088.90
551.64	2095.92
551.99	2102.27
552.35	2108.55
552.70	2114.74
553.06	2120.69
553.41	2127.07
553.77	2133.05
554.13	2138.96
554.48	2145.08
554.84	2150.65
555.19	2155.80
555.55	2160.95
555.90	2165.44
556.26	2170.44
556.61	2175.03
556.97	2179.40
557.32	2183.61
557.68	2187.86
558.03	2192.13
558.39	2195.82
558.74	2200.36
559.10	2204.41
559.45	2208.18
559.81	2212.24
560.16	2216.07
560.52	2219.42
560.87	2222.74
561.23	2225.56
561.58	2228.41
561.94	2230.98
562.29	2233.15
562.64	2236.36
563.00	2239.04
563.35	2242.64
563.71	2245.74
564.06	2249.08
564.42	2252.21
564.77	2254.89
565.12	2257.29
565.48	2259.36
565.83	2261.46
566.19	2263.00
566.54	2263.91
566.89	2265.21
567.25	2266.09
567.60	2267.46
567.96	2269.32
568.31	2270.41
568.66	2271.71
569.02	2272.56
569.37	2273.14
569.72	2274.34
570.08	2274.57
570.43	2274.80
570.78	2274.40
571.14	2273.18
571.49	2271.98
571.84	2271.59
572.20	2270.73
572.55	2269.90
572.90	2268.34
573.26	2267.15
573.61	2265.49
573.96	2264.02
574.31	2261.42
574.67	2258.53
575.02	2255.00
575.37	2251.84
575.72	2248.37
576.08	2245.13
576.43	2241.83
576.78	2238.28
577.13	2235.29
577.49	2232.16
577.84	2228.82
578.19	2225.15
578.54	2221.72
578.90	2217.93
579.25	2212.80
579.60	2208.03
579.95	2203.15
580.30	2198.49
580.66	2193.48
581.01	2188.83
581.36	2184.18
581.71	2180.25
582.06	2176.12
582.42	2172.02
582.77	2166.89
583.12	2162.53
583.47	2158.04
583.82	2153.43
584.17	2148.46
584.53	2143.15
584.88	2137.70
585.23	2132.15
585.58	2127.05
585.93	2121.83
586.28	2117.02
586.63	2112.21
586.98	2107.38
587.34	2102.87
587.69	2098.12
588.04	2093.15
588.39	2087.73
588.74	2081.46
589.09	2075.42
589.44	2068.79
589.79	2062.83
590.14	2057.44
590.49	2050.96
590.84	2044.76
591.19	2038.94
591.54	2032.64
591.89	2025.71
592.25	2019.20
592.60	2012.20
592.95	2004.84
593.30	1997.62
593.65	1990.21
594.00	1983.23
594.35	1976.05
594.70	1968.23
595.05	1961.39
595.40	1954.33
595.75	1946.99
596.10	1941.09
596.45	1934.52
596.80	1928.66
597.15	1922.36
597.50	1915.50
597.85	1909.18
598.19	1902.74
598.54	1895.76
598.89	1889.23
599.24	1883.33
599.59	1876.86
599.94	1870.94
600.29	1864.73
600.64	1858.17
600.99	1850.97
601.34	1844.35
601.69	1837.52
602.04	1830.82
602.39	1823.52
602.74	1816.74
603.08	1810.05
603.43	1803.27
603.78	1796.07
604.13	1788.95
604.48	1781.77
604.83	1774.87
605.18	1768.19
605.53	1760.39
605.87	1752.53
606.22	1745.32
606.57	1737.36
606.92	1730.01
607.27	1722.85
607.62	1716.11
607.96	1709.08
608.31	1702.62
608.66	1695.05
609.01	1687.53
609.36	1680.06
609.70	1672.06
610.05	1664.05
610.40	1656.57
610.75	1648.29
611.10	1640.77
611.44	1632.27
611.79	1624.31
612.14	1615.81
612.49	1606.63
612.83	1598.21
613.18	1590.18
613.53	1582.22
613.88	1573.86
614.22	1565.78
614.57	1557.26
614.92	1549.29
615.27	1541.84
615.61	1533.47
615.96	1525.43
616.31	1517.85
616.65	1510.44
617.00	1503.00
617.35	1495.43
617.70	1487.12
618.04	1478.79
618.39	1470.54
618.74	1463.04
619.08	1454.76
619.43	1447.18
619.78	1440.30
620.12	1433.30
620.47	1425.76
620.82	1417.64
621.16	1410.25
621.51	1402.64
621.85	1394.97
622.20	1386.45
622.55	1378.05
622.89	1370.24
623.24	1362.76
623.59	1355.38
623.93	1347.87
624.28	1340.63
624.62	1333.17
624.97	1325.98
625.32	1319.13
625.66	1312.20
626.01	1305.12
626.35	1297.81
626.70	1290.10
627.04	1282.45
627.39	1274.55
627.73	1267.20
628.08	1260.28
628.43	1253.03
628.77	1245.79
629.12	1238.24
629.46	1231.11
629.81	1223.75
630.15	1216.57
630.50	1209.17
630.84	1200.97
631.19	1193.05
631.53	1185.49
631.88	1177.89
632.22	1170.34
632.57	1163.06
632.91	1155.42
633.26	1147.98
633.60	1140.54
633.95	1133.39
634.29	1126.31
634.64	1119.79
634.98	1112.56
635.32	1105.46
635.67	1098.83
636.01	1092.20
636.36	1085.46
636.70	1078.95
637.05	1072.39
637.39	1065.92
637.73	1059.46
638.08	1053.74
638.42	1047.85
638.77	1041.48
639.11	1035.02
639.45	1028.67
639.80	1022.08
640.14	1015.84
640.49	1009.35
640.83	1003.10
641.17	996.92
641.52	990.63
641.86	984.01
642.20	978.08
642.55	971.80
642.89	965.41
643.23	958.83
643.58	953.17
643.92	946.95
644.26	940.88
644.61	934.83
644.95	928.87
645.29	922.30
645.64	915.57
645.98	909.24
646.32	903.38
646.66	897.40
647.01	891.67
647.35	885.95
647.69	880.08
648.04	874.55
648.38	868.85
648.72	862.87
649.06	856.93
649.41	851.04
649.75	845.16
650.09	839.19
650.43	833.39
650.78	827.18
651.12	821.31
651.46	815.65
651.80	810.04
652.14	804.55
652.49	799.20
652.83	794.06
653.17	788.48
653.51	782.81
653.85	777.35
654.20	771.72
654.54	765.70
654.88	760.00
655.22	754.11
655.56	748.33
655.90	742.97
656.25	737.83
656.59	732.55
656.93	727.51
657.27	722.40
657.61	716.99
657.95	711.90
658.29	706.87
658.64	701.65
658.98	696.31
659.32	690.92
659.66	685.72
660.00	680.40
660.34	675.43
660.68	670.50
661.02	665.56
661.36	660.84
661.70	656.48
662.05	652.15
662.39	647.90
662.73	643.48
663.07	639.11
663.41	634.62
663.75	630.12
664.09	625.55
664.43	621.24
664.77	617.19
665.11	612.97
665.45	608.75
665.79	604.67
666.13	600.58
666.47	596.55
666.81	592.43
667.15	588.38
667.49	584.51
667.83	580.70
668.17	576.80
668.51	572.77
668.85	568.70
669.19	564.85
669.53	561.01
669.87	557.22
670.21	553.49
670.55	549.88
670.89	546.46
671.23	543.10
671.57	539.61
671.91	536.12
672.25	532.61
672.58	529.20
672.92	525.82
673.26	522.65
673.60	519.42
673.94	516.37
674.28	513.49
674.62	510.53
674.96	507.46
675.30	504.56
675.64	501.63
675.97	498.87
676.31	496.01
676.65	493.06
676.99	490.33
677.33	487.52
677.67	484.72
678.01	481.70
678.34	478.70
678.68	475.74
679.02	472.95
679.36	470.24
679.70	467.50
680.04	464.76
680.37	461.91
680.71	459.11
681.05	456.46
681.39	453.73
681.73	451.08
682.06	448.56
682.40	446.03
682.74	443.44
683.08	440.82
683.42	438.19
683.75	435.70
684.09	433.12
684.43	430.60
684.77	428.13
685.10	425.80
685.44	423.47
685.78	421.15
686.12	418.82
686.45	416.52
686.79	414.24
687.13	412.02
687.46	409.86
687.80	407.71
688.14	405.48
688.48	403.44
688.81	401.24
689.15	399.04
689.49	396.83
689.82	394.77
690.16	392.71
690.50	390.77
690.83	388.84
691.17	386.90
691.51	385.03
691.84	383.19
692.18	381.26
692.52	379.28
692.85	377.34
693.19	375.47
693.52	373.60
693.86	371.77
694.20	369.94
694.53	368.15
694.87	366.33
695.21	364.55
695.54	362.69
695.88	360.95
696.21	359.23
696.55	357.55
696.88	355.90
697.22	354.20
697.56	352.59
697.89	350.98
698.23	349.36
698.56	347.78
698.90	346.19
699.23	344.57
699.57	343.03
699.90	341.55
700.24	340.02
700.58	338.52
700.91	336.99
701.25	335.53
701.58	334.17
701.92	332.81
702.25	331.46
702.59	330.10
702.92	328.77
703.26	327.50
703.59	326.28
703.93	325.05
704.26	323.90
704.60	322.63
704.93	321.34
705.26	320.09
705.60	318.86
705.93	317.69
706.27	316.66
706.60	315.61
706.94	314.54
707.27	313.43
707.61	312.37
707.94	311.39
708.27	310.31
708.61	309.20
708.94	308.16
709.28	307.17
709.61	306.21
709.94	305.25
710.28	304.22
710.61	303.19
710.95	302.16
711.28	301.22
711.61	300.32
711.95	299.43
712.28	298.51
712.61	297.57
712.95	296.64
713.28	295.73
713.61	294.83
713.95	293.95
714.28	293.14
714.61	292.26
714.95	291.38
715.28	290.54
715.61	289.71
715.95	288.88
716.28	287.98
716.61	287.18
716.95	286.37
717.28	285.64
717.61	284.86
717.94	284.12
718.28	283.28
718.61	282.50
718.94	281.76
719.27	281.07
719.61	280.42
719.94	279.79
720.27	279.08
720.60	278.43
720.94	277.76
721.27	277.16
721.60	276.59
721.93	276.02
722.27	275.51
722.60	274.94
722.93	274.36
723.26	273.90
723.59	273.31
723.93	272.77
724.26	272.20
724.59	271.65
724.92	271.11
725.25	270.64
725.59	270.13
725.92	269.63
726.25	269.11
726.58	268.60
726.91	268.08
727.24	267.61
727.57	267.17
727.91	266.69
728.24	266.20
728.57	265.73
728.90	265.29
729.23	264.77
729.56	264.32
729.89	263.84
730.22	263.35
730.55	262.89
730.89	262.41
731.22	261.96
731.55	261.55
731.88	261.12
732.21	260.66
732.54	260.25
732.87	259.82
733.20	259.39
733.53	259.01
733.86	258.60
734.19	258.23
734.52	257.81
734.85	257.49
735.18	257.05
735.51	256.70
735.84	256.29
736.17	255.97
736.50	255.59
736.83	255.39
737.16	255.10
737.49	254.76
737.82	254.41
738.15	254.11
738.48	253.74
738.81	253.44
739.14	253.13
739.47	252.83
739.80	252.53
740.13	252.26
740.46	251.92
740.79	251.60
741.12	251.29
741.45	251.00
741.78	250.67
742.11	250.42
742.44	250.07
742.77	249.78
743.10	249.44
743.43	249.16
743.75	248.77
744.08	248.54
744.41	248.27
744.74	248.02
745.07	247.73
745.40	247.49
745.73	247.26
746.06	246.95
746.39	246.67
746.71	246.40
747.04	246.14
747.37	245.89
747.70	245.65
748.03	245.38
748.36	245.14
748.68	244.90
749.01	244.63
749.34	244.40
749.67	244.19
750.00	243.97
750.33	243.77
750.65	243.55
750.98	243.24
751.31	243.03
751.64	242.82
751.97	242.67
752.29	242.46
752.62	242.23
752.95	242.06
753.28	241.86
753.60	241.65
753.93	241.45
754.26	241.25
754.59	241.02
754.91	240.82
755.24	240.62
755.57	240.41
755.90	240.21
756.22	240.03
756.55	239.83
756.88	239.65
757.20	239.44
757.53	239.22
757.86	239.06
758.19	238.89
758.51	238.72
758.84	238.49
759.17	238.32
759.49	238.15
759.82	238.04
760.15	237.90
760.47	237.72
760.80	237.55
761.13	237.42
761.45	237.27
761.78	237.15
762.11	237.01
762.43	236.86
762.76	236.74
763.08	236.59
763.41	236.47
763.74	236.32
764.06	236.20
764.39	236.08
764.71	235.91
765.04	235.76
765.37	235.60
765.69	235.47
766.02	235.31
766.34	235.17
766.67	235.00
767.00	234.89
767.32	234.83
767.65	234.79
767.97	234.70
768.30	234.59
768.62	234.45
768.95	234.33
769.27	234.25
769.60	234.14
769.92	234.05
770.25	233.91
770.57	233.81
770.90	233.68
771.22	233.56
771.55	233.46
771.87	233.37
772.20	233.29
772.52	233.28
772.85	233.32
773.17	233.25
773.50	233.14
773.82	233.03
774.15	232.89
774.47	232.72
774.80	232.63
775.12	232.54
775.45	232.44
775.77	232.39
776.09	232.30
776.42	232.23
776.74	232.20
777.07	232.14
777.39	232.09
777.72	232.03
778.04	231.97
778.36	231.91
778.69	231.85
779.01	231.78
779.33	231.63
779.66	231.44
779.98	231.36
780.31	231.34
780.63	231.29
780.95	231.27
781.28	231.24
781.60	231.13
781.92	231.09
782.25	231.05
782.57	230.93
782.89	230.87
783.22	230.80
783.54	230.69
783.86	230.60
784.19	230.52
784.51	230.49
784.83	230.45
785.16	230.39
785.48	230.36
785.80	230.32
786.12	230.32
786.45	230.26
786.77	230.24
787.09	230.16
787.42	230.07
787.74	230.00
788.06	229.94
788.38	229.90
788.71	229.83
789.03	229.80
789.35	229.81
789.67	229.73
789.99	229.67
790.32	229.63
790.64	229.61
790.96	229.68
791.28	229.63
791.61	229.55
791.93	229.50
792.25	229.45
792.57	229.46
792.89	229.34
793.21	229.31
793.54	229.22
793.86	229.20
794.18	229.15
794.50	229.09
794.82	229.06
795.14	229.01
795.47	228.99
795.79	228.92
796.11	228.86
796.43	228.84
796.75	228.79
797.07	228.74
797.39	228.70
797.71	228.53
798.04	228.47
798.36	228.45
798.68	228.40
799.00	228.37
799.32	228.29
799.64	228.29
799.96	228.26
800.28	228.26
800.60	228.18
800.92	228.18
801.24	228.15
801.56	228.11
801.89	228.08
802.21	228.06
802.53	228.06
802.85	228.03
803.17	228.01
803.49	227.99
803.81	227.92
804.13	227.89
804.45	227.86
804.77	227.84
805.09	227.82
805.41	227.78
805.73	227.72
806.05	227.67
806.37	227.65
806.69	227.61
807.01	227.58
807.33	227.59
807.65	227.53
807.97	227.55
808.28	227.54
808.60	227.51
808.92	227.47
809.24	227.46
809.56	227.44
809.88	227.41
810.20	227.37
810.52	227.42
810.84	227.36
811.16	227.35
811.48	227.33
811.80	227.35
812.12	227.36
812.43	227.36
812.75	227.33
813.07	227.31
813.39	227.30
813.71	227.23
814.03	227.19
814.35	227.17
814.67	227.08
814.98	227.02
815.30	227.00
815.62	226.95
815.94	226.87
816.26	226.86
816.58	226.81
816.89	226.81
817.21	226.78
817.53	226.77
817.85	226.77
818.17	226.73
818.48	226.68
818.80	226.70
819.12	226.68
819.44	226.66
819.76	226.65
820.07	226.63
820.39	226.67
820.71	226.66
821.03	226.62
821.34	226.61
821.66	226.62
821.98	226.62
822.30	226.63
822.61	226.66
822.93	226.62
823.25	226.60
823.57	226.59
823.88	226.56
824.20	226.55
824.52	226.54
824.83	226.55
825.15	226.54
825.47	226.49
825.79	226.49
826.10	226.50
826.42	226.47
826.74	226.45
827.05	226.41
827.37	226.42
827.69	226.42
828.00	226.43
828.32	226.40
828.64	226.41
828.95	226.46
829.27	226.44
829.58	226.45
829.90	226.47
830.22	226.50
830.53	226.47
830.85	226.48
831.17	226.47
831.48	226.43
831.80	226.41
832.11	226.42
832.43	226.39
832.75	226.37
833.06	226.45
833.38	226.44
833.69	226.41
834.01	226.39
834.32	226.40
834.64	226.36
834.96	226.40
835.27	226.35
835.59	226.32
835.90	226.28
836.22	226.24
836.53	226.17
836.85	226.12
837.16	226.25
837.48	226.24
837.79	226.24
838.11	226.26
838.42	226.21
838.74	226.21
839.05	226.17
839.37	226.15
839.68	226.04
840.00	226.03
840.31	226.03
840.63	226.02
840.94	226.01
841.26	225.97
841.57	225.95
841.88	225.96
842.20	225.90
842.51	225.90
842.83	225.87
843.14	225.97
843.46	225.97
843.77	225.85
844.08	225.83
844.40	225.79
844.71	225.76
845.03	225.77
845.34	225.75
845.65	225.74
845.97	225.75
846.28	225.76
846.60	225.77
846.91	225.81
847.22	225.79
847.54	225.78
847.85	225.84
848.16	225.83
848.48	225.82
848.79	225.89
849.10	225.88
849.42	225.90
849.73	225.83
850.04	225.79
850.36	225.78
850.67	225.80
850.98	225.81
851.30	225.83
851.61	225.81
851.92	225.82
852.23	225.85
852.55	225.85
852.86	225.86
853.17	225.85
853.49	225.84
853.80	225.85
854.11	225.87
854.42	225.83
854.74	225.81
855.05	225.81
855.36	225.75
855.67	225.78
855.99	225.77
856.30	225.89
856.61	225.90
856.92	225.91
857.23	225.89
857.55	225.92
857.86	225.89
858.17	225.93
858.48	225.90
858.79	225.90
859.11	225.90
859.42	225.87
859.73	225.88
860.04	225.87
860.35	225.85
860.66	225.82
860.98	225.81
861.29	225.83
861.60	225.79
861.91	225.79
862.22	225.78
862.53	225.78
862.84	225.65
863.16	225.65
863.47	225.60
863.78	225.57
864.09	225.58
864.40	225.58
864.71	225.57
865.02	225.59
865.33	225.56
865.64	225.54
865.95	225.55
866.27	225.61
866.58	225.58
866.89	225.62
867.20	225.63
867.51	225.63
867.82	225.60
868.13	225.63
868.44	225.63
868.75	225.61
869.06	225.58
869.37	225.60
869.68	225.58
869.99	225.61
870.30	225.64
870.61	225.66
870.92	225.64
871.23	225.62
871.54	225.62
871.85	225.64
872.16	225.63
872.47	225.59
872.78	225.54
873.09	225.53
873.40	225.49
873.71	225.48
874.02	225.48
874.33	225.48
874.64	225.48
874.95	225.49
875.26	225.48
875.56	225.47
875.87	225.49
876.18	225.49
876.49	225.57
876.80	225.53
877.11	225.47
877.42	225.49
877.73	225.49
878.04	225.47
878.35	225.45
878.66	225.47
878.96	225.49
879.27	225.51
879.58	225.54
879.89	225.55
880.20	225.55
880.51	225.55
880.82	225.54
881.12	225.54
881.43	225.51
881.74	225.52
882.05	225.55
882.36	225.53
882.67	225.55
882.97	225.45
883.28	225.49
883.59	225.50
883.90	225.51
884.21	225.55
884.51	225.54
884.82	225.55
885.13	225.56
885.44	225.57
885.74	225.56
886.05	225.54
886.36	225.57
886.67	225.55
886.98	225.60
887.28	225.60
887.59	225.61
887.90	225.62
888.20	225.64
888.51	225.66
888.82	225.66
889.13	225.65
889.43	225.71
889.74	225.69
890.05	225.68
890.35	225.67
890.66	225.65
890.97	225.68
891.28	225.68
891.58	225.64
891.89	225.60
892.20	225.57
892.50	225.57
892.81	225.56
893.12	225.56
893.42	225.54
893.73	225.58
894.04	225.58
894.34	225.57
894.65	225.56
894.95	225.56
895.26	225.60
895.57	225.66
895.87	225.59
896.18	225.57
896.48	225.57
896.79	225.57
897.10	225.58
897.40	225.56
897.71	225.57
898.01	225.58
898.32	225.62
898.63	225.65
898.93	225.64
899.24	225.64
899.54	225.64
899.85	225.61
900.15	225.58
900.46	225.56
900.76	225.58
901.07	225.59
901.38	225.57
901.68	225.52
901.99	225.48
902.29	225.48
902.60	225.48
902.90	225.47
903.21	225.48
903.51	225.44
903.82	225.48
904.12	225.47
904.43	225.49
904.73	225.47
905.03	225.44
905.34	225.54
905.64	225.52
905.95	225.49
906.25	225.47
906.56	225.45
906.86	225.46
907.17	225.43
907.47	225.43
907.77	225.43
908.08	225.41
908.38	225.40
908.69	225.42
908.99	225.43
909.30	225.44
909.60	225.43
909.90	225.45
910.21	225.39
910.51	225.37
910.81	225.34
911.12	225.35
911.42	225.34
911.73	225.23
912.03	225.24
912.33	225.31
912.64	225.34
912.94	225.35
913.24	225.32
913.55	225.32
913.85	225.30
914.15	225.30
914.46	225.31
914.76	225.32
915.06	225.30
915.37	225.30
915.67	225.29
915.97	225.31
916.27	225.29
916.58	225.30
916.88	225.28
917.18	225.30
917.49	225.35
917.79	225.35
918.09	225.37
918.39	225.40
918.70	225.37
919.00	225.38
919.30	225.41
919.60	225.40
919.91	225.39
920.21	225.38
920.51	225.38
920.81	225.37
921.12	225.37
921.42	225.39
921.72	225.36
922.02	225.37
922.32	225.36
922.63	225.37
922.93	225.42
923.23	225.45
923.53	225.45
923.83	225.41
924.13	225.41
924.44	225.39
924.74	225.39
925.04	225.43
925.34	225.40
925.64	225.37
925.94	225.42
926.24	225.48
926.55	225.49
926.85	225.52
927.15	225.54
927.45	225.52
927.75	225.52
928.05	225.55
928.35	225.56
928.65	225.56
928.95	225.57
929.26	225.54
929.56	225.55
929.86	225.56
930.16	225.52
930.46	225.54
930.76	225.56
931.06	225.51
931.36	225.48
931.66	225.52
931.96	225.51
932.26	225.49
932.56	225.45
932.86	225.43
933.16	225.41
933.46	225.38
933.76	225.35
934.06	225.36
934.36	225.41
934.66	225.40
934.96	225.40
935.26	225.44
935.56	225.43
935.86	225.36
936.16	225.32
936.46	225.30
936.76	225.28
937.06	225.23
937.36	225.24
937.66	225.21
937.96	225.17
938.26	225.17
938.56	225.16
938.86	225.19
939.16	225.20
939.46	225.20
939.76	225.20
940.06	225.19
940.35	225.16
940.65	225.09
940.95	225.10
941.25	225.03
941.55	224.99
941.85	224.98
942.15	225.01
942.45	225.07
942.75	225.08
943.04	225.06
943.34	225.08
943.64	225.07
943.94	225.04
944.24	225.06
944.54	225.07
944.84	225.05
945.13	224.99
945.43	224.97
945.73	224.95
946.03	224.94
946.33	224.96
946.62	224.94
946.92	224.97
947.22	225.00
947.52	225.04
947.82	225.07
948.11	225.09
948.41	225.07
948.71	225.01
949.01	225.02
949.31	225.02
949.60	225.03
949.90	225.05
950.20	225.09
950.50	225.10
950.79	225.09
951.09	225.13
951.39	225.14
951.69	225.16
951.98	225.20
952.28	225.22
952.58	225.23
952.87	225.23
953.17	225.24
953.47	225.21
953.76	225.19
954.06	225.14
954.36	225.13
954.66	225.18
954.95	225.23
955.25	225.24
955.55	225.28
955.84	225.27
956.14	225.29
956.44	225.30
956.73	225.27
957.03	225.28
957.32	225.30
957.62	225.30
957.92	225.33
958.21	225.29
958.51	225.42
958.81	225.44
959.10	225.50
959.40	225.52
959.69	225.48
959.99	225.54
960.29	225.56
960.58	225.57
960.88	225.60
961.17	225.58
961.47	225.61
961.76	225.61
962.06	225.64
962.36	225.62
962.65	225.64
962.95	225.66
963.24	225.68
963.54	225.69
963.83	225.71
964.13	225.71
964.42	225.70
964.72	225.61
965.01	225.57
965.31	225.54
965.60	225.51
965.90	225.60
966.19	225.58
966.49	225.56
966.78	225.53
967.08	225.49
967.37	225.51
967.67	225.47
967.96	225.45
968.26	225.43
968.55	225.45
968.85	225.45
969.14	225.42
969.43	225.39
969.73	225.37
970.02	225.36
970.32	225.33
970.61	225.31
970.91	225.29
971.20	225.28
971.49	225.28
971.79	225.31
972.08	225.23
972.38	225.21
972.67	225.19
972.96	225.20
973.26	225.14
973.55	225.14
973.85	225.15
974.14	225.15
974.43	225.13
974.73	225.09
975.02	225.08
975.31	225.09
975.61	225.10
975.90	225.07
976.19	225.07
976.49	225.07
976.78	225.12
977.07	225.11
977.37	225.15
977.66	225.16
977.95	225.11
978.24	225.10
978.54	225.14
978.83	225.14
979.12	225.13
979.42	225.16
979.71	225.13
980.00	225.11
980.29	225.11
980.59	225.12
980.88	225.16
981.17	225.13
981.46	225.11
981.76	225.09
982.05	225.12
982.34	225.11
982.63	225.10
982.93	225.09
983.22	225.12
983.51	225.08
983.80	225.12
984.09	225.14
984.39	225.12
984.68	225.08
984.97	225.06
985.26	225.07
985.55	225.08
985.85	225.10
986.14	225.13
986.43	225.17
986.72	225.17
987.01	225.14
987.30	225.14
987.59	225.13
987.89	225.10
988.18	225.05
988.47	225.04
988.76	225.05
989.05	225.03
989.34	225.00
989.63	225.04
989.92	224.99
990.22	224.98
990.51	225.01
990.80	225.00
991.09	225.02
991.38	225.04
991.67	225.04
991.96	225.03
992.25	225.05
992.54	225.03
992.83	225.02
993.12	225.04
993.41	225.04
993.70	225.09
993.99	225.14
994.28	225.20
994.58	225.18
994.87	225.12
995.16	225.12
995.45	225.13
995.74	225.11
996.03	225.11
996.32	225.15
996.61	225.14
996.90	225.18
997.19	225.18
997.48	225.15
997.77	225.12
998.06	225.10
998.34	225.06
998.63	225.04
998.92	225.03
999.21	225.03
999.50	225.05
999.79	225.00
1000.08	225.03
1000.37	225.01
1000.66	225.07
1000.95	225.12
1001.24	225.13
1001.53	225.14
1001.82	225.13
1002.11	225.13
1002.40	225.11
1002.68	225.15
1002.97	225.20
1003.26	225.20
1003.55	225.23
1003.84	225.28
1004.13	225.30
1004.42	225.34
1004.71	225.33
1004.99	225.34
1005.28	225.38
1005.57	225.37
1005.86	225.36
1006.15	225.33
1006.44	225.31
1006.72	225.29
1007.01	225.28
1007.30	225.28
1007.59	225.25
1007.88	225.28
1008.17	225.25
1008.45	225.24
1008.74	225.19
1009.03	225.17
1009.32	225.17
1009.60	225.15
1009.89	225.14
1010.18	225.13
1010.47	225.11
1010.76	225.10
1011.04	225.13
1011.33	225.10
1011.62	225.13
1011.91	225.17
1012.19	225.18
1012.48	225.19
1012.77	225.20
1013.05	225.26
1013.34	225.27
1013.63	225.28
1013.92	225.29
1014.20	225.30
1014.49	225.32
1014.78	225.34
1015.06	225.30
1015.35	225.27
1015.64	225.30
1015.92	225.29
1016.21	225.26
1016.50	225.28
1016.78	225.28
1017.07	225.25
1017.36	225.22
1017.64	225.21
1017.93	225.18
1018.22	225.16
1018.50	225.16
1018.79	225.14
1019.08	225.10
1019.36	225.09
1019.65	225.07
1019.93	225.09
1020.22	225.11
1020.51	225.17
1020.79	225.14
1021.08	224.73
1021.36	224.97
1021.65	225.26
1021.94	225.33
1022.22	225.04
1022.51	224.96
1022.79	225.72
1023.08	225.45
1023.36	226.60
1023.65	224.57
>>>>>End Processed Spectral Data<<<<<
