SpectraSuite Data File
++++++++++++++++++++++++++++++++++++
Date: Fri Feb 01 15:46:28 EST 2013
User: group
Dark Spectrum Present: No
Reference Spectrum Present: No
Number of Sampled Component Spectra: 1
Spectrometers: USB2E7196
Integration Time (usec): 35000 (USB2E7196)
Spectra Averaged: 100 (USB2E7196)
Boxcar Smoothing: 10 (USB2E7196)
Correct for Electrical Dark: No (USB2E7196)
Strobe/Lamp Enabled: No (USB2E7196)
Correct for Detector Non-linearity: No (USB2E7196)
Correct for Stray Light: No (USB2E7196)
Number of Pixels in Processed Spectrum: 2048
>>>>>Begin Processed Spectral Data<<<<<
339.09	0.00
339.48	214.96
339.86	216.48
340.24	217.61
340.63	219.48
341.01	222.08
341.39	222.07
341.78	223.68
342.16	224.60
342.54	225.18
342.93	213.40
343.31	224.19
343.69	224.74
344.07	225.21
344.46	225.63
344.84	226.00
345.22	226.26
345.60	226.49
345.99	226.62
346.37	226.74
346.75	226.84
347.13	226.90
347.52	226.93
347.90	226.97
348.28	226.99
348.66	227.04
349.05	227.04
349.43	227.06
349.81	227.13
350.19	227.16
350.57	227.20
350.96	227.28
351.34	227.35
351.72	227.41
352.10	227.48
352.48	227.53
352.87	227.54
353.25	227.55
353.63	227.63
354.01	227.76
354.39	227.82
354.77	227.90
355.15	227.98
355.54	228.09
355.92	228.13
356.30	228.18
356.68	228.31
357.06	228.38
357.44	228.45
357.82	228.49
358.20	228.55
358.58	228.61
358.97	228.65
359.35	228.73
359.73	228.79
360.11	228.85
360.49	228.92
360.87	229.01
361.25	229.08
361.63	229.13
362.01	229.14
362.39	229.15
362.77	229.16
363.15	229.18
363.53	229.16
363.91	229.20
364.29	229.25
364.67	229.18
365.05	229.21
365.43	229.24
365.81	229.25
366.19	229.29
366.57	229.34
366.95	229.33
367.33	229.31
367.71	229.31
368.09	229.30
368.47	229.28
368.85	229.26
369.23	229.28
369.61	229.26
369.99	229.29
370.37	229.27
370.75	229.25
371.13	229.19
371.51	229.15
371.89	229.14
372.27	229.08
372.65	229.04
373.03	229.00
373.41	228.95
373.78	228.91
374.16	228.84
374.54	228.73
374.92	228.67
375.30	228.62
375.68	228.52
376.06	228.47
376.44	228.41
376.82	228.33
377.19	228.25
377.57	228.17
377.95	228.06
378.33	228.00
378.71	227.93
379.09	227.91
379.47	227.85
379.84	227.77
380.22	227.69
380.60	227.59
380.98	227.48
381.36	227.40
381.73	227.31
382.11	227.24
382.49	227.19
382.87	227.12
383.25	227.03
383.62	227.11
384.00	227.02
384.38	226.98
384.76	226.97
385.13	226.95
385.51	226.87
385.89	226.81
386.27	226.77
386.64	226.70
387.02	226.65
387.40	226.58
387.78	226.54
388.15	226.50
388.53	226.49
388.91	226.47
389.29	226.42
389.66	226.36
390.04	226.36
390.42	226.34
390.79	226.33
391.17	226.32
391.55	226.23
391.92	226.24
392.30	226.21
392.68	226.19
393.05	226.18
393.43	226.18
393.81	226.19
394.18	226.18
394.56	226.24
394.94	226.28
395.31	226.28
395.69	226.28
396.06	226.34
396.44	226.34
396.82	226.35
397.19	226.45
397.57	226.51
397.95	226.55
398.32	226.58
398.70	226.64
399.07	226.71
399.45	226.76
399.82	226.83
400.20	226.91
400.58	227.00
400.95	227.02
401.33	227.14
401.70	227.28
402.08	227.40
402.45	227.47
402.83	227.55
403.20	227.66
403.58	227.77
403.95	227.90
404.33	228.05
404.71	228.21
405.08	228.40
405.46	228.57
405.83	228.71
406.21	228.84
406.58	229.01
406.96	229.16
407.33	229.32
407.70	229.54
408.08	229.79
408.45	229.98
408.83	230.20
409.20	230.40
409.58	230.58
409.95	230.87
410.33	231.15
410.70	231.40
411.08	231.74
411.45	232.05
411.82	232.36
412.20	232.71
412.57	233.14
412.95	233.40
413.32	233.77
413.69	234.16
414.07	234.62
414.44	235.09
414.82	235.57
415.19	236.12
415.56	236.64
415.94	237.19
416.31	237.82
416.68	238.47
417.06	239.17
417.43	239.88
417.81	240.60
418.18	241.40
418.55	242.24
418.93	243.07
419.30	243.96
419.67	244.87
420.04	245.83
420.42	246.76
420.79	247.97
421.16	249.12
421.54	250.35
421.91	251.58
422.28	252.87
422.66	254.22
423.03	255.52
423.40	256.82
423.77	258.27
424.15	259.71
424.52	261.20
424.89	262.80
425.26	264.34
425.64	265.80
426.01	267.36
426.38	269.02
426.75	270.73
427.13	272.49
427.50	274.29
427.87	276.18
428.24	278.06
428.61	279.81
428.99	281.77
429.36	283.84
429.73	285.90
430.10	287.87
430.47	289.93
430.85	292.08
431.22	294.34
431.59	296.71
431.96	298.97
432.33	301.49
432.70	303.87
433.08	306.70
433.45	309.31
433.82	311.92
434.19	314.83
434.56	317.64
434.93	320.28
435.30	322.93
435.68	325.85
436.05	328.70
436.42	331.48
436.79	334.00
437.16	336.76
437.53	339.61
437.90	342.43
438.27	345.13
438.64	347.97
439.01	350.56
439.38	352.78
439.75	354.92
440.13	357.43
440.50	359.74
440.87	361.59
441.24	363.56
441.61	365.68
441.98	367.15
442.35	368.94
442.72	370.82
443.09	372.61
443.46	373.55
443.83	374.13
444.20	374.64
444.57	375.46
444.94	375.69
445.31	376.01
445.68	376.39
446.05	376.48
446.42	376.08
446.79	375.71
447.16	375.26
447.53	374.93
447.90	373.74
448.27	372.57
448.64	370.95
449.01	369.79
449.37	367.85
449.74	365.94
450.11	363.67
450.48	361.19
450.85	358.63
451.22	356.55
451.59	354.54
451.96	352.62
452.33	350.00
452.70	347.67
453.07	344.85
453.43	341.91
453.80	339.16
454.17	336.49
454.54	333.89
454.91	331.17
455.28	328.50
455.65	326.01
456.02	323.60
456.38	321.46
456.75	318.80
457.12	316.56
457.49	314.36
457.86	312.23
458.23	310.38
458.59	308.34
458.96	306.24
459.33	304.39
459.70	302.50
460.07	301.04
460.43	299.32
460.80	297.65
461.17	296.21
461.54	294.75
461.91	293.31
462.27	291.90
462.64	290.62
463.01	289.28
463.38	288.01
463.74	286.68
464.11	285.48
464.48	284.50
464.85	283.38
465.21	282.55
465.58	281.58
465.95	280.45
466.32	279.60
466.68	278.68
467.05	277.76
467.42	276.87
467.78	275.95
468.15	275.04
468.52	274.42
468.88	273.58
469.25	272.79
469.62	272.16
469.98	271.48
470.35	270.84
470.72	270.23
471.08	269.58
471.45	269.01
471.82	268.51
472.18	267.93
472.55	267.51
472.92	266.95
473.28	266.52
473.65	266.10
474.02	265.62
474.38	265.26
474.75	264.93
475.11	264.60
475.48	264.31
475.85	264.11
476.21	263.90
476.58	263.68
476.94	263.56
477.31	263.35
477.67	263.17
478.04	263.07
478.41	263.03
478.77	263.04
479.14	262.99
479.50	262.95
479.87	262.96
480.23	263.03
480.60	263.10
480.96	263.20
481.33	263.39
481.69	263.57
482.06	263.73
482.42	263.98
482.79	264.21
483.15	264.49
483.52	264.85
483.88	265.17
484.25	265.55
484.61	265.92
484.98	266.40
485.34	266.98
485.71	267.57
486.07	268.16
486.44	268.71
486.80	269.41
487.17	270.13
487.53	270.94
487.90	271.78
488.26	272.69
488.62	273.65
488.99	274.64
489.35	275.68
489.72	276.83
490.08	277.98
490.44	279.20
490.81	280.53
491.17	281.88
491.54	283.38
491.90	284.97
492.26	286.63
492.63	288.36
492.99	290.12
493.36	292.05
493.72	294.08
494.08	296.19
494.45	298.40
494.81	300.80
495.17	303.22
495.54	305.77
495.90	308.48
496.26	311.31
496.63	314.25
496.99	317.34
497.35	320.61
497.72	324.00
498.08	327.55
498.44	331.23
498.80	335.18
499.17	339.25
499.53	343.40
499.89	347.79
500.26	352.28
500.62	356.96
500.98	361.91
501.34	366.97
501.71	372.34
502.07	377.78
502.43	383.43
502.79	389.31
503.16	395.45
503.52	401.72
503.88	408.13
504.24	414.77
504.60	421.71
504.97	428.84
505.33	436.19
505.69	443.87
506.05	451.66
506.41	459.51
506.78	467.65
507.14	476.10
507.50	484.86
507.86	493.96
508.22	503.15
508.59	512.38
508.95	521.94
509.31	531.78
509.67	541.98
510.03	552.21
510.39	562.78
510.75	573.57
511.12	584.48
511.48	595.78
511.84	607.22
512.20	618.75
512.56	630.71
512.92	642.93
513.28	655.24
513.64	667.82
514.00	680.48
514.37	693.42
514.73	706.53
515.09	719.60
515.45	732.90
515.81	746.57
516.17	760.53
516.53	774.70
516.89	788.83
517.25	802.94
517.61	817.34
517.97	831.74
518.33	846.18
518.69	860.95
519.05	875.91
519.41	891.14
519.77	906.71
520.13	922.12
520.49	937.54
520.85	953.02
521.21	968.68
521.57	985.08
521.93	1000.91
522.29	1017.31
522.65	1033.54
523.01	1049.83
523.37	1065.80
523.73	1081.98
524.09	1098.09
524.45	1114.41
524.81	1131.10
525.17	1147.99
525.53	1164.92
525.89	1181.93
526.25	1198.86
526.61	1215.33
526.97	1232.06
527.33	1248.51
527.68	1265.17
528.04	1281.58
528.40	1298.28
528.76	1315.38
529.12	1331.94
529.48	1348.70
529.84	1364.72
530.20	1381.30
530.56	1398.23
530.91	1415.73
531.27	1432.51
531.63	1448.93
531.99	1465.52
532.35	1481.38
532.71	1497.23
533.07	1513.40
533.42	1529.21
533.78	1545.23
534.14	1561.57
534.50	1576.81
534.86	1592.68
535.21	1607.75
535.57	1623.71
535.93	1639.21
536.29	1653.86
536.65	1668.83
537.00	1683.62
537.36	1698.85
537.72	1713.46
538.08	1727.92
538.44	1741.53
538.79	1755.36
539.15	1769.18
539.51	1782.93
539.87	1797.36
540.22	1811.21
540.58	1825.05
540.94	1838.38
541.29	1851.21
541.65	1863.80
542.01	1877.06
542.37	1889.40
542.72	1901.92
543.08	1913.72
543.44	1925.98
543.79	1937.33
544.15	1948.34
544.51	1959.95
544.87	1970.91
545.22	1981.70
545.58	1991.94
545.94	2001.84
546.29	2011.82
546.65	2021.48
547.01	2030.69
547.36	2039.40
547.72	2047.82
548.07	2055.73
548.43	2063.82
548.79	2072.01
549.14	2079.50
549.50	2086.86
549.86	2094.68
550.21	2102.10
550.57	2109.31
550.92	2115.96
551.28	2123.05
551.64	2130.12
551.99	2136.76
552.35	2142.96
552.70	2148.99
553.06	2154.82
553.41	2161.10
553.77	2167.14
554.13	2173.40
554.48	2179.61
554.84	2185.05
555.19	2190.34
555.55	2195.37
555.90	2199.97
556.26	2204.75
556.61	2209.50
556.97	2213.74
557.32	2217.77
557.68	2221.83
558.03	2226.06
558.39	2229.78
558.74	2234.37
559.10	2238.23
559.45	2241.83
559.81	2246.20
560.16	2250.17
560.52	2253.34
560.87	2256.58
561.23	2259.12
561.58	2262.10
561.94	2264.66
562.29	2267.13
562.64	2269.73
563.00	2272.39
563.35	2275.92
563.71	2278.94
564.06	2282.24
564.42	2285.14
564.77	2287.54
565.12	2289.73
565.48	2291.61
565.83	2293.48
566.19	2294.67
566.54	2295.64
566.89	2296.74
567.25	2297.28
567.60	2298.58
567.96	2300.35
568.31	2301.36
568.66	2302.57
569.02	2302.98
569.37	2303.24
569.72	2304.02
570.08	2304.13
570.43	2304.28
570.78	2303.46
571.14	2302.02
571.49	2300.72
571.84	2300.36
572.20	2299.27
572.55	2298.19
572.90	2296.75
573.26	2295.28
573.61	2293.63
573.96	2291.70
574.31	2288.64
574.67	2285.70
575.02	2282.13
575.37	2278.83
575.72	2275.06
576.08	2271.60
576.43	2268.43
576.78	2264.75
577.13	2261.63
577.49	2258.59
577.84	2254.93
578.19	2251.27
578.54	2247.54
578.90	2243.12
579.25	2237.54
579.60	2232.61
579.95	2227.69
580.30	2222.69
580.66	2217.57
581.01	2212.72
581.36	2207.81
581.71	2203.71
582.06	2199.09
582.42	2194.57
582.77	2189.21
583.12	2184.60
583.47	2179.71
583.82	2174.46
584.17	2169.16
584.53	2163.58
584.88	2157.87
585.23	2152.15
585.58	2146.72
585.93	2141.24
586.28	2136.51
586.63	2131.49
586.98	2126.23
587.34	2121.48
587.69	2116.53
588.04	2111.20
588.39	2105.47
588.74	2099.12
589.09	2092.96
589.44	2086.21
589.79	2080.28
590.14	2074.74
590.49	2068.18
590.84	2062.01
591.19	2056.12
591.54	2049.63
591.89	2042.21
592.25	2035.28
592.60	2027.89
592.95	2020.29
593.30	2012.85
593.65	2005.31
594.00	1998.26
594.35	1991.07
594.70	1983.05
595.05	1975.71
595.40	1968.48
595.75	1960.88
596.10	1954.60
596.45	1947.81
596.80	1941.69
597.15	1934.88
597.50	1927.67
597.85	1921.23
598.19	1914.45
598.54	1907.29
598.89	1900.68
599.24	1894.89
599.59	1888.50
599.94	1882.41
600.29	1876.02
600.64	1869.56
600.99	1862.11
601.34	1855.18
601.69	1848.27
602.04	1841.33
602.39	1834.05
602.74	1827.04
603.08	1820.36
603.43	1813.65
603.78	1806.23
604.13	1798.88
604.48	1791.46
604.83	1784.59
605.18	1777.58
605.53	1769.61
605.87	1761.53
606.22	1754.27
606.57	1746.23
606.92	1738.74
607.27	1731.53
607.62	1724.56
607.96	1717.25
608.31	1710.47
608.66	1702.85
609.01	1695.16
609.36	1687.64
609.70	1679.49
610.05	1671.45
610.40	1663.57
610.75	1655.28
611.10	1647.72
611.44	1639.24
611.79	1631.33
612.14	1622.66
612.49	1613.50
612.83	1605.08
613.18	1596.98
613.53	1588.92
613.88	1580.30
614.22	1572.04
614.57	1563.48
614.92	1555.46
615.27	1547.72
615.61	1539.39
615.96	1531.41
616.31	1523.98
616.65	1516.57
617.00	1509.09
617.35	1501.47
617.70	1493.23
618.04	1484.62
618.39	1476.29
618.74	1468.73
619.08	1460.48
619.43	1452.84
619.78	1445.86
620.12	1438.62
620.47	1431.13
620.82	1422.98
621.16	1415.67
621.51	1408.10
621.85	1400.48
622.20	1391.87
622.55	1383.74
622.89	1375.93
623.24	1368.31
623.59	1360.85
623.93	1353.21
624.28	1346.03
624.62	1338.45
624.97	1331.32
625.32	1324.57
625.66	1317.63
626.01	1310.55
626.35	1303.13
626.70	1295.43
627.04	1287.72
627.39	1280.06
627.73	1272.59
628.08	1265.65
628.43	1258.13
628.77	1250.68
629.12	1243.12
629.46	1236.11
629.81	1228.61
630.15	1221.38
630.50	1214.01
630.84	1205.76
631.19	1197.93
631.53	1190.42
631.88	1182.96
632.22	1175.33
632.57	1168.06
632.91	1160.48
633.26	1152.95
633.60	1145.63
633.95	1138.67
634.29	1131.68
634.64	1124.97
634.98	1117.70
635.32	1110.52
635.67	1104.03
636.01	1097.43
636.36	1090.62
636.70	1084.04
637.05	1077.49
637.39	1071.07
637.73	1064.48
638.08	1058.70
638.42	1052.66
638.77	1046.20
639.11	1039.55
639.45	1033.16
639.80	1026.50
640.14	1020.15
640.49	1013.64
640.83	1007.25
641.17	1000.88
641.52	994.57
641.86	988.16
642.20	982.22
642.55	975.89
642.89	969.45
643.23	962.96
643.58	957.21
643.92	951.02
644.26	944.89
644.61	938.92
644.95	932.95
645.29	926.33
645.64	919.71
645.98	913.34
646.32	907.46
646.66	901.45
647.01	895.61
647.35	889.81
647.69	883.96
648.04	878.40
648.38	872.58
648.72	866.51
649.06	860.45
649.41	854.62
649.75	848.72
650.09	842.76
650.43	836.88
650.78	830.76
651.12	824.88
651.46	819.16
651.80	813.35
652.14	807.94
652.49	802.47
652.83	797.17
653.17	791.43
653.51	785.77
653.85	780.35
654.20	774.69
654.54	768.73
654.88	763.00
655.22	757.13
655.56	751.52
655.90	746.12
656.25	740.86
656.59	735.48
656.93	730.34
657.27	725.15
657.61	719.75
657.95	714.59
658.29	709.48
658.64	704.32
658.98	699.00
659.32	693.55
659.66	688.32
660.00	683.01
660.34	678.08
660.68	673.20
661.02	668.19
661.36	663.48
661.70	658.97
662.05	654.65
662.39	650.31
662.73	645.80
663.07	641.43
663.41	636.93
663.75	632.38
664.09	627.80
664.43	623.44
664.77	619.30
665.11	615.04
665.45	610.86
665.79	606.68
666.13	602.54
666.47	598.47
666.81	594.37
667.15	590.32
667.49	586.47
667.83	582.66
668.17	578.77
668.51	574.70
668.85	570.65
669.19	566.80
669.53	562.95
669.87	559.08
670.21	555.38
670.55	551.72
670.89	548.34
671.23	544.99
671.57	541.45
671.91	537.91
672.25	534.43
672.58	530.91
672.92	527.54
673.26	524.36
673.60	521.23
673.94	518.09
674.28	515.17
674.62	512.23
674.96	509.06
675.30	506.08
675.64	503.15
675.97	500.41
676.31	497.58
676.65	494.63
676.99	491.92
677.33	489.01
677.67	486.26
678.01	483.24
678.34	480.24
678.68	477.40
679.02	474.58
679.36	471.81
679.70	469.12
680.04	466.35
680.37	463.50
680.71	460.68
681.05	458.07
681.39	455.35
681.73	452.67
682.06	450.16
682.40	447.62
682.74	445.14
683.08	442.55
683.42	439.95
683.75	437.48
684.09	434.90
684.43	432.46
684.77	429.94
685.10	427.57
685.44	425.24
685.78	422.95
686.12	420.69
686.45	418.41
686.79	416.05
687.13	413.85
687.46	411.69
687.80	409.51
688.14	407.33
688.48	405.26
688.81	403.00
689.15	400.83
689.49	398.66
689.82	396.56
690.16	394.47
690.50	392.51
690.83	390.57
691.17	388.62
691.51	386.68
691.84	384.85
692.18	382.92
692.52	380.92
692.85	379.00
693.19	377.11
693.52	375.29
693.86	373.51
694.20	371.74
694.53	369.89
694.87	368.07
695.21	366.26
695.54	364.43
695.88	362.74
696.21	361.05
696.55	359.38
696.88	357.69
697.22	356.08
697.56	354.46
697.89	352.82
698.23	351.20
698.56	349.63
698.90	348.02
699.23	346.38
699.57	344.86
699.90	343.29
700.24	341.76
700.58	340.23
700.91	338.72
701.25	337.26
701.58	335.89
701.92	334.51
702.25	333.12
702.59	331.73
702.92	330.39
703.26	329.03
703.59	327.75
703.93	326.60
704.26	325.35
704.60	324.01
704.93	322.70
705.26	321.42
705.60	320.25
705.93	319.12
706.27	318.07
706.60	316.97
706.94	315.87
707.27	314.75
707.61	313.70
707.94	312.69
708.27	311.56
708.61	310.55
708.94	309.54
709.28	308.59
709.61	307.65
709.94	306.71
710.28	305.73
710.61	304.78
710.95	303.68
711.28	302.79
711.61	301.87
711.95	300.96
712.28	300.03
712.61	299.01
712.95	298.05
713.28	297.16
713.61	296.28
713.95	295.44
714.28	294.56
714.61	293.67
714.95	292.84
715.28	292.01
715.61	291.09
715.95	290.23
716.28	289.38
716.61	288.51
716.95	287.70
717.28	286.93
717.61	286.13
717.94	285.37
718.28	284.50
718.61	283.79
718.94	283.08
719.27	282.44
719.61	281.82
719.94	281.18
720.27	280.43
720.60	279.77
720.94	279.11
721.27	278.55
721.60	277.97
721.93	277.35
722.27	276.83
722.60	276.27
722.93	275.71
723.26	275.16
723.59	274.60
723.93	274.06
724.26	273.48
724.59	272.97
724.92	272.44
725.25	271.98
725.59	271.45
725.92	270.99
726.25	270.46
726.58	269.98
726.91	269.49
727.24	269.08
727.57	268.61
727.91	268.10
728.24	267.63
728.57	267.16
728.90	266.71
729.23	266.23
729.56	265.86
729.89	265.42
730.22	264.95
730.55	264.53
730.89	264.07
731.22	263.67
731.55	263.20
731.88	262.78
732.21	262.36
732.54	261.93
732.87	261.50
733.20	261.10
733.53	260.72
733.86	260.35
734.19	259.90
734.52	259.53
734.85	259.26
735.18	258.82
735.51	258.48
735.84	258.12
736.17	257.78
736.50	257.34
736.83	257.05
737.16	256.68
737.49	256.33
737.82	255.96
738.15	255.65
738.48	255.34
738.81	255.00
739.14	254.70
739.47	254.38
739.80	254.07
740.13	253.80
740.46	253.47
740.79	253.14
741.12	252.87
741.45	252.57
741.78	252.22
742.11	251.96
742.44	251.62
742.77	251.36
743.10	251.03
743.43	250.78
743.75	250.43
744.08	250.37
744.41	250.08
744.74	249.86
745.07	249.55
745.40	249.31
745.73	249.10
746.06	248.81
746.39	248.55
746.71	248.29
747.04	248.00
747.37	247.74
747.70	247.47
748.03	247.24
748.36	247.03
748.68	246.77
749.01	246.54
749.34	246.30
749.67	246.05
750.00	245.85
750.33	245.69
750.65	245.48
750.98	245.01
751.31	244.81
751.64	244.58
751.97	244.43
752.29	244.19
752.62	243.95
752.95	243.76
753.28	243.52
753.60	243.29
753.93	243.09
754.26	242.88
754.59	242.66
754.91	242.41
755.24	242.16
755.57	241.96
755.90	241.75
756.22	241.55
756.55	241.32
756.88	241.09
757.20	240.82
757.53	240.60
757.86	240.51
758.19	240.35
758.51	240.15
758.84	239.92
759.17	239.76
759.49	239.58
759.82	239.45
760.15	239.33
760.47	239.16
760.80	239.01
761.13	238.88
761.45	238.72
761.78	238.59
762.11	238.47
762.43	238.34
762.76	238.19
763.08	238.09
763.41	237.99
763.74	237.85
764.06	237.67
764.39	237.54
764.71	237.38
765.04	237.22
765.37	237.09
765.69	236.95
766.02	236.81
766.34	236.69
766.67	236.53
767.00	236.41
767.32	236.36
767.65	236.25
767.97	236.10
768.30	235.99
768.62	235.88
768.95	235.76
769.27	235.63
769.60	235.55
769.92	235.40
770.25	235.27
770.57	235.18
770.90	235.12
771.22	235.02
771.55	234.93
771.87	234.84
772.20	234.76
772.52	234.80
772.85	234.81
773.17	234.69
773.50	234.57
773.82	234.46
774.15	234.33
774.47	234.22
774.80	234.18
775.12	234.11
775.45	234.03
775.77	233.96
776.09	233.88
776.42	233.79
776.74	233.77
777.07	233.71
777.39	233.66
777.72	233.58
778.04	233.55
778.36	233.50
778.69	233.46
779.01	233.42
779.33	233.23
779.66	233.09
779.98	233.02
780.31	233.00
780.63	232.99
780.95	232.94
781.28	232.89
781.60	232.80
781.92	232.77
782.25	232.72
782.57	232.70
782.89	232.64
783.22	232.61
783.54	232.52
783.86	232.49
784.19	232.45
784.51	232.43
784.83	232.35
785.16	232.29
785.48	232.24
785.80	232.18
786.12	232.12
786.45	232.09
786.77	232.06
787.09	231.99
787.42	231.92
787.74	231.86
788.06	231.82
788.38	231.78
788.71	231.69
789.03	231.65
789.35	231.59
789.67	231.57
789.99	231.53
790.32	231.47
790.64	231.41
790.96	231.41
791.28	231.35
791.61	231.32
791.93	231.29
792.25	231.24
792.57	231.28
792.89	231.24
793.21	231.19
793.54	231.16
793.86	231.13
794.18	231.10
794.50	231.06
794.82	231.01
795.14	231.00
795.47	231.00
795.79	230.97
796.11	230.92
796.43	230.88
796.75	230.83
797.07	230.81
797.39	230.79
797.71	230.67
798.04	230.62
798.36	230.58
798.68	230.53
799.00	230.49
799.32	230.37
799.64	230.33
799.96	230.31
800.28	230.24
800.60	230.21
800.92	230.16
801.24	230.13
801.56	230.09
801.89	230.03
802.21	229.99
802.53	229.92
802.85	229.92
803.17	229.92
803.49	229.87
803.81	229.82
804.13	229.75
804.45	229.73
804.77	229.71
805.09	229.66
805.41	229.62
805.73	229.58
806.05	229.53
806.37	229.47
806.69	229.44
807.01	229.44
807.33	229.41
807.65	229.36
807.97	229.36
808.28	229.35
808.60	229.33
808.92	229.29
809.24	229.33
809.56	229.27
809.88	229.20
810.20	229.17
810.52	229.17
810.84	229.14
811.16	229.11
811.48	229.11
811.80	229.13
812.12	229.11
812.43	229.09
812.75	229.10
813.07	229.09
813.39	229.06
813.71	229.01
814.03	228.99
814.35	228.98
814.67	228.93
814.98	228.89
815.30	228.89
815.62	228.85
815.94	228.78
816.26	228.79
816.58	228.77
816.89	228.78
817.21	228.76
817.53	228.77
817.85	228.79
818.17	228.77
818.48	228.73
818.80	228.76
819.12	228.77
819.44	228.72
819.76	228.72
820.07	228.71
820.39	228.70
820.71	228.69
821.03	228.69
821.34	228.66
821.66	228.66
821.98	228.66
822.30	228.68
822.61	228.73
822.93	228.70
823.25	228.71
823.57	228.66
823.88	228.68
824.20	228.67
824.52	228.67
824.83	228.65
825.15	228.61
825.47	228.56
825.79	228.53
826.10	228.51
826.42	228.47
826.74	228.48
827.05	228.45
827.37	228.42
827.69	228.40
828.00	228.43
828.32	228.38
828.64	228.38
828.95	228.41
829.27	228.36
829.58	228.35
829.90	228.33
830.22	228.35
830.53	228.31
830.85	228.26
831.17	228.20
831.48	228.15
831.80	228.13
832.11	228.11
832.43	228.09
832.75	228.09
833.06	228.16
833.38	228.12
833.69	228.13
834.01	228.13
834.32	228.10
834.64	228.07
834.96	228.09
835.27	228.06
835.59	227.98
835.90	227.95
836.22	227.91
836.53	227.88
836.85	227.86
837.16	227.93
837.48	227.92
837.79	227.94
838.11	227.96
838.42	227.97
838.74	227.99
839.05	227.99
839.37	228.00
839.68	227.92
840.00	227.87
840.31	227.86
840.63	227.86
840.94	227.81
841.26	227.77
841.57	227.75
841.88	227.75
842.20	227.73
842.51	227.73
842.83	227.74
843.14	227.79
843.46	227.78
843.77	227.70
844.08	227.72
844.40	227.67
844.71	227.66
845.03	227.63
845.34	227.61
845.65	227.58
845.97	227.55
846.28	227.54
846.60	227.54
846.91	227.52
847.22	227.49
847.54	227.52
847.85	227.52
848.16	227.52
848.48	227.48
848.79	227.52
849.10	227.50
849.42	227.48
849.73	227.41
850.04	227.39
850.36	227.32
850.67	227.29
850.98	227.30
851.30	227.27
851.61	227.28
851.92	227.27
852.23	227.29
852.55	227.29
852.86	227.30
853.17	227.31
853.49	227.33
853.80	227.33
854.11	227.34
854.42	227.36
854.74	227.35
855.05	227.36
855.36	227.29
855.67	227.32
855.99	227.35
856.30	227.46
856.61	227.48
856.92	227.53
857.23	227.56
857.55	227.56
857.86	227.56
858.17	227.59
858.48	227.58
858.79	227.56
859.11	227.58
859.42	227.59
859.73	227.58
860.04	227.60
860.35	227.60
860.66	227.57
860.98	227.60
861.29	227.63
861.60	227.65
861.91	227.66
862.22	227.63
862.53	227.61
862.84	227.49
863.16	227.51
863.47	227.49
863.78	227.45
864.09	227.47
864.40	227.50
864.71	227.49
865.02	227.53
865.33	227.50
865.64	227.48
865.95	227.46
866.27	227.52
866.58	227.47
866.89	227.49
867.20	227.52
867.51	227.49
867.82	227.45
868.13	227.46
868.44	227.48
868.75	227.50
869.06	227.49
869.37	227.51
869.68	227.46
869.99	227.49
870.30	227.51
870.61	227.53
870.92	227.50
871.23	227.47
871.54	227.46
871.85	227.49
872.16	227.48
872.47	227.47
872.78	227.40
873.09	227.39
873.40	227.38
873.71	227.35
874.02	227.35
874.33	227.31
874.64	227.30
874.95	227.30
875.26	227.25
875.56	227.23
875.87	227.19
876.18	227.17
876.49	227.21
876.80	227.21
877.11	227.15
877.42	227.15
877.73	227.14
878.04	227.10
878.35	227.08
878.66	227.11
878.96	227.13
879.27	227.14
879.58	227.15
879.89	227.14
880.20	227.18
880.51	227.15
880.82	227.17
881.12	227.15
881.43	227.12
881.74	227.13
882.05	227.13
882.36	227.14
882.67	227.13
882.97	227.06
883.28	227.00
883.59	227.02
883.90	226.99
884.21	227.01
884.51	227.01
884.82	226.98
885.13	226.97
885.44	226.98
885.74	226.96
886.05	226.96
886.36	226.95
886.67	226.92
886.98	226.95
887.28	226.97
887.59	226.97
887.90	226.98
888.20	226.95
888.51	226.97
888.82	226.96
889.13	226.99
889.43	227.06
889.74	227.09
890.05	227.11
890.35	227.14
890.66	227.14
890.97	227.12
891.28	227.14
891.58	227.13
891.89	227.13
892.20	227.11
892.50	227.13
892.81	227.14
893.12	227.13
893.42	227.13
893.73	227.15
894.04	227.16
894.34	227.16
894.65	227.19
894.95	227.19
895.26	227.20
895.57	227.26
895.87	227.19
896.18	227.21
896.48	227.22
896.79	227.22
897.10	227.19
897.40	227.23
897.71	227.23
898.01	227.25
898.32	227.27
898.63	227.26
898.93	227.27
899.24	227.27
899.54	227.27
899.85	227.25
900.15	227.22
900.46	227.20
900.76	227.23
901.07	227.23
901.38	227.24
901.68	227.27
901.99	227.21
902.29	227.24
902.60	227.22
902.90	227.21
903.21	227.20
903.51	227.25
903.82	227.25
904.12	227.22
904.43	227.19
904.73	227.17
905.03	227.19
905.34	227.26
905.64	227.27
905.95	227.28
906.25	227.27
906.56	227.27
906.86	227.27
907.17	227.26
907.47	227.26
907.77	227.25
908.08	227.24
908.38	227.25
908.69	227.23
908.99	227.25
909.30	227.25
909.60	227.24
909.90	227.24
910.21	227.26
910.51	227.27
910.81	227.25
911.12	227.27
911.42	227.24
911.73	227.13
912.03	227.13
912.33	227.14
912.64	227.14
912.94	227.13
913.24	227.13
913.55	227.13
913.85	227.12
914.15	227.13
914.46	227.13
914.76	227.13
915.06	227.12
915.37	227.12
915.67	227.10
915.97	227.11
916.27	227.07
916.58	227.05
916.88	227.05
917.18	227.05
917.49	227.14
917.79	227.14
918.09	227.17
918.39	227.19
918.70	227.17
919.00	227.17
919.30	227.25
919.60	227.24
919.91	227.19
920.21	227.20
920.51	227.16
920.81	227.16
921.12	227.14
921.42	227.12
921.72	227.07
922.02	227.04
922.32	227.04
922.63	227.03
922.93	227.03
923.23	227.04
923.53	227.03
923.83	226.93
924.13	226.96
924.44	226.96
924.74	226.97
925.04	227.00
925.34	227.00
925.64	226.95
925.94	226.95
926.24	227.01
926.55	227.02
926.85	227.04
927.15	227.00
927.45	227.01
927.75	227.03
928.05	227.06
928.35	227.10
928.65	227.13
928.95	227.15
929.26	227.12
929.56	227.17
929.86	227.19
930.16	227.20
930.46	227.19
930.76	227.18
931.06	227.14
931.36	227.08
931.66	227.09
931.96	227.06
932.26	227.08
932.56	227.04
932.86	227.04
933.16	227.04
933.46	227.02
933.76	227.00
934.06	227.02
934.36	227.05
934.66	227.03
934.96	227.01
935.26	227.02
935.56	227.05
935.86	227.01
936.16	227.01
936.46	226.97
936.76	226.97
937.06	226.95
937.36	226.94
937.66	226.94
937.96	226.95
938.26	226.96
938.56	226.91
938.86	226.90
939.16	226.92
939.46	226.92
939.76	226.97
940.06	226.99
940.35	226.96
940.65	226.87
940.95	226.90
941.25	226.85
941.55	226.87
941.85	226.83
942.15	226.86
942.45	226.89
942.75	226.91
943.04	226.89
943.34	226.91
943.64	226.92
943.94	226.94
944.24	226.93
944.54	226.92
944.84	226.93
945.13	226.95
945.43	226.91
945.73	226.93
946.03	226.94
946.33	226.91
946.62	226.90
946.92	226.91
947.22	226.90
947.52	226.92
947.82	226.91
948.11	226.91
948.41	226.93
948.71	226.90
949.01	226.87
949.31	226.89
949.60	226.87
949.90	226.88
950.20	226.87
950.50	226.84
950.79	226.86
951.09	226.86
951.39	226.83
951.69	226.81
951.98	226.83
952.28	226.79
952.58	226.82
952.87	226.80
953.17	226.86
953.47	226.84
953.76	226.81
954.06	226.76
954.36	226.78
954.66	226.74
954.95	226.73
955.25	226.75
955.55	226.75
955.84	226.75
956.14	226.77
956.44	226.78
956.73	226.80
957.03	226.78
957.32	226.78
957.62	226.79
957.92	226.79
958.21	226.77
958.51	226.85
958.81	226.82
959.10	226.85
959.40	226.82
959.69	226.83
959.99	226.86
960.29	226.89
960.58	226.87
960.88	226.89
961.17	226.92
961.47	226.92
961.76	226.92
962.06	226.88
962.36	226.85
962.65	226.83
962.95	226.82
963.24	226.84
963.54	226.82
963.83	226.83
964.13	226.83
964.42	226.77
964.72	226.75
965.01	226.78
965.31	226.79
965.60	226.78
965.90	226.85
966.19	226.82
966.49	226.82
966.78	226.82
967.08	226.81
967.37	226.80
967.67	226.81
967.96	226.84
968.26	226.88
968.55	226.89
968.85	226.92
969.14	226.93
969.43	226.91
969.73	226.90
970.02	226.91
970.32	226.94
970.61	226.95
970.91	226.91
971.20	226.89
971.49	226.85
971.79	226.88
972.08	226.82
972.38	226.82
972.67	226.82
972.96	226.83
973.26	226.82
973.55	226.83
973.85	226.83
974.14	226.82
974.43	226.82
974.73	226.82
975.02	226.79
975.31	226.80
975.61	226.79
975.90	226.79
976.19	226.76
976.49	226.75
976.78	226.78
977.07	226.76
977.37	226.78
977.66	226.80
977.95	226.79
978.24	226.78
978.54	226.82
978.83	226.82
979.12	226.83
979.42	226.82
979.71	226.81
980.00	226.78
980.29	226.77
980.59	226.74
980.88	226.77
981.17	226.75
981.46	226.74
981.76	226.73
982.05	226.77
982.34	226.80
982.63	226.81
982.93	226.79
983.22	226.82
983.51	226.81
983.80	226.84
984.09	226.87
984.39	226.87
984.68	226.87
984.97	226.87
985.26	226.84
985.55	226.84
985.85	226.82
986.14	226.83
986.43	226.86
986.72	226.85
987.01	226.79
987.30	226.75
987.59	226.74
987.89	226.78
988.18	226.75
988.47	226.75
988.76	226.73
989.05	226.72
989.34	226.70
989.63	226.73
989.92	226.70
990.22	226.67
990.51	226.68
990.80	226.64
991.09	226.65
991.38	226.66
991.67	226.65
991.96	226.64
992.25	226.68
992.54	226.64
992.83	226.64
993.12	226.64
993.41	226.71
993.70	226.77
993.99	226.76
994.28	226.79
994.58	226.77
994.87	226.75
995.16	226.75
995.45	226.73
995.74	226.67
996.03	226.72
996.32	226.72
996.61	226.73
996.90	226.74
997.19	226.74
997.48	226.73
997.77	226.72
998.06	226.73
998.34	226.72
998.63	226.72
998.92	226.74
999.21	226.73
999.50	226.75
999.79	226.70
1000.08	226.69
1000.37	226.67
1000.66	226.66
1000.95	226.69
1001.24	226.68
1001.53	226.69
1001.82	226.73
1002.11	226.67
1002.40	226.67
1002.68	226.67
1002.97	226.71
1003.26	226.68
1003.55	226.67
1003.84	226.71
1004.13	226.75
1004.42	226.73
1004.71	226.75
1004.99	226.75
1005.28	226.81
1005.57	226.78
1005.86	226.82
1006.15	226.83
1006.44	226.83
1006.72	226.86
1007.01	226.88
1007.30	226.90
1007.59	226.89
1007.88	226.86
1008.17	226.88
1008.45	226.86
1008.74	226.87
1009.03	226.85
1009.32	226.85
1009.60	226.88
1009.89	226.87
1010.18	226.84
1010.47	226.83
1010.76	226.81
1011.04	226.82
1011.33	226.81
1011.62	226.85
1011.91	226.83
1012.19	226.83
1012.48	226.83
1012.77	226.81
1013.05	226.81
1013.34	226.80
1013.63	226.83
1013.92	226.84
1014.20	226.82
1014.49	226.80
1014.78	226.78
1015.06	226.72
1015.35	226.73
1015.64	226.72
1015.92	226.70
1016.21	226.71
1016.50	226.72
1016.78	226.74
1017.07	226.72
1017.36	226.67
1017.64	226.63
1017.93	226.63
1018.22	226.62
1018.50	226.60
1018.79	226.62
1019.08	226.57
1019.36	226.60
1019.65	226.60
1019.93	226.62
1020.22	226.63
1020.51	226.71
1020.79	226.71
1021.08	226.61
1021.36	226.09
1021.65	226.98
1021.94	226.16
1022.22	227.16
1022.51	226.91
1022.79	227.17
1023.08	226.48
1023.36	228.29
1023.65	226.61
>>>>>End Processed Spectral Data<<<<<
