SpectraSuite Data File
++++++++++++++++++++++++++++++++++++
Date: Fri Feb 01 16:33:34 EST 2013
User: group
Dark Spectrum Present: No
Reference Spectrum Present: No
Number of Sampled Component Spectra: 1
Spectrometers: USB2E7196
Integration Time (usec): 35000 (USB2E7196)
Spectra Averaged: 100 (USB2E7196)
Boxcar Smoothing: 10 (USB2E7196)
Correct for Electrical Dark: No (USB2E7196)
Strobe/Lamp Enabled: No (USB2E7196)
Correct for Detector Non-linearity: No (USB2E7196)
Correct for Stray Light: No (USB2E7196)
Number of Pixels in Processed Spectrum: 2048
>>>>>Begin Processed Spectral Data<<<<<
339.09	0.00
339.48	214.25
339.86	215.41
340.24	216.32
340.63	217.90
341.01	220.67
341.39	220.44
341.78	222.47
342.16	223.49
342.54	223.80
342.93	212.21
343.31	222.93
343.69	223.48
344.07	223.95
344.46	224.39
344.84	224.77
345.22	225.02
345.60	225.32
345.99	225.50
346.37	225.62
346.75	225.73
347.13	225.80
347.52	225.87
347.90	225.93
348.28	225.96
348.66	226.02
349.05	226.02
349.43	226.08
349.81	226.14
350.19	226.21
350.57	226.30
350.96	226.40
351.34	226.49
351.72	226.57
352.10	226.65
352.48	226.73
352.87	226.81
353.25	226.88
353.63	226.92
354.01	226.96
354.39	227.05
354.77	227.15
355.15	227.26
355.54	227.36
355.92	227.41
356.30	227.53
356.68	227.65
357.06	227.71
357.44	227.78
357.82	227.83
358.20	227.88
358.58	227.91
358.97	227.97
359.35	228.04
359.73	228.10
360.11	228.16
360.49	228.22
360.87	228.27
361.25	228.35
361.63	228.44
362.01	228.49
362.39	228.54
362.77	228.56
363.15	228.59
363.53	228.60
363.91	228.62
364.29	228.61
364.67	228.55
365.05	228.58
365.43	228.60
365.81	228.62
366.19	228.67
366.57	228.71
366.95	228.71
367.33	228.67
367.71	228.67
368.09	228.67
368.47	228.66
368.85	228.61
369.23	228.59
369.61	228.50
369.99	228.52
370.37	228.48
370.75	228.48
371.13	228.38
371.51	228.33
371.89	228.30
372.27	228.27
372.65	228.19
373.03	228.13
373.41	228.03
373.78	227.95
374.16	227.83
374.54	227.75
374.92	227.68
375.30	227.63
375.68	227.52
376.06	227.46
376.44	227.38
376.82	227.30
377.19	227.22
377.57	227.15
377.95	227.03
378.33	226.97
378.71	226.84
379.09	226.79
379.47	226.73
379.84	226.65
380.22	226.55
380.60	226.50
380.98	226.42
381.36	226.39
381.73	226.29
382.11	226.29
382.49	226.22
382.87	226.14
383.25	226.09
383.62	226.14
384.00	226.07
384.38	226.04
384.76	226.01
385.13	225.99
385.51	225.99
385.89	225.90
386.27	225.87
386.64	225.85
387.02	225.81
387.40	225.76
387.78	225.70
388.15	225.65
388.53	225.61
388.91	225.60
389.29	225.53
389.66	225.55
390.04	225.49
390.42	225.48
390.79	225.46
391.17	225.45
391.55	225.34
391.92	225.32
392.30	225.31
392.68	225.27
393.05	225.27
393.43	225.25
393.81	225.28
394.18	225.23
394.56	225.22
394.94	225.24
395.31	225.26
395.69	225.34
396.06	225.39
396.44	225.40
396.82	225.40
397.19	225.47
397.57	225.50
397.95	225.57
398.32	225.63
398.70	225.68
399.07	225.75
399.45	225.81
399.82	225.89
400.20	225.98
400.58	226.03
400.95	226.08
401.33	226.15
401.70	226.29
402.08	226.41
402.45	226.51
402.83	226.64
403.20	226.76
403.58	226.83
403.95	226.95
404.33	227.08
404.71	227.21
405.08	227.42
405.46	227.53
405.83	227.64
406.21	227.77
406.58	227.92
406.96	228.08
407.33	228.24
407.70	228.43
408.08	228.66
408.45	228.94
408.83	229.16
409.20	229.36
409.58	229.54
409.95	229.81
410.33	230.08
410.70	230.30
411.08	230.60
411.45	230.92
411.82	231.25
412.20	231.61
412.57	232.03
412.95	232.29
413.32	232.72
413.69	233.14
414.07	233.57
414.44	233.99
414.82	234.47
415.19	234.99
415.56	235.53
415.94	236.04
416.31	236.63
416.68	237.26
417.06	238.00
417.43	238.70
417.81	239.46
418.18	240.22
418.55	241.06
418.93	241.91
419.30	242.83
419.67	243.73
420.04	244.70
420.42	245.67
420.79	246.84
421.16	248.01
421.54	249.20
421.91	250.41
422.28	251.69
422.66	253.00
423.03	254.33
423.40	255.66
423.77	257.09
424.15	258.53
424.52	260.01
424.89	261.59
425.26	263.12
425.64	264.55
426.01	266.14
426.38	267.83
426.75	269.50
427.13	271.15
427.50	272.93
427.87	274.80
428.24	276.65
428.61	278.42
428.99	280.33
429.36	282.42
429.73	284.48
430.10	286.51
430.47	288.57
430.85	290.65
431.22	292.88
431.59	295.24
431.96	297.45
432.33	299.94
432.70	302.32
433.08	305.11
433.45	307.73
433.82	310.28
434.19	313.14
434.56	315.95
434.93	318.64
435.30	321.32
435.68	324.20
436.05	327.03
436.42	329.80
436.79	332.33
437.16	335.03
437.53	337.87
437.90	340.67
438.27	343.38
438.64	346.21
439.01	348.82
439.38	351.08
439.75	353.22
440.13	355.66
440.50	357.96
440.87	359.79
441.24	361.72
441.61	363.95
441.98	365.40
442.35	367.15
442.72	368.93
443.09	370.71
443.46	371.68
443.83	372.26
444.20	372.77
444.57	373.59
444.94	373.83
445.31	374.14
445.68	374.43
446.05	374.52
446.42	374.14
446.79	373.71
447.16	373.20
447.53	372.87
447.90	371.75
448.27	370.59
448.64	369.02
449.01	367.87
449.37	365.87
449.74	363.97
450.11	361.73
450.48	359.30
450.85	356.73
451.22	354.63
451.59	352.58
451.96	350.63
452.33	348.02
452.70	345.67
453.07	342.84
453.43	339.96
453.80	337.17
454.17	334.50
454.54	331.95
454.91	329.28
455.28	326.69
455.65	324.17
456.02	321.74
456.38	319.62
456.75	317.00
457.12	314.76
457.49	312.56
457.86	310.39
458.23	308.51
458.59	306.52
458.96	304.41
459.33	302.59
459.70	300.74
460.07	299.23
460.43	297.55
460.80	295.96
461.17	294.58
461.54	293.11
461.91	291.67
462.27	290.20
462.64	288.94
463.01	287.55
463.38	286.31
463.74	284.95
464.11	283.75
464.48	282.72
464.85	281.64
465.21	280.79
465.58	279.90
465.95	278.87
466.32	278.00
466.68	277.11
467.05	276.24
467.42	275.36
467.78	274.49
468.15	273.58
468.52	272.94
468.88	272.10
469.25	271.33
469.62	270.78
469.98	270.16
470.35	269.56
470.72	268.98
471.08	268.37
471.45	267.87
471.82	267.38
472.18	266.80
472.55	266.38
472.92	265.88
473.28	265.45
473.65	265.00
474.02	264.53
474.38	264.20
474.75	263.87
475.11	263.52
475.48	263.26
475.85	263.08
476.21	262.89
476.58	262.70
476.94	262.59
477.31	262.38
477.67	262.23
478.04	262.14
478.41	262.07
478.77	262.09
479.14	262.04
479.50	262.04
479.87	262.12
480.23	262.19
480.60	262.22
480.96	262.31
481.33	262.51
481.69	262.73
482.06	262.94
482.42	263.17
482.79	263.42
483.15	263.74
483.52	264.07
483.88	264.39
484.25	264.78
484.61	265.19
484.98	265.61
485.34	266.17
485.71	266.75
486.07	267.37
486.44	267.89
486.80	268.58
487.17	269.31
487.53	270.10
487.90	270.93
488.26	271.88
488.62	272.84
488.99	273.81
489.35	274.83
489.72	275.95
490.08	277.13
490.44	278.39
490.81	279.67
491.17	281.05
491.54	282.51
491.90	284.06
492.26	285.73
492.63	287.49
492.99	289.27
493.36	291.19
493.72	293.27
494.08	295.40
494.45	297.65
494.81	300.00
495.17	302.44
495.54	305.02
495.90	307.73
496.26	310.57
496.63	313.58
496.99	316.72
497.35	319.94
497.72	323.39
498.08	326.96
498.44	330.67
498.80	334.64
499.17	338.69
499.53	342.92
499.89	347.31
500.26	351.87
500.62	356.58
500.98	361.55
501.34	366.59
501.71	371.97
502.07	377.46
502.43	383.12
502.79	389.02
503.16	395.13
503.52	401.40
503.88	407.80
504.24	414.39
504.60	421.27
504.97	428.41
505.33	435.66
505.69	443.45
506.05	451.30
506.41	459.21
506.78	467.35
507.14	475.74
507.50	484.47
507.86	493.45
508.22	502.72
508.59	512.00
508.95	521.65
509.31	531.41
509.67	541.49
510.03	551.83
510.39	562.33
510.75	573.12
511.12	584.10
511.48	595.45
511.84	606.95
512.20	618.46
512.56	630.47
512.92	642.69
513.28	654.97
513.64	667.39
514.00	680.04
514.37	693.05
514.73	706.16
515.09	719.19
515.45	732.51
515.81	746.03
516.17	759.95
516.53	773.97
516.89	788.16
517.25	802.31
517.61	816.69
517.97	831.21
518.33	845.57
518.69	860.29
519.05	875.18
519.41	890.27
519.77	905.82
520.13	921.13
520.49	936.40
520.85	951.71
521.21	967.28
521.57	983.52
521.93	999.15
522.29	1015.46
522.65	1031.65
523.01	1047.73
523.37	1063.74
523.73	1079.87
524.09	1095.93
524.45	1112.17
524.81	1128.73
525.17	1145.36
525.53	1162.07
525.89	1178.90
526.25	1195.71
526.61	1212.11
526.97	1228.75
527.33	1245.12
527.68	1261.63
528.04	1278.12
528.40	1294.66
528.76	1311.78
529.12	1328.29
529.48	1345.21
529.84	1361.13
530.20	1377.61
530.56	1394.53
530.91	1411.80
531.27	1428.37
531.63	1444.80
531.99	1461.29
532.35	1477.20
532.71	1493.10
533.07	1509.29
533.42	1525.14
533.78	1541.03
534.14	1557.04
534.50	1572.37
534.86	1588.17
535.21	1603.34
535.57	1619.07
535.93	1634.32
536.29	1648.84
536.65	1663.64
537.00	1678.13
537.36	1693.22
537.72	1707.58
538.08	1721.86
538.44	1735.48
538.79	1749.23
539.15	1762.60
539.51	1776.17
539.87	1790.19
540.22	1803.67
540.58	1817.19
540.94	1830.17
541.29	1842.73
541.65	1855.27
542.01	1868.20
542.37	1880.28
542.72	1892.56
543.08	1904.31
543.44	1916.62
543.79	1927.77
544.15	1938.71
544.51	1950.22
544.87	1961.15
545.22	1972.01
545.58	1982.16
545.94	1991.82
546.29	2001.59
546.65	2011.56
547.01	2020.74
547.36	2029.58
547.72	2038.06
548.07	2046.05
548.43	2054.27
548.79	2062.29
549.14	2069.99
549.50	2077.30
549.86	2084.89
550.21	2092.14
550.57	2099.25
550.92	2105.82
551.28	2112.99
551.64	2120.04
551.99	2126.55
552.35	2132.84
552.70	2138.83
553.06	2144.89
553.41	2151.27
553.77	2157.18
554.13	2163.09
554.48	2169.37
554.84	2174.83
555.19	2180.01
555.55	2185.07
555.90	2189.74
556.26	2194.79
556.61	2199.39
556.97	2203.94
557.32	2208.23
557.68	2212.35
558.03	2216.66
558.39	2220.38
558.74	2224.91
559.10	2228.70
559.45	2232.40
559.81	2236.49
560.16	2240.41
560.52	2243.49
560.87	2246.90
561.23	2249.67
561.58	2252.70
561.94	2255.10
562.29	2257.37
562.64	2260.18
563.00	2262.75
563.35	2266.15
563.71	2269.25
564.06	2272.40
564.42	2275.13
564.77	2277.64
565.12	2280.09
565.48	2281.92
565.83	2283.98
566.19	2285.47
566.54	2286.46
566.89	2287.60
567.25	2288.31
567.60	2289.68
567.96	2291.60
568.31	2292.46
568.66	2293.69
569.02	2294.21
569.37	2294.59
569.72	2295.63
570.08	2295.88
570.43	2295.92
570.78	2295.40
571.14	2293.83
571.49	2292.59
571.84	2292.38
572.20	2291.40
572.55	2290.33
572.90	2288.86
573.26	2287.43
573.61	2285.71
573.96	2284.09
574.31	2281.19
574.67	2278.32
575.02	2274.65
575.37	2271.19
575.72	2267.51
576.08	2264.17
576.43	2260.89
576.78	2257.28
577.13	2254.04
577.49	2250.81
577.84	2247.51
578.19	2243.72
578.54	2240.30
578.90	2236.21
579.25	2230.74
579.60	2225.85
579.95	2220.85
580.30	2215.77
580.66	2210.59
581.01	2205.67
581.36	2200.73
581.71	2196.60
582.06	2192.10
582.42	2187.83
582.77	2182.74
583.12	2178.29
583.47	2173.80
583.82	2168.86
584.17	2163.85
584.53	2158.50
584.88	2153.02
585.23	2147.23
585.58	2141.69
585.93	2136.24
586.28	2131.49
586.63	2126.40
586.98	2121.27
587.34	2116.62
587.69	2111.88
588.04	2106.71
588.39	2100.92
588.74	2094.51
589.09	2088.44
589.44	2081.70
589.79	2075.60
590.14	2069.89
590.49	2063.23
590.84	2056.71
591.19	2050.80
591.54	2044.23
591.89	2036.95
592.25	2030.31
592.60	2023.16
592.95	2015.87
593.30	2008.52
593.65	2000.94
594.00	1993.96
594.35	1986.70
594.70	1978.69
595.05	1971.64
595.40	1964.37
595.75	1957.08
596.10	1951.02
596.45	1944.44
596.80	1938.46
597.15	1932.05
597.50	1925.19
597.85	1918.87
598.19	1912.29
598.54	1905.39
598.89	1898.78
599.24	1892.82
599.59	1886.14
599.94	1879.98
600.29	1873.68
600.64	1867.19
600.99	1859.86
601.34	1853.19
601.69	1846.34
602.04	1839.68
602.39	1832.41
602.74	1825.80
603.08	1819.09
603.43	1812.36
603.78	1804.95
604.13	1797.73
604.48	1790.47
604.83	1783.53
605.18	1776.66
605.53	1768.63
605.87	1760.49
606.22	1753.26
606.57	1745.29
606.92	1738.01
607.27	1730.91
607.62	1723.98
607.96	1716.70
608.31	1710.13
608.66	1702.37
609.01	1694.83
609.36	1687.09
609.70	1678.98
610.05	1670.83
610.40	1663.16
610.75	1654.79
611.10	1647.22
611.44	1638.70
611.79	1630.58
612.14	1621.91
612.49	1612.69
612.83	1604.35
613.18	1596.36
613.53	1588.23
613.88	1579.77
614.22	1571.48
614.57	1562.78
614.92	1554.77
615.27	1547.31
615.61	1539.02
615.96	1530.96
616.31	1523.36
616.65	1516.09
617.00	1508.57
617.35	1500.82
617.70	1492.56
618.04	1484.07
618.39	1475.81
618.74	1468.27
619.08	1460.01
619.43	1452.46
619.78	1445.59
620.12	1438.56
620.47	1430.96
620.82	1422.84
621.16	1415.46
621.51	1407.78
621.85	1400.18
622.20	1391.60
622.55	1383.17
622.89	1375.31
623.24	1367.74
623.59	1360.26
623.93	1352.69
624.28	1345.51
624.62	1338.05
624.97	1330.80
625.32	1324.11
625.66	1317.03
626.01	1309.95
626.35	1302.49
626.70	1294.72
627.04	1286.95
627.39	1279.07
627.73	1271.68
628.08	1264.85
628.43	1257.60
628.77	1250.31
629.12	1242.81
629.46	1235.70
629.81	1228.30
630.15	1220.97
630.50	1213.54
630.84	1205.39
631.19	1197.42
631.53	1189.84
631.88	1182.26
632.22	1174.65
632.57	1167.37
632.91	1159.85
633.26	1152.38
633.60	1144.91
633.95	1137.77
634.29	1130.71
634.64	1124.07
634.98	1116.77
635.32	1109.66
635.67	1103.05
636.01	1096.39
636.36	1089.65
636.70	1083.15
637.05	1076.54
637.39	1070.15
637.73	1063.65
638.08	1057.77
638.42	1051.82
638.77	1045.41
639.11	1038.87
639.45	1032.46
639.80	1025.73
640.14	1019.33
640.49	1012.84
640.83	1006.56
641.17	1000.43
641.52	994.20
641.86	987.67
642.20	981.79
642.55	975.34
642.89	968.87
643.23	962.29
643.58	956.55
643.92	950.41
644.26	944.46
644.61	938.41
644.95	932.49
645.29	926.06
645.64	919.38
645.98	913.07
646.32	907.16
646.66	901.18
647.01	895.44
647.35	889.80
647.69	883.95
648.04	878.51
648.38	872.69
648.72	866.63
649.06	860.64
649.41	854.71
649.75	848.84
650.09	842.83
650.43	837.02
650.78	830.84
651.12	824.82
651.46	819.04
651.80	813.31
652.14	807.86
652.49	802.37
652.83	797.15
653.17	791.45
653.51	785.79
653.85	780.33
654.20	774.66
654.54	768.59
654.88	762.78
655.22	756.85
655.56	751.15
655.90	745.63
656.25	740.40
656.59	735.07
656.93	729.92
657.27	724.81
657.61	719.38
657.95	714.24
658.29	709.16
658.64	703.91
658.98	698.63
659.32	693.15
659.66	687.95
660.00	682.70
660.34	677.82
660.68	672.93
661.02	667.98
661.36	663.30
661.70	658.78
662.05	654.47
662.39	650.24
662.73	645.79
663.07	641.51
663.41	637.06
663.75	632.56
664.09	627.96
664.43	623.59
664.77	619.58
665.11	615.30
665.45	611.16
665.79	607.03
666.13	602.83
666.47	598.73
666.81	594.60
667.15	590.43
667.49	586.43
667.83	582.54
668.17	578.55
668.51	574.47
668.85	570.46
669.19	566.56
669.53	562.63
669.87	558.76
670.21	554.99
670.55	551.33
670.89	547.87
671.23	544.47
671.57	540.87
671.91	537.29
672.25	533.82
672.58	530.29
672.92	526.85
673.26	523.76
673.60	520.64
673.94	517.46
674.28	514.52
674.62	511.62
674.96	508.52
675.30	505.62
675.64	502.69
675.97	499.89
676.31	497.09
676.65	494.16
676.99	491.44
677.33	488.52
677.67	485.71
678.01	482.69
678.34	479.71
678.68	476.85
679.02	474.02
679.36	471.26
679.70	468.50
680.04	465.83
680.37	462.94
680.71	460.14
681.05	457.59
681.39	454.93
681.73	452.26
682.06	449.74
682.40	447.19
682.74	444.62
683.08	442.06
683.42	439.37
683.75	436.87
684.09	434.30
684.43	431.84
684.77	429.36
685.10	426.97
685.44	424.63
685.78	422.34
686.12	420.04
686.45	417.72
686.79	415.45
687.13	413.16
687.46	410.92
687.80	408.70
688.14	406.43
688.48	404.32
688.81	402.10
689.15	399.91
689.49	397.75
689.82	395.64
690.16	393.58
690.50	391.65
690.83	389.73
691.17	387.75
691.51	385.86
691.84	384.04
692.18	382.16
692.52	380.23
692.85	378.29
693.19	376.44
693.52	374.60
693.86	372.81
694.20	371.10
694.53	369.34
694.87	367.50
695.21	365.69
695.54	363.89
695.88	362.09
696.21	360.39
696.55	358.72
696.88	357.10
697.22	355.42
697.56	353.82
697.89	352.15
698.23	350.59
698.56	348.97
698.90	347.37
699.23	345.73
699.57	344.21
699.90	342.63
700.24	341.11
700.58	339.61
700.91	338.10
701.25	336.59
701.58	335.23
701.92	333.90
702.25	332.56
702.59	331.21
702.92	329.90
703.26	328.60
703.59	327.32
703.93	326.09
704.26	324.84
704.60	323.55
704.93	322.28
705.26	321.00
705.60	319.83
705.93	318.66
706.27	317.62
706.60	316.52
706.94	315.43
707.27	314.29
707.61	313.18
707.94	312.17
708.27	311.08
708.61	309.98
708.94	308.97
709.28	308.00
709.61	307.01
709.94	306.08
710.28	305.04
710.61	304.04
710.95	303.01
711.28	302.12
711.61	301.13
711.95	300.27
712.28	299.34
712.61	298.33
712.95	297.38
713.28	296.48
713.61	295.61
713.95	294.73
714.28	293.90
714.61	293.05
714.95	292.23
715.28	291.37
715.61	290.50
715.95	289.62
716.28	288.75
716.61	287.90
716.95	287.08
717.28	286.38
717.61	285.64
717.94	284.89
718.28	284.10
718.61	283.39
718.94	282.65
719.27	281.96
719.61	281.34
719.94	280.71
720.27	280.00
720.60	279.31
720.94	278.71
721.27	278.08
721.60	277.52
721.93	276.91
722.27	276.37
722.60	275.84
722.93	275.27
723.26	274.71
723.59	274.15
723.93	273.58
724.26	273.00
724.59	272.37
724.92	271.81
725.25	271.33
725.59	270.80
725.92	270.29
726.25	269.79
726.58	269.29
726.91	268.76
727.24	268.27
727.57	267.77
727.91	267.23
728.24	266.77
728.57	266.30
728.90	265.83
729.23	265.29
729.56	264.84
729.89	264.35
730.22	263.85
730.55	263.40
730.89	262.95
731.22	262.51
731.55	262.10
731.88	261.65
732.21	261.16
732.54	260.70
732.87	260.25
733.20	259.87
733.53	259.47
733.86	259.11
734.19	258.71
734.52	258.34
734.85	258.07
735.18	257.65
735.51	257.27
735.84	256.88
736.17	256.52
736.50	256.11
736.83	255.88
737.16	255.55
737.49	255.21
737.82	254.83
738.15	254.49
738.48	254.16
738.81	253.83
739.14	253.51
739.47	253.22
739.80	252.89
740.13	252.57
740.46	252.28
740.79	251.96
741.12	251.65
741.45	251.33
741.78	250.99
742.11	250.73
742.44	250.40
742.77	250.09
743.10	249.82
743.43	249.54
743.75	249.18
744.08	249.03
744.41	248.75
744.74	248.54
745.07	248.26
745.40	248.04
745.73	247.79
746.06	247.53
746.39	247.27
746.71	247.03
747.04	246.74
747.37	246.45
747.70	246.23
748.03	245.99
748.36	245.74
748.68	245.45
749.01	245.16
749.34	244.95
749.67	244.75
750.00	244.54
750.33	244.37
750.65	244.13
750.98	243.77
751.31	243.54
751.64	243.31
751.97	243.16
752.29	242.95
752.62	242.72
752.95	242.51
753.28	242.27
753.60	242.07
753.93	241.90
754.26	241.75
754.59	241.48
754.91	241.28
755.24	241.10
755.57	240.94
755.90	240.76
756.22	240.53
756.55	240.30
756.88	240.10
757.20	239.89
757.53	239.72
757.86	239.57
758.19	239.42
758.51	239.24
758.84	239.02
759.17	238.81
759.49	238.64
759.82	238.52
760.15	238.39
760.47	238.21
760.80	238.05
761.13	237.90
761.45	237.77
761.78	237.62
762.11	237.49
762.43	237.35
762.76	237.22
763.08	237.12
763.41	237.01
763.74	236.88
764.06	236.74
764.39	236.61
764.71	236.47
765.04	236.33
765.37	236.20
765.69	236.08
766.02	235.96
766.34	235.87
766.67	235.73
767.00	235.65
767.32	235.58
767.65	235.51
767.97	235.38
768.30	235.27
768.62	235.16
768.95	235.02
769.27	234.91
769.60	234.81
769.92	234.67
770.25	234.57
770.57	234.44
770.90	234.34
771.22	234.22
771.55	234.11
771.87	234.04
772.20	233.97
772.52	233.97
772.85	234.03
773.17	233.92
773.50	233.81
773.82	233.70
774.15	233.59
774.47	233.45
774.80	233.33
775.12	233.23
775.45	233.15
775.77	233.08
776.09	233.02
776.42	232.97
776.74	232.94
777.07	232.85
777.39	232.77
777.72	232.69
778.04	232.63
778.36	232.56
778.69	232.48
779.01	232.41
779.33	232.26
779.66	232.07
779.98	232.00
780.31	231.95
780.63	231.95
780.95	231.90
781.28	231.80
781.60	231.74
781.92	231.70
782.25	231.65
782.57	231.59
782.89	231.51
783.22	231.41
783.54	231.32
783.86	231.25
784.19	231.22
784.51	231.19
784.83	231.13
785.16	231.06
785.48	231.02
785.80	230.91
786.12	230.88
786.45	230.83
786.77	230.82
787.09	230.76
787.42	230.67
787.74	230.62
788.06	230.61
788.38	230.55
788.71	230.50
789.03	230.45
789.35	230.40
789.67	230.36
789.99	230.32
790.32	230.25
790.64	230.24
790.96	230.28
791.28	230.20
791.61	230.18
791.93	230.16
792.25	230.11
792.57	230.17
792.89	230.06
793.21	230.03
793.54	229.98
793.86	229.93
794.18	229.90
794.50	229.87
794.82	229.84
795.14	229.82
795.47	229.78
795.79	229.77
796.11	229.72
796.43	229.68
796.75	229.67
797.07	229.64
797.39	229.60
797.71	229.50
798.04	229.49
798.36	229.46
798.68	229.41
799.00	229.37
799.32	229.32
799.64	229.30
799.96	229.27
800.28	229.23
800.60	229.19
800.92	229.14
801.24	229.08
801.56	229.04
801.89	229.01
802.21	229.01
802.53	228.96
802.85	228.94
803.17	228.99
803.49	228.94
803.81	228.96
804.13	228.91
804.45	228.86
804.77	228.81
805.09	228.77
805.41	228.73
805.73	228.72
806.05	228.62
806.37	228.60
806.69	228.56
807.01	228.55
807.33	228.53
807.65	228.47
807.97	228.51
808.28	228.48
808.60	228.48
808.92	228.45
809.24	228.49
809.56	228.48
809.88	228.38
810.20	228.37
810.52	228.36
810.84	228.34
811.16	228.31
811.48	228.31
811.80	228.32
812.12	228.31
812.43	228.25
812.75	228.26
813.07	228.24
813.39	228.23
813.71	228.17
814.03	228.14
814.35	228.17
814.67	228.10
814.98	228.07
815.30	228.00
815.62	227.97
815.94	227.88
816.26	227.89
816.58	227.87
816.89	227.85
817.21	227.77
817.53	227.78
817.85	227.79
818.17	227.75
818.48	227.72
818.80	227.71
819.12	227.72
819.44	227.69
819.76	227.67
820.07	227.64
820.39	227.64
820.71	227.63
821.03	227.63
821.34	227.61
821.66	227.63
821.98	227.63
822.30	227.59
822.61	227.63
822.93	227.58
823.25	227.56
823.57	227.54
823.88	227.58
824.20	227.56
824.52	227.55
824.83	227.53
825.15	227.50
825.47	227.50
825.79	227.48
826.10	227.47
826.42	227.43
826.74	227.45
827.05	227.45
827.37	227.47
827.69	227.42
828.00	227.39
828.32	227.39
828.64	227.35
828.95	227.44
829.27	227.40
829.58	227.35
829.90	227.35
830.22	227.32
830.53	227.28
830.85	227.26
831.17	227.26
831.48	227.25
831.80	227.22
832.11	227.21
832.43	227.18
832.75	227.14
833.06	227.26
833.38	227.22
833.69	227.21
834.01	227.17
834.32	227.15
834.64	227.16
834.96	227.12
835.27	227.12
835.59	227.07
835.90	227.03
836.22	227.07
836.53	227.06
836.85	227.05
837.16	227.12
837.48	227.11
837.79	227.08
838.11	227.12
838.42	227.15
838.74	227.14
839.05	227.12
839.37	227.13
839.68	227.02
840.00	227.01
840.31	227.04
840.63	227.01
840.94	227.02
841.26	226.99
841.57	227.00
841.88	226.99
842.20	226.97
842.51	226.97
842.83	226.96
843.14	227.03
843.46	227.01
843.77	226.99
844.08	226.98
844.40	226.96
844.71	226.89
845.03	226.84
845.34	226.78
845.65	226.80
845.97	226.77
846.28	226.79
846.60	226.76
846.91	226.70
847.22	226.71
847.54	226.75
847.85	226.74
848.16	226.73
848.48	226.73
848.79	226.79
849.10	226.79
849.42	226.77
849.73	226.66
850.04	226.64
850.36	226.59
850.67	226.58
850.98	226.60
851.30	226.61
851.61	226.61
851.92	226.65
852.23	226.66
852.55	226.71
852.86	226.69
853.17	226.69
853.49	226.71
853.80	226.70
854.11	226.64
854.42	226.68
854.74	226.65
855.05	226.64
855.36	226.57
855.67	226.55
855.99	226.57
856.30	226.68
856.61	226.69
856.92	226.67
857.23	226.67
857.55	226.61
857.86	226.57
858.17	226.59
858.48	226.57
858.79	226.55
859.11	226.53
859.42	226.53
859.73	226.50
860.04	226.51
860.35	226.47
860.66	226.43
860.98	226.40
861.29	226.42
861.60	226.41
861.91	226.42
862.22	226.43
862.53	226.37
862.84	226.27
863.16	226.31
863.47	226.27
863.78	226.26
864.09	226.30
864.40	226.32
864.71	226.33
865.02	226.33
865.33	226.30
865.64	226.27
865.95	226.24
866.27	226.31
866.58	226.30
866.89	226.32
867.20	226.32
867.51	226.28
867.82	226.27
868.13	226.29
868.44	226.26
868.75	226.27
869.06	226.29
869.37	226.30
869.68	226.24
869.99	226.29
870.30	226.27
870.61	226.28
870.92	226.32
871.23	226.32
871.54	226.33
871.85	226.34
872.16	226.36
872.47	226.39
872.78	226.36
873.09	226.36
873.40	226.35
873.71	226.40
874.02	226.43
874.33	226.41
874.64	226.38
874.95	226.41
875.26	226.39
875.56	226.42
875.87	226.43
876.18	226.43
876.49	226.52
876.80	226.54
877.11	226.55
877.42	226.51
877.73	226.50
878.04	226.52
878.35	226.54
878.66	226.57
878.96	226.56
879.27	226.53
879.58	226.56
879.89	226.56
880.20	226.62
880.51	226.62
880.82	226.64
881.12	226.65
881.43	226.64
881.74	226.66
882.05	226.67
882.36	226.66
882.67	226.69
882.97	226.58
883.28	226.56
883.59	226.52
883.90	226.55
884.21	226.54
884.51	226.49
884.82	226.48
885.13	226.48
885.44	226.47
885.74	226.49
886.05	226.48
886.36	226.49
886.67	226.40
886.98	226.45
887.28	226.44
887.59	226.43
887.90	226.43
888.20	226.38
888.51	226.35
888.82	226.35
889.13	226.35
889.43	226.44
889.74	226.47
890.05	226.45
890.35	226.42
890.66	226.41
890.97	226.40
891.28	226.42
891.58	226.38
891.89	226.37
892.20	226.35
892.50	226.31
892.81	226.26
893.12	226.29
893.42	226.27
893.73	226.29
894.04	226.30
894.34	226.29
894.65	226.29
894.95	226.27
895.26	226.28
895.57	226.29
895.87	226.17
896.18	226.15
896.48	226.18
896.79	226.16
897.10	226.16
897.40	226.14
897.71	226.15
898.01	226.16
898.32	226.14
898.63	226.12
898.93	226.14
899.24	226.17
899.54	226.12
899.85	226.09
900.15	226.07
900.46	226.04
900.76	226.04
901.07	226.05
901.38	226.04
901.68	226.05
901.99	226.01
902.29	226.05
902.60	226.04
902.90	226.03
903.21	226.05
903.51	226.06
903.82	226.10
904.12	226.06
904.43	226.04
904.73	226.03
905.03	226.06
905.34	226.10
905.64	226.06
905.95	226.04
906.25	226.06
906.56	226.07
906.86	226.06
907.17	226.06
907.47	226.05
907.77	226.05
908.08	226.01
908.38	226.02
908.69	226.02
908.99	226.04
909.30	226.04
909.60	226.05
909.90	226.06
910.21	226.03
910.51	226.04
910.81	226.05
911.12	226.09
911.42	226.08
911.73	226.02
912.03	226.03
912.33	226.07
912.64	226.07
912.94	226.05
913.24	226.04
913.55	226.02
913.85	226.01
914.15	226.00
914.46	226.02
914.76	225.98
915.06	225.99
915.37	225.96
915.67	225.97
915.97	225.95
916.27	225.92
916.58	225.97
916.88	225.97
917.18	225.97
917.49	226.05
917.79	226.05
918.09	226.09
918.39	226.16
918.70	226.16
919.00	226.15
919.30	226.19
919.60	226.22
919.91	226.22
920.21	226.23
920.51	226.22
920.81	226.19
921.12	226.23
921.42	226.22
921.72	226.23
922.02	226.21
922.32	226.23
922.63	226.23
922.93	226.24
923.23	226.22
923.53	226.21
923.83	226.10
924.13	226.09
924.44	226.06
924.74	226.08
925.04	226.09
925.34	226.09
925.64	226.06
925.94	226.01
926.24	226.10
926.55	226.10
926.85	226.13
927.15	226.15
927.45	226.12
927.75	226.10
928.05	226.09
928.35	226.12
928.65	226.10
928.95	226.11
929.26	226.07
929.56	226.10
929.86	226.13
930.16	226.12
930.46	226.13
930.76	226.12
931.06	226.01
931.36	225.98
931.66	226.00
931.96	226.02
932.26	226.03
932.56	225.95
932.86	225.95
933.16	225.93
933.46	225.91
933.76	225.93
934.06	225.92
934.36	225.97
934.66	225.90
934.96	225.87
935.26	225.87
935.56	225.89
935.86	225.85
936.16	225.80
936.46	225.80
936.76	225.79
937.06	225.78
937.36	225.79
937.66	225.80
937.96	225.75
938.26	225.72
938.56	225.70
938.86	225.73
939.16	225.76
939.46	225.77
939.76	225.79
940.06	225.75
940.35	225.78
940.65	225.72
940.95	225.78
941.25	225.76
941.55	225.76
941.85	225.74
942.15	225.74
942.45	225.78
942.75	225.79
943.04	225.80
943.34	225.84
943.64	225.82
943.94	225.82
944.24	225.87
944.54	225.87
944.84	225.89
945.13	225.85
945.43	225.82
945.73	225.84
946.03	225.81
946.33	225.85
946.62	225.82
946.92	225.84
947.22	225.82
947.52	225.87
947.82	225.91
948.11	225.93
948.41	225.96
948.71	225.92
949.01	225.92
949.31	225.88
949.60	225.87
949.90	225.91
950.20	225.90
950.50	225.88
950.79	225.90
951.09	225.92
951.39	225.92
951.69	225.93
951.98	225.92
952.28	225.92
952.58	225.91
952.87	225.92
953.17	225.94
953.47	225.93
953.76	225.89
954.06	225.84
954.36	225.83
954.66	225.84
954.95	225.88
955.25	225.89
955.55	225.92
955.84	225.91
956.14	225.93
956.44	225.93
956.73	225.93
957.03	225.91
957.32	225.88
957.62	225.90
957.92	225.91
958.21	225.91
958.51	226.02
958.81	226.05
959.10	226.09
959.40	226.11
959.69	226.14
959.99	226.19
960.29	226.18
960.58	226.18
960.88	226.18
961.17	226.18
961.47	226.19
961.76	226.17
962.06	226.18
962.36	226.19
962.65	226.19
962.95	226.16
963.24	226.15
963.54	226.17
963.83	226.18
964.13	226.16
964.42	226.11
964.72	226.03
965.01	226.01
965.31	225.96
965.60	225.93
965.90	225.91
966.19	225.85
966.49	225.84
966.78	225.84
967.08	225.82
967.37	225.82
967.67	225.81
967.96	225.86
968.26	225.87
968.55	225.84
968.85	225.83
969.14	225.86
969.43	225.86
969.73	225.85
970.02	225.85
970.32	225.84
970.61	225.84
970.91	225.83
971.20	225.84
971.49	225.85
971.79	225.84
972.08	225.80
972.38	225.83
972.67	225.83
972.96	225.84
973.26	225.83
973.55	225.82
973.85	225.81
974.14	225.79
974.43	225.77
974.73	225.77
975.02	225.77
975.31	225.74
975.61	225.74
975.90	225.74
976.19	225.75
976.49	225.76
976.78	225.79
977.07	225.78
977.37	225.72
977.66	225.75
977.95	225.74
978.24	225.79
978.54	225.77
978.83	225.77
979.12	225.74
979.42	225.72
979.71	225.72
980.00	225.70
980.29	225.65
980.59	225.65
980.88	225.65
981.17	225.68
981.46	225.71
981.76	225.71
982.05	225.75
982.34	225.73
982.63	225.75
982.93	225.72
983.22	225.77
983.51	225.82
983.80	225.81
984.09	225.83
984.39	225.84
984.68	225.84
984.97	225.88
985.26	225.90
985.55	225.93
985.85	225.92
986.14	225.95
986.43	226.01
986.72	225.98
987.01	225.97
987.30	225.96
987.59	225.98
987.89	225.99
988.18	225.93
988.47	225.92
988.76	225.90
989.05	225.94
989.34	225.92
989.63	225.96
989.92	225.97
990.22	225.96
990.51	225.97
990.80	225.98
991.09	225.96
991.38	225.98
991.67	225.95
991.96	225.93
992.25	225.92
992.54	225.91
992.83	225.93
993.12	225.95
993.41	225.96
993.70	225.95
993.99	225.97
994.28	225.98
994.58	226.06
994.87	226.04
995.16	226.01
995.45	226.00
995.74	225.95
996.03	225.94
996.32	225.94
996.61	225.92
996.90	225.91
997.19	225.87
997.48	225.91
997.77	225.91
998.06	225.93
998.34	225.94
998.63	225.96
998.92	225.97
999.21	225.95
999.50	225.95
999.79	225.95
1000.08	225.96
1000.37	225.96
1000.66	225.89
1000.95	225.94
1001.24	225.94
1001.53	225.95
1001.82	225.99
1002.11	225.96
1002.40	225.98
1002.68	226.00
1002.97	226.07
1003.26	226.07
1003.55	226.03
1003.84	226.04
1004.13	226.07
1004.42	226.05
1004.71	226.01
1004.99	225.98
1005.28	225.98
1005.57	225.98
1005.86	225.95
1006.15	225.92
1006.44	225.86
1006.72	225.89
1007.01	225.86
1007.30	225.85
1007.59	225.82
1007.88	225.79
1008.17	225.79
1008.45	225.75
1008.74	225.70
1009.03	225.63
1009.32	225.62
1009.60	225.60
1009.89	225.55
1010.18	225.52
1010.47	225.51
1010.76	225.53
1011.04	225.54
1011.33	225.57
1011.62	225.53
1011.91	225.55
1012.19	225.54
1012.48	225.62
1012.77	225.57
1013.05	225.61
1013.34	225.62
1013.63	225.63
1013.92	225.64
1014.20	225.65
1014.49	225.69
1014.78	225.70
1015.06	225.69
1015.35	225.71
1015.64	225.75
1015.92	225.79
1016.21	225.80
1016.50	225.81
1016.78	225.84
1017.07	225.83
1017.36	225.80
1017.64	225.80
1017.93	225.82
1018.22	225.81
1018.50	225.81
1018.79	225.86
1019.08	225.83
1019.36	225.82
1019.65	225.79
1019.93	225.80
1020.22	225.80
1020.51	225.85
1020.79	225.86
1021.08	225.50
1021.36	225.94
1021.65	226.12
1021.94	225.94
1022.22	225.74
1022.51	225.26
1022.79	226.22
1023.08	225.64
1023.36	227.29
1023.65	225.81
>>>>>End Processed Spectral Data<<<<<
