SpectraSuite Data File
++++++++++++++++++++++++++++++++++++
Date: Fri Feb 01 15:33:52 EST 2013
User: group
Dark Spectrum Present: No
Reference Spectrum Present: No
Number of Sampled Component Spectra: 1
Spectrometers: USB2E7196
Integration Time (usec): 35000 (USB2E7196)
Spectra Averaged: 100 (USB2E7196)
Boxcar Smoothing: 10 (USB2E7196)
Correct for Electrical Dark: No (USB2E7196)
Strobe/Lamp Enabled: No (USB2E7196)
Correct for Detector Non-linearity: No (USB2E7196)
Correct for Stray Light: No (USB2E7196)
Number of Pixels in Processed Spectrum: 2048
>>>>>Begin Processed Spectral Data<<<<<
339.09	0.00
339.48	214.61
339.86	216.19
340.24	217.77
340.63	218.62
341.01	221.53
341.39	221.68
341.78	222.86
342.16	224.22
342.54	224.78
342.93	213.04
343.31	223.80
343.69	224.35
344.07	224.84
344.46	225.28
344.84	225.70
345.22	225.95
345.60	226.21
345.99	226.41
346.37	226.54
346.75	226.64
347.13	226.68
347.52	226.78
347.90	226.88
348.28	226.94
348.66	226.98
349.05	226.98
349.43	227.06
349.81	227.11
350.19	227.19
350.57	227.24
350.96	227.31
351.34	227.39
351.72	227.48
352.10	227.57
352.48	227.63
352.87	227.64
353.25	227.75
353.63	227.79
354.01	227.86
354.39	227.97
354.77	228.06
355.15	228.18
355.54	228.22
355.92	228.28
356.30	228.35
356.68	228.50
357.06	228.54
357.44	228.57
357.82	228.64
358.20	228.70
358.58	228.76
358.97	228.81
359.35	228.93
359.73	228.97
360.11	229.01
360.49	229.08
360.87	229.13
361.25	229.17
361.63	229.28
362.01	229.31
362.39	229.32
362.77	229.36
363.15	229.39
363.53	229.42
363.91	229.43
364.29	229.42
364.67	229.33
365.05	229.39
365.43	229.40
365.81	229.41
366.19	229.43
366.57	229.46
366.95	229.45
367.33	229.40
367.71	229.40
368.09	229.40
368.47	229.37
368.85	229.39
369.23	229.35
369.61	229.26
369.99	229.28
370.37	229.24
370.75	229.26
371.13	229.20
371.51	229.17
371.89	229.12
372.27	229.09
372.65	229.05
373.03	228.96
373.41	228.88
373.78	228.82
374.16	228.73
374.54	228.65
374.92	228.57
375.30	228.50
375.68	228.44
376.06	228.36
376.44	228.26
376.82	228.17
377.19	228.09
377.57	228.03
377.95	227.91
378.33	227.82
378.71	227.67
379.09	227.60
379.47	227.52
379.84	227.45
380.22	227.32
380.60	227.24
380.98	227.18
381.36	227.10
381.73	227.02
382.11	226.96
382.49	226.88
382.87	226.82
383.25	226.75
383.62	226.78
384.00	226.72
384.38	226.69
384.76	226.63
385.13	226.61
385.51	226.54
385.89	226.47
386.27	226.46
386.64	226.44
387.02	226.39
387.40	226.32
387.78	226.27
388.15	226.26
388.53	226.22
388.91	226.19
389.29	226.20
389.66	226.19
390.04	226.16
390.42	226.16
390.79	226.14
391.17	226.14
391.55	226.04
391.92	226.01
392.30	226.02
392.68	226.02
393.05	226.02
393.43	226.07
393.81	226.10
394.18	226.10
394.56	226.11
394.94	226.17
395.31	226.20
395.69	226.27
396.06	226.35
396.44	226.40
396.82	226.44
397.19	226.54
397.57	226.57
397.95	226.64
398.32	226.69
398.70	226.77
399.07	226.82
399.45	226.88
399.82	227.00
400.20	227.07
400.58	227.14
400.95	227.20
401.33	227.30
401.70	227.43
402.08	227.54
402.45	227.62
402.83	227.74
403.20	227.86
403.58	227.96
403.95	228.09
404.33	228.26
404.71	228.41
405.08	228.57
405.46	228.70
405.83	228.88
406.21	229.01
406.58	229.19
406.96	229.39
407.33	229.58
407.70	229.77
408.08	230.03
408.45	230.24
408.83	230.46
409.20	230.66
409.58	230.85
409.95	231.10
410.33	231.37
410.70	231.60
411.08	231.91
411.45	232.22
411.82	232.53
412.20	232.86
412.57	233.25
412.95	233.51
413.32	233.95
413.69	234.35
414.07	234.81
414.44	235.26
414.82	235.73
415.19	236.26
415.56	236.78
415.94	237.31
416.31	237.96
416.68	238.63
417.06	239.38
417.43	240.06
417.81	240.82
418.18	241.60
418.55	242.44
418.93	243.30
419.30	244.16
419.67	245.11
420.04	246.05
420.42	247.04
420.79	248.25
421.16	249.39
421.54	250.57
421.91	251.76
422.28	253.00
422.66	254.33
423.03	255.65
423.40	257.00
423.77	258.42
424.15	259.87
424.52	261.34
424.89	262.94
425.26	264.51
425.64	265.97
426.01	267.58
426.38	269.22
426.75	270.87
427.13	272.62
427.50	274.42
427.87	276.31
428.24	278.18
428.61	279.93
428.99	281.84
429.36	283.91
429.73	285.97
430.10	288.00
430.47	290.06
430.85	292.16
431.22	294.39
431.59	296.79
431.96	298.99
432.33	301.46
432.70	303.79
433.08	306.60
433.45	309.26
433.82	311.86
434.19	314.74
434.56	317.60
434.93	320.21
435.30	322.85
435.68	325.76
436.05	328.61
436.42	331.42
436.79	333.99
437.16	336.74
437.53	339.59
437.90	342.42
438.27	345.18
438.64	348.07
439.01	350.71
439.38	352.95
439.75	355.13
440.13	357.65
440.50	360.05
440.87	361.92
441.24	363.91
441.61	366.12
441.98	367.64
442.35	369.45
442.72	371.40
443.09	373.22
443.46	374.19
443.83	374.80
444.20	375.29
444.57	376.13
444.94	376.39
445.31	376.75
445.68	377.11
446.05	377.14
446.42	376.72
446.79	376.28
447.16	375.82
447.53	375.47
447.90	374.29
448.27	373.09
448.64	371.48
449.01	370.27
449.37	368.29
449.74	366.39
450.11	364.14
450.48	361.62
450.85	359.04
451.22	356.90
451.59	354.85
451.96	352.93
452.33	350.29
452.70	347.91
453.07	345.09
453.43	342.19
453.80	339.44
454.17	336.77
454.54	334.23
454.91	331.52
455.28	328.90
455.65	326.42
456.02	323.99
456.38	321.81
456.75	319.18
457.12	316.89
457.49	314.66
457.86	312.45
458.23	310.61
458.59	308.59
458.96	306.48
459.33	304.61
459.70	302.72
460.07	301.23
460.43	299.52
460.80	297.89
461.17	296.40
461.54	294.91
461.91	293.46
462.27	291.93
462.64	290.65
463.01	289.27
463.38	287.96
463.74	286.56
464.11	285.42
464.48	284.35
464.85	283.26
465.21	282.38
465.58	281.47
465.95	280.33
466.32	279.44
466.68	278.55
467.05	277.66
467.42	276.73
467.78	275.80
468.15	274.94
468.52	274.25
468.88	273.41
469.25	272.62
469.62	272.02
469.98	271.37
470.35	270.76
470.72	270.17
471.08	269.49
471.45	268.96
471.82	268.43
472.18	267.84
472.55	267.40
472.92	266.85
473.28	266.39
473.65	265.96
474.02	265.48
474.38	265.09
474.75	264.77
475.11	264.44
475.48	264.15
475.85	263.92
476.21	263.66
476.58	263.46
476.94	263.29
477.31	263.08
477.67	262.95
478.04	262.82
478.41	262.75
478.77	262.78
479.14	262.72
479.50	262.73
479.87	262.77
480.23	262.84
480.60	262.94
480.96	263.02
481.33	263.22
481.69	263.41
482.06	263.64
482.42	263.81
482.79	264.08
483.15	264.41
483.52	264.77
483.88	265.13
484.25	265.56
484.61	266.03
484.98	266.49
485.34	267.02
485.71	267.61
486.07	268.21
486.44	268.82
486.80	269.52
487.17	270.25
487.53	271.07
487.90	271.94
488.26	272.87
488.62	273.89
488.99	274.88
489.35	275.95
489.72	277.07
490.08	278.28
490.44	279.52
490.81	280.89
491.17	282.24
491.54	283.73
491.90	285.28
492.26	286.92
492.63	288.66
492.99	290.48
493.36	292.42
493.72	294.52
494.08	296.59
494.45	298.86
494.81	301.21
495.17	303.64
495.54	306.17
495.90	308.84
496.26	311.65
496.63	314.62
496.99	317.72
497.35	320.98
497.72	324.39
498.08	327.92
498.44	331.55
498.80	335.50
499.17	339.51
499.53	343.69
499.89	348.04
500.26	352.55
500.62	357.22
500.98	362.14
501.34	367.19
501.71	372.54
502.07	377.98
502.43	383.58
502.79	389.40
503.16	395.52
503.52	401.82
503.88	408.18
504.24	414.83
504.60	421.70
504.97	428.86
505.33	436.18
505.69	443.92
506.05	451.71
506.41	459.58
506.78	467.83
507.14	476.22
507.50	484.98
507.86	494.01
508.22	503.18
508.59	512.41
508.95	521.96
509.31	531.78
509.67	541.82
510.03	552.16
510.39	562.77
510.75	573.55
511.12	584.50
511.48	595.77
511.84	607.19
512.20	618.72
512.56	630.68
512.92	642.86
513.28	655.13
513.64	667.65
514.00	680.36
514.37	693.24
514.73	706.34
515.09	719.39
515.45	732.71
515.81	746.32
516.17	760.26
516.53	774.40
516.89	788.65
517.25	802.85
517.61	817.30
517.97	831.70
518.33	846.12
518.69	860.90
519.05	876.03
519.41	891.22
519.77	906.71
520.13	922.10
520.49	937.50
520.85	953.01
521.21	968.76
521.57	985.11
521.93	1000.88
522.29	1017.34
522.65	1033.54
523.01	1049.81
523.37	1065.92
523.73	1082.15
524.09	1098.33
524.45	1114.59
524.81	1131.23
525.17	1148.13
525.53	1165.17
525.89	1182.08
526.25	1198.91
526.61	1215.28
526.97	1232.02
527.33	1248.61
527.68	1265.26
528.04	1281.74
528.40	1298.26
528.76	1315.37
529.12	1331.96
529.48	1348.85
529.84	1364.82
530.20	1381.50
530.56	1398.62
530.91	1416.14
531.27	1432.96
531.63	1449.35
531.99	1466.03
532.35	1481.95
532.71	1497.89
533.07	1514.11
533.42	1530.05
533.78	1546.16
534.14	1562.50
534.50	1577.92
534.86	1593.81
535.21	1609.10
535.57	1625.12
535.93	1640.77
536.29	1655.54
536.65	1670.56
537.00	1685.51
537.36	1700.97
537.72	1715.55
538.08	1729.82
538.44	1743.58
538.79	1757.44
539.15	1771.30
539.51	1785.11
539.87	1799.65
540.22	1813.36
540.58	1827.23
540.94	1840.63
541.29	1853.68
541.65	1866.45
542.01	1879.76
542.37	1892.14
542.72	1904.73
543.08	1916.48
543.44	1928.89
543.79	1940.11
544.15	1951.24
544.51	1962.85
544.87	1973.88
545.22	1984.77
545.58	1995.01
545.94	2004.77
546.29	2014.85
546.65	2024.71
547.01	2033.89
547.36	2042.59
547.72	2051.12
548.07	2058.89
548.43	2067.19
548.79	2075.25
549.14	2082.83
549.50	2090.19
549.86	2097.84
550.21	2105.05
550.57	2112.36
550.92	2118.95
551.28	2126.04
551.64	2133.07
551.99	2139.51
552.35	2145.77
552.70	2151.94
553.06	2157.96
553.41	2164.29
553.77	2170.22
554.13	2176.34
554.48	2182.62
554.84	2188.00
555.19	2193.38
555.55	2198.48
555.90	2202.80
556.26	2207.40
556.61	2212.01
556.97	2216.23
557.32	2220.47
557.68	2224.49
558.03	2228.82
558.39	2232.59
558.74	2237.18
559.10	2241.11
559.45	2244.78
559.81	2248.80
560.16	2252.59
560.52	2255.85
560.87	2259.36
561.23	2261.95
561.58	2264.87
561.94	2267.27
562.29	2269.75
562.64	2272.35
563.00	2275.01
563.35	2278.53
563.71	2281.80
564.06	2285.11
564.42	2287.92
564.77	2290.37
565.12	2292.67
565.48	2294.35
565.83	2296.01
566.19	2297.24
566.54	2298.15
566.89	2299.18
567.25	2299.83
567.60	2301.15
567.96	2302.88
568.31	2303.54
568.66	2304.74
569.02	2305.27
569.37	2305.56
569.72	2306.45
570.08	2306.53
570.43	2306.55
570.78	2305.98
571.14	2304.53
571.49	2303.12
571.84	2302.67
572.20	2301.44
572.55	2300.37
572.90	2299.07
573.26	2297.77
573.61	2296.28
573.96	2294.43
574.31	2291.49
574.67	2288.44
575.02	2284.69
575.37	2281.18
575.72	2277.41
576.08	2274.02
576.43	2270.66
576.78	2266.97
577.13	2263.78
577.49	2260.77
577.84	2257.30
578.19	2253.47
578.54	2249.54
578.90	2245.21
579.25	2239.86
579.60	2234.93
579.95	2229.87
580.30	2224.72
580.66	2219.69
581.01	2214.61
581.36	2209.58
581.71	2205.42
582.06	2200.99
582.42	2196.53
582.77	2191.20
583.12	2186.62
583.47	2181.71
583.82	2176.66
584.17	2171.28
584.53	2165.61
584.88	2159.74
585.23	2153.86
585.58	2148.34
585.93	2142.94
586.28	2138.18
586.63	2132.97
586.98	2127.73
587.34	2122.93
587.69	2117.94
588.04	2112.49
588.39	2106.74
588.74	2100.37
589.09	2094.02
589.44	2087.16
589.79	2081.15
590.14	2075.61
590.49	2068.98
590.84	2062.60
591.19	2056.44
591.54	2049.96
591.89	2042.50
592.25	2035.69
592.60	2028.44
592.95	2020.60
593.30	2013.35
593.65	2005.67
594.00	1998.59
594.35	1991.48
594.70	1983.34
595.05	1975.85
595.40	1968.41
595.75	1960.85
596.10	1954.44
596.45	1947.58
596.80	1941.30
597.15	1934.58
597.50	1927.39
597.85	1920.88
598.19	1914.13
598.54	1906.98
598.89	1900.32
599.24	1894.41
599.59	1887.68
599.94	1881.41
600.29	1875.19
600.64	1868.48
600.99	1861.00
601.34	1854.07
601.69	1846.97
602.04	1840.15
602.39	1832.95
602.74	1826.15
603.08	1819.45
603.43	1812.69
603.78	1805.55
604.13	1798.44
604.48	1791.02
604.83	1784.01
605.18	1777.03
605.53	1769.02
605.87	1760.96
606.22	1753.84
606.57	1745.96
606.92	1738.59
607.27	1731.33
607.62	1724.54
607.96	1717.11
608.31	1710.54
608.66	1702.92
609.01	1695.39
609.36	1687.83
609.70	1679.71
610.05	1671.59
610.40	1663.82
610.75	1655.47
611.10	1647.77
611.44	1639.23
611.79	1631.23
612.14	1622.64
612.49	1613.47
612.83	1605.12
613.18	1597.19
613.53	1588.98
613.88	1580.35
614.22	1571.96
614.57	1563.46
614.92	1555.25
615.27	1547.73
615.61	1539.36
615.96	1531.31
616.31	1523.65
616.65	1516.28
617.00	1508.84
617.35	1501.23
617.70	1492.90
618.04	1484.41
618.39	1476.17
618.74	1468.60
619.08	1460.38
619.43	1452.73
619.78	1445.69
620.12	1438.52
620.47	1430.77
620.82	1422.64
621.16	1415.29
621.51	1407.91
621.85	1400.31
622.20	1391.80
622.55	1383.39
622.89	1375.49
623.24	1367.95
623.59	1360.52
623.93	1352.93
624.28	1345.67
624.62	1338.12
624.97	1330.94
625.32	1324.19
625.66	1317.19
626.01	1310.02
626.35	1302.59
626.70	1294.92
627.04	1287.14
627.39	1279.31
627.73	1271.98
628.08	1265.03
628.43	1257.70
628.77	1250.19
629.12	1242.57
629.46	1235.44
629.81	1228.19
630.15	1220.95
630.50	1213.52
630.84	1205.29
631.19	1197.43
631.53	1189.90
631.88	1182.23
632.22	1174.58
632.57	1167.25
632.91	1159.77
633.26	1152.33
633.60	1144.96
633.95	1137.82
634.29	1131.01
634.64	1124.34
634.98	1116.98
635.32	1109.86
635.67	1103.31
636.01	1096.68
636.36	1089.88
636.70	1083.40
637.05	1076.78
637.39	1070.42
637.73	1063.88
638.08	1058.08
638.42	1052.10
638.77	1045.55
639.11	1038.98
639.45	1032.59
639.80	1025.96
640.14	1019.42
640.49	1012.86
640.83	1006.62
641.17	1000.31
641.52	993.92
641.86	987.48
642.20	981.61
642.55	975.26
642.89	968.68
643.23	962.17
643.58	956.47
643.92	950.18
644.26	944.06
644.61	937.96
644.95	931.90
645.29	925.24
645.64	918.52
645.98	912.27
646.32	906.52
646.66	900.51
647.01	894.70
647.35	889.00
647.69	883.17
648.04	877.53
648.38	871.80
648.72	865.73
649.06	859.63
649.41	853.81
649.75	847.78
650.09	841.90
650.43	836.02
650.78	829.83
651.12	823.94
651.46	818.21
651.80	812.44
652.14	807.07
652.49	801.70
652.83	796.46
653.17	790.76
653.51	785.04
653.85	779.65
654.20	773.98
654.54	768.00
654.88	762.30
655.22	756.48
655.56	750.88
655.90	745.45
656.25	740.23
656.59	734.78
656.93	729.80
657.27	724.57
657.61	719.19
657.95	714.02
658.29	708.92
658.64	703.66
658.98	698.32
659.32	692.82
659.66	687.66
660.00	682.31
660.34	677.37
660.68	672.42
661.02	667.40
661.36	662.68
661.70	658.17
662.05	653.79
662.39	649.41
662.73	644.86
663.07	640.47
663.41	636.05
663.75	631.62
664.09	627.05
664.43	622.64
664.77	618.48
665.11	614.28
665.45	610.19
665.79	606.13
666.13	602.08
666.47	598.01
666.81	593.82
667.15	589.79
667.49	585.87
667.83	582.11
668.17	578.17
668.51	574.06
668.85	569.98
669.19	566.14
669.53	562.28
669.87	558.45
670.21	554.76
670.55	551.12
670.89	547.67
671.23	544.21
671.57	540.73
671.91	537.23
672.25	533.72
672.58	530.13
672.92	526.75
673.26	523.61
673.60	520.51
673.94	517.38
674.28	514.48
674.62	511.60
674.96	508.50
675.30	505.56
675.64	502.63
675.97	499.93
676.31	497.07
676.65	494.15
676.99	491.42
677.33	488.63
677.67	485.83
678.01	482.80
678.34	479.81
678.68	476.94
679.02	474.14
679.36	471.40
679.70	468.74
680.04	465.96
680.37	463.04
680.71	460.22
681.05	457.65
681.39	454.88
681.73	452.20
682.06	449.63
682.40	447.07
682.74	444.60
683.08	442.07
683.42	439.48
683.75	437.00
684.09	434.46
684.43	431.94
684.77	429.46
685.10	427.16
685.44	424.89
685.78	422.64
686.12	420.40
686.45	418.08
686.79	415.80
687.13	413.63
687.46	411.45
687.80	409.33
688.14	407.09
688.48	405.04
688.81	402.82
689.15	400.67
689.49	398.59
689.82	396.53
690.16	394.41
690.50	392.47
690.83	390.53
691.17	388.60
691.51	386.73
691.84	384.88
692.18	382.89
692.52	380.87
692.85	378.92
693.19	377.04
693.52	375.29
693.86	373.44
694.20	371.63
694.53	369.85
694.87	367.99
695.21	366.22
695.54	364.36
695.88	362.61
696.21	360.95
696.55	359.27
696.88	357.57
697.22	355.93
697.56	354.26
697.89	352.60
698.23	350.97
698.56	349.32
698.90	347.71
699.23	346.08
699.57	344.55
699.90	343.04
700.24	341.50
700.58	339.93
700.91	338.44
701.25	337.01
701.58	335.65
701.92	334.31
702.25	332.93
702.59	331.60
702.92	330.29
703.26	329.00
703.59	327.65
703.93	326.48
704.26	325.25
704.60	323.95
704.93	322.67
705.26	321.40
705.60	320.24
705.93	319.09
706.27	318.05
706.60	316.99
706.94	315.91
707.27	314.81
707.61	313.79
707.94	312.80
708.27	311.70
708.61	310.65
708.94	309.62
709.28	308.68
709.61	307.69
709.94	306.75
710.28	305.68
710.61	304.76
710.95	303.71
711.28	302.79
711.61	301.85
711.95	300.95
712.28	300.01
712.61	299.05
712.95	298.11
713.28	297.23
713.61	296.32
713.95	295.37
714.28	294.49
714.61	293.56
714.95	292.68
715.28	291.81
715.61	290.91
715.95	290.06
716.28	289.18
716.61	288.37
716.95	287.51
717.28	286.80
717.61	286.01
717.94	285.22
718.28	284.41
718.61	283.66
718.94	282.99
719.27	282.33
719.61	281.70
719.94	281.06
720.27	280.36
720.60	279.73
720.94	279.11
721.27	278.51
721.60	277.94
721.93	277.34
722.27	276.81
722.60	276.27
722.93	275.69
723.26	275.17
723.59	274.61
723.93	274.10
724.26	273.53
724.59	272.99
724.92	272.51
725.25	272.02
725.59	271.50
725.92	271.00
726.25	270.51
726.58	270.03
726.91	269.54
727.24	269.07
727.57	268.58
727.91	268.07
728.24	267.61
728.57	267.16
728.90	266.73
729.23	266.25
729.56	265.79
729.89	265.34
730.22	264.88
730.55	264.44
730.89	264.00
731.22	263.54
731.55	263.11
731.88	262.68
732.21	262.28
732.54	261.87
732.87	261.40
733.20	260.96
733.53	260.58
733.86	260.23
734.19	259.79
734.52	259.47
734.85	259.23
735.18	258.83
735.51	258.46
735.84	258.07
736.17	257.69
736.50	257.33
736.83	257.08
737.16	256.73
737.49	256.38
737.82	256.05
738.15	255.70
738.48	255.39
738.81	255.08
739.14	254.73
739.47	254.44
739.80	254.16
740.13	253.90
740.46	253.56
740.79	253.21
741.12	252.95
741.45	252.61
741.78	252.22
742.11	251.93
742.44	251.62
742.77	251.35
743.10	251.07
743.43	250.77
743.75	250.40
744.08	250.23
744.41	249.96
744.74	249.68
745.07	249.40
745.40	249.14
745.73	248.91
746.06	248.63
746.39	248.36
746.71	248.10
747.04	247.76
747.37	247.52
747.70	247.28
748.03	247.02
748.36	246.77
748.68	246.52
749.01	246.27
749.34	246.01
749.67	245.79
750.00	245.60
750.33	245.46
750.65	245.22
750.98	244.93
751.31	244.69
751.64	244.48
751.97	244.33
752.29	244.10
752.62	243.87
752.95	243.66
753.28	243.42
753.60	243.20
753.93	243.06
754.26	242.84
754.59	242.63
754.91	242.41
755.24	242.24
755.57	242.07
755.90	241.87
756.22	241.70
756.55	241.49
756.88	241.29
757.20	241.02
757.53	240.88
757.86	240.66
758.19	240.54
758.51	240.39
758.84	240.21
759.17	240.04
759.49	239.85
759.82	239.74
760.15	239.62
760.47	239.52
760.80	239.38
761.13	239.25
761.45	239.11
761.78	238.97
762.11	238.82
762.43	238.67
762.76	238.55
763.08	238.43
763.41	238.30
763.74	238.16
764.06	238.03
764.39	237.87
764.71	237.76
765.04	237.62
765.37	237.45
765.69	237.29
766.02	237.15
766.34	237.00
766.67	236.86
767.00	236.78
767.32	236.66
767.65	236.59
767.97	236.48
768.30	236.39
768.62	236.24
768.95	236.09
769.27	235.97
769.60	235.89
769.92	235.76
770.25	235.64
770.57	235.51
770.90	235.39
771.22	235.30
771.55	235.16
771.87	235.05
772.20	234.93
772.52	234.90
772.85	234.90
773.17	234.83
773.50	234.70
773.82	234.55
774.15	234.41
774.47	234.22
774.80	234.10
775.12	234.00
775.45	233.93
775.77	233.87
776.09	233.82
776.42	233.70
776.74	233.65
777.07	233.56
777.39	233.46
777.72	233.41
778.04	233.31
778.36	233.25
778.69	233.21
779.01	233.16
779.33	233.01
779.66	232.85
779.98	232.79
780.31	232.76
780.63	232.72
780.95	232.70
781.28	232.65
781.60	232.62
781.92	232.55
782.25	232.52
782.57	232.47
782.89	232.38
783.22	232.33
783.54	232.24
783.86	232.19
784.19	232.18
784.51	232.12
784.83	232.08
785.16	232.03
785.48	231.98
785.80	231.92
786.12	231.89
786.45	231.83
786.77	231.80
787.09	231.73
787.42	231.67
787.74	231.60
788.06	231.54
788.38	231.46
788.71	231.42
789.03	231.38
789.35	231.33
789.67	231.28
789.99	231.23
790.32	231.17
790.64	231.18
790.96	231.19
791.28	231.16
791.61	231.06
791.93	231.02
792.25	230.98
792.57	231.06
792.89	230.99
793.21	230.98
793.54	230.90
793.86	230.85
794.18	230.81
794.50	230.77
794.82	230.75
795.14	230.74
795.47	230.71
795.79	230.66
796.11	230.60
796.43	230.60
796.75	230.57
797.07	230.57
797.39	230.50
797.71	230.41
798.04	230.35
798.36	230.36
798.68	230.31
799.00	230.24
799.32	230.14
799.64	230.16
799.96	230.11
800.28	230.11
800.60	230.09
800.92	230.05
801.24	230.00
801.56	229.96
801.89	229.92
802.21	229.89
802.53	229.85
802.85	229.87
803.17	229.88
803.49	229.85
803.81	229.80
804.13	229.79
804.45	229.76
804.77	229.75
805.09	229.69
805.41	229.68
805.73	229.68
806.05	229.65
806.37	229.60
806.69	229.57
807.01	229.55
807.33	229.54
807.65	229.53
807.97	229.59
808.28	229.54
808.60	229.55
808.92	229.51
809.24	229.55
809.56	229.46
809.88	229.35
810.20	229.34
810.52	229.33
810.84	229.26
811.16	229.19
811.48	229.17
811.80	229.18
812.12	229.15
812.43	229.11
812.75	229.06
813.07	229.04
813.39	229.03
813.71	228.97
814.03	228.89
814.35	228.87
814.67	228.77
814.98	228.78
815.30	228.74
815.62	228.70
815.94	228.62
816.26	228.63
816.58	228.60
816.89	228.57
817.21	228.48
817.53	228.48
817.85	228.51
818.17	228.48
818.48	228.45
818.80	228.44
819.12	228.44
819.44	228.43
819.76	228.40
820.07	228.40
820.39	228.41
820.71	228.43
821.03	228.39
821.34	228.36
821.66	228.36
821.98	228.34
822.30	228.32
822.61	228.34
822.93	228.33
823.25	228.33
823.57	228.31
823.88	228.36
824.20	228.36
824.52	228.32
824.83	228.29
825.15	228.27
825.47	228.23
825.79	228.23
826.10	228.23
826.42	228.20
826.74	228.17
827.05	228.14
827.37	228.15
827.69	228.15
828.00	228.17
828.32	228.16
828.64	228.16
828.95	228.21
829.27	228.19
829.58	228.18
829.90	228.21
830.22	228.24
830.53	228.20
830.85	228.17
831.17	228.17
831.48	228.18
831.80	228.18
832.11	228.19
832.43	228.16
832.75	228.13
833.06	228.20
833.38	228.16
833.69	228.14
834.01	228.14
834.32	228.11
834.64	228.11
834.96	228.10
835.27	228.07
835.59	228.01
835.90	228.02
836.22	228.02
836.53	228.01
836.85	227.96
837.16	228.06
837.48	228.07
837.79	228.13
838.11	228.12
838.42	228.13
838.74	228.10
839.05	228.10
839.37	228.08
839.68	227.99
840.00	228.02
840.31	228.07
840.63	228.03
840.94	228.02
841.26	228.00
841.57	227.97
841.88	227.99
842.20	228.00
842.51	227.96
842.83	227.93
843.14	227.99
843.46	228.00
843.77	227.96
844.08	227.89
844.40	227.81
844.71	227.83
845.03	227.80
845.34	227.81
845.65	227.77
845.97	227.78
846.28	227.76
846.60	227.74
846.91	227.67
847.22	227.69
847.54	227.71
847.85	227.70
848.16	227.69
848.48	227.67
848.79	227.69
849.10	227.69
849.42	227.69
849.73	227.58
850.04	227.56
850.36	227.51
850.67	227.56
850.98	227.55
851.30	227.54
851.61	227.52
851.92	227.51
852.23	227.58
852.55	227.60
852.86	227.60
853.17	227.58
853.49	227.60
853.80	227.58
854.11	227.55
854.42	227.53
854.74	227.51
855.05	227.52
855.36	227.47
855.67	227.47
855.99	227.46
856.30	227.55
856.61	227.55
856.92	227.54
857.23	227.52
857.55	227.49
857.86	227.45
858.17	227.48
858.48	227.48
858.79	227.41
859.11	227.39
859.42	227.40
859.73	227.40
860.04	227.41
860.35	227.38
860.66	227.37
860.98	227.35
861.29	227.36
861.60	227.34
861.91	227.35
862.22	227.33
862.53	227.31
862.84	227.23
863.16	227.21
863.47	227.18
863.78	227.17
864.09	227.21
864.40	227.23
864.71	227.22
865.02	227.20
865.33	227.18
865.64	227.17
865.95	227.16
866.27	227.22
866.58	227.21
866.89	227.22
867.20	227.22
867.51	227.21
867.82	227.21
868.13	227.23
868.44	227.19
868.75	227.19
869.06	227.20
869.37	227.19
869.68	227.21
869.99	227.22
870.30	227.24
870.61	227.25
870.92	227.22
871.23	227.23
871.54	227.27
871.85	227.30
872.16	227.33
872.47	227.34
872.78	227.29
873.09	227.28
873.40	227.30
873.71	227.30
874.02	227.33
874.33	227.31
874.64	227.28
874.95	227.32
875.26	227.33
875.56	227.34
875.87	227.36
876.18	227.35
876.49	227.45
876.80	227.45
877.11	227.45
877.42	227.45
877.73	227.44
878.04	227.44
878.35	227.44
878.66	227.40
878.96	227.41
879.27	227.39
879.58	227.39
879.89	227.36
880.20	227.39
880.51	227.37
880.82	227.37
881.12	227.39
881.43	227.37
881.74	227.34
882.05	227.35
882.36	227.36
882.67	227.36
882.97	227.27
883.28	227.24
883.59	227.22
883.90	227.20
884.21	227.22
884.51	227.17
884.82	227.15
885.13	227.16
885.44	227.16
885.74	227.17
886.05	227.17
886.36	227.16
886.67	227.13
886.98	227.19
887.28	227.21
887.59	227.22
887.90	227.24
888.20	227.24
888.51	227.25
888.82	227.23
889.13	227.22
889.43	227.28
889.74	227.31
890.05	227.33
890.35	227.38
890.66	227.37
890.97	227.39
891.28	227.36
891.58	227.35
891.89	227.36
892.20	227.35
892.50	227.33
892.81	227.33
893.12	227.35
893.42	227.28
893.73	227.27
894.04	227.25
894.34	227.25
894.65	227.21
894.95	227.19
895.26	227.17
895.57	227.23
895.87	227.14
896.18	227.15
896.48	227.13
896.79	227.11
897.10	227.11
897.40	227.10
897.71	227.11
898.01	227.11
898.32	227.10
898.63	227.10
898.93	227.11
899.24	227.13
899.54	227.10
899.85	227.12
900.15	227.14
900.46	227.09
900.76	227.08
901.07	227.12
901.38	227.10
901.68	227.15
901.99	227.10
902.29	227.11
902.60	227.10
902.90	227.08
903.21	227.07
903.51	227.08
903.82	227.10
904.12	227.12
904.43	227.13
904.73	227.14
905.03	227.13
905.34	227.23
905.64	227.23
905.95	227.25
906.25	227.25
906.56	227.22
906.86	227.26
907.17	227.24
907.47	227.26
907.77	227.22
908.08	227.16
908.38	227.15
908.69	227.17
908.99	227.15
909.30	227.12
909.60	227.09
909.90	227.08
910.21	227.04
910.51	227.02
910.81	227.01
911.12	227.00
911.42	227.00
911.73	226.89
912.03	226.89
912.33	226.89
912.64	226.89
912.94	226.86
913.24	226.83
913.55	226.84
913.85	226.84
914.15	226.85
914.46	226.87
914.76	226.87
915.06	226.86
915.37	226.85
915.67	226.87
915.97	226.89
916.27	226.85
916.58	226.86
916.88	226.88
917.18	226.89
917.49	226.94
917.79	226.96
918.09	226.95
918.39	226.96
918.70	226.95
919.00	226.95
919.30	227.05
919.60	227.07
919.91	227.07
920.21	227.07
920.51	227.05
920.81	227.04
921.12	227.05
921.42	227.07
921.72	227.10
922.02	227.12
922.32	227.16
922.63	227.18
922.93	227.24
923.23	227.23
923.53	227.23
923.83	227.17
924.13	227.19
924.44	227.19
924.74	227.24
925.04	227.25
925.34	227.24
925.64	227.19
925.94	227.20
926.24	227.24
926.55	227.21
926.85	227.27
927.15	227.26
927.45	227.27
927.75	227.26
928.05	227.26
928.35	227.25
928.65	227.25
928.95	227.25
929.26	227.22
929.56	227.25
929.86	227.24
930.16	227.24
930.46	227.21
930.76	227.25
931.06	227.21
931.36	227.18
931.66	227.20
931.96	227.18
932.26	227.17
932.56	227.15
932.86	227.18
933.16	227.15
933.46	227.19
933.76	227.16
934.06	227.17
934.36	227.18
934.66	227.16
934.96	227.14
935.26	227.15
935.56	227.15
935.86	227.12
936.16	227.11
936.46	227.09
936.76	227.07
937.06	227.01
937.36	227.00
937.66	227.00
937.96	226.99
938.26	226.97
938.56	226.97
938.86	226.95
939.16	226.92
939.46	226.92
939.76	226.89
940.06	226.88
940.35	226.85
940.65	226.84
940.95	226.82
941.25	226.80
941.55	226.78
941.85	226.78
942.15	226.80
942.45	226.81
942.75	226.83
943.04	226.85
943.34	226.87
943.64	226.86
943.94	226.83
944.24	226.81
944.54	226.84
944.84	226.83
945.13	226.83
945.43	226.84
945.73	226.84
946.03	226.82
946.33	226.79
946.62	226.80
946.92	226.77
947.22	226.80
947.52	226.77
947.82	226.78
948.11	226.75
948.41	226.71
948.71	226.70
949.01	226.69
949.31	226.68
949.60	226.65
949.90	226.65
950.20	226.68
950.50	226.67
950.79	226.65
951.09	226.70
951.39	226.69
951.69	226.68
951.98	226.71
952.28	226.73
952.58	226.75
952.87	226.76
953.17	226.75
953.47	226.73
953.76	226.74
954.06	226.74
954.36	226.75
954.66	226.75
954.95	226.76
955.25	226.78
955.55	226.78
955.84	226.80
956.14	226.78
956.44	226.79
956.73	226.81
957.03	226.82
957.32	226.78
957.62	226.79
957.92	226.79
958.21	226.78
958.51	226.89
958.81	226.90
959.10	226.90
959.40	226.94
959.69	226.96
959.99	226.98
960.29	226.97
960.58	226.95
960.88	226.98
961.17	226.97
961.47	227.00
961.76	226.98
962.06	226.99
962.36	226.99
962.65	226.98
962.95	226.98
963.24	226.97
963.54	226.99
963.83	226.97
964.13	226.95
964.42	226.92
964.72	226.84
965.01	226.84
965.31	226.82
965.60	226.80
965.90	226.84
966.19	226.82
966.49	226.83
966.78	226.80
967.08	226.82
967.37	226.84
967.67	226.82
967.96	226.86
968.26	226.85
968.55	226.88
968.85	226.87
969.14	226.84
969.43	226.84
969.73	226.83
970.02	226.84
970.32	226.87
970.61	226.88
970.91	226.83
971.20	226.83
971.49	226.83
971.79	226.83
972.08	226.77
972.38	226.77
972.67	226.77
972.96	226.82
973.26	226.78
973.55	226.78
973.85	226.76
974.14	226.74
974.43	226.78
974.73	226.76
975.02	226.77
975.31	226.80
975.61	226.80
975.90	226.79
976.19	226.78
976.49	226.79
976.78	226.79
977.07	226.81
977.37	226.80
977.66	226.83
977.95	226.83
978.24	226.84
978.54	226.87
978.83	226.87
979.12	226.87
979.42	226.87
979.71	226.87
980.00	226.87
980.29	226.85
980.59	226.75
980.88	226.79
981.17	226.78
981.46	226.79
981.76	226.80
982.05	226.82
982.34	226.83
982.63	226.84
982.93	226.82
983.22	226.83
983.51	226.83
983.80	226.85
984.09	226.89
984.39	226.89
984.68	226.84
984.97	226.83
985.26	226.80
985.55	226.79
985.85	226.77
986.14	226.80
986.43	226.85
986.72	226.85
987.01	226.80
987.30	226.82
987.59	226.80
987.89	226.77
988.18	226.73
988.47	226.72
988.76	226.69
989.05	226.68
989.34	226.64
989.63	226.63
989.92	226.59
990.22	226.55
990.51	226.55
990.80	226.55
991.09	226.57
991.38	226.61
991.67	226.58
991.96	226.56
992.25	226.52
992.54	226.47
992.83	226.47
993.12	226.46
993.41	226.44
993.70	226.45
993.99	226.49
994.28	226.47
994.58	226.51
994.87	226.50
995.16	226.48
995.45	226.51
995.74	226.51
996.03	226.55
996.32	226.57
996.61	226.60
996.90	226.61
997.19	226.62
997.48	226.62
997.77	226.62
998.06	226.62
998.34	226.62
998.63	226.62
998.92	226.64
999.21	226.67
999.50	226.70
999.79	226.68
1000.08	226.68
1000.37	226.70
1000.66	226.67
1000.95	226.70
1001.24	226.75
1001.53	226.73
1001.82	226.72
1002.11	226.69
1002.40	226.66
1002.68	226.66
1002.97	226.73
1003.26	226.68
1003.55	226.64
1003.84	226.65
1004.13	226.69
1004.42	226.70
1004.71	226.71
1004.99	226.67
1005.28	226.69
1005.57	226.69
1005.86	226.67
1006.15	226.66
1006.44	226.66
1006.72	226.69
1007.01	226.65
1007.30	226.66
1007.59	226.65
1007.88	226.67
1008.17	226.65
1008.45	226.70
1008.74	226.69
1009.03	226.64
1009.32	226.63
1009.60	226.63
1009.89	226.66
1010.18	226.61
1010.47	226.63
1010.76	226.62
1011.04	226.64
1011.33	226.71
1011.62	226.71
1011.91	226.75
1012.19	226.76
1012.48	226.77
1012.77	226.73
1013.05	226.79
1013.34	226.74
1013.63	226.78
1013.92	226.79
1014.20	226.81
1014.49	226.76
1014.78	226.75
1015.06	226.72
1015.35	226.72
1015.64	226.77
1015.92	226.76
1016.21	226.76
1016.50	226.77
1016.78	226.81
1017.07	226.82
1017.36	226.73
1017.64	226.73
1017.93	226.72
1018.22	226.71
1018.50	226.71
1018.79	226.74
1019.08	226.67
1019.36	226.72
1019.65	226.67
1019.93	226.69
1020.22	226.69
1020.51	226.75
1020.79	226.73
1021.08	226.71
1021.36	226.70
1021.65	226.91
1021.94	226.40
1022.22	226.75
1022.51	226.28
1022.79	227.04
1023.08	226.76
1023.36	227.84
1023.65	226.20
>>>>>End Processed Spectral Data<<<<<
