SpectraSuite Data File
++++++++++++++++++++++++++++++++++++
Date: Fri Feb 01 16:24:02 EST 2013
User: group
Dark Spectrum Present: No
Reference Spectrum Present: No
Number of Sampled Component Spectra: 1
Spectrometers: USB2E7196
Integration Time (usec): 35000 (USB2E7196)
Spectra Averaged: 100 (USB2E7196)
Boxcar Smoothing: 10 (USB2E7196)
Correct for Electrical Dark: No (USB2E7196)
Strobe/Lamp Enabled: No (USB2E7196)
Correct for Detector Non-linearity: No (USB2E7196)
Correct for Stray Light: No (USB2E7196)
Number of Pixels in Processed Spectrum: 2048
>>>>>Begin Processed Spectral Data<<<<<
339.09	0.00
339.48	214.39
339.86	215.70
340.24	216.52
340.63	218.19
341.01	221.06
341.39	220.26
341.78	222.46
342.16	223.31
342.54	224.19
342.93	212.41
343.31	223.17
343.69	223.68
344.07	224.16
344.46	224.59
344.84	224.99
345.22	225.21
345.60	225.48
345.99	225.65
346.37	225.77
346.75	225.86
347.13	225.93
347.52	225.97
347.90	226.03
348.28	226.08
348.66	226.11
349.05	226.11
349.43	226.12
349.81	226.15
350.19	226.20
350.57	226.29
350.96	226.33
351.34	226.36
351.72	226.44
352.10	226.50
352.48	226.58
352.87	226.61
353.25	226.70
353.63	226.78
354.01	226.86
354.39	226.93
354.77	227.01
355.15	227.10
355.54	227.18
355.92	227.24
356.30	227.33
356.68	227.46
357.06	227.52
357.44	227.61
357.82	227.67
358.20	227.77
358.58	227.81
358.97	227.88
359.35	227.97
359.73	228.11
360.11	228.18
360.49	228.21
360.87	228.25
361.25	228.30
361.63	228.36
362.01	228.36
362.39	228.41
362.77	228.45
363.15	228.49
363.53	228.53
363.91	228.55
364.29	228.59
364.67	228.51
365.05	228.54
365.43	228.54
365.81	228.55
366.19	228.56
366.57	228.60
366.95	228.60
367.33	228.57
367.71	228.52
368.09	228.53
368.47	228.56
368.85	228.57
369.23	228.57
369.61	228.51
369.99	228.56
370.37	228.55
370.75	228.55
371.13	228.53
371.51	228.48
371.89	228.46
372.27	228.39
372.65	228.38
373.03	228.33
373.41	228.28
373.78	228.20
374.16	228.12
374.54	228.03
374.92	227.99
375.30	227.94
375.68	227.88
376.06	227.82
376.44	227.77
376.82	227.71
377.19	227.66
377.57	227.57
377.95	227.50
378.33	227.42
378.71	227.26
379.09	227.20
379.47	227.15
379.84	227.02
380.22	226.95
380.60	226.86
380.98	226.79
381.36	226.74
381.73	226.69
382.11	226.60
382.49	226.56
382.87	226.45
383.25	226.41
383.62	226.46
384.00	226.40
384.38	226.30
384.76	226.26
385.13	226.22
385.51	226.21
385.89	226.14
386.27	226.08
386.64	226.10
387.02	226.01
387.40	225.94
387.78	225.94
388.15	225.92
388.53	225.88
388.91	225.83
389.29	225.77
389.66	225.73
390.04	225.73
390.42	225.70
390.79	225.72
391.17	225.67
391.55	225.53
391.92	225.52
392.30	225.51
392.68	225.49
393.05	225.47
393.43	225.44
393.81	225.45
394.18	225.47
394.56	225.45
394.94	225.51
395.31	225.50
395.69	225.53
396.06	225.55
396.44	225.60
396.82	225.64
397.19	225.76
397.57	225.79
397.95	225.85
398.32	225.88
398.70	225.88
399.07	225.95
399.45	226.00
399.82	226.02
400.20	226.10
400.58	226.12
400.95	226.15
401.33	226.23
401.70	226.35
402.08	226.42
402.45	226.54
402.83	226.65
403.20	226.76
403.58	226.85
403.95	227.01
404.33	227.12
404.71	227.25
405.08	227.40
405.46	227.52
405.83	227.64
406.21	227.77
406.58	227.97
406.96	228.13
407.33	228.32
407.70	228.53
408.08	228.77
408.45	229.01
408.83	229.25
409.20	229.47
409.58	229.67
409.95	229.94
410.33	230.15
410.70	230.39
411.08	230.68
411.45	231.01
411.82	231.24
412.20	231.59
412.57	232.00
412.95	232.29
413.32	232.69
413.69	233.12
414.07	233.61
414.44	234.08
414.82	234.56
415.19	235.11
415.56	235.65
415.94	236.20
416.31	236.86
416.68	237.49
417.06	238.21
417.43	238.87
417.81	239.68
418.18	240.51
418.55	241.34
418.93	242.23
419.30	243.08
419.67	244.01
420.04	244.97
420.42	245.98
420.79	247.15
421.16	248.33
421.54	249.50
421.91	250.70
422.28	251.92
422.66	253.27
423.03	254.60
423.40	255.96
423.77	257.38
424.15	258.78
424.52	260.29
424.89	261.92
425.26	263.50
425.64	264.92
426.01	266.54
426.38	268.20
426.75	269.84
427.13	271.62
427.50	273.46
427.87	275.35
428.24	277.19
428.61	278.92
428.99	280.85
429.36	282.96
429.73	285.01
430.10	287.02
430.47	289.06
430.85	291.14
431.22	293.32
431.59	295.70
431.96	297.93
432.33	300.41
432.70	302.74
433.08	305.49
433.45	308.13
433.82	310.68
434.19	313.55
434.56	316.36
434.93	319.01
435.30	321.61
435.68	324.47
436.05	327.30
436.42	330.10
436.79	332.58
437.16	335.25
437.53	338.07
437.90	340.90
438.27	343.61
438.64	346.43
439.01	349.02
439.38	351.24
439.75	353.38
440.13	355.83
440.50	358.14
440.87	360.01
441.24	361.91
441.61	364.07
441.98	365.55
442.35	367.34
442.72	369.13
443.09	370.94
443.46	371.89
443.83	372.50
444.20	372.98
444.57	373.82
444.94	374.11
445.31	374.43
445.68	374.75
446.05	374.88
446.42	374.47
446.79	374.05
447.16	373.61
447.53	373.33
447.90	372.16
448.27	371.04
448.64	369.44
449.01	368.30
449.37	366.31
449.74	364.45
450.11	362.21
450.48	359.74
450.85	357.17
451.22	355.13
451.59	353.12
451.96	351.22
452.33	348.68
452.70	346.34
453.07	343.54
453.43	340.69
453.80	337.88
454.17	335.21
454.54	332.66
454.91	329.92
455.28	327.25
455.65	324.79
456.02	322.35
456.38	320.18
456.75	317.53
457.12	315.30
457.49	313.07
457.86	310.92
458.23	309.13
458.59	307.13
458.96	305.00
459.33	303.12
459.70	301.23
460.07	299.67
460.43	297.94
460.80	296.33
461.17	294.85
461.54	293.36
461.91	291.94
462.27	290.49
462.64	289.26
463.01	287.92
463.38	286.66
463.74	285.29
464.11	284.18
464.48	283.19
464.85	282.08
465.21	281.25
465.58	280.35
465.95	279.25
466.32	278.30
466.68	277.39
467.05	276.49
467.42	275.61
467.78	274.71
468.15	273.86
468.52	273.20
468.88	272.39
469.25	271.64
469.62	271.06
469.98	270.42
470.35	269.81
470.72	269.20
471.08	268.56
471.45	268.03
471.82	267.52
472.18	266.89
472.55	266.49
472.92	265.94
473.28	265.49
473.65	265.10
474.02	264.70
474.38	264.38
474.75	264.10
475.11	263.78
475.48	263.56
475.85	263.36
476.21	263.13
476.58	262.94
476.94	262.83
477.31	262.66
477.67	262.55
478.04	262.45
478.41	262.39
478.77	262.43
479.14	262.37
479.50	262.38
479.87	262.49
480.23	262.59
480.60	262.68
480.96	262.74
481.33	262.92
481.69	263.15
482.06	263.37
482.42	263.56
482.79	263.83
483.15	264.16
483.52	264.50
483.88	264.86
484.25	265.30
484.61	265.73
484.98	266.20
485.34	266.73
485.71	267.34
486.07	267.97
486.44	268.55
486.80	269.26
487.17	269.96
487.53	270.73
487.90	271.58
488.26	272.53
488.62	273.54
488.99	274.48
489.35	275.50
489.72	276.61
490.08	277.82
490.44	279.07
490.81	280.36
491.17	281.71
491.54	283.19
491.90	284.67
492.26	286.35
492.63	288.08
492.99	289.86
493.36	291.69
493.72	293.73
494.08	295.82
494.45	298.07
494.81	300.51
495.17	302.99
495.54	305.55
495.90	308.22
496.26	311.03
496.63	314.01
496.99	317.11
497.35	320.38
497.72	323.80
498.08	327.28
498.44	330.98
498.80	334.91
499.17	338.99
499.53	343.23
499.89	347.55
500.26	352.05
500.62	356.69
500.98	361.75
501.34	366.82
501.71	372.19
502.07	377.65
502.43	383.24
502.79	389.03
503.16	395.11
503.52	401.35
503.88	407.76
504.24	414.41
504.60	421.34
504.97	428.49
505.33	435.80
505.69	443.58
506.05	451.38
506.41	459.22
506.78	467.36
507.14	475.81
507.50	484.49
507.86	493.55
508.22	502.82
508.59	512.00
508.95	521.52
509.31	531.28
509.67	541.39
510.03	551.76
510.39	562.32
510.75	573.13
511.12	584.09
511.48	595.40
511.84	606.91
512.20	618.42
512.56	630.33
512.92	642.51
513.28	654.83
513.64	667.24
514.00	680.06
514.37	692.97
514.73	706.00
515.09	719.11
515.45	732.40
515.81	745.92
516.17	759.85
516.53	774.00
516.89	788.19
517.25	802.27
517.61	816.62
517.97	831.13
518.33	845.53
518.69	860.31
519.05	875.30
519.41	890.38
519.77	905.98
520.13	921.40
520.49	936.65
520.85	951.98
521.21	967.71
521.57	983.91
521.93	999.72
522.29	1016.15
522.65	1032.32
523.01	1048.44
523.37	1064.51
523.73	1080.65
524.09	1096.70
524.45	1112.98
524.81	1129.57
525.17	1146.33
525.53	1163.16
525.89	1180.01
526.25	1196.78
526.61	1213.02
526.97	1229.73
527.33	1245.93
527.68	1262.44
528.04	1278.92
528.40	1295.43
528.76	1312.33
529.12	1328.72
529.48	1345.50
529.84	1361.32
530.20	1377.87
530.56	1394.70
530.91	1411.95
531.27	1428.55
531.63	1444.92
531.99	1461.37
532.35	1477.22
532.71	1492.93
533.07	1509.08
533.42	1524.91
533.78	1540.79
534.14	1557.03
534.50	1572.36
534.86	1588.32
535.21	1603.45
535.57	1619.34
535.93	1634.81
536.29	1649.63
536.65	1664.61
537.00	1679.27
537.36	1694.47
537.72	1708.94
538.08	1723.39
538.44	1737.07
538.79	1750.91
539.15	1764.45
539.51	1778.05
539.87	1792.40
540.22	1806.04
540.58	1819.65
540.94	1832.85
541.29	1845.75
541.65	1858.18
542.01	1871.16
542.37	1883.42
542.72	1895.77
543.08	1907.30
543.44	1919.65
543.79	1930.73
544.15	1941.58
544.51	1953.13
544.87	1964.05
545.22	1974.75
545.58	1984.89
545.94	1994.66
546.29	2004.53
546.65	2014.48
547.01	2023.80
547.36	2032.43
547.72	2040.84
548.07	2048.64
548.43	2056.73
548.79	2064.58
549.14	2072.22
549.50	2079.40
549.86	2086.95
550.21	2094.23
550.57	2101.53
550.92	2107.97
551.28	2114.93
551.64	2122.04
551.99	2128.46
552.35	2134.73
552.70	2140.80
553.06	2146.74
553.41	2153.13
553.77	2159.06
554.13	2165.05
554.48	2171.04
554.84	2176.66
555.19	2181.96
555.55	2187.13
555.90	2191.55
556.26	2196.49
556.61	2201.39
556.97	2205.83
557.32	2209.96
557.68	2214.08
558.03	2218.42
558.39	2222.15
558.74	2226.83
559.10	2230.70
559.45	2234.37
559.81	2238.51
560.16	2242.55
560.52	2245.78
560.87	2249.15
561.23	2251.79
561.58	2254.75
561.94	2257.40
562.29	2259.52
562.64	2262.26
563.00	2264.78
563.35	2268.32
563.71	2271.44
564.06	2274.51
564.42	2277.35
564.77	2279.88
565.12	2282.11
565.48	2283.97
565.83	2285.85
566.19	2287.21
566.54	2288.18
566.89	2289.29
567.25	2289.89
567.60	2291.02
567.96	2292.82
568.31	2293.59
568.66	2294.91
569.02	2295.48
569.37	2295.82
569.72	2296.71
570.08	2296.85
570.43	2297.00
570.78	2296.69
571.14	2295.20
571.49	2293.93
571.84	2293.70
572.20	2292.64
572.55	2291.66
572.90	2290.17
573.26	2288.97
573.61	2287.42
573.96	2285.66
574.31	2282.85
574.67	2280.07
575.02	2276.63
575.37	2273.31
575.72	2269.64
576.08	2266.30
576.43	2263.01
576.78	2259.39
577.13	2256.13
577.49	2253.10
577.84	2249.60
578.19	2245.70
578.54	2242.20
578.90	2237.94
579.25	2232.52
579.60	2227.58
579.95	2222.66
580.30	2217.71
580.66	2212.41
581.01	2207.36
581.36	2202.47
581.71	2198.32
582.06	2193.79
582.42	2189.33
582.77	2184.17
583.12	2179.78
583.47	2174.98
583.82	2170.05
584.17	2164.80
584.53	2159.63
584.88	2154.16
585.23	2148.55
585.58	2143.05
585.93	2137.66
586.28	2133.01
586.63	2127.85
586.98	2122.87
587.34	2118.13
587.69	2113.31
588.04	2108.19
588.39	2102.65
588.74	2096.23
589.09	2090.08
589.44	2083.35
589.79	2077.43
590.14	2071.74
590.49	2065.13
590.84	2058.87
591.19	2052.97
591.54	2046.68
591.89	2039.36
592.25	2032.42
592.60	2025.31
592.95	2017.94
593.30	2010.61
593.65	2003.00
594.00	1996.15
594.35	1988.93
594.70	1981.00
595.05	1973.81
595.40	1966.62
595.75	1959.13
596.10	1953.26
596.45	1946.58
596.80	1940.52
597.15	1933.79
597.50	1926.79
597.85	1920.34
598.19	1913.66
598.54	1906.53
598.89	1899.82
599.24	1894.01
599.59	1887.42
599.94	1881.13
600.29	1874.82
600.64	1868.25
600.99	1860.95
601.34	1854.11
601.69	1847.35
602.04	1840.66
602.39	1833.34
602.74	1826.38
603.08	1819.59
603.43	1812.60
603.78	1805.32
604.13	1798.03
604.48	1790.80
604.83	1784.05
605.18	1777.04
605.53	1769.15
605.87	1761.18
606.22	1754.07
606.57	1746.09
606.92	1738.86
607.27	1731.83
607.62	1724.92
607.96	1717.57
608.31	1711.01
608.66	1703.33
609.01	1695.64
609.36	1687.91
609.70	1679.92
610.05	1671.95
610.40	1664.32
610.75	1656.02
611.10	1648.39
611.44	1640.04
611.79	1632.12
612.14	1623.40
612.49	1614.39
612.83	1605.99
613.18	1597.88
613.53	1589.76
613.88	1581.15
614.22	1572.82
614.57	1564.19
614.92	1556.04
615.27	1548.67
615.61	1540.24
615.96	1532.24
616.31	1524.64
616.65	1517.39
617.00	1509.89
617.35	1502.26
617.70	1493.96
618.04	1485.48
618.39	1477.30
618.74	1469.61
619.08	1461.23
619.43	1453.60
619.78	1446.58
620.12	1439.34
620.47	1431.75
620.82	1423.57
621.16	1416.19
621.51	1408.58
621.85	1400.96
622.20	1392.46
622.55	1383.96
622.89	1376.06
623.24	1368.45
623.59	1360.90
623.93	1353.30
624.28	1346.03
624.62	1338.51
624.97	1331.25
625.32	1324.54
625.66	1317.43
626.01	1310.32
626.35	1302.87
626.70	1295.24
627.04	1287.51
627.39	1279.78
627.73	1272.40
628.08	1265.42
628.43	1258.08
628.77	1250.73
629.12	1243.15
629.46	1236.09
629.81	1228.65
630.15	1221.47
630.50	1213.89
630.84	1205.74
631.19	1197.81
631.53	1190.17
631.88	1182.57
632.22	1175.06
632.57	1167.71
632.91	1160.22
633.26	1152.83
633.60	1145.42
633.95	1138.20
634.29	1131.16
634.64	1124.58
634.98	1117.22
635.32	1110.07
635.67	1103.55
636.01	1096.93
636.36	1090.15
636.70	1083.55
637.05	1077.10
637.39	1070.63
637.73	1064.21
638.08	1058.41
638.42	1052.43
638.77	1046.01
639.11	1039.38
639.45	1032.88
639.80	1026.14
640.14	1019.68
640.49	1013.17
640.83	1006.93
641.17	1000.69
641.52	994.40
641.86	987.91
642.20	982.12
642.55	975.85
642.89	969.32
643.23	962.76
643.58	957.02
643.92	950.80
644.26	944.65
644.61	938.53
644.95	932.56
645.29	925.93
645.64	919.22
645.98	912.91
646.32	907.15
646.66	901.13
647.01	895.44
647.35	889.71
647.69	883.84
648.04	878.26
648.38	872.50
648.72	866.46
649.06	860.33
649.41	854.39
649.75	848.43
650.09	842.54
650.43	836.76
650.78	830.56
651.12	824.68
651.46	818.95
651.80	813.29
652.14	807.96
652.49	802.55
652.83	797.36
653.17	791.63
653.51	785.88
653.85	780.60
654.20	774.87
654.54	768.82
654.88	763.06
655.22	757.14
655.56	751.40
655.90	745.97
656.25	740.71
656.59	735.35
656.93	730.24
657.27	725.00
657.61	719.59
657.95	714.45
658.29	709.32
658.64	704.07
658.98	698.79
659.32	693.24
659.66	688.03
660.00	682.73
660.34	677.80
660.68	672.92
661.02	667.79
661.36	663.18
661.70	658.74
662.05	654.40
662.39	650.05
662.73	645.63
663.07	641.21
663.41	636.78
663.75	632.25
664.09	627.65
664.43	623.30
664.77	619.18
665.11	614.94
665.45	610.79
665.79	606.69
666.13	602.55
666.47	598.47
666.81	594.28
667.15	590.15
667.49	586.28
667.83	582.43
668.17	578.49
668.51	574.33
668.85	570.22
669.19	566.37
669.53	562.54
669.87	558.62
670.21	554.91
670.55	551.29
670.89	547.86
671.23	544.40
671.57	540.85
671.91	537.27
672.25	533.77
672.58	530.24
672.92	526.83
673.26	523.61
673.60	520.42
673.94	517.33
674.28	514.45
674.62	511.48
674.96	508.28
675.30	505.38
675.64	502.47
675.97	499.72
676.31	496.83
676.65	493.92
676.99	491.18
677.33	488.30
677.67	485.49
678.01	482.45
678.34	479.50
678.68	476.63
679.02	473.83
679.36	471.01
679.70	468.29
680.04	465.53
680.37	462.74
680.71	459.99
681.05	457.37
681.39	454.60
681.73	451.97
682.06	449.54
682.40	447.04
682.74	444.51
683.08	441.99
683.42	439.41
683.75	436.93
684.09	434.42
684.43	432.01
684.77	429.56
685.10	427.20
685.44	424.91
685.78	422.62
686.12	420.32
686.45	418.11
686.79	415.84
687.13	413.66
687.46	411.45
687.80	409.28
688.14	407.07
688.48	405.01
688.81	402.76
689.15	400.55
689.49	398.38
689.82	396.33
690.16	394.24
690.50	392.29
690.83	390.38
691.17	388.42
691.51	386.51
691.84	384.62
692.18	382.71
692.52	380.74
692.85	378.85
693.19	377.02
693.52	375.15
693.86	373.37
694.20	371.59
694.53	369.82
694.87	368.00
695.21	366.17
695.54	364.36
695.88	362.65
696.21	360.96
696.55	359.29
696.88	357.58
697.22	355.93
697.56	354.30
697.89	352.62
698.23	350.99
698.56	349.39
698.90	347.82
699.23	346.14
699.57	344.59
699.90	343.03
700.24	341.48
700.58	339.96
700.91	338.37
701.25	336.90
701.58	335.51
701.92	334.11
702.25	332.74
702.59	331.35
702.92	330.04
703.26	328.76
703.59	327.46
703.93	326.28
704.26	325.03
704.60	323.70
704.93	322.42
705.26	321.16
705.60	320.01
705.93	318.80
706.27	317.79
706.60	316.68
706.94	315.59
707.27	314.45
707.61	313.38
707.94	312.39
708.27	311.31
708.61	310.18
708.94	309.17
709.28	308.22
709.61	307.23
709.94	306.23
710.28	305.16
710.61	304.17
710.95	303.08
711.28	302.17
711.61	301.20
711.95	300.30
712.28	299.33
712.61	298.27
712.95	297.36
713.28	296.47
713.61	295.59
713.95	294.67
714.28	293.78
714.61	292.88
714.95	292.04
715.28	291.14
715.61	290.29
715.95	289.40
716.28	288.52
716.61	287.67
716.95	286.83
717.28	286.07
717.61	285.30
717.94	284.56
718.28	283.71
718.61	283.00
718.94	282.28
719.27	281.66
719.61	281.01
719.94	280.32
720.27	279.60
720.60	278.90
720.94	278.28
721.27	277.67
721.60	277.10
721.93	276.50
722.27	275.98
722.60	275.42
722.93	274.87
723.26	274.34
723.59	273.82
723.93	273.30
724.26	272.76
724.59	272.22
724.92	271.70
725.25	271.20
725.59	270.68
725.92	270.19
726.25	269.69
726.58	269.24
726.91	268.77
727.24	268.31
727.57	267.87
727.91	267.34
728.24	266.89
728.57	266.37
728.90	265.91
729.23	265.42
729.56	265.00
729.89	264.52
730.22	264.05
730.55	263.58
730.89	263.12
731.22	262.68
731.55	262.23
731.88	261.80
732.21	261.39
732.54	260.95
732.87	260.55
733.20	260.11
733.53	259.72
733.86	259.34
734.19	258.92
734.52	258.55
734.85	258.27
735.18	257.88
735.51	257.56
735.84	257.18
736.17	256.86
736.50	256.46
736.83	256.24
737.16	255.92
737.49	255.59
737.82	255.29
738.15	254.97
738.48	254.64
738.81	254.34
739.14	254.05
739.47	253.76
739.80	253.42
740.13	253.17
740.46	252.81
740.79	252.51
741.12	252.21
741.45	251.89
741.78	251.52
742.11	251.25
742.44	250.90
742.77	250.66
743.10	250.33
743.43	250.00
743.75	249.62
744.08	249.47
744.41	249.19
744.74	248.90
745.07	248.62
745.40	248.40
745.73	248.12
746.06	247.83
746.39	247.53
746.71	247.27
747.04	246.97
747.37	246.72
747.70	246.46
748.03	246.21
748.36	246.00
748.68	245.79
749.01	245.54
749.34	245.36
749.67	245.10
750.00	244.89
750.33	244.76
750.65	244.56
750.98	244.20
751.31	243.95
751.64	243.74
751.97	243.57
752.29	243.32
752.62	243.07
752.95	242.85
753.28	242.67
753.60	242.45
753.93	242.27
754.26	242.06
754.59	241.83
754.91	241.64
755.24	241.43
755.57	241.26
755.90	241.08
756.22	240.87
756.55	240.66
756.88	240.42
757.20	240.16
757.53	239.98
757.86	239.77
758.19	239.64
758.51	239.46
758.84	239.23
759.17	239.08
759.49	238.89
759.82	238.81
760.15	238.65
760.47	238.52
760.80	238.31
761.13	238.18
761.45	238.07
761.78	237.90
762.11	237.72
762.43	237.54
762.76	237.39
763.08	237.28
763.41	237.15
763.74	237.06
764.06	236.93
764.39	236.75
764.71	236.62
765.04	236.46
765.37	236.36
765.69	236.25
766.02	236.10
766.34	236.03
766.67	235.85
767.00	235.75
767.32	235.67
767.65	235.65
767.97	235.55
768.30	235.39
768.62	235.30
768.95	235.20
769.27	235.07
769.60	234.97
769.92	234.86
770.25	234.72
770.57	234.63
770.90	234.53
771.22	234.45
771.55	234.39
771.87	234.29
772.20	234.14
772.52	234.15
772.85	234.17
773.17	234.07
773.50	233.97
773.82	233.84
774.15	233.70
774.47	233.58
774.80	233.46
775.12	233.38
775.45	233.29
775.77	233.22
776.09	233.16
776.42	233.08
776.74	233.01
777.07	232.92
777.39	232.81
777.72	232.74
778.04	232.69
778.36	232.60
778.69	232.57
779.01	232.51
779.33	232.35
779.66	232.21
779.98	232.13
780.31	232.07
780.63	232.06
780.95	232.02
781.28	231.94
781.60	231.90
781.92	231.84
782.25	231.81
782.57	231.72
782.89	231.68
783.22	231.60
783.54	231.51
783.86	231.48
784.19	231.41
784.51	231.38
784.83	231.31
785.16	231.23
785.48	231.16
785.80	231.13
786.12	231.09
786.45	231.01
786.77	230.99
787.09	230.94
787.42	230.86
787.74	230.81
788.06	230.73
788.38	230.67
788.71	230.62
789.03	230.56
789.35	230.51
789.67	230.45
789.99	230.44
790.32	230.39
790.64	230.34
790.96	230.40
791.28	230.31
791.61	230.26
791.93	230.24
792.25	230.19
792.57	230.19
792.89	230.09
793.21	230.04
793.54	229.97
793.86	229.91
794.18	229.84
794.50	229.79
794.82	229.78
795.14	229.73
795.47	229.71
795.79	229.66
796.11	229.62
796.43	229.59
796.75	229.53
797.07	229.52
797.39	229.50
797.71	229.39
798.04	229.33
798.36	229.29
798.68	229.27
799.00	229.24
799.32	229.14
799.64	229.17
799.96	229.15
800.28	229.11
800.60	229.04
800.92	229.02
801.24	228.98
801.56	228.93
801.89	228.91
802.21	228.88
802.53	228.81
802.85	228.82
803.17	228.82
803.49	228.79
803.81	228.75
804.13	228.74
804.45	228.70
804.77	228.71
805.09	228.74
805.41	228.70
805.73	228.65
806.05	228.63
806.37	228.56
806.69	228.53
807.01	228.54
807.33	228.58
807.65	228.52
807.97	228.55
808.28	228.55
808.60	228.54
808.92	228.50
809.24	228.55
809.56	228.50
809.88	228.45
810.20	228.44
810.52	228.43
810.84	228.36
811.16	228.36
811.48	228.35
811.80	228.31
812.12	228.31
812.43	228.33
812.75	228.34
813.07	228.34
813.39	228.32
813.71	228.26
814.03	228.26
814.35	228.25
814.67	228.22
814.98	228.17
815.30	228.16
815.62	228.13
815.94	228.08
816.26	228.10
816.58	228.09
816.89	228.07
817.21	228.04
817.53	228.05
817.85	228.03
818.17	228.01
818.48	227.98
818.80	227.99
819.12	227.97
819.44	227.94
819.76	227.93
820.07	227.94
820.39	227.93
820.71	227.88
821.03	227.87
821.34	227.82
821.66	227.86
821.98	227.84
822.30	227.85
822.61	227.90
822.93	227.86
823.25	227.84
823.57	227.83
823.88	227.83
824.20	227.81
824.52	227.81
824.83	227.79
825.15	227.76
825.47	227.74
825.79	227.70
826.10	227.70
826.42	227.64
826.74	227.62
827.05	227.60
827.37	227.61
827.69	227.62
828.00	227.62
828.32	227.58
828.64	227.56
828.95	227.58
829.27	227.51
829.58	227.50
829.90	227.50
830.22	227.49
830.53	227.48
830.85	227.46
831.17	227.42
831.48	227.41
831.80	227.41
832.11	227.37
832.43	227.35
832.75	227.34
833.06	227.38
833.38	227.31
833.69	227.31
834.01	227.29
834.32	227.31
834.64	227.28
834.96	227.29
835.27	227.28
835.59	227.24
835.90	227.23
836.22	227.22
836.53	227.21
836.85	227.15
837.16	227.21
837.48	227.19
837.79	227.19
838.11	227.17
838.42	227.17
838.74	227.19
839.05	227.15
839.37	227.13
839.68	227.07
840.00	227.10
840.31	227.11
840.63	227.10
840.94	227.03
841.26	227.00
841.57	226.98
841.88	226.99
842.20	226.94
842.51	226.90
842.83	226.87
843.14	226.93
843.46	226.96
843.77	226.90
844.08	226.90
844.40	226.85
844.71	226.82
845.03	226.79
845.34	226.76
845.65	226.78
845.97	226.77
846.28	226.80
846.60	226.76
846.91	226.74
847.22	226.69
847.54	226.70
847.85	226.70
848.16	226.72
848.48	226.70
848.79	226.76
849.10	226.76
849.42	226.76
849.73	226.64
850.04	226.62
850.36	226.56
850.67	226.57
850.98	226.59
851.30	226.64
851.61	226.63
851.92	226.62
852.23	226.60
852.55	226.60
852.86	226.61
853.17	226.60
853.49	226.63
853.80	226.64
854.11	226.64
854.42	226.63
854.74	226.58
855.05	226.57
855.36	226.50
855.67	226.51
855.99	226.52
856.30	226.64
856.61	226.61
856.92	226.63
857.23	226.61
857.55	226.59
857.86	226.57
858.17	226.61
858.48	226.57
858.79	226.59
859.11	226.58
859.42	226.54
859.73	226.55
860.04	226.53
860.35	226.53
860.66	226.51
860.98	226.50
861.29	226.50
861.60	226.49
861.91	226.49
862.22	226.49
862.53	226.49
862.84	226.38
863.16	226.42
863.47	226.39
863.78	226.40
864.09	226.40
864.40	226.36
864.71	226.34
865.02	226.36
865.33	226.35
865.64	226.31
865.95	226.30
866.27	226.39
866.58	226.38
866.89	226.37
867.20	226.38
867.51	226.39
867.82	226.38
868.13	226.40
868.44	226.41
868.75	226.41
869.06	226.40
869.37	226.40
869.68	226.33
869.99	226.36
870.30	226.34
870.61	226.35
870.92	226.37
871.23	226.35
871.54	226.37
871.85	226.36
872.16	226.41
872.47	226.40
872.78	226.33
873.09	226.31
873.40	226.32
873.71	226.32
874.02	226.30
874.33	226.30
874.64	226.29
874.95	226.27
875.26	226.25
875.56	226.24
875.87	226.21
876.18	226.25
876.49	226.34
876.80	226.37
877.11	226.37
877.42	226.38
877.73	226.37
878.04	226.36
878.35	226.35
878.66	226.34
878.96	226.34
879.27	226.32
879.58	226.34
879.89	226.31
880.20	226.37
880.51	226.42
880.82	226.41
881.12	226.41
881.43	226.37
881.74	226.34
882.05	226.34
882.36	226.36
882.67	226.34
882.97	226.23
883.28	226.20
883.59	226.19
883.90	226.19
884.21	226.20
884.51	226.17
884.82	226.20
885.13	226.22
885.44	226.22
885.74	226.24
886.05	226.23
886.36	226.26
886.67	226.21
886.98	226.25
887.28	226.29
887.59	226.30
887.90	226.35
888.20	226.38
888.51	226.37
888.82	226.36
889.13	226.35
889.43	226.44
889.74	226.43
890.05	226.47
890.35	226.45
890.66	226.44
890.97	226.45
891.28	226.44
891.58	226.42
891.89	226.41
892.20	226.40
892.50	226.39
892.81	226.39
893.12	226.38
893.42	226.31
893.73	226.26
894.04	226.25
894.34	226.24
894.65	226.22
894.95	226.20
895.26	226.21
895.57	226.29
895.87	226.20
896.18	226.20
896.48	226.19
896.79	226.18
897.10	226.20
897.40	226.21
897.71	226.20
898.01	226.18
898.32	226.21
898.63	226.18
898.93	226.15
899.24	226.14
899.54	226.12
899.85	226.09
900.15	226.11
900.46	226.12
900.76	226.13
901.07	226.14
901.38	226.13
901.68	226.11
901.99	226.04
902.29	226.06
902.60	226.08
902.90	226.08
903.21	226.07
903.51	226.06
903.82	226.07
904.12	226.08
904.43	226.07
904.73	226.08
905.03	226.10
905.34	226.21
905.64	226.21
905.95	226.22
906.25	226.23
906.56	226.24
906.86	226.21
907.17	226.20
907.47	226.23
907.77	226.21
908.08	226.21
908.38	226.25
908.69	226.23
908.99	226.21
909.30	226.19
909.60	226.22
909.90	226.24
910.21	226.21
910.51	226.17
910.81	226.19
911.12	226.18
911.42	226.22
911.73	226.13
912.03	226.15
912.33	226.19
912.64	226.18
912.94	226.13
913.24	226.12
913.55	226.14
913.85	226.14
914.15	226.17
914.46	226.17
914.76	226.12
915.06	226.13
915.37	226.11
915.67	226.09
915.97	226.06
916.27	226.04
916.58	226.04
916.88	226.08
917.18	226.06
917.49	226.13
917.79	226.09
918.09	226.10
918.39	226.10
918.70	226.10
919.00	226.17
919.30	226.25
919.60	226.26
919.91	226.23
920.21	226.23
920.51	226.23
920.81	226.26
921.12	226.29
921.42	226.27
921.72	226.31
922.02	226.36
922.32	226.38
922.63	226.35
922.93	226.43
923.23	226.44
923.53	226.44
923.83	226.36
924.13	226.36
924.44	226.37
924.74	226.41
925.04	226.44
925.34	226.40
925.64	226.37
925.94	226.39
926.24	226.45
926.55	226.46
926.85	226.48
927.15	226.48
927.45	226.48
927.75	226.52
928.05	226.52
928.35	226.48
928.65	226.52
928.95	226.56
929.26	226.50
929.56	226.53
929.86	226.57
930.16	226.59
930.46	226.54
930.76	226.51
931.06	226.43
931.36	226.37
931.66	226.37
931.96	226.36
932.26	226.37
932.56	226.30
932.86	226.31
933.16	226.29
933.46	226.27
933.76	226.26
934.06	226.28
934.36	226.30
934.66	226.32
934.96	226.30
935.26	226.30
935.56	226.29
935.86	226.23
936.16	226.18
936.46	226.18
936.76	226.23
937.06	226.25
937.36	226.25
937.66	226.28
937.96	226.28
938.26	226.24
938.56	226.20
938.86	226.21
939.16	226.20
939.46	226.22
939.76	226.24
940.06	226.25
940.35	226.19
940.65	226.16
940.95	226.16
941.25	226.13
941.55	226.10
941.85	226.12
942.15	226.14
942.45	226.20
942.75	226.19
943.04	226.17
943.34	226.17
943.64	226.14
943.94	226.09
944.24	226.08
944.54	226.11
944.84	226.12
945.13	226.09
945.43	226.07
945.73	226.02
946.03	225.98
946.33	225.96
946.62	225.97
946.92	225.96
947.22	225.94
947.52	225.93
947.82	225.97
948.11	225.95
948.41	225.93
948.71	225.90
949.01	225.91
949.31	225.90
949.60	225.89
949.90	225.93
950.20	225.93
950.50	225.91
950.79	225.90
951.09	225.90
951.39	225.91
951.69	225.94
951.98	226.01
952.28	225.98
952.58	225.99
952.87	225.98
953.17	226.00
953.47	225.98
953.76	225.97
954.06	225.90
954.36	225.88
954.66	225.88
954.95	225.86
955.25	225.85
955.55	225.83
955.84	225.84
956.14	225.85
956.44	225.86
956.73	225.88
957.03	225.86
957.32	225.86
957.62	225.87
957.92	225.87
958.21	225.82
958.51	225.92
958.81	225.92
959.10	225.94
959.40	225.93
959.69	225.94
959.99	225.97
960.29	225.98
960.58	225.98
960.88	225.99
961.17	226.00
961.47	226.03
961.76	226.05
962.06	226.06
962.36	226.06
962.65	226.07
962.95	226.06
963.24	226.07
963.54	226.11
963.83	226.07
964.13	226.06
964.42	226.03
964.72	226.01
965.01	226.02
965.31	226.03
965.60	226.00
965.90	226.08
966.19	226.05
966.49	226.06
966.78	226.07
967.08	226.07
967.37	226.05
967.67	226.01
967.96	226.03
968.26	226.01
968.55	225.99
968.85	225.95
969.14	225.96
969.43	225.98
969.73	225.96
970.02	225.98
970.32	225.98
970.61	226.02
970.91	225.96
971.20	225.94
971.49	225.93
971.79	225.93
972.08	225.85
972.38	225.89
972.67	225.91
972.96	225.90
973.26	225.89
973.55	225.95
973.85	225.95
974.14	225.94
974.43	225.95
974.73	225.96
975.02	225.98
975.31	225.95
975.61	225.92
975.90	225.90
976.19	225.92
976.49	225.92
976.78	225.88
977.07	225.90
977.37	225.91
977.66	225.94
977.95	225.95
978.24	225.98
978.54	226.00
978.83	225.94
979.12	225.97
979.42	225.98
979.71	225.93
980.00	225.92
980.29	225.92
980.59	225.91
980.88	225.89
981.17	225.90
981.46	225.92
981.76	225.93
982.05	225.97
982.34	225.94
982.63	225.92
982.93	225.95
983.22	225.96
983.51	225.96
983.80	225.92
984.09	225.93
984.39	225.91
984.68	225.88
984.97	225.90
985.26	225.87
985.55	225.87
985.85	225.83
986.14	225.85
986.43	225.83
986.72	225.82
987.01	225.80
987.30	225.77
987.59	225.77
987.89	225.75
988.18	225.73
988.47	225.73
988.76	225.72
989.05	225.68
989.34	225.67
989.63	225.68
989.92	225.68
990.22	225.65
990.51	225.62
990.80	225.57
991.09	225.60
991.38	225.62
991.67	225.61
991.96	225.65
992.25	225.63
992.54	225.63
992.83	225.63
993.12	225.64
993.41	225.66
993.70	225.69
993.99	225.74
994.28	225.74
994.58	225.77
994.87	225.77
995.16	225.79
995.45	225.77
995.74	225.73
996.03	225.77
996.32	225.78
996.61	225.84
996.90	225.89
997.19	225.87
997.48	225.89
997.77	225.90
998.06	225.87
998.34	225.89
998.63	225.92
998.92	225.97
999.21	226.01
999.50	226.02
999.79	225.98
1000.08	225.95
1000.37	225.94
1000.66	225.93
1000.95	225.96
1001.24	225.97
1001.53	225.99
1001.82	226.01
1002.11	226.00
1002.40	226.04
1002.68	226.08
1002.97	226.13
1003.26	226.14
1003.55	226.11
1003.84	226.07
1004.13	226.14
1004.42	226.14
1004.71	226.12
1004.99	226.08
1005.28	226.11
1005.57	226.13
1005.86	226.14
1006.15	226.17
1006.44	226.18
1006.72	226.20
1007.01	226.22
1007.30	226.22
1007.59	226.24
1007.88	226.26
1008.17	226.26
1008.45	226.22
1008.74	226.17
1009.03	226.12
1009.32	226.10
1009.60	226.09
1009.89	226.12
1010.18	226.08
1010.47	226.08
1010.76	226.09
1011.04	226.11
1011.33	226.07
1011.62	226.07
1011.91	226.08
1012.19	226.06
1012.48	226.08
1012.77	226.06
1013.05	226.09
1013.34	226.07
1013.63	226.06
1013.92	226.04
1014.20	226.04
1014.49	226.06
1014.78	226.02
1015.06	225.99
1015.35	226.02
1015.64	226.04
1015.92	226.05
1016.21	226.02
1016.50	226.01
1016.78	226.02
1017.07	225.99
1017.36	225.96
1017.64	225.92
1017.93	225.90
1018.22	225.86
1018.50	225.85
1018.79	225.82
1019.08	225.74
1019.36	225.75
1019.65	225.75
1019.93	225.76
1020.22	225.74
1020.51	225.74
1020.79	225.77
1021.08	224.99
1021.36	226.16
1021.65	225.43
1021.94	225.50
1022.22	225.75
1022.51	225.92
1022.79	226.16
1023.08	225.72
1023.36	226.45
1023.65	225.81
>>>>>End Processed Spectral Data<<<<<
