SpectraSuite Data File
++++++++++++++++++++++++++++++++++++
Date: Fri Feb 01 15:58:49 EST 2013
User: group
Dark Spectrum Present: No
Reference Spectrum Present: No
Number of Sampled Component Spectra: 1
Spectrometers: USB2E7196
Integration Time (usec): 35000 (USB2E7196)
Spectra Averaged: 100 (USB2E7196)
Boxcar Smoothing: 10 (USB2E7196)
Correct for Electrical Dark: No (USB2E7196)
Strobe/Lamp Enabled: No (USB2E7196)
Correct for Detector Non-linearity: No (USB2E7196)
Correct for Stray Light: No (USB2E7196)
Number of Pixels in Processed Spectrum: 2048
>>>>>Begin Processed Spectral Data<<<<<
339.09	0.00
339.48	215.04
339.86	215.70
340.24	217.01
340.63	219.56
341.01	221.91
341.39	221.96
341.78	223.25
342.16	224.16
342.54	225.27
342.93	213.16
343.31	223.93
343.69	224.45
344.07	224.94
344.46	225.38
344.84	225.73
345.22	225.94
345.60	226.18
345.99	226.36
346.37	226.50
346.75	226.57
347.13	226.62
347.52	226.69
347.90	226.71
348.28	226.73
348.66	226.77
349.05	226.74
349.43	226.79
349.81	226.81
350.19	226.87
350.57	226.89
350.96	227.00
351.34	227.07
351.72	227.17
352.10	227.29
352.48	227.38
352.87	227.45
353.25	227.56
353.63	227.61
354.01	227.67
354.39	227.73
354.77	227.82
355.15	227.97
355.54	228.05
355.92	228.14
356.30	228.25
356.68	228.38
357.06	228.43
357.44	228.45
357.82	228.54
358.20	228.62
358.58	228.69
358.97	228.74
359.35	228.85
359.73	228.95
360.11	229.00
360.49	229.03
360.87	229.09
361.25	229.14
361.63	229.23
362.01	229.26
362.39	229.30
362.77	229.34
363.15	229.33
363.53	229.34
363.91	229.36
364.29	229.36
364.67	229.30
365.05	229.34
365.43	229.35
365.81	229.37
366.19	229.39
366.57	229.44
366.95	229.42
367.33	229.38
367.71	229.34
368.09	229.33
368.47	229.30
368.85	229.26
369.23	229.24
369.61	229.20
369.99	229.22
370.37	229.20
370.75	229.21
371.13	229.16
371.51	229.11
371.89	229.08
372.27	229.02
372.65	228.99
373.03	228.93
373.41	228.89
373.78	228.82
374.16	228.75
374.54	228.61
374.92	228.56
375.30	228.48
375.68	228.41
376.06	228.35
376.44	228.33
376.82	228.27
377.19	228.19
377.57	228.09
377.95	227.98
378.33	227.90
378.71	227.76
379.09	227.71
379.47	227.65
379.84	227.57
380.22	227.51
380.60	227.42
380.98	227.38
381.36	227.33
381.73	227.26
382.11	227.20
382.49	227.19
382.87	227.12
383.25	227.05
383.62	227.08
384.00	227.00
384.38	226.91
384.76	226.87
385.13	226.83
385.51	226.78
385.89	226.73
386.27	226.69
386.64	226.64
387.02	226.57
387.40	226.54
387.78	226.49
388.15	226.48
388.53	226.44
388.91	226.38
389.29	226.31
389.66	226.29
390.04	226.26
390.42	226.24
390.79	226.21
391.17	226.23
391.55	226.11
391.92	226.10
392.30	226.10
392.68	226.05
393.05	226.08
393.43	226.15
393.81	226.16
394.18	226.16
394.56	226.21
394.94	226.26
395.31	226.28
395.69	226.33
396.06	226.36
396.44	226.41
396.82	226.45
397.19	226.53
397.57	226.57
397.95	226.62
398.32	226.65
398.70	226.71
399.07	226.77
399.45	226.85
399.82	226.93
400.20	227.02
400.58	227.09
400.95	227.11
401.33	227.19
401.70	227.33
402.08	227.38
402.45	227.44
402.83	227.58
403.20	227.67
403.58	227.79
403.95	227.93
404.33	228.04
404.71	228.19
405.08	228.37
405.46	228.49
405.83	228.66
406.21	228.81
406.58	229.01
406.96	229.16
407.33	229.32
407.70	229.52
408.08	229.76
408.45	230.02
408.83	230.26
409.20	230.45
409.58	230.63
409.95	230.94
410.33	231.24
410.70	231.43
411.08	231.73
411.45	232.02
411.82	232.28
412.20	232.62
412.57	233.04
412.95	233.35
413.32	233.75
413.69	234.14
414.07	234.57
414.44	235.02
414.82	235.51
415.19	236.07
415.56	236.62
415.94	237.19
416.31	237.83
416.68	238.47
417.06	239.20
417.43	239.91
417.81	240.67
418.18	241.44
418.55	242.30
418.93	243.17
419.30	244.12
419.67	245.10
420.04	246.03
420.42	246.98
420.79	248.16
421.16	249.36
421.54	250.57
421.91	251.80
422.28	253.09
422.66	254.40
423.03	255.70
423.40	257.03
423.77	258.41
424.15	259.82
424.52	261.31
424.89	262.88
425.26	264.42
425.64	265.87
426.01	267.47
426.38	269.11
426.75	270.80
427.13	272.49
427.50	274.27
427.87	276.19
428.24	278.06
428.61	279.77
428.99	281.67
429.36	283.76
429.73	285.83
430.10	287.82
430.47	289.89
430.85	292.01
431.22	294.26
431.59	296.64
431.96	298.92
432.33	301.39
432.70	303.80
433.08	306.61
433.45	309.26
433.82	311.86
434.19	314.81
434.56	317.58
434.93	320.23
435.30	322.84
435.68	325.73
436.05	328.53
436.42	331.35
436.79	333.87
437.16	336.55
437.53	339.40
437.90	342.23
438.27	344.99
438.64	347.77
439.01	350.35
439.38	352.58
439.75	354.71
440.13	357.16
440.50	359.48
440.87	361.30
441.24	363.26
441.61	365.44
441.98	366.88
442.35	368.68
442.72	370.51
443.09	372.33
443.46	373.33
443.83	374.00
444.20	374.49
444.57	375.34
444.94	375.66
445.31	375.91
445.68	376.21
446.05	376.21
446.42	375.85
446.79	375.46
447.16	375.03
447.53	374.72
447.90	373.56
448.27	372.38
448.64	370.80
449.01	369.60
449.37	367.56
449.74	365.66
450.11	363.37
450.48	360.91
450.85	358.36
451.22	356.21
451.59	354.13
451.96	352.18
452.33	349.53
452.70	347.19
453.07	344.40
453.43	341.52
453.80	338.79
454.17	336.09
454.54	333.49
454.91	330.74
455.28	328.06
455.65	325.61
456.02	323.16
456.38	321.02
456.75	318.38
457.12	316.16
457.49	313.94
457.86	311.78
458.23	309.93
458.59	307.89
458.96	305.79
459.33	303.92
459.70	302.08
460.07	300.59
460.43	298.84
460.80	297.16
461.17	295.72
461.54	294.20
461.91	292.80
462.27	291.40
462.64	290.16
463.01	288.78
463.38	287.48
463.74	286.13
464.11	284.99
464.48	283.97
464.85	282.85
465.21	281.98
465.58	281.09
465.95	279.99
466.32	279.08
466.68	278.18
467.05	277.30
467.42	276.40
467.78	275.47
468.15	274.62
468.52	274.05
468.88	273.22
469.25	272.49
469.62	271.87
469.98	271.14
470.35	270.51
470.72	269.94
471.08	269.28
471.45	268.74
471.82	268.18
472.18	267.57
472.55	267.18
472.92	266.67
473.28	266.19
473.65	265.77
474.02	265.35
474.38	264.97
474.75	264.65
475.11	264.32
475.48	264.08
475.85	263.83
476.21	263.55
476.58	263.38
476.94	263.22
477.31	263.05
477.67	262.93
478.04	262.83
478.41	262.80
478.77	262.85
479.14	262.83
479.50	262.82
479.87	262.91
480.23	263.01
480.60	263.10
480.96	263.24
481.33	263.45
481.69	263.68
482.06	263.91
482.42	264.12
482.79	264.38
483.15	264.73
483.52	265.14
483.88	265.51
484.25	265.92
484.61	266.40
484.98	266.88
485.34	267.46
485.71	268.06
486.07	268.63
486.44	269.20
486.80	269.90
487.17	270.65
487.53	271.47
487.90	272.27
488.26	273.21
488.62	274.18
488.99	275.17
489.35	276.16
489.72	277.29
490.08	278.49
490.44	279.72
490.81	281.04
491.17	282.40
491.54	283.88
491.90	285.42
492.26	287.04
492.63	288.75
492.99	290.56
493.36	292.44
493.72	294.48
494.08	296.57
494.45	298.83
494.81	301.16
495.17	303.55
495.54	306.14
495.90	308.80
496.26	311.60
496.63	314.51
496.99	317.63
497.35	320.91
497.72	324.34
498.08	327.89
498.44	331.54
498.80	335.48
499.17	339.50
499.53	343.69
499.89	348.10
500.26	352.62
500.62	357.25
500.98	362.21
501.34	367.27
501.71	372.60
502.07	377.98
502.43	383.64
502.79	389.46
503.16	395.52
503.52	401.78
503.88	408.19
504.24	414.85
504.60	421.77
504.97	428.89
505.33	436.20
505.69	443.83
506.05	451.65
506.41	459.47
506.78	467.67
507.14	476.08
507.50	484.73
507.86	493.69
508.22	502.95
508.59	512.14
508.95	521.76
509.31	531.62
509.67	541.79
510.03	552.10
510.39	562.64
510.75	573.38
511.12	584.29
511.48	595.57
511.84	607.03
512.20	618.55
512.56	630.44
512.92	642.60
513.28	654.97
513.64	667.46
514.00	680.21
514.37	693.16
514.73	706.17
515.09	719.23
515.45	732.62
515.81	746.12
516.17	760.14
516.53	774.21
516.89	788.38
517.25	802.51
517.61	816.96
517.97	831.44
518.33	845.96
518.69	860.79
519.05	875.78
519.41	890.94
519.77	906.48
520.13	921.85
520.49	937.25
520.85	952.67
521.21	968.30
521.57	984.46
521.93	1000.20
522.29	1016.57
522.65	1032.82
523.01	1048.98
523.37	1065.04
523.73	1081.11
524.09	1097.08
524.45	1113.30
524.81	1129.88
525.17	1146.68
525.53	1163.57
525.89	1180.41
526.25	1197.26
526.61	1213.66
526.97	1230.41
527.33	1246.83
527.68	1263.52
528.04	1279.90
528.40	1296.43
528.76	1313.51
529.12	1330.15
529.48	1347.09
529.84	1363.15
530.20	1379.65
530.56	1396.71
530.91	1414.06
531.27	1430.77
531.63	1447.40
531.99	1463.94
532.35	1479.90
532.71	1495.70
533.07	1512.00
533.42	1527.81
533.78	1543.77
534.14	1559.98
534.50	1575.31
534.86	1591.19
535.21	1606.36
535.57	1622.18
535.93	1637.74
536.29	1652.43
536.65	1667.33
537.00	1681.89
537.36	1697.10
537.72	1711.67
538.08	1725.95
538.44	1739.72
538.79	1753.70
539.15	1767.39
539.51	1781.13
539.87	1795.42
540.22	1809.07
540.58	1822.78
540.94	1836.13
541.29	1848.89
541.65	1861.55
542.01	1874.74
542.37	1886.95
542.72	1899.40
543.08	1911.30
543.44	1923.63
543.79	1934.81
544.15	1945.86
544.51	1957.52
544.87	1968.54
545.22	1979.33
545.58	1989.45
545.94	1999.20
546.29	2009.05
546.65	2018.77
547.01	2028.04
547.36	2036.81
547.72	2045.37
548.07	2053.00
548.43	2061.14
548.79	2069.25
549.14	2076.77
549.50	2084.11
549.86	2091.76
550.21	2099.09
550.57	2106.20
550.92	2112.67
551.28	2119.89
551.64	2126.82
551.99	2133.18
552.35	2139.17
552.70	2145.36
553.06	2151.42
553.41	2157.69
553.77	2163.70
554.13	2169.79
554.48	2175.86
554.84	2181.18
555.19	2186.40
555.55	2191.66
555.90	2196.14
556.26	2200.95
556.61	2205.67
556.97	2209.77
557.32	2214.04
557.68	2218.03
558.03	2222.43
558.39	2226.29
558.74	2230.93
559.10	2234.94
559.45	2238.75
559.81	2243.21
560.16	2246.98
560.52	2250.14
560.87	2253.47
561.23	2256.08
561.58	2259.05
561.94	2261.66
562.29	2264.00
562.64	2266.59
563.00	2269.06
563.35	2272.47
563.71	2275.69
564.06	2278.84
564.42	2281.73
564.77	2284.16
565.12	2286.43
565.48	2288.19
565.83	2289.91
566.19	2291.08
566.54	2291.96
566.89	2293.21
567.25	2293.72
567.60	2294.88
567.96	2296.59
568.31	2297.59
568.66	2298.65
569.02	2299.27
569.37	2299.53
569.72	2300.49
570.08	2300.75
570.43	2300.96
570.78	2300.53
571.14	2298.98
571.49	2297.77
571.84	2297.54
572.20	2296.46
572.55	2295.47
572.90	2293.92
573.26	2292.59
573.61	2290.92
573.96	2289.25
574.31	2286.10
574.67	2283.13
575.02	2279.67
575.37	2276.33
575.72	2272.54
576.08	2269.35
576.43	2265.97
576.78	2262.39
577.13	2259.22
577.49	2256.21
577.84	2252.61
578.19	2248.85
578.54	2245.17
578.90	2240.85
579.25	2235.22
579.60	2230.18
579.95	2225.03
580.30	2220.09
580.66	2214.92
581.01	2209.92
581.36	2204.87
581.71	2200.73
582.06	2196.31
582.42	2191.98
582.77	2186.70
583.12	2182.27
583.47	2177.47
583.82	2172.36
584.17	2167.02
584.53	2161.51
584.88	2155.88
585.23	2150.23
585.58	2144.69
585.93	2139.28
586.28	2134.49
586.63	2129.54
586.98	2124.50
587.34	2119.84
587.69	2114.93
588.04	2109.66
588.39	2104.24
588.74	2097.85
589.09	2091.77
589.44	2084.91
589.79	2078.88
590.14	2073.35
590.49	2066.60
590.84	2060.26
591.19	2054.41
591.54	2048.03
591.89	2040.73
592.25	2033.77
592.60	2026.54
592.95	2018.97
593.30	2011.41
593.65	2003.91
594.00	1996.85
594.35	1989.56
594.70	1981.64
595.05	1974.36
595.40	1967.15
595.75	1959.44
596.10	1953.17
596.45	1946.39
596.80	1940.26
597.15	1933.65
597.50	1926.52
597.85	1920.12
598.19	1913.42
598.54	1906.10
598.89	1899.43
599.24	1893.44
599.59	1886.93
599.94	1880.83
600.29	1874.52
600.64	1868.16
600.99	1860.71
601.34	1853.82
601.69	1847.04
602.04	1840.11
602.39	1832.78
602.74	1825.86
603.08	1819.07
603.43	1812.33
603.78	1804.93
604.13	1797.74
604.48	1790.35
604.83	1783.53
605.18	1776.54
605.53	1768.48
605.87	1760.56
606.22	1753.28
606.57	1745.36
606.92	1737.80
607.27	1730.47
607.62	1723.57
607.96	1716.28
608.31	1709.63
608.66	1701.99
609.01	1694.30
609.36	1686.74
609.70	1678.80
610.05	1670.72
610.40	1663.03
610.75	1654.79
611.10	1647.17
611.44	1638.78
611.79	1630.75
612.14	1622.04
612.49	1612.95
612.83	1604.70
613.18	1596.61
613.53	1588.53
613.88	1580.03
614.22	1571.90
614.57	1563.35
614.92	1555.27
615.27	1547.58
615.61	1539.21
615.96	1531.17
616.31	1523.64
616.65	1516.31
617.00	1508.57
617.35	1500.96
617.70	1492.63
618.04	1484.14
618.39	1476.02
618.74	1468.40
619.08	1460.12
619.43	1452.63
619.78	1445.68
620.12	1438.48
620.47	1430.90
620.82	1422.79
621.16	1415.46
621.51	1407.96
621.85	1400.38
622.20	1391.84
622.55	1383.68
622.89	1375.93
623.24	1368.39
623.59	1361.09
623.93	1353.50
624.28	1346.55
624.62	1339.07
624.97	1331.99
625.32	1325.20
625.66	1318.14
626.01	1311.01
626.35	1303.52
626.70	1295.76
627.04	1288.03
627.39	1280.25
627.73	1272.96
628.08	1266.00
628.43	1258.65
628.77	1251.11
629.12	1243.57
629.46	1236.44
629.81	1228.97
630.15	1221.63
630.50	1214.18
630.84	1205.80
631.19	1197.93
631.53	1190.38
631.88	1182.90
632.22	1175.31
632.57	1167.96
632.91	1160.45
633.26	1152.95
633.60	1145.60
633.95	1138.41
634.29	1131.40
634.64	1124.80
634.98	1117.46
635.32	1110.29
635.67	1103.73
636.01	1097.17
636.36	1090.27
636.70	1083.76
637.05	1077.18
637.39	1070.80
637.73	1064.40
638.08	1058.56
638.42	1052.63
638.77	1046.14
639.11	1039.43
639.45	1032.97
639.80	1026.28
640.14	1019.74
640.49	1013.21
640.83	1006.87
641.17	1000.62
641.52	994.22
641.86	987.66
642.20	981.70
642.55	975.39
642.89	968.87
643.23	962.37
643.58	956.74
643.92	950.54
644.26	944.45
644.61	938.46
644.95	932.27
645.29	925.74
645.64	918.93
645.98	912.59
646.32	906.84
646.66	900.81
647.01	895.08
647.35	889.43
647.69	883.57
648.04	878.17
648.38	872.40
648.72	866.40
649.06	860.35
649.41	854.53
649.75	848.61
650.09	842.69
650.43	836.88
650.78	830.65
651.12	824.72
651.46	819.06
651.80	813.21
652.14	807.95
652.49	802.46
652.83	797.25
653.17	791.47
653.51	785.67
653.85	780.29
654.20	774.62
654.54	768.65
654.88	762.95
655.22	756.97
655.56	751.27
655.90	745.90
656.25	740.66
656.59	735.23
656.93	730.17
657.27	724.89
657.61	719.42
657.95	714.33
658.29	709.20
658.64	703.93
658.98	698.72
659.32	693.18
659.66	688.01
660.00	682.76
660.34	677.91
660.68	672.96
661.02	667.95
661.36	663.23
661.70	658.72
662.05	654.33
662.39	649.98
662.73	645.55
663.07	641.17
663.41	636.69
663.75	632.22
664.09	627.66
664.43	623.32
664.77	619.21
665.11	614.95
665.45	610.94
665.79	606.81
666.13	602.66
666.47	598.61
666.81	594.50
667.15	590.38
667.49	586.43
667.83	582.72
668.17	578.75
668.51	574.72
668.85	570.68
669.19	566.89
669.53	563.03
669.87	559.12
670.21	555.37
670.55	551.73
670.89	548.30
671.23	544.90
671.57	541.42
671.91	537.89
672.25	534.40
672.58	530.85
672.92	527.46
673.26	524.29
673.60	521.13
673.94	518.00
674.28	515.11
674.62	512.20
674.96	509.09
675.30	506.20
675.64	503.25
675.97	500.47
676.31	497.60
676.65	494.73
676.99	492.07
677.33	489.23
677.67	486.44
678.01	483.44
678.34	480.41
678.68	477.58
679.02	474.73
679.36	471.99
679.70	469.26
680.04	466.47
680.37	463.60
680.71	460.80
681.05	458.19
681.39	455.44
681.73	452.74
682.06	450.17
682.40	447.61
682.74	445.08
683.08	442.57
683.42	439.96
683.75	437.45
684.09	434.88
684.43	432.39
684.77	429.94
685.10	427.58
685.44	425.28
685.78	422.99
686.12	420.77
686.45	418.45
686.79	416.12
687.13	413.96
687.46	411.80
687.80	409.68
688.14	407.45
688.48	405.40
688.81	403.17
689.15	400.98
689.49	398.83
689.82	396.75
690.16	394.65
690.50	392.76
690.83	390.77
691.17	388.74
691.51	386.83
691.84	385.00
692.18	383.06
692.52	381.03
692.85	379.06
693.19	377.20
693.52	375.37
693.86	373.51
694.20	371.70
694.53	369.88
694.87	368.03
695.21	366.25
695.54	364.41
695.88	362.69
696.21	361.00
696.55	359.32
696.88	357.63
697.22	355.96
697.56	354.31
697.89	352.70
698.23	351.17
698.56	349.56
698.90	347.95
699.23	346.32
699.57	344.79
699.90	343.23
700.24	341.65
700.58	340.12
700.91	338.66
701.25	337.24
701.58	335.87
701.92	334.44
702.25	333.07
702.59	331.68
702.92	330.34
703.26	329.04
703.59	327.77
703.93	326.56
704.26	325.33
704.60	324.05
704.93	322.79
705.26	321.51
705.60	320.34
705.93	319.20
706.27	318.17
706.60	317.17
706.94	316.10
707.27	314.99
707.61	313.92
707.94	312.91
708.27	311.84
708.61	310.75
708.94	309.78
709.28	308.80
709.61	307.89
709.94	306.99
710.28	305.95
710.61	304.98
710.95	303.94
711.28	303.02
711.61	302.04
711.95	301.10
712.28	300.17
712.61	299.17
712.95	298.24
713.28	297.37
713.61	296.46
713.95	295.56
714.28	294.72
714.61	293.87
714.95	293.04
715.28	292.18
715.61	291.30
715.95	290.43
716.28	289.59
716.61	288.71
716.95	287.90
717.28	287.15
717.61	286.36
717.94	285.62
718.28	284.78
718.61	284.08
718.94	283.35
719.27	282.67
719.61	282.02
719.94	281.38
720.27	280.64
720.60	279.94
720.94	279.28
721.27	278.69
721.60	278.11
721.93	277.46
722.27	276.89
722.60	276.35
722.93	275.79
723.26	275.22
723.59	274.68
723.93	274.10
724.26	273.55
724.59	272.98
724.92	272.47
725.25	271.98
725.59	271.45
725.92	270.96
726.25	270.44
726.58	269.94
726.91	269.39
727.24	268.92
727.57	268.47
727.91	267.97
728.24	267.46
728.57	266.95
728.90	266.52
729.23	266.03
729.56	265.61
729.89	265.16
730.22	264.64
730.55	264.15
730.89	263.70
731.22	263.26
731.55	262.83
731.88	262.38
732.21	261.97
732.54	261.54
732.87	261.12
733.20	260.71
733.53	260.33
733.86	259.96
734.19	259.59
734.52	259.20
734.85	258.92
735.18	258.54
735.51	258.20
735.84	257.85
736.17	257.51
736.50	257.11
736.83	256.86
737.16	256.56
737.49	256.23
737.82	255.90
738.15	255.57
738.48	255.25
738.81	254.95
739.14	254.61
739.47	254.31
739.80	253.97
740.13	253.67
740.46	253.36
740.79	253.04
741.12	252.70
741.45	252.39
741.78	252.02
742.11	251.73
742.44	251.40
742.77	251.10
743.10	250.77
743.43	250.48
743.75	250.13
744.08	250.02
744.41	249.75
744.74	249.47
745.07	249.20
745.40	248.94
745.73	248.70
746.06	248.46
746.39	248.21
746.71	247.94
747.04	247.70
747.37	247.44
747.70	247.22
748.03	247.01
748.36	246.77
748.68	246.52
749.01	246.30
749.34	246.06
749.67	245.83
750.00	245.62
750.33	245.46
750.65	245.21
750.98	244.83
751.31	244.62
751.64	244.45
751.97	244.28
752.29	244.08
752.62	243.82
752.95	243.59
753.28	243.37
753.60	243.17
753.93	242.97
754.26	242.77
754.59	242.53
754.91	242.27
755.24	242.10
755.57	241.91
755.90	241.68
756.22	241.48
756.55	241.26
756.88	241.04
757.20	240.82
757.53	240.65
757.86	240.50
758.19	240.33
758.51	240.16
758.84	239.93
759.17	239.73
759.49	239.57
759.82	239.44
760.15	239.30
760.47	239.18
760.80	239.00
761.13	238.84
761.45	238.68
761.78	238.60
762.11	238.42
762.43	238.31
762.76	238.17
763.08	238.05
763.41	237.90
763.74	237.77
764.06	237.58
764.39	237.40
764.71	237.22
765.04	237.06
765.37	236.90
765.69	236.76
766.02	236.64
766.34	236.53
766.67	236.36
767.00	236.22
767.32	236.12
767.65	236.03
767.97	235.96
768.30	235.86
768.62	235.72
768.95	235.61
769.27	235.47
769.60	235.42
769.92	235.29
770.25	235.22
770.57	235.11
770.90	235.01
771.22	234.90
771.55	234.83
771.87	234.73
772.20	234.63
772.52	234.65
772.85	234.70
773.17	234.58
773.50	234.48
773.82	234.41
774.15	234.27
774.47	234.14
774.80	234.02
775.12	233.94
775.45	233.85
775.77	233.78
776.09	233.72
776.42	233.60
776.74	233.58
777.07	233.49
777.39	233.41
777.72	233.35
778.04	233.34
778.36	233.29
778.69	233.26
779.01	233.21
779.33	233.04
779.66	232.84
779.98	232.78
780.31	232.74
780.63	232.73
780.95	232.71
781.28	232.64
781.60	232.60
781.92	232.53
782.25	232.47
782.57	232.43
782.89	232.35
783.22	232.28
783.54	232.23
783.86	232.18
784.19	232.12
784.51	232.10
784.83	232.01
785.16	231.95
785.48	231.92
785.80	231.88
786.12	231.85
786.45	231.82
786.77	231.79
787.09	231.74
787.42	231.65
787.74	231.62
788.06	231.57
788.38	231.54
788.71	231.49
789.03	231.49
789.35	231.43
789.67	231.40
789.99	231.41
790.32	231.33
790.64	231.29
790.96	231.37
791.28	231.30
791.61	231.29
791.93	231.27
792.25	231.23
792.57	231.25
792.89	231.24
793.21	231.22
793.54	231.15
793.86	231.12
794.18	231.08
794.50	231.00
794.82	230.99
795.14	230.96
795.47	230.95
795.79	230.88
796.11	230.84
796.43	230.79
796.75	230.72
797.07	230.68
797.39	230.63
797.71	230.52
798.04	230.48
798.36	230.43
798.68	230.39
799.00	230.34
799.32	230.25
799.64	230.17
799.96	230.14
800.28	230.14
800.60	230.09
800.92	230.08
801.24	230.04
801.56	230.03
801.89	229.98
802.21	229.94
802.53	229.83
802.85	229.84
803.17	229.82
803.49	229.76
803.81	229.71
804.13	229.70
804.45	229.62
804.77	229.61
805.09	229.59
805.41	229.57
805.73	229.49
806.05	229.45
806.37	229.43
806.69	229.37
807.01	229.35
807.33	229.33
807.65	229.26
807.97	229.27
808.28	229.23
808.60	229.19
808.92	229.16
809.24	229.24
809.56	229.19
809.88	229.15
810.20	229.16
810.52	229.17
810.84	229.13
811.16	229.10
811.48	229.05
811.80	229.03
812.12	228.96
812.43	228.99
812.75	228.99
813.07	228.93
813.39	228.96
813.71	228.91
814.03	228.86
814.35	228.86
814.67	228.81
814.98	228.79
815.30	228.75
815.62	228.72
815.94	228.65
816.26	228.65
816.58	228.62
816.89	228.62
817.21	228.57
817.53	228.53
817.85	228.50
818.17	228.47
818.48	228.46
818.80	228.46
819.12	228.43
819.44	228.40
819.76	228.36
820.07	228.32
820.39	228.31
820.71	228.31
821.03	228.27
821.34	228.26
821.66	228.28
821.98	228.27
822.30	228.30
822.61	228.32
822.93	228.27
823.25	228.24
823.57	228.20
823.88	228.22
824.20	228.23
824.52	228.24
824.83	228.23
825.15	228.22
825.47	228.24
825.79	228.22
826.10	228.22
826.42	228.23
826.74	228.22
827.05	228.20
827.37	228.20
827.69	228.19
828.00	228.17
828.32	228.15
828.64	228.15
828.95	228.15
829.27	228.12
829.58	228.10
829.90	228.12
830.22	228.11
830.53	228.09
830.85	228.09
831.17	228.05
831.48	228.08
831.80	228.04
832.11	228.00
832.43	227.95
832.75	227.95
833.06	228.02
833.38	227.99
833.69	227.98
834.01	227.96
834.32	227.95
834.64	227.93
834.96	227.90
835.27	227.89
835.59	227.87
835.90	227.85
836.22	227.86
836.53	227.82
836.85	227.83
837.16	227.90
837.48	227.87
837.79	227.92
838.11	227.89
838.42	227.87
838.74	227.88
839.05	227.88
839.37	227.85
839.68	227.73
840.00	227.72
840.31	227.74
840.63	227.74
840.94	227.73
841.26	227.73
841.57	227.71
841.88	227.73
842.20	227.71
842.51	227.66
842.83	227.64
843.14	227.72
843.46	227.72
843.77	227.66
844.08	227.67
844.40	227.61
844.71	227.59
845.03	227.58
845.34	227.59
845.65	227.58
845.97	227.58
846.28	227.60
846.60	227.62
846.91	227.61
847.22	227.60
847.54	227.63
847.85	227.62
848.16	227.63
848.48	227.58
848.79	227.59
849.10	227.64
849.42	227.64
849.73	227.57
850.04	227.57
850.36	227.53
850.67	227.53
850.98	227.51
851.30	227.53
851.61	227.54
851.92	227.46
852.23	227.51
852.55	227.54
852.86	227.56
853.17	227.55
853.49	227.57
853.80	227.56
854.11	227.53
854.42	227.56
854.74	227.51
855.05	227.54
855.36	227.52
855.67	227.51
855.99	227.51
856.30	227.64
856.61	227.62
856.92	227.63
857.23	227.63
857.55	227.65
857.86	227.65
858.17	227.66
858.48	227.66
858.79	227.63
859.11	227.61
859.42	227.61
859.73	227.60
860.04	227.58
860.35	227.59
860.66	227.56
860.98	227.55
861.29	227.61
861.60	227.56
861.91	227.57
862.22	227.54
862.53	227.53
862.84	227.43
863.16	227.46
863.47	227.44
863.78	227.44
864.09	227.43
864.40	227.41
864.71	227.43
865.02	227.47
865.33	227.47
865.64	227.45
865.95	227.41
866.27	227.48
866.58	227.48
866.89	227.46
867.20	227.47
867.51	227.48
867.82	227.44
868.13	227.48
868.44	227.47
868.75	227.51
869.06	227.52
869.37	227.50
869.68	227.45
869.99	227.47
870.30	227.46
870.61	227.48
870.92	227.46
871.23	227.44
871.54	227.44
871.85	227.46
872.16	227.46
872.47	227.46
872.78	227.37
873.09	227.34
873.40	227.35
873.71	227.39
874.02	227.34
874.33	227.35
874.64	227.33
874.95	227.31
875.26	227.27
875.56	227.27
875.87	227.24
876.18	227.24
876.49	227.33
876.80	227.29
877.11	227.28
877.42	227.29
877.73	227.30
878.04	227.27
878.35	227.28
878.66	227.29
878.96	227.29
879.27	227.29
879.58	227.28
879.89	227.26
880.20	227.27
880.51	227.28
880.82	227.25
881.12	227.22
881.43	227.23
881.74	227.24
882.05	227.21
882.36	227.21
882.67	227.20
882.97	227.11
883.28	227.12
883.59	227.11
883.90	227.10
884.21	227.10
884.51	227.09
884.82	227.06
885.13	227.05
885.44	227.06
885.74	227.05
886.05	227.09
886.36	227.08
886.67	227.04
886.98	227.08
887.28	227.07
887.59	227.06
887.90	227.06
888.20	227.04
888.51	227.08
888.82	227.08
889.13	227.09
889.43	227.12
889.74	227.11
890.05	227.11
890.35	227.11
890.66	227.09
890.97	227.08
891.28	227.07
891.58	227.05
891.89	227.04
892.20	227.04
892.50	227.02
892.81	227.01
893.12	226.98
893.42	226.95
893.73	226.96
894.04	227.00
894.34	226.97
894.65	226.97
894.95	226.93
895.26	226.93
895.57	226.97
895.87	226.90
896.18	226.92
896.48	226.91
896.79	226.91
897.10	226.94
897.40	226.92
897.71	226.92
898.01	226.91
898.32	226.92
898.63	226.90
898.93	226.91
899.24	226.92
899.54	226.93
899.85	226.90
900.15	226.89
900.46	226.87
900.76	226.90
901.07	226.87
901.38	226.86
901.68	226.85
901.99	226.82
902.29	226.82
902.60	226.83
902.90	226.83
903.21	226.85
903.51	226.83
903.82	226.88
904.12	226.88
904.43	226.90
904.73	226.91
905.03	226.94
905.34	227.01
905.64	227.01
905.95	227.03
906.25	227.03
906.56	227.05
906.86	227.06
907.17	227.05
907.47	227.10
907.77	227.11
908.08	227.13
908.38	227.15
908.69	227.19
908.99	227.21
909.30	227.21
909.60	227.21
909.90	227.25
910.21	227.23
910.51	227.27
910.81	227.28
911.12	227.29
911.42	227.31
911.73	227.22
912.03	227.24
912.33	227.22
912.64	227.25
912.94	227.22
913.24	227.19
913.55	227.19
913.85	227.17
914.15	227.22
914.46	227.20
914.76	227.16
915.06	227.13
915.37	227.12
915.67	227.09
915.97	227.08
916.27	227.06
916.58	227.03
916.88	227.01
917.18	226.98
917.49	227.05
917.79	227.01
918.09	227.02
918.39	227.03
918.70	227.05
919.00	227.01
919.30	227.10
919.60	227.11
919.91	227.11
920.21	227.11
920.51	227.08
920.81	227.08
921.12	227.12
921.42	227.12
921.72	227.09
922.02	227.11
922.32	227.11
922.63	227.09
922.93	227.14
923.23	227.15
923.53	227.14
923.83	227.06
924.13	227.06
924.44	227.03
924.74	227.06
925.04	227.07
925.34	227.09
925.64	227.01
925.94	227.02
926.24	227.03
926.55	227.03
926.85	227.03
927.15	227.01
927.45	226.98
927.75	227.00
928.05	227.01
928.35	226.99
928.65	227.00
928.95	226.96
929.26	226.94
929.56	226.93
929.86	226.92
930.16	226.89
930.46	226.88
930.76	226.89
931.06	226.82
931.36	226.76
931.66	226.80
931.96	226.83
932.26	226.81
932.56	226.76
932.86	226.77
933.16	226.77
933.46	226.78
933.76	226.79
934.06	226.79
934.36	226.84
934.66	226.83
934.96	226.81
935.26	226.85
935.56	226.83
935.86	226.83
936.16	226.85
936.46	226.85
936.76	226.87
937.06	226.85
937.36	226.88
937.66	226.91
937.96	226.88
938.26	226.85
938.56	226.85
938.86	226.90
939.16	226.90
939.46	226.91
939.76	226.91
940.06	226.93
940.35	226.92
940.65	226.90
940.95	226.92
941.25	226.93
941.55	226.94
941.85	226.94
942.15	226.95
942.45	226.97
942.75	226.98
943.04	227.00
943.34	227.05
943.64	227.02
943.94	227.01
944.24	227.01
944.54	227.01
944.84	227.01
945.13	226.98
945.43	226.95
945.73	226.96
946.03	226.96
946.33	226.93
946.62	226.94
946.92	226.91
947.22	226.92
947.52	226.92
947.82	226.92
948.11	226.93
948.41	226.90
948.71	226.90
949.01	226.91
949.31	226.88
949.60	226.86
949.90	226.91
950.20	226.92
950.50	226.91
950.79	226.90
951.09	226.91
951.39	226.89
951.69	226.91
951.98	226.90
952.28	226.90
952.58	226.87
952.87	226.85
953.17	226.87
953.47	226.83
953.76	226.82
954.06	226.80
954.36	226.76
954.66	226.74
954.95	226.74
955.25	226.74
955.55	226.74
955.84	226.69
956.14	226.64
956.44	226.63
956.73	226.61
957.03	226.63
957.32	226.64
957.62	226.64
957.92	226.68
958.21	226.64
958.51	226.73
958.81	226.77
959.10	226.79
959.40	226.80
959.69	226.83
959.99	226.79
960.29	226.77
960.58	226.77
960.88	226.81
961.17	226.82
961.47	226.83
961.76	226.84
962.06	226.85
962.36	226.83
962.65	226.82
962.95	226.80
963.24	226.82
963.54	226.79
963.83	226.78
964.13	226.75
964.42	226.75
964.72	226.67
965.01	226.64
965.31	226.62
965.60	226.57
965.90	226.63
966.19	226.64
966.49	226.70
966.78	226.69
967.08	226.68
967.37	226.66
967.67	226.64
967.96	226.62
968.26	226.66
968.55	226.69
968.85	226.70
969.14	226.72
969.43	226.68
969.73	226.72
970.02	226.72
970.32	226.70
970.61	226.74
970.91	226.72
971.20	226.74
971.49	226.74
971.79	226.77
972.08	226.69
972.38	226.70
972.67	226.65
972.96	226.68
973.26	226.67
973.55	226.70
973.85	226.68
974.14	226.71
974.43	226.70
974.73	226.67
975.02	226.66
975.31	226.67
975.61	226.69
975.90	226.68
976.19	226.67
976.49	226.68
976.78	226.69
977.07	226.69
977.37	226.69
977.66	226.71
977.95	226.72
978.24	226.74
978.54	226.79
978.83	226.81
979.12	226.80
979.42	226.82
979.71	226.79
980.00	226.82
980.29	226.82
980.59	226.81
980.88	226.88
981.17	226.89
981.46	226.89
981.76	226.88
982.05	226.93
982.34	226.95
982.63	226.94
982.93	226.95
983.22	226.99
983.51	226.98
983.80	226.99
984.09	226.98
984.39	226.95
984.68	226.91
984.97	226.89
985.26	226.90
985.55	226.90
985.85	226.90
986.14	226.89
986.43	226.88
986.72	226.87
987.01	226.83
987.30	226.82
987.59	226.80
987.89	226.82
988.18	226.76
988.47	226.72
988.76	226.73
989.05	226.67
989.34	226.65
989.63	226.66
989.92	226.65
990.22	226.63
990.51	226.66
990.80	226.69
991.09	226.67
991.38	226.66
991.67	226.61
991.96	226.59
992.25	226.61
992.54	226.58
992.83	226.60
993.12	226.62
993.41	226.61
993.70	226.64
993.99	226.62
994.28	226.63
994.58	226.67
994.87	226.63
995.16	226.66
995.45	226.64
995.74	226.59
996.03	226.59
996.32	226.59
996.61	226.63
996.90	226.60
997.19	226.61
997.48	226.64
997.77	226.61
998.06	226.60
998.34	226.57
998.63	226.55
998.92	226.53
999.21	226.53
999.50	226.54
999.79	226.51
1000.08	226.53
1000.37	226.54
1000.66	226.53
1000.95	226.56
1001.24	226.55
1001.53	226.55
1001.82	226.57
1002.11	226.56
1002.40	226.58
1002.68	226.54
1002.97	226.58
1003.26	226.58
1003.55	226.56
1003.84	226.61
1004.13	226.64
1004.42	226.66
1004.71	226.66
1004.99	226.66
1005.28	226.68
1005.57	226.67
1005.86	226.68
1006.15	226.66
1006.44	226.65
1006.72	226.67
1007.01	226.66
1007.30	226.68
1007.59	226.69
1007.88	226.68
1008.17	226.70
1008.45	226.63
1008.74	226.62
1009.03	226.63
1009.32	226.63
1009.60	226.60
1009.89	226.59
1010.18	226.57
1010.47	226.57
1010.76	226.61
1011.04	226.61
1011.33	226.63
1011.62	226.62
1011.91	226.61
1012.19	226.60
1012.48	226.60
1012.77	226.56
1013.05	226.61
1013.34	226.55
1013.63	226.55
1013.92	226.56
1014.20	226.54
1014.49	226.59
1014.78	226.61
1015.06	226.55
1015.35	226.56
1015.64	226.56
1015.92	226.60
1016.21	226.61
1016.50	226.58
1016.78	226.57
1017.07	226.57
1017.36	226.52
1017.64	226.54
1017.93	226.55
1018.22	226.59
1018.50	226.58
1018.79	226.59
1019.08	226.54
1019.36	226.58
1019.65	226.57
1019.93	226.62
1020.22	226.63
1020.51	226.67
1020.79	226.67
1021.08	226.99
1021.36	226.26
1021.65	226.43
1021.94	226.55
1022.22	226.56
1022.51	226.47
1022.79	227.50
1023.08	226.75
1023.36	227.70
1023.65	226.78
>>>>>End Processed Spectral Data<<<<<
