SpectraSuite Data File
++++++++++++++++++++++++++++++++++++
Date: Fri Feb 01 17:12:22 EST 2013
User: group
Dark Spectrum Present: No
Reference Spectrum Present: No
Number of Sampled Component Spectra: 1
Spectrometers: USB2E7196
Integration Time (usec): 35000 (USB2E7196)
Spectra Averaged: 100 (USB2E7196)
Boxcar Smoothing: 10 (USB2E7196)
Correct for Electrical Dark: No (USB2E7196)
Strobe/Lamp Enabled: No (USB2E7196)
Correct for Detector Non-linearity: No (USB2E7196)
Correct for Stray Light: No (USB2E7196)
Number of Pixels in Processed Spectrum: 2048
>>>>>Begin Processed Spectral Data<<<<<
339.09	0.00
339.48	213.47
339.86	215.04
340.24	216.43
340.63	217.73
341.01	219.83
341.39	219.94
341.78	221.91
342.16	222.88
342.54	222.73
342.93	211.76
343.31	222.46
343.69	222.98
344.07	223.41
344.46	223.81
344.84	224.16
345.22	224.43
345.60	224.68
345.99	224.85
346.37	224.98
346.75	225.10
347.13	225.16
347.52	225.23
347.90	225.35
348.28	225.34
348.66	225.38
349.05	225.38
349.43	225.41
349.81	225.44
350.19	225.45
350.57	225.51
350.96	225.58
351.34	225.64
351.72	225.72
352.10	225.81
352.48	225.86
352.87	225.93
353.25	226.00
353.63	226.06
354.01	226.15
354.39	226.22
354.77	226.30
355.15	226.40
355.54	226.44
355.92	226.45
356.30	226.53
356.68	226.66
357.06	226.72
357.44	226.77
357.82	226.81
358.20	226.90
358.58	226.97
358.97	227.02
359.35	227.13
359.73	227.25
360.11	227.28
360.49	227.36
360.87	227.40
361.25	227.42
361.63	227.50
362.01	227.52
362.39	227.53
362.77	227.57
363.15	227.60
363.53	227.66
363.91	227.69
364.29	227.71
364.67	227.66
365.05	227.68
365.43	227.69
365.81	227.73
366.19	227.78
366.57	227.82
366.95	227.81
367.33	227.78
367.71	227.75
368.09	227.81
368.47	227.77
368.85	227.73
369.23	227.74
369.61	227.72
369.99	227.75
370.37	227.73
370.75	227.72
371.13	227.67
371.51	227.61
371.89	227.57
372.27	227.56
372.65	227.51
373.03	227.44
373.41	227.38
373.78	227.33
374.16	227.22
374.54	227.12
374.92	227.05
375.30	226.97
375.68	226.90
376.06	226.88
376.44	226.84
376.82	226.81
377.19	226.74
377.57	226.65
377.95	226.53
378.33	226.50
378.71	226.40
379.09	226.34
379.47	226.31
379.84	226.24
380.22	226.14
380.60	226.05
380.98	226.01
381.36	225.96
381.73	225.87
382.11	225.82
382.49	225.78
382.87	225.71
383.25	225.67
383.62	225.72
384.00	225.61
384.38	225.54
384.76	225.51
385.13	225.51
385.51	225.45
385.89	225.40
386.27	225.33
386.64	225.32
387.02	225.23
387.40	225.19
387.78	225.16
388.15	225.14
388.53	225.10
388.91	225.06
389.29	225.05
389.66	225.03
390.04	224.99
390.42	224.96
390.79	224.95
391.17	224.91
391.55	224.76
391.92	224.77
392.30	224.78
392.68	224.75
393.05	224.74
393.43	224.76
393.81	224.76
394.18	224.76
394.56	224.77
394.94	224.82
395.31	224.79
395.69	224.85
396.06	224.88
396.44	224.93
396.82	224.95
397.19	225.02
397.57	225.06
397.95	225.13
398.32	225.15
398.70	225.20
399.07	225.26
399.45	225.34
399.82	225.39
400.20	225.44
400.58	225.49
400.95	225.49
401.33	225.56
401.70	225.72
402.08	225.80
402.45	225.87
402.83	225.99
403.20	226.11
403.58	226.18
403.95	226.26
404.33	226.38
404.71	226.48
405.08	226.67
405.46	226.79
405.83	226.92
406.21	227.08
406.58	227.23
406.96	227.39
407.33	227.56
407.70	227.72
408.08	227.96
408.45	228.18
408.83	228.42
409.20	228.62
409.58	228.78
409.95	229.05
410.33	229.31
410.70	229.55
411.08	229.83
411.45	230.14
411.82	230.48
412.20	230.84
412.57	231.26
412.95	231.52
413.32	231.92
413.69	232.35
414.07	232.80
414.44	233.25
414.82	233.74
415.19	234.30
415.56	234.89
415.94	235.44
416.31	236.07
416.68	236.69
417.06	237.44
417.43	238.12
417.81	238.87
418.18	239.68
418.55	240.49
418.93	241.36
419.30	242.25
419.67	243.18
420.04	244.13
420.42	245.12
420.79	246.30
421.16	247.45
421.54	248.64
421.91	249.85
422.28	251.16
422.66	252.52
423.03	253.84
423.40	255.16
423.77	256.62
424.15	258.07
424.52	259.61
424.89	261.19
425.26	262.78
425.64	264.24
426.01	265.83
426.38	267.52
426.75	269.23
427.13	270.99
427.50	272.83
427.87	274.72
428.24	276.63
428.61	278.43
428.99	280.41
429.36	282.52
429.73	284.61
430.10	286.65
430.47	288.72
430.85	290.87
431.22	293.16
431.59	295.53
431.96	297.74
432.33	300.25
432.70	302.69
433.08	305.53
433.45	308.23
433.82	310.85
434.19	313.73
434.56	316.58
434.93	319.24
435.30	321.87
435.68	324.80
436.05	327.63
436.42	330.41
436.79	332.97
437.16	335.72
437.53	338.61
437.90	341.45
438.27	344.22
438.64	347.10
439.01	349.71
439.38	352.01
439.75	354.25
440.13	356.78
440.50	359.12
440.87	360.94
441.24	362.87
441.61	365.09
441.98	366.65
442.35	368.45
442.72	370.33
443.09	372.15
443.46	373.18
443.83	373.79
444.20	374.36
444.57	375.22
444.94	375.51
445.31	375.85
445.68	376.25
446.05	376.35
446.42	375.93
446.79	375.52
447.16	375.06
447.53	374.74
447.90	373.59
448.27	372.49
448.64	371.01
449.01	369.89
449.37	367.91
449.74	366.02
450.11	363.83
450.48	361.36
450.85	358.83
451.22	356.69
451.59	354.70
451.96	352.77
452.33	350.12
452.70	347.75
453.07	344.90
453.43	341.93
453.80	339.12
454.17	336.45
454.54	333.87
454.91	331.12
455.28	328.45
455.65	325.91
456.02	323.41
456.38	321.16
456.75	318.46
457.12	316.20
457.49	313.94
457.86	311.70
458.23	309.81
458.59	307.75
458.96	305.63
459.33	303.73
459.70	301.80
460.07	300.29
460.43	298.54
460.80	296.91
461.17	295.45
461.54	293.93
461.91	292.45
462.27	290.99
462.64	289.76
463.01	288.39
463.38	287.08
463.74	285.68
464.11	284.53
464.48	283.52
464.85	282.41
465.21	281.56
465.58	280.61
465.95	279.52
466.32	278.60
466.68	277.71
467.05	276.79
467.42	275.90
467.78	274.95
468.15	274.09
468.52	273.46
468.88	272.58
469.25	271.81
469.62	271.21
469.98	270.54
470.35	269.88
470.72	269.26
471.08	268.61
471.45	268.06
471.82	267.50
472.18	266.89
472.55	266.45
472.92	265.88
473.28	265.44
473.65	264.97
474.02	264.52
474.38	264.13
474.75	263.80
475.11	263.47
475.48	263.24
475.85	262.99
476.21	262.72
476.58	262.53
476.94	262.39
477.31	262.21
477.67	262.11
478.04	261.98
478.41	261.95
478.77	261.98
479.14	261.92
479.50	261.97
479.87	261.99
480.23	262.09
480.60	262.20
480.96	262.28
481.33	262.50
481.69	262.72
482.06	262.92
482.42	263.11
482.79	263.37
483.15	263.66
483.52	264.05
483.88	264.42
484.25	264.85
484.61	265.26
484.98	265.74
485.34	266.28
485.71	266.89
486.07	267.51
486.44	268.08
486.80	268.80
487.17	269.52
487.53	270.40
487.90	271.24
488.26	272.16
488.62	273.16
488.99	274.15
489.35	275.20
489.72	276.33
490.08	277.54
490.44	278.75
490.81	280.08
491.17	281.44
491.54	282.91
491.90	284.41
492.26	286.07
492.63	287.83
492.99	289.60
493.36	291.48
493.72	293.49
494.08	295.57
494.45	297.84
494.81	300.21
495.17	302.63
495.54	305.20
495.90	307.93
496.26	310.72
496.63	313.68
496.99	316.81
497.35	320.06
497.72	323.51
498.08	327.02
498.44	330.73
498.80	334.66
499.17	338.65
499.53	342.82
499.89	347.19
500.26	351.64
500.62	356.26
500.98	361.24
501.34	366.25
501.71	371.63
502.07	377.01
502.43	382.62
502.79	388.42
503.16	394.46
503.52	400.68
503.88	407.08
504.24	413.65
504.60	420.48
504.97	427.54
505.33	434.73
505.69	442.40
506.05	450.09
506.41	457.94
506.78	466.09
507.14	474.48
507.50	483.11
507.86	492.08
508.22	501.17
508.59	510.28
508.95	519.77
509.31	529.48
509.67	539.45
510.03	549.56
510.39	560.05
510.75	570.67
511.12	581.43
511.48	592.59
511.84	603.93
512.20	615.21
512.56	627.09
512.92	639.18
513.28	651.35
513.64	663.63
514.00	676.20
514.37	688.90
514.73	701.87
515.09	714.65
515.45	727.64
515.81	741.05
516.17	754.79
516.53	768.69
516.89	782.70
517.25	796.75
517.61	810.91
517.97	825.05
518.33	839.24
518.69	853.79
519.05	868.40
519.41	883.25
519.77	898.53
520.13	913.63
520.49	928.78
520.85	943.79
521.21	959.16
521.57	974.98
521.93	990.49
522.29	1006.42
522.65	1022.37
523.01	1038.37
523.37	1054.14
523.73	1069.98
524.09	1085.84
524.45	1101.63
524.81	1117.84
525.17	1134.28
525.53	1150.79
525.89	1167.34
526.25	1183.88
526.61	1199.93
526.97	1216.32
527.33	1232.54
527.68	1248.77
528.04	1264.77
528.40	1281.11
528.76	1297.82
529.12	1314.14
529.48	1330.64
529.84	1346.40
530.20	1362.66
530.56	1379.21
530.91	1396.23
531.27	1412.78
531.63	1428.89
531.99	1445.24
532.35	1461.06
532.71	1476.78
533.07	1492.71
533.42	1508.46
533.78	1524.17
534.14	1540.25
534.50	1555.46
534.86	1571.03
535.21	1585.96
535.57	1601.55
535.93	1616.73
536.29	1631.28
536.65	1645.99
537.00	1660.47
537.36	1675.48
537.72	1689.87
538.08	1704.19
538.44	1717.67
538.79	1731.23
539.15	1744.51
539.51	1757.92
539.87	1771.94
540.22	1785.28
540.58	1798.86
540.94	1811.70
541.29	1824.23
541.65	1836.50
542.01	1849.35
542.37	1861.43
542.72	1873.56
543.08	1885.29
543.44	1897.50
543.79	1908.77
544.15	1919.69
544.51	1931.15
544.87	1942.04
545.22	1952.81
545.58	1962.96
545.94	1972.84
546.29	1982.65
546.65	1992.68
547.01	2002.18
547.36	2010.84
547.72	2019.40
548.07	2027.45
548.43	2035.63
548.79	2043.58
549.14	2051.51
549.50	2058.88
549.86	2066.54
550.21	2073.98
550.57	2081.36
550.92	2088.17
551.28	2095.30
551.64	2102.42
551.99	2109.15
552.35	2115.42
552.70	2121.62
553.06	2127.76
553.41	2134.14
553.77	2140.19
554.13	2146.21
554.48	2152.24
554.84	2157.93
555.19	2163.25
555.55	2168.42
555.90	2173.22
556.26	2178.53
556.61	2183.26
556.97	2188.04
557.32	2192.43
557.68	2196.72
558.03	2200.96
558.39	2204.73
558.74	2209.39
559.10	2213.47
559.45	2217.19
559.81	2221.48
560.16	2225.44
560.52	2228.76
560.87	2232.35
561.23	2235.33
561.58	2238.47
561.94	2241.19
562.29	2243.68
562.64	2246.82
563.00	2249.51
563.35	2253.12
563.71	2256.37
564.06	2259.63
564.42	2262.59
564.77	2265.56
565.12	2268.21
565.48	2270.54
565.83	2272.75
566.19	2274.54
566.54	2275.65
566.89	2277.03
567.25	2278.03
567.60	2279.66
567.96	2281.71
568.31	2282.65
568.66	2284.06
569.02	2284.94
569.37	2285.68
569.72	2286.92
570.08	2287.25
570.43	2287.56
570.78	2287.37
571.14	2286.19
571.49	2285.21
571.84	2284.93
572.20	2283.95
572.55	2283.12
572.90	2281.69
573.26	2280.63
573.61	2278.81
573.96	2277.49
574.31	2274.84
574.67	2272.13
575.02	2268.62
575.37	2265.23
575.72	2261.98
576.08	2258.70
576.43	2255.56
576.78	2252.22
577.13	2249.06
577.49	2246.04
577.84	2242.95
578.19	2239.33
578.54	2235.86
578.90	2232.11
579.25	2227.00
579.60	2222.29
579.95	2217.56
580.30	2212.76
580.66	2207.66
581.01	2202.96
581.36	2198.06
581.71	2194.28
582.06	2190.06
582.42	2186.01
582.77	2181.22
583.12	2176.81
583.47	2172.47
583.82	2167.90
584.17	2162.79
584.53	2157.56
584.88	2152.30
585.23	2146.80
585.58	2141.57
585.93	2136.46
586.28	2131.52
586.63	2126.66
586.98	2121.70
587.34	2117.08
587.69	2112.16
588.04	2107.26
588.39	2102.05
588.74	2095.65
589.09	2089.52
589.44	2083.09
589.79	2077.01
590.14	2071.41
590.49	2064.94
590.84	2058.57
591.19	2052.68
591.54	2046.39
591.89	2039.41
592.25	2032.91
592.60	2025.85
592.95	2018.53
593.30	2011.33
593.65	2004.10
594.00	1997.19
594.35	1990.13
594.70	1982.23
595.05	1975.70
595.40	1968.62
595.75	1961.10
596.10	1955.28
596.45	1948.93
596.80	1942.80
597.15	1936.32
597.50	1929.72
597.85	1923.43
598.19	1916.96
598.54	1910.16
598.89	1903.70
599.24	1897.83
599.59	1891.38
599.94	1885.21
600.29	1878.95
600.64	1872.35
600.99	1865.02
601.34	1858.24
601.69	1851.32
602.04	1844.72
602.39	1837.25
602.74	1830.41
603.08	1823.79
603.43	1817.14
603.78	1809.63
604.13	1802.43
604.48	1795.45
604.83	1788.54
605.18	1781.80
605.53	1773.96
605.87	1765.85
606.22	1758.52
606.57	1750.48
606.92	1742.88
607.27	1735.68
607.62	1728.79
607.96	1721.66
608.31	1715.19
608.66	1707.75
609.01	1700.27
609.36	1692.75
609.70	1684.71
610.05	1676.65
610.40	1669.05
610.75	1660.69
611.10	1653.21
611.44	1644.75
611.79	1636.50
612.14	1627.76
612.49	1618.51
612.83	1610.03
613.18	1601.74
613.53	1593.68
613.88	1585.24
614.22	1576.96
614.57	1568.38
614.92	1560.31
615.27	1552.93
615.61	1544.60
615.96	1536.43
616.31	1528.71
616.65	1521.25
617.00	1513.64
617.35	1506.05
617.70	1497.87
618.04	1489.49
618.39	1481.12
618.74	1473.64
619.08	1465.44
619.43	1457.83
619.78	1450.79
620.12	1443.75
620.47	1436.32
620.82	1428.10
621.16	1420.60
621.51	1412.91
621.85	1405.28
622.20	1396.70
622.55	1388.08
622.89	1380.01
623.24	1372.30
623.59	1364.82
623.93	1357.19
624.28	1349.90
624.62	1342.23
624.97	1334.80
625.32	1327.76
625.66	1320.66
626.01	1313.44
626.35	1306.11
626.70	1298.22
627.04	1290.64
627.39	1282.69
627.73	1275.17
628.08	1268.28
628.43	1261.10
628.77	1253.85
629.12	1246.25
629.46	1239.12
629.81	1231.57
630.15	1224.47
630.50	1217.09
630.84	1208.87
631.19	1200.87
631.53	1193.42
631.88	1185.78
632.22	1178.12
632.57	1170.78
632.91	1163.18
633.26	1155.78
633.60	1148.16
633.95	1141.02
634.29	1133.74
634.64	1127.07
634.98	1119.72
635.32	1112.42
635.67	1105.62
636.01	1098.93
636.36	1092.22
636.70	1085.62
637.05	1079.05
637.39	1072.53
637.73	1066.02
638.08	1060.16
638.42	1054.18
638.77	1047.72
639.11	1041.28
639.45	1034.92
639.80	1028.22
640.14	1021.85
640.49	1015.28
640.83	1009.01
641.17	1002.87
641.52	996.63
641.86	990.05
642.20	984.17
642.55	977.80
642.89	971.41
643.23	964.72
643.58	958.88
643.92	952.79
644.26	946.84
644.61	940.67
644.95	934.64
645.29	928.12
645.64	921.37
645.98	915.00
646.32	908.97
646.66	902.92
647.01	897.10
647.35	891.42
647.69	885.48
648.04	879.85
648.38	873.92
648.72	867.95
649.06	861.92
649.41	855.94
649.75	850.03
650.09	844.04
650.43	838.36
650.78	832.18
651.12	826.11
651.46	820.31
651.80	814.76
652.14	809.27
652.49	803.87
652.83	798.69
653.17	793.10
653.51	787.44
653.85	781.90
654.20	776.35
654.54	770.27
654.88	764.43
655.22	758.56
655.56	752.85
655.90	747.35
656.25	742.18
656.59	736.84
656.93	731.66
657.27	726.48
657.61	720.97
657.95	715.81
658.29	710.68
658.64	705.30
658.98	699.81
659.32	694.33
659.66	689.09
660.00	683.80
660.34	678.72
660.68	673.72
661.02	668.72
661.36	664.00
661.70	659.56
662.05	655.33
662.39	651.08
662.73	646.63
663.07	642.16
663.41	637.65
663.75	633.24
664.09	628.68
664.43	624.25
664.77	620.12
665.11	615.91
665.45	611.78
665.79	607.79
666.13	603.71
666.47	599.65
666.81	595.48
667.15	591.30
667.49	587.41
667.83	583.59
668.17	579.73
668.51	575.66
668.85	571.58
669.19	567.63
669.53	563.82
669.87	559.96
670.21	556.26
670.55	552.66
670.89	549.14
671.23	545.80
671.57	542.30
671.91	538.80
672.25	535.27
672.58	531.77
672.92	528.34
673.26	525.10
673.60	521.88
673.94	518.84
674.28	515.95
674.62	513.05
674.96	509.93
675.30	506.99
675.64	504.09
675.97	501.30
676.31	498.43
676.65	495.48
676.99	492.78
677.33	489.97
677.67	487.13
678.01	484.15
678.34	481.14
678.68	478.25
679.02	475.49
679.36	472.64
679.70	469.91
680.04	467.19
680.37	464.41
680.71	461.59
681.05	458.88
681.39	456.14
681.73	453.38
682.06	450.88
682.40	448.35
682.74	445.72
683.08	443.12
683.42	440.49
683.75	437.92
684.09	435.27
684.43	432.78
684.77	430.29
685.10	427.86
685.44	425.47
685.78	423.12
686.12	420.77
686.45	418.48
686.79	416.20
687.13	413.92
687.46	411.76
687.80	409.65
688.14	407.37
688.48	405.26
688.81	403.02
689.15	400.88
689.49	398.69
689.82	396.60
690.16	394.50
690.50	392.52
690.83	390.57
691.17	388.57
691.51	386.63
691.84	384.78
692.18	382.89
692.52	381.04
692.85	379.10
693.19	377.21
693.52	375.38
693.86	373.48
694.20	371.69
694.53	369.80
694.87	367.90
695.21	366.09
695.54	364.24
695.88	362.55
696.21	360.83
696.55	359.12
696.88	357.43
697.22	355.69
697.56	354.02
697.89	352.38
698.23	350.77
698.56	349.13
698.90	347.49
699.23	345.86
699.57	344.24
699.90	342.67
700.24	341.13
700.58	339.60
700.91	338.14
701.25	336.64
701.58	335.29
701.92	333.94
702.25	332.56
702.59	331.20
702.92	329.81
703.26	328.43
703.59	327.10
703.93	325.93
704.26	324.75
704.60	323.52
704.93	322.22
705.26	321.00
705.60	319.80
705.93	318.62
706.27	317.55
706.60	316.47
706.94	315.39
707.27	314.27
707.61	313.18
707.94	312.10
708.27	311.01
708.61	309.90
708.94	308.85
709.28	307.89
709.61	306.93
709.94	305.97
710.28	304.97
710.61	304.00
710.95	302.89
711.28	301.95
711.61	301.03
711.95	300.14
712.28	299.20
712.61	298.20
712.95	297.31
713.28	296.39
713.61	295.49
713.95	294.59
714.28	293.72
714.61	292.84
714.95	291.96
715.28	291.13
715.61	290.30
715.95	289.43
716.28	288.52
716.61	287.64
716.95	286.80
717.28	286.03
717.61	285.25
717.94	284.52
718.28	283.73
718.61	282.95
718.94	282.19
719.27	281.52
719.61	280.91
719.94	280.20
720.27	279.48
720.60	278.81
720.94	278.20
721.27	277.59
721.60	277.06
721.93	276.47
722.27	275.91
722.60	275.30
722.93	274.74
723.26	274.21
723.59	273.67
723.93	273.13
724.26	272.58
724.59	272.02
724.92	271.44
725.25	270.93
725.59	270.38
725.92	269.91
726.25	269.39
726.58	268.88
726.91	268.38
727.24	267.90
727.57	267.43
727.91	266.89
728.24	266.39
728.57	265.88
728.90	265.44
729.23	264.94
729.56	264.53
729.89	264.04
730.22	263.58
730.55	263.11
730.89	262.65
731.22	262.23
731.55	261.79
731.88	261.36
732.21	260.94
732.54	260.51
732.87	260.03
733.20	259.58
733.53	259.19
733.86	258.83
734.19	258.46
734.52	258.08
734.85	257.78
735.18	257.39
735.51	257.01
735.84	256.60
736.17	256.24
736.50	255.84
736.83	255.64
737.16	255.29
737.49	254.97
737.82	254.60
738.15	254.21
738.48	253.86
738.81	253.55
739.14	253.19
739.47	252.90
739.80	252.61
740.13	252.32
740.46	251.98
740.79	251.61
741.12	251.28
741.45	250.94
741.78	250.58
742.11	250.34
742.44	249.99
742.77	249.74
743.10	249.47
743.43	249.18
743.75	248.78
744.08	248.62
744.41	248.30
744.74	248.05
745.07	247.81
745.40	247.57
745.73	247.36
746.06	247.09
746.39	246.82
746.71	246.57
747.04	246.29
747.37	246.02
747.70	245.82
748.03	245.57
748.36	245.34
748.68	245.13
749.01	244.84
749.34	244.65
749.67	244.38
750.00	244.15
750.33	243.99
750.65	243.82
750.98	243.48
751.31	243.29
751.64	243.08
751.97	242.92
752.29	242.71
752.62	242.46
752.95	242.24
753.28	242.00
753.60	241.81
753.93	241.63
754.26	241.44
754.59	241.20
754.91	241.00
755.24	240.78
755.57	240.57
755.90	240.41
756.22	240.25
756.55	240.04
756.88	239.80
757.20	239.56
757.53	239.32
757.86	239.15
758.19	239.02
758.51	238.85
758.84	238.59
759.17	238.42
759.49	238.24
759.82	238.13
760.15	237.98
760.47	237.82
760.80	237.66
761.13	237.55
761.45	237.40
761.78	237.26
762.11	237.14
762.43	237.00
762.76	236.82
763.08	236.65
763.41	236.54
763.74	236.43
764.06	236.26
764.39	236.12
764.71	235.97
765.04	235.80
765.37	235.69
765.69	235.61
766.02	235.46
766.34	235.34
766.67	235.21
767.00	235.12
767.32	235.02
767.65	234.97
767.97	234.85
768.30	234.74
768.62	234.61
768.95	234.49
769.27	234.37
769.60	234.31
769.92	234.15
770.25	234.01
770.57	233.87
770.90	233.78
771.22	233.71
771.55	233.60
771.87	233.53
772.20	233.39
772.52	233.36
772.85	233.40
773.17	233.30
773.50	233.19
773.82	233.08
774.15	232.96
774.47	232.81
774.80	232.71
775.12	232.66
775.45	232.60
775.77	232.49
776.09	232.41
776.42	232.30
776.74	232.30
777.07	232.28
777.39	232.27
777.72	232.20
778.04	232.10
778.36	232.06
778.69	232.00
779.01	231.95
779.33	231.79
779.66	231.61
779.98	231.54
780.31	231.46
780.63	231.43
780.95	231.37
781.28	231.28
781.60	231.21
781.92	231.13
782.25	231.05
782.57	231.04
782.89	230.98
783.22	230.91
783.54	230.80
783.86	230.73
784.19	230.64
784.51	230.63
784.83	230.59
785.16	230.50
785.48	230.43
785.80	230.40
786.12	230.36
786.45	230.31
786.77	230.28
787.09	230.27
787.42	230.20
787.74	230.18
788.06	230.14
788.38	230.08
788.71	230.05
789.03	229.99
789.35	229.95
789.67	229.90
789.99	229.88
790.32	229.85
790.64	229.81
790.96	229.84
791.28	229.75
791.61	229.69
791.93	229.67
792.25	229.62
792.57	229.65
792.89	229.58
793.21	229.56
793.54	229.52
793.86	229.47
794.18	229.45
794.50	229.40
794.82	229.37
795.14	229.39
795.47	229.31
795.79	229.28
796.11	229.22
796.43	229.19
796.75	229.14
797.07	229.13
797.39	229.09
797.71	228.97
798.04	228.96
798.36	228.94
798.68	228.91
799.00	228.89
799.32	228.81
799.64	228.80
799.96	228.75
800.28	228.74
800.60	228.67
800.92	228.62
801.24	228.56
801.56	228.56
801.89	228.48
802.21	228.47
802.53	228.41
802.85	228.40
803.17	228.40
803.49	228.38
803.81	228.31
804.13	228.27
804.45	228.23
804.77	228.17
805.09	228.11
805.41	228.05
805.73	228.00
806.05	227.93
806.37	227.90
806.69	227.88
807.01	227.79
807.33	227.77
807.65	227.72
807.97	227.69
808.28	227.65
808.60	227.64
808.92	227.60
809.24	227.63
809.56	227.59
809.88	227.53
810.20	227.48
810.52	227.50
810.84	227.46
811.16	227.38
811.48	227.38
811.80	227.39
812.12	227.33
812.43	227.32
812.75	227.28
813.07	227.27
813.39	227.24
813.71	227.24
814.03	227.21
814.35	227.21
814.67	227.16
814.98	227.11
815.30	227.07
815.62	227.05
815.94	226.95
816.26	226.98
816.58	226.92
816.89	226.90
817.21	226.85
817.53	226.86
817.85	226.88
818.17	226.86
818.48	226.84
818.80	226.90
819.12	226.87
819.44	226.86
819.76	226.79
820.07	226.77
820.39	226.74
820.71	226.69
821.03	226.67
821.34	226.64
821.66	226.63
821.98	226.62
822.30	226.60
822.61	226.68
822.93	226.57
823.25	226.58
823.57	226.58
823.88	226.57
824.20	226.54
824.52	226.59
824.83	226.59
825.15	226.56
825.47	226.54
825.79	226.57
826.10	226.57
826.42	226.58
826.74	226.59
827.05	226.58
827.37	226.60
827.69	226.60
828.00	226.65
828.32	226.66
828.64	226.68
828.95	226.72
829.27	226.67
829.58	226.70
829.90	226.71
830.22	226.69
830.53	226.68
830.85	226.69
831.17	226.60
831.48	226.57
831.80	226.56
832.11	226.55
832.43	226.53
832.75	226.52
833.06	226.57
833.38	226.54
833.69	226.54
834.01	226.55
834.32	226.54
834.64	226.49
834.96	226.50
835.27	226.48
835.59	226.48
835.90	226.46
836.22	226.44
836.53	226.42
836.85	226.42
837.16	226.52
837.48	226.50
837.79	226.53
838.11	226.54
838.42	226.53
838.74	226.53
839.05	226.49
839.37	226.49
839.68	226.43
840.00	226.43
840.31	226.45
840.63	226.48
840.94	226.45
841.26	226.45
841.57	226.41
841.88	226.40
842.20	226.34
842.51	226.33
842.83	226.32
843.14	226.39
843.46	226.37
843.77	226.30
844.08	226.27
844.40	226.21
844.71	226.19
845.03	226.18
845.34	226.14
845.65	226.12
845.97	226.07
846.28	226.04
846.60	226.03
846.91	225.97
847.22	225.90
847.54	225.93
847.85	225.93
848.16	225.92
848.48	225.90
848.79	225.93
849.10	225.92
849.42	225.91
849.73	225.80
850.04	225.80
850.36	225.75
850.67	225.77
850.98	225.81
851.30	225.79
851.61	225.76
851.92	225.73
852.23	225.74
852.55	225.77
852.86	225.77
853.17	225.78
853.49	225.80
853.80	225.84
854.11	225.81
854.42	225.80
854.74	225.76
855.05	225.74
855.36	225.68
855.67	225.68
855.99	225.68
856.30	225.77
856.61	225.76
856.92	225.79
857.23	225.78
857.55	225.72
857.86	225.71
858.17	225.76
858.48	225.78
858.79	225.78
859.11	225.78
859.42	225.79
859.73	225.76
860.04	225.75
860.35	225.70
860.66	225.67
860.98	225.68
861.29	225.71
861.60	225.72
861.91	225.74
862.22	225.69
862.53	225.68
862.84	225.61
863.16	225.63
863.47	225.59
863.78	225.60
864.09	225.62
864.40	225.62
864.71	225.60
865.02	225.59
865.33	225.57
865.64	225.54
865.95	225.54
866.27	225.61
866.58	225.59
866.89	225.64
867.20	225.63
867.51	225.61
867.82	225.60
868.13	225.62
868.44	225.61
868.75	225.66
869.06	225.66
869.37	225.68
869.68	225.66
869.99	225.69
870.30	225.69
870.61	225.70
870.92	225.70
871.23	225.71
871.54	225.72
871.85	225.75
872.16	225.81
872.47	225.83
872.78	225.78
873.09	225.80
873.40	225.78
873.71	225.81
874.02	225.84
874.33	225.81
874.64	225.81
874.95	225.82
875.26	225.80
875.56	225.79
875.87	225.76
876.18	225.75
876.49	225.83
876.80	225.82
877.11	225.83
877.42	225.84
877.73	225.81
878.04	225.81
878.35	225.80
878.66	225.77
878.96	225.72
879.27	225.71
879.58	225.70
879.89	225.69
880.20	225.73
880.51	225.71
880.82	225.74
881.12	225.72
881.43	225.69
881.74	225.65
882.05	225.67
882.36	225.70
882.67	225.70
882.97	225.59
883.28	225.57
883.59	225.52
883.90	225.55
884.21	225.59
884.51	225.55
884.82	225.55
885.13	225.55
885.44	225.55
885.74	225.55
886.05	225.54
886.36	225.53
886.67	225.48
886.98	225.54
887.28	225.52
887.59	225.56
887.90	225.56
888.20	225.59
888.51	225.57
888.82	225.54
889.13	225.54
889.43	225.61
889.74	225.59
890.05	225.59
890.35	225.52
890.66	225.51
890.97	225.50
891.28	225.47
891.58	225.45
891.89	225.44
892.20	225.42
892.50	225.42
892.81	225.42
893.12	225.38
893.42	225.33
893.73	225.32
894.04	225.29
894.34	225.31
894.65	225.28
894.95	225.30
895.26	225.26
895.57	225.30
895.87	225.21
896.18	225.23
896.48	225.26
896.79	225.26
897.10	225.25
897.40	225.27
897.71	225.30
898.01	225.29
898.32	225.31
898.63	225.28
898.93	225.29
899.24	225.26
899.54	225.30
899.85	225.29
900.15	225.27
900.46	225.23
900.76	225.20
901.07	225.19
901.38	225.21
901.68	225.24
901.99	225.21
902.29	225.24
902.60	225.21
902.90	225.19
903.21	225.20
903.51	225.19
903.82	225.21
904.12	225.23
904.43	225.26
904.73	225.26
905.03	225.28
905.34	225.37
905.64	225.39
905.95	225.36
906.25	225.33
906.56	225.37
906.86	225.39
907.17	225.42
907.47	225.45
907.77	225.42
908.08	225.39
908.38	225.41
908.69	225.41
908.99	225.46
909.30	225.48
909.60	225.47
909.90	225.47
910.21	225.43
910.51	225.39
910.81	225.40
911.12	225.41
911.42	225.40
911.73	225.31
912.03	225.28
912.33	225.32
912.64	225.33
912.94	225.32
913.24	225.32
913.55	225.30
913.85	225.29
914.15	225.30
914.46	225.31
914.76	225.26
915.06	225.28
915.37	225.26
915.67	225.23
915.97	225.25
916.27	225.23
916.58	225.25
916.88	225.27
917.18	225.23
917.49	225.27
917.79	225.27
918.09	225.28
918.39	225.35
918.70	225.33
919.00	225.33
919.30	225.37
919.60	225.35
919.91	225.33
920.21	225.32
920.51	225.30
920.81	225.32
921.12	225.33
921.42	225.31
921.72	225.30
922.02	225.28
922.32	225.29
922.63	225.32
922.93	225.35
923.23	225.36
923.53	225.38
923.83	225.33
924.13	225.33
924.44	225.32
924.74	225.31
925.04	225.33
925.34	225.37
925.64	225.35
925.94	225.34
926.24	225.42
926.55	225.44
926.85	225.43
927.15	225.39
927.45	225.38
927.75	225.38
928.05	225.37
928.35	225.37
928.65	225.39
928.95	225.39
929.26	225.35
929.56	225.35
929.86	225.34
930.16	225.31
930.46	225.33
930.76	225.32
931.06	225.26
931.36	225.23
931.66	225.19
931.96	225.19
932.26	225.22
932.56	225.19
932.86	225.19
933.16	225.23
933.46	225.26
933.76	225.28
934.06	225.27
934.36	225.34
934.66	225.37
934.96	225.34
935.26	225.35
935.56	225.35
935.86	225.35
936.16	225.33
936.46	225.33
936.76	225.31
937.06	225.31
937.36	225.37
937.66	225.38
937.96	225.39
938.26	225.35
938.56	225.36
938.86	225.34
939.16	225.38
939.46	225.36
939.76	225.39
940.06	225.42
940.35	225.39
940.65	225.34
940.95	225.35
941.25	225.35
941.55	225.33
941.85	225.38
942.15	225.37
942.45	225.43
942.75	225.44
943.04	225.44
943.34	225.47
943.64	225.42
943.94	225.42
944.24	225.43
944.54	225.44
944.84	225.41
945.13	225.40
945.43	225.35
945.73	225.39
946.03	225.38
946.33	225.34
946.62	225.36
946.92	225.31
947.22	225.33
947.52	225.33
947.82	225.36
948.11	225.31
948.41	225.30
948.71	225.28
949.01	225.28
949.31	225.26
949.60	225.24
949.90	225.29
950.20	225.26
950.50	225.25
950.79	225.27
951.09	225.31
951.39	225.30
951.69	225.31
951.98	225.26
952.28	225.25
952.58	225.24
952.87	225.24
953.17	225.26
953.47	225.22
953.76	225.21
954.06	225.16
954.36	225.17
954.66	225.16
954.95	225.15
955.25	225.16
955.55	225.19
955.84	225.16
956.14	225.11
956.44	225.11
956.73	225.10
957.03	225.05
957.32	225.03
957.62	225.03
957.92	225.03
958.21	225.06
958.51	225.13
958.81	225.16
959.10	225.18
959.40	225.18
959.69	225.16
959.99	225.18
960.29	225.21
960.58	225.20
960.88	225.23
961.17	225.22
961.47	225.21
961.76	225.20
962.06	225.23
962.36	225.24
962.65	225.26
962.95	225.30
963.24	225.32
963.54	225.34
963.83	225.34
964.13	225.36
964.42	225.31
964.72	225.24
965.01	225.24
965.31	225.20
965.60	225.22
965.90	225.30
966.19	225.26
966.49	225.25
966.78	225.26
967.08	225.26
967.37	225.27
967.67	225.28
967.96	225.31
968.26	225.29
968.55	225.30
968.85	225.32
969.14	225.30
969.43	225.32
969.73	225.30
970.02	225.31
970.32	225.29
970.61	225.30
970.91	225.28
971.20	225.26
971.49	225.26
971.79	225.28
972.08	225.23
972.38	225.28
972.67	225.27
972.96	225.26
973.26	225.23
973.55	225.26
973.85	225.25
974.14	225.22
974.43	225.27
974.73	225.28
975.02	225.24
975.31	225.24
975.61	225.20
975.90	225.19
976.19	225.18
976.49	225.22
976.78	225.25
977.07	225.26
977.37	225.26
977.66	225.25
977.95	225.20
978.24	225.18
978.54	225.15
978.83	225.16
979.12	225.16
979.42	225.16
979.71	225.14
980.00	225.15
980.29	225.14
980.59	225.08
980.88	225.06
981.17	225.09
981.46	225.06
981.76	225.09
982.05	225.14
982.34	225.16
982.63	225.11
982.93	225.09
983.22	225.12
983.51	225.14
983.80	225.16
984.09	225.20
984.39	225.19
984.68	225.19
984.97	225.18
985.26	225.15
985.55	225.14
985.85	225.12
986.14	225.11
986.43	225.12
986.72	225.13
987.01	225.07
987.30	225.02
987.59	225.00
987.89	224.99
988.18	224.93
988.47	224.91
988.76	224.94
989.05	224.95
989.34	224.92
989.63	224.94
989.92	224.94
990.22	224.90
990.51	224.89
990.80	224.88
991.09	224.90
991.38	224.89
991.67	224.89
991.96	224.89
992.25	224.90
992.54	224.86
992.83	224.86
993.12	224.90
993.41	224.94
993.70	224.98
993.99	225.01
994.28	225.01
994.58	225.00
994.87	224.94
995.16	224.90
995.45	224.86
995.74	224.82
996.03	224.81
996.32	224.85
996.61	224.87
996.90	224.90
997.19	224.90
997.48	224.92
997.77	224.90
998.06	224.91
998.34	224.92
998.63	224.96
998.92	224.91
999.21	224.94
999.50	224.93
999.79	224.92
1000.08	224.90
1000.37	224.93
1000.66	224.91
1000.95	224.95
1001.24	224.99
1001.53	225.02
1001.82	225.03
1002.11	225.00
1002.40	225.00
1002.68	225.02
1002.97	225.06
1003.26	225.05
1003.55	225.05
1003.84	225.08
1004.13	225.14
1004.42	225.11
1004.71	225.10
1004.99	225.15
1005.28	225.15
1005.57	225.11
1005.86	225.09
1006.15	225.12
1006.44	225.06
1006.72	225.09
1007.01	225.09
1007.30	225.08
1007.59	225.06
1007.88	225.06
1008.17	225.06
1008.45	225.05
1008.74	225.02
1009.03	224.98
1009.32	224.97
1009.60	224.99
1009.89	224.97
1010.18	224.91
1010.47	224.90
1010.76	224.90
1011.04	224.87
1011.33	224.87
1011.62	224.92
1011.91	224.94
1012.19	224.90
1012.48	224.95
1012.77	224.96
1013.05	225.04
1013.34	225.03
1013.63	225.05
1013.92	225.03
1014.20	225.03
1014.49	225.02
1014.78	225.04
1015.06	225.02
1015.35	225.03
1015.64	225.02
1015.92	225.06
1016.21	225.05
1016.50	225.08
1016.78	225.09
1017.07	225.11
1017.36	225.08
1017.64	225.06
1017.93	225.06
1018.22	225.06
1018.50	225.04
1018.79	225.02
1019.08	224.94
1019.36	224.94
1019.65	224.94
1019.93	224.97
1020.22	225.01
1020.51	225.06
1020.79	225.06
1021.08	224.89
1021.36	224.65
1021.65	225.14
1021.94	224.99
1022.22	224.63
1022.51	224.98
1022.79	225.39
1023.08	225.28
1023.36	225.90
1023.65	225.13
>>>>>End Processed Spectral Data<<<<<
