SpectraSuite Data File
++++++++++++++++++++++++++++++++++++
Date: Fri Feb 01 16:30:30 EST 2013
User: group
Dark Spectrum Present: No
Reference Spectrum Present: No
Number of Sampled Component Spectra: 1
Spectrometers: USB2E7196
Integration Time (usec): 35000 (USB2E7196)
Spectra Averaged: 100 (USB2E7196)
Boxcar Smoothing: 10 (USB2E7196)
Correct for Electrical Dark: No (USB2E7196)
Strobe/Lamp Enabled: No (USB2E7196)
Correct for Detector Non-linearity: No (USB2E7196)
Correct for Stray Light: No (USB2E7196)
Number of Pixels in Processed Spectrum: 2048
>>>>>Begin Processed Spectral Data<<<<<
339.09	0.00
339.48	214.60
339.86	215.20
340.24	217.08
340.63	218.94
341.01	221.49
341.39	220.85
341.78	222.18
342.16	223.72
342.54	224.31
342.93	212.62
343.31	223.35
343.69	223.88
344.07	224.34
344.46	224.77
344.84	225.13
345.22	225.37
345.60	225.61
345.99	225.80
346.37	225.89
346.75	225.96
347.13	226.03
347.52	226.05
347.90	226.09
348.28	226.08
348.66	226.14
349.05	226.12
349.43	226.14
349.81	226.17
350.19	226.20
350.57	226.21
350.96	226.31
351.34	226.40
351.72	226.44
352.10	226.55
352.48	226.59
352.87	226.64
353.25	226.70
353.63	226.78
354.01	226.87
354.39	226.96
354.77	227.02
355.15	227.13
355.54	227.20
355.92	227.23
356.30	227.30
356.68	227.43
357.06	227.48
357.44	227.54
357.82	227.60
358.20	227.67
358.58	227.72
358.97	227.78
359.35	227.83
359.73	227.89
360.11	227.93
360.49	227.99
360.87	228.01
361.25	228.03
361.63	228.08
362.01	228.08
362.39	228.12
362.77	228.16
363.15	228.18
363.53	228.18
363.91	228.20
364.29	228.20
364.67	228.09
365.05	228.12
365.43	228.16
365.81	228.15
366.19	228.20
366.57	228.29
366.95	228.27
367.33	228.26
367.71	228.28
368.09	228.27
368.47	228.25
368.85	228.25
369.23	228.25
369.61	228.21
369.99	228.21
370.37	228.17
370.75	228.21
371.13	228.15
371.51	228.09
371.89	228.09
372.27	228.08
372.65	228.08
373.03	228.04
373.41	227.96
373.78	227.90
374.16	227.79
374.54	227.68
374.92	227.61
375.30	227.59
375.68	227.51
376.06	227.45
376.44	227.41
376.82	227.36
377.19	227.30
377.57	227.23
377.95	227.14
378.33	227.11
378.71	226.99
379.09	226.95
379.47	226.90
379.84	226.82
380.22	226.70
380.60	226.63
380.98	226.56
381.36	226.50
381.73	226.46
382.11	226.42
382.49	226.39
382.87	226.32
383.25	226.24
383.62	226.28
384.00	226.23
384.38	226.17
384.76	226.13
385.13	226.11
385.51	226.08
385.89	226.01
386.27	225.95
386.64	225.92
387.02	225.88
387.40	225.86
387.78	225.81
388.15	225.83
388.53	225.77
388.91	225.76
389.29	225.72
389.66	225.67
390.04	225.62
390.42	225.60
390.79	225.61
391.17	225.61
391.55	225.51
391.92	225.52
392.30	225.56
392.68	225.51
393.05	225.53
393.43	225.52
393.81	225.56
394.18	225.56
394.56	225.58
394.94	225.61
395.31	225.62
395.69	225.69
396.06	225.70
396.44	225.73
396.82	225.71
397.19	225.80
397.57	225.85
397.95	225.92
398.32	225.93
398.70	225.97
399.07	226.06
399.45	226.09
399.82	226.13
400.20	226.12
400.58	226.22
400.95	226.22
401.33	226.28
401.70	226.44
402.08	226.53
402.45	226.60
402.83	226.71
403.20	226.81
403.58	226.90
403.95	227.02
404.33	227.17
404.71	227.32
405.08	227.51
405.46	227.63
405.83	227.77
406.21	227.93
406.58	228.08
406.96	228.22
407.33	228.41
407.70	228.60
408.08	228.90
408.45	229.12
408.83	229.36
409.20	229.59
409.58	229.73
409.95	229.99
410.33	230.25
410.70	230.46
411.08	230.76
411.45	231.10
411.82	231.43
412.20	231.78
412.57	232.23
412.95	232.49
413.32	232.92
413.69	233.32
414.07	233.78
414.44	234.26
414.82	234.75
415.19	235.28
415.56	235.84
415.94	236.39
416.31	237.04
416.68	237.65
417.06	238.37
417.43	239.07
417.81	239.85
418.18	240.66
418.55	241.54
418.93	242.42
419.30	243.29
419.67	244.19
420.04	245.16
420.42	246.14
420.79	247.32
421.16	248.48
421.54	249.71
421.91	250.85
422.28	252.11
422.66	253.45
423.03	254.77
423.40	256.09
423.77	257.49
424.15	258.85
424.52	260.36
424.89	261.93
425.26	263.50
425.64	264.95
426.01	266.53
426.38	268.16
426.75	269.83
427.13	271.55
427.50	273.37
427.87	275.26
428.24	277.11
428.61	278.87
428.99	280.83
429.36	282.90
429.73	284.94
430.10	286.93
430.47	288.97
430.85	291.04
431.22	293.30
431.59	295.67
431.96	297.97
432.33	300.44
432.70	302.82
433.08	305.60
433.45	308.18
433.82	310.78
434.19	313.68
434.56	316.44
434.93	319.09
435.30	321.68
435.68	324.45
436.05	327.21
436.42	329.94
436.79	332.39
437.16	334.99
437.53	337.85
437.90	340.70
438.27	343.43
438.64	346.27
439.01	348.82
439.38	351.01
439.75	353.14
440.13	355.61
440.50	357.88
440.87	359.68
441.24	361.60
441.61	363.71
441.98	365.18
442.35	366.96
442.72	368.75
443.09	370.51
443.46	371.53
443.83	372.14
444.20	372.66
444.57	373.51
444.94	373.85
445.31	374.17
445.68	374.43
446.05	374.48
446.42	374.10
446.79	373.65
447.16	373.23
447.53	372.84
447.90	371.68
448.27	370.55
448.64	368.97
449.01	367.85
449.37	365.92
449.74	364.03
450.11	361.79
450.48	359.37
450.85	356.86
451.22	354.75
451.59	352.75
451.96	350.81
452.33	348.24
452.70	345.91
453.07	343.09
453.43	340.23
453.80	337.46
454.17	334.83
454.54	332.30
454.91	329.59
455.28	326.93
455.65	324.46
456.02	322.06
456.38	319.96
456.75	317.35
457.12	315.11
457.49	312.88
457.86	310.78
458.23	308.93
458.59	306.91
458.96	304.80
459.33	302.94
459.70	301.11
460.07	299.59
460.43	297.89
460.80	296.30
461.17	294.89
461.54	293.44
461.91	292.00
462.27	290.58
462.64	289.37
463.01	288.08
463.38	286.83
463.74	285.46
464.11	284.33
464.48	283.34
464.85	282.27
465.21	281.43
465.58	280.55
465.95	279.48
466.32	278.60
466.68	277.77
467.05	276.95
467.42	276.06
467.78	275.17
468.15	274.33
468.52	273.63
468.88	272.82
469.25	272.08
469.62	271.48
469.98	270.84
470.35	270.20
470.72	269.61
471.08	268.97
471.45	268.43
471.82	267.89
472.18	267.28
472.55	266.79
472.92	266.26
473.28	265.77
473.65	265.36
474.02	264.91
474.38	264.52
474.75	264.17
475.11	263.85
475.48	263.55
475.85	263.31
476.21	263.13
476.58	262.94
476.94	262.79
477.31	262.61
477.67	262.45
478.04	262.35
478.41	262.28
478.77	262.30
479.14	262.26
479.50	262.25
479.87	262.30
480.23	262.43
480.60	262.53
480.96	262.64
481.33	262.85
481.69	263.05
482.06	263.22
482.42	263.41
482.79	263.67
483.15	264.05
483.52	264.44
483.88	264.83
484.25	265.24
484.61	265.64
484.98	266.09
485.34	266.66
485.71	267.25
486.07	267.86
486.44	268.43
486.80	269.15
487.17	269.91
487.53	270.73
487.90	271.58
488.26	272.49
488.62	273.50
488.99	274.48
489.35	275.53
489.72	276.68
490.08	277.88
490.44	279.17
490.81	280.45
491.17	281.79
491.54	283.24
491.90	284.76
492.26	286.44
492.63	288.17
492.99	289.91
493.36	291.81
493.72	293.85
494.08	295.94
494.45	298.20
494.81	300.58
495.17	303.04
495.54	305.64
495.90	308.33
496.26	311.08
496.63	313.98
496.99	317.12
497.35	320.42
497.72	323.83
498.08	327.31
498.44	331.03
498.80	334.96
499.17	339.02
499.53	343.19
499.89	347.54
500.26	352.10
500.62	356.81
500.98	361.80
501.34	366.90
501.71	372.28
502.07	377.72
502.43	383.27
502.79	389.11
503.16	395.20
503.52	401.49
503.88	407.93
504.24	414.64
504.60	421.54
504.97	428.65
505.33	436.00
505.69	443.67
506.05	451.45
506.41	459.31
506.78	467.46
507.14	475.89
507.50	484.68
507.86	493.67
508.22	502.95
508.59	512.15
508.95	521.73
509.31	531.57
509.67	541.66
510.03	551.98
510.39	562.45
510.75	573.22
511.12	584.19
511.48	595.48
511.84	606.89
512.20	618.39
512.56	630.33
512.92	642.51
513.28	654.88
513.64	667.27
514.00	679.91
514.37	692.89
514.73	705.96
515.09	718.93
515.45	732.16
515.81	745.66
516.17	759.58
516.53	773.70
516.89	787.83
517.25	801.98
517.61	816.42
517.97	830.94
518.33	845.28
518.69	860.02
519.05	874.95
519.41	890.11
519.77	905.59
520.13	921.03
520.49	936.33
520.85	951.72
521.21	967.44
521.57	983.74
521.93	999.41
522.29	1015.72
522.65	1031.88
523.01	1048.06
523.37	1064.06
523.73	1080.29
524.09	1096.29
524.45	1112.44
524.81	1129.04
525.17	1145.71
525.53	1162.55
525.89	1179.35
526.25	1196.16
526.61	1212.53
526.97	1229.12
527.33	1245.55
527.68	1261.96
528.04	1278.39
528.40	1294.84
528.76	1311.80
529.12	1328.34
529.48	1345.13
529.84	1361.01
530.20	1377.51
530.56	1394.40
530.91	1411.78
531.27	1428.26
531.63	1444.62
531.99	1461.21
532.35	1476.92
532.71	1492.60
533.07	1508.63
533.42	1524.42
533.78	1540.28
534.14	1556.37
534.50	1571.73
534.86	1587.42
535.21	1602.63
535.57	1618.41
535.93	1633.77
536.29	1648.51
536.65	1663.31
537.00	1677.97
537.36	1693.24
537.72	1707.63
538.08	1722.01
538.44	1735.60
538.79	1749.47
539.15	1763.15
539.51	1776.75
539.87	1791.10
540.22	1804.91
540.58	1818.69
540.94	1832.04
541.29	1844.81
541.65	1857.50
542.01	1870.51
542.37	1882.73
542.72	1894.82
543.08	1906.53
543.44	1918.79
543.79	1929.93
544.15	1940.87
544.51	1952.50
544.87	1963.37
545.22	1974.29
545.58	1984.39
545.94	1993.95
546.29	2003.67
546.65	2013.35
547.01	2022.56
547.36	2031.30
547.72	2039.67
548.07	2047.21
548.43	2055.28
548.79	2063.33
549.14	2070.63
549.50	2077.98
549.86	2085.62
550.21	2093.16
550.57	2100.20
550.92	2106.81
551.28	2113.84
551.64	2120.90
551.99	2127.33
552.35	2133.51
552.70	2139.64
553.06	2145.63
553.41	2152.17
553.77	2158.22
554.13	2164.24
554.48	2170.37
554.84	2175.74
555.19	2180.98
555.55	2186.27
555.90	2190.75
556.26	2195.61
556.61	2200.36
556.97	2204.63
557.32	2208.84
557.68	2212.77
558.03	2217.17
558.39	2220.81
558.74	2225.39
559.10	2229.28
559.45	2232.74
559.81	2236.95
560.16	2240.72
560.52	2243.98
560.87	2247.27
561.23	2250.04
561.58	2253.13
561.94	2255.61
562.29	2258.10
562.64	2260.85
563.00	2263.51
563.35	2266.91
563.71	2269.86
564.06	2273.22
564.42	2276.00
564.77	2278.46
565.12	2280.87
565.48	2282.79
565.83	2284.80
566.19	2286.12
566.54	2287.02
566.89	2288.20
567.25	2288.86
567.60	2290.18
567.96	2291.83
568.31	2292.64
568.66	2293.66
569.02	2294.14
569.37	2294.47
569.72	2295.17
570.08	2295.37
570.43	2295.51
570.78	2295.07
571.14	2293.79
571.49	2292.35
571.84	2292.16
572.20	2291.15
572.55	2290.20
572.90	2288.78
573.26	2287.44
573.61	2285.82
573.96	2284.11
574.31	2281.27
574.67	2278.43
575.02	2274.86
575.37	2271.59
575.72	2267.97
576.08	2264.95
576.43	2261.72
576.78	2258.14
577.13	2255.14
577.49	2252.03
577.84	2248.56
578.19	2244.86
578.54	2241.24
578.90	2237.19
579.25	2231.70
579.60	2226.84
579.95	2221.75
580.30	2216.65
580.66	2211.53
581.01	2206.70
581.36	2201.85
581.71	2197.69
582.06	2193.18
582.42	2188.79
582.77	2183.64
583.12	2179.18
583.47	2174.40
583.82	2169.47
584.17	2164.28
584.53	2158.84
584.88	2153.33
585.23	2147.68
585.58	2142.34
585.93	2136.90
586.28	2132.13
586.63	2127.14
586.98	2122.12
587.34	2117.48
587.69	2112.80
588.04	2107.60
588.39	2101.94
588.74	2095.58
589.09	2089.61
589.44	2082.94
589.79	2077.00
590.14	2071.43
590.49	2064.95
590.84	2058.51
591.19	2052.54
591.54	2046.29
591.89	2038.90
592.25	2032.14
592.60	2024.94
592.95	2017.33
593.30	2010.13
593.65	2002.67
594.00	1995.74
594.35	1988.57
594.70	1980.65
595.05	1973.32
595.40	1966.05
595.75	1958.56
596.10	1952.46
596.45	1945.73
596.80	1939.72
597.15	1933.13
597.50	1925.96
597.85	1919.52
598.19	1912.94
598.54	1905.84
598.89	1899.16
599.24	1893.47
599.59	1886.79
599.94	1880.74
600.29	1874.45
600.64	1867.84
600.99	1860.58
601.34	1853.67
601.69	1846.78
602.04	1840.02
602.39	1832.79
602.74	1826.10
603.08	1819.48
603.43	1812.79
603.78	1805.52
604.13	1798.21
604.48	1790.81
604.83	1784.01
605.18	1776.98
605.53	1769.00
605.87	1761.05
606.22	1753.78
606.57	1745.82
606.92	1738.61
607.27	1731.38
607.62	1724.45
607.96	1717.27
608.31	1710.50
608.66	1702.96
609.01	1695.33
609.36	1687.72
609.70	1679.55
610.05	1671.56
610.40	1663.94
610.75	1655.59
611.10	1647.89
611.44	1639.44
611.79	1631.56
612.14	1622.86
612.49	1613.78
612.83	1605.36
613.18	1597.23
613.53	1589.03
613.88	1580.43
614.22	1572.08
614.57	1563.43
614.92	1555.53
615.27	1547.86
615.61	1539.61
615.96	1531.52
616.31	1523.90
616.65	1516.61
617.00	1509.15
617.35	1501.34
617.70	1493.01
618.04	1484.52
618.39	1476.31
618.74	1468.80
619.08	1460.50
619.43	1453.01
619.78	1446.10
620.12	1438.98
620.47	1431.52
620.82	1423.44
621.16	1416.03
621.51	1408.47
621.85	1400.82
622.20	1392.24
622.55	1383.90
622.89	1376.01
623.24	1368.34
623.59	1360.87
623.93	1353.32
624.28	1346.12
624.62	1338.60
624.97	1331.38
625.32	1324.58
625.66	1317.62
626.01	1310.37
626.35	1303.03
626.70	1295.37
627.04	1287.59
627.39	1279.82
627.73	1272.34
628.08	1265.43
628.43	1258.29
628.77	1250.82
629.12	1243.29
629.46	1236.15
629.81	1228.80
630.15	1221.60
630.50	1214.18
630.84	1206.10
631.19	1198.20
631.53	1190.70
631.88	1183.14
632.22	1175.48
632.57	1168.14
632.91	1160.49
633.26	1153.11
633.60	1145.65
633.95	1138.38
634.29	1131.44
634.64	1124.74
634.98	1117.43
635.32	1110.29
635.67	1103.51
636.01	1096.91
636.36	1090.12
636.70	1083.52
637.05	1076.90
637.39	1070.30
637.73	1063.88
638.08	1057.95
638.42	1051.86
638.77	1045.42
639.11	1038.82
639.45	1032.44
639.80	1025.81
640.14	1019.50
640.49	1012.93
640.83	1006.62
641.17	1000.37
641.52	993.87
641.86	987.41
642.20	981.55
642.55	975.27
642.89	968.90
643.23	962.36
643.58	956.51
643.92	950.30
644.26	944.20
644.61	938.24
644.95	932.22
645.29	925.67
645.64	918.90
645.98	912.55
646.32	906.73
646.66	900.70
647.01	894.91
647.35	889.08
647.69	883.28
648.04	877.76
648.38	872.05
648.72	866.12
649.06	860.06
649.41	854.20
649.75	848.20
650.09	842.22
650.43	836.46
650.78	830.37
651.12	824.52
651.46	818.75
651.80	813.00
652.14	807.61
652.49	802.15
652.83	797.06
653.17	791.41
653.51	785.66
653.85	780.28
654.20	774.64
654.54	768.68
654.88	762.87
655.22	756.93
655.56	751.24
655.90	745.84
656.25	740.62
656.59	735.18
656.93	730.08
657.27	724.83
657.61	719.43
657.95	714.36
658.29	709.25
658.64	704.07
658.98	698.75
659.32	693.27
659.66	688.06
660.00	682.72
660.34	677.74
660.68	672.83
661.02	667.76
661.36	663.03
661.70	658.52
662.05	654.23
662.39	649.88
662.73	645.45
663.07	641.05
663.41	636.58
663.75	632.13
664.09	627.62
664.43	623.26
664.77	619.17
665.11	614.87
665.45	610.70
665.79	606.55
666.13	602.41
666.47	598.34
666.81	594.23
667.15	590.14
667.49	586.32
667.83	582.55
668.17	578.61
668.51	574.52
668.85	570.50
669.19	566.60
669.53	562.75
669.87	558.79
670.21	555.08
670.55	551.47
670.89	548.02
671.23	544.51
671.57	540.95
671.91	537.32
672.25	533.79
672.58	530.26
672.92	526.82
673.26	523.68
673.60	520.55
673.94	517.41
674.28	514.47
674.62	511.46
674.96	508.27
675.30	505.35
675.64	502.38
675.97	499.55
676.31	496.64
676.65	493.71
676.99	491.04
677.33	488.20
677.67	485.36
678.01	482.32
678.34	479.34
678.68	476.47
679.02	473.64
679.36	470.89
679.70	468.19
680.04	465.51
680.37	462.61
680.71	459.81
681.05	457.18
681.39	454.46
681.73	451.79
682.06	449.27
682.40	446.71
682.74	444.21
683.08	441.69
683.42	439.08
683.75	436.56
684.09	434.04
684.43	431.57
684.77	429.10
685.10	426.77
685.44	424.51
685.78	422.30
686.12	420.09
686.45	417.78
686.79	415.47
687.13	413.27
687.46	411.10
687.80	408.91
688.14	406.67
688.48	404.58
688.81	402.31
689.15	400.19
689.49	398.04
689.82	395.99
690.16	393.97
690.50	392.09
690.83	390.19
691.17	388.17
691.51	386.26
691.84	384.38
692.18	382.44
692.52	380.45
692.85	378.49
693.19	376.60
693.52	374.81
693.86	373.02
694.20	371.22
694.53	369.41
694.87	367.61
695.21	365.87
695.54	364.08
695.88	362.34
696.21	360.61
696.55	358.94
696.88	357.24
697.22	355.55
697.56	353.92
697.89	352.30
698.23	350.70
698.56	349.05
698.90	347.49
699.23	345.83
699.57	344.24
699.90	342.70
700.24	341.18
700.58	339.59
700.91	338.10
701.25	336.66
701.58	335.35
701.92	333.95
702.25	332.57
702.59	331.21
702.92	329.93
703.26	328.62
703.59	327.31
703.93	326.21
704.26	324.97
704.60	323.63
704.93	322.33
705.26	321.08
705.60	319.90
705.93	318.74
706.27	317.73
706.60	316.73
706.94	315.66
707.27	314.51
707.61	313.48
707.94	312.44
708.27	311.33
708.61	310.25
708.94	309.27
709.28	308.27
709.61	307.30
709.94	306.34
710.28	305.33
710.61	304.39
710.95	303.21
711.28	302.31
711.61	301.38
711.95	300.46
712.28	299.50
712.61	298.55
712.95	297.61
713.28	296.74
713.61	295.83
713.95	294.95
714.28	294.12
714.61	293.27
714.95	292.45
715.28	291.60
715.61	290.70
715.95	289.83
716.28	288.97
716.61	288.13
716.95	287.30
717.28	286.53
717.61	285.77
717.94	285.06
718.28	284.24
718.61	283.51
718.94	282.83
719.27	282.16
719.61	281.52
719.94	280.85
720.27	280.10
720.60	279.42
720.94	278.81
721.27	278.19
721.60	277.62
721.93	276.97
722.27	276.42
722.60	275.84
722.93	275.27
723.26	274.71
723.59	274.15
723.93	273.61
724.26	273.08
724.59	272.46
724.92	271.96
725.25	271.46
725.59	270.93
725.92	270.42
726.25	269.92
726.58	269.40
726.91	268.87
727.24	268.41
727.57	267.92
727.91	267.37
728.24	266.89
728.57	266.38
728.90	265.96
729.23	265.46
729.56	265.04
729.89	264.57
730.22	264.06
730.55	263.62
730.89	263.17
731.22	262.71
731.55	262.32
731.88	261.85
732.21	261.41
732.54	261.00
732.87	260.58
733.20	260.19
733.53	259.79
733.86	259.42
734.19	259.01
734.52	258.65
734.85	258.37
735.18	257.97
735.51	257.61
735.84	257.23
736.17	256.91
736.50	256.51
736.83	256.26
737.16	255.94
737.49	255.59
737.82	255.22
738.15	254.91
738.48	254.57
738.81	254.22
739.14	253.89
739.47	253.54
739.80	253.22
740.13	252.92
740.46	252.59
740.79	252.27
741.12	251.97
741.45	251.68
741.78	251.30
742.11	251.02
742.44	250.68
742.77	250.37
743.10	250.05
743.43	249.74
743.75	249.37
744.08	249.26
744.41	248.98
744.74	248.72
745.07	248.42
745.40	248.14
745.73	247.93
746.06	247.67
746.39	247.42
746.71	247.14
747.04	246.83
747.37	246.60
747.70	246.35
748.03	246.08
748.36	245.84
748.68	245.64
749.01	245.35
749.34	245.14
749.67	244.91
750.00	244.70
750.33	244.55
750.65	244.34
750.98	243.97
751.31	243.73
751.64	243.51
751.97	243.35
752.29	243.14
752.62	242.90
752.95	242.69
753.28	242.45
753.60	242.25
753.93	242.09
754.26	241.88
754.59	241.68
754.91	241.49
755.24	241.24
755.57	241.02
755.90	240.85
756.22	240.66
756.55	240.47
756.88	240.25
757.20	239.98
757.53	239.77
757.86	239.59
758.19	239.45
758.51	239.28
758.84	239.08
759.17	238.91
759.49	238.74
759.82	238.63
760.15	238.49
760.47	238.35
760.80	238.15
761.13	238.02
761.45	237.81
761.78	237.67
762.11	237.54
762.43	237.38
762.76	237.22
763.08	237.07
763.41	236.95
763.74	236.83
764.06	236.75
764.39	236.62
764.71	236.47
765.04	236.36
765.37	236.23
765.69	236.09
766.02	235.99
766.34	235.85
766.67	235.68
767.00	235.56
767.32	235.49
767.65	235.47
767.97	235.36
768.30	235.27
768.62	235.18
768.95	235.05
769.27	234.95
769.60	234.84
769.92	234.76
770.25	234.61
770.57	234.51
770.90	234.39
771.22	234.26
771.55	234.16
771.87	234.02
772.20	233.91
772.52	233.92
772.85	233.92
773.17	233.83
773.50	233.76
773.82	233.68
774.15	233.57
774.47	233.43
774.80	233.32
775.12	233.26
775.45	233.15
775.77	233.07
776.09	233.01
776.42	232.96
776.74	232.90
777.07	232.84
777.39	232.72
777.72	232.63
778.04	232.60
778.36	232.56
778.69	232.52
779.01	232.49
779.33	232.33
779.66	232.13
779.98	232.08
780.31	232.01
780.63	231.97
780.95	231.91
781.28	231.85
781.60	231.78
781.92	231.72
782.25	231.66
782.57	231.62
782.89	231.54
783.22	231.48
783.54	231.41
783.86	231.39
784.19	231.37
784.51	231.37
784.83	231.30
785.16	231.24
785.48	231.21
785.80	231.16
786.12	231.13
786.45	231.14
786.77	231.10
787.09	231.08
787.42	231.01
787.74	230.98
788.06	230.91
788.38	230.89
788.71	230.85
789.03	230.83
789.35	230.81
789.67	230.76
789.99	230.74
790.32	230.68
790.64	230.63
790.96	230.67
791.28	230.59
791.61	230.55
791.93	230.51
792.25	230.49
792.57	230.50
792.89	230.44
793.21	230.38
793.54	230.32
793.86	230.24
794.18	230.21
794.50	230.13
794.82	230.11
795.14	230.08
795.47	230.04
795.79	230.00
796.11	229.93
796.43	229.89
796.75	229.85
797.07	229.80
797.39	229.74
797.71	229.61
798.04	229.57
798.36	229.50
798.68	229.50
799.00	229.46
799.32	229.38
799.64	229.37
799.96	229.34
800.28	229.33
800.60	229.31
800.92	229.27
801.24	229.23
801.56	229.21
801.89	229.15
802.21	229.14
802.53	229.09
802.85	229.08
803.17	229.11
803.49	229.06
803.81	229.04
804.13	229.01
804.45	228.99
804.77	228.96
805.09	228.95
805.41	228.89
805.73	228.82
806.05	228.73
806.37	228.67
806.69	228.65
807.01	228.64
807.33	228.61
807.65	228.54
807.97	228.55
808.28	228.51
808.60	228.47
808.92	228.42
809.24	228.44
809.56	228.40
809.88	228.33
810.20	228.32
810.52	228.30
810.84	228.28
811.16	228.27
811.48	228.24
811.80	228.23
812.12	228.19
812.43	228.19
812.75	228.21
813.07	228.23
813.39	228.20
813.71	228.15
814.03	228.09
814.35	228.12
814.67	228.07
814.98	228.02
815.30	227.99
815.62	227.95
815.94	227.87
816.26	227.89
816.58	227.87
816.89	227.83
817.21	227.81
817.53	227.80
817.85	227.79
818.17	227.76
818.48	227.74
818.80	227.76
819.12	227.75
819.44	227.74
819.76	227.67
820.07	227.64
820.39	227.61
820.71	227.64
821.03	227.62
821.34	227.60
821.66	227.58
821.98	227.60
822.30	227.60
822.61	227.65
822.93	227.59
823.25	227.58
823.57	227.59
823.88	227.62
824.20	227.64
824.52	227.60
824.83	227.62
825.15	227.59
825.47	227.58
825.79	227.55
826.10	227.50
826.42	227.48
826.74	227.50
827.05	227.51
827.37	227.48
827.69	227.46
828.00	227.45
828.32	227.49
828.64	227.46
828.95	227.49
829.27	227.43
829.58	227.44
829.90	227.43
830.22	227.40
830.53	227.33
830.85	227.26
831.17	227.21
831.48	227.19
831.80	227.20
832.11	227.13
832.43	227.10
832.75	227.10
833.06	227.18
833.38	227.09
833.69	227.05
834.01	227.06
834.32	227.06
834.64	227.03
834.96	227.03
835.27	227.00
835.59	226.94
835.90	226.92
836.22	226.89
836.53	226.88
836.85	226.86
837.16	226.94
837.48	226.94
837.79	226.98
838.11	226.94
838.42	226.93
838.74	226.96
839.05	226.94
839.37	226.93
839.68	226.83
840.00	226.85
840.31	226.83
840.63	226.76
840.94	226.70
841.26	226.68
841.57	226.68
841.88	226.68
842.20	226.67
842.51	226.66
842.83	226.66
843.14	226.74
843.46	226.70
843.77	226.60
844.08	226.60
844.40	226.57
844.71	226.55
845.03	226.53
845.34	226.50
845.65	226.51
845.97	226.48
846.28	226.50
846.60	226.51
846.91	226.55
847.22	226.57
847.54	226.62
847.85	226.63
848.16	226.59
848.48	226.57
848.79	226.63
849.10	226.65
849.42	226.66
849.73	226.56
850.04	226.58
850.36	226.59
850.67	226.63
850.98	226.64
851.30	226.67
851.61	226.69
851.92	226.68
852.23	226.73
852.55	226.75
852.86	226.74
853.17	226.74
853.49	226.74
853.80	226.78
854.11	226.78
854.42	226.79
854.74	226.80
855.05	226.78
855.36	226.73
855.67	226.75
855.99	226.73
856.30	226.87
856.61	226.90
856.92	226.90
857.23	226.88
857.55	226.87
857.86	226.88
858.17	226.88
858.48	226.89
858.79	226.86
859.11	226.88
859.42	226.92
859.73	226.90
860.04	226.89
860.35	226.86
860.66	226.79
860.98	226.78
861.29	226.79
861.60	226.82
861.91	226.83
862.22	226.81
862.53	226.78
862.84	226.65
863.16	226.65
863.47	226.63
863.78	226.63
864.09	226.63
864.40	226.64
864.71	226.62
865.02	226.63
865.33	226.60
865.64	226.58
865.95	226.53
866.27	226.58
866.58	226.59
866.89	226.58
867.20	226.62
867.51	226.61
867.82	226.62
868.13	226.64
868.44	226.58
868.75	226.55
869.06	226.57
869.37	226.55
869.68	226.52
869.99	226.55
870.30	226.57
870.61	226.54
870.92	226.52
871.23	226.48
871.54	226.51
871.85	226.55
872.16	226.55
872.47	226.56
872.78	226.49
873.09	226.48
873.40	226.46
873.71	226.45
874.02	226.43
874.33	226.40
874.64	226.38
874.95	226.44
875.26	226.46
875.56	226.44
875.87	226.44
876.18	226.41
876.49	226.47
876.80	226.39
877.11	226.43
877.42	226.38
877.73	226.41
878.04	226.38
878.35	226.35
878.66	226.36
878.96	226.34
879.27	226.33
879.58	226.32
879.89	226.30
880.20	226.32
880.51	226.34
880.82	226.34
881.12	226.30
881.43	226.27
881.74	226.23
882.05	226.24
882.36	226.29
882.67	226.30
882.97	226.23
883.28	226.23
883.59	226.20
883.90	226.23
884.21	226.21
884.51	226.19
884.82	226.16
885.13	226.13
885.44	226.13
885.74	226.14
886.05	226.15
886.36	226.18
886.67	226.15
886.98	226.16
887.28	226.12
887.59	226.14
887.90	226.14
888.20	226.11
888.51	226.14
888.82	226.05
889.13	226.09
889.43	226.17
889.74	226.18
890.05	226.18
890.35	226.17
890.66	226.18
890.97	226.21
891.28	226.22
891.58	226.23
891.89	226.22
892.20	226.22
892.50	226.19
892.81	226.20
893.12	226.21
893.42	226.23
893.73	226.25
894.04	226.24
894.34	226.24
894.65	226.29
894.95	226.25
895.26	226.29
895.57	226.30
895.87	226.22
896.18	226.23
896.48	226.22
896.79	226.23
897.10	226.25
897.40	226.23
897.71	226.24
898.01	226.25
898.32	226.27
898.63	226.25
898.93	226.29
899.24	226.27
899.54	226.25
899.85	226.24
900.15	226.24
900.46	226.27
900.76	226.27
901.07	226.28
901.38	226.28
901.68	226.31
901.99	226.28
902.29	226.26
902.60	226.24
902.90	226.26
903.21	226.25
903.51	226.23
903.82	226.28
904.12	226.30
904.43	226.29
904.73	226.28
905.03	226.31
905.34	226.41
905.64	226.38
905.95	226.36
906.25	226.36
906.56	226.36
906.86	226.37
907.17	226.37
907.47	226.36
907.77	226.38
908.08	226.34
908.38	226.35
908.69	226.36
908.99	226.40
909.30	226.41
909.60	226.35
909.90	226.35
910.21	226.30
910.51	226.27
910.81	226.26
911.12	226.24
911.42	226.21
911.73	226.08
912.03	226.11
912.33	226.15
912.64	226.11
912.94	226.08
913.24	226.04
913.55	226.03
913.85	226.02
914.15	226.04
914.46	226.04
914.76	226.02
915.06	225.99
915.37	225.95
915.67	225.92
915.97	225.94
916.27	225.93
916.58	225.92
916.88	225.93
917.18	225.91
917.49	225.99
917.79	226.02
918.09	226.04
918.39	226.06
918.70	226.08
919.00	226.08
919.30	226.16
919.60	226.17
919.91	226.12
920.21	226.14
920.51	226.06
920.81	226.04
921.12	226.03
921.42	226.03
921.72	226.04
922.02	226.04
922.32	226.07
922.63	226.07
922.93	226.12
923.23	226.09
923.53	226.06
923.83	226.01
924.13	225.99
924.44	225.99
924.74	225.99
925.04	225.99
925.34	225.99
925.64	225.92
925.94	225.91
926.24	225.98
926.55	225.95
926.85	225.99
927.15	226.02
927.45	226.03
927.75	226.02
928.05	226.00
928.35	226.00
928.65	226.05
928.95	226.08
929.26	226.01
929.56	226.03
929.86	226.07
930.16	226.06
930.46	226.03
930.76	226.04
931.06	226.00
931.36	225.99
931.66	226.02
931.96	226.03
932.26	226.06
932.56	226.03
932.86	226.06
933.16	226.10
933.46	226.07
933.76	226.07
934.06	226.11
934.36	226.15
934.66	226.19
934.96	226.16
935.26	226.15
935.56	226.24
935.86	226.23
936.16	226.23
936.46	226.24
936.76	226.25
937.06	226.26
937.36	226.30
937.66	226.30
937.96	226.28
938.26	226.30
938.56	226.28
938.86	226.29
939.16	226.31
939.46	226.31
939.76	226.36
940.06	226.38
940.35	226.41
940.65	226.37
940.95	226.38
941.25	226.33
941.55	226.36
941.85	226.33
942.15	226.38
942.45	226.45
942.75	226.44
943.04	226.45
943.34	226.47
943.64	226.44
943.94	226.42
944.24	226.44
944.54	226.43
944.84	226.45
945.13	226.46
945.43	226.43
945.73	226.39
946.03	226.37
946.33	226.33
946.62	226.28
946.92	226.26
947.22	226.26
947.52	226.26
947.82	226.23
948.11	226.22
948.41	226.17
948.71	226.12
949.01	226.14
949.31	226.13
949.60	226.08
949.90	226.12
950.20	226.10
950.50	226.07
950.79	226.05
951.09	226.03
951.39	225.98
951.69	225.98
951.98	226.01
952.28	226.02
952.58	226.00
952.87	226.02
953.17	226.02
953.47	225.98
953.76	225.99
954.06	225.98
954.36	225.97
954.66	225.97
954.95	225.96
955.25	225.95
955.55	225.95
955.84	225.92
956.14	225.87
956.44	225.87
956.73	225.86
957.03	225.84
957.32	225.84
957.62	225.82
957.92	225.81
958.21	225.80
958.51	225.87
958.81	225.88
959.10	225.88
959.40	225.92
959.69	225.92
959.99	225.94
960.29	225.90
960.58	225.87
960.88	225.90
961.17	225.88
961.47	225.86
961.76	225.84
962.06	225.84
962.36	225.85
962.65	225.84
962.95	225.84
963.24	225.85
963.54	225.87
963.83	225.88
964.13	225.88
964.42	225.80
964.72	225.76
965.01	225.73
965.31	225.72
965.60	225.69
965.90	225.75
966.19	225.72
966.49	225.78
966.78	225.78
967.08	225.77
967.37	225.80
967.67	225.79
967.96	225.82
968.26	225.84
968.55	225.86
968.85	225.88
969.14	225.88
969.43	225.90
969.73	225.89
970.02	225.90
970.32	225.93
970.61	225.97
970.91	225.94
971.20	225.96
971.49	225.95
971.79	225.96
972.08	225.88
972.38	225.92
972.67	225.89
972.96	225.94
973.26	225.95
973.55	226.00
973.85	226.01
974.14	226.00
974.43	226.01
974.73	226.02
975.02	226.01
975.31	226.03
975.61	226.03
975.90	226.02
976.19	226.02
976.49	226.04
976.78	226.06
977.07	226.08
977.37	226.11
977.66	226.15
977.95	226.17
978.24	226.19
978.54	226.21
978.83	226.26
979.12	226.25
979.42	226.24
979.71	226.23
980.00	226.23
980.29	226.23
980.59	226.20
980.88	226.18
981.17	226.19
981.46	226.18
981.76	226.19
982.05	226.21
982.34	226.21
982.63	226.21
982.93	226.22
983.22	226.23
983.51	226.21
983.80	226.20
984.09	226.21
984.39	226.23
984.68	226.20
984.97	226.19
985.26	226.19
985.55	226.21
985.85	226.15
986.14	226.15
986.43	226.19
986.72	226.22
987.01	226.19
987.30	226.20
987.59	226.21
987.89	226.21
988.18	226.18
988.47	226.15
988.76	226.13
989.05	226.09
989.34	226.07
989.63	226.09
989.92	226.06
990.22	225.98
990.51	225.93
990.80	225.95
991.09	225.92
991.38	225.87
991.67	225.80
991.96	225.79
992.25	225.79
992.54	225.76
992.83	225.74
993.12	225.75
993.41	225.73
993.70	225.74
993.99	225.73
994.28	225.75
994.58	225.79
994.87	225.76
995.16	225.77
995.45	225.77
995.74	225.74
996.03	225.75
996.32	225.79
996.61	225.83
996.90	225.78
997.19	225.78
997.48	225.78
997.77	225.80
998.06	225.80
998.34	225.76
998.63	225.74
998.92	225.70
999.21	225.74
999.50	225.74
999.79	225.70
1000.08	225.71
1000.37	225.71
1000.66	225.67
1000.95	225.70
1001.24	225.68
1001.53	225.69
1001.82	225.67
1002.11	225.68
1002.40	225.66
1002.68	225.68
1002.97	225.77
1003.26	225.78
1003.55	225.80
1003.84	225.83
1004.13	225.88
1004.42	225.90
1004.71	225.91
1004.99	225.94
1005.28	225.94
1005.57	225.91
1005.86	225.93
1006.15	225.95
1006.44	225.95
1006.72	225.96
1007.01	226.00
1007.30	226.02
1007.59	226.02
1007.88	226.02
1008.17	226.03
1008.45	226.02
1008.74	226.03
1009.03	226.02
1009.32	226.02
1009.60	226.00
1009.89	225.99
1010.18	225.95
1010.47	225.95
1010.76	225.93
1011.04	225.94
1011.33	225.94
1011.62	225.96
1011.91	225.97
1012.19	225.99
1012.48	225.96
1012.77	225.97
1013.05	225.99
1013.34	225.98
1013.63	225.97
1013.92	226.01
1014.20	226.02
1014.49	226.06
1014.78	226.05
1015.06	225.98
1015.35	225.96
1015.64	225.99
1015.92	226.02
1016.21	226.01
1016.50	226.04
1016.78	226.08
1017.07	226.09
1017.36	226.05
1017.64	226.06
1017.93	226.05
1018.22	226.01
1018.50	226.04
1018.79	226.03
1019.08	226.02
1019.36	226.05
1019.65	226.03
1019.93	226.06
1020.22	226.05
1020.51	226.08
1020.79	226.08
1021.08	225.85
1021.36	225.86
1021.65	225.79
1021.94	226.71
1022.22	226.52
1022.51	225.78
1022.79	226.92
1023.08	225.88
1023.36	226.99
1023.65	226.23
>>>>>End Processed Spectral Data<<<<<
