SpectraSuite Data File
++++++++++++++++++++++++++++++++++++
Date: Fri Feb 01 17:04:29 EST 2013
User: group
Dark Spectrum Present: No
Reference Spectrum Present: No
Number of Sampled Component Spectra: 1
Spectrometers: USB2E7196
Integration Time (usec): 35000 (USB2E7196)
Spectra Averaged: 100 (USB2E7196)
Boxcar Smoothing: 10 (USB2E7196)
Correct for Electrical Dark: No (USB2E7196)
Strobe/Lamp Enabled: No (USB2E7196)
Correct for Detector Non-linearity: No (USB2E7196)
Correct for Stray Light: No (USB2E7196)
Number of Pixels in Processed Spectrum: 2048
>>>>>Begin Processed Spectral Data<<<<<
339.09	0.00
339.48	213.07
339.86	214.43
340.24	215.46
340.63	217.59
341.01	220.58
341.39	220.55
341.78	221.54
342.16	222.27
342.54	223.05
342.93	211.66
343.31	222.38
343.69	222.95
344.07	223.41
344.46	223.84
344.84	224.23
345.22	224.49
345.60	224.74
345.99	224.95
346.37	225.09
346.75	225.20
347.13	225.28
347.52	225.34
347.90	225.37
348.28	225.40
348.66	225.45
349.05	225.46
349.43	225.49
349.81	225.53
350.19	225.59
350.57	225.63
350.96	225.71
351.34	225.77
351.72	225.84
352.10	225.95
352.48	226.03
352.87	226.07
353.25	226.10
353.63	226.14
354.01	226.19
354.39	226.27
354.77	226.34
355.15	226.43
355.54	226.50
355.92	226.57
356.30	226.65
356.68	226.79
357.06	226.87
357.44	226.92
357.82	226.97
358.20	227.04
358.58	227.12
358.97	227.22
359.35	227.30
359.73	227.37
360.11	227.42
360.49	227.53
360.87	227.57
361.25	227.61
361.63	227.69
362.01	227.72
362.39	227.74
362.77	227.78
363.15	227.80
363.53	227.83
363.91	227.83
364.29	227.82
364.67	227.73
365.05	227.73
365.43	227.76
365.81	227.77
366.19	227.78
366.57	227.81
366.95	227.78
367.33	227.74
367.71	227.71
368.09	227.73
368.47	227.69
368.85	227.66
369.23	227.67
369.61	227.58
369.99	227.59
370.37	227.59
370.75	227.59
371.13	227.52
371.51	227.45
371.89	227.45
372.27	227.41
372.65	227.38
373.03	227.36
373.41	227.29
373.78	227.22
374.16	227.15
374.54	227.05
374.92	226.97
375.30	226.91
375.68	226.85
376.06	226.80
376.44	226.73
376.82	226.68
377.19	226.61
377.57	226.55
377.95	226.46
378.33	226.37
378.71	226.23
379.09	226.19
379.47	226.15
379.84	226.08
380.22	226.00
380.60	225.91
380.98	225.82
381.36	225.76
381.73	225.71
382.11	225.68
382.49	225.63
382.87	225.57
383.25	225.53
383.62	225.55
384.00	225.46
384.38	225.41
384.76	225.41
385.13	225.40
385.51	225.36
385.89	225.31
386.27	225.25
386.64	225.26
387.02	225.22
387.40	225.17
387.78	225.11
388.15	225.10
388.53	225.07
388.91	225.00
389.29	224.96
389.66	224.95
390.04	224.88
390.42	224.84
390.79	224.81
391.17	224.78
391.55	224.67
391.92	224.65
392.30	224.68
392.68	224.64
393.05	224.61
393.43	224.60
393.81	224.60
394.18	224.62
394.56	224.61
394.94	224.65
395.31	224.65
395.69	224.70
396.06	224.73
396.44	224.76
396.82	224.82
397.19	224.90
397.57	224.90
397.95	224.97
398.32	225.01
398.70	225.07
399.07	225.13
399.45	225.19
399.82	225.24
400.20	225.26
400.58	225.31
400.95	225.36
401.33	225.44
401.70	225.57
402.08	225.63
402.45	225.74
402.83	225.82
403.20	225.92
403.58	226.03
403.95	226.13
404.33	226.25
404.71	226.35
405.08	226.50
405.46	226.66
405.83	226.81
406.21	226.94
406.58	227.12
406.96	227.29
407.33	227.49
407.70	227.68
408.08	227.94
408.45	228.16
408.83	228.37
409.20	228.59
409.58	228.74
409.95	229.00
410.33	229.26
410.70	229.53
411.08	229.82
411.45	230.11
411.82	230.39
412.20	230.75
412.57	231.16
412.95	231.45
413.32	231.83
413.69	232.22
414.07	232.64
414.44	233.09
414.82	233.56
415.19	234.08
415.56	234.62
415.94	235.14
416.31	235.76
416.68	236.40
417.06	237.13
417.43	237.81
417.81	238.57
418.18	239.34
418.55	240.15
418.93	240.99
419.30	241.87
419.67	242.82
420.04	243.76
420.42	244.76
420.79	245.94
421.16	247.12
421.54	248.31
421.91	249.53
422.28	250.77
422.66	252.07
423.03	253.38
423.40	254.72
423.77	256.14
424.15	257.55
424.52	259.03
424.89	260.60
425.26	262.15
425.64	263.59
426.01	265.18
426.38	266.84
426.75	268.50
427.13	270.21
427.50	271.98
427.87	273.84
428.24	275.65
428.61	277.38
428.99	279.29
429.36	281.35
429.73	283.37
430.10	285.40
430.47	287.47
430.85	289.52
431.22	291.71
431.59	294.03
431.96	296.27
432.33	298.70
432.70	301.10
433.08	303.89
433.45	306.50
433.82	309.09
434.19	311.90
434.56	314.71
434.93	317.34
435.30	319.93
435.68	322.83
436.05	325.65
436.42	328.45
436.79	330.96
437.16	333.62
437.53	336.42
437.90	339.22
438.27	341.93
438.64	344.73
439.01	347.33
439.38	349.58
439.75	351.74
440.13	354.24
440.50	356.49
440.87	358.37
441.24	360.32
441.61	362.43
441.98	363.96
442.35	365.76
442.72	367.62
443.09	369.43
443.46	370.43
443.83	371.01
444.20	371.54
444.57	372.41
444.94	372.76
445.31	373.14
445.68	373.48
446.05	373.61
446.42	373.30
446.79	372.90
447.16	372.47
447.53	372.14
447.90	371.01
448.27	369.93
448.64	368.34
449.01	367.18
449.37	365.26
449.74	363.39
450.11	361.17
450.48	358.76
450.85	356.28
451.22	354.13
451.59	352.14
451.96	350.22
452.33	347.58
452.70	345.22
453.07	342.39
453.43	339.54
453.80	336.79
454.17	334.13
454.54	331.58
454.91	328.93
455.28	326.31
455.65	323.85
456.02	321.42
456.38	319.31
456.75	316.72
457.12	314.50
457.49	312.29
457.86	310.13
458.23	308.27
458.59	306.20
458.96	304.17
459.33	302.33
459.70	300.48
460.07	299.03
460.43	297.36
460.80	295.80
461.17	294.38
461.54	292.88
461.91	291.51
462.27	290.08
462.64	288.80
463.01	287.44
463.38	286.16
463.74	284.80
464.11	283.66
464.48	282.65
464.85	281.53
465.21	280.72
465.58	279.83
465.95	278.76
466.32	277.85
466.68	276.96
467.05	276.07
467.42	275.19
467.78	274.27
468.15	273.40
468.52	272.76
468.88	271.88
469.25	271.12
469.62	270.46
469.98	269.80
470.35	269.21
470.72	268.66
471.08	268.03
471.45	267.52
471.82	266.97
472.18	266.39
472.55	266.01
472.92	265.47
473.28	265.02
473.65	264.61
474.02	264.23
474.38	263.89
474.75	263.59
475.11	263.28
475.48	263.05
475.85	262.80
476.21	262.56
476.58	262.43
476.94	262.31
477.31	262.15
477.67	262.05
478.04	261.94
478.41	261.85
478.77	261.89
479.14	261.82
479.50	261.81
479.87	261.92
480.23	261.98
480.60	262.03
480.96	262.12
481.33	262.33
481.69	262.51
482.06	262.73
482.42	262.93
482.79	263.15
483.15	263.44
483.52	263.88
483.88	264.24
484.25	264.60
484.61	265.02
484.98	265.51
485.34	266.09
485.71	266.69
486.07	267.29
486.44	267.84
486.80	268.54
487.17	269.29
487.53	270.10
487.90	270.93
488.26	271.87
488.62	272.87
488.99	273.83
489.35	274.87
489.72	275.98
490.08	277.22
490.44	278.46
490.81	279.75
491.17	281.06
491.54	282.50
491.90	284.00
492.26	285.63
492.63	287.33
492.99	289.10
493.36	290.93
493.72	292.98
494.08	295.10
494.45	297.33
494.81	299.66
495.17	302.04
495.54	304.61
495.90	307.29
496.26	310.09
496.63	313.06
496.99	316.14
497.35	319.35
497.72	322.70
498.08	326.16
498.44	329.80
498.80	333.70
499.17	337.69
499.53	341.90
499.89	346.23
500.26	350.69
500.62	355.31
500.98	360.27
501.34	365.30
501.71	370.58
502.07	376.00
502.43	381.58
502.79	387.39
503.16	393.38
503.52	399.60
503.88	405.92
504.24	412.46
504.60	419.26
504.97	426.40
505.33	433.67
505.69	441.35
506.05	449.08
506.41	456.88
506.78	465.00
507.14	473.31
507.50	481.88
507.86	490.78
508.22	499.87
508.59	509.00
508.95	518.44
509.31	528.13
509.67	538.08
510.03	548.28
510.39	558.63
510.75	569.28
511.12	580.10
511.48	591.27
511.84	602.57
512.20	613.90
512.56	625.64
512.92	637.57
513.28	649.73
513.64	662.03
514.00	674.60
514.37	687.36
514.73	700.28
515.09	713.12
515.45	726.23
515.81	739.63
516.17	753.33
516.53	767.23
516.89	781.16
517.25	795.14
517.61	809.28
517.97	823.50
518.33	837.66
518.69	852.13
519.05	866.82
519.41	881.74
519.77	897.06
520.13	912.31
520.49	927.42
520.85	942.44
521.21	957.78
521.57	973.71
521.93	989.06
522.29	1005.10
522.65	1021.06
523.01	1036.96
523.37	1052.57
523.73	1068.41
524.09	1084.20
524.45	1100.14
524.81	1116.34
525.17	1132.71
525.53	1149.22
525.89	1165.76
526.25	1182.40
526.61	1198.39
526.97	1214.71
527.33	1230.85
527.68	1246.97
528.04	1263.18
528.40	1279.47
528.76	1296.16
529.12	1312.30
529.48	1328.86
529.84	1344.45
530.20	1360.71
530.56	1377.30
530.91	1394.38
531.27	1410.75
531.63	1426.82
531.99	1442.95
532.35	1458.64
532.71	1474.16
533.07	1489.95
533.42	1505.52
533.78	1520.99
534.14	1536.96
534.50	1551.93
534.86	1567.33
535.21	1582.19
535.57	1597.68
535.93	1612.83
536.29	1627.23
536.65	1641.82
537.00	1656.13
537.36	1671.10
537.72	1685.22
538.08	1699.28
538.44	1712.70
538.79	1726.16
539.15	1739.47
539.51	1752.89
539.87	1766.88
540.22	1780.41
540.58	1793.86
540.94	1806.66
541.29	1819.17
541.65	1831.51
542.01	1844.45
542.37	1856.58
542.72	1868.68
543.08	1880.22
543.44	1892.31
543.79	1903.46
544.15	1914.32
544.51	1925.79
544.87	1936.58
545.22	1947.19
545.58	1957.29
545.94	1966.94
546.29	1976.70
546.65	1986.44
547.01	1995.62
547.36	2004.18
547.72	2012.38
548.07	2020.23
548.43	2028.31
548.79	2036.15
549.14	2043.67
549.50	2050.78
549.86	2058.24
550.21	2065.43
550.57	2072.47
550.92	2079.03
551.28	2085.85
551.64	2092.83
551.99	2099.06
552.35	2105.07
552.70	2111.22
553.06	2117.12
553.41	2123.35
553.77	2129.27
554.13	2135.20
554.48	2141.21
554.84	2146.70
555.19	2151.92
555.55	2157.11
555.90	2161.78
556.26	2166.92
556.61	2171.52
556.97	2176.04
557.32	2180.29
557.68	2184.45
558.03	2188.69
558.39	2192.40
558.74	2197.07
559.10	2200.99
559.45	2204.81
559.81	2209.03
560.16	2212.94
560.52	2216.22
560.87	2219.62
561.23	2222.36
561.58	2225.32
561.94	2227.93
562.29	2230.40
562.64	2233.30
563.00	2235.91
563.35	2239.40
563.71	2242.44
564.06	2245.74
564.42	2248.69
564.77	2251.37
565.12	2253.89
565.48	2256.11
565.83	2258.19
566.19	2259.66
566.54	2260.62
566.89	2261.95
567.25	2262.87
567.60	2264.26
567.96	2266.16
568.31	2267.27
568.66	2268.71
569.02	2269.57
569.37	2270.21
569.72	2271.16
570.08	2271.50
570.43	2271.86
570.78	2271.58
571.14	2270.36
571.49	2269.06
571.84	2268.91
572.20	2267.99
572.55	2266.99
572.90	2265.40
573.26	2264.13
573.61	2262.67
573.96	2261.39
574.31	2258.73
574.67	2256.08
575.02	2252.73
575.37	2249.48
575.72	2245.99
576.08	2242.75
576.43	2239.54
576.78	2236.14
577.13	2233.12
577.49	2230.09
577.84	2226.85
578.19	2223.14
578.54	2219.82
578.90	2216.06
579.25	2210.66
579.60	2205.92
579.95	2201.08
580.30	2196.28
580.66	2191.41
581.01	2186.52
581.36	2181.60
581.71	2177.75
582.06	2173.41
582.42	2169.08
582.77	2164.08
583.12	2159.74
583.47	2155.37
583.82	2150.66
584.17	2145.50
584.53	2140.20
584.88	2134.97
585.23	2129.35
585.58	2124.21
585.93	2118.87
586.28	2114.19
586.63	2109.45
586.98	2104.60
587.34	2100.13
587.69	2095.56
588.04	2090.55
588.39	2085.24
588.74	2079.09
589.09	2073.02
589.44	2066.51
589.79	2060.58
590.14	2055.14
590.49	2048.74
590.84	2042.39
591.19	2036.55
591.54	2030.31
591.89	2023.37
592.25	2016.90
592.60	2009.83
592.95	2002.54
593.30	1995.37
593.65	1987.91
594.00	1981.01
594.35	1973.90
594.70	1966.07
595.05	1959.19
595.40	1951.89
595.75	1944.56
596.10	1938.59
596.45	1932.15
596.80	1926.09
597.15	1919.76
597.50	1913.05
597.85	1906.67
598.19	1900.24
598.54	1893.39
598.89	1887.00
599.24	1881.10
599.59	1874.47
599.94	1868.42
600.29	1862.19
600.64	1855.61
600.99	1848.37
601.34	1841.61
601.69	1834.67
602.04	1828.01
602.39	1820.75
602.74	1814.25
603.08	1807.66
603.43	1800.92
603.78	1793.70
604.13	1786.53
604.48	1779.50
604.83	1772.55
605.18	1765.87
605.53	1758.01
605.87	1750.15
606.22	1742.98
606.57	1735.14
606.92	1727.80
607.27	1720.73
607.62	1714.00
607.96	1707.07
608.31	1700.71
608.66	1693.29
609.01	1685.97
609.36	1678.64
609.70	1670.74
610.05	1662.74
610.40	1655.13
610.75	1646.94
611.10	1639.38
611.44	1631.13
611.79	1623.02
612.14	1614.58
612.49	1605.39
612.83	1596.98
613.18	1588.90
613.53	1580.83
613.88	1572.36
614.22	1564.28
614.57	1555.75
614.92	1547.65
615.27	1540.21
615.61	1531.95
615.96	1523.97
616.31	1516.40
616.65	1509.04
617.00	1501.57
617.35	1493.97
617.70	1485.71
618.04	1477.30
618.39	1468.99
618.74	1461.54
619.08	1453.33
619.43	1445.73
619.78	1438.86
620.12	1431.88
620.47	1424.29
620.82	1416.22
621.16	1408.78
621.51	1401.11
621.85	1393.47
622.20	1384.96
622.55	1376.59
622.89	1368.70
623.24	1361.06
623.59	1353.58
623.93	1346.00
624.28	1338.72
624.62	1331.17
624.97	1324.04
625.32	1317.30
625.66	1310.31
626.01	1303.16
626.35	1295.91
626.70	1288.23
627.04	1280.55
627.39	1272.75
627.73	1265.50
628.08	1258.62
628.43	1251.58
628.77	1244.29
629.12	1236.79
629.46	1229.77
629.81	1222.22
630.15	1215.02
630.50	1207.74
630.84	1199.71
631.19	1191.87
631.53	1184.34
631.88	1176.82
632.22	1169.24
632.57	1161.85
632.91	1154.29
633.26	1146.88
633.60	1139.46
633.95	1132.23
634.29	1125.21
634.64	1118.66
634.98	1111.24
635.32	1104.11
635.67	1097.33
636.01	1090.66
636.36	1083.98
636.70	1077.53
637.05	1071.07
637.39	1064.69
637.73	1058.20
638.08	1052.26
638.42	1046.22
638.77	1039.90
639.11	1033.41
639.45	1027.08
639.80	1020.53
640.14	1014.20
640.49	1007.75
640.83	1001.52
641.17	995.40
641.52	989.14
641.86	982.56
642.20	976.81
642.55	970.54
642.89	964.20
643.23	957.72
643.58	952.01
643.92	945.83
644.26	939.89
644.61	933.79
644.95	927.88
645.29	921.45
645.64	914.75
645.98	908.46
646.32	902.59
646.66	896.59
647.01	890.79
647.35	885.23
647.69	879.41
648.04	873.78
648.38	868.12
648.72	862.22
649.06	856.30
649.41	850.34
649.75	844.45
650.09	838.59
650.43	832.89
650.78	826.71
651.12	820.72
651.46	814.99
651.80	809.39
652.14	803.95
652.49	798.63
652.83	793.57
653.17	787.99
653.51	782.42
653.85	777.02
654.20	771.48
654.54	765.53
654.88	759.74
655.22	753.93
655.56	748.21
655.90	742.74
656.25	737.58
656.59	732.35
656.93	727.27
657.27	722.16
657.61	716.73
657.95	711.65
658.29	706.66
658.64	701.43
658.98	696.12
659.32	690.71
659.66	685.52
660.00	680.21
660.34	675.19
660.68	670.24
661.02	665.29
661.36	660.60
661.70	656.10
662.05	651.83
662.39	647.61
662.73	643.13
663.07	638.75
663.41	634.35
663.75	629.86
664.09	625.30
664.43	620.86
664.77	616.83
665.11	612.68
665.45	608.48
665.79	604.42
666.13	600.29
666.47	596.23
666.81	592.09
667.15	588.02
667.49	584.13
667.83	580.31
668.17	576.35
668.51	572.33
668.85	568.29
669.19	564.43
669.53	560.54
669.87	556.78
670.21	553.11
670.55	549.40
670.89	545.99
671.23	542.56
671.57	539.11
671.91	535.52
672.25	532.00
672.58	528.56
672.92	525.15
673.26	521.96
673.60	518.80
673.94	515.71
674.28	512.74
674.62	509.90
674.96	506.85
675.30	503.94
675.64	501.00
675.97	498.18
676.31	495.33
676.65	492.44
676.99	489.67
677.33	486.77
677.67	483.99
678.01	481.00
678.34	478.03
678.68	475.13
679.02	472.28
679.36	469.52
679.70	466.78
680.04	464.10
680.37	461.32
680.71	458.52
681.05	455.87
681.39	453.21
681.73	450.46
682.06	447.93
682.40	445.42
682.74	442.91
683.08	440.39
683.42	437.81
683.75	435.36
684.09	432.86
684.43	430.48
684.77	428.02
685.10	425.64
685.44	423.35
685.78	421.08
686.12	418.86
686.45	416.57
686.79	414.32
687.13	412.10
687.46	409.91
687.80	407.76
688.14	405.55
688.48	403.50
688.81	401.32
689.15	399.17
689.49	397.04
689.82	394.95
690.16	392.84
690.50	390.94
690.83	388.99
691.17	386.97
691.51	385.03
691.84	383.24
692.18	381.36
692.52	379.43
692.85	377.53
693.19	375.72
693.52	373.91
693.86	372.07
694.20	370.30
694.53	368.57
694.87	366.70
695.21	364.92
695.54	363.09
695.88	361.33
696.21	359.62
696.55	357.97
696.88	356.33
697.22	354.71
697.56	353.07
697.89	351.42
698.23	349.88
698.56	348.33
698.90	346.72
699.23	345.08
699.57	343.55
699.90	342.01
700.24	340.43
700.58	338.91
700.91	337.48
701.25	336.03
701.58	334.61
701.92	333.27
702.25	331.91
702.59	330.55
702.92	329.26
703.26	327.99
703.59	326.67
703.93	325.48
704.26	324.25
704.60	322.96
704.93	321.66
705.26	320.35
705.60	319.10
705.93	317.92
706.27	316.90
706.60	315.84
706.94	314.75
707.27	313.62
707.61	312.52
707.94	311.44
708.27	310.34
708.61	309.25
708.94	308.27
709.28	307.27
709.61	306.32
709.94	305.36
710.28	304.33
710.61	303.33
710.95	302.23
711.28	301.33
711.61	300.39
711.95	299.50
712.28	298.57
712.61	297.60
712.95	296.65
713.28	295.72
713.61	294.79
713.95	293.88
714.28	293.07
714.61	292.18
714.95	291.34
715.28	290.47
715.61	289.60
715.95	288.71
716.28	287.87
716.61	287.00
716.95	286.14
717.28	285.39
717.61	284.64
717.94	283.85
718.28	283.00
718.61	282.24
718.94	281.51
719.27	280.89
719.61	280.28
719.94	279.62
720.27	278.92
720.60	278.23
720.94	277.65
721.27	277.04
721.60	276.49
721.93	275.88
722.27	275.34
722.60	274.83
722.93	274.25
723.26	273.66
723.59	273.15
723.93	272.64
724.26	272.10
724.59	271.53
724.92	271.03
725.25	270.53
725.59	270.04
725.92	269.54
726.25	269.00
726.58	268.49
726.91	267.98
727.24	267.51
727.57	267.07
727.91	266.52
728.24	266.05
728.57	265.57
728.90	265.15
729.23	264.68
729.56	264.23
729.89	263.81
730.22	263.35
730.55	262.87
730.89	262.39
731.22	261.94
731.55	261.51
731.88	261.11
732.21	260.70
732.54	260.25
732.87	259.84
733.20	259.43
733.53	259.03
733.86	258.68
734.19	258.30
734.52	257.89
734.85	257.62
735.18	257.20
735.51	256.80
735.84	256.41
736.17	256.03
736.50	255.61
736.83	255.37
737.16	255.04
737.49	254.70
737.82	254.37
738.15	254.05
738.48	253.67
738.81	253.35
739.14	253.04
739.47	252.71
739.80	252.39
740.13	252.08
740.46	251.78
740.79	251.48
741.12	251.19
741.45	250.86
741.78	250.50
742.11	250.25
742.44	249.93
742.77	249.65
743.10	249.38
743.43	249.09
743.75	248.71
744.08	248.55
744.41	248.29
744.74	248.06
745.07	247.76
745.40	247.54
745.73	247.32
746.06	247.01
746.39	246.74
746.71	246.48
747.04	246.20
747.37	245.92
747.70	245.66
748.03	245.40
748.36	245.20
748.68	244.97
749.01	244.68
749.34	244.49
749.67	244.24
750.00	244.02
750.33	243.88
750.65	243.66
750.98	243.33
751.31	243.07
751.64	242.81
751.97	242.64
752.29	242.39
752.62	242.10
752.95	241.90
753.28	241.69
753.60	241.49
753.93	241.32
754.26	241.14
754.59	240.90
754.91	240.68
755.24	240.47
755.57	240.29
755.90	240.11
756.22	239.88
756.55	239.72
756.88	239.54
757.20	239.27
757.53	239.06
757.86	238.88
758.19	238.75
758.51	238.62
758.84	238.41
759.17	238.25
759.49	238.12
759.82	237.98
760.15	237.86
760.47	237.71
760.80	237.56
761.13	237.42
761.45	237.27
761.78	237.10
762.11	236.95
762.43	236.75
762.76	236.64
763.08	236.50
763.41	236.34
763.74	236.18
764.06	236.04
764.39	235.91
764.71	235.77
765.04	235.61
765.37	235.48
765.69	235.33
766.02	235.21
766.34	235.09
766.67	234.92
767.00	234.78
767.32	234.71
767.65	234.62
767.97	234.50
768.30	234.41
768.62	234.32
768.95	234.23
769.27	234.12
769.60	234.02
769.92	233.90
770.25	233.79
770.57	233.67
770.90	233.58
771.22	233.49
771.55	233.40
771.87	233.31
772.20	233.21
772.52	233.21
772.85	233.24
773.17	233.14
773.50	233.11
773.82	232.99
774.15	232.88
774.47	232.73
774.80	232.62
775.12	232.55
775.45	232.44
775.77	232.33
776.09	232.27
776.42	232.20
776.74	232.15
777.07	232.06
777.39	231.98
777.72	231.90
778.04	231.83
778.36	231.75
778.69	231.71
779.01	231.65
779.33	231.50
779.66	231.35
779.98	231.25
780.31	231.15
780.63	231.16
780.95	231.11
781.28	231.08
781.60	231.02
781.92	230.93
782.25	230.90
782.57	230.87
782.89	230.80
783.22	230.75
783.54	230.67
783.86	230.63
784.19	230.58
784.51	230.59
784.83	230.50
785.16	230.41
785.48	230.34
785.80	230.29
786.12	230.26
786.45	230.17
786.77	230.15
787.09	230.10
787.42	230.04
787.74	229.95
788.06	229.92
788.38	229.86
788.71	229.80
789.03	229.77
789.35	229.72
789.67	229.71
789.99	229.66
790.32	229.61
790.64	229.59
790.96	229.62
791.28	229.54
791.61	229.50
791.93	229.51
792.25	229.48
792.57	229.51
792.89	229.46
793.21	229.43
793.54	229.40
793.86	229.36
794.18	229.32
794.50	229.29
794.82	229.24
795.14	229.21
795.47	229.19
795.79	229.14
796.11	229.10
796.43	229.05
796.75	229.03
797.07	229.03
797.39	229.02
797.71	228.91
798.04	228.89
798.36	228.84
798.68	228.78
799.00	228.78
799.32	228.69
799.64	228.66
799.96	228.64
800.28	228.60
800.60	228.59
800.92	228.54
801.24	228.49
801.56	228.48
801.89	228.46
802.21	228.45
802.53	228.41
802.85	228.37
803.17	228.37
803.49	228.31
803.81	228.27
804.13	228.24
804.45	228.22
804.77	228.18
805.09	228.17
805.41	228.14
805.73	228.08
806.05	228.02
806.37	228.00
806.69	227.94
807.01	227.91
807.33	227.87
807.65	227.82
807.97	227.83
808.28	227.78
808.60	227.74
808.92	227.69
809.24	227.71
809.56	227.71
809.88	227.65
810.20	227.64
810.52	227.58
810.84	227.51
811.16	227.47
811.48	227.42
811.80	227.42
812.12	227.42
812.43	227.40
812.75	227.37
813.07	227.35
813.39	227.33
813.71	227.31
814.03	227.26
814.35	227.25
814.67	227.20
814.98	227.15
815.30	227.13
815.62	227.09
815.94	227.01
816.26	227.04
816.58	226.99
816.89	226.99
817.21	226.98
817.53	226.98
817.85	226.94
818.17	226.96
818.48	226.93
818.80	226.92
819.12	226.90
819.44	226.86
819.76	226.85
820.07	226.84
820.39	226.80
820.71	226.81
821.03	226.81
821.34	226.81
821.66	226.83
821.98	226.86
822.30	226.87
822.61	226.89
822.93	226.80
823.25	226.78
823.57	226.75
823.88	226.76
824.20	226.72
824.52	226.75
824.83	226.74
825.15	226.71
825.47	226.70
825.79	226.67
826.10	226.66
826.42	226.62
826.74	226.62
827.05	226.63
827.37	226.59
827.69	226.57
828.00	226.52
828.32	226.50
828.64	226.43
828.95	226.48
829.27	226.46
829.58	226.45
829.90	226.49
830.22	226.47
830.53	226.44
830.85	226.43
831.17	226.38
831.48	226.36
831.80	226.38
832.11	226.34
832.43	226.34
832.75	226.35
833.06	226.39
833.38	226.36
833.69	226.30
834.01	226.34
834.32	226.33
834.64	226.34
834.96	226.32
835.27	226.29
835.59	226.24
835.90	226.22
836.22	226.24
836.53	226.16
836.85	226.16
837.16	226.22
837.48	226.21
837.79	226.24
838.11	226.22
838.42	226.18
838.74	226.20
839.05	226.17
839.37	226.16
839.68	226.12
840.00	226.07
840.31	226.12
840.63	226.08
840.94	226.06
841.26	226.07
841.57	226.08
841.88	226.13
842.20	226.11
842.51	226.11
842.83	226.10
843.14	226.23
843.46	226.21
843.77	226.16
844.08	226.16
844.40	226.13
844.71	226.14
845.03	226.15
845.34	226.12
845.65	226.14
845.97	226.13
846.28	226.11
846.60	226.13
846.91	226.09
847.22	226.10
847.54	226.13
847.85	226.12
848.16	226.09
848.48	226.08
848.79	226.10
849.10	226.10
849.42	226.12
849.73	226.04
850.04	226.06
850.36	226.02
850.67	226.02
850.98	226.04
851.30	226.04
851.61	226.03
851.92	226.05
852.23	226.10
852.55	226.10
852.86	226.14
853.17	226.17
853.49	226.23
853.80	226.26
854.11	226.25
854.42	226.27
854.74	226.26
855.05	226.25
855.36	226.21
855.67	226.22
855.99	226.19
856.30	226.28
856.61	226.25
856.92	226.29
857.23	226.31
857.55	226.26
857.86	226.26
858.17	226.28
858.48	226.25
858.79	226.21
859.11	226.21
859.42	226.17
859.73	226.12
860.04	226.08
860.35	226.04
860.66	225.98
860.98	225.94
861.29	225.94
861.60	225.91
861.91	225.91
862.22	225.86
862.53	225.86
862.84	225.74
863.16	225.76
863.47	225.70
863.78	225.65
864.09	225.65
864.40	225.63
864.71	225.62
865.02	225.60
865.33	225.57
865.64	225.55
865.95	225.52
866.27	225.62
866.58	225.63
866.89	225.64
867.20	225.65
867.51	225.64
867.82	225.64
868.13	225.67
868.44	225.65
868.75	225.67
869.06	225.66
869.37	225.67
869.68	225.63
869.99	225.62
870.30	225.64
870.61	225.63
870.92	225.59
871.23	225.57
871.54	225.58
871.85	225.58
872.16	225.57
872.47	225.54
872.78	225.45
873.09	225.42
873.40	225.40
873.71	225.40
874.02	225.37
874.33	225.35
874.64	225.33
874.95	225.38
875.26	225.34
875.56	225.36
875.87	225.31
876.18	225.32
876.49	225.44
876.80	225.42
877.11	225.44
877.42	225.46
877.73	225.43
878.04	225.43
878.35	225.43
878.66	225.42
878.96	225.45
879.27	225.45
879.58	225.44
879.89	225.40
880.20	225.43
880.51	225.44
880.82	225.47
881.12	225.47
881.43	225.44
881.74	225.45
882.05	225.41
882.36	225.46
882.67	225.45
882.97	225.33
883.28	225.33
883.59	225.32
883.90	225.32
884.21	225.37
884.51	225.36
884.82	225.36
885.13	225.34
885.44	225.31
885.74	225.30
886.05	225.27
886.36	225.31
886.67	225.29
886.98	225.36
887.28	225.37
887.59	225.37
887.90	225.35
888.20	225.38
888.51	225.40
888.82	225.38
889.13	225.40
889.43	225.49
889.74	225.49
890.05	225.47
890.35	225.43
890.66	225.41
890.97	225.42
891.28	225.41
891.58	225.44
891.89	225.46
892.20	225.46
892.50	225.49
892.81	225.49
893.12	225.48
893.42	225.41
893.73	225.41
894.04	225.40
894.34	225.43
894.65	225.38
894.95	225.38
895.26	225.38
895.57	225.39
895.87	225.33
896.18	225.35
896.48	225.38
896.79	225.40
897.10	225.41
897.40	225.41
897.71	225.41
898.01	225.40
898.32	225.44
898.63	225.43
898.93	225.49
899.24	225.48
899.54	225.50
899.85	225.49
900.15	225.48
900.46	225.51
900.76	225.52
901.07	225.54
901.38	225.54
901.68	225.56
901.99	225.52
902.29	225.51
902.60	225.50
902.90	225.51
903.21	225.53
903.51	225.52
903.82	225.54
904.12	225.55
904.43	225.55
904.73	225.52
905.03	225.53
905.34	225.59
905.64	225.59
905.95	225.56
906.25	225.58
906.56	225.59
906.86	225.56
907.17	225.56
907.47	225.57
907.77	225.58
908.08	225.55
908.38	225.56
908.69	225.57
908.99	225.58
909.30	225.57
909.60	225.54
909.90	225.55
910.21	225.53
910.51	225.52
910.81	225.52
911.12	225.54
911.42	225.54
911.73	225.40
912.03	225.40
912.33	225.43
912.64	225.43
912.94	225.39
913.24	225.35
913.55	225.32
913.85	225.29
914.15	225.30
914.46	225.31
914.76	225.30
915.06	225.27
915.37	225.27
915.67	225.27
915.97	225.27
916.27	225.25
916.58	225.25
916.88	225.25
917.18	225.24
917.49	225.28
917.79	225.28
918.09	225.35
918.39	225.39
918.70	225.36
919.00	225.38
919.30	225.44
919.60	225.46
919.91	225.46
920.21	225.47
920.51	225.46
920.81	225.45
921.12	225.45
921.42	225.44
921.72	225.44
922.02	225.41
922.32	225.41
922.63	225.41
922.93	225.45
923.23	225.42
923.53	225.43
923.83	225.40
924.13	225.39
924.44	225.35
924.74	225.37
925.04	225.40
925.34	225.39
925.64	225.32
925.94	225.32
926.24	225.37
926.55	225.35
926.85	225.35
927.15	225.36
927.45	225.35
927.75	225.38
928.05	225.40
928.35	225.41
928.65	225.46
928.95	225.46
929.26	225.41
929.56	225.45
929.86	225.46
930.16	225.44
930.46	225.43
930.76	225.42
931.06	225.35
931.36	225.33
931.66	225.33
931.96	225.37
932.26	225.39
932.56	225.38
932.86	225.40
933.16	225.38
933.46	225.38
933.76	225.38
934.06	225.39
934.36	225.40
934.66	225.40
934.96	225.38
935.26	225.39
935.56	225.39
935.86	225.37
936.16	225.37
936.46	225.35
936.76	225.36
937.06	225.35
937.36	225.38
937.66	225.38
937.96	225.37
938.26	225.34
938.56	225.31
938.86	225.29
939.16	225.31
939.46	225.28
939.76	225.27
940.06	225.28
940.35	225.27
940.65	225.24
940.95	225.26
941.25	225.24
941.55	225.24
941.85	225.25
942.15	225.27
942.45	225.33
942.75	225.32
943.04	225.35
943.34	225.39
943.64	225.39
943.94	225.36
944.24	225.38
944.54	225.41
944.84	225.43
945.13	225.41
945.43	225.39
945.73	225.41
946.03	225.43
946.33	225.41
946.62	225.36
946.92	225.32
947.22	225.30
947.52	225.28
947.82	225.26
948.11	225.25
948.41	225.24
948.71	225.14
949.01	225.16
949.31	225.13
949.60	225.11
949.90	225.09
950.20	225.09
950.50	225.05
950.79	225.02
951.09	225.04
951.39	225.04
951.69	225.03
951.98	225.05
952.28	225.05
952.58	225.05
952.87	225.07
953.17	225.08
953.47	225.06
953.76	225.06
954.06	225.06
954.36	225.06
954.66	225.03
954.95	225.10
955.25	225.09
955.55	225.08
955.84	225.03
956.14	225.03
956.44	225.05
956.73	225.05
957.03	225.05
957.32	225.02
957.62	225.02
957.92	225.03
958.21	225.00
958.51	225.09
958.81	225.11
959.10	225.14
959.40	225.16
959.69	225.18
959.99	225.20
960.29	225.20
960.58	225.18
960.88	225.22
961.17	225.19
961.47	225.20
961.76	225.20
962.06	225.22
962.36	225.20
962.65	225.19
962.95	225.17
963.24	225.17
963.54	225.19
963.83	225.19
964.13	225.19
964.42	225.17
964.72	225.11
965.01	225.13
965.31	225.14
965.60	225.11
965.90	225.18
966.19	225.16
966.49	225.18
966.78	225.18
967.08	225.19
967.37	225.21
967.67	225.20
967.96	225.21
968.26	225.25
968.55	225.29
968.85	225.30
969.14	225.31
969.43	225.33
969.73	225.32
970.02	225.33
970.32	225.36
970.61	225.36
970.91	225.32
971.20	225.29
971.49	225.25
971.79	225.24
972.08	225.19
972.38	225.20
972.67	225.16
972.96	225.18
973.26	225.14
973.55	225.15
973.85	225.14
974.14	225.14
974.43	225.11
974.73	225.07
975.02	225.05
975.31	225.04
975.61	225.03
975.90	225.05
976.19	225.03
976.49	224.99
976.78	224.96
977.07	224.96
977.37	224.95
977.66	224.97
977.95	225.01
978.24	224.98
978.54	224.98
978.83	224.97
979.12	224.92
979.42	224.91
979.71	224.87
980.00	224.85
980.29	224.83
980.59	224.82
980.88	224.83
981.17	224.83
981.46	224.84
981.76	224.86
982.05	224.87
982.34	224.88
982.63	224.89
982.93	224.92
983.22	224.95
983.51	224.93
983.80	224.95
984.09	224.92
984.39	224.92
984.68	224.91
984.97	224.95
985.26	224.96
985.55	224.96
985.85	224.97
986.14	225.02
986.43	225.04
986.72	225.04
987.01	225.02
987.30	225.01
987.59	225.01
987.89	224.98
988.18	224.94
988.47	224.92
988.76	224.93
989.05	224.91
989.34	224.90
989.63	224.95
989.92	224.95
990.22	224.96
990.51	224.94
990.80	224.93
991.09	224.93
991.38	224.96
991.67	224.97
991.96	224.95
992.25	224.94
992.54	224.95
992.83	224.91
993.12	224.93
993.41	224.95
993.70	224.98
993.99	225.01
994.28	225.04
994.58	225.07
994.87	225.07
995.16	225.07
995.45	225.07
995.74	225.04
996.03	225.03
996.32	225.02
996.61	225.05
996.90	225.04
997.19	225.04
997.48	225.01
997.77	224.99
998.06	224.98
998.34	224.96
998.63	224.97
998.92	224.99
999.21	225.02
999.50	225.03
999.79	224.99
1000.08	224.98
1000.37	224.96
1000.66	224.97
1000.95	224.98
1001.24	224.94
1001.53	224.97
1001.82	225.00
1002.11	224.97
1002.40	225.00
1002.68	225.06
1002.97	225.16
1003.26	225.18
1003.55	225.19
1003.84	225.19
1004.13	225.26
1004.42	225.27
1004.71	225.27
1004.99	225.27
1005.28	225.29
1005.57	225.33
1005.86	225.31
1006.15	225.31
1006.44	225.30
1006.72	225.29
1007.01	225.30
1007.30	225.33
1007.59	225.32
1007.88	225.30
1008.17	225.30
1008.45	225.29
1008.74	225.21
1009.03	225.15
1009.32	225.13
1009.60	225.14
1009.89	225.17
1010.18	225.11
1010.47	225.11
1010.76	225.07
1011.04	225.07
1011.33	225.06
1011.62	225.04
1011.91	225.04
1012.19	225.04
1012.48	225.04
1012.77	225.03
1013.05	225.08
1013.34	225.10
1013.63	225.06
1013.92	225.03
1014.20	225.03
1014.49	225.00
1014.78	225.05
1015.06	225.03
1015.35	225.03
1015.64	225.02
1015.92	225.00
1016.21	225.00
1016.50	224.98
1016.78	225.01
1017.07	225.01
1017.36	224.99
1017.64	224.95
1017.93	224.98
1018.22	224.94
1018.50	224.94
1018.79	224.94
1019.08	224.87
1019.36	224.84
1019.65	224.80
1019.93	224.83
1020.22	224.83
1020.51	224.89
1020.79	224.83
1021.08	224.27
1021.36	224.81
1021.65	224.87
1021.94	224.93
1022.22	224.67
1022.51	224.14
1022.79	225.19
1023.08	224.51
1023.36	225.87
1023.65	224.42
>>>>>End Processed Spectral Data<<<<<
