SpectraSuite Data File
++++++++++++++++++++++++++++++++++++
Date: Fri Feb 01 17:47:11 EST 2013
User: group
Dark Spectrum Present: No
Reference Spectrum Present: No
Number of Sampled Component Spectra: 1
Spectrometers: USB2E7196
Integration Time (usec): 35000 (USB2E7196)
Spectra Averaged: 100 (USB2E7196)
Boxcar Smoothing: 10 (USB2E7196)
Correct for Electrical Dark: No (USB2E7196)
Strobe/Lamp Enabled: No (USB2E7196)
Correct for Detector Non-linearity: No (USB2E7196)
Correct for Stray Light: No (USB2E7196)
Number of Pixels in Processed Spectrum: 2048
>>>>>Begin Processed Spectral Data<<<<<
339.09	0.00
339.48	212.43
339.86	214.30
340.24	214.76
340.63	216.68
341.01	219.53
341.39	218.93
341.78	220.55
342.16	221.90
342.54	222.70
342.93	210.99
343.31	221.65
343.69	222.21
344.07	222.66
344.46	223.12
344.84	223.51
345.22	223.73
345.60	224.01
345.99	224.21
346.37	224.32
346.75	224.42
347.13	224.49
347.52	224.58
347.90	224.63
348.28	224.67
348.66	224.71
349.05	224.68
349.43	224.74
349.81	224.80
350.19	224.84
350.57	224.90
350.96	224.98
351.34	225.07
351.72	225.19
352.10	225.29
352.48	225.38
352.87	225.42
353.25	225.53
353.63	225.63
354.01	225.69
354.39	225.79
354.77	225.90
355.15	226.01
355.54	226.08
355.92	226.13
356.30	226.23
356.68	226.37
357.06	226.46
357.44	226.52
357.82	226.60
358.20	226.67
358.58	226.71
358.97	226.78
359.35	226.86
359.73	226.92
360.11	227.00
360.49	227.06
360.87	227.15
361.25	227.23
361.63	227.31
362.01	227.38
362.39	227.43
362.77	227.47
363.15	227.51
363.53	227.53
363.91	227.58
364.29	227.60
364.67	227.52
365.05	227.53
365.43	227.54
365.81	227.57
366.19	227.65
366.57	227.73
366.95	227.74
367.33	227.76
367.71	227.76
368.09	227.78
368.47	227.75
368.85	227.70
369.23	227.70
369.61	227.62
369.99	227.63
370.37	227.60
370.75	227.62
371.13	227.58
371.51	227.53
371.89	227.51
372.27	227.46
372.65	227.43
373.03	227.41
373.41	227.36
373.78	227.28
374.16	227.15
374.54	227.08
374.92	226.99
375.30	226.92
375.68	226.84
376.06	226.76
376.44	226.70
376.82	226.66
377.19	226.58
377.57	226.54
377.95	226.43
378.33	226.35
378.71	226.22
379.09	226.14
379.47	226.07
379.84	225.99
380.22	225.95
380.60	225.85
380.98	225.77
381.36	225.72
381.73	225.62
382.11	225.59
382.49	225.51
382.87	225.46
383.25	225.40
383.62	225.45
384.00	225.37
384.38	225.32
384.76	225.32
385.13	225.32
385.51	225.26
385.89	225.20
386.27	225.17
386.64	225.14
387.02	225.10
387.40	225.09
387.78	225.07
388.15	225.00
388.53	224.99
388.91	224.96
389.29	224.94
389.66	224.96
390.04	224.94
390.42	224.92
390.79	224.90
391.17	224.85
391.55	224.76
391.92	224.74
392.30	224.73
392.68	224.68
393.05	224.64
393.43	224.64
393.81	224.65
394.18	224.63
394.56	224.64
394.94	224.66
395.31	224.65
395.69	224.71
396.06	224.77
396.44	224.76
396.82	224.75
397.19	224.81
397.57	224.82
397.95	224.87
398.32	224.88
398.70	224.94
399.07	225.03
399.45	225.04
399.82	225.14
400.20	225.21
400.58	225.26
400.95	225.30
401.33	225.38
401.70	225.52
402.08	225.62
402.45	225.68
402.83	225.78
403.20	225.90
403.58	225.99
403.95	226.10
404.33	226.27
404.71	226.44
405.08	226.65
405.46	226.82
405.83	226.97
406.21	227.14
406.58	227.31
406.96	227.47
407.33	227.66
407.70	227.84
408.08	228.13
408.45	228.39
408.83	228.65
409.20	228.89
409.58	229.12
409.95	229.43
410.33	229.77
410.70	230.07
411.08	230.43
411.45	230.76
411.82	231.15
412.20	231.58
412.57	232.11
412.95	232.44
413.32	232.91
413.69	233.43
414.07	234.01
414.44	234.57
414.82	235.17
415.19	235.91
415.56	236.62
415.94	237.32
416.31	238.11
416.68	238.93
417.06	239.84
417.43	240.70
417.81	241.72
418.18	242.72
418.55	243.81
418.93	244.95
419.30	246.14
419.67	247.31
420.04	248.52
420.42	249.75
420.79	251.27
421.16	252.77
421.54	254.29
421.91	255.82
422.28	257.43
422.66	259.15
423.03	260.78
423.40	262.47
423.77	264.28
424.15	266.08
424.52	267.97
424.89	270.05
425.26	272.05
425.64	273.83
426.01	275.88
426.38	277.99
426.75	280.10
427.13	282.28
427.50	284.58
427.87	287.03
428.24	289.44
428.61	291.67
428.99	294.17
429.36	296.89
429.73	299.54
430.10	302.13
430.47	304.79
430.85	307.53
431.22	310.39
431.59	313.37
431.96	316.28
432.33	319.49
432.70	322.49
433.08	326.12
433.45	329.52
433.82	332.81
434.19	336.51
434.56	340.02
434.93	343.42
435.30	346.78
435.68	350.43
436.05	354.06
436.42	357.64
436.79	360.80
437.16	364.22
437.53	367.86
437.90	371.48
438.27	374.92
438.64	378.50
439.01	381.80
439.38	384.74
439.75	387.52
440.13	390.66
440.50	393.67
440.87	395.97
441.24	398.45
441.61	401.25
441.98	403.17
442.35	405.58
442.72	407.99
443.09	410.35
443.46	411.66
443.83	412.37
444.20	412.99
444.57	414.10
444.94	414.48
445.31	414.94
445.68	415.33
446.05	415.55
446.42	415.09
446.79	414.56
447.16	414.00
447.53	413.57
447.90	412.16
448.27	410.73
448.64	408.72
449.01	407.34
449.37	404.82
449.74	402.39
450.11	399.45
450.48	396.30
450.85	393.02
451.22	390.28
451.59	387.75
451.96	385.34
452.33	382.00
452.70	378.99
453.07	375.33
453.43	371.67
453.80	368.11
454.17	364.70
454.54	361.44
454.91	357.91
455.28	354.54
455.65	351.34
456.02	348.10
456.38	345.38
456.75	341.93
457.12	339.07
457.49	336.25
457.86	333.48
458.23	331.07
458.59	328.47
458.96	325.76
459.33	323.37
459.70	320.94
460.07	319.01
460.43	316.77
460.80	314.66
461.17	312.80
461.54	310.84
461.91	309.01
462.27	307.18
462.64	305.56
463.01	303.77
463.38	302.07
463.74	300.37
464.11	298.82
464.48	297.48
464.85	296.02
465.21	294.85
465.58	293.65
465.95	292.25
466.32	291.05
466.68	289.89
467.05	288.69
467.42	287.54
467.78	286.34
468.15	285.18
468.52	284.29
468.88	283.18
469.25	282.14
469.62	281.32
469.98	280.44
470.35	279.64
470.72	278.89
471.08	278.00
471.45	277.30
471.82	276.57
472.18	275.76
472.55	275.18
472.92	274.53
473.28	273.93
473.65	273.31
474.02	272.75
474.38	272.27
474.75	271.86
475.11	271.38
475.48	271.02
475.85	270.72
476.21	270.43
476.58	270.16
476.94	269.94
477.31	269.66
477.67	269.42
478.04	269.24
478.41	269.07
478.77	269.06
479.14	268.94
479.50	268.92
479.87	268.97
480.23	269.00
480.60	269.00
480.96	269.02
481.33	269.21
481.69	269.36
482.06	269.50
482.42	269.61
482.79	269.86
483.15	270.14
483.52	270.51
483.88	270.82
484.25	271.23
484.61	271.66
484.98	272.12
485.34	272.68
485.71	273.27
486.07	273.89
486.44	274.45
486.80	275.15
487.17	275.89
487.53	276.74
487.90	277.60
488.26	278.53
488.62	279.62
488.99	280.63
489.35	281.70
489.72	282.89
490.08	284.13
490.44	285.42
490.81	286.81
491.17	288.20
491.54	289.70
491.90	291.27
492.26	292.97
492.63	294.76
492.99	296.60
493.36	298.56
493.72	300.71
494.08	302.91
494.45	305.25
494.81	307.72
495.17	310.24
495.54	312.89
495.90	315.70
496.26	318.63
496.63	321.67
496.99	324.92
497.35	328.29
497.72	331.90
498.08	335.55
498.44	339.39
498.80	343.48
499.17	347.78
499.53	352.12
499.89	356.73
500.26	361.45
500.62	366.38
500.98	371.59
501.34	376.89
501.71	382.47
502.07	388.15
502.43	393.98
502.79	400.05
503.16	406.40
503.52	413.00
503.88	419.67
504.24	426.61
504.60	433.79
504.97	441.26
505.33	448.85
505.69	456.93
506.05	465.05
506.41	473.35
506.78	481.80
507.14	490.77
507.50	499.86
507.86	509.30
508.22	518.90
508.59	528.55
508.95	538.59
509.31	548.84
509.67	559.53
510.03	570.33
510.39	581.41
510.75	592.81
511.12	604.21
511.48	616.08
511.84	628.20
512.20	640.36
512.56	652.87
512.92	665.70
513.28	678.67
513.64	691.83
514.00	705.24
514.37	718.95
514.73	732.64
515.09	746.39
515.45	760.47
515.81	774.82
516.17	789.52
516.53	804.50
516.89	819.60
517.25	834.51
517.61	849.79
517.97	865.19
518.33	880.46
518.69	896.17
519.05	912.09
519.41	928.18
519.77	944.70
520.13	961.20
520.49	977.63
520.85	994.05
521.21	1010.83
521.57	1028.14
521.93	1044.98
522.29	1062.42
522.65	1079.91
523.01	1097.21
523.37	1114.43
523.73	1131.84
524.09	1149.05
524.45	1166.43
524.81	1184.35
525.17	1202.34
525.53	1220.44
525.89	1238.64
526.25	1256.89
526.61	1274.62
526.97	1292.69
527.33	1310.56
527.68	1328.46
528.04	1346.29
528.40	1364.23
528.76	1382.71
529.12	1400.80
529.48	1419.18
529.84	1436.60
530.20	1454.64
530.56	1473.11
530.91	1492.05
531.27	1510.38
531.63	1528.37
531.99	1546.63
532.35	1564.21
532.71	1581.78
533.07	1599.61
533.42	1617.09
533.78	1634.80
534.14	1652.54
534.50	1669.53
534.86	1687.02
535.21	1704.02
535.57	1721.55
535.93	1738.75
536.29	1755.17
536.65	1771.89
537.00	1788.29
537.36	1805.41
537.72	1821.55
538.08	1837.68
538.44	1853.16
538.79	1868.76
539.15	1884.01
539.51	1899.23
539.87	1915.18
540.22	1930.62
540.58	1946.10
540.94	1961.24
541.29	1975.73
541.65	1990.30
542.01	2005.22
542.37	2019.27
542.72	2033.32
543.08	2046.93
543.44	2061.21
543.79	2074.33
544.15	2086.92
544.51	2100.29
544.87	2112.91
545.22	2125.52
545.58	2137.51
545.94	2148.96
546.29	2160.40
546.65	2172.20
547.01	2183.37
547.36	2193.86
547.72	2204.05
548.07	2213.79
548.43	2223.57
548.79	2233.19
549.14	2242.40
549.50	2251.33
549.86	2260.64
550.21	2269.62
550.57	2278.46
550.92	2286.56
551.28	2295.08
551.64	2303.87
551.99	2312.02
552.35	2319.96
552.70	2327.84
553.06	2335.36
553.41	2343.42
553.77	2351.11
554.13	2358.69
554.48	2366.31
554.84	2373.54
555.19	2380.23
555.55	2386.75
555.90	2392.57
556.26	2399.02
556.61	2405.00
556.97	2410.87
557.32	2416.26
557.68	2421.59
558.03	2427.06
558.39	2432.04
558.74	2438.02
559.10	2443.22
559.45	2448.04
559.81	2453.22
560.16	2458.31
560.52	2462.77
560.87	2467.11
561.23	2470.72
561.58	2474.72
561.94	2478.34
562.29	2481.43
562.64	2485.39
563.00	2488.96
563.35	2493.62
563.71	2497.75
564.06	2502.16
564.42	2506.17
564.77	2509.90
565.12	2513.54
565.48	2516.63
565.83	2519.55
566.19	2522.03
566.54	2523.75
566.89	2526.03
567.25	2527.68
567.60	2529.58
567.96	2532.29
568.31	2534.14
568.66	2536.23
569.02	2537.60
569.37	2538.71
569.72	2540.54
570.08	2541.28
570.43	2541.98
570.78	2542.20
571.14	2541.28
571.49	2540.22
571.84	2540.32
572.20	2539.80
572.55	2539.14
572.90	2537.76
573.26	2536.89
573.61	2535.35
573.96	2534.23
574.31	2531.33
574.67	2528.70
575.02	2525.38
575.37	2522.01
575.72	2518.41
576.08	2515.16
576.43	2512.05
576.78	2508.66
577.13	2505.51
577.49	2502.45
577.84	2499.16
578.19	2495.29
578.54	2491.93
578.90	2488.08
579.25	2482.31
579.60	2477.22
579.95	2472.06
580.30	2467.08
580.66	2461.59
581.01	2456.36
581.36	2451.06
581.71	2446.85
582.06	2442.29
582.42	2437.76
582.77	2432.53
583.12	2427.73
583.47	2423.03
583.82	2417.79
584.17	2412.16
584.53	2406.41
584.88	2400.47
585.23	2394.40
585.58	2388.56
585.93	2382.55
586.28	2377.26
586.63	2371.99
586.98	2366.51
587.34	2361.41
587.69	2356.17
588.04	2350.76
588.39	2344.83
588.74	2337.82
589.09	2331.25
589.44	2323.87
589.79	2317.12
590.14	2310.82
590.49	2303.58
590.84	2296.35
591.19	2289.81
591.54	2282.87
591.89	2274.96
592.25	2267.65
592.60	2259.80
592.95	2251.56
593.30	2243.51
593.65	2235.16
594.00	2227.39
594.35	2219.34
594.70	2210.43
595.05	2202.60
595.40	2194.50
595.75	2186.23
596.10	2179.47
596.45	2171.97
596.80	2165.15
597.15	2158.01
597.50	2150.26
597.85	2143.14
598.19	2135.85
598.54	2128.09
598.89	2120.71
599.24	2113.98
599.59	2106.63
599.94	2099.45
600.29	2092.43
600.64	2085.06
600.99	2076.81
601.34	2069.17
601.69	2061.25
602.04	2053.72
602.39	2045.26
602.74	2037.44
603.08	2029.75
603.43	2022.03
603.78	2013.64
604.13	2005.54
604.48	1997.39
604.83	1989.54
605.18	1981.89
605.53	1973.08
605.87	1963.96
606.22	1955.75
606.57	1946.76
606.92	1938.28
607.27	1930.34
607.62	1922.51
607.96	1914.27
608.31	1906.91
608.66	1898.30
609.01	1889.84
609.36	1881.31
609.70	1872.31
610.05	1863.24
610.40	1854.55
610.75	1845.04
611.10	1836.46
611.44	1826.85
611.79	1817.62
612.14	1807.86
612.49	1797.39
612.83	1787.67
613.18	1778.36
613.53	1768.90
613.88	1759.21
614.22	1749.91
614.57	1740.02
614.92	1730.78
615.27	1722.38
615.61	1712.78
615.96	1703.63
616.31	1694.98
616.65	1686.38
617.00	1677.91
617.35	1669.20
617.70	1659.80
618.04	1650.21
618.39	1640.71
618.74	1632.12
619.08	1622.68
619.43	1613.90
619.78	1605.79
620.12	1597.76
620.47	1589.19
620.82	1579.96
621.16	1571.33
621.51	1562.54
621.85	1553.80
622.20	1544.14
622.55	1534.36
622.89	1525.45
623.24	1516.52
623.59	1507.99
623.93	1499.41
624.28	1491.03
624.62	1482.41
624.97	1474.16
625.32	1466.43
625.66	1458.35
626.01	1450.11
626.35	1441.70
626.70	1432.78
627.04	1423.96
627.39	1414.87
627.73	1406.36
628.08	1398.50
628.43	1390.40
628.77	1382.03
629.12	1373.48
629.46	1365.25
629.81	1356.74
630.15	1348.45
630.50	1340.12
630.84	1330.84
631.19	1321.79
631.53	1313.08
631.88	1304.44
632.22	1295.83
632.57	1287.43
632.91	1278.85
633.26	1270.42
633.60	1261.92
633.95	1253.90
634.29	1245.95
634.64	1238.40
634.98	1230.09
635.32	1221.90
635.67	1214.24
636.01	1206.56
636.36	1198.86
636.70	1191.44
637.05	1184.02
637.39	1176.59
637.73	1169.31
638.08	1162.50
638.42	1155.66
638.77	1148.42
639.11	1141.00
639.45	1133.64
639.80	1126.20
640.14	1119.12
640.49	1111.69
640.83	1104.54
641.17	1097.52
641.52	1090.38
641.86	1082.95
642.20	1076.42
642.55	1069.26
642.89	1061.96
643.23	1054.52
643.58	1047.98
643.92	1041.06
644.26	1034.21
644.61	1027.38
644.95	1020.53
645.29	1013.26
645.64	1005.72
645.98	998.61
646.32	991.82
646.66	985.10
647.01	978.44
647.35	971.97
647.69	965.32
648.04	958.99
648.38	952.45
648.72	945.68
649.06	939.02
649.41	932.29
649.75	925.59
650.09	918.97
650.43	912.47
650.78	905.49
651.12	898.76
651.46	892.29
651.80	885.86
652.14	879.67
652.49	873.55
652.83	867.62
653.17	861.26
653.51	855.01
653.85	848.88
654.20	842.57
654.54	835.73
654.88	829.24
655.22	822.70
655.56	816.26
655.90	810.07
656.25	804.16
656.59	798.08
656.93	792.28
657.27	786.49
657.61	780.45
657.95	774.74
658.29	769.01
658.64	763.06
658.98	757.15
659.32	751.06
659.66	745.22
660.00	739.32
660.34	733.73
660.68	728.07
661.02	722.35
661.36	717.08
661.70	712.06
662.05	707.20
662.39	702.38
662.73	697.36
663.07	692.47
663.41	687.41
663.75	682.38
664.09	677.29
664.43	672.25
664.77	667.63
665.11	662.86
665.45	658.12
665.79	653.54
666.13	648.86
666.47	644.24
666.81	639.56
667.15	634.94
667.49	630.50
667.83	626.20
668.17	621.82
668.51	617.23
668.85	612.63
669.19	608.21
669.53	603.87
669.87	599.54
670.21	595.32
670.55	591.28
670.89	587.40
671.23	583.61
671.57	579.68
671.91	575.71
672.25	571.72
672.58	567.84
672.92	563.98
673.26	560.43
673.60	556.88
673.94	553.43
674.28	550.09
674.62	546.81
674.96	543.36
675.30	540.06
675.64	536.75
675.97	533.66
676.31	530.50
676.65	527.16
676.99	524.16
677.33	520.95
677.67	517.76
678.01	514.40
678.34	511.04
678.68	507.79
679.02	504.62
679.36	501.49
679.70	498.44
680.04	495.43
680.37	492.24
680.71	489.10
681.05	486.12
681.39	483.11
681.73	480.13
682.06	477.34
682.40	474.55
682.74	471.70
683.08	468.79
683.42	465.87
683.75	463.12
684.09	460.26
684.43	457.53
684.77	454.75
685.10	452.10
685.44	449.46
685.78	446.89
686.12	444.35
686.45	441.80
686.79	439.16
687.13	436.66
687.46	434.21
687.80	431.73
688.14	429.22
688.48	426.85
688.81	424.31
689.15	421.89
689.49	419.42
689.82	417.04
690.16	414.72
690.50	412.50
690.83	410.27
691.17	407.99
691.51	405.82
691.84	403.75
692.18	401.61
692.52	399.43
692.85	397.21
693.19	395.08
693.52	393.01
693.86	390.93
694.20	388.84
694.53	386.78
694.87	384.71
695.21	382.67
695.54	380.62
695.88	378.69
696.21	376.68
696.55	374.76
696.88	372.89
697.22	370.95
697.56	369.10
697.89	367.25
698.23	365.45
698.56	363.62
698.90	361.84
699.23	359.94
699.57	358.20
699.90	356.45
700.24	354.71
700.58	352.97
700.91	351.37
701.25	349.71
701.58	348.15
701.92	346.62
702.25	345.10
702.59	343.55
702.92	342.06
703.26	340.58
703.59	339.14
703.93	337.77
704.26	336.42
704.60	334.97
704.93	333.52
705.26	332.07
705.60	330.71
705.93	329.34
706.27	328.13
706.60	326.88
706.94	325.68
707.27	324.43
707.61	323.19
707.94	321.98
708.27	320.78
708.61	319.59
708.94	318.44
709.28	317.28
709.61	316.19
709.94	315.10
710.28	313.97
710.61	312.86
710.95	311.65
711.28	310.58
711.61	309.50
711.95	308.44
712.28	307.36
712.61	306.26
712.95	305.19
713.28	304.19
713.61	303.16
713.95	302.13
714.28	301.14
714.61	300.16
714.95	299.22
715.28	298.24
715.61	297.23
715.95	296.28
716.28	295.32
716.61	294.37
716.95	293.40
717.28	292.54
717.61	291.64
717.94	290.82
718.28	289.93
718.61	289.06
718.94	288.30
719.27	287.57
719.61	286.86
719.94	286.16
720.27	285.35
720.60	284.61
720.94	283.93
721.27	283.27
721.60	282.63
721.93	281.96
722.27	281.36
722.60	280.77
722.93	280.12
723.26	279.54
723.59	278.94
723.93	278.30
724.26	277.70
724.59	277.08
724.92	276.53
725.25	275.99
725.59	275.43
725.92	274.87
726.25	274.28
726.58	273.73
726.91	273.17
727.24	272.66
727.57	272.12
727.91	271.53
728.24	270.99
728.57	270.43
728.90	269.90
729.23	269.35
729.56	268.83
729.89	268.28
730.22	267.72
730.55	267.21
730.89	266.73
731.22	266.21
731.55	265.72
731.88	265.22
732.21	264.71
732.54	264.22
732.87	263.71
733.20	263.25
733.53	262.78
733.86	262.37
734.19	261.88
734.52	261.49
734.85	261.18
735.18	260.72
735.51	260.31
735.84	259.86
736.17	259.46
736.50	259.00
736.83	258.73
737.16	258.35
737.49	257.96
737.82	257.58
738.15	257.20
738.48	256.84
738.81	256.42
739.14	256.06
739.47	255.72
739.80	255.42
740.13	255.09
740.46	254.73
740.79	254.33
741.12	254.03
741.45	253.68
741.78	253.25
742.11	252.94
742.44	252.60
742.77	252.28
743.10	251.92
743.43	251.61
743.75	251.19
744.08	251.01
744.41	250.68
744.74	250.33
745.07	249.99
745.40	249.72
745.73	249.45
746.06	249.14
746.39	248.85
746.71	248.47
747.04	248.15
747.37	247.85
747.70	247.60
748.03	247.29
748.36	246.99
748.68	246.71
749.01	246.41
749.34	246.11
749.67	245.86
750.00	245.63
750.33	245.44
750.65	245.20
750.98	244.83
751.31	244.59
751.64	244.41
751.97	244.23
752.29	243.95
752.62	243.71
752.95	243.46
753.28	243.18
753.60	242.98
753.93	242.76
754.26	242.53
754.59	242.26
754.91	242.00
755.24	241.79
755.57	241.59
755.90	241.37
756.22	241.17
756.55	240.96
756.88	240.69
757.20	240.43
757.53	240.20
757.86	239.99
758.19	239.83
758.51	239.67
758.84	239.44
759.17	239.28
759.49	239.10
759.82	238.96
760.15	238.83
760.47	238.66
760.80	238.47
761.13	238.34
761.45	238.15
761.78	238.01
762.11	237.85
762.43	237.65
762.76	237.50
763.08	237.34
763.41	237.18
763.74	237.09
764.06	236.93
764.39	236.76
764.71	236.58
765.04	236.42
765.37	236.20
765.69	236.06
766.02	235.88
766.34	235.74
766.67	235.59
767.00	235.48
767.32	235.40
767.65	235.36
767.97	235.21
768.30	235.10
768.62	234.97
768.95	234.84
769.27	234.73
769.60	234.61
769.92	234.49
770.25	234.34
770.57	234.17
770.90	234.06
771.22	233.97
771.55	233.84
771.87	233.74
772.20	233.64
772.52	233.63
772.85	233.69
773.17	233.54
773.50	233.43
773.82	233.30
774.15	233.16
774.47	232.96
774.80	232.85
775.12	232.72
775.45	232.62
775.77	232.53
776.09	232.47
776.42	232.41
776.74	232.37
777.07	232.30
777.39	232.23
777.72	232.12
778.04	232.05
778.36	232.01
778.69	231.93
779.01	231.82
779.33	231.65
779.66	231.40
779.98	231.33
780.31	231.26
780.63	231.22
780.95	231.13
781.28	231.06
781.60	230.96
781.92	230.91
782.25	230.85
782.57	230.77
782.89	230.65
783.22	230.54
783.54	230.44
783.86	230.39
784.19	230.30
784.51	230.28
784.83	230.19
785.16	230.09
785.48	230.01
785.80	229.97
786.12	229.90
786.45	229.86
786.77	229.83
787.09	229.76
787.42	229.66
787.74	229.63
788.06	229.60
788.38	229.54
788.71	229.50
789.03	229.46
789.35	229.43
789.67	229.40
789.99	229.37
790.32	229.32
790.64	229.25
790.96	229.29
791.28	229.17
791.61	229.15
791.93	229.10
792.25	229.05
792.57	229.07
792.89	229.00
793.21	228.94
793.54	228.89
793.86	228.79
794.18	228.75
794.50	228.74
794.82	228.66
795.14	228.65
795.47	228.60
795.79	228.57
796.11	228.50
796.43	228.46
796.75	228.40
797.07	228.38
797.39	228.37
797.71	228.30
798.04	228.33
798.36	228.30
798.68	228.30
799.00	228.30
799.32	228.22
799.64	228.24
799.96	228.24
800.28	228.20
800.60	228.22
800.92	228.21
801.24	228.15
801.56	228.19
801.89	228.15
802.21	228.15
802.53	228.11
802.85	228.12
803.17	228.12
803.49	228.11
803.81	228.06
804.13	228.01
804.45	227.94
804.77	227.90
805.09	227.88
805.41	227.81
805.73	227.79
806.05	227.77
806.37	227.70
806.69	227.66
807.01	227.64
807.33	227.62
807.65	227.57
807.97	227.58
808.28	227.53
808.60	227.50
808.92	227.46
809.24	227.49
809.56	227.45
809.88	227.38
810.20	227.37
810.52	227.37
810.84	227.34
811.16	227.33
811.48	227.28
811.80	227.29
812.12	227.29
812.43	227.26
812.75	227.24
813.07	227.25
813.39	227.23
813.71	227.21
814.03	227.17
814.35	227.15
814.67	227.06
814.98	227.04
815.30	227.01
815.62	226.95
815.94	226.86
816.26	226.89
816.58	226.84
816.89	226.81
817.21	226.77
817.53	226.76
817.85	226.74
818.17	226.72
818.48	226.65
818.80	226.64
819.12	226.59
819.44	226.53
819.76	226.47
820.07	226.44
820.39	226.40
820.71	226.39
821.03	226.39
821.34	226.39
821.66	226.35
821.98	226.34
822.30	226.32
822.61	226.36
822.93	226.26
823.25	226.24
823.57	226.22
823.88	226.18
824.20	226.15
824.52	226.14
824.83	226.10
825.15	226.03
825.47	226.00
825.79	226.00
826.10	225.96
826.42	225.96
826.74	225.97
827.05	225.94
827.37	225.93
827.69	225.90
828.00	225.84
828.32	225.83
828.64	225.78
828.95	225.80
829.27	225.76
829.58	225.75
829.90	225.74
830.22	225.72
830.53	225.68
830.85	225.62
831.17	225.55
831.48	225.55
831.80	225.55
832.11	225.49
832.43	225.44
832.75	225.45
833.06	225.48
833.38	225.42
833.69	225.44
834.01	225.41
834.32	225.35
834.64	225.34
834.96	225.31
835.27	225.30
835.59	225.25
835.90	225.22
836.22	225.23
836.53	225.22
836.85	225.21
837.16	225.35
837.48	225.39
837.79	225.46
838.11	225.47
838.42	225.48
838.74	225.50
839.05	225.49
839.37	225.46
839.68	225.38
840.00	225.35
840.31	225.34
840.63	225.32
840.94	225.34
841.26	225.36
841.57	225.36
841.88	225.38
842.20	225.36
842.51	225.34
842.83	225.34
843.14	225.42
843.46	225.41
843.77	225.34
844.08	225.34
844.40	225.30
844.71	225.29
845.03	225.32
845.34	225.33
845.65	225.36
845.97	225.41
846.28	225.41
846.60	225.44
846.91	225.47
847.22	225.49
847.54	225.50
847.85	225.50
848.16	225.55
848.48	225.55
848.79	225.61
849.10	225.65
849.42	225.66
849.73	225.58
850.04	225.60
850.36	225.55
850.67	225.58
850.98	225.60
851.30	225.63
851.61	225.62
851.92	225.62
852.23	225.66
852.55	225.67
852.86	225.70
853.17	225.73
853.49	225.72
853.80	225.74
854.11	225.78
854.42	225.82
854.74	225.77
855.05	225.78
855.36	225.71
855.67	225.68
855.99	225.67
856.30	225.80
856.61	225.80
856.92	225.80
857.23	225.77
857.55	225.73
857.86	225.70
858.17	225.69
858.48	225.65
858.79	225.61
859.11	225.62
859.42	225.61
859.73	225.60
860.04	225.60
860.35	225.57
860.66	225.51
860.98	225.47
861.29	225.53
861.60	225.51
861.91	225.53
862.22	225.52
862.53	225.51
862.84	225.37
863.16	225.36
863.47	225.35
863.78	225.35
864.09	225.36
864.40	225.32
864.71	225.33
865.02	225.33
865.33	225.31
865.64	225.29
865.95	225.24
866.27	225.25
866.58	225.21
866.89	225.22
867.20	225.23
867.51	225.21
867.82	225.14
868.13	225.15
868.44	225.11
868.75	225.11
869.06	225.10
869.37	225.11
869.68	225.09
869.99	225.10
870.30	225.09
870.61	225.08
870.92	225.10
871.23	225.05
871.54	225.09
871.85	225.11
872.16	225.07
872.47	225.07
872.78	225.03
873.09	225.05
873.40	225.01
873.71	225.01
874.02	225.00
874.33	224.97
874.64	224.93
874.95	224.97
875.26	224.95
875.56	224.94
875.87	224.94
876.18	224.91
876.49	225.00
876.80	225.01
877.11	224.99
877.42	225.00
877.73	225.00
878.04	224.96
878.35	224.94
878.66	224.97
878.96	224.95
879.27	224.96
879.58	224.93
879.89	224.91
880.20	224.92
880.51	224.90
880.82	224.90
881.12	224.93
881.43	224.90
881.74	224.89
882.05	224.89
882.36	224.87
882.67	224.91
882.97	224.80
883.28	224.81
883.59	224.81
883.90	224.81
884.21	224.84
884.51	224.86
884.82	224.88
885.13	224.85
885.44	224.88
885.74	224.88
886.05	224.92
886.36	224.95
886.67	224.95
886.98	225.01
887.28	225.06
887.59	225.06
887.90	225.07
888.20	225.09
888.51	225.12
888.82	225.13
889.13	225.13
889.43	225.22
889.74	225.18
890.05	225.21
890.35	225.19
890.66	225.17
890.97	225.21
891.28	225.18
891.58	225.22
891.89	225.25
892.20	225.25
892.50	225.20
892.81	225.17
893.12	225.17
893.42	225.16
893.73	225.16
894.04	225.15
894.34	225.15
894.65	225.17
894.95	225.14
895.26	225.14
895.57	225.21
895.87	225.10
896.18	225.15
896.48	225.17
896.79	225.13
897.10	225.16
897.40	225.11
897.71	225.12
898.01	225.10
898.32	225.10
898.63	225.11
898.93	225.12
899.24	225.13
899.54	225.09
899.85	225.06
900.15	225.08
900.46	225.07
900.76	225.07
901.07	225.05
901.38	225.06
901.68	225.09
901.99	224.99
902.29	225.04
902.60	225.00
902.90	224.94
903.21	224.95
903.51	224.92
903.82	224.92
904.12	224.93
904.43	224.91
904.73	224.91
905.03	224.89
905.34	224.99
905.64	224.99
905.95	225.00
906.25	225.00
906.56	224.98
906.86	224.98
907.17	224.97
907.47	224.95
907.77	224.91
908.08	224.83
908.38	224.85
908.69	224.78
908.99	224.80
909.30	224.81
909.60	224.80
909.90	224.79
910.21	224.78
910.51	224.73
910.81	224.72
911.12	224.68
911.42	224.68
911.73	224.56
912.03	224.56
912.33	224.56
912.64	224.54
912.94	224.48
913.24	224.46
913.55	224.46
913.85	224.46
914.15	224.47
914.46	224.49
914.76	224.46
915.06	224.46
915.37	224.46
915.67	224.44
915.97	224.43
916.27	224.44
916.58	224.45
916.88	224.43
917.18	224.46
917.49	224.54
917.79	224.54
918.09	224.53
918.39	224.54
918.70	224.55
919.00	224.57
919.30	224.63
919.60	224.61
919.91	224.58
920.21	224.59
920.51	224.57
920.81	224.56
921.12	224.56
921.42	224.58
921.72	224.58
922.02	224.59
922.32	224.60
922.63	224.59
922.93	224.63
923.23	224.65
923.53	224.63
923.83	224.56
924.13	224.55
924.44	224.58
924.74	224.60
925.04	224.59
925.34	224.61
925.64	224.58
925.94	224.59
926.24	224.64
926.55	224.62
926.85	224.67
927.15	224.65
927.45	224.68
927.75	224.66
928.05	224.66
928.35	224.67
928.65	224.68
928.95	224.67
929.26	224.66
929.56	224.67
929.86	224.69
930.16	224.71
930.46	224.72
930.76	224.76
931.06	224.71
931.36	224.70
931.66	224.68
931.96	224.67
932.26	224.69
932.56	224.70
932.86	224.71
933.16	224.70
933.46	224.75
933.76	224.76
934.06	224.80
934.36	224.84
934.66	224.81
934.96	224.77
935.26	224.80
935.56	224.79
935.86	224.77
936.16	224.73
936.46	224.72
936.76	224.70
937.06	224.65
937.36	224.65
937.66	224.66
937.96	224.70
938.26	224.71
938.56	224.71
938.86	224.66
939.16	224.64
939.46	224.63
939.76	224.61
940.06	224.56
940.35	224.53
940.65	224.46
940.95	224.46
941.25	224.47
941.55	224.47
941.85	224.44
942.15	224.46
942.45	224.49
942.75	224.48
943.04	224.50
943.34	224.50
943.64	224.50
943.94	224.47
944.24	224.46
944.54	224.46
944.84	224.46
945.13	224.46
945.43	224.49
945.73	224.50
946.03	224.50
946.33	224.53
946.62	224.52
946.92	224.52
947.22	224.51
947.52	224.53
947.82	224.54
948.11	224.55
948.41	224.57
948.71	224.53
949.01	224.56
949.31	224.51
949.60	224.55
949.90	224.56
950.20	224.56
950.50	224.52
950.79	224.48
951.09	224.48
951.39	224.46
951.69	224.43
951.98	224.43
952.28	224.41
952.58	224.38
952.87	224.35
953.17	224.40
953.47	224.39
953.76	224.39
954.06	224.34
954.36	224.32
954.66	224.31
954.95	224.31
955.25	224.27
955.55	224.32
955.84	224.31
956.14	224.31
956.44	224.32
956.73	224.32
957.03	224.34
957.32	224.37
957.62	224.37
957.92	224.42
958.21	224.43
958.51	224.57
958.81	224.58
959.10	224.64
959.40	224.64
959.69	224.70
959.99	224.70
960.29	224.70
960.58	224.69
960.88	224.73
961.17	224.75
961.47	224.78
961.76	224.77
962.06	224.78
962.36	224.79
962.65	224.79
962.95	224.80
963.24	224.80
963.54	224.80
963.83	224.80
964.13	224.81
964.42	224.77
964.72	224.68
965.01	224.68
965.31	224.65
965.60	224.64
965.90	224.71
966.19	224.68
966.49	224.70
966.78	224.73
967.08	224.71
967.37	224.72
967.67	224.69
967.96	224.70
968.26	224.70
968.55	224.70
968.85	224.69
969.14	224.68
969.43	224.68
969.73	224.64
970.02	224.64
970.32	224.61
970.61	224.62
970.91	224.57
971.20	224.58
971.49	224.57
971.79	224.60
972.08	224.52
972.38	224.55
972.67	224.55
972.96	224.57
973.26	224.53
973.55	224.55
973.85	224.55
974.14	224.55
974.43	224.56
974.73	224.53
975.02	224.57
975.31	224.56
975.61	224.56
975.90	224.57
976.19	224.56
976.49	224.55
976.78	224.59
977.07	224.64
977.37	224.62
977.66	224.63
977.95	224.57
978.24	224.56
978.54	224.58
978.83	224.53
979.12	224.51
979.42	224.52
979.71	224.50
980.00	224.48
980.29	224.44
980.59	224.40
980.88	224.45
981.17	224.41
981.46	224.41
981.76	224.42
982.05	224.45
982.34	224.48
982.63	224.45
982.93	224.42
983.22	224.43
983.51	224.41
983.80	224.41
984.09	224.45
984.39	224.44
984.68	224.43
984.97	224.45
985.26	224.45
985.55	224.48
985.85	224.45
986.14	224.47
986.43	224.51
986.72	224.48
987.01	224.43
987.30	224.43
987.59	224.44
987.89	224.43
988.18	224.38
988.47	224.36
988.76	224.39
989.05	224.37
989.34	224.37
989.63	224.43
989.92	224.40
990.22	224.39
990.51	224.38
990.80	224.36
991.09	224.38
991.38	224.41
991.67	224.37
991.96	224.35
992.25	224.36
992.54	224.34
992.83	224.36
993.12	224.35
993.41	224.37
993.70	224.43
993.99	224.43
994.28	224.44
994.58	224.46
994.87	224.46
995.16	224.47
995.45	224.45
995.74	224.42
996.03	224.45
996.32	224.46
996.61	224.49
996.90	224.50
997.19	224.49
997.48	224.54
997.77	224.55
998.06	224.56
998.34	224.57
998.63	224.59
998.92	224.60
999.21	224.64
999.50	224.63
999.79	224.59
1000.08	224.59
1000.37	224.61
1000.66	224.60
1000.95	224.63
1001.24	224.65
1001.53	224.67
1001.82	224.69
1002.11	224.68
1002.40	224.70
1002.68	224.75
1002.97	224.80
1003.26	224.80
1003.55	224.76
1003.84	224.78
1004.13	224.84
1004.42	224.80
1004.71	224.84
1004.99	224.81
1005.28	224.83
1005.57	224.84
1005.86	224.83
1006.15	224.84
1006.44	224.83
1006.72	224.86
1007.01	224.82
1007.30	224.83
1007.59	224.84
1007.88	224.84
1008.17	224.88
1008.45	224.88
1008.74	224.82
1009.03	224.79
1009.32	224.81
1009.60	224.81
1009.89	224.78
1010.18	224.75
1010.47	224.77
1010.76	224.74
1011.04	224.76
1011.33	224.76
1011.62	224.74
1011.91	224.73
1012.19	224.74
1012.48	224.75
1012.77	224.75
1013.05	224.82
1013.34	224.80
1013.63	224.76
1013.92	224.74
1014.20	224.71
1014.49	224.70
1014.78	224.72
1015.06	224.69
1015.35	224.67
1015.64	224.69
1015.92	224.70
1016.21	224.69
1016.50	224.72
1016.78	224.72
1017.07	224.72
1017.36	224.69
1017.64	224.68
1017.93	224.68
1018.22	224.68
1018.50	224.66
1018.79	224.62
1019.08	224.55
1019.36	224.53
1019.65	224.53
1019.93	224.53
1020.22	224.53
1020.51	224.55
1020.79	224.50
1021.08	224.41
1021.36	224.47
1021.65	224.24
1021.94	224.56
1022.22	224.21
1022.51	224.29
1022.79	224.36
1023.08	224.66
1023.36	225.08
1023.65	223.82
>>>>>End Processed Spectral Data<<<<<
