SpectraSuite Data File
++++++++++++++++++++++++++++++++++++
Date: Fri Feb 01 17:29:31 EST 2013
User: group
Dark Spectrum Present: No
Reference Spectrum Present: No
Number of Sampled Component Spectra: 1
Spectrometers: USB2E7196
Integration Time (usec): 35000 (USB2E7196)
Spectra Averaged: 100 (USB2E7196)
Boxcar Smoothing: 10 (USB2E7196)
Correct for Electrical Dark: No (USB2E7196)
Strobe/Lamp Enabled: No (USB2E7196)
Correct for Detector Non-linearity: No (USB2E7196)
Correct for Stray Light: No (USB2E7196)
Number of Pixels in Processed Spectrum: 2048
>>>>>Begin Processed Spectral Data<<<<<
339.09	0.00
339.48	213.37
339.86	214.54
340.24	215.72
340.63	216.91
341.01	220.07
341.39	220.15
341.78	220.99
342.16	221.94
342.54	223.20
342.93	211.44
343.31	222.11
343.69	222.66
344.07	223.14
344.46	223.57
344.84	224.00
345.22	224.26
345.60	224.50
345.99	224.67
346.37	224.86
346.75	224.94
347.13	225.00
347.52	225.10
347.90	225.15
348.28	225.18
348.66	225.22
349.05	225.20
349.43	225.26
349.81	225.31
350.19	225.38
350.57	225.44
350.96	225.51
351.34	225.60
351.72	225.70
352.10	225.76
352.48	225.86
352.87	225.92
353.25	225.98
353.63	226.04
354.01	226.12
354.39	226.19
354.77	226.29
355.15	226.38
355.54	226.44
355.92	226.51
356.30	226.58
356.68	226.72
357.06	226.80
357.44	226.83
357.82	226.88
358.20	226.95
358.58	227.01
358.97	227.11
359.35	227.20
359.73	227.27
360.11	227.34
360.49	227.38
360.87	227.38
361.25	227.42
361.63	227.49
362.01	227.54
362.39	227.55
362.77	227.58
363.15	227.61
363.53	227.62
363.91	227.63
364.29	227.64
364.67	227.53
365.05	227.54
365.43	227.58
365.81	227.59
366.19	227.61
366.57	227.64
366.95	227.60
367.33	227.57
367.71	227.51
368.09	227.50
368.47	227.47
368.85	227.45
369.23	227.47
369.61	227.40
369.99	227.38
370.37	227.36
370.75	227.37
371.13	227.34
371.51	227.30
371.89	227.25
372.27	227.23
372.65	227.22
373.03	227.18
373.41	227.10
373.78	227.01
374.16	226.93
374.54	226.84
374.92	226.78
375.30	226.70
375.68	226.59
376.06	226.56
376.44	226.48
376.82	226.39
377.19	226.31
377.57	226.27
377.95	226.22
378.33	226.14
378.71	226.02
379.09	225.94
379.47	225.88
379.84	225.82
380.22	225.76
380.60	225.67
380.98	225.59
381.36	225.53
381.73	225.49
382.11	225.45
382.49	225.40
382.87	225.31
383.25	225.24
383.62	225.32
384.00	225.23
384.38	225.22
384.76	225.20
385.13	225.16
385.51	225.11
385.89	225.01
386.27	224.99
386.64	224.94
387.02	224.90
387.40	224.83
387.78	224.81
388.15	224.76
388.53	224.74
388.91	224.72
389.29	224.65
389.66	224.60
390.04	224.55
390.42	224.54
390.79	224.53
391.17	224.54
391.55	224.45
391.92	224.45
392.30	224.47
392.68	224.44
393.05	224.42
393.43	224.41
393.81	224.43
394.18	224.41
394.56	224.44
394.94	224.46
395.31	224.49
395.69	224.50
396.06	224.53
396.44	224.55
396.82	224.60
397.19	224.73
397.57	224.77
397.95	224.81
398.32	224.83
398.70	224.90
399.07	224.96
399.45	225.02
399.82	225.06
400.20	225.07
400.58	225.17
400.95	225.23
401.33	225.34
401.70	225.52
402.08	225.60
402.45	225.71
402.83	225.83
403.20	225.94
403.58	226.04
403.95	226.16
404.33	226.25
404.71	226.36
405.08	226.52
405.46	226.66
405.83	226.81
406.21	226.96
406.58	227.11
406.96	227.29
407.33	227.45
407.70	227.67
408.08	227.94
408.45	228.16
408.83	228.39
409.20	228.58
409.58	228.73
409.95	228.97
410.33	229.20
410.70	229.44
411.08	229.75
411.45	230.04
411.82	230.37
412.20	230.75
412.57	231.17
412.95	231.45
413.32	231.87
413.69	232.29
414.07	232.72
414.44	233.22
414.82	233.70
415.19	234.26
415.56	234.82
415.94	235.39
416.31	236.06
416.68	236.69
417.06	237.41
417.43	238.14
417.81	238.97
418.18	239.81
418.55	240.70
418.93	241.61
419.30	242.57
419.67	243.52
420.04	244.51
420.42	245.55
420.79	246.81
421.16	247.99
421.54	249.24
421.91	250.53
422.28	251.85
422.66	253.23
423.03	254.60
423.40	255.98
423.77	257.48
424.15	258.96
424.52	260.52
424.89	262.19
425.26	263.81
425.64	265.35
426.01	267.00
426.38	268.72
426.75	270.47
427.13	272.27
427.50	274.16
427.87	276.10
428.24	278.01
428.61	279.80
428.99	281.85
429.36	284.00
429.73	286.11
430.10	288.18
430.47	290.33
430.85	292.54
431.22	294.88
431.59	297.31
431.96	299.62
432.33	302.20
432.70	304.72
433.08	307.60
433.45	310.29
433.82	313.03
434.19	316.02
434.56	318.90
434.93	321.64
435.30	324.37
435.68	327.38
436.05	330.32
436.42	333.21
436.79	335.84
437.16	338.66
437.53	341.59
437.90	344.54
438.27	347.37
438.64	350.31
439.01	353.03
439.38	355.30
439.75	357.55
440.13	360.13
440.50	362.53
440.87	364.50
441.24	366.51
441.61	368.75
441.98	370.36
442.35	372.26
442.72	374.23
443.09	376.13
443.46	377.23
443.83	377.85
444.20	378.48
444.57	379.37
444.94	379.74
445.31	380.15
445.68	380.55
446.05	380.68
446.42	380.31
446.79	379.86
447.16	379.48
447.53	379.21
447.90	378.09
448.27	376.94
448.64	375.32
449.01	374.19
449.37	372.19
449.74	370.18
450.11	367.90
450.48	365.32
450.85	362.70
451.22	360.46
451.59	358.39
451.96	356.30
452.33	353.60
452.70	351.15
453.07	348.21
453.43	345.20
453.80	342.25
454.17	339.46
454.54	336.82
454.91	333.99
455.28	331.19
455.65	328.57
456.02	326.00
456.38	323.74
456.75	320.93
457.12	318.57
457.49	316.26
457.86	313.98
458.23	312.04
458.59	309.88
458.96	307.69
459.33	305.78
459.70	303.85
460.07	302.25
460.43	300.47
460.80	298.75
461.17	297.22
461.54	295.73
461.91	294.28
462.27	292.78
462.64	291.49
463.01	290.02
463.38	288.67
463.74	287.19
464.11	285.96
464.48	284.92
464.85	283.75
465.21	282.84
465.58	281.88
465.95	280.71
466.32	279.80
466.68	278.88
467.05	277.92
467.42	276.99
467.78	276.01
468.15	275.11
468.52	274.47
468.88	273.61
469.25	272.79
469.62	272.12
469.98	271.43
470.35	270.76
470.72	270.19
471.08	269.51
471.45	269.01
471.82	268.46
472.18	267.80
472.55	267.33
472.92	266.84
473.28	266.35
473.65	265.88
474.02	265.40
474.38	265.06
474.75	264.72
475.11	264.36
475.48	264.13
475.85	263.88
476.21	263.62
476.58	263.41
476.94	263.23
477.31	263.03
477.67	262.83
478.04	262.76
478.41	262.69
478.77	262.73
479.14	262.64
479.50	262.67
479.87	262.80
480.23	262.89
480.60	262.95
480.96	263.08
481.33	263.33
481.69	263.56
482.06	263.71
482.42	263.94
482.79	264.21
483.15	264.51
483.52	264.87
483.88	265.20
484.25	265.58
484.61	266.01
484.98	266.49
485.34	267.10
485.71	267.66
486.07	268.26
486.44	268.80
486.80	269.51
487.17	270.24
487.53	271.03
487.90	271.83
488.26	272.74
488.62	273.70
488.99	274.62
489.35	275.65
489.72	276.77
490.08	277.96
490.44	279.21
490.81	280.52
491.17	281.88
491.54	283.38
491.90	284.91
492.26	286.60
492.63	288.34
492.99	290.07
493.36	291.95
493.72	294.01
494.08	296.12
494.45	298.37
494.81	300.70
495.17	303.09
495.54	305.65
495.90	308.29
496.26	311.06
496.63	314.01
496.99	317.08
497.35	320.31
497.72	323.66
498.08	327.13
498.44	330.75
498.80	334.60
499.17	338.58
499.53	342.72
499.89	347.03
500.26	351.46
500.62	356.09
500.98	360.98
501.34	365.97
501.71	371.18
502.07	376.56
502.43	382.09
502.79	387.85
503.16	393.84
503.52	400.06
503.88	406.38
504.24	412.92
504.60	419.71
504.97	426.74
505.33	433.96
505.69	441.51
506.05	449.17
506.41	456.91
506.78	464.95
507.14	473.24
507.50	481.77
507.86	490.66
508.22	499.63
508.59	508.73
508.95	518.03
509.31	527.67
509.67	537.52
510.03	547.60
510.39	557.97
510.75	568.48
511.12	579.09
511.48	590.02
511.84	601.16
512.20	612.43
512.56	624.15
512.92	635.99
513.28	648.12
513.64	660.25
514.00	672.65
514.37	685.24
514.73	697.99
515.09	710.68
515.45	723.58
515.81	736.80
516.17	750.38
516.53	764.21
516.89	777.99
517.25	791.82
517.61	805.83
517.97	819.84
518.33	833.94
518.69	848.39
519.05	863.05
519.41	877.85
519.77	892.96
520.13	907.85
520.49	922.89
520.85	937.72
521.21	952.93
521.57	968.71
521.93	983.98
522.29	999.81
522.65	1015.60
523.01	1031.22
523.37	1046.79
523.73	1062.48
524.09	1078.07
524.45	1093.85
524.81	1110.00
525.17	1126.23
525.53	1142.60
525.89	1158.99
526.25	1175.37
526.61	1191.29
526.97	1207.55
527.33	1223.52
527.68	1239.66
528.04	1255.66
528.40	1271.85
528.76	1288.53
529.12	1304.64
529.48	1321.10
529.84	1336.66
530.20	1352.75
530.56	1369.38
530.91	1386.39
531.27	1402.75
531.63	1418.78
531.99	1435.01
532.35	1450.53
532.71	1466.15
533.07	1482.00
533.42	1497.52
533.78	1513.21
534.14	1529.00
534.50	1544.08
534.86	1559.57
535.21	1574.50
535.57	1589.97
535.93	1605.09
536.29	1619.60
536.65	1634.36
537.00	1648.64
537.36	1663.76
537.72	1678.05
538.08	1692.23
538.44	1705.69
538.79	1719.29
539.15	1732.60
539.51	1745.97
539.87	1760.10
540.22	1773.44
540.58	1787.00
540.94	1799.97
541.29	1812.43
541.65	1825.06
542.01	1837.95
542.37	1850.12
542.72	1862.31
543.08	1874.17
543.44	1886.37
543.79	1897.50
544.15	1908.34
544.51	1919.98
544.87	1930.82
545.22	1941.79
545.58	1952.05
545.94	1961.91
546.29	1971.69
546.65	1981.77
547.01	1991.25
547.36	2000.15
547.72	2008.86
548.07	2016.98
548.43	2025.40
548.79	2033.52
549.14	2041.39
549.50	2048.77
549.86	2056.48
550.21	2064.05
550.57	2071.32
550.92	2078.19
551.28	2085.37
551.64	2092.64
551.99	2099.44
552.35	2105.84
552.70	2112.01
553.06	2118.18
553.41	2124.75
553.77	2131.01
554.13	2137.26
554.48	2143.57
554.84	2149.47
555.19	2154.92
555.55	2160.36
555.90	2165.11
556.26	2170.48
556.61	2175.33
556.97	2180.19
557.32	2184.85
557.68	2189.35
558.03	2193.95
558.39	2197.86
558.74	2202.84
559.10	2207.19
559.45	2211.17
559.81	2215.78
560.16	2219.98
560.52	2223.58
560.87	2227.28
561.23	2230.29
561.58	2233.47
561.94	2236.53
562.29	2238.88
562.64	2242.14
563.00	2244.99
563.35	2248.92
563.71	2252.41
564.06	2255.77
564.42	2259.01
564.77	2261.97
565.12	2264.81
565.48	2267.19
565.83	2269.66
566.19	2271.53
566.54	2272.72
566.89	2274.39
567.25	2275.61
567.60	2277.34
567.96	2279.51
568.31	2280.78
568.66	2282.54
569.02	2283.78
569.37	2284.32
569.72	2285.87
570.08	2286.36
570.43	2286.76
570.78	2286.67
571.14	2285.61
571.49	2284.76
571.84	2284.79
572.20	2284.07
572.55	2283.23
572.90	2281.94
573.26	2280.93
573.61	2279.49
573.96	2278.36
574.31	2275.74
574.67	2272.94
575.02	2269.77
575.37	2266.72
575.72	2263.47
576.08	2260.33
576.43	2257.15
576.78	2254.09
577.13	2251.04
577.49	2248.14
577.84	2245.17
578.19	2241.62
578.54	2238.42
578.90	2234.79
579.25	2229.59
579.60	2224.99
579.95	2220.43
580.30	2215.76
580.66	2210.91
581.01	2206.18
581.36	2201.40
581.71	2197.72
582.06	2193.78
582.42	2189.79
582.77	2184.91
583.12	2180.66
583.47	2176.46
583.82	2172.00
584.17	2167.13
584.53	2162.00
584.88	2156.79
585.23	2151.35
585.58	2146.16
585.93	2140.92
586.28	2136.17
586.63	2131.57
586.98	2126.71
587.34	2122.11
587.69	2117.47
588.04	2112.64
588.39	2107.29
588.74	2101.14
589.09	2095.14
589.44	2088.61
589.79	2082.47
590.14	2076.97
590.49	2070.55
590.84	2064.17
591.19	2058.32
591.54	2051.79
591.89	2044.83
592.25	2038.41
592.60	2031.29
592.95	2024.03
593.30	2016.93
593.65	2009.49
594.00	2002.48
594.35	1995.52
594.70	1987.69
595.05	1980.86
595.40	1973.70
595.75	1966.45
596.10	1960.45
596.45	1953.87
596.80	1947.87
597.15	1941.56
597.50	1934.90
597.85	1928.52
598.19	1922.15
598.54	1915.27
598.89	1909.00
599.24	1903.06
599.59	1896.52
599.94	1890.47
600.29	1884.28
600.64	1877.70
600.99	1870.61
601.34	1863.89
601.69	1856.92
602.04	1850.21
602.39	1842.80
602.74	1836.07
603.08	1829.55
603.43	1822.92
603.78	1815.68
604.13	1808.44
604.48	1801.41
604.83	1794.44
605.18	1787.84
605.53	1779.92
605.87	1771.98
606.22	1764.67
606.57	1756.80
606.92	1749.32
607.27	1742.28
607.62	1735.46
607.96	1728.35
608.31	1721.90
608.66	1714.39
609.01	1706.88
609.36	1699.38
609.70	1691.44
610.05	1683.45
610.40	1675.70
610.75	1667.36
611.10	1659.58
611.44	1651.13
611.79	1642.97
612.14	1634.39
612.49	1625.05
612.83	1616.56
613.18	1608.29
613.53	1600.12
613.88	1591.59
614.22	1583.36
614.57	1574.60
614.92	1566.47
615.27	1558.89
615.61	1550.44
615.96	1542.23
616.31	1534.47
616.65	1527.00
617.00	1519.32
617.35	1511.53
617.70	1503.25
618.04	1494.59
618.39	1486.26
618.74	1478.56
619.08	1470.17
619.43	1462.48
619.78	1455.45
620.12	1448.38
620.47	1440.86
620.82	1432.56
621.16	1424.94
621.51	1417.14
621.85	1409.40
622.20	1400.70
622.55	1392.13
622.89	1384.12
623.24	1376.42
623.59	1368.86
623.93	1361.17
624.28	1353.84
624.62	1346.17
624.97	1338.72
625.32	1331.91
625.66	1324.89
626.01	1317.72
626.35	1310.31
626.70	1302.37
627.04	1294.55
627.39	1286.53
627.73	1278.93
628.08	1272.00
628.43	1264.73
628.77	1257.46
629.12	1249.88
629.46	1242.69
629.81	1235.05
630.15	1227.67
630.50	1220.10
630.84	1211.95
631.19	1203.90
631.53	1196.25
631.88	1188.57
632.22	1180.88
632.57	1173.47
632.91	1165.81
633.26	1158.31
633.60	1150.74
633.95	1143.43
634.29	1136.24
634.64	1129.46
634.98	1122.05
635.32	1114.96
635.67	1108.24
636.01	1101.44
636.36	1094.67
636.70	1088.08
637.05	1081.60
637.39	1075.27
637.73	1068.85
638.08	1062.89
638.42	1056.91
638.77	1050.48
639.11	1043.97
639.45	1037.55
639.80	1030.83
640.14	1024.42
640.49	1017.84
640.83	1011.45
641.17	1005.36
641.52	999.02
641.86	992.50
642.20	986.60
642.55	980.02
642.89	973.53
643.23	966.88
643.58	961.02
643.92	954.75
644.26	948.67
644.61	942.44
644.95	936.38
645.29	929.86
645.64	923.03
645.98	916.62
646.32	910.54
646.66	904.52
647.01	898.73
647.35	893.00
647.69	887.18
648.04	881.67
648.38	875.79
648.72	869.89
649.06	863.86
649.41	857.94
649.75	851.99
650.09	846.04
650.43	840.26
650.78	833.95
651.12	827.99
651.46	822.21
651.80	816.54
652.14	811.12
652.49	805.69
652.83	800.48
653.17	794.88
653.51	789.32
653.85	783.82
654.20	778.21
654.54	772.17
654.88	766.32
655.22	760.37
655.56	754.64
655.90	749.09
656.25	743.80
656.59	738.44
656.93	733.38
657.27	728.24
657.61	722.79
657.95	717.75
658.29	712.65
658.64	707.33
658.98	701.93
659.32	696.36
659.66	691.16
660.00	685.96
660.34	681.01
660.68	676.03
661.02	671.01
661.36	666.29
661.70	661.81
662.05	657.52
662.39	653.21
662.73	648.80
663.07	644.44
663.41	640.01
663.75	635.50
664.09	630.93
664.43	626.49
664.77	622.39
665.11	618.20
665.45	614.04
665.79	610.04
666.13	605.90
666.47	601.83
666.81	597.60
667.15	593.44
667.49	589.47
667.83	585.55
668.17	581.58
668.51	577.45
668.85	573.34
669.19	569.35
669.53	565.56
669.87	561.68
670.21	557.96
670.55	554.26
670.89	550.81
671.23	547.36
671.57	543.81
671.91	540.31
672.25	536.69
672.58	533.19
672.92	529.69
673.26	526.46
673.60	523.23
673.94	520.14
674.28	517.12
674.62	514.15
674.96	511.12
675.30	508.19
675.64	505.24
675.97	502.44
676.31	499.58
676.65	496.57
676.99	493.83
677.33	490.90
677.67	488.10
678.01	485.07
678.34	482.09
678.68	479.21
679.02	476.34
679.36	473.57
679.70	470.82
680.04	468.02
680.37	465.23
680.71	462.45
681.05	459.76
681.39	457.10
681.73	454.39
682.06	451.82
682.40	449.31
682.74	446.74
683.08	444.12
683.42	441.52
683.75	439.01
684.09	436.37
684.43	433.92
684.77	431.40
685.10	429.01
685.44	426.64
685.78	424.29
686.12	421.97
686.45	419.63
686.79	417.28
687.13	415.11
687.46	412.86
687.80	410.67
688.14	408.45
688.48	406.36
688.81	404.13
689.15	401.99
689.49	399.76
689.82	397.63
690.16	395.55
690.50	393.57
690.83	391.61
691.17	389.54
691.51	387.59
691.84	385.75
692.18	383.84
692.52	381.88
692.85	379.91
693.19	377.99
693.52	376.18
693.86	374.33
694.20	372.53
694.53	370.76
694.87	368.89
695.21	367.08
695.54	365.20
695.88	363.48
696.21	361.71
696.55	360.03
696.88	358.39
697.22	356.68
697.56	355.04
697.89	353.34
698.23	351.87
698.56	350.25
698.90	348.69
699.23	347.05
699.57	345.48
699.90	343.94
700.24	342.41
700.58	340.89
700.91	339.42
701.25	337.95
701.58	336.53
701.92	335.17
702.25	333.78
702.59	332.38
702.92	330.99
703.26	329.66
703.59	328.34
703.93	327.16
704.26	325.98
704.60	324.70
704.93	323.43
705.26	322.10
705.60	320.89
705.93	319.63
706.27	318.58
706.60	317.51
706.94	316.40
707.27	315.20
707.61	314.08
707.94	313.00
708.27	311.90
708.61	310.82
708.94	309.80
709.28	308.80
709.61	307.82
709.94	306.86
710.28	305.85
710.61	304.82
710.95	303.69
711.28	302.75
711.61	301.70
711.95	300.76
712.28	299.79
712.61	298.80
712.95	297.86
713.28	296.93
713.61	296.02
713.95	295.14
714.28	294.32
714.61	293.47
714.95	292.56
715.28	291.69
715.61	290.79
715.95	289.87
716.28	288.96
716.61	288.11
716.95	287.24
717.28	286.44
717.61	285.65
717.94	284.88
718.28	284.04
718.61	283.30
718.94	282.57
719.27	281.88
719.61	281.19
719.94	280.47
720.27	279.72
720.60	279.02
720.94	278.38
721.27	277.75
721.60	277.18
721.93	276.59
722.27	276.02
722.60	275.44
722.93	274.89
723.26	274.35
723.59	273.76
723.93	273.22
724.26	272.65
724.59	272.07
724.92	271.50
725.25	270.95
725.59	270.40
725.92	269.87
726.25	269.34
726.58	268.82
726.91	268.36
727.24	267.89
727.57	267.37
727.91	266.80
728.24	266.33
728.57	265.79
728.90	265.33
729.23	264.81
729.56	264.37
729.89	263.85
730.22	263.36
730.55	262.87
730.89	262.42
731.22	261.96
731.55	261.54
731.88	261.12
732.21	260.67
732.54	260.25
732.87	259.81
733.20	259.38
733.53	259.01
733.86	258.65
734.19	258.22
734.52	257.90
734.85	257.60
735.18	257.23
735.51	256.86
735.84	256.49
736.17	256.17
736.50	255.77
736.83	255.57
737.16	255.24
737.49	254.93
737.82	254.56
738.15	254.27
738.48	253.90
738.81	253.58
739.14	253.29
739.47	252.96
739.80	252.71
740.13	252.44
740.46	252.11
740.79	251.74
741.12	251.44
741.45	251.11
741.78	250.72
742.11	250.37
742.44	250.08
742.77	249.79
743.10	249.49
743.43	249.18
743.75	248.79
744.08	248.63
744.41	248.36
744.74	248.09
745.07	247.79
745.40	247.60
745.73	247.40
746.06	247.14
746.39	246.89
746.71	246.64
747.04	246.36
747.37	246.11
747.70	245.89
748.03	245.66
748.36	245.42
748.68	245.23
749.01	245.00
749.34	244.78
749.67	244.56
750.00	244.31
750.33	244.15
750.65	243.97
750.98	243.64
751.31	243.44
751.64	243.25
751.97	243.08
752.29	242.88
752.62	242.61
752.95	242.41
753.28	242.19
753.60	241.97
753.93	241.80
754.26	241.60
754.59	241.37
754.91	241.15
755.24	240.94
755.57	240.72
755.90	240.53
756.22	240.28
756.55	240.03
756.88	239.80
757.20	239.58
757.53	239.37
757.86	239.19
758.19	239.01
758.51	238.79
758.84	238.56
759.17	238.33
759.49	238.15
759.82	237.99
760.15	237.85
760.47	237.67
760.80	237.45
761.13	237.29
761.45	237.12
761.78	236.97
762.11	236.80
762.43	236.69
762.76	236.59
763.08	236.49
763.41	236.36
763.74	236.24
764.06	236.06
764.39	235.87
764.71	235.71
765.04	235.52
765.37	235.39
765.69	235.25
766.02	235.12
766.34	234.98
766.67	234.83
767.00	234.68
767.32	234.60
767.65	234.56
767.97	234.43
768.30	234.30
768.62	234.18
768.95	234.05
769.27	233.86
769.60	233.73
769.92	233.57
770.25	233.46
770.57	233.35
770.90	233.25
771.22	233.15
771.55	233.06
771.87	233.00
772.20	232.87
772.52	232.85
772.85	232.88
773.17	232.78
773.50	232.67
773.82	232.59
774.15	232.46
774.47	232.29
774.80	232.24
775.12	232.16
775.45	232.10
775.77	232.04
776.09	232.00
776.42	231.90
776.74	231.89
777.07	231.81
777.39	231.76
777.72	231.71
778.04	231.62
778.36	231.52
778.69	231.45
779.01	231.43
779.33	231.31
779.66	231.14
779.98	231.06
780.31	231.01
780.63	230.99
780.95	230.96
781.28	230.88
781.60	230.79
781.92	230.72
782.25	230.66
782.57	230.61
782.89	230.54
783.22	230.50
783.54	230.41
783.86	230.37
784.19	230.31
784.51	230.31
784.83	230.27
785.16	230.22
785.48	230.21
785.80	230.13
786.12	230.05
786.45	230.01
786.77	229.99
787.09	229.95
787.42	229.86
787.74	229.79
788.06	229.76
788.38	229.71
788.71	229.65
789.03	229.61
789.35	229.58
789.67	229.53
789.99	229.49
790.32	229.44
790.64	229.36
790.96	229.41
791.28	229.27
791.61	229.26
791.93	229.28
792.25	229.20
792.57	229.26
792.89	229.20
793.21	229.15
793.54	229.12
793.86	229.05
794.18	229.03
794.50	228.97
794.82	228.95
795.14	228.95
795.47	228.92
795.79	228.86
796.11	228.78
796.43	228.72
796.75	228.66
797.07	228.62
797.39	228.58
797.71	228.46
798.04	228.44
798.36	228.40
798.68	228.33
799.00	228.30
799.32	228.18
799.64	228.17
799.96	228.13
800.28	228.10
800.60	228.05
800.92	227.99
801.24	227.96
801.56	227.92
801.89	227.86
802.21	227.85
802.53	227.82
802.85	227.81
803.17	227.80
803.49	227.74
803.81	227.71
804.13	227.69
804.45	227.63
804.77	227.60
805.09	227.52
805.41	227.50
805.73	227.43
806.05	227.37
806.37	227.35
806.69	227.31
807.01	227.29
807.33	227.26
807.65	227.21
807.97	227.19
808.28	227.16
808.60	227.15
808.92	227.11
809.24	227.15
809.56	227.11
809.88	227.10
810.20	227.13
810.52	227.14
810.84	227.10
811.16	227.07
811.48	227.06
811.80	227.11
812.12	227.07
812.43	227.07
812.75	227.08
813.07	227.04
813.39	227.04
813.71	226.98
814.03	227.00
814.35	227.01
814.67	226.99
814.98	226.98
815.30	226.95
815.62	226.91
815.94	226.82
816.26	226.85
816.58	226.81
816.89	226.79
817.21	226.76
817.53	226.78
817.85	226.76
818.17	226.76
818.48	226.72
818.80	226.74
819.12	226.73
819.44	226.68
819.76	226.68
820.07	226.71
820.39	226.72
820.71	226.69
821.03	226.65
821.34	226.64
821.66	226.65
821.98	226.65
822.30	226.64
822.61	226.71
822.93	226.65
823.25	226.68
823.57	226.62
823.88	226.64
824.20	226.60
824.52	226.63
824.83	226.59
825.15	226.57
825.47	226.50
825.79	226.51
826.10	226.52
826.42	226.55
826.74	226.52
827.05	226.54
827.37	226.53
827.69	226.54
828.00	226.53
828.32	226.52
828.64	226.49
828.95	226.53
829.27	226.47
829.58	226.48
829.90	226.48
830.22	226.53
830.53	226.48
830.85	226.50
831.17	226.45
831.48	226.49
831.80	226.49
832.11	226.51
832.43	226.51
832.75	226.48
833.06	226.51
833.38	226.44
833.69	226.43
834.01	226.42
834.32	226.41
834.64	226.40
834.96	226.42
835.27	226.41
835.59	226.37
835.90	226.34
836.22	226.31
836.53	226.27
836.85	226.22
837.16	226.31
837.48	226.29
837.79	226.33
838.11	226.30
838.42	226.27
838.74	226.25
839.05	226.22
839.37	226.23
839.68	226.13
840.00	226.12
840.31	226.11
840.63	226.12
840.94	226.08
841.26	226.05
841.57	226.02
841.88	226.03
842.20	225.98
842.51	225.96
842.83	225.97
843.14	226.01
843.46	226.04
843.77	225.98
844.08	225.97
844.40	225.88
844.71	225.86
845.03	225.82
845.34	225.83
845.65	225.79
845.97	225.80
846.28	225.82
846.60	225.81
846.91	225.79
847.22	225.72
847.54	225.71
847.85	225.70
848.16	225.64
848.48	225.60
848.79	225.63
849.10	225.65
849.42	225.62
849.73	225.51
850.04	225.46
850.36	225.40
850.67	225.42
850.98	225.48
851.30	225.47
851.61	225.48
851.92	225.46
852.23	225.51
852.55	225.47
852.86	225.44
853.17	225.44
853.49	225.44
853.80	225.50
854.11	225.52
854.42	225.53
854.74	225.58
855.05	225.58
855.36	225.54
855.67	225.55
855.99	225.57
856.30	225.70
856.61	225.74
856.92	225.72
857.23	225.71
857.55	225.69
857.86	225.69
858.17	225.72
858.48	225.73
858.79	225.68
859.11	225.71
859.42	225.71
859.73	225.72
860.04	225.74
860.35	225.68
860.66	225.66
860.98	225.66
861.29	225.66
861.60	225.65
861.91	225.69
862.22	225.66
862.53	225.63
862.84	225.51
863.16	225.51
863.47	225.53
863.78	225.52
864.09	225.54
864.40	225.56
864.71	225.55
865.02	225.56
865.33	225.57
865.64	225.56
865.95	225.53
866.27	225.59
866.58	225.56
866.89	225.60
867.20	225.62
867.51	225.62
867.82	225.60
868.13	225.65
868.44	225.63
868.75	225.66
869.06	225.65
869.37	225.69
869.68	225.65
869.99	225.67
870.30	225.63
870.61	225.65
870.92	225.65
871.23	225.66
871.54	225.66
871.85	225.67
872.16	225.68
872.47	225.69
872.78	225.65
873.09	225.66
873.40	225.62
873.71	225.59
874.02	225.57
874.33	225.55
874.64	225.50
874.95	225.52
875.26	225.49
875.56	225.51
875.87	225.50
876.18	225.48
876.49	225.54
876.80	225.57
877.11	225.53
877.42	225.51
877.73	225.48
878.04	225.43
878.35	225.42
878.66	225.40
878.96	225.39
879.27	225.35
879.58	225.30
879.89	225.29
880.20	225.31
880.51	225.29
880.82	225.30
881.12	225.29
881.43	225.24
881.74	225.20
882.05	225.18
882.36	225.16
882.67	225.15
882.97	225.04
883.28	224.99
883.59	224.96
883.90	224.93
884.21	224.93
884.51	224.93
884.82	224.91
885.13	224.88
885.44	224.87
885.74	224.87
886.05	224.88
886.36	224.90
886.67	224.86
886.98	224.94
887.28	224.93
887.59	224.92
887.90	224.93
888.20	224.89
888.51	224.90
888.82	224.90
889.13	224.91
889.43	224.98
889.74	225.00
890.05	225.03
890.35	225.02
890.66	224.99
890.97	224.96
891.28	224.93
891.58	224.94
891.89	224.94
892.20	224.92
892.50	224.92
892.81	224.90
893.12	224.93
893.42	224.88
893.73	224.87
894.04	224.91
894.34	224.93
894.65	224.96
894.95	224.94
895.26	224.94
895.57	224.99
895.87	224.92
896.18	224.96
896.48	224.93
896.79	224.94
897.10	224.95
897.40	224.98
897.71	225.00
898.01	225.02
898.32	225.03
898.63	225.05
898.93	225.04
899.24	225.06
899.54	225.02
899.85	225.01
900.15	225.04
900.46	225.03
900.76	225.05
901.07	225.05
901.38	225.08
901.68	225.12
901.99	225.10
902.29	225.14
902.60	225.14
902.90	225.16
903.21	225.18
903.51	225.19
903.82	225.22
904.12	225.24
904.43	225.28
904.73	225.30
905.03	225.30
905.34	225.41
905.64	225.43
905.95	225.45
906.25	225.47
906.56	225.45
906.86	225.44
907.17	225.43
907.47	225.46
907.77	225.44
908.08	225.39
908.38	225.38
908.69	225.37
908.99	225.35
909.30	225.36
909.60	225.40
909.90	225.42
910.21	225.37
910.51	225.35
910.81	225.35
911.12	225.34
911.42	225.35
911.73	225.28
912.03	225.26
912.33	225.27
912.64	225.25
912.94	225.25
913.24	225.24
913.55	225.22
913.85	225.18
914.15	225.19
914.46	225.20
914.76	225.20
915.06	225.18
915.37	225.16
915.67	225.12
915.97	225.06
916.27	225.03
916.58	225.04
916.88	225.05
917.18	225.01
917.49	225.04
917.79	225.00
918.09	225.00
918.39	225.02
918.70	225.01
919.00	225.02
919.30	225.03
919.60	224.99
919.91	224.95
920.21	224.98
920.51	224.95
920.81	224.94
921.12	224.95
921.42	224.93
921.72	224.93
922.02	224.96
922.32	224.96
922.63	224.96
922.93	224.99
923.23	224.96
923.53	224.94
923.83	224.89
924.13	224.90
924.44	224.86
924.74	224.88
925.04	224.88
925.34	224.86
925.64	224.84
925.94	224.87
926.24	224.93
926.55	224.92
926.85	224.94
927.15	224.93
927.45	224.92
927.75	224.90
928.05	224.92
928.35	224.88
928.65	224.89
928.95	224.89
929.26	224.85
929.56	224.88
929.86	224.90
930.16	224.89
930.46	224.89
930.76	224.93
931.06	224.87
931.36	224.86
931.66	224.89
931.96	224.91
932.26	224.94
932.56	224.89
932.86	224.89
933.16	224.90
933.46	224.92
933.76	224.91
934.06	224.97
934.36	225.00
934.66	225.03
934.96	225.07
935.26	225.06
935.56	225.10
935.86	225.12
936.16	225.13
936.46	225.15
936.76	225.17
937.06	225.15
937.36	225.19
937.66	225.22
937.96	225.25
938.26	225.21
938.56	225.18
938.86	225.21
939.16	225.27
939.46	225.28
939.76	225.27
940.06	225.27
940.35	225.24
940.65	225.19
940.95	225.23
941.25	225.22
941.55	225.24
941.85	225.26
942.15	225.24
942.45	225.26
942.75	225.23
943.04	225.23
943.34	225.22
943.64	225.22
943.94	225.19
944.24	225.14
944.54	225.16
944.84	225.17
945.13	225.17
945.43	225.12
945.73	225.10
946.03	225.09
946.33	225.11
946.62	225.09
946.92	225.08
947.22	225.05
947.52	225.05
947.82	225.05
948.11	224.99
948.41	224.96
948.71	224.96
949.01	224.97
949.31	224.97
949.60	224.96
949.90	224.96
950.20	224.94
950.50	224.96
950.79	224.98
951.09	224.98
951.39	224.97
951.69	224.94
951.98	224.93
952.28	224.91
952.58	224.89
952.87	224.90
953.17	224.91
953.47	224.88
953.76	224.85
954.06	224.78
954.36	224.76
954.66	224.76
954.95	224.73
955.25	224.71
955.55	224.71
955.84	224.70
956.14	224.67
956.44	224.65
956.73	224.62
957.03	224.58
957.32	224.56
957.62	224.52
957.92	224.53
958.21	224.52
958.51	224.63
958.81	224.63
959.10	224.60
959.40	224.59
959.69	224.60
959.99	224.60
960.29	224.65
960.58	224.63
960.88	224.65
961.17	224.64
961.47	224.64
961.76	224.59
962.06	224.59
962.36	224.58
962.65	224.61
962.95	224.61
963.24	224.61
963.54	224.61
963.83	224.60
964.13	224.61
964.42	224.57
964.72	224.49
965.01	224.48
965.31	224.48
965.60	224.47
965.90	224.52
966.19	224.51
966.49	224.53
966.78	224.55
967.08	224.55
967.37	224.55
967.67	224.54
967.96	224.59
968.26	224.60
968.55	224.62
968.85	224.62
969.14	224.61
969.43	224.59
969.73	224.60
970.02	224.65
970.32	224.65
970.61	224.67
970.91	224.63
971.20	224.63
971.49	224.66
971.79	224.70
972.08	224.64
972.38	224.65
972.67	224.65
972.96	224.66
973.26	224.68
973.55	224.74
973.85	224.77
974.14	224.76
974.43	224.80
974.73	224.79
975.02	224.78
975.31	224.80
975.61	224.84
975.90	224.83
976.19	224.83
976.49	224.85
976.78	224.86
977.07	224.90
977.37	224.92
977.66	224.91
977.95	224.88
978.24	224.90
978.54	224.92
978.83	224.89
979.12	224.90
979.42	224.88
979.71	224.84
980.00	224.82
980.29	224.83
980.59	224.83
980.88	224.88
981.17	224.91
981.46	224.95
981.76	224.93
982.05	224.96
982.34	224.99
982.63	225.01
982.93	225.00
983.22	225.01
983.51	225.02
983.80	225.05
984.09	225.10
984.39	225.10
984.68	225.12
984.97	225.13
985.26	225.10
985.55	225.13
985.85	225.10
986.14	225.13
986.43	225.15
986.72	225.11
987.01	225.08
987.30	225.06
987.59	225.01
987.89	225.01
988.18	225.00
988.47	224.97
988.76	224.93
989.05	224.94
989.34	224.93
989.63	224.95
989.92	224.95
990.22	224.94
990.51	224.94
990.80	224.90
991.09	224.95
991.38	224.96
991.67	224.97
991.96	224.99
992.25	224.98
992.54	224.94
992.83	224.94
993.12	224.91
993.41	224.95
993.70	225.00
993.99	225.01
994.28	225.04
994.58	225.06
994.87	225.05
995.16	225.07
995.45	225.07
995.74	225.01
996.03	224.99
996.32	224.98
996.61	225.00
996.90	224.97
997.19	224.93
997.48	224.95
997.77	224.93
998.06	224.92
998.34	224.91
998.63	224.91
998.92	224.91
999.21	224.94
999.50	224.90
999.79	224.85
1000.08	224.86
1000.37	224.84
1000.66	224.83
1000.95	224.86
1001.24	224.84
1001.53	224.84
1001.82	224.87
1002.11	224.84
1002.40	224.83
1002.68	224.85
1002.97	224.96
1003.26	224.94
1003.55	224.91
1003.84	224.90
1004.13	224.96
1004.42	224.95
1004.71	224.94
1004.99	224.96
1005.28	224.95
1005.57	224.96
1005.86	225.02
1006.15	224.99
1006.44	224.95
1006.72	224.95
1007.01	224.93
1007.30	224.96
1007.59	224.97
1007.88	224.95
1008.17	224.96
1008.45	224.94
1008.74	224.88
1009.03	224.83
1009.32	224.86
1009.60	224.87
1009.89	224.85
1010.18	224.79
1010.47	224.78
1010.76	224.82
1011.04	224.80
1011.33	224.84
1011.62	224.83
1011.91	224.78
1012.19	224.83
1012.48	224.87
1012.77	224.87
1013.05	224.93
1013.34	224.91
1013.63	224.90
1013.92	224.88
1014.20	224.91
1014.49	224.91
1014.78	224.94
1015.06	224.87
1015.35	224.89
1015.64	224.90
1015.92	224.95
1016.21	224.99
1016.50	225.01
1016.78	225.02
1017.07	225.00
1017.36	224.97
1017.64	224.95
1017.93	225.00
1018.22	224.99
1018.50	224.97
1018.79	224.97
1019.08	224.88
1019.36	224.90
1019.65	224.90
1019.93	224.98
1020.22	224.98
1020.51	225.04
1020.79	225.03
1021.08	224.91
1021.36	224.82
1021.65	224.92
1021.94	224.45
1022.22	225.26
1022.51	224.79
1022.79	225.75
1023.08	225.19
1023.36	225.91
1023.65	224.46
>>>>>End Processed Spectral Data<<<<<
