SpectraSuite Data File
++++++++++++++++++++++++++++++++++++
Date: Fri Feb 01 15:50:42 EST 2013
User: group
Dark Spectrum Present: No
Reference Spectrum Present: No
Number of Sampled Component Spectra: 1
Spectrometers: USB2E7196
Integration Time (usec): 35000 (USB2E7196)
Spectra Averaged: 100 (USB2E7196)
Boxcar Smoothing: 10 (USB2E7196)
Correct for Electrical Dark: No (USB2E7196)
Strobe/Lamp Enabled: No (USB2E7196)
Correct for Detector Non-linearity: No (USB2E7196)
Correct for Stray Light: No (USB2E7196)
Number of Pixels in Processed Spectrum: 2048
>>>>>Begin Processed Spectral Data<<<<<
339.09	0.00
339.48	214.95
339.86	216.14
340.24	217.23
340.63	219.07
341.01	222.29
341.39	221.53
341.78	222.90
342.16	224.26
342.54	224.89
342.93	213.10
343.31	223.88
343.69	224.39
344.07	224.85
344.46	225.30
344.84	225.68
345.22	225.88
345.60	226.13
345.99	226.33
346.37	226.46
346.75	226.55
347.13	226.63
347.52	226.65
347.90	226.73
348.28	226.77
348.66	226.77
349.05	226.74
349.43	226.77
349.81	226.82
350.19	226.87
350.57	226.95
350.96	227.00
351.34	227.04
351.72	227.14
352.10	227.24
352.48	227.29
352.87	227.31
353.25	227.38
353.63	227.44
354.01	227.48
354.39	227.53
354.77	227.57
355.15	227.68
355.54	227.74
355.92	227.75
356.30	227.82
356.68	227.98
357.06	228.08
357.44	228.15
357.82	228.18
358.20	228.28
358.58	228.31
358.97	228.35
359.35	228.46
359.73	228.54
360.11	228.58
360.49	228.65
360.87	228.68
361.25	228.75
361.63	228.83
362.01	228.87
362.39	228.91
362.77	228.97
363.15	228.98
363.53	229.02
363.91	229.02
364.29	229.04
364.67	228.94
365.05	228.93
365.43	228.96
365.81	229.02
366.19	229.05
366.57	229.11
366.95	229.12
367.33	229.10
367.71	229.09
368.09	229.09
368.47	229.09
368.85	229.10
369.23	229.11
369.61	229.08
369.99	229.08
370.37	229.06
370.75	229.08
371.13	229.06
371.51	228.99
371.89	229.02
372.27	228.98
372.65	228.95
373.03	228.93
373.41	228.86
373.78	228.79
374.16	228.70
374.54	228.62
374.92	228.54
375.30	228.47
375.68	228.38
376.06	228.33
376.44	228.25
376.82	228.21
377.19	228.11
377.57	228.03
377.95	227.93
378.33	227.88
378.71	227.74
379.09	227.67
379.47	227.60
379.84	227.50
380.22	227.43
380.60	227.36
380.98	227.28
381.36	227.20
381.73	227.13
382.11	227.06
382.49	226.99
382.87	226.92
383.25	226.86
383.62	226.93
384.00	226.86
384.38	226.80
384.76	226.76
385.13	226.76
385.51	226.70
385.89	226.63
386.27	226.58
386.64	226.57
387.02	226.49
387.40	226.49
387.78	226.45
388.15	226.40
388.53	226.38
388.91	226.36
389.29	226.36
389.66	226.33
390.04	226.31
390.42	226.29
390.79	226.30
391.17	226.29
391.55	226.15
391.92	226.16
392.30	226.15
392.68	226.12
393.05	226.09
393.43	226.11
393.81	226.15
394.18	226.16
394.56	226.18
394.94	226.25
395.31	226.27
395.69	226.28
396.06	226.34
396.44	226.35
396.82	226.35
397.19	226.45
397.57	226.51
397.95	226.55
398.32	226.56
398.70	226.61
399.07	226.68
399.45	226.74
399.82	226.77
400.20	226.84
400.58	226.92
400.95	226.95
401.33	227.04
401.70	227.20
402.08	227.26
402.45	227.35
402.83	227.45
403.20	227.52
403.58	227.65
403.95	227.80
404.33	227.93
404.71	228.08
405.08	228.24
405.46	228.34
405.83	228.48
406.21	228.65
406.58	228.83
406.96	228.98
407.33	229.17
407.70	229.40
408.08	229.69
408.45	229.89
408.83	230.12
409.20	230.34
409.58	230.51
409.95	230.80
410.33	231.05
410.70	231.29
411.08	231.60
411.45	231.90
411.82	232.20
412.20	232.54
412.57	232.96
412.95	233.27
413.32	233.71
413.69	234.13
414.07	234.59
414.44	235.04
414.82	235.52
415.19	236.06
415.56	236.60
415.94	237.09
416.31	237.75
416.68	238.38
417.06	239.11
417.43	239.80
417.81	240.56
418.18	241.34
418.55	242.17
418.93	243.05
419.30	243.95
419.67	244.88
420.04	245.86
420.42	246.88
420.79	248.03
421.16	249.18
421.54	250.37
421.91	251.55
422.28	252.83
422.66	254.14
423.03	255.48
423.40	256.80
423.77	258.24
424.15	259.65
424.52	261.15
424.89	262.78
425.26	264.30
425.64	265.79
426.01	267.40
426.38	269.08
426.75	270.75
427.13	272.47
427.50	274.24
427.87	276.14
428.24	277.95
428.61	279.71
428.99	281.70
429.36	283.80
429.73	285.89
430.10	287.92
430.47	289.99
430.85	292.08
431.22	294.33
431.59	296.78
431.96	299.06
432.33	301.53
432.70	303.86
433.08	306.70
433.45	309.31
433.82	311.93
434.19	314.84
434.56	317.72
434.93	320.39
435.30	323.10
435.68	325.91
436.05	328.73
436.42	331.52
436.79	333.99
437.16	336.68
437.53	339.46
437.90	342.26
438.27	344.99
438.64	347.78
439.01	350.33
439.38	352.51
439.75	354.64
440.13	357.13
440.50	359.48
440.87	361.29
441.24	363.23
441.61	365.38
441.98	366.80
442.35	368.53
442.72	370.42
443.09	372.15
443.46	373.19
443.83	373.78
444.20	374.29
444.57	375.07
444.94	375.32
445.31	375.70
445.68	376.04
446.05	376.12
446.42	375.76
446.79	375.37
447.16	374.93
447.53	374.60
447.90	373.45
448.27	372.28
448.64	370.69
449.01	369.53
449.37	367.55
449.74	365.73
450.11	363.45
450.48	360.95
450.85	358.41
451.22	356.28
451.59	354.26
451.96	352.30
452.33	349.74
452.70	347.44
453.07	344.59
453.43	341.70
453.80	338.93
454.17	336.23
454.54	333.69
454.91	330.97
455.28	328.29
455.65	325.76
456.02	323.31
456.38	321.22
456.75	318.54
457.12	316.31
457.49	314.06
457.86	311.94
458.23	310.08
458.59	308.06
458.96	305.95
459.33	304.11
459.70	302.23
460.07	300.72
460.43	298.99
460.80	297.36
461.17	295.93
461.54	294.45
461.91	293.07
462.27	291.65
462.64	290.37
463.01	289.02
463.38	287.75
463.74	286.39
464.11	285.21
464.48	284.22
464.85	283.11
465.21	282.24
465.58	281.30
465.95	280.17
466.32	279.27
466.68	278.39
467.05	277.52
467.42	276.64
467.78	275.73
468.15	274.87
468.52	274.25
468.88	273.39
469.25	272.64
469.62	272.00
469.98	271.32
470.35	270.73
470.72	270.17
471.08	269.53
471.45	268.98
471.82	268.44
472.18	267.82
472.55	267.40
472.92	266.89
473.28	266.46
473.65	266.02
474.02	265.55
474.38	265.20
474.75	264.86
475.11	264.52
475.48	264.25
475.85	264.04
476.21	263.77
476.58	263.59
476.94	263.43
477.31	263.26
477.67	263.15
478.04	263.03
478.41	262.97
478.77	263.01
479.14	262.97
479.50	262.96
479.87	263.06
480.23	263.14
480.60	263.20
480.96	263.25
481.33	263.51
481.69	263.73
482.06	263.90
482.42	264.08
482.79	264.38
483.15	264.69
483.52	265.03
483.88	265.40
484.25	265.77
484.61	266.19
484.98	266.66
485.34	267.17
485.71	267.75
486.07	268.35
486.44	268.89
486.80	269.57
487.17	270.34
487.53	271.13
487.90	271.97
488.26	272.89
488.62	273.90
488.99	274.84
489.35	275.89
489.72	276.98
490.08	278.19
490.44	279.41
490.81	280.75
491.17	282.11
491.54	283.55
491.90	285.08
492.26	286.68
492.63	288.42
492.99	290.21
493.36	292.11
493.72	294.13
494.08	296.24
494.45	298.50
494.81	300.86
495.17	303.33
495.54	305.86
495.90	308.55
496.26	311.34
496.63	314.35
496.99	317.44
497.35	320.72
497.72	324.12
498.08	327.62
498.44	331.27
498.80	335.19
499.17	339.23
499.53	343.43
499.89	347.84
500.26	352.32
500.62	356.96
500.98	361.93
501.34	367.01
501.71	372.36
502.07	377.80
502.43	383.38
502.79	389.19
503.16	395.29
503.52	401.57
503.88	407.99
504.24	414.61
504.60	421.47
504.97	428.64
505.33	436.00
505.69	443.72
506.05	451.50
506.41	459.45
506.78	467.66
507.14	476.13
507.50	484.83
507.86	493.90
508.22	503.13
508.59	512.36
508.95	521.96
509.31	531.73
509.67	541.89
510.03	552.16
510.39	562.76
510.75	573.53
511.12	584.46
511.48	595.76
511.84	607.24
512.20	618.82
512.56	630.70
512.92	642.85
513.28	655.19
513.64	667.70
514.00	680.38
514.37	693.23
514.73	706.24
515.09	719.30
515.45	732.58
515.81	746.11
516.17	760.12
516.53	774.26
516.89	788.43
517.25	802.67
517.61	817.15
517.97	831.48
518.33	845.89
518.69	860.70
519.05	875.69
519.41	890.90
519.77	906.44
520.13	921.90
520.49	937.23
520.85	952.68
521.21	968.38
521.57	984.57
521.93	1000.44
522.29	1016.92
522.65	1033.21
523.01	1049.38
523.37	1065.50
523.73	1081.75
524.09	1097.77
524.45	1114.06
524.81	1130.57
525.17	1147.43
525.53	1164.39
525.89	1181.49
526.25	1198.27
526.61	1214.61
526.97	1231.32
527.33	1247.66
527.68	1264.26
528.04	1280.82
528.40	1297.43
528.76	1314.36
529.12	1330.96
529.48	1347.68
529.84	1363.65
530.20	1380.21
530.56	1397.17
530.91	1414.44
531.27	1431.14
531.63	1447.64
531.99	1464.16
532.35	1480.01
532.71	1495.83
533.07	1512.05
533.42	1527.79
533.78	1543.88
534.14	1560.22
534.50	1575.54
534.86	1591.47
535.21	1606.72
535.57	1622.67
535.93	1638.11
536.29	1652.93
536.65	1667.87
537.00	1682.76
537.36	1698.01
537.72	1712.52
538.08	1726.85
538.44	1740.67
538.79	1754.52
539.15	1768.21
539.51	1782.02
539.87	1796.49
540.22	1810.24
540.58	1824.08
540.94	1837.37
541.29	1850.23
541.65	1862.89
542.01	1876.04
542.37	1888.36
542.72	1900.70
543.08	1912.47
543.44	1924.80
543.79	1936.08
544.15	1947.06
544.51	1958.60
544.87	1969.55
545.22	1980.41
545.58	1990.79
545.94	2000.51
546.29	2010.34
546.65	2020.12
547.01	2029.35
547.36	2038.00
547.72	2046.37
548.07	2054.17
548.43	2062.32
548.79	2070.21
549.14	2077.63
549.50	2084.91
549.86	2092.72
550.21	2099.97
550.57	2107.08
550.92	2113.69
551.28	2120.67
551.64	2127.82
551.99	2134.25
552.35	2140.39
552.70	2146.45
553.06	2152.41
553.41	2158.81
553.77	2164.87
554.13	2170.92
554.48	2177.09
554.84	2182.60
555.19	2187.99
555.55	2193.16
555.90	2197.57
556.26	2202.49
556.61	2207.18
556.97	2211.37
557.32	2215.34
557.68	2219.58
558.03	2223.88
558.39	2227.56
558.74	2232.13
559.10	2236.06
559.45	2239.77
559.81	2244.15
560.16	2248.03
560.52	2251.16
560.87	2254.54
561.23	2257.10
561.58	2260.15
561.94	2262.58
562.29	2264.92
562.64	2267.48
563.00	2270.02
563.35	2273.52
563.71	2276.67
564.06	2279.79
564.42	2282.85
564.77	2285.37
565.12	2287.64
565.48	2289.39
565.83	2291.35
566.19	2292.78
566.54	2293.66
566.89	2294.83
567.25	2295.31
567.60	2296.49
567.96	2298.18
568.31	2299.03
568.66	2300.09
569.02	2300.56
569.37	2300.87
569.72	2301.68
570.08	2301.80
570.43	2301.83
570.78	2301.29
571.14	2299.77
571.49	2298.57
571.84	2298.16
572.20	2297.05
572.55	2295.84
572.90	2294.35
573.26	2292.80
573.61	2291.11
573.96	2289.33
574.31	2286.40
574.67	2283.37
575.02	2279.78
575.37	2276.32
575.72	2272.44
576.08	2269.36
576.43	2266.10
576.78	2262.49
577.13	2259.39
577.49	2256.32
577.84	2252.83
578.19	2249.11
578.54	2245.42
578.90	2241.15
579.25	2235.62
579.60	2230.62
579.95	2225.72
580.30	2220.87
580.66	2215.85
581.01	2210.90
581.36	2205.99
581.71	2201.81
582.06	2197.39
582.42	2192.90
582.77	2187.76
583.12	2183.36
583.47	2178.41
583.82	2173.38
584.17	2168.08
584.53	2162.46
584.88	2156.83
585.23	2151.05
585.58	2145.51
585.93	2140.06
586.28	2135.36
586.63	2130.32
586.98	2125.20
587.34	2120.43
587.69	2115.35
588.04	2109.85
588.39	2104.19
588.74	2097.67
589.09	2091.45
589.44	2084.73
589.79	2078.83
590.14	2073.25
590.49	2066.62
590.84	2060.22
591.19	2054.28
591.54	2047.80
591.89	2040.52
592.25	2033.74
592.60	2026.53
592.95	2018.96
593.30	2011.64
593.65	2003.97
594.00	1996.92
594.35	1989.63
594.70	1981.61
595.05	1974.27
595.40	1967.11
595.75	1959.62
596.10	1953.41
596.45	1946.55
596.80	1940.34
597.15	1933.64
597.50	1926.48
597.85	1920.05
598.19	1913.48
598.54	1906.12
598.89	1899.50
599.24	1893.54
599.59	1886.81
599.94	1880.54
600.29	1874.19
600.64	1867.59
600.99	1860.23
601.34	1853.41
601.69	1846.65
602.04	1839.78
602.39	1832.58
602.74	1825.80
603.08	1818.83
603.43	1812.10
603.78	1804.84
604.13	1797.59
604.48	1790.17
604.83	1783.27
605.18	1776.19
605.53	1768.05
605.87	1760.16
606.22	1752.98
606.57	1745.05
606.92	1737.75
607.27	1730.60
607.62	1723.80
607.96	1716.65
608.31	1709.95
608.66	1702.35
609.01	1694.60
609.36	1686.99
609.70	1679.05
610.05	1670.91
610.40	1663.33
610.75	1654.90
611.10	1647.19
611.44	1638.88
611.79	1630.95
612.14	1622.33
612.49	1613.25
612.83	1604.91
613.18	1596.72
613.53	1588.63
613.88	1580.14
614.22	1571.82
614.57	1563.24
614.92	1554.99
615.27	1547.22
615.61	1538.87
615.96	1530.77
616.31	1523.23
616.65	1515.87
617.00	1508.27
617.35	1500.61
617.70	1492.30
618.04	1483.96
618.39	1475.84
618.74	1468.15
619.08	1459.90
619.43	1452.34
619.78	1445.40
620.12	1438.27
620.47	1430.82
620.82	1422.56
621.16	1415.23
621.51	1407.68
621.85	1400.11
622.20	1391.66
622.55	1383.36
622.89	1375.66
623.24	1368.08
623.59	1360.72
623.93	1353.28
624.28	1346.03
624.62	1338.57
624.97	1331.37
625.32	1324.49
625.66	1317.49
626.01	1310.38
626.35	1302.86
626.70	1295.13
627.04	1287.33
627.39	1279.57
627.73	1272.12
628.08	1265.34
628.43	1257.87
628.77	1250.47
629.12	1243.01
629.46	1235.87
629.81	1228.52
630.15	1221.19
630.50	1213.76
630.84	1205.44
631.19	1197.48
631.53	1190.02
631.88	1182.43
632.22	1174.88
632.57	1167.66
632.91	1160.13
633.26	1152.66
633.60	1145.31
633.95	1138.21
634.29	1131.31
634.64	1124.68
634.98	1117.39
635.32	1110.00
635.67	1103.53
636.01	1096.91
636.36	1090.01
636.70	1083.47
637.05	1076.91
637.39	1070.47
637.73	1063.85
638.08	1057.98
638.42	1051.98
638.77	1045.51
639.11	1038.83
639.45	1032.41
639.80	1025.69
640.14	1019.25
640.49	1012.63
640.83	1006.38
641.17	1000.10
641.52	993.66
641.86	987.14
642.20	981.27
642.55	975.18
642.89	968.67
643.23	962.13
643.58	956.26
643.92	950.09
644.26	943.94
644.61	937.89
644.95	931.90
645.29	925.37
645.64	918.73
645.98	912.40
646.32	906.69
646.66	900.64
647.01	894.91
647.35	889.14
647.69	883.41
648.04	877.79
648.38	872.00
648.72	866.08
649.06	860.10
649.41	854.23
649.75	848.18
650.09	842.20
650.43	836.40
650.78	830.32
651.12	824.34
651.46	818.61
651.80	812.85
652.14	807.52
652.49	802.20
652.83	796.97
653.17	791.21
653.51	785.46
653.85	780.14
654.20	774.42
654.54	768.40
654.88	762.68
655.22	756.86
655.56	751.21
655.90	745.69
656.25	740.39
656.59	735.01
656.93	729.93
657.27	724.75
657.61	719.36
657.95	714.27
658.29	709.26
658.64	704.06
658.98	698.79
659.32	693.35
659.66	688.08
660.00	682.70
660.34	677.82
660.68	672.91
661.02	667.82
661.36	663.13
661.70	658.68
662.05	654.33
662.39	650.03
662.73	645.51
663.07	641.18
663.41	636.76
663.75	632.31
664.09	627.74
664.43	623.36
664.77	619.18
665.11	614.94
665.45	610.79
665.79	606.65
666.13	602.49
666.47	598.38
666.81	594.28
667.15	590.19
667.49	586.26
667.83	582.47
668.17	578.58
668.51	574.49
668.85	570.49
669.19	566.66
669.53	562.85
669.87	559.00
670.21	555.24
670.55	551.54
670.89	548.08
671.23	544.70
671.57	541.22
671.91	537.70
672.25	534.15
672.58	530.66
672.92	527.30
673.26	524.19
673.60	521.02
673.94	517.91
674.28	515.03
674.62	512.07
674.96	508.93
675.30	505.97
675.64	503.06
675.97	500.32
676.31	497.44
676.65	494.44
676.99	491.76
677.33	488.94
677.67	486.18
678.01	483.16
678.34	480.19
678.68	477.32
679.02	474.51
679.36	471.80
679.70	469.05
680.04	466.28
680.37	463.36
680.71	460.64
681.05	458.02
681.39	455.26
681.73	452.65
682.06	450.12
682.40	447.58
682.74	445.09
683.08	442.47
683.42	439.90
683.75	437.45
684.09	434.84
684.43	432.32
684.77	429.85
685.10	427.50
685.44	425.15
685.78	422.86
686.12	420.63
686.45	418.32
686.79	415.97
687.13	413.80
687.46	411.65
687.80	409.43
688.14	407.20
688.48	405.18
688.81	402.87
689.15	400.73
689.49	398.60
689.82	396.47
690.16	394.44
690.50	392.45
690.83	390.46
691.17	388.56
691.51	386.70
691.84	384.86
692.18	382.89
692.52	380.89
692.85	378.96
693.19	377.05
693.52	375.23
693.86	373.47
694.20	371.69
694.53	369.88
694.87	368.02
695.21	366.23
695.54	364.39
695.88	362.72
696.21	360.98
696.55	359.29
696.88	357.64
697.22	355.96
697.56	354.33
697.89	352.70
698.23	351.08
698.56	349.48
698.90	347.87
699.23	346.24
699.57	344.72
699.90	343.19
700.24	341.69
700.58	340.14
700.91	338.65
701.25	337.21
701.58	335.89
701.92	334.55
702.25	333.17
702.59	331.81
702.92	330.46
703.26	329.13
703.59	327.85
703.93	326.67
704.26	325.44
704.60	324.10
704.93	322.82
705.26	321.59
705.60	320.41
705.93	319.26
706.27	318.24
706.60	317.22
706.94	316.12
707.27	314.95
707.61	313.89
707.94	312.87
708.27	311.77
708.61	310.67
708.94	309.68
709.28	308.66
709.61	307.71
709.94	306.77
710.28	305.76
710.61	304.77
710.95	303.68
711.28	302.74
711.61	301.85
711.95	300.91
712.28	299.97
712.61	298.97
712.95	298.05
713.28	297.16
713.61	296.23
713.95	295.34
714.28	294.50
714.61	293.62
714.95	292.74
715.28	291.88
715.61	291.02
715.95	290.15
716.28	289.32
716.61	288.52
716.95	287.70
717.28	286.94
717.61	286.16
717.94	285.44
718.28	284.65
718.61	283.94
718.94	283.28
719.27	282.59
719.61	281.93
719.94	281.26
720.27	280.53
720.60	279.84
720.94	279.21
721.27	278.64
721.60	278.10
721.93	277.52
722.27	276.98
722.60	276.38
722.93	275.80
723.26	275.27
723.59	274.68
723.93	274.15
724.26	273.61
724.59	273.07
724.92	272.56
725.25	272.08
725.59	271.57
725.92	271.03
726.25	270.49
726.58	270.02
726.91	269.49
727.24	269.03
727.57	268.55
727.91	268.00
728.24	267.51
728.57	267.01
728.90	266.54
729.23	266.03
729.56	265.64
729.89	265.18
730.22	264.68
730.55	264.21
730.89	263.73
731.22	263.30
731.55	262.83
731.88	262.38
732.21	261.90
732.54	261.46
732.87	261.05
733.20	260.67
733.53	260.29
733.86	259.93
734.19	259.59
734.52	259.20
734.85	258.92
735.18	258.50
735.51	258.15
735.84	257.75
736.17	257.40
736.50	256.98
736.83	256.74
737.16	256.46
737.49	256.11
737.82	255.75
738.15	255.42
738.48	255.10
738.81	254.79
739.14	254.48
739.47	254.16
739.80	253.86
740.13	253.58
740.46	253.23
740.79	252.89
741.12	252.56
741.45	252.27
741.78	251.95
742.11	251.70
742.44	251.40
742.77	251.12
743.10	250.82
743.43	250.52
743.75	250.11
744.08	249.94
744.41	249.67
744.74	249.41
745.07	249.12
745.40	248.87
745.73	248.63
746.06	248.35
746.39	248.07
746.71	247.77
747.04	247.50
747.37	247.27
747.70	247.03
748.03	246.78
748.36	246.57
748.68	246.33
749.01	246.07
749.34	245.83
749.67	245.62
750.00	245.40
750.33	245.28
750.65	245.11
750.98	244.78
751.31	244.59
751.64	244.40
751.97	244.25
752.29	244.05
752.62	243.82
752.95	243.63
753.28	243.39
753.60	243.21
753.93	243.03
754.26	242.82
754.59	242.61
754.91	242.37
755.24	242.18
755.57	241.99
755.90	241.81
756.22	241.61
756.55	241.40
756.88	241.22
757.20	240.96
757.53	240.74
757.86	240.52
758.19	240.38
758.51	240.19
758.84	239.98
759.17	239.81
759.49	239.64
759.82	239.53
760.15	239.39
760.47	239.24
760.80	239.06
761.13	238.93
761.45	238.76
761.78	238.61
762.11	238.43
762.43	238.26
762.76	238.10
763.08	237.99
763.41	237.87
763.74	237.74
764.06	237.59
764.39	237.48
764.71	237.33
765.04	237.18
765.37	237.04
765.69	236.90
766.02	236.77
766.34	236.63
766.67	236.47
767.00	236.39
767.32	236.33
767.65	236.26
767.97	236.13
768.30	236.00
768.62	235.92
768.95	235.82
769.27	235.70
769.60	235.60
769.92	235.46
770.25	235.36
770.57	235.22
770.90	235.12
771.22	235.00
771.55	234.92
771.87	234.83
772.20	234.74
772.52	234.72
772.85	234.73
773.17	234.64
773.50	234.51
773.82	234.42
774.15	234.27
774.47	234.16
774.80	234.04
775.12	233.98
775.45	233.90
775.77	233.84
776.09	233.78
776.42	233.68
776.74	233.63
777.07	233.54
777.39	233.47
777.72	233.41
778.04	233.34
778.36	233.29
778.69	233.23
779.01	233.18
779.33	233.05
779.66	232.89
779.98	232.81
780.31	232.78
780.63	232.73
780.95	232.68
781.28	232.61
781.60	232.56
781.92	232.51
782.25	232.45
782.57	232.38
782.89	232.31
783.22	232.25
783.54	232.19
783.86	232.13
784.19	232.09
784.51	232.08
784.83	232.02
785.16	231.95
785.48	231.89
785.80	231.86
786.12	231.82
786.45	231.76
786.77	231.77
787.09	231.69
787.42	231.63
787.74	231.59
788.06	231.56
788.38	231.53
788.71	231.48
789.03	231.45
789.35	231.41
789.67	231.38
789.99	231.37
790.32	231.33
790.64	231.29
790.96	231.30
791.28	231.21
791.61	231.16
791.93	231.12
792.25	231.09
792.57	231.11
792.89	231.03
793.21	231.04
793.54	230.99
793.86	230.98
794.18	230.94
794.50	230.89
794.82	230.83
795.14	230.80
795.47	230.77
795.79	230.72
796.11	230.68
796.43	230.64
796.75	230.63
797.07	230.59
797.39	230.57
797.71	230.48
798.04	230.42
798.36	230.42
798.68	230.40
799.00	230.37
799.32	230.25
799.64	230.24
799.96	230.19
800.28	230.15
800.60	230.10
800.92	230.09
801.24	230.06
801.56	230.04
801.89	229.99
802.21	229.96
802.53	229.91
802.85	229.90
803.17	229.88
803.49	229.81
803.81	229.73
804.13	229.69
804.45	229.68
804.77	229.67
805.09	229.60
805.41	229.58
805.73	229.51
806.05	229.47
806.37	229.43
806.69	229.35
807.01	229.33
807.33	229.29
807.65	229.20
807.97	229.19
808.28	229.13
808.60	229.11
808.92	229.07
809.24	229.12
809.56	229.09
809.88	229.01
810.20	229.00
810.52	229.02
810.84	228.95
811.16	228.91
811.48	228.89
811.80	228.90
812.12	228.87
812.43	228.90
812.75	228.88
813.07	228.85
813.39	228.85
813.71	228.82
814.03	228.81
814.35	228.81
814.67	228.77
814.98	228.75
815.30	228.69
815.62	228.67
815.94	228.58
816.26	228.58
816.58	228.56
816.89	228.55
817.21	228.53
817.53	228.52
817.85	228.49
818.17	228.46
818.48	228.43
818.80	228.42
819.12	228.35
819.44	228.34
819.76	228.30
820.07	228.26
820.39	228.22
820.71	228.21
821.03	228.19
821.34	228.18
821.66	228.20
821.98	228.21
822.30	228.22
822.61	228.26
822.93	228.20
823.25	228.19
823.57	228.13
823.88	228.11
824.20	228.15
824.52	228.16
824.83	228.17
825.15	228.12
825.47	228.07
825.79	228.07
826.10	228.07
826.42	228.09
826.74	228.08
827.05	228.09
827.37	228.11
827.69	228.13
828.00	228.12
828.32	228.11
828.64	228.13
828.95	228.15
829.27	228.12
829.58	228.13
829.90	228.14
830.22	228.16
830.53	228.14
830.85	228.09
831.17	228.05
831.48	228.05
831.80	228.04
832.11	228.07
832.43	228.07
832.75	228.05
833.06	228.09
833.38	228.10
833.69	228.08
834.01	228.08
834.32	228.04
834.64	228.03
834.96	228.04
835.27	228.01
835.59	227.99
835.90	227.99
836.22	227.98
836.53	227.96
836.85	227.98
837.16	228.07
837.48	228.10
837.79	228.17
838.11	228.15
838.42	228.17
838.74	228.17
839.05	228.13
839.37	228.12
839.68	228.04
840.00	228.01
840.31	228.02
840.63	227.99
840.94	227.98
841.26	227.93
841.57	227.90
841.88	227.90
842.20	227.86
842.51	227.83
842.83	227.83
843.14	227.90
843.46	227.91
843.77	227.87
844.08	227.85
844.40	227.75
844.71	227.75
845.03	227.72
845.34	227.69
845.65	227.70
845.97	227.67
846.28	227.66
846.60	227.67
846.91	227.66
847.22	227.65
847.54	227.67
847.85	227.69
848.16	227.67
848.48	227.64
848.79	227.65
849.10	227.65
849.42	227.61
849.73	227.54
850.04	227.49
850.36	227.43
850.67	227.41
850.98	227.43
851.30	227.42
851.61	227.42
851.92	227.40
852.23	227.42
852.55	227.43
852.86	227.43
853.17	227.41
853.49	227.43
853.80	227.42
854.11	227.41
854.42	227.41
854.74	227.38
855.05	227.40
855.36	227.34
855.67	227.35
855.99	227.34
856.30	227.43
856.61	227.43
856.92	227.42
857.23	227.43
857.55	227.41
857.86	227.39
858.17	227.46
858.48	227.47
858.79	227.43
859.11	227.44
859.42	227.43
859.73	227.43
860.04	227.40
860.35	227.40
860.66	227.38
860.98	227.35
861.29	227.37
861.60	227.34
861.91	227.38
862.22	227.35
862.53	227.33
862.84	227.24
863.16	227.25
863.47	227.24
863.78	227.22
864.09	227.22
864.40	227.23
864.71	227.18
865.02	227.19
865.33	227.18
865.64	227.15
865.95	227.17
866.27	227.20
866.58	227.20
866.89	227.18
867.20	227.20
867.51	227.18
867.82	227.20
868.13	227.24
868.44	227.22
868.75	227.25
869.06	227.28
869.37	227.26
869.68	227.23
869.99	227.25
870.30	227.26
870.61	227.27
870.92	227.29
871.23	227.26
871.54	227.25
871.85	227.27
872.16	227.32
872.47	227.30
872.78	227.27
873.09	227.28
873.40	227.27
873.71	227.27
874.02	227.30
874.33	227.28
874.64	227.24
874.95	227.27
875.26	227.25
875.56	227.21
875.87	227.20
876.18	227.23
876.49	227.36
876.80	227.33
877.11	227.33
877.42	227.30
877.73	227.36
878.04	227.35
878.35	227.36
878.66	227.34
878.96	227.34
879.27	227.29
879.58	227.29
879.89	227.29
880.20	227.31
880.51	227.30
880.82	227.26
881.12	227.28
881.43	227.26
881.74	227.22
882.05	227.25
882.36	227.27
882.67	227.28
882.97	227.14
883.28	227.16
883.59	227.13
883.90	227.15
884.21	227.11
884.51	227.09
884.82	227.06
885.13	227.06
885.44	227.06
885.74	227.09
886.05	227.12
886.36	227.10
886.67	227.06
886.98	227.10
887.28	227.15
887.59	227.16
887.90	227.14
888.20	227.15
888.51	227.15
888.82	227.12
889.13	227.10
889.43	227.18
889.74	227.16
890.05	227.15
890.35	227.14
890.66	227.17
890.97	227.18
891.28	227.18
891.58	227.18
891.89	227.14
892.20	227.10
892.50	227.06
892.81	227.08
893.12	227.06
893.42	227.01
893.73	226.97
894.04	226.95
894.34	226.98
894.65	226.98
894.95	226.94
895.26	226.96
895.57	227.01
895.87	226.94
896.18	226.93
896.48	226.93
896.79	226.95
897.10	226.90
897.40	226.88
897.71	226.90
898.01	226.86
898.32	226.86
898.63	226.88
898.93	226.89
899.24	226.90
899.54	226.90
899.85	226.92
900.15	226.93
900.46	226.93
900.76	226.93
901.07	226.92
901.38	226.95
901.68	226.94
901.99	226.89
902.29	226.88
902.60	226.88
902.90	226.89
903.21	226.90
903.51	226.92
903.82	226.94
904.12	226.92
904.43	226.93
904.73	226.97
905.03	226.98
905.34	227.09
905.64	227.04
905.95	227.04
906.25	227.00
906.56	226.98
906.86	226.98
907.17	226.96
907.47	226.97
907.77	226.95
908.08	226.90
908.38	226.89
908.69	226.90
908.99	226.92
909.30	226.95
909.60	226.92
909.90	226.91
910.21	226.90
910.51	226.88
910.81	226.91
911.12	226.90
911.42	226.91
911.73	226.79
912.03	226.80
912.33	226.81
912.64	226.83
912.94	226.82
913.24	226.81
913.55	226.78
913.85	226.78
914.15	226.79
914.46	226.82
914.76	226.81
915.06	226.79
915.37	226.75
915.67	226.72
915.97	226.70
916.27	226.67
916.58	226.65
916.88	226.63
917.18	226.60
917.49	226.68
917.79	226.68
918.09	226.71
918.39	226.74
918.70	226.76
919.00	226.71
919.30	226.77
919.60	226.75
919.91	226.76
920.21	226.75
920.51	226.76
920.81	226.74
921.12	226.75
921.42	226.72
921.72	226.74
922.02	226.75
922.32	226.80
922.63	226.82
922.93	226.87
923.23	226.90
923.53	226.91
923.83	226.80
924.13	226.80
924.44	226.77
924.74	226.80
925.04	226.83
925.34	226.86
925.64	226.83
925.94	226.84
926.24	226.91
926.55	226.92
926.85	226.93
927.15	226.95
927.45	226.98
927.75	227.02
928.05	227.03
928.35	227.01
928.65	227.02
928.95	227.02
929.26	226.99
929.56	227.02
929.86	227.04
930.16	227.06
930.46	227.05
930.76	227.07
931.06	227.00
931.36	226.96
931.66	226.98
931.96	227.01
932.26	226.98
932.56	226.93
932.86	226.94
933.16	226.91
933.46	226.93
933.76	226.88
934.06	226.90
934.36	226.93
934.66	226.94
934.96	226.92
935.26	226.95
935.56	226.94
935.86	226.93
936.16	226.92
936.46	226.91
936.76	226.92
937.06	226.88
937.36	226.87
937.66	226.88
937.96	226.86
938.26	226.82
938.56	226.84
938.86	226.87
939.16	226.87
939.46	226.91
939.76	226.91
940.06	226.95
940.35	226.91
940.65	226.87
940.95	226.87
941.25	226.85
941.55	226.82
941.85	226.81
942.15	226.82
942.45	226.83
942.75	226.84
943.04	226.83
943.34	226.86
943.64	226.88
943.94	226.86
944.24	226.87
944.54	226.90
944.84	226.92
945.13	226.90
945.43	226.88
945.73	226.87
946.03	226.86
946.33	226.84
946.62	226.80
946.92	226.81
947.22	226.83
947.52	226.80
947.82	226.82
948.11	226.82
948.41	226.83
948.71	226.80
949.01	226.82
949.31	226.80
949.60	226.82
949.90	226.83
950.20	226.82
950.50	226.80
950.79	226.78
951.09	226.75
951.39	226.73
951.69	226.72
951.98	226.74
952.28	226.72
952.58	226.73
952.87	226.78
953.17	226.78
953.47	226.77
953.76	226.79
954.06	226.76
954.36	226.75
954.66	226.70
954.95	226.73
955.25	226.71
955.55	226.73
955.84	226.69
956.14	226.66
956.44	226.68
956.73	226.66
957.03	226.66
957.32	226.68
957.62	226.67
957.92	226.68
958.21	226.67
958.51	226.79
958.81	226.76
959.10	226.76
959.40	226.77
959.69	226.78
959.99	226.79
960.29	226.78
960.58	226.79
960.88	226.81
961.17	226.80
961.47	226.80
961.76	226.78
962.06	226.80
962.36	226.78
962.65	226.77
962.95	226.79
963.24	226.76
963.54	226.78
963.83	226.79
964.13	226.78
964.42	226.74
964.72	226.68
965.01	226.73
965.31	226.73
965.60	226.71
965.90	226.78
966.19	226.74
966.49	226.74
966.78	226.74
967.08	226.77
967.37	226.74
967.67	226.75
967.96	226.80
968.26	226.80
968.55	226.84
968.85	226.88
969.14	226.92
969.43	226.96
969.73	226.96
970.02	226.99
970.32	226.97
970.61	226.97
970.91	226.92
971.20	226.88
971.49	226.83
971.79	226.86
972.08	226.77
972.38	226.81
972.67	226.81
972.96	226.87
973.26	226.85
973.55	226.87
973.85	226.86
974.14	226.82
974.43	226.83
974.73	226.81
975.02	226.75
975.31	226.70
975.61	226.68
975.90	226.68
976.19	226.66
976.49	226.71
976.78	226.73
977.07	226.75
977.37	226.74
977.66	226.76
977.95	226.74
978.24	226.72
978.54	226.77
978.83	226.76
979.12	226.71
979.42	226.69
979.71	226.68
980.00	226.67
980.29	226.67
980.59	226.68
980.88	226.71
981.17	226.73
981.46	226.74
981.76	226.76
982.05	226.77
982.34	226.79
982.63	226.76
982.93	226.74
983.22	226.78
983.51	226.81
983.80	226.83
984.09	226.87
984.39	226.90
984.68	226.85
984.97	226.85
985.26	226.86
985.55	226.88
985.85	226.88
986.14	226.91
986.43	226.92
986.72	226.87
987.01	226.85
987.30	226.85
987.59	226.88
987.89	226.88
988.18	226.84
988.47	226.80
988.76	226.80
989.05	226.84
989.34	226.79
989.63	226.82
989.92	226.83
990.22	226.77
990.51	226.77
990.80	226.76
991.09	226.80
991.38	226.81
991.67	226.77
991.96	226.76
992.25	226.75
992.54	226.77
992.83	226.80
993.12	226.77
993.41	226.78
993.70	226.81
993.99	226.82
994.28	226.85
994.58	226.84
994.87	226.84
995.16	226.80
995.45	226.78
995.74	226.72
996.03	226.72
996.32	226.78
996.61	226.82
996.90	226.84
997.19	226.84
997.48	226.85
997.77	226.86
998.06	226.85
998.34	226.84
998.63	226.85
998.92	226.86
999.21	226.89
999.50	226.90
999.79	226.84
1000.08	226.82
1000.37	226.82
1000.66	226.82
1000.95	226.87
1001.24	226.87
1001.53	226.89
1001.82	226.89
1002.11	226.89
1002.40	226.89
1002.68	226.89
1002.97	226.94
1003.26	226.91
1003.55	226.88
1003.84	226.92
1004.13	227.00
1004.42	227.00
1004.71	226.99
1004.99	226.99
1005.28	227.03
1005.57	227.02
1005.86	227.03
1006.15	227.03
1006.44	227.04
1006.72	227.03
1007.01	227.00
1007.30	227.02
1007.59	227.04
1007.88	227.06
1008.17	227.02
1008.45	227.00
1008.74	226.96
1009.03	226.91
1009.32	226.90
1009.60	226.91
1009.89	226.88
1010.18	226.81
1010.47	226.82
1010.76	226.81
1011.04	226.79
1011.33	226.76
1011.62	226.79
1011.91	226.79
1012.19	226.86
1012.48	226.85
1012.77	226.90
1013.05	226.94
1013.34	226.91
1013.63	226.89
1013.92	226.90
1014.20	226.92
1014.49	226.90
1014.78	226.89
1015.06	226.84
1015.35	226.86
1015.64	226.85
1015.92	226.86
1016.21	226.84
1016.50	226.84
1016.78	226.87
1017.07	226.87
1017.36	226.85
1017.64	226.82
1017.93	226.83
1018.22	226.75
1018.50	226.78
1018.79	226.75
1019.08	226.72
1019.36	226.71
1019.65	226.68
1019.93	226.72
1020.22	226.72
1020.51	226.79
1020.79	226.80
1021.08	226.58
1021.36	227.08
1021.65	226.78
1021.94	226.84
1022.22	226.31
1022.51	226.47
1022.79	227.65
1023.08	226.84
1023.36	227.78
1023.65	226.84
>>>>>End Processed Spectral Data<<<<<
