SpectraSuite Data File
++++++++++++++++++++++++++++++++++++
Date: Fri Feb 01 16:25:58 EST 2013
User: group
Dark Spectrum Present: No
Reference Spectrum Present: No
Number of Sampled Component Spectra: 1
Spectrometers: USB2E7196
Integration Time (usec): 35000 (USB2E7196)
Spectra Averaged: 100 (USB2E7196)
Boxcar Smoothing: 10 (USB2E7196)
Correct for Electrical Dark: No (USB2E7196)
Strobe/Lamp Enabled: No (USB2E7196)
Correct for Detector Non-linearity: No (USB2E7196)
Correct for Stray Light: No (USB2E7196)
Number of Pixels in Processed Spectrum: 2048
>>>>>Begin Processed Spectral Data<<<<<
339.09	0.00
339.48	213.95
339.86	215.76
340.24	217.23
340.63	218.33
341.01	221.24
341.39	220.78
341.78	222.24
342.16	223.70
342.54	223.81
342.93	212.44
343.31	223.16
343.69	223.71
344.07	224.15
344.46	224.55
344.84	224.94
345.22	225.18
345.60	225.42
345.99	225.60
346.37	225.73
346.75	225.83
347.13	225.90
347.52	225.91
347.90	225.99
348.28	226.02
348.66	226.04
349.05	226.05
349.43	226.09
349.81	226.12
350.19	226.16
350.57	226.22
350.96	226.29
351.34	226.39
351.72	226.46
352.10	226.55
352.48	226.63
352.87	226.64
353.25	226.70
353.63	226.80
354.01	226.87
354.39	226.92
354.77	227.01
355.15	227.08
355.54	227.17
355.92	227.18
356.30	227.24
356.68	227.40
357.06	227.46
357.44	227.55
357.82	227.62
358.20	227.69
358.58	227.76
358.97	227.80
359.35	227.86
359.73	227.93
360.11	228.01
360.49	228.10
360.87	228.19
361.25	228.23
361.63	228.29
362.01	228.33
362.39	228.37
362.77	228.40
363.15	228.43
363.53	228.43
363.91	228.44
364.29	228.47
364.67	228.40
365.05	228.44
365.43	228.45
365.81	228.50
366.19	228.59
366.57	228.62
366.95	228.67
367.33	228.66
367.71	228.66
368.09	228.64
368.47	228.58
368.85	228.53
369.23	228.56
369.61	228.49
369.99	228.48
370.37	228.48
370.75	228.49
371.13	228.42
371.51	228.37
371.89	228.37
372.27	228.33
372.65	228.32
373.03	228.26
373.41	228.21
373.78	228.12
374.16	228.02
374.54	227.95
374.92	227.84
375.30	227.79
375.68	227.71
376.06	227.67
376.44	227.59
376.82	227.56
377.19	227.48
377.57	227.42
377.95	227.31
378.33	227.22
378.71	227.12
379.09	227.10
379.47	227.05
379.84	226.96
380.22	226.88
380.60	226.77
380.98	226.69
381.36	226.62
381.73	226.56
382.11	226.49
382.49	226.45
382.87	226.39
383.25	226.34
383.62	226.39
384.00	226.32
384.38	226.28
384.76	226.23
385.13	226.20
385.51	226.13
385.89	226.12
386.27	226.08
386.64	226.05
387.02	226.01
387.40	225.98
387.78	225.95
388.15	225.90
388.53	225.85
388.91	225.83
389.29	225.77
389.66	225.73
390.04	225.70
390.42	225.66
390.79	225.67
391.17	225.63
391.55	225.50
391.92	225.50
392.30	225.50
392.68	225.47
393.05	225.45
393.43	225.48
393.81	225.46
394.18	225.43
394.56	225.43
394.94	225.47
395.31	225.45
395.69	225.52
396.06	225.55
396.44	225.60
396.82	225.63
397.19	225.73
397.57	225.78
397.95	225.82
398.32	225.84
398.70	225.86
399.07	225.94
399.45	225.97
399.82	226.02
400.20	226.07
400.58	226.13
400.95	226.14
401.33	226.24
401.70	226.40
402.08	226.51
402.45	226.60
402.83	226.68
403.20	226.81
403.58	226.85
403.95	226.97
404.33	227.07
404.71	227.17
405.08	227.35
405.46	227.44
405.83	227.58
406.21	227.72
406.58	227.87
406.96	228.03
407.33	228.24
407.70	228.44
408.08	228.73
408.45	228.96
408.83	229.19
409.20	229.41
409.58	229.60
409.95	229.85
410.33	230.12
410.70	230.39
411.08	230.67
411.45	231.01
411.82	231.33
412.20	231.70
412.57	232.14
412.95	232.42
413.32	232.91
413.69	233.32
414.07	233.76
414.44	234.26
414.82	234.74
415.19	235.26
415.56	235.82
415.94	236.35
416.31	236.98
416.68	237.64
417.06	238.30
417.43	238.95
417.81	239.73
418.18	240.50
418.55	241.32
418.93	242.19
419.30	243.09
419.67	243.99
420.04	244.96
420.42	245.94
420.79	247.12
421.16	248.23
421.54	249.48
421.91	250.68
422.28	251.92
422.66	253.26
423.03	254.56
423.40	255.87
423.77	257.24
424.15	258.65
424.52	260.15
424.89	261.77
425.26	263.37
425.64	264.78
426.01	266.38
426.38	268.00
426.75	269.66
427.13	271.35
427.50	273.19
427.87	275.04
428.24	276.93
428.61	278.65
428.99	280.58
429.36	282.63
429.73	284.72
430.10	286.73
430.47	288.81
430.85	290.93
431.22	293.20
431.59	295.60
431.96	297.90
432.33	300.34
432.70	302.73
433.08	305.51
433.45	308.16
433.82	310.72
434.19	313.64
434.56	316.48
434.93	319.14
435.30	321.73
435.68	324.61
436.05	327.41
436.42	330.21
436.79	332.69
437.16	335.37
437.53	338.16
437.90	340.96
438.27	343.65
438.64	346.46
439.01	348.99
439.38	351.16
439.75	353.30
440.13	355.76
440.50	358.06
440.87	359.86
441.24	361.74
441.61	363.90
441.98	365.37
442.35	367.12
442.72	368.93
443.09	370.74
443.46	371.77
443.83	372.35
444.20	372.85
444.57	373.71
444.94	374.02
445.31	374.37
445.68	374.73
446.05	374.78
446.42	374.38
446.79	373.95
447.16	373.53
447.53	373.21
447.90	372.06
448.27	370.91
448.64	369.35
449.01	368.28
449.37	366.32
449.74	364.41
450.11	362.20
450.48	359.78
450.85	357.22
451.22	355.05
451.59	353.06
451.96	351.10
452.33	348.49
452.70	346.10
453.07	343.26
453.43	340.36
453.80	337.66
454.17	335.00
454.54	332.47
454.91	329.81
455.28	327.12
455.65	324.64
456.02	322.23
456.38	320.06
456.75	317.37
457.12	315.11
457.49	312.93
457.86	310.79
458.23	308.94
458.59	306.90
458.96	304.84
459.33	302.98
459.70	301.15
460.07	299.64
460.43	297.97
460.80	296.36
461.17	294.92
461.54	293.42
461.91	292.03
462.27	290.59
462.64	289.33
463.01	287.97
463.38	286.70
463.74	285.31
464.11	284.18
464.48	283.23
464.85	282.16
465.21	281.31
465.58	280.39
465.95	279.29
466.32	278.42
466.68	277.54
467.05	276.65
467.42	275.76
467.78	274.85
468.15	273.96
468.52	273.32
468.88	272.46
469.25	271.70
469.62	271.08
469.98	270.44
470.35	269.84
470.72	269.26
471.08	268.66
471.45	268.14
471.82	267.61
472.18	267.00
472.55	266.58
472.92	266.02
473.28	265.60
473.65	265.15
474.02	264.73
474.38	264.36
474.75	264.03
475.11	263.70
475.48	263.48
475.85	263.26
476.21	263.02
476.58	262.88
476.94	262.72
477.31	262.52
477.67	262.35
478.04	262.24
478.41	262.22
478.77	262.21
479.14	262.14
479.50	262.19
479.87	262.26
480.23	262.39
480.60	262.48
480.96	262.57
481.33	262.82
481.69	263.03
482.06	263.25
482.42	263.49
482.79	263.74
483.15	264.06
483.52	264.47
483.88	264.84
484.25	265.24
484.61	265.68
484.98	266.18
485.34	266.77
485.71	267.38
486.07	267.98
486.44	268.54
486.80	269.28
487.17	270.00
487.53	270.77
487.90	271.58
488.26	272.51
488.62	273.48
488.99	274.42
489.35	275.42
489.72	276.54
490.08	277.77
490.44	278.99
490.81	280.33
491.17	281.68
491.54	283.20
491.90	284.71
492.26	286.38
492.63	288.15
492.99	289.91
493.36	291.82
493.72	293.88
494.08	296.02
494.45	298.24
494.81	300.61
495.17	303.08
495.54	305.66
495.90	308.35
496.26	311.18
496.63	314.13
496.99	317.31
497.35	320.59
497.72	323.96
498.08	327.52
498.44	331.21
498.80	335.16
499.17	339.18
499.53	343.38
499.89	347.76
500.26	352.19
500.62	356.93
500.98	361.90
501.34	366.96
501.71	372.30
502.07	377.75
502.43	383.37
502.79	389.21
503.16	395.27
503.52	401.55
503.88	407.93
504.24	414.55
504.60	421.42
504.97	428.54
505.33	435.86
505.69	443.51
506.05	451.36
506.41	459.23
506.78	467.36
507.14	475.78
507.50	484.43
507.86	493.55
508.22	502.76
508.59	511.89
508.95	521.53
509.31	531.37
509.67	541.52
510.03	551.84
510.39	562.34
510.75	573.13
511.12	584.07
511.48	595.39
511.84	606.87
512.20	618.43
512.56	630.36
512.92	642.60
513.28	654.95
513.64	667.32
514.00	679.98
514.37	692.99
514.73	706.03
515.09	719.07
515.45	732.31
515.81	745.86
516.17	759.90
516.53	773.96
516.89	788.11
517.25	802.20
517.61	816.56
517.97	831.11
518.33	845.54
518.69	860.28
519.05	875.24
519.41	890.35
519.77	905.83
520.13	921.33
520.49	936.63
520.85	951.97
521.21	967.64
521.57	983.81
521.93	999.47
522.29	1015.83
522.65	1032.07
523.01	1048.21
523.37	1064.14
523.73	1080.24
524.09	1096.26
524.45	1112.48
524.81	1129.09
525.17	1145.89
525.53	1162.57
525.89	1179.39
526.25	1196.17
526.61	1212.50
526.97	1229.22
527.33	1245.68
527.68	1262.04
528.04	1278.43
528.40	1295.04
528.76	1311.99
529.12	1328.57
529.48	1345.38
529.84	1361.32
530.20	1377.85
530.56	1394.79
530.91	1412.29
531.27	1428.86
531.63	1445.22
531.99	1461.70
532.35	1477.65
532.71	1493.42
533.07	1509.70
533.42	1525.45
533.78	1541.33
534.14	1557.49
534.50	1572.70
534.86	1588.34
535.21	1603.50
535.57	1619.32
535.93	1634.65
536.29	1649.37
536.65	1664.16
537.00	1678.77
537.36	1694.04
537.72	1708.59
538.08	1722.93
538.44	1736.49
538.79	1750.42
539.15	1763.98
539.51	1777.56
539.87	1791.73
540.22	1805.35
540.58	1818.92
540.94	1832.14
541.29	1844.98
541.65	1857.46
542.01	1870.65
542.37	1882.86
542.72	1895.18
543.08	1906.82
543.44	1919.16
543.79	1930.37
544.15	1941.43
544.51	1952.99
544.87	1963.82
545.22	1974.41
545.58	1984.46
545.94	1994.14
546.29	2003.85
546.65	2013.68
547.01	2022.98
547.36	2031.60
547.72	2040.03
548.07	2047.83
548.43	2055.99
548.79	2063.99
549.14	2071.57
549.50	2078.77
549.86	2086.41
550.21	2093.68
550.57	2100.91
550.92	2107.36
551.28	2114.35
551.64	2121.35
551.99	2127.84
552.35	2133.97
552.70	2140.17
553.06	2146.36
553.41	2152.66
553.77	2158.75
554.13	2164.78
554.48	2170.77
554.84	2176.26
555.19	2181.42
555.55	2186.59
555.90	2191.07
556.26	2196.03
556.61	2200.65
556.97	2205.02
557.32	2209.24
557.68	2213.33
558.03	2217.69
558.39	2221.45
558.74	2226.07
559.10	2230.01
559.45	2233.69
559.81	2237.93
560.16	2241.79
560.52	2244.95
560.87	2248.29
561.23	2250.86
561.58	2253.86
561.94	2256.54
562.29	2258.94
562.64	2261.81
563.00	2264.42
563.35	2267.88
563.71	2270.80
564.06	2274.29
564.42	2277.20
564.77	2279.62
565.12	2281.87
565.48	2283.77
565.83	2285.62
566.19	2286.93
566.54	2287.68
566.89	2288.78
567.25	2289.38
567.60	2290.56
567.96	2292.34
568.31	2293.28
568.66	2294.45
569.02	2294.99
569.37	2295.25
569.72	2296.04
570.08	2296.09
570.43	2296.24
570.78	2295.75
571.14	2294.41
571.49	2292.99
571.84	2292.71
572.20	2291.72
572.55	2290.79
572.90	2289.17
573.26	2288.00
573.61	2286.48
573.96	2285.01
574.31	2282.16
574.67	2279.37
575.02	2275.97
575.37	2272.49
575.72	2268.74
576.08	2265.45
576.43	2262.24
576.78	2258.72
577.13	2255.72
577.49	2252.84
577.84	2249.24
578.19	2245.61
578.54	2242.05
578.90	2237.90
579.25	2232.34
579.60	2227.36
579.95	2222.49
580.30	2217.62
580.66	2212.39
581.01	2207.46
581.36	2202.54
581.71	2198.38
582.06	2193.82
582.42	2189.40
582.77	2184.20
583.12	2179.77
583.47	2175.12
583.82	2170.16
584.17	2164.90
584.53	2159.40
584.88	2153.66
585.23	2148.00
585.58	2142.49
585.93	2137.15
586.28	2132.32
586.63	2127.36
586.98	2122.54
587.34	2117.85
587.69	2112.95
588.04	2107.75
588.39	2102.05
588.74	2095.69
589.09	2089.63
589.44	2082.98
589.79	2076.98
590.14	2071.40
590.49	2064.96
590.84	2058.62
591.19	2052.64
591.54	2046.34
591.89	2039.10
592.25	2032.43
592.60	2025.37
592.95	2017.93
593.30	2010.56
593.65	2003.12
594.00	1996.05
594.35	1988.63
594.70	1980.64
595.05	1973.51
595.40	1966.36
595.75	1958.94
596.10	1952.70
596.45	1946.09
596.80	1939.86
597.15	1933.34
597.50	1926.34
597.85	1919.88
598.19	1913.25
598.54	1906.22
598.89	1899.53
599.24	1893.64
599.59	1886.90
599.94	1880.69
600.29	1874.40
600.64	1867.79
600.99	1860.41
601.34	1853.72
601.69	1846.96
602.04	1840.20
602.39	1832.96
602.74	1826.01
603.08	1819.40
603.43	1812.73
603.78	1805.32
604.13	1798.15
604.48	1790.78
604.83	1783.91
605.18	1776.87
605.53	1768.98
605.87	1761.09
606.22	1753.87
606.57	1745.99
606.92	1738.71
607.27	1731.60
607.62	1724.65
607.96	1717.45
608.31	1710.80
608.66	1703.16
609.01	1695.61
609.36	1687.92
609.70	1679.86
610.05	1671.83
610.40	1664.05
610.75	1655.69
611.10	1648.06
611.44	1639.72
611.79	1631.83
612.14	1623.15
612.49	1614.07
612.83	1605.74
613.18	1597.51
613.53	1589.37
613.88	1580.77
614.22	1572.54
614.57	1563.87
614.92	1555.81
615.27	1548.25
615.61	1539.94
615.96	1531.82
616.31	1524.14
616.65	1516.85
617.00	1509.25
617.35	1501.57
617.70	1493.27
618.04	1484.78
618.39	1476.54
618.74	1469.00
619.08	1460.66
619.43	1453.09
619.78	1446.15
620.12	1438.88
620.47	1431.39
620.82	1423.23
621.16	1415.94
621.51	1408.36
621.85	1400.79
622.20	1392.34
622.55	1383.98
622.89	1376.16
623.24	1368.62
623.59	1361.26
623.93	1353.76
624.28	1346.62
624.62	1339.10
624.97	1331.90
625.32	1325.05
625.66	1318.05
626.01	1310.79
626.35	1303.37
626.70	1295.69
627.04	1288.00
627.39	1280.19
627.73	1272.67
628.08	1265.78
628.43	1258.34
628.77	1250.99
629.12	1243.42
629.46	1236.24
629.81	1228.77
630.15	1221.50
630.50	1214.10
630.84	1205.94
631.19	1198.06
631.53	1190.45
631.88	1182.93
632.22	1175.31
632.57	1168.05
632.91	1160.48
633.26	1153.11
633.60	1145.64
633.95	1138.43
634.29	1131.39
634.64	1124.71
634.98	1117.41
635.32	1110.27
635.67	1103.62
636.01	1096.88
636.36	1090.08
636.70	1083.57
637.05	1077.03
637.39	1070.43
637.73	1063.89
638.08	1057.88
638.42	1051.83
638.77	1045.47
639.11	1038.93
639.45	1032.63
639.80	1025.93
640.14	1019.62
640.49	1013.11
640.83	1006.84
641.17	1000.58
641.52	994.20
641.86	987.67
642.20	981.78
642.55	975.46
642.89	969.09
643.23	962.61
643.58	956.86
643.92	950.64
644.26	944.57
644.61	938.60
644.95	932.58
645.29	926.05
645.64	919.29
645.98	912.86
646.32	907.03
646.66	900.88
647.01	895.11
647.35	889.31
647.69	883.45
648.04	877.92
648.38	872.13
648.72	866.13
649.06	860.13
649.41	854.34
649.75	848.34
650.09	842.35
650.43	836.56
650.78	830.35
651.12	824.39
651.46	818.65
651.80	812.96
652.14	807.52
652.49	802.13
652.83	796.96
653.17	791.27
653.51	785.54
653.85	780.16
654.20	774.50
654.54	768.47
654.88	762.66
655.22	756.74
655.56	751.06
655.90	745.63
656.25	740.38
656.59	734.97
656.93	729.89
657.27	724.69
657.61	719.24
657.95	714.19
658.29	709.13
658.64	703.88
658.98	698.53
659.32	693.05
659.66	687.88
660.00	682.54
660.34	677.62
660.68	672.68
661.02	667.71
661.36	663.00
661.70	658.49
662.05	654.21
662.39	649.88
662.73	645.45
663.07	641.06
663.41	636.60
663.75	632.13
664.09	627.61
664.43	623.21
664.77	619.07
665.11	614.80
665.45	610.68
665.79	606.60
666.13	602.48
666.47	598.42
666.81	594.24
667.15	590.14
667.49	586.25
667.83	582.42
668.17	578.39
668.51	574.26
668.85	570.32
669.19	566.47
669.53	562.64
669.87	558.78
670.21	555.13
670.55	551.49
670.89	548.02
671.23	544.54
671.57	541.07
671.91	537.53
672.25	534.00
672.58	530.41
672.92	526.98
673.26	523.83
673.60	520.70
673.94	517.62
674.28	514.68
674.62	511.66
674.96	508.55
675.30	505.68
675.64	502.79
675.97	499.92
676.31	497.07
676.65	494.18
676.99	491.39
677.33	488.42
677.67	485.59
678.01	482.60
678.34	479.57
678.68	476.68
679.02	473.86
679.36	471.10
679.70	468.38
680.04	465.63
680.37	462.68
680.71	459.86
681.05	457.22
681.39	454.51
681.73	451.84
682.06	449.33
682.40	446.76
682.74	444.23
683.08	441.70
683.42	439.05
683.75	436.53
684.09	434.02
684.43	431.61
684.77	429.22
685.10	426.87
685.44	424.65
685.78	422.36
686.12	420.12
686.45	417.82
686.79	415.55
687.13	413.36
687.46	411.22
687.80	409.05
688.14	406.82
688.48	404.73
688.81	402.52
689.15	400.39
689.49	398.25
689.82	396.17
690.16	394.10
690.50	392.15
690.83	390.19
691.17	388.16
691.51	386.21
691.84	384.34
692.18	382.39
692.52	380.34
692.85	378.39
693.19	376.45
693.52	374.61
693.86	372.77
694.20	370.95
694.53	369.16
694.87	367.27
695.21	365.45
695.54	363.67
695.88	361.97
696.21	360.23
696.55	358.55
696.88	356.82
697.22	355.15
697.56	353.57
697.89	351.87
698.23	350.32
698.56	348.69
698.90	347.07
699.23	345.40
699.57	343.83
699.90	342.34
700.24	340.83
700.58	339.34
700.91	337.81
701.25	336.40
701.58	335.05
701.92	333.69
702.25	332.33
702.59	330.94
702.92	329.58
703.26	328.26
703.59	326.99
703.93	325.85
704.26	324.65
704.60	323.30
704.93	322.03
705.26	320.80
705.60	319.64
705.93	318.51
706.27	317.48
706.60	316.41
706.94	315.32
707.27	314.21
707.61	313.16
707.94	312.19
708.27	311.08
708.61	310.01
708.94	309.04
709.28	308.06
709.61	307.11
709.94	306.18
710.28	305.17
710.61	304.21
710.95	303.11
711.28	302.17
711.61	301.24
711.95	300.37
712.28	299.37
712.61	298.42
712.95	297.50
713.28	296.61
713.61	295.78
713.95	294.87
714.28	294.01
714.61	293.15
714.95	292.29
715.28	291.44
715.61	290.54
715.95	289.67
716.28	288.84
716.61	288.01
716.95	287.19
717.28	286.41
717.61	285.64
717.94	284.90
718.28	284.10
718.61	283.36
718.94	282.64
719.27	282.01
719.61	281.35
719.94	280.69
720.27	280.01
720.60	279.33
720.94	278.71
721.27	278.14
721.60	277.56
721.93	276.95
722.27	276.45
722.60	275.91
722.93	275.37
723.26	274.85
723.59	274.27
723.93	273.71
724.26	273.17
724.59	272.56
724.92	272.05
725.25	271.55
725.59	271.01
725.92	270.49
726.25	269.98
726.58	269.46
726.91	268.92
727.24	268.48
727.57	268.00
727.91	267.46
728.24	266.95
728.57	266.44
728.90	266.03
729.23	265.48
729.56	265.06
729.89	264.58
730.22	264.09
730.55	263.66
730.89	263.20
731.22	262.76
731.55	262.36
731.88	261.91
732.21	261.50
732.54	261.11
732.87	260.71
733.20	260.31
733.53	259.92
733.86	259.56
734.19	259.10
734.52	258.70
734.85	258.43
735.18	258.03
735.51	257.66
735.84	257.25
736.17	256.92
736.50	256.49
736.83	256.24
737.16	255.92
737.49	255.57
737.82	255.22
738.15	254.89
738.48	254.56
738.81	254.23
739.14	253.89
739.47	253.58
739.80	253.25
740.13	252.92
740.46	252.59
740.79	252.25
741.12	251.97
741.45	251.67
741.78	251.32
742.11	251.03
742.44	250.70
742.77	250.42
743.10	250.12
743.43	249.83
743.75	249.42
744.08	249.29
744.41	249.00
744.74	248.72
745.07	248.48
745.40	248.25
745.73	248.04
746.06	247.77
746.39	247.50
746.71	247.24
747.04	246.99
747.37	246.72
747.70	246.48
748.03	246.25
748.36	246.03
748.68	245.78
749.01	245.54
749.34	245.35
749.67	245.10
750.00	244.86
750.33	244.71
750.65	244.51
750.98	244.14
751.31	243.92
751.64	243.73
751.97	243.56
752.29	243.35
752.62	243.11
752.95	242.89
753.28	242.65
753.60	242.44
753.93	242.26
754.26	242.13
754.59	241.94
754.91	241.70
755.24	241.52
755.57	241.35
755.90	241.16
756.22	240.94
756.55	240.77
756.88	240.57
757.20	240.28
757.53	240.08
757.86	239.89
758.19	239.75
758.51	239.60
758.84	239.37
759.17	239.16
759.49	238.99
759.82	238.87
760.15	238.76
760.47	238.57
760.80	238.40
761.13	238.24
761.45	238.08
761.78	237.96
762.11	237.83
762.43	237.67
762.76	237.57
763.08	237.47
763.41	237.33
763.74	237.19
764.06	237.09
764.39	236.96
764.71	236.85
765.04	236.67
765.37	236.50
765.69	236.36
766.02	236.22
766.34	236.09
766.67	235.92
767.00	235.80
767.32	235.76
767.65	235.68
767.97	235.54
768.30	235.44
768.62	235.30
768.95	235.13
769.27	235.01
769.60	234.86
769.92	234.72
770.25	234.59
770.57	234.52
770.90	234.45
771.22	234.35
771.55	234.27
771.87	234.20
772.20	234.10
772.52	234.06
772.85	234.07
773.17	233.96
773.50	233.86
773.82	233.72
774.15	233.58
774.47	233.45
774.80	233.32
775.12	233.22
775.45	233.17
775.77	233.13
776.09	233.05
776.42	232.96
776.74	232.89
777.07	232.80
777.39	232.70
777.72	232.56
778.04	232.52
778.36	232.39
778.69	232.33
779.01	232.29
779.33	232.15
779.66	232.01
779.98	231.93
780.31	231.84
780.63	231.83
780.95	231.77
781.28	231.71
781.60	231.66
781.92	231.60
782.25	231.52
782.57	231.44
782.89	231.33
783.22	231.27
783.54	231.19
783.86	231.17
784.19	231.09
784.51	231.07
784.83	230.99
785.16	230.92
785.48	230.82
785.80	230.77
786.12	230.75
786.45	230.72
786.77	230.69
787.09	230.64
787.42	230.56
787.74	230.50
788.06	230.48
788.38	230.44
788.71	230.37
789.03	230.32
789.35	230.28
789.67	230.27
789.99	230.22
790.32	230.16
790.64	230.14
790.96	230.18
791.28	230.14
791.61	230.09
791.93	230.06
792.25	230.02
792.57	230.02
792.89	229.94
793.21	229.88
793.54	229.83
793.86	229.81
794.18	229.78
794.50	229.78
794.82	229.73
795.14	229.71
795.47	229.70
795.79	229.68
796.11	229.65
796.43	229.63
796.75	229.58
797.07	229.55
797.39	229.52
797.71	229.42
798.04	229.38
798.36	229.31
798.68	229.31
799.00	229.32
799.32	229.28
799.64	229.29
799.96	229.27
800.28	229.27
800.60	229.25
800.92	229.23
801.24	229.16
801.56	229.18
801.89	229.14
802.21	229.09
802.53	229.06
802.85	229.05
803.17	229.04
803.49	229.01
803.81	228.97
804.13	228.94
804.45	228.93
804.77	228.93
805.09	228.92
805.41	228.89
805.73	228.80
806.05	228.74
806.37	228.72
806.69	228.69
807.01	228.68
807.33	228.63
807.65	228.57
807.97	228.62
808.28	228.55
808.60	228.54
808.92	228.51
809.24	228.55
809.56	228.49
809.88	228.44
810.20	228.43
810.52	228.47
810.84	228.41
811.16	228.39
811.48	228.37
811.80	228.39
812.12	228.35
812.43	228.38
812.75	228.34
813.07	228.30
813.39	228.23
813.71	228.17
814.03	228.13
814.35	228.08
814.67	227.98
814.98	227.95
815.30	227.94
815.62	227.90
815.94	227.80
816.26	227.82
816.58	227.76
816.89	227.78
817.21	227.71
817.53	227.70
817.85	227.65
818.17	227.58
818.48	227.53
818.80	227.55
819.12	227.50
819.44	227.49
819.76	227.44
820.07	227.43
820.39	227.39
820.71	227.41
821.03	227.40
821.34	227.38
821.66	227.37
821.98	227.34
822.30	227.34
822.61	227.39
822.93	227.31
823.25	227.33
823.57	227.29
823.88	227.34
824.20	227.31
824.52	227.32
824.83	227.34
825.15	227.29
825.47	227.22
825.79	227.22
826.10	227.22
826.42	227.24
826.74	227.26
827.05	227.27
827.37	227.26
827.69	227.27
828.00	227.28
828.32	227.29
828.64	227.27
828.95	227.30
829.27	227.24
829.58	227.28
829.90	227.27
830.22	227.27
830.53	227.22
830.85	227.19
831.17	227.18
831.48	227.15
831.80	227.17
832.11	227.19
832.43	227.15
832.75	227.12
833.06	227.13
833.38	227.11
833.69	227.11
834.01	227.11
834.32	227.08
834.64	227.08
834.96	227.06
835.27	227.08
835.59	227.03
835.90	227.03
836.22	227.00
836.53	226.99
836.85	226.97
837.16	227.06
837.48	227.08
837.79	227.10
838.11	227.12
838.42	227.09
838.74	227.09
839.05	227.10
839.37	227.12
839.68	227.07
840.00	227.09
840.31	227.10
840.63	227.08
840.94	227.09
841.26	227.10
841.57	227.10
841.88	227.10
842.20	227.11
842.51	227.08
842.83	227.11
843.14	227.18
843.46	227.17
843.77	227.12
844.08	227.12
844.40	227.10
844.71	227.04
845.03	227.07
845.34	227.06
845.65	227.04
845.97	227.04
846.28	227.06
846.60	227.03
846.91	226.95
847.22	226.94
847.54	226.93
847.85	226.88
848.16	226.87
848.48	226.85
848.79	226.85
849.10	226.89
849.42	226.86
849.73	226.75
850.04	226.74
850.36	226.70
850.67	226.70
850.98	226.66
851.30	226.70
851.61	226.68
851.92	226.68
852.23	226.68
852.55	226.65
852.86	226.64
853.17	226.63
853.49	226.65
853.80	226.64
854.11	226.68
854.42	226.66
854.74	226.64
855.05	226.63
855.36	226.60
855.67	226.57
855.99	226.56
856.30	226.68
856.61	226.69
856.92	226.68
857.23	226.67
857.55	226.68
857.86	226.68
858.17	226.68
858.48	226.62
858.79	226.65
859.11	226.69
859.42	226.67
859.73	226.67
860.04	226.68
860.35	226.66
860.66	226.60
860.98	226.59
861.29	226.61
861.60	226.57
861.91	226.57
862.22	226.54
862.53	226.54
862.84	226.43
863.16	226.44
863.47	226.40
863.78	226.36
864.09	226.35
864.40	226.34
864.71	226.34
865.02	226.37
865.33	226.34
865.64	226.32
865.95	226.33
866.27	226.36
866.58	226.36
866.89	226.36
867.20	226.36
867.51	226.39
867.82	226.38
868.13	226.43
868.44	226.45
868.75	226.48
869.06	226.48
869.37	226.50
869.68	226.45
869.99	226.48
870.30	226.48
870.61	226.52
870.92	226.51
871.23	226.49
871.54	226.52
871.85	226.54
872.16	226.58
872.47	226.55
872.78	226.49
873.09	226.50
873.40	226.51
873.71	226.53
874.02	226.53
874.33	226.52
874.64	226.49
874.95	226.49
875.26	226.45
875.56	226.47
875.87	226.47
876.18	226.49
876.49	226.60
876.80	226.63
877.11	226.59
877.42	226.58
877.73	226.59
878.04	226.59
878.35	226.59
878.66	226.56
878.96	226.57
879.27	226.63
879.58	226.66
879.89	226.63
880.20	226.66
880.51	226.70
880.82	226.73
881.12	226.76
881.43	226.75
881.74	226.79
882.05	226.73
882.36	226.74
882.67	226.74
882.97	226.63
883.28	226.61
883.59	226.62
883.90	226.63
884.21	226.63
884.51	226.60
884.82	226.60
885.13	226.61
885.44	226.59
885.74	226.57
886.05	226.55
886.36	226.56
886.67	226.51
886.98	226.54
887.28	226.53
887.59	226.51
887.90	226.51
888.20	226.48
888.51	226.52
888.82	226.44
889.13	226.46
889.43	226.53
889.74	226.51
890.05	226.47
890.35	226.46
890.66	226.46
890.97	226.47
891.28	226.44
891.58	226.44
891.89	226.44
892.20	226.41
892.50	226.38
892.81	226.38
893.12	226.38
893.42	226.31
893.73	226.31
894.04	226.27
894.34	226.24
894.65	226.24
894.95	226.24
895.26	226.24
895.57	226.28
895.87	226.20
896.18	226.23
896.48	226.25
896.79	226.25
897.10	226.27
897.40	226.26
897.71	226.28
898.01	226.25
898.32	226.28
898.63	226.28
898.93	226.30
899.24	226.29
899.54	226.27
899.85	226.25
900.15	226.23
900.46	226.26
900.76	226.31
901.07	226.28
901.38	226.26
901.68	226.29
901.99	226.26
902.29	226.26
902.60	226.24
902.90	226.25
903.21	226.24
903.51	226.18
903.82	226.16
904.12	226.15
904.43	226.14
904.73	226.10
905.03	226.09
905.34	226.15
905.64	226.15
905.95	226.13
906.25	226.13
906.56	226.12
906.86	226.09
907.17	226.04
907.47	226.05
907.77	226.04
908.08	225.99
908.38	225.97
908.69	225.95
908.99	225.99
909.30	225.98
909.60	225.97
909.90	226.01
910.21	225.97
910.51	225.93
910.81	225.98
911.12	225.98
911.42	226.01
911.73	225.92
912.03	225.92
912.33	225.99
912.64	225.98
912.94	225.97
913.24	225.94
913.55	225.93
913.85	225.93
914.15	225.98
914.46	226.01
914.76	226.00
915.06	226.00
915.37	225.96
915.67	225.92
915.97	225.92
916.27	225.90
916.58	225.93
916.88	225.95
917.18	225.94
917.49	226.00
917.79	225.98
918.09	226.01
918.39	226.04
918.70	226.02
919.00	226.00
919.30	226.09
919.60	226.09
919.91	226.11
920.21	226.11
920.51	226.07
920.81	226.05
921.12	226.06
921.42	226.09
921.72	226.10
922.02	226.14
922.32	226.17
922.63	226.16
922.93	226.20
923.23	226.20
923.53	226.17
923.83	226.11
924.13	226.13
924.44	226.12
924.74	226.15
925.04	226.16
925.34	226.18
925.64	226.09
925.94	226.11
926.24	226.17
926.55	226.17
926.85	226.21
927.15	226.23
927.45	226.23
927.75	226.20
928.05	226.22
928.35	226.19
928.65	226.21
928.95	226.22
929.26	226.20
929.56	226.23
929.86	226.22
930.16	226.21
930.46	226.24
930.76	226.24
931.06	226.18
931.36	226.16
931.66	226.18
931.96	226.23
932.26	226.26
932.56	226.22
932.86	226.27
933.16	226.24
933.46	226.22
933.76	226.19
934.06	226.22
934.36	226.23
934.66	226.24
934.96	226.24
935.26	226.27
935.56	226.29
935.86	226.24
936.16	226.23
936.46	226.25
936.76	226.20
937.06	226.16
937.36	226.18
937.66	226.19
937.96	226.16
938.26	226.14
938.56	226.12
938.86	226.14
939.16	226.12
939.46	226.17
939.76	226.20
940.06	226.23
940.35	226.19
940.65	226.14
940.95	226.14
941.25	226.11
941.55	226.12
941.85	226.12
942.15	226.14
942.45	226.21
942.75	226.19
943.04	226.18
943.34	226.21
943.64	226.20
943.94	226.20
944.24	226.23
944.54	226.21
944.84	226.20
945.13	226.15
945.43	226.12
945.73	226.09
946.03	226.10
946.33	226.08
946.62	226.07
946.92	226.08
947.22	226.09
947.52	226.09
947.82	226.06
948.11	226.04
948.41	226.03
948.71	225.95
949.01	225.94
949.31	225.95
949.60	225.95
949.90	225.93
950.20	225.91
950.50	225.89
950.79	225.86
951.09	225.89
951.39	225.85
951.69	225.84
951.98	225.84
952.28	225.82
952.58	225.81
952.87	225.83
953.17	225.83
953.47	225.81
953.76	225.79
954.06	225.82
954.36	225.83
954.66	225.84
954.95	225.90
955.25	225.94
955.55	225.93
955.84	225.92
956.14	225.94
956.44	225.96
956.73	225.94
957.03	225.96
957.32	225.95
957.62	225.98
957.92	226.00
958.21	225.99
958.51	226.09
958.81	226.12
959.10	226.11
959.40	226.20
959.69	226.21
959.99	226.23
960.29	226.21
960.58	226.22
960.88	226.26
961.17	226.23
961.47	226.22
961.76	226.22
962.06	226.23
962.36	226.23
962.65	226.22
962.95	226.26
963.24	226.24
963.54	226.24
963.83	226.29
964.13	226.28
964.42	226.29
964.72	226.21
965.01	226.18
965.31	226.17
965.60	226.11
965.90	226.14
966.19	226.13
966.49	226.13
966.78	226.09
967.08	226.07
967.37	226.07
967.67	226.06
967.96	226.09
968.26	226.08
968.55	226.09
968.85	226.10
969.14	226.07
969.43	226.12
969.73	226.14
970.02	226.09
970.32	226.09
970.61	226.08
970.91	226.04
971.20	226.05
971.49	226.04
971.79	226.06
972.08	226.03
972.38	226.04
972.67	226.02
972.96	226.02
973.26	226.02
973.55	226.04
973.85	226.06
974.14	226.06
974.43	226.09
974.73	226.11
975.02	226.10
975.31	226.11
975.61	226.08
975.90	226.06
976.19	226.08
976.49	226.07
976.78	226.08
977.07	226.08
977.37	226.08
977.66	226.10
977.95	226.07
978.24	226.04
978.54	226.04
978.83	226.01
979.12	226.03
979.42	225.98
979.71	225.97
980.00	225.93
980.29	225.91
980.59	225.85
980.88	225.83
981.17	225.85
981.46	225.84
981.76	225.86
982.05	225.87
982.34	225.88
982.63	225.87
982.93	225.85
983.22	225.85
983.51	225.88
983.80	225.91
984.09	225.93
984.39	225.94
984.68	225.94
984.97	225.96
985.26	225.93
985.55	225.96
985.85	225.94
986.14	225.96
986.43	225.97
986.72	225.97
987.01	225.95
987.30	225.89
987.59	225.90
987.89	225.91
988.18	225.88
988.47	225.85
988.76	225.85
989.05	225.85
989.34	225.87
989.63	225.88
989.92	225.83
990.22	225.78
990.51	225.75
990.80	225.76
991.09	225.77
991.38	225.82
991.67	225.81
991.96	225.80
992.25	225.77
992.54	225.76
992.83	225.75
993.12	225.76
993.41	225.79
993.70	225.81
993.99	225.80
994.28	225.79
994.58	225.83
994.87	225.80
995.16	225.81
995.45	225.78
995.74	225.72
996.03	225.77
996.32	225.82
996.61	225.87
996.90	225.88
997.19	225.87
997.48	225.83
997.77	225.84
998.06	225.84
998.34	225.87
998.63	225.91
998.92	225.91
999.21	225.95
999.50	225.98
999.79	225.94
1000.08	225.94
1000.37	225.97
1000.66	225.98
1000.95	226.01
1001.24	226.01
1001.53	226.06
1001.82	226.10
1002.11	226.05
1002.40	226.07
1002.68	226.09
1002.97	226.14
1003.26	226.14
1003.55	226.15
1003.84	226.15
1004.13	226.20
1004.42	226.21
1004.71	226.22
1004.99	226.22
1005.28	226.27
1005.57	226.24
1005.86	226.26
1006.15	226.30
1006.44	226.28
1006.72	226.30
1007.01	226.30
1007.30	226.32
1007.59	226.27
1007.88	226.25
1008.17	226.27
1008.45	226.25
1008.74	226.24
1009.03	226.18
1009.32	226.16
1009.60	226.17
1009.89	226.19
1010.18	226.17
1010.47	226.16
1010.76	226.16
1011.04	226.14
1011.33	226.12
1011.62	226.13
1011.91	226.13
1012.19	226.09
1012.48	226.11
1012.77	226.08
1013.05	226.12
1013.34	226.14
1013.63	226.17
1013.92	226.17
1014.20	226.18
1014.49	226.20
1014.78	226.19
1015.06	226.16
1015.35	226.21
1015.64	226.23
1015.92	226.22
1016.21	226.22
1016.50	226.19
1016.78	226.17
1017.07	226.19
1017.36	226.15
1017.64	226.14
1017.93	226.11
1018.22	226.11
1018.50	226.10
1018.79	226.09
1019.08	226.06
1019.36	226.06
1019.65	226.04
1019.93	226.08
1020.22	226.09
1020.51	226.11
1020.79	226.07
1021.08	225.88
1021.36	225.98
1021.65	225.84
1021.94	226.33
1022.22	226.57
1022.51	225.86
1022.79	226.94
1023.08	226.21
1023.36	227.00
1023.65	225.22
>>>>>End Processed Spectral Data<<<<<
