SpectraSuite Data File
++++++++++++++++++++++++++++++++++++
Date: Fri Feb 01 15:26:02 EST 2013
User: group
Dark Spectrum Present: No
Reference Spectrum Present: No
Number of Sampled Component Spectra: 1
Spectrometers: USB2E7196
Integration Time (usec): 35000 (USB2E7196)
Spectra Averaged: 100 (USB2E7196)
Boxcar Smoothing: 10 (USB2E7196)
Correct for Electrical Dark: No (USB2E7196)
Strobe/Lamp Enabled: No (USB2E7196)
Correct for Detector Non-linearity: No (USB2E7196)
Correct for Stray Light: No (USB2E7196)
Number of Pixels in Processed Spectrum: 2048
>>>>>Begin Processed Spectral Data<<<<<
339.09	0.00
339.48	215.01
339.86	215.98
340.24	218.02
340.63	219.05
341.01	222.43
341.39	221.89
341.78	223.23
342.16	224.33
342.54	225.13
342.93	213.38
343.31	224.16
343.69	224.69
344.07	225.17
344.46	225.58
344.84	225.98
345.22	226.19
345.60	226.44
345.99	226.62
346.37	226.73
346.75	226.84
347.13	226.88
347.52	226.96
347.90	227.02
348.28	227.05
348.66	227.05
349.05	227.04
349.43	227.11
349.81	227.12
350.19	227.13
350.57	227.20
350.96	227.27
351.34	227.37
351.72	227.47
352.10	227.57
352.48	227.64
352.87	227.68
353.25	227.74
353.63	227.81
354.01	227.90
354.39	228.02
354.77	228.06
355.15	228.20
355.54	228.25
355.92	228.35
356.30	228.40
356.68	228.54
357.06	228.61
357.44	228.64
357.82	228.68
358.20	228.77
358.58	228.77
358.97	228.87
359.35	228.96
359.73	229.03
360.11	229.08
360.49	229.16
360.87	229.22
361.25	229.29
361.63	229.36
362.01	229.41
362.39	229.43
362.77	229.51
363.15	229.53
363.53	229.59
363.91	229.55
364.29	229.58
364.67	229.50
365.05	229.51
365.43	229.53
365.81	229.56
366.19	229.60
366.57	229.65
366.95	229.65
367.33	229.56
367.71	229.53
368.09	229.53
368.47	229.50
368.85	229.47
369.23	229.47
369.61	229.38
369.99	229.35
370.37	229.31
370.75	229.33
371.13	229.27
371.51	229.21
371.89	229.20
372.27	229.14
372.65	229.11
373.03	229.08
373.41	229.04
373.78	229.01
374.16	228.90
374.54	228.82
374.92	228.72
375.30	228.70
375.68	228.64
376.06	228.58
376.44	228.50
376.82	228.47
377.19	228.38
377.57	228.33
377.95	228.20
378.33	228.13
378.71	228.00
379.09	227.93
379.47	227.88
379.84	227.76
380.22	227.68
380.60	227.57
380.98	227.50
381.36	227.43
381.73	227.35
382.11	227.27
382.49	227.20
382.87	227.11
383.25	227.02
383.62	227.06
384.00	226.97
384.38	226.94
384.76	226.87
385.13	226.85
385.51	226.77
385.89	226.72
386.27	226.65
386.64	226.61
387.02	226.55
387.40	226.48
387.78	226.45
388.15	226.43
388.53	226.43
388.91	226.39
389.29	226.30
389.66	226.29
390.04	226.27
390.42	226.29
390.79	226.29
391.17	226.28
391.55	226.12
391.92	226.11
392.30	226.09
392.68	226.06
393.05	226.08
393.43	226.13
393.81	226.16
394.18	226.16
394.56	226.19
394.94	226.21
395.31	226.27
395.69	226.35
396.06	226.37
396.44	226.37
396.82	226.42
397.19	226.53
397.57	226.56
397.95	226.62
398.32	226.62
398.70	226.72
399.07	226.81
399.45	226.89
399.82	226.99
400.20	227.06
400.58	227.15
400.95	227.17
401.33	227.27
401.70	227.42
402.08	227.55
402.45	227.66
402.83	227.82
403.20	227.90
403.58	227.99
403.95	228.16
404.33	228.30
404.71	228.44
405.08	228.63
405.46	228.78
405.83	228.94
406.21	229.15
406.58	229.31
406.96	229.46
407.33	229.66
407.70	229.86
408.08	230.12
408.45	230.34
408.83	230.56
409.20	230.78
409.58	230.98
409.95	231.27
410.33	231.54
410.70	231.78
411.08	232.10
411.45	232.42
411.82	232.72
412.20	233.08
412.57	233.52
412.95	233.81
413.32	234.24
413.69	234.69
414.07	235.11
414.44	235.56
414.82	236.06
415.19	236.61
415.56	237.15
415.94	237.72
416.31	238.38
416.68	239.07
417.06	239.78
417.43	240.46
417.81	241.19
418.18	241.95
418.55	242.79
418.93	243.65
419.30	244.55
419.67	245.50
420.04	246.47
420.42	247.46
420.79	248.66
421.16	249.83
421.54	251.01
421.91	252.25
422.28	253.52
422.66	254.82
423.03	256.15
423.40	257.52
423.77	258.93
424.15	260.36
424.52	261.85
424.89	263.44
425.26	265.02
425.64	266.49
426.01	268.09
426.38	269.68
426.75	271.35
427.13	273.06
427.50	274.84
427.87	276.74
428.24	278.61
428.61	280.34
428.99	282.25
429.36	284.37
429.73	286.42
430.10	288.44
430.47	290.53
430.85	292.62
431.22	294.86
431.59	297.25
431.96	299.45
432.33	301.95
432.70	304.35
433.08	307.12
433.45	309.76
433.82	312.39
434.19	315.32
434.56	318.14
434.93	320.78
435.30	323.41
435.68	326.28
436.05	329.10
436.42	331.88
436.79	334.41
437.16	337.07
437.53	339.93
437.90	342.72
438.27	345.47
438.64	348.32
439.01	350.89
439.38	353.15
439.75	355.35
440.13	357.81
440.50	360.17
440.87	362.01
441.24	363.96
441.61	366.11
441.98	367.61
442.35	369.41
442.72	371.30
443.09	373.13
443.46	374.11
443.83	374.67
444.20	375.22
444.57	376.07
444.94	376.34
445.31	376.65
445.68	377.01
446.05	377.09
446.42	376.71
446.79	376.29
447.16	375.84
447.53	375.49
447.90	374.32
448.27	373.14
448.64	371.60
449.01	370.44
449.37	368.47
449.74	366.55
450.11	364.28
450.48	361.80
450.85	359.27
451.22	357.11
451.59	355.09
451.96	353.13
452.33	350.55
452.70	348.21
453.07	345.37
453.43	342.51
453.80	339.74
454.17	337.06
454.54	334.52
454.91	331.78
455.28	329.15
455.65	326.65
456.02	324.17
456.38	322.00
456.75	319.35
457.12	317.11
457.49	314.92
457.86	312.78
458.23	310.93
458.59	308.89
458.96	306.85
459.33	305.04
459.70	303.16
460.07	301.63
460.43	299.94
460.80	298.34
461.17	296.90
461.54	295.42
461.91	293.98
462.27	292.51
462.64	291.22
463.01	289.84
463.38	288.55
463.74	287.19
464.11	286.05
464.48	285.01
464.85	283.86
465.21	282.96
465.58	282.02
465.95	280.90
466.32	279.96
466.68	279.02
467.05	278.09
467.42	277.17
467.78	276.20
468.15	275.33
468.52	274.65
468.88	273.73
469.25	272.92
469.62	272.29
469.98	271.63
470.35	270.98
470.72	270.36
471.08	269.68
471.45	269.10
471.82	268.51
472.18	267.87
472.55	267.47
472.92	266.95
473.28	266.47
473.65	266.02
474.02	265.57
474.38	265.22
474.75	264.90
475.11	264.54
475.48	264.30
475.85	264.02
476.21	263.79
476.58	263.61
476.94	263.45
477.31	263.28
477.67	263.10
478.04	262.99
478.41	262.93
478.77	262.99
479.14	262.97
479.50	262.96
479.87	263.08
480.23	263.15
480.60	263.19
480.96	263.27
481.33	263.48
481.69	263.65
482.06	263.79
482.42	263.96
482.79	264.20
483.15	264.49
483.52	264.85
483.88	265.19
484.25	265.54
484.61	266.00
484.98	266.43
485.34	266.99
485.71	267.64
486.07	268.26
486.44	268.81
486.80	269.53
487.17	270.25
487.53	271.03
487.90	271.87
488.26	272.82
488.62	273.79
488.99	274.74
489.35	275.78
489.72	276.89
490.08	278.11
490.44	279.36
490.81	280.71
491.17	282.05
491.54	283.54
491.90	285.14
492.26	286.76
492.63	288.51
492.99	290.28
493.36	292.18
493.72	294.18
494.08	296.29
494.45	298.52
494.81	300.93
495.17	303.36
495.54	305.93
495.90	308.61
496.26	311.43
496.63	314.36
496.99	317.49
497.35	320.80
497.72	324.17
498.08	327.73
498.44	331.42
498.80	335.33
499.17	339.33
499.53	343.46
499.89	347.84
500.26	352.32
500.62	357.01
500.98	361.92
501.34	367.03
501.71	372.36
502.07	377.78
502.43	383.41
502.79	389.25
503.16	395.34
503.52	401.67
503.88	408.09
504.24	414.81
504.60	421.73
504.97	428.87
505.33	436.24
505.69	443.94
506.05	451.73
506.41	459.60
506.78	467.80
507.14	476.29
507.50	484.98
507.86	494.01
508.22	503.20
508.59	512.39
508.95	522.01
509.31	531.79
509.67	541.91
510.03	552.11
510.39	562.64
510.75	573.41
511.12	584.31
511.48	595.62
511.84	607.06
512.20	618.59
512.56	630.52
512.92	642.69
513.28	654.92
513.64	667.38
514.00	680.09
514.37	693.05
514.73	706.14
515.09	719.27
515.45	732.62
515.81	746.16
516.17	760.21
516.53	774.26
516.89	788.41
517.25	802.53
517.61	817.08
517.97	831.65
518.33	846.15
518.69	860.93
519.05	875.97
519.41	891.23
519.77	906.89
520.13	922.37
520.49	937.81
520.85	953.31
521.21	969.08
521.57	985.46
521.93	1001.22
522.29	1017.59
522.65	1033.84
523.01	1050.07
523.37	1066.22
523.73	1082.42
524.09	1098.61
524.45	1115.07
524.81	1131.86
525.17	1148.68
525.53	1165.67
525.89	1182.44
526.25	1199.34
526.61	1215.72
526.97	1232.48
527.33	1248.80
527.68	1265.56
528.04	1282.05
528.40	1298.85
528.76	1315.99
529.12	1332.63
529.48	1349.63
529.84	1365.70
530.20	1382.39
530.56	1399.38
530.91	1416.88
531.27	1433.77
531.63	1450.36
531.99	1467.00
532.35	1483.02
532.71	1498.98
533.07	1515.15
533.42	1531.19
533.78	1547.16
534.14	1563.51
534.50	1578.85
534.86	1594.81
535.21	1609.93
535.57	1625.99
535.93	1641.44
536.29	1656.32
536.65	1671.37
537.00	1686.16
537.36	1701.55
537.72	1716.07
538.08	1730.64
538.44	1744.50
538.79	1758.34
539.15	1772.09
539.51	1785.78
539.87	1800.21
540.22	1814.00
540.58	1827.95
540.94	1841.55
541.29	1854.57
541.65	1867.37
542.01	1880.72
542.37	1893.14
542.72	1905.66
543.08	1917.45
543.44	1929.96
543.79	1941.21
544.15	1952.31
544.51	1963.89
544.87	1974.96
545.22	1985.87
545.58	1996.06
545.94	2005.81
546.29	2015.70
546.65	2025.56
547.01	2034.93
547.36	2043.75
547.72	2052.34
548.07	2060.22
548.43	2068.36
548.79	2076.57
549.14	2084.08
549.50	2091.49
549.86	2099.31
550.21	2106.62
550.57	2113.84
550.92	2120.46
551.28	2127.55
551.64	2134.63
551.99	2141.12
552.35	2147.16
552.70	2153.27
553.06	2159.17
553.41	2165.57
553.77	2171.80
554.13	2177.79
554.48	2183.92
554.84	2189.18
555.19	2194.43
555.55	2199.63
555.90	2204.09
556.26	2208.76
556.61	2213.47
556.97	2217.58
557.32	2221.60
557.68	2225.73
558.03	2230.11
558.39	2233.98
558.74	2238.60
559.10	2242.44
559.45	2246.15
559.81	2250.69
560.16	2254.53
560.52	2257.94
560.87	2261.31
561.23	2263.79
561.58	2266.86
561.94	2269.30
562.29	2271.80
562.64	2274.55
563.00	2277.15
563.35	2280.64
563.71	2283.85
564.06	2287.14
564.42	2290.01
564.77	2292.55
565.12	2294.77
565.48	2296.40
565.83	2297.94
566.19	2299.14
566.54	2300.14
566.89	2301.37
567.25	2301.68
567.60	2303.00
567.96	2304.69
568.31	2305.57
568.66	2306.70
569.02	2307.20
569.37	2307.58
569.72	2308.31
570.08	2308.29
570.43	2308.13
570.78	2307.36
571.14	2305.76
571.49	2304.23
571.84	2303.86
572.20	2302.61
572.55	2301.64
572.90	2300.28
573.26	2298.88
573.61	2297.13
573.96	2295.10
574.31	2291.87
574.67	2288.84
575.02	2285.14
575.37	2281.57
575.72	2277.58
576.08	2274.24
576.43	2270.76
576.78	2267.05
577.13	2263.85
577.49	2260.80
577.84	2257.29
578.19	2253.59
578.54	2249.88
578.90	2245.59
579.25	2240.00
579.60	2234.98
579.95	2229.79
580.30	2224.62
580.66	2219.43
581.01	2214.46
581.36	2209.53
581.71	2205.24
582.06	2200.78
582.42	2196.28
582.77	2191.02
583.12	2186.30
583.47	2181.47
583.82	2176.34
584.17	2170.84
584.53	2165.33
584.88	2159.55
585.23	2153.58
585.58	2147.98
585.93	2142.48
586.28	2137.73
586.63	2132.58
586.98	2127.44
587.34	2122.64
587.69	2117.67
588.04	2112.29
588.39	2106.47
588.74	2099.97
589.09	2093.79
589.44	2086.90
589.79	2080.64
590.14	2074.98
590.49	2068.36
590.84	2061.79
591.19	2055.67
591.54	2049.40
591.89	2041.73
592.25	2034.91
592.60	2027.79
592.95	2020.15
593.30	2012.66
593.65	2004.98
594.00	1997.95
594.35	1990.66
594.70	1982.54
595.05	1975.15
595.40	1967.75
595.75	1960.10
596.10	1953.77
596.45	1946.94
596.80	1940.70
597.15	1934.11
597.50	1926.89
597.85	1920.54
598.19	1913.74
598.54	1906.76
598.89	1899.99
599.24	1894.18
599.59	1887.36
599.94	1880.98
600.29	1874.58
600.64	1868.04
600.99	1860.37
601.34	1853.37
601.69	1846.31
602.04	1839.33
602.39	1831.99
602.74	1825.14
603.08	1818.42
603.43	1811.67
603.78	1804.42
604.13	1797.20
604.48	1789.89
604.83	1782.98
605.18	1775.74
605.53	1767.80
605.87	1759.59
606.22	1752.33
606.57	1744.25
606.92	1736.87
607.27	1729.71
607.62	1722.84
607.96	1715.51
608.31	1708.99
608.66	1701.33
609.01	1693.85
609.36	1686.35
609.70	1678.29
610.05	1670.19
610.40	1662.55
610.75	1654.18
611.10	1646.50
611.44	1638.14
611.79	1630.24
612.14	1621.54
612.49	1612.62
612.83	1604.31
613.18	1596.32
613.53	1588.23
613.88	1579.87
614.22	1571.60
614.57	1562.92
614.92	1554.76
615.27	1547.12
615.61	1538.77
615.96	1530.85
616.31	1523.11
616.65	1515.72
617.00	1508.23
617.35	1500.67
617.70	1492.26
618.04	1483.74
618.39	1475.45
618.74	1467.83
619.08	1459.49
619.43	1451.98
619.78	1445.05
620.12	1437.84
620.47	1430.21
620.82	1422.01
621.16	1414.49
621.51	1406.85
621.85	1399.30
622.20	1390.90
622.55	1382.66
622.89	1374.78
623.24	1367.16
623.59	1359.79
623.93	1352.29
624.28	1345.00
624.62	1337.41
624.97	1330.27
625.32	1323.65
625.66	1316.66
626.01	1309.35
626.35	1301.78
626.70	1294.04
627.04	1286.15
627.39	1278.45
627.73	1271.05
628.08	1264.14
628.43	1256.82
628.77	1249.53
629.12	1241.96
629.46	1234.74
629.81	1227.24
630.15	1219.99
630.50	1212.56
630.84	1204.40
631.19	1196.50
631.53	1189.02
631.88	1181.45
632.22	1173.85
632.57	1166.43
632.91	1158.92
633.26	1151.53
633.60	1144.22
633.95	1137.15
634.29	1130.20
634.64	1123.51
634.98	1116.15
635.32	1108.93
635.67	1102.41
636.01	1095.74
636.36	1088.95
636.70	1082.41
637.05	1075.91
637.39	1069.49
637.73	1063.00
638.08	1057.15
638.42	1051.20
638.77	1044.73
639.11	1038.12
639.45	1031.74
639.80	1025.10
640.14	1018.66
640.49	1012.16
640.83	1005.86
641.17	999.60
641.52	993.37
641.86	986.92
642.20	981.12
642.55	974.92
642.89	968.32
643.23	961.76
643.58	956.06
643.92	949.75
644.26	943.66
644.61	937.70
644.95	931.65
645.29	925.02
645.64	918.18
645.98	911.92
646.32	906.15
646.66	900.11
647.01	894.32
647.35	888.62
647.69	882.86
648.04	877.37
648.38	871.50
648.72	865.39
649.06	859.19
649.41	853.35
649.75	847.29
650.09	841.31
650.43	835.53
650.78	829.27
651.12	823.44
651.46	817.69
651.80	811.80
652.14	806.35
652.49	801.05
652.83	795.86
653.17	790.06
653.51	784.29
653.85	779.00
654.20	773.31
654.54	767.32
654.88	761.56
655.22	755.58
655.56	749.91
655.90	744.45
656.25	739.28
656.59	733.82
656.93	728.73
657.27	723.61
657.61	718.23
657.95	713.15
658.29	708.02
658.64	702.74
658.98	697.56
659.32	692.18
659.66	686.93
660.00	681.70
660.34	676.83
660.68	671.92
661.02	666.83
661.36	662.14
661.70	657.64
662.05	653.34
662.39	649.03
662.73	644.66
663.07	640.32
663.41	635.88
663.75	631.44
664.09	626.91
664.43	622.58
664.77	618.42
665.11	614.19
665.45	610.07
665.79	606.11
666.13	601.95
666.47	597.90
666.81	593.73
667.15	589.57
667.49	585.68
667.83	581.90
668.17	578.00
668.51	573.94
668.85	569.93
669.19	566.04
669.53	562.22
669.87	558.34
670.21	554.65
670.55	551.01
670.89	547.60
671.23	544.22
671.57	540.70
671.91	537.16
672.25	533.67
672.58	530.26
672.92	526.83
673.26	523.70
673.60	520.52
673.94	517.42
674.28	514.60
674.62	511.68
674.96	508.56
675.30	505.66
675.64	502.74
675.97	499.99
676.31	497.13
676.65	494.23
676.99	491.47
677.33	488.62
677.67	485.79
678.01	482.69
678.34	479.68
678.68	476.85
679.02	474.10
679.36	471.32
679.70	468.56
680.04	465.78
680.37	462.87
680.71	460.06
681.05	457.51
681.39	454.78
681.73	452.13
682.06	449.63
682.40	447.06
682.74	444.53
683.08	442.01
683.42	439.42
683.75	436.93
684.09	434.43
684.43	431.96
684.77	429.55
685.10	427.25
685.44	424.94
685.78	422.68
686.12	420.40
686.45	418.16
686.79	415.83
687.13	413.69
687.46	411.56
687.80	409.40
688.14	407.13
688.48	405.06
688.81	402.76
689.15	400.63
689.49	398.52
689.82	396.42
690.16	394.34
690.50	392.38
690.83	390.45
691.17	388.46
691.51	386.59
691.84	384.72
692.18	382.81
692.52	380.88
692.85	378.92
693.19	377.05
693.52	375.24
693.86	373.48
694.20	371.66
694.53	369.90
694.87	368.11
695.21	366.34
695.54	364.48
695.88	362.80
696.21	361.05
696.55	359.34
696.88	357.68
697.22	356.06
697.56	354.43
697.89	352.77
698.23	351.18
698.56	349.58
698.90	347.98
699.23	346.28
699.57	344.68
699.90	343.14
700.24	341.62
700.58	340.07
700.91	338.53
701.25	337.09
701.58	335.66
701.92	334.26
702.25	332.89
702.59	331.57
702.92	330.25
703.26	329.00
703.59	327.74
703.93	326.59
704.26	325.30
704.60	324.03
704.93	322.77
705.26	321.51
705.60	320.35
705.93	319.21
706.27	318.23
706.60	317.22
706.94	316.18
707.27	315.05
707.61	314.00
707.94	312.98
708.27	311.87
708.61	310.80
708.94	309.80
709.28	308.83
709.61	307.85
709.94	306.89
710.28	305.83
710.61	304.89
710.95	303.84
711.28	302.94
711.61	302.00
711.95	301.09
712.28	300.16
712.61	299.14
712.95	298.18
713.28	297.32
713.61	296.38
713.95	295.46
714.28	294.60
714.61	293.76
714.95	292.95
715.28	292.07
715.61	291.26
715.95	290.43
716.28	289.58
716.61	288.77
716.95	287.97
717.28	287.27
717.61	286.49
717.94	285.71
718.28	284.91
718.61	284.18
718.94	283.47
719.27	282.80
719.61	282.20
719.94	281.57
720.27	280.85
720.60	280.24
720.94	279.64
721.27	279.06
721.60	278.49
721.93	277.89
722.27	277.38
722.60	276.82
722.93	276.26
723.26	275.70
723.59	275.14
723.93	274.56
724.26	273.95
724.59	273.39
724.92	272.89
725.25	272.41
725.59	271.89
725.92	271.40
726.25	270.87
726.58	270.35
726.91	269.83
727.24	269.35
727.57	268.86
727.91	268.36
728.24	267.88
728.57	267.37
728.90	266.91
729.23	266.43
729.56	266.00
729.89	265.53
730.22	265.06
730.55	264.61
730.89	264.19
731.22	263.77
731.55	263.33
731.88	262.89
732.21	262.46
732.54	262.05
732.87	261.61
733.20	261.24
733.53	260.88
733.86	260.51
734.19	260.09
734.52	259.73
734.85	259.43
735.18	259.00
735.51	258.65
735.84	258.28
736.17	257.89
736.50	257.46
736.83	257.22
737.16	256.87
737.49	256.54
737.82	256.19
738.15	255.87
738.48	255.53
738.81	255.19
739.14	254.84
739.47	254.48
739.80	254.20
740.13	253.90
740.46	253.52
740.79	253.22
741.12	252.92
741.45	252.61
741.78	252.27
742.11	252.03
742.44	251.73
742.77	251.45
743.10	251.17
743.43	250.88
743.75	250.50
744.08	250.35
744.41	250.09
744.74	249.81
745.07	249.51
745.40	249.27
745.73	249.01
746.06	248.73
746.39	248.49
746.71	248.21
747.04	247.94
747.37	247.70
747.70	247.47
748.03	247.21
748.36	246.96
748.68	246.70
749.01	246.43
749.34	246.20
749.67	245.97
750.00	245.75
750.33	245.60
750.65	245.40
750.98	245.08
751.31	244.84
751.64	244.65
751.97	244.52
752.29	244.29
752.62	244.09
752.95	243.93
753.28	243.73
753.60	243.53
753.93	243.35
754.26	243.16
754.59	242.91
754.91	242.75
755.24	242.58
755.57	242.40
755.90	242.23
756.22	242.02
756.55	241.82
756.88	241.61
757.20	241.38
757.53	241.17
757.86	241.00
758.19	240.88
758.51	240.68
758.84	240.45
759.17	240.27
759.49	240.09
759.82	239.97
760.15	239.84
760.47	239.66
760.80	239.43
761.13	239.33
761.45	239.20
761.78	239.04
762.11	238.88
762.43	238.74
762.76	238.58
763.08	238.45
763.41	238.32
763.74	238.20
764.06	238.06
764.39	237.92
764.71	237.77
765.04	237.64
765.37	237.49
765.69	237.39
766.02	237.31
766.34	237.18
766.67	236.99
767.00	236.88
767.32	236.82
767.65	236.82
767.97	236.65
768.30	236.52
768.62	236.38
768.95	236.25
769.27	236.10
769.60	236.00
769.92	235.88
770.25	235.74
770.57	235.64
770.90	235.54
771.22	235.43
771.55	235.34
771.87	235.23
772.20	235.16
772.52	235.14
772.85	235.13
773.17	235.04
773.50	234.95
773.82	234.84
774.15	234.69
774.47	234.52
774.80	234.44
775.12	234.35
775.45	234.28
775.77	234.20
776.09	234.14
776.42	234.07
776.74	234.04
777.07	233.96
777.39	233.89
777.72	233.79
778.04	233.75
778.36	233.65
778.69	233.58
779.01	233.52
779.33	233.38
779.66	233.19
779.98	233.11
780.31	233.04
780.63	233.00
780.95	232.92
781.28	232.86
781.60	232.78
781.92	232.71
782.25	232.67
782.57	232.60
782.89	232.53
783.22	232.44
783.54	232.35
783.86	232.28
784.19	232.21
784.51	232.19
784.83	232.11
785.16	232.07
785.48	232.01
785.80	231.92
786.12	231.86
786.45	231.80
786.77	231.75
787.09	231.69
787.42	231.63
787.74	231.62
788.06	231.58
788.38	231.54
788.71	231.53
789.03	231.47
789.35	231.45
789.67	231.38
789.99	231.35
790.32	231.32
790.64	231.31
790.96	231.34
791.28	231.31
791.61	231.25
791.93	231.22
792.25	231.18
792.57	231.23
792.89	231.20
793.21	231.21
793.54	231.18
793.86	231.15
794.18	231.11
794.50	231.08
794.82	231.05
795.14	231.03
795.47	231.04
795.79	231.01
796.11	230.97
796.43	230.93
796.75	230.92
797.07	230.90
797.39	230.88
797.71	230.81
798.04	230.74
798.36	230.74
798.68	230.76
799.00	230.72
799.32	230.61
799.64	230.58
799.96	230.54
800.28	230.51
800.60	230.50
800.92	230.48
801.24	230.44
801.56	230.41
801.89	230.38
802.21	230.31
802.53	230.25
802.85	230.25
803.17	230.30
803.49	230.25
803.81	230.18
804.13	230.13
804.45	230.06
804.77	230.04
805.09	230.01
805.41	229.92
805.73	229.88
806.05	229.87
806.37	229.82
806.69	229.77
807.01	229.76
807.33	229.73
807.65	229.66
807.97	229.68
808.28	229.65
808.60	229.62
808.92	229.60
809.24	229.67
809.56	229.61
809.88	229.56
810.20	229.55
810.52	229.60
810.84	229.56
811.16	229.52
811.48	229.51
811.80	229.47
812.12	229.46
812.43	229.46
812.75	229.43
813.07	229.40
813.39	229.40
813.71	229.33
814.03	229.30
814.35	229.29
814.67	229.23
814.98	229.18
815.30	229.18
815.62	229.13
815.94	229.03
816.26	229.07
816.58	229.04
816.89	229.01
817.21	228.91
817.53	228.91
817.85	228.89
818.17	228.83
818.48	228.78
818.80	228.79
819.12	228.76
819.44	228.70
819.76	228.68
820.07	228.65
820.39	228.66
820.71	228.65
821.03	228.63
821.34	228.59
821.66	228.60
821.98	228.59
822.30	228.57
822.61	228.59
822.93	228.51
823.25	228.45
823.57	228.40
823.88	228.43
824.20	228.40
824.52	228.39
824.83	228.43
825.15	228.41
825.47	228.36
825.79	228.35
826.10	228.36
826.42	228.34
826.74	228.32
827.05	228.29
827.37	228.25
827.69	228.25
828.00	228.24
828.32	228.23
828.64	228.19
828.95	228.21
829.27	228.16
829.58	228.14
829.90	228.18
830.22	228.20
830.53	228.14
830.85	228.09
831.17	228.07
831.48	228.02
831.80	228.07
832.11	228.05
832.43	228.01
832.75	227.99
833.06	228.06
833.38	228.04
833.69	228.03
834.01	228.07
834.32	228.06
834.64	228.05
834.96	228.05
835.27	228.03
835.59	227.99
835.90	227.99
836.22	227.97
836.53	227.92
836.85	227.89
837.16	227.99
837.48	228.02
837.79	228.05
838.11	228.05
838.42	228.04
838.74	228.06
839.05	228.08
839.37	228.09
839.68	228.06
840.00	228.05
840.31	228.08
840.63	228.06
840.94	228.04
841.26	228.04
841.57	228.01
841.88	228.01
842.20	228.01
842.51	228.01
842.83	228.02
843.14	228.14
843.46	228.15
843.77	228.12
844.08	228.10
844.40	228.07
844.71	228.07
845.03	228.02
845.34	227.99
845.65	228.02
845.97	227.97
846.28	227.93
846.60	227.94
846.91	227.89
847.22	227.86
847.54	227.86
847.85	227.87
848.16	227.88
848.48	227.86
848.79	227.87
849.10	227.85
849.42	227.86
849.73	227.72
850.04	227.67
850.36	227.61
850.67	227.63
850.98	227.62
851.30	227.62
851.61	227.63
851.92	227.65
852.23	227.63
852.55	227.66
852.86	227.66
853.17	227.69
853.49	227.70
853.80	227.70
854.11	227.70
854.42	227.71
854.74	227.68
855.05	227.68
855.36	227.62
855.67	227.64
855.99	227.62
856.30	227.77
856.61	227.77
856.92	227.76
857.23	227.73
857.55	227.72
857.86	227.68
858.17	227.67
858.48	227.64
858.79	227.61
859.11	227.64
859.42	227.60
859.73	227.54
860.04	227.53
860.35	227.51
860.66	227.47
860.98	227.47
861.29	227.51
861.60	227.48
861.91	227.52
862.22	227.49
862.53	227.48
862.84	227.36
863.16	227.41
863.47	227.39
863.78	227.37
864.09	227.40
864.40	227.42
864.71	227.47
865.02	227.49
865.33	227.49
865.64	227.45
865.95	227.46
866.27	227.53
866.58	227.55
866.89	227.55
867.20	227.57
867.51	227.56
867.82	227.53
868.13	227.58
868.44	227.57
868.75	227.61
869.06	227.60
869.37	227.60
869.68	227.55
869.99	227.58
870.30	227.63
870.61	227.63
870.92	227.64
871.23	227.59
871.54	227.63
871.85	227.64
872.16	227.67
872.47	227.67
872.78	227.63
873.09	227.64
873.40	227.64
873.71	227.62
874.02	227.63
874.33	227.62
874.64	227.56
874.95	227.56
875.26	227.50
875.56	227.54
875.87	227.54
876.18	227.52
876.49	227.59
876.80	227.54
877.11	227.54
877.42	227.52
877.73	227.55
878.04	227.49
878.35	227.50
878.66	227.47
878.96	227.48
879.27	227.46
879.58	227.44
879.89	227.45
880.20	227.49
880.51	227.45
880.82	227.45
881.12	227.48
881.43	227.47
881.74	227.47
882.05	227.46
882.36	227.46
882.67	227.48
882.97	227.40
883.28	227.41
883.59	227.37
883.90	227.41
884.21	227.38
884.51	227.38
884.82	227.38
885.13	227.39
885.44	227.37
885.74	227.39
886.05	227.38
886.36	227.39
886.67	227.36
886.98	227.41
887.28	227.41
887.59	227.43
887.90	227.44
888.20	227.45
888.51	227.43
888.82	227.43
889.13	227.46
889.43	227.54
889.74	227.53
890.05	227.58
890.35	227.57
890.66	227.55
890.97	227.56
891.28	227.53
891.58	227.53
891.89	227.52
892.20	227.51
892.50	227.51
892.81	227.53
893.12	227.51
893.42	227.47
893.73	227.47
894.04	227.44
894.34	227.45
894.65	227.43
894.95	227.44
895.26	227.41
895.57	227.43
895.87	227.32
896.18	227.35
896.48	227.35
896.79	227.31
897.10	227.33
897.40	227.31
897.71	227.30
898.01	227.28
898.32	227.31
898.63	227.33
898.93	227.32
899.24	227.31
899.54	227.31
899.85	227.28
900.15	227.29
900.46	227.30
900.76	227.29
901.07	227.26
901.38	227.24
901.68	227.27
901.99	227.19
902.29	227.21
902.60	227.21
902.90	227.18
903.21	227.16
903.51	227.15
903.82	227.18
904.12	227.19
904.43	227.16
904.73	227.15
905.03	227.12
905.34	227.21
905.64	227.18
905.95	227.18
906.25	227.21
906.56	227.21
906.86	227.23
907.17	227.21
907.47	227.25
907.77	227.25
908.08	227.22
908.38	227.26
908.69	227.26
908.99	227.23
909.30	227.24
909.60	227.28
909.90	227.28
910.21	227.24
910.51	227.26
910.81	227.28
911.12	227.30
911.42	227.29
911.73	227.18
912.03	227.20
912.33	227.20
912.64	227.19
912.94	227.16
913.24	227.15
913.55	227.14
913.85	227.14
914.15	227.16
914.46	227.19
914.76	227.15
915.06	227.16
915.37	227.15
915.67	227.12
915.97	227.10
916.27	227.08
916.58	227.08
916.88	227.06
917.18	227.08
917.49	227.13
917.79	227.14
918.09	227.14
918.39	227.17
918.70	227.16
919.00	227.18
919.30	227.24
919.60	227.24
919.91	227.22
920.21	227.22
920.51	227.21
920.81	227.23
921.12	227.25
921.42	227.26
921.72	227.28
922.02	227.32
922.32	227.34
922.63	227.36
922.93	227.42
923.23	227.44
923.53	227.42
923.83	227.37
924.13	227.38
924.44	227.42
924.74	227.41
925.04	227.44
925.34	227.44
925.64	227.37
925.94	227.35
926.24	227.41
926.55	227.39
926.85	227.40
927.15	227.38
927.45	227.39
927.75	227.38
928.05	227.38
928.35	227.38
928.65	227.38
928.95	227.39
929.26	227.35
929.56	227.35
929.86	227.36
930.16	227.35
930.46	227.34
930.76	227.34
931.06	227.31
931.36	227.27
931.66	227.26
931.96	227.28
932.26	227.31
932.56	227.27
932.86	227.28
933.16	227.28
933.46	227.28
933.76	227.27
934.06	227.32
934.36	227.35
934.66	227.32
934.96	227.32
935.26	227.31
935.56	227.36
935.86	227.34
936.16	227.32
936.46	227.31
936.76	227.32
937.06	227.28
937.36	227.31
937.66	227.35
937.96	227.35
938.26	227.35
938.56	227.35
938.86	227.34
939.16	227.36
939.46	227.35
939.76	227.37
940.06	227.35
940.35	227.31
940.65	227.24
940.95	227.27
941.25	227.26
941.55	227.26
941.85	227.23
942.15	227.25
942.45	227.28
942.75	227.29
943.04	227.28
943.34	227.31
943.64	227.29
943.94	227.24
944.24	227.23
944.54	227.23
944.84	227.21
945.13	227.22
945.43	227.22
945.73	227.19
946.03	227.19
946.33	227.20
946.62	227.18
946.92	227.19
947.22	227.21
947.52	227.20
947.82	227.16
948.11	227.16
948.41	227.12
948.71	227.09
949.01	227.05
949.31	227.07
949.60	227.07
949.90	227.08
950.20	227.09
950.50	227.10
950.79	227.12
951.09	227.12
951.39	227.10
951.69	227.10
951.98	227.14
952.28	227.12
952.58	227.11
952.87	227.10
953.17	227.13
953.47	227.06
953.76	227.06
954.06	227.08
954.36	227.03
954.66	227.03
954.95	227.03
955.25	227.04
955.55	227.03
955.84	227.02
956.14	227.01
956.44	227.00
956.73	226.98
957.03	226.95
957.32	226.97
957.62	226.97
957.92	226.96
958.21	226.96
958.51	227.05
958.81	227.06
959.10	227.07
959.40	227.08
959.69	227.08
959.99	227.10
960.29	227.09
960.58	227.07
960.88	227.12
961.17	227.10
961.47	227.11
961.76	227.07
962.06	227.08
962.36	227.03
962.65	227.00
962.95	227.00
963.24	227.00
963.54	226.99
963.83	227.00
964.13	226.99
964.42	226.95
964.72	226.90
965.01	226.89
965.31	226.90
965.60	226.90
965.90	226.96
966.19	226.93
966.49	226.93
966.78	226.96
967.08	226.96
967.37	226.95
967.67	226.94
967.96	226.97
968.26	226.94
968.55	226.97
968.85	227.00
969.14	226.99
969.43	226.96
969.73	226.95
970.02	226.95
970.32	226.94
970.61	226.95
970.91	226.90
971.20	226.90
971.49	226.86
971.79	226.86
972.08	226.82
972.38	226.84
972.67	226.82
972.96	226.84
973.26	226.79
973.55	226.82
973.85	226.86
974.14	226.84
974.43	226.88
974.73	226.89
975.02	226.90
975.31	226.89
975.61	226.93
975.90	226.95
976.19	226.94
976.49	226.95
976.78	226.96
977.07	226.96
977.37	226.97
977.66	227.02
977.95	227.00
978.24	227.02
978.54	227.01
978.83	227.06
979.12	227.06
979.42	227.10
979.71	227.10
980.00	227.05
980.29	227.07
980.59	227.05
980.88	227.08
981.17	227.06
981.46	227.12
981.76	227.09
982.05	227.08
982.34	227.09
982.63	227.11
982.93	227.08
983.22	227.12
983.51	227.12
983.80	227.10
984.09	227.09
984.39	227.07
984.68	227.07
984.97	227.02
985.26	227.02
985.55	227.03
985.85	227.02
986.14	227.02
986.43	227.04
986.72	227.03
987.01	226.99
987.30	226.98
987.59	226.93
987.89	226.95
988.18	226.92
988.47	226.91
988.76	226.90
989.05	226.89
989.34	226.85
989.63	226.88
989.92	226.86
990.22	226.84
990.51	226.82
990.80	226.81
991.09	226.85
991.38	226.85
991.67	226.81
991.96	226.81
992.25	226.83
992.54	226.79
992.83	226.80
993.12	226.81
993.41	226.86
993.70	226.92
993.99	226.96
994.28	226.96
994.58	226.97
994.87	226.98
995.16	226.99
995.45	227.01
995.74	226.98
996.03	226.98
996.32	227.03
996.61	227.06
996.90	227.05
997.19	227.05
997.48	227.04
997.77	227.06
998.06	227.03
998.34	227.04
998.63	227.04
998.92	227.04
999.21	227.03
999.50	227.00
999.79	226.94
1000.08	226.93
1000.37	226.93
1000.66	226.92
1000.95	226.94
1001.24	226.96
1001.53	226.96
1001.82	226.95
1002.11	226.98
1002.40	226.97
1002.68	227.02
1002.97	227.09
1003.26	227.04
1003.55	227.03
1003.84	227.04
1004.13	227.10
1004.42	227.06
1004.71	227.09
1004.99	227.08
1005.28	227.14
1005.57	227.14
1005.86	227.15
1006.15	227.16
1006.44	227.17
1006.72	227.19
1007.01	227.17
1007.30	227.17
1007.59	227.18
1007.88	227.17
1008.17	227.14
1008.45	227.13
1008.74	227.06
1009.03	227.03
1009.32	227.07
1009.60	227.07
1009.89	227.05
1010.18	227.06
1010.47	227.06
1010.76	227.04
1011.04	227.03
1011.33	227.02
1011.62	227.03
1011.91	227.03
1012.19	226.99
1012.48	226.98
1012.77	226.98
1013.05	227.01
1013.34	226.99
1013.63	226.96
1013.92	226.97
1014.20	226.97
1014.49	226.95
1014.78	226.96
1015.06	226.90
1015.35	226.86
1015.64	226.88
1015.92	226.89
1016.21	226.85
1016.50	226.88
1016.78	226.91
1017.07	226.91
1017.36	226.85
1017.64	226.82
1017.93	226.83
1018.22	226.83
1018.50	226.83
1018.79	226.76
1019.08	226.71
1019.36	226.71
1019.65	226.66
1019.93	226.67
1020.22	226.65
1020.51	226.71
1020.79	226.69
1021.08	226.68
1021.36	226.60
1021.65	225.84
1021.94	226.27
1022.22	226.66
1022.51	226.00
1022.79	227.06
1023.08	226.49
1023.36	227.86
1023.65	226.34
>>>>>End Processed Spectral Data<<<<<
