SpectraSuite Data File
++++++++++++++++++++++++++++++++++++
Date: Fri Feb 01 14:54:22 EST 2013
User: group
Dark Spectrum Present: No
Reference Spectrum Present: No
Number of Sampled Component Spectra: 1
Spectrometers: USB2E7196
Integration Time (usec): 35000 (USB2E7196)
Spectra Averaged: 100 (USB2E7196)
Boxcar Smoothing: 10 (USB2E7196)
Correct for Electrical Dark: No (USB2E7196)
Strobe/Lamp Enabled: No (USB2E7196)
Correct for Detector Non-linearity: No (USB2E7196)
Correct for Stray Light: No (USB2E7196)
Number of Pixels in Processed Spectrum: 2048
>>>>>Begin Processed Spectral Data<<<<<
339.09	0.00
339.48	215.36
339.86	216.65
340.24	218.29
340.63	219.75
341.01	222.46
341.39	222.32
341.78	223.76
342.16	224.53
342.54	225.01
342.93	213.65
343.31	224.45
343.69	224.99
344.07	225.46
344.46	225.90
344.84	226.28
345.22	226.53
345.60	226.79
345.99	226.98
346.37	227.14
346.75	227.27
347.13	227.35
347.52	227.42
347.90	227.51
348.28	227.55
348.66	227.60
349.05	227.62
349.43	227.68
349.81	227.73
350.19	227.76
350.57	227.78
350.96	227.87
351.34	227.95
351.72	228.05
352.10	228.13
352.48	228.19
352.87	228.26
353.25	228.31
353.63	228.37
354.01	228.42
354.39	228.49
354.77	228.57
355.15	228.67
355.54	228.76
355.92	228.81
356.30	228.88
356.68	229.02
357.06	229.11
357.44	229.16
357.82	229.23
358.20	229.30
358.58	229.42
358.97	229.45
359.35	229.56
359.73	229.63
360.11	229.69
360.49	229.73
360.87	229.73
361.25	229.77
361.63	229.82
362.01	229.85
362.39	229.90
362.77	229.92
363.15	229.93
363.53	229.89
363.91	229.92
364.29	229.91
364.67	229.78
365.05	229.78
365.43	229.77
365.81	229.78
366.19	229.81
366.57	229.81
366.95	229.78
367.33	229.71
367.71	229.68
368.09	229.67
368.47	229.63
368.85	229.63
369.23	229.62
369.61	229.54
369.99	229.53
370.37	229.46
370.75	229.45
371.13	229.37
371.51	229.35
371.89	229.28
372.27	229.23
372.65	229.20
373.03	229.12
373.41	229.04
373.78	228.96
374.16	228.85
374.54	228.75
374.92	228.71
375.30	228.63
375.68	228.52
376.06	228.42
376.44	228.34
376.82	228.23
377.19	228.13
377.57	228.07
377.95	227.96
378.33	227.89
378.71	227.76
379.09	227.70
379.47	227.58
379.84	227.48
380.22	227.38
380.60	227.27
380.98	227.16
381.36	227.10
381.73	227.01
382.11	226.96
382.49	226.91
382.87	226.83
383.25	226.76
383.62	226.82
384.00	226.76
384.38	226.71
384.76	226.70
385.13	226.66
385.51	226.61
385.89	226.53
386.27	226.48
386.64	226.42
387.02	226.34
387.40	226.31
387.78	226.30
388.15	226.26
388.53	226.25
388.91	226.24
389.29	226.22
389.66	226.22
390.04	226.20
390.42	226.18
390.79	226.18
391.17	226.21
391.55	226.11
391.92	226.11
392.30	226.12
392.68	226.11
393.05	226.16
393.43	226.16
393.81	226.22
394.18	226.25
394.56	226.29
394.94	226.37
395.31	226.40
395.69	226.46
396.06	226.53
396.44	226.60
396.82	226.64
397.19	226.73
397.57	226.77
397.95	226.81
398.32	226.85
398.70	226.93
399.07	227.01
399.45	227.08
399.82	227.16
400.20	227.25
400.58	227.37
400.95	227.41
401.33	227.54
401.70	227.70
402.08	227.83
402.45	227.95
402.83	228.06
403.20	228.21
403.58	228.33
403.95	228.47
404.33	228.60
404.71	228.76
405.08	228.93
405.46	229.12
405.83	229.26
406.21	229.45
406.58	229.65
406.96	229.82
407.33	229.99
407.70	230.21
408.08	230.48
408.45	230.70
408.83	230.96
409.20	231.21
409.58	231.42
409.95	231.69
410.33	231.98
410.70	232.23
411.08	232.52
411.45	232.84
411.82	233.17
412.20	233.56
412.57	234.02
412.95	234.36
413.32	234.77
413.69	235.15
414.07	235.59
414.44	236.02
414.82	236.50
415.19	237.09
415.56	237.62
415.94	238.14
416.31	238.77
416.68	239.37
417.06	240.05
417.43	240.69
417.81	241.43
418.18	242.17
418.55	243.02
418.93	243.90
419.30	244.79
419.67	245.70
420.04	246.62
420.42	247.56
420.79	248.73
421.16	249.85
421.54	251.09
421.91	252.26
422.28	253.51
422.66	254.77
423.03	256.04
423.40	257.37
423.77	258.80
424.15	260.21
424.52	261.65
424.89	263.23
425.26	264.77
425.64	266.23
426.01	267.83
426.38	269.49
426.75	271.14
427.13	272.83
427.50	274.62
427.87	276.50
428.24	278.35
428.61	280.05
428.99	281.99
429.36	284.09
429.73	286.19
430.10	288.20
430.47	290.25
430.85	292.40
431.22	294.64
431.59	297.00
431.96	299.24
432.33	301.73
432.70	304.17
433.08	306.98
433.45	309.61
433.82	312.22
434.19	315.08
434.56	317.89
434.93	320.55
435.30	323.19
435.68	326.11
436.05	328.97
436.42	331.81
436.79	334.32
437.16	336.99
437.53	339.81
437.90	342.63
438.27	345.41
438.64	348.24
439.01	350.82
439.38	353.09
439.75	355.28
440.13	357.77
440.50	360.07
440.87	361.93
441.24	363.85
441.61	366.00
441.98	367.51
442.35	369.31
442.72	371.20
443.09	373.04
443.46	373.99
443.83	374.55
444.20	375.02
444.57	375.89
444.94	376.17
445.31	376.51
445.68	376.90
446.05	376.99
446.42	376.59
446.79	376.20
447.16	375.72
447.53	375.40
447.90	374.28
448.27	373.14
448.64	371.56
449.01	370.44
449.37	368.47
449.74	366.59
450.11	364.37
450.48	361.90
450.85	359.34
451.22	357.21
451.59	355.20
451.96	353.30
452.33	350.65
452.70	348.36
453.07	345.52
453.43	342.62
453.80	339.88
454.17	337.23
454.54	334.66
454.91	331.97
455.28	329.30
455.65	326.79
456.02	324.37
456.38	322.21
456.75	319.57
457.12	317.35
457.49	315.09
457.86	312.92
458.23	311.03
458.59	309.02
458.96	306.95
459.33	305.13
459.70	303.26
460.07	301.75
460.43	299.99
460.80	298.37
461.17	296.91
461.54	295.41
461.91	293.95
462.27	292.48
462.64	291.23
463.01	289.86
463.38	288.59
463.74	287.18
464.11	286.04
464.48	284.98
464.85	283.90
465.21	283.07
465.58	282.11
465.95	281.00
466.32	280.08
466.68	279.11
467.05	278.17
467.42	277.22
467.78	276.30
468.15	275.38
468.52	274.72
468.88	273.84
469.25	273.01
469.62	272.37
469.98	271.69
470.35	271.03
470.72	270.39
471.08	269.68
471.45	269.15
471.82	268.58
472.18	267.96
472.55	267.44
472.92	266.86
473.28	266.37
473.65	265.94
474.02	265.47
474.38	265.13
474.75	264.78
475.11	264.45
475.48	264.16
475.85	263.92
476.21	263.64
476.58	263.45
476.94	263.30
477.31	263.08
477.67	262.89
478.04	262.77
478.41	262.74
478.77	262.74
479.14	262.67
479.50	262.68
479.87	262.77
480.23	262.86
480.60	262.95
480.96	263.04
481.33	263.22
481.69	263.40
482.06	263.57
482.42	263.76
482.79	263.99
483.15	264.30
483.52	264.69
483.88	265.02
484.25	265.39
484.61	265.81
484.98	266.27
485.34	266.87
485.71	267.44
486.07	268.02
486.44	268.66
486.80	269.35
487.17	270.05
487.53	270.83
487.90	271.65
488.26	272.56
488.62	273.55
488.99	274.54
489.35	275.56
489.72	276.70
490.08	277.89
490.44	279.16
490.81	280.48
491.17	281.81
491.54	283.31
491.90	284.86
492.26	286.50
492.63	288.28
492.99	290.01
493.36	291.92
493.72	293.96
494.08	296.05
494.45	298.29
494.81	300.65
495.17	303.12
495.54	305.72
495.90	308.41
496.26	311.21
496.63	314.14
496.99	317.27
497.35	320.51
497.72	323.90
498.08	327.36
498.44	331.04
498.80	334.93
499.17	338.96
499.53	343.15
499.89	347.49
500.26	351.97
500.62	356.66
500.98	361.63
501.34	366.67
501.71	371.96
502.07	377.33
502.43	382.92
502.79	388.66
503.16	394.70
503.52	400.90
503.88	407.26
504.24	413.89
504.60	420.73
504.97	427.83
505.33	435.13
505.69	442.79
506.05	450.55
506.41	458.39
506.78	466.51
507.14	474.89
507.50	483.53
507.86	492.51
508.22	501.66
508.59	510.81
508.95	520.37
509.31	530.13
509.67	540.29
510.03	550.57
510.39	561.14
510.75	571.89
511.12	582.84
511.48	594.09
511.84	605.49
512.20	616.94
512.56	628.80
512.92	640.91
513.28	653.23
513.64	665.71
514.00	678.54
514.37	691.45
514.73	704.44
515.09	717.52
515.45	730.77
515.81	744.39
516.17	758.29
516.53	772.41
516.89	786.64
517.25	800.79
517.61	815.12
517.97	829.54
518.33	844.03
518.69	858.82
519.05	873.87
519.41	889.07
519.77	904.69
520.13	920.20
520.49	935.68
520.85	951.18
521.21	966.89
521.57	983.06
521.93	998.93
522.29	1015.41
522.65	1031.79
523.01	1048.10
523.37	1064.20
523.73	1080.52
524.09	1096.68
524.45	1113.04
524.81	1129.69
525.17	1146.61
525.53	1163.64
525.89	1180.48
526.25	1197.41
526.61	1213.75
526.97	1230.60
527.33	1247.16
527.68	1263.88
528.04	1280.49
528.40	1297.23
528.76	1314.39
529.12	1331.02
529.48	1348.01
529.84	1364.10
530.20	1380.83
530.56	1397.81
530.91	1415.21
531.27	1432.04
531.63	1448.54
531.99	1465.11
532.35	1481.19
532.71	1497.18
533.07	1513.53
533.42	1529.50
533.78	1545.68
534.14	1562.06
534.50	1577.38
534.86	1593.27
535.21	1608.45
535.57	1624.40
535.93	1639.98
536.29	1654.74
536.65	1669.99
537.00	1684.83
537.36	1700.24
537.72	1714.77
538.08	1729.43
538.44	1743.32
538.79	1757.17
539.15	1771.05
539.51	1784.94
539.87	1799.37
540.22	1813.18
540.58	1826.98
540.94	1840.52
541.29	1853.50
541.65	1866.36
542.01	1879.67
542.37	1892.14
542.72	1904.63
543.08	1916.43
543.44	1928.88
543.79	1940.22
544.15	1951.17
544.51	1962.78
544.87	1973.83
545.22	1984.67
545.58	1994.81
545.94	2004.62
546.29	2014.58
546.65	2024.42
547.01	2033.72
547.36	2042.50
547.72	2051.01
548.07	2058.81
548.43	2066.99
548.79	2074.84
549.14	2082.45
549.50	2089.89
549.86	2097.51
550.21	2104.91
550.57	2112.09
550.92	2118.59
551.28	2125.65
551.64	2132.71
551.99	2139.27
552.35	2145.29
552.70	2151.43
553.06	2157.38
553.41	2163.75
553.77	2169.73
554.13	2175.61
554.48	2181.56
554.84	2186.84
555.19	2192.04
555.55	2197.10
555.90	2201.31
556.26	2206.23
556.61	2210.85
556.97	2214.91
557.32	2219.07
557.68	2223.11
558.03	2227.40
558.39	2231.19
558.74	2235.72
559.10	2239.50
559.45	2243.00
559.81	2247.36
560.16	2251.05
560.52	2254.24
560.87	2257.56
561.23	2260.23
561.58	2263.15
561.94	2265.68
562.29	2268.13
562.64	2270.80
563.00	2273.39
563.35	2276.76
563.71	2279.67
564.06	2282.82
564.42	2285.60
564.77	2287.85
565.12	2290.05
565.48	2291.63
565.83	2293.00
566.19	2294.10
566.54	2295.01
566.89	2295.96
567.25	2296.33
567.60	2297.46
567.96	2299.01
568.31	2299.61
568.66	2300.57
569.02	2300.98
569.37	2301.03
569.72	2301.60
570.08	2301.45
570.43	2301.24
570.78	2300.44
571.14	2298.75
571.49	2297.15
571.84	2296.80
572.20	2295.47
572.55	2294.11
572.90	2292.48
573.26	2290.96
573.61	2289.18
573.96	2287.08
574.31	2283.77
574.67	2280.57
575.02	2276.64
575.37	2272.97
575.72	2268.94
576.08	2265.31
576.43	2261.85
576.78	2258.11
577.13	2254.73
577.49	2251.52
577.84	2247.93
578.19	2244.26
578.54	2240.45
578.90	2235.95
579.25	2230.10
579.60	2224.97
579.95	2219.80
580.30	2214.59
580.66	2209.36
581.01	2204.18
581.36	2199.16
581.71	2194.88
582.06	2190.37
582.42	2186.09
582.77	2180.71
583.12	2176.00
583.47	2171.18
583.82	2166.00
584.17	2160.71
584.53	2155.15
584.88	2149.27
585.23	2143.33
585.58	2137.61
585.93	2131.93
586.28	2126.95
586.63	2121.70
586.98	2116.50
587.34	2111.73
587.69	2106.79
588.04	2101.37
588.39	2095.61
588.74	2088.91
589.09	2082.77
589.44	2075.70
589.79	2069.40
590.14	2063.75
590.49	2057.06
590.84	2050.47
591.19	2044.23
591.54	2037.40
591.89	2029.76
592.25	2022.82
592.60	2015.47
592.95	2007.74
593.30	2000.54
593.65	1993.01
594.00	1985.92
594.35	1978.50
594.70	1970.34
595.05	1963.00
595.40	1955.77
595.75	1948.26
596.10	1942.05
596.45	1935.10
596.80	1928.90
597.15	1922.04
597.50	1914.70
597.85	1908.26
598.19	1901.59
598.54	1894.47
598.89	1888.01
599.24	1882.06
599.59	1875.45
599.94	1869.22
600.29	1862.84
600.64	1855.99
600.99	1848.54
601.34	1841.72
601.69	1834.76
602.04	1827.73
602.39	1820.28
602.74	1813.35
603.08	1806.52
603.43	1799.65
603.78	1792.39
604.13	1785.12
604.48	1777.90
604.83	1771.18
605.18	1764.16
605.53	1756.10
605.87	1748.16
606.22	1740.85
606.57	1732.91
606.92	1725.63
607.27	1718.41
607.62	1711.57
607.96	1704.31
608.31	1697.59
608.66	1689.86
609.01	1682.35
609.36	1674.92
609.70	1666.97
610.05	1658.91
610.40	1651.26
610.75	1643.09
611.10	1635.50
611.44	1627.10
611.79	1619.17
612.14	1610.56
612.49	1601.51
612.83	1593.26
613.18	1585.18
613.53	1577.08
613.88	1568.57
614.22	1560.26
614.57	1551.81
614.92	1543.79
615.27	1536.40
615.61	1528.24
615.96	1520.37
616.31	1512.84
616.65	1505.49
617.00	1497.98
617.35	1490.38
617.70	1481.98
618.04	1473.43
618.39	1465.26
618.74	1457.87
619.08	1449.75
619.43	1442.22
619.78	1435.34
620.12	1428.17
620.47	1420.70
620.82	1412.59
621.16	1405.38
621.51	1397.84
621.85	1390.18
622.20	1381.80
622.55	1373.43
622.89	1365.57
623.24	1358.03
623.59	1350.65
623.93	1343.22
624.28	1336.04
624.62	1328.51
624.97	1321.44
625.32	1314.85
625.66	1307.86
626.01	1300.59
626.35	1293.04
626.70	1285.28
627.04	1277.62
627.39	1269.83
627.73	1262.49
628.08	1255.62
628.43	1248.36
628.77	1241.06
629.12	1233.49
629.46	1226.34
629.81	1219.10
630.15	1211.93
630.50	1204.57
630.84	1196.45
631.19	1188.59
631.53	1181.23
631.88	1173.86
632.22	1166.35
632.57	1159.11
632.91	1151.65
633.26	1144.38
633.60	1137.10
633.95	1130.18
634.29	1123.13
634.64	1116.62
634.98	1109.33
635.32	1102.33
635.67	1095.78
636.01	1089.24
636.36	1082.66
636.70	1076.34
637.05	1069.75
637.39	1063.41
637.73	1056.97
638.08	1051.15
638.42	1045.30
638.77	1038.93
639.11	1032.31
639.45	1026.02
639.80	1019.39
640.14	1013.00
640.49	1006.57
640.83	1000.32
641.17	994.06
641.52	987.85
641.86	981.56
642.20	975.79
642.55	969.58
642.89	963.12
643.23	956.65
643.58	950.91
643.92	944.62
644.26	938.54
644.61	932.52
644.95	926.56
645.29	920.02
645.64	913.21
645.98	906.85
646.32	901.09
646.66	895.08
647.01	889.38
647.35	883.73
647.69	877.98
648.04	872.59
648.38	866.82
648.72	860.78
649.06	854.69
649.41	848.80
649.75	842.83
650.09	836.90
650.43	831.08
650.78	824.91
651.12	819.05
651.46	813.46
651.80	807.74
652.14	802.36
652.49	797.08
652.83	791.95
653.17	786.29
653.51	780.59
653.85	775.23
654.20	769.55
654.54	763.61
654.88	757.80
655.22	751.86
655.56	746.28
655.90	740.90
656.25	735.62
656.59	730.32
656.93	725.22
657.27	720.14
657.61	714.78
657.95	709.70
658.29	704.66
658.64	699.47
658.98	694.16
659.32	688.76
659.66	683.58
660.00	678.32
660.34	673.49
660.68	668.58
661.02	663.56
661.36	658.88
661.70	654.41
662.05	650.08
662.39	645.78
662.73	641.31
663.07	636.95
663.41	632.58
663.75	628.10
664.09	623.56
664.43	619.19
664.77	615.09
665.11	610.90
665.45	606.81
665.79	602.80
666.13	598.79
666.47	594.72
666.81	590.57
667.15	586.51
667.49	582.67
667.83	578.98
668.17	575.13
668.51	571.19
668.85	567.19
669.19	563.41
669.53	559.63
669.87	555.82
670.21	552.20
670.55	548.62
670.89	545.27
671.23	541.98
671.57	538.56
671.91	535.13
672.25	531.78
672.58	528.29
672.92	524.91
673.26	521.81
673.60	518.69
673.94	515.71
674.28	512.84
674.62	509.89
674.96	506.77
675.30	503.94
675.64	500.98
675.97	498.32
676.31	495.54
676.65	492.66
676.99	490.01
677.33	487.19
677.67	484.38
678.01	481.33
678.34	478.29
678.68	475.47
679.02	472.65
679.36	469.86
679.70	467.20
680.04	464.46
680.37	461.58
680.71	458.84
681.05	456.23
681.39	453.60
681.73	451.02
682.06	448.50
682.40	445.91
682.74	443.42
683.08	440.91
683.42	438.28
683.75	435.87
684.09	433.34
684.43	430.95
684.77	428.57
685.10	426.35
685.44	424.19
685.78	421.89
686.12	419.70
686.45	417.49
686.79	415.23
687.13	413.03
687.46	410.85
687.80	408.72
688.14	406.50
688.48	404.47
688.81	402.23
689.15	400.15
689.49	398.06
689.82	396.02
690.16	393.94
690.50	392.03
690.83	390.04
691.17	388.06
691.51	386.17
691.84	384.34
692.18	382.39
692.52	380.33
692.85	378.45
693.19	376.57
693.52	374.73
693.86	372.92
694.20	371.17
694.53	369.43
694.87	367.59
695.21	365.86
695.54	364.03
695.88	362.32
696.21	360.58
696.55	358.94
696.88	357.26
697.22	355.63
697.56	354.02
697.89	352.38
698.23	350.81
698.56	349.15
698.90	347.52
699.23	345.84
699.57	344.29
699.90	342.77
700.24	341.21
700.58	339.62
700.91	338.14
701.25	336.74
701.58	335.35
701.92	334.00
702.25	332.57
702.59	331.19
702.92	329.87
703.26	328.60
703.59	327.32
703.93	326.13
704.26	324.91
704.60	323.61
704.93	322.35
705.26	321.12
705.60	319.98
705.93	318.82
706.27	317.81
706.60	316.81
706.94	315.72
707.27	314.63
707.61	313.67
707.94	312.65
708.27	311.55
708.61	310.51
708.94	309.50
709.28	308.57
709.61	307.63
709.94	306.72
710.28	305.70
710.61	304.73
710.95	303.66
711.28	302.73
711.61	301.80
711.95	300.88
712.28	299.94
712.61	298.98
712.95	298.10
713.28	297.27
713.61	296.38
713.95	295.47
714.28	294.65
714.61	293.76
714.95	292.91
715.28	292.09
715.61	291.22
715.95	290.41
716.28	289.54
716.61	288.72
716.95	287.89
717.28	287.18
717.61	286.41
717.94	285.72
718.28	284.91
718.61	284.25
718.94	283.63
719.27	282.99
719.61	282.38
719.94	281.71
720.27	281.02
720.60	280.36
720.94	279.81
721.27	279.23
721.60	278.69
721.93	278.12
722.27	277.56
722.60	277.04
722.93	276.49
723.26	275.97
723.59	275.46
723.93	274.92
724.26	274.40
724.59	273.87
724.92	273.34
725.25	272.87
725.59	272.33
725.92	271.81
726.25	271.27
726.58	270.77
726.91	270.29
727.24	269.79
727.57	269.36
727.91	268.83
728.24	268.35
728.57	267.85
728.90	267.38
729.23	266.87
729.56	266.38
729.89	265.88
730.22	265.43
730.55	264.98
730.89	264.51
731.22	264.02
731.55	263.58
731.88	263.14
732.21	262.73
732.54	262.29
732.87	261.88
733.20	261.50
733.53	261.11
733.86	260.72
734.19	260.33
734.52	259.91
734.85	259.61
735.18	259.15
735.51	258.78
735.84	258.38
736.17	258.01
736.50	257.62
736.83	257.41
737.16	257.06
737.49	256.68
737.82	256.36
738.15	255.99
738.48	255.67
738.81	255.33
739.14	254.97
739.47	254.62
739.80	254.26
740.13	253.93
740.46	253.59
740.79	253.23
741.12	252.91
741.45	252.55
741.78	252.14
742.11	251.87
742.44	251.51
742.77	251.23
743.10	250.92
743.43	250.62
743.75	250.23
744.08	250.03
744.41	249.80
744.74	249.48
745.07	249.24
745.40	248.98
745.73	248.76
746.06	248.45
746.39	248.21
746.71	247.93
747.04	247.60
747.37	247.32
747.70	247.07
748.03	246.79
748.36	246.56
748.68	246.33
749.01	246.07
749.34	245.86
749.67	245.62
750.00	245.43
750.33	245.28
750.65	245.05
750.98	244.71
751.31	244.45
751.64	244.24
751.97	244.05
752.29	243.83
752.62	243.57
752.95	243.38
753.28	243.18
753.60	242.98
753.93	242.85
754.26	242.70
754.59	242.50
754.91	242.30
755.24	242.14
755.57	241.98
755.90	241.83
756.22	241.59
756.55	241.39
756.88	241.19
757.20	240.95
757.53	240.77
757.86	240.62
758.19	240.48
758.51	240.34
758.84	240.19
759.17	240.04
759.49	239.88
759.82	239.78
760.15	239.62
760.47	239.50
760.80	239.33
761.13	239.21
761.45	239.09
761.78	238.98
762.11	238.83
762.43	238.69
762.76	238.56
763.08	238.51
763.41	238.39
763.74	238.27
764.06	238.12
764.39	238.00
764.71	237.92
765.04	237.78
765.37	237.65
765.69	237.48
766.02	237.36
766.34	237.26
766.67	237.11
767.00	236.99
767.32	236.92
767.65	236.87
767.97	236.72
768.30	236.64
768.62	236.53
768.95	236.44
769.27	236.34
769.60	236.22
769.92	236.10
770.25	236.02
770.57	235.88
770.90	235.81
771.22	235.71
771.55	235.58
771.87	235.51
772.20	235.42
772.52	235.41
772.85	235.42
773.17	235.34
773.50	235.27
773.82	235.18
774.15	235.07
774.47	234.92
774.80	234.82
775.12	234.72
775.45	234.62
775.77	234.53
776.09	234.45
776.42	234.36
776.74	234.29
777.07	234.19
777.39	234.12
777.72	234.03
778.04	233.97
778.36	233.89
778.69	233.82
779.01	233.75
779.33	233.58
779.66	233.40
779.98	233.31
780.31	233.20
780.63	233.19
780.95	233.11
781.28	233.03
781.60	232.97
781.92	232.86
782.25	232.81
782.57	232.72
782.89	232.63
783.22	232.58
783.54	232.47
783.86	232.43
784.19	232.38
784.51	232.35
784.83	232.25
785.16	232.19
785.48	232.14
785.80	232.07
786.12	232.06
786.45	231.98
786.77	231.90
787.09	231.87
787.42	231.77
787.74	231.72
788.06	231.72
788.38	231.65
788.71	231.63
789.03	231.59
789.35	231.55
789.67	231.51
789.99	231.50
790.32	231.48
790.64	231.43
790.96	231.48
791.28	231.40
791.61	231.36
791.93	231.35
792.25	231.28
792.57	231.33
792.89	231.25
793.21	231.28
793.54	231.26
793.86	231.18
794.18	231.16
794.50	231.10
794.82	231.07
795.14	231.09
795.47	231.05
795.79	231.00
796.11	230.96
796.43	230.94
796.75	230.91
797.07	230.89
797.39	230.90
797.71	230.80
798.04	230.75
798.36	230.74
798.68	230.72
799.00	230.71
799.32	230.62
799.64	230.64
799.96	230.56
800.28	230.54
800.60	230.54
800.92	230.54
801.24	230.51
801.56	230.48
801.89	230.40
802.21	230.38
802.53	230.37
802.85	230.37
803.17	230.41
803.49	230.36
803.81	230.32
804.13	230.24
804.45	230.20
804.77	230.19
805.09	230.18
805.41	230.12
805.73	230.09
806.05	230.05
806.37	229.99
806.69	229.99
807.01	229.97
807.33	229.98
807.65	229.91
807.97	229.92
808.28	229.88
808.60	229.87
808.92	229.85
809.24	229.85
809.56	229.80
809.88	229.72
810.20	229.71
810.52	229.72
810.84	229.68
811.16	229.66
811.48	229.62
811.80	229.63
812.12	229.60
812.43	229.56
812.75	229.52
813.07	229.48
813.39	229.44
813.71	229.41
814.03	229.35
814.35	229.33
814.67	229.30
814.98	229.26
815.30	229.26
815.62	229.23
815.94	229.14
816.26	229.17
816.58	229.15
816.89	229.14
817.21	229.08
817.53	229.09
817.85	229.06
818.17	229.03
818.48	228.97
818.80	228.99
819.12	228.95
819.44	228.93
819.76	228.92
820.07	228.89
820.39	228.87
820.71	228.88
821.03	228.85
821.34	228.80
821.66	228.80
821.98	228.78
822.30	228.77
822.61	228.83
822.93	228.79
823.25	228.75
823.57	228.71
823.88	228.75
824.20	228.75
824.52	228.74
824.83	228.75
825.15	228.73
825.47	228.71
825.79	228.72
826.10	228.67
826.42	228.68
826.74	228.68
827.05	228.69
827.37	228.65
827.69	228.65
828.00	228.66
828.32	228.66
828.64	228.64
828.95	228.67
829.27	228.63
829.58	228.60
829.90	228.61
830.22	228.62
830.53	228.56
830.85	228.53
831.17	228.53
831.48	228.51
831.80	228.48
832.11	228.49
832.43	228.46
832.75	228.49
833.06	228.52
833.38	228.51
833.69	228.50
834.01	228.51
834.32	228.50
834.64	228.47
834.96	228.47
835.27	228.46
835.59	228.41
835.90	228.41
836.22	228.44
836.53	228.42
836.85	228.40
837.16	228.49
837.48	228.47
837.79	228.49
838.11	228.50
838.42	228.54
838.74	228.53
839.05	228.52
839.37	228.51
839.68	228.45
840.00	228.46
840.31	228.46
840.63	228.46
840.94	228.44
841.26	228.44
841.57	228.41
841.88	228.44
842.20	228.41
842.51	228.39
842.83	228.36
843.14	228.43
843.46	228.42
843.77	228.38
844.08	228.42
844.40	228.39
844.71	228.36
845.03	228.36
845.34	228.35
845.65	228.36
845.97	228.35
846.28	228.35
846.60	228.34
846.91	228.29
847.22	228.27
847.54	228.29
847.85	228.30
848.16	228.28
848.48	228.24
848.79	228.31
849.10	228.32
849.42	228.29
849.73	228.22
850.04	228.24
850.36	228.17
850.67	228.18
850.98	228.16
851.30	228.21
851.61	228.20
851.92	228.15
852.23	228.16
852.55	228.16
852.86	228.17
853.17	228.17
853.49	228.20
853.80	228.19
854.11	228.23
854.42	228.18
854.74	228.16
855.05	228.17
855.36	228.08
855.67	228.04
855.99	228.04
856.30	228.11
856.61	228.08
856.92	228.06
857.23	228.03
857.55	228.01
857.86	227.95
858.17	227.94
858.48	227.92
858.79	227.88
859.11	227.87
859.42	227.90
859.73	227.89
860.04	227.88
860.35	227.84
860.66	227.78
860.98	227.82
861.29	227.84
861.60	227.81
861.91	227.85
862.22	227.85
862.53	227.87
862.84	227.76
863.16	227.81
863.47	227.82
863.78	227.79
864.09	227.80
864.40	227.78
864.71	227.79
865.02	227.80
865.33	227.78
865.64	227.75
865.95	227.73
866.27	227.75
866.58	227.73
866.89	227.77
867.20	227.80
867.51	227.76
867.82	227.75
868.13	227.80
868.44	227.78
868.75	227.78
869.06	227.78
869.37	227.75
869.68	227.70
869.99	227.69
870.30	227.72
870.61	227.71
870.92	227.73
871.23	227.73
871.54	227.74
871.85	227.75
872.16	227.77
872.47	227.74
872.78	227.71
873.09	227.74
873.40	227.73
873.71	227.72
874.02	227.75
874.33	227.76
874.64	227.74
874.95	227.75
875.26	227.74
875.56	227.74
875.87	227.78
876.18	227.79
876.49	227.90
876.80	227.88
877.11	227.87
877.42	227.90
877.73	227.90
878.04	227.91
878.35	227.93
878.66	227.90
878.96	227.91
879.27	227.88
879.58	227.87
879.89	227.85
880.20	227.88
880.51	227.87
880.82	227.86
881.12	227.86
881.43	227.85
881.74	227.87
882.05	227.87
882.36	227.87
882.67	227.90
882.97	227.81
883.28	227.79
883.59	227.81
883.90	227.79
884.21	227.82
884.51	227.79
884.82	227.77
885.13	227.79
885.44	227.79
885.74	227.79
886.05	227.78
886.36	227.80
886.67	227.78
886.98	227.81
887.28	227.82
887.59	227.83
887.90	227.81
888.20	227.78
888.51	227.80
888.82	227.75
889.13	227.73
889.43	227.77
889.74	227.77
890.05	227.73
890.35	227.72
890.66	227.68
890.97	227.69
891.28	227.71
891.58	227.70
891.89	227.69
892.20	227.71
892.50	227.72
892.81	227.68
893.12	227.64
893.42	227.59
893.73	227.58
894.04	227.58
894.34	227.58
894.65	227.57
894.95	227.56
895.26	227.56
895.57	227.58
895.87	227.52
896.18	227.56
896.48	227.58
896.79	227.57
897.10	227.59
897.40	227.59
897.71	227.62
898.01	227.65
898.32	227.67
898.63	227.66
898.93	227.64
899.24	227.65
899.54	227.66
899.85	227.67
900.15	227.64
900.46	227.60
900.76	227.63
901.07	227.65
901.38	227.64
901.68	227.65
901.99	227.60
902.29	227.57
902.60	227.55
902.90	227.54
903.21	227.55
903.51	227.55
903.82	227.55
904.12	227.51
904.43	227.50
904.73	227.47
905.03	227.47
905.34	227.56
905.64	227.55
905.95	227.56
906.25	227.55
906.56	227.57
906.86	227.62
907.17	227.59
907.47	227.58
907.77	227.57
908.08	227.56
908.38	227.56
908.69	227.58
908.99	227.61
909.30	227.59
909.60	227.59
909.90	227.56
910.21	227.53
910.51	227.53
910.81	227.56
911.12	227.58
911.42	227.56
911.73	227.47
912.03	227.50
912.33	227.52
912.64	227.53
912.94	227.53
913.24	227.53
913.55	227.54
913.85	227.51
914.15	227.53
914.46	227.61
914.76	227.59
915.06	227.59
915.37	227.57
915.67	227.59
915.97	227.57
916.27	227.57
916.58	227.57
916.88	227.56
917.18	227.52
917.49	227.62
917.79	227.64
918.09	227.63
918.39	227.68
918.70	227.66
919.00	227.64
919.30	227.66
919.60	227.60
919.91	227.59
920.21	227.59
920.51	227.55
920.81	227.50
921.12	227.54
921.42	227.52
921.72	227.51
922.02	227.49
922.32	227.50
922.63	227.52
922.93	227.55
923.23	227.55
923.53	227.54
923.83	227.44
924.13	227.43
924.44	227.41
924.74	227.37
925.04	227.39
925.34	227.36
925.64	227.32
925.94	227.32
926.24	227.36
926.55	227.34
926.85	227.37
927.15	227.37
927.45	227.36
927.75	227.35
928.05	227.36
928.35	227.35
928.65	227.36
928.95	227.34
929.26	227.34
929.56	227.33
929.86	227.31
930.16	227.29
930.46	227.28
930.76	227.30
931.06	227.23
931.36	227.18
931.66	227.23
931.96	227.25
932.26	227.28
932.56	227.22
932.86	227.22
933.16	227.21
933.46	227.20
933.76	227.19
934.06	227.21
934.36	227.24
934.66	227.26
934.96	227.24
935.26	227.26
935.56	227.28
935.86	227.27
936.16	227.29
936.46	227.30
936.76	227.34
937.06	227.31
937.36	227.33
937.66	227.37
937.96	227.36
938.26	227.31
938.56	227.29
938.86	227.35
939.16	227.38
939.46	227.42
939.76	227.42
940.06	227.43
940.35	227.45
940.65	227.40
940.95	227.40
941.25	227.41
941.55	227.39
941.85	227.37
942.15	227.43
942.45	227.48
942.75	227.47
943.04	227.44
943.34	227.47
943.64	227.49
943.94	227.47
944.24	227.48
944.54	227.52
944.84	227.51
945.13	227.44
945.43	227.45
945.73	227.43
946.03	227.41
946.33	227.40
946.62	227.38
946.92	227.38
947.22	227.38
947.52	227.37
947.82	227.39
948.11	227.35
948.41	227.31
948.71	227.27
949.01	227.32
949.31	227.32
949.60	227.34
949.90	227.36
950.20	227.40
950.50	227.40
950.79	227.39
951.09	227.41
951.39	227.41
951.69	227.38
951.98	227.43
952.28	227.46
952.58	227.45
952.87	227.45
953.17	227.45
953.47	227.47
953.76	227.50
954.06	227.50
954.36	227.50
954.66	227.48
954.95	227.49
955.25	227.47
955.55	227.47
955.84	227.43
956.14	227.43
956.44	227.37
956.73	227.34
957.03	227.35
957.32	227.37
957.62	227.40
957.92	227.44
958.21	227.40
958.51	227.47
958.81	227.47
959.10	227.48
959.40	227.52
959.69	227.54
959.99	227.53
960.29	227.51
960.58	227.51
960.88	227.54
961.17	227.54
961.47	227.55
961.76	227.54
962.06	227.59
962.36	227.61
962.65	227.65
962.95	227.67
963.24	227.70
963.54	227.70
963.83	227.71
964.13	227.67
964.42	227.64
964.72	227.59
965.01	227.62
965.31	227.62
965.60	227.60
965.90	227.64
966.19	227.60
966.49	227.63
966.78	227.63
967.08	227.64
967.37	227.63
967.67	227.63
967.96	227.66
968.26	227.64
968.55	227.63
968.85	227.60
969.14	227.59
969.43	227.55
969.73	227.53
970.02	227.50
970.32	227.50
970.61	227.51
970.91	227.48
971.20	227.47
971.49	227.45
971.79	227.44
972.08	227.37
972.38	227.41
972.67	227.40
972.96	227.43
973.26	227.40
973.55	227.42
973.85	227.37
974.14	227.36
974.43	227.37
974.73	227.34
975.02	227.34
975.31	227.34
975.61	227.34
975.90	227.34
976.19	227.29
976.49	227.30
976.78	227.29
977.07	227.29
977.37	227.27
977.66	227.27
977.95	227.26
978.24	227.24
978.54	227.22
978.83	227.21
979.12	227.19
979.42	227.19
979.71	227.17
980.00	227.20
980.29	227.20
980.59	227.16
980.88	227.18
981.17	227.17
981.46	227.16
981.76	227.11
982.05	227.16
982.34	227.21
982.63	227.19
982.93	227.18
983.22	227.21
983.51	227.22
983.80	227.26
984.09	227.27
984.39	227.26
984.68	227.26
984.97	227.28
985.26	227.30
985.55	227.30
985.85	227.29
986.14	227.27
986.43	227.27
986.72	227.25
987.01	227.20
987.30	227.22
987.59	227.22
987.89	227.25
988.18	227.20
988.47	227.17
988.76	227.18
989.05	227.17
989.34	227.10
989.63	227.11
989.92	227.12
990.22	227.13
990.51	227.16
990.80	227.16
991.09	227.15
991.38	227.14
991.67	227.11
991.96	227.10
992.25	227.12
992.54	227.08
992.83	227.11
993.12	227.10
993.41	227.11
993.70	227.18
993.99	227.19
994.28	227.22
994.58	227.24
994.87	227.25
995.16	227.28
995.45	227.33
995.74	227.32
996.03	227.30
996.32	227.30
996.61	227.30
996.90	227.30
997.19	227.28
997.48	227.30
997.77	227.33
998.06	227.35
998.34	227.34
998.63	227.32
998.92	227.33
999.21	227.38
999.50	227.37
999.79	227.32
1000.08	227.33
1000.37	227.34
1000.66	227.35
1000.95	227.34
1001.24	227.35
1001.53	227.32
1001.82	227.32
1002.11	227.29
1002.40	227.27
1002.68	227.31
1002.97	227.39
1003.26	227.37
1003.55	227.34
1003.84	227.34
1004.13	227.37
1004.42	227.36
1004.71	227.38
1004.99	227.36
1005.28	227.38
1005.57	227.36
1005.86	227.34
1006.15	227.32
1006.44	227.29
1006.72	227.31
1007.01	227.30
1007.30	227.29
1007.59	227.28
1007.88	227.27
1008.17	227.27
1008.45	227.26
1008.74	227.20
1009.03	227.14
1009.32	227.16
1009.60	227.18
1009.89	227.14
1010.18	227.08
1010.47	227.10
1010.76	227.10
1011.04	227.09
1011.33	227.09
1011.62	227.13
1011.91	227.15
1012.19	227.16
1012.48	227.17
1012.77	227.14
1013.05	227.22
1013.34	227.22
1013.63	227.22
1013.92	227.20
1014.20	227.23
1014.49	227.23
1014.78	227.25
1015.06	227.21
1015.35	227.20
1015.64	227.20
1015.92	227.19
1016.21	227.18
1016.50	227.19
1016.78	227.22
1017.07	227.22
1017.36	227.18
1017.64	227.12
1017.93	227.11
1018.22	227.09
1018.50	227.07
1018.79	227.08
1019.08	226.96
1019.36	226.93
1019.65	226.95
1019.93	226.98
1020.22	226.96
1020.51	226.98
1020.79	226.95
1021.08	226.90
1021.36	226.54
1021.65	227.27
1021.94	226.22
1022.22	226.56
1022.51	227.24
1022.79	227.20
1023.08	227.25
1023.36	227.42
1023.65	226.97
>>>>>End Processed Spectral Data<<<<<
