SpectraSuite Data File
++++++++++++++++++++++++++++++++++++
Date: Fri Feb 01 16:37:27 EST 2013
User: group
Dark Spectrum Present: No
Reference Spectrum Present: No
Number of Sampled Component Spectra: 1
Spectrometers: USB2E7196
Integration Time (usec): 35000 (USB2E7196)
Spectra Averaged: 100 (USB2E7196)
Boxcar Smoothing: 10 (USB2E7196)
Correct for Electrical Dark: No (USB2E7196)
Strobe/Lamp Enabled: No (USB2E7196)
Correct for Detector Non-linearity: No (USB2E7196)
Correct for Stray Light: No (USB2E7196)
Number of Pixels in Processed Spectrum: 2048
>>>>>Begin Processed Spectral Data<<<<<
339.09	0.00
339.48	214.05
339.86	215.72
340.24	216.16
340.63	218.56
341.01	221.51
341.39	221.44
341.78	222.16
342.16	223.69
342.54	223.86
342.93	212.52
343.31	223.26
343.69	223.80
344.07	224.26
344.46	224.72
344.84	225.08
345.22	225.31
345.60	225.57
345.99	225.75
346.37	225.87
346.75	225.98
347.13	226.08
347.52	226.10
347.90	226.17
348.28	226.17
348.66	226.24
349.05	226.24
349.43	226.27
349.81	226.31
350.19	226.37
350.57	226.43
350.96	226.48
351.34	226.55
351.72	226.67
352.10	226.78
352.48	226.83
352.87	226.89
353.25	226.95
353.63	226.98
354.01	227.06
354.39	227.17
354.77	227.24
355.15	227.32
355.54	227.39
355.92	227.42
356.30	227.47
356.68	227.61
357.06	227.66
357.44	227.70
357.82	227.77
358.20	227.86
358.58	227.90
358.97	227.95
359.35	228.03
359.73	228.09
360.11	228.11
360.49	228.19
360.87	228.23
361.25	228.27
361.63	228.34
362.01	228.39
362.39	228.39
362.77	228.42
363.15	228.42
363.53	228.46
363.91	228.46
364.29	228.51
364.67	228.42
365.05	228.44
365.43	228.47
365.81	228.49
366.19	228.50
366.57	228.54
366.95	228.55
367.33	228.51
367.71	228.45
368.09	228.45
368.47	228.45
368.85	228.41
369.23	228.42
369.61	228.37
369.99	228.36
370.37	228.34
370.75	228.34
371.13	228.29
371.51	228.23
371.89	228.20
372.27	228.15
372.65	228.10
373.03	228.06
373.41	227.99
373.78	227.90
374.16	227.82
374.54	227.72
374.92	227.65
375.30	227.56
375.68	227.51
376.06	227.44
376.44	227.36
376.82	227.32
377.19	227.23
377.57	227.15
377.95	227.05
378.33	226.98
378.71	226.84
379.09	226.79
379.47	226.73
379.84	226.67
380.22	226.60
380.60	226.51
380.98	226.43
381.36	226.39
381.73	226.31
382.11	226.24
382.49	226.20
382.87	226.12
383.25	226.05
383.62	226.12
384.00	226.04
384.38	225.96
384.76	225.93
385.13	225.91
385.51	225.85
385.89	225.79
386.27	225.77
386.64	225.76
387.02	225.70
387.40	225.65
387.78	225.62
388.15	225.61
388.53	225.58
388.91	225.55
389.29	225.49
389.66	225.49
390.04	225.49
390.42	225.47
390.79	225.45
391.17	225.44
391.55	225.31
391.92	225.31
392.30	225.32
392.68	225.28
393.05	225.25
393.43	225.29
393.81	225.29
394.18	225.26
394.56	225.29
394.94	225.32
395.31	225.36
395.69	225.40
396.06	225.42
396.44	225.45
396.82	225.49
397.19	225.59
397.57	225.63
397.95	225.66
398.32	225.68
398.70	225.76
399.07	225.84
399.45	225.89
399.82	225.94
400.20	225.96
400.58	226.05
400.95	226.08
401.33	226.15
401.70	226.32
402.08	226.38
402.45	226.45
402.83	226.56
403.20	226.61
403.58	226.68
403.95	226.81
404.33	226.95
404.71	227.07
405.08	227.25
405.46	227.34
405.83	227.49
406.21	227.64
406.58	227.79
406.96	227.94
407.33	228.13
407.70	228.33
408.08	228.63
408.45	228.86
408.83	229.14
409.20	229.32
409.58	229.48
409.95	229.78
410.33	230.06
410.70	230.33
411.08	230.68
411.45	230.97
411.82	231.24
412.20	231.58
412.57	231.97
412.95	232.25
413.32	232.68
413.69	233.10
414.07	233.53
414.44	233.96
414.82	234.47
415.19	235.03
415.56	235.62
415.94	236.15
416.31	236.75
416.68	237.33
417.06	238.05
417.43	238.74
417.81	239.47
418.18	240.22
418.55	241.04
418.93	241.90
419.30	242.84
419.67	243.82
420.04	244.74
420.42	245.72
420.79	246.88
421.16	248.01
421.54	249.19
421.91	250.39
422.28	251.67
422.66	252.99
423.03	254.25
423.40	255.54
423.77	256.99
424.15	258.42
424.52	259.93
424.89	261.57
425.26	263.08
425.64	264.53
426.01	266.12
426.38	267.74
426.75	269.39
427.13	271.09
427.50	272.87
427.87	274.76
428.24	276.63
428.61	278.40
428.99	280.33
429.36	282.40
429.73	284.45
430.10	286.47
430.47	288.52
430.85	290.63
431.22	292.86
431.59	295.18
431.96	297.37
432.33	299.85
432.70	302.21
433.08	305.02
433.45	307.65
433.82	310.23
434.19	313.11
434.56	315.92
434.93	318.49
435.30	321.04
435.68	323.91
436.05	326.71
436.42	329.44
436.79	331.90
437.16	334.63
437.53	337.42
437.90	340.17
438.27	342.89
438.64	345.67
439.01	348.26
439.38	350.43
439.75	352.60
440.13	355.05
440.50	357.34
440.87	359.15
441.24	361.02
441.61	363.20
441.98	364.66
442.35	366.42
442.72	368.32
443.09	370.14
443.46	371.07
443.83	371.62
444.20	372.14
444.57	372.99
444.94	373.25
445.31	373.61
445.68	373.96
446.05	374.02
446.42	373.67
446.79	373.23
447.16	372.83
447.53	372.48
447.90	371.34
448.27	370.20
448.64	368.64
449.01	367.54
449.37	365.58
449.74	363.71
450.11	361.50
450.48	359.05
450.85	356.55
451.22	354.43
451.59	352.45
451.96	350.49
452.33	347.92
452.70	345.59
453.07	342.76
453.43	339.91
453.80	337.14
454.17	334.46
454.54	331.96
454.91	329.25
455.28	326.61
455.65	324.13
456.02	321.71
456.38	319.54
456.75	316.91
457.12	314.69
457.49	312.47
457.86	310.32
458.23	308.46
458.59	306.44
458.96	304.37
459.33	302.54
459.70	300.69
460.07	299.21
460.43	297.47
460.80	295.88
461.17	294.46
461.54	293.03
461.91	291.61
462.27	290.17
462.64	288.96
463.01	287.63
463.38	286.35
463.74	285.00
464.11	283.91
464.48	282.90
464.85	281.78
465.21	280.97
465.58	280.03
465.95	278.96
466.32	278.04
466.68	277.19
467.05	276.33
467.42	275.48
467.78	274.58
468.15	273.79
468.52	273.16
468.88	272.33
469.25	271.54
469.62	270.93
469.98	270.27
470.35	269.64
470.72	269.06
471.08	268.41
471.45	267.91
471.82	267.41
472.18	266.83
472.55	266.43
472.92	265.92
473.28	265.49
473.65	265.08
474.02	264.67
474.38	264.32
474.75	264.04
475.11	263.72
475.48	263.50
475.85	263.26
476.21	263.03
476.58	262.87
476.94	262.75
477.31	262.62
477.67	262.49
478.04	262.39
478.41	262.37
478.77	262.47
479.14	262.42
479.50	262.41
479.87	262.49
480.23	262.59
480.60	262.68
480.96	262.80
481.33	263.00
481.69	263.23
482.06	263.43
482.42	263.59
482.79	263.86
483.15	264.16
483.52	264.51
483.88	264.82
484.25	265.20
484.61	265.62
484.98	266.05
485.34	266.59
485.71	267.20
486.07	267.77
486.44	268.32
486.80	269.00
487.17	269.73
487.53	270.54
487.90	271.36
488.26	272.28
488.62	273.24
488.99	274.20
489.35	275.23
489.72	276.30
490.08	277.47
490.44	278.66
490.81	279.97
491.17	281.33
491.54	282.82
491.90	284.34
492.26	286.00
492.63	287.74
492.99	289.46
493.36	291.31
493.72	293.34
494.08	295.43
494.45	297.67
494.81	300.01
495.17	302.41
495.54	304.94
495.90	307.62
496.26	310.45
496.63	313.42
496.99	316.52
497.35	319.85
497.72	323.29
498.08	326.82
498.44	330.51
498.80	334.44
499.17	338.55
499.53	342.69
499.89	347.03
500.26	351.56
500.62	356.29
500.98	361.29
501.34	366.42
501.71	371.73
502.07	377.15
502.43	382.79
502.79	388.66
503.16	394.75
503.52	400.96
503.88	407.34
504.24	413.98
504.60	420.90
504.97	428.08
505.33	435.42
505.69	443.18
506.05	450.96
506.41	458.86
506.78	466.98
507.14	475.52
507.50	484.22
507.86	493.22
508.22	502.44
508.59	511.64
508.95	521.21
509.31	531.07
509.67	541.17
510.03	551.46
510.39	562.01
510.75	572.85
511.12	583.85
511.48	595.16
511.84	606.62
512.20	618.13
512.56	630.00
512.92	642.09
513.28	654.41
513.64	666.87
514.00	679.56
514.37	692.50
514.73	705.51
515.09	718.52
515.45	731.80
515.81	745.36
516.17	759.29
516.53	773.30
516.89	787.49
517.25	801.66
517.61	816.17
517.97	830.57
518.33	844.96
518.69	859.67
519.05	874.48
519.41	889.65
519.77	905.10
520.13	920.43
520.49	935.80
520.85	951.07
521.21	966.65
521.57	982.81
521.93	998.44
522.29	1014.65
522.65	1030.90
523.01	1047.05
523.37	1062.98
523.73	1079.12
524.09	1095.14
524.45	1111.37
524.81	1128.00
525.17	1144.57
525.53	1161.29
525.89	1178.01
526.25	1194.80
526.61	1211.16
526.97	1227.70
527.33	1244.06
527.68	1260.63
528.04	1277.02
528.40	1293.45
528.76	1310.36
529.12	1326.78
529.48	1343.54
529.84	1359.42
530.20	1375.87
530.56	1392.62
530.91	1409.90
531.27	1426.47
531.63	1442.87
531.99	1459.31
532.35	1475.12
532.71	1490.88
533.07	1507.10
533.42	1522.96
533.78	1538.90
534.14	1555.06
534.50	1570.23
534.86	1585.90
535.21	1600.89
535.57	1616.62
535.93	1632.01
536.29	1646.67
536.65	1661.59
537.00	1676.17
537.36	1691.26
537.72	1705.52
538.08	1719.76
538.44	1733.34
538.79	1746.99
539.15	1760.42
539.51	1773.89
539.87	1787.99
540.22	1801.43
540.58	1814.89
540.94	1827.91
541.29	1840.43
541.65	1852.89
542.01	1865.93
542.37	1878.17
542.72	1890.44
543.08	1901.99
543.44	1914.14
543.79	1925.23
544.15	1936.15
544.51	1947.69
544.87	1958.70
545.22	1969.52
545.58	1979.80
545.94	1989.53
546.29	1999.43
546.65	2009.27
547.01	2018.58
547.36	2027.25
547.72	2035.76
548.07	2043.77
548.43	2051.97
548.79	2059.93
549.14	2067.71
549.50	2075.02
549.86	2082.51
550.21	2089.74
550.57	2097.02
550.92	2103.78
551.28	2111.09
551.64	2118.00
551.99	2124.43
552.35	2130.59
552.70	2136.77
553.06	2142.65
553.41	2148.90
553.77	2154.75
554.13	2160.76
554.48	2166.71
554.84	2172.16
555.19	2177.47
555.55	2182.56
555.90	2187.07
556.26	2192.21
556.61	2196.67
556.97	2201.08
557.32	2205.22
557.68	2209.46
558.03	2213.77
558.39	2217.38
558.74	2221.76
559.10	2225.78
559.45	2229.56
559.81	2233.87
560.16	2237.74
560.52	2241.16
560.87	2244.65
561.23	2247.63
561.58	2250.55
561.94	2253.08
562.29	2255.45
562.64	2258.17
563.00	2260.57
563.35	2264.08
563.71	2267.16
564.06	2270.48
564.42	2273.45
564.77	2276.20
565.12	2278.71
565.48	2280.63
565.83	2282.59
566.19	2284.07
566.54	2284.93
566.89	2286.03
567.25	2286.63
567.60	2287.89
567.96	2289.74
568.31	2290.55
568.66	2291.50
569.02	2292.15
569.37	2292.64
569.72	2293.63
570.08	2293.85
570.43	2294.04
570.78	2293.52
571.14	2292.03
571.49	2290.71
571.84	2290.26
572.20	2289.16
572.55	2288.01
572.90	2286.45
573.26	2284.98
573.61	2283.22
573.96	2281.51
574.31	2278.66
574.67	2275.75
575.02	2272.11
575.37	2268.51
575.72	2264.94
576.08	2261.60
576.43	2258.24
576.78	2254.63
577.13	2251.38
577.49	2248.27
577.84	2244.83
578.19	2241.05
578.54	2237.46
578.90	2233.45
579.25	2227.94
579.60	2223.07
579.95	2218.02
580.30	2213.01
580.66	2208.05
581.01	2203.12
581.36	2198.23
581.71	2194.22
582.06	2189.88
582.42	2185.63
582.77	2180.43
583.12	2175.89
583.47	2171.35
583.82	2166.52
584.17	2161.44
584.53	2156.07
584.88	2150.47
585.23	2144.97
585.58	2139.55
585.93	2133.96
586.28	2129.05
586.63	2124.23
586.98	2119.08
587.34	2114.48
587.69	2109.69
588.04	2104.52
588.39	2099.09
588.74	2092.72
589.09	2086.48
589.44	2079.68
589.79	2073.48
590.14	2067.82
590.49	2061.28
590.84	2054.86
591.19	2048.93
591.54	2042.59
591.89	2035.40
592.25	2028.84
592.60	2021.59
592.95	2014.18
593.30	2007.11
593.65	1999.43
594.00	1992.31
594.35	1985.18
594.70	1977.07
595.05	1970.18
595.40	1962.97
595.75	1955.43
596.10	1949.30
596.45	1942.68
596.80	1936.58
597.15	1930.23
597.50	1923.56
597.85	1917.21
598.19	1910.84
598.54	1904.08
598.89	1897.39
599.24	1891.53
599.59	1884.95
599.94	1878.62
600.29	1872.33
600.64	1865.66
600.99	1858.55
601.34	1851.92
601.69	1844.88
602.04	1838.29
602.39	1830.82
602.74	1824.11
603.08	1817.39
603.43	1810.60
603.78	1803.30
604.13	1796.24
604.48	1789.12
604.83	1782.14
605.18	1775.22
605.53	1767.34
605.87	1759.02
606.22	1751.67
606.57	1743.68
606.92	1736.13
607.27	1729.18
607.62	1722.44
607.96	1715.25
608.31	1708.70
608.66	1701.02
609.01	1693.69
609.36	1686.14
609.70	1678.18
610.05	1670.21
610.40	1662.70
610.75	1654.54
611.10	1646.88
611.44	1638.36
611.79	1630.18
612.14	1621.57
612.49	1612.42
612.83	1603.84
613.18	1595.83
613.53	1587.78
613.88	1579.35
614.22	1571.24
614.57	1562.52
614.92	1554.35
615.27	1546.97
615.61	1538.68
615.96	1530.70
616.31	1523.04
616.65	1515.60
617.00	1508.01
617.35	1500.18
617.70	1491.91
618.04	1483.43
618.39	1475.30
618.74	1467.78
619.08	1459.52
619.43	1451.89
619.78	1444.91
620.12	1437.85
620.47	1430.37
620.82	1422.27
621.16	1414.82
621.51	1407.11
621.85	1399.50
622.20	1391.14
622.55	1382.63
622.89	1374.70
623.24	1367.03
623.59	1359.54
623.93	1351.97
624.28	1344.65
624.62	1337.23
624.97	1329.93
625.32	1323.08
625.66	1315.93
626.01	1308.81
626.35	1301.42
626.70	1293.66
627.04	1286.08
627.39	1278.29
627.73	1270.85
628.08	1264.03
628.43	1256.81
628.77	1249.59
629.12	1242.09
629.46	1234.83
629.81	1227.34
630.15	1220.20
630.50	1212.83
630.84	1204.71
631.19	1196.79
631.53	1189.35
631.88	1181.69
632.22	1174.08
632.57	1166.77
632.91	1159.28
633.26	1151.78
633.60	1144.32
633.95	1137.16
634.29	1129.89
634.64	1123.18
634.98	1115.85
635.32	1108.66
635.67	1102.03
636.01	1095.31
636.36	1088.53
636.70	1081.92
637.05	1075.45
637.39	1068.92
637.73	1062.43
638.08	1056.51
638.42	1050.55
638.77	1044.17
639.11	1037.67
639.45	1031.37
639.80	1024.75
640.14	1018.38
640.49	1012.01
640.83	1005.84
641.17	999.68
641.52	993.58
641.86	986.98
642.20	981.08
642.55	974.59
642.89	968.07
643.23	961.48
643.58	955.73
643.92	949.65
644.26	943.59
644.61	937.55
644.95	931.50
645.29	925.01
645.64	918.34
645.98	911.99
646.32	906.04
646.66	899.97
647.01	894.25
647.35	888.64
647.69	882.76
648.04	877.10
648.38	871.26
648.72	865.24
649.06	859.35
649.41	853.43
649.75	847.61
650.09	841.63
650.43	835.94
650.78	829.79
651.12	823.87
651.46	818.23
651.80	812.54
652.14	807.28
652.49	801.93
652.83	796.70
653.17	791.07
653.51	785.47
653.85	779.95
654.20	774.30
654.54	768.24
654.88	762.44
655.22	756.60
655.56	750.94
655.90	745.47
656.25	740.23
656.59	734.92
656.93	729.85
657.27	724.78
657.61	719.34
657.95	714.18
658.29	709.06
658.64	703.66
658.98	698.32
659.32	692.76
659.66	687.55
660.00	682.37
660.34	677.39
660.68	672.45
661.02	667.55
661.36	662.86
661.70	658.35
662.05	653.98
662.39	649.69
662.73	645.22
663.07	640.83
663.41	636.36
663.75	631.89
664.09	627.30
664.43	622.94
664.77	618.82
665.11	614.59
665.45	610.44
665.79	606.50
666.13	602.38
666.47	598.26
666.81	594.11
667.15	589.89
667.49	585.93
667.83	582.04
668.17	578.01
668.51	573.90
668.85	569.83
669.19	565.97
669.53	562.07
669.87	558.22
670.21	554.55
670.55	550.88
670.89	547.44
671.23	543.98
671.57	540.34
671.91	536.84
672.25	533.37
672.58	529.81
672.92	526.31
673.26	523.13
673.60	519.94
673.94	516.86
674.28	513.88
674.62	510.99
674.96	507.97
675.30	505.14
675.64	502.22
675.97	499.49
676.31	496.65
676.65	493.78
676.99	491.08
677.33	488.16
677.67	485.38
678.01	482.34
678.34	479.36
678.68	476.51
679.02	473.68
679.36	470.92
679.70	468.22
680.04	465.46
680.37	462.62
680.71	459.80
681.05	457.11
681.39	454.46
681.73	451.72
682.06	449.14
682.40	446.59
682.74	444.03
683.08	441.43
683.42	438.83
683.75	436.31
684.09	433.71
684.43	431.24
684.77	428.82
685.10	426.47
685.44	424.22
685.78	421.93
686.12	419.64
686.45	417.35
686.79	415.11
687.13	412.91
687.46	410.77
687.80	408.67
688.14	406.48
688.48	404.45
688.81	402.29
689.15	400.16
689.49	398.00
689.82	395.96
690.16	393.94
690.50	391.98
690.83	390.05
691.17	388.11
691.51	386.21
691.84	384.31
692.18	382.41
692.52	380.43
692.85	378.50
693.19	376.66
693.52	374.83
693.86	372.95
694.20	371.22
694.53	369.37
694.87	367.49
695.21	365.70
695.54	363.86
695.88	362.15
696.21	360.45
696.55	358.77
696.88	357.07
697.22	355.33
697.56	353.70
697.89	352.05
698.23	350.44
698.56	348.87
698.90	347.32
699.23	345.65
699.57	344.12
699.90	342.59
700.24	341.02
700.58	339.54
700.91	338.06
701.25	336.59
701.58	335.27
701.92	333.93
702.25	332.55
702.59	331.17
702.92	329.82
703.26	328.50
703.59	327.25
703.93	326.07
704.26	324.84
704.60	323.54
704.93	322.27
705.26	321.02
705.60	319.76
705.93	318.60
706.27	317.58
706.60	316.47
706.94	315.37
707.27	314.20
707.61	313.07
707.94	312.05
708.27	310.96
708.61	309.83
708.94	308.80
709.28	307.81
709.61	306.85
709.94	305.87
710.28	304.84
710.61	303.79
710.95	302.70
711.28	301.80
711.61	300.85
711.95	299.95
712.28	299.02
712.61	298.12
712.95	297.14
713.28	296.24
713.61	295.36
713.95	294.49
714.28	293.67
714.61	292.78
714.95	291.91
715.28	291.05
715.61	290.14
715.95	289.27
716.28	288.41
716.61	287.56
716.95	286.73
717.28	285.95
717.61	285.26
717.94	284.51
718.28	283.70
718.61	282.95
718.94	282.22
719.27	281.56
719.61	280.89
719.94	280.23
720.27	279.53
720.60	278.87
720.94	278.26
721.27	277.62
721.60	277.04
721.93	276.47
722.27	275.88
722.60	275.35
722.93	274.78
723.26	274.29
723.59	273.73
723.93	273.19
724.26	272.64
724.59	272.03
724.92	271.47
725.25	270.99
725.59	270.50
725.92	269.98
726.25	269.46
726.58	268.96
726.91	268.48
727.24	267.97
727.57	267.53
727.91	267.00
728.24	266.59
728.57	266.16
728.90	265.71
729.23	265.25
729.56	264.84
729.89	264.38
730.22	263.89
730.55	263.46
730.89	263.04
731.22	262.64
731.55	262.26
731.88	261.87
732.21	261.38
732.54	261.00
732.87	260.59
733.20	260.18
733.53	259.78
733.86	259.41
734.19	259.02
734.52	258.62
734.85	258.34
735.18	257.91
735.51	257.56
735.84	257.16
736.17	256.82
736.50	256.41
736.83	256.20
737.16	255.88
737.49	255.54
737.82	255.17
738.15	254.81
738.48	254.44
738.81	254.17
739.14	253.92
739.47	253.62
739.80	253.36
740.13	253.08
740.46	252.78
740.79	252.47
741.12	252.19
741.45	251.88
741.78	251.56
742.11	251.33
742.44	251.00
742.77	250.78
743.10	250.51
743.43	250.25
743.75	249.90
744.08	249.73
744.41	249.46
744.74	249.21
745.07	248.96
745.40	248.73
745.73	248.46
746.06	248.17
746.39	247.86
746.71	247.53
747.04	247.22
747.37	246.94
747.70	246.68
748.03	246.40
748.36	246.18
748.68	245.90
749.01	245.57
749.34	245.32
749.67	245.03
750.00	244.80
750.33	244.61
750.65	244.36
750.98	243.98
751.31	243.75
751.64	243.53
751.97	243.35
752.29	243.08
752.62	242.81
752.95	242.58
753.28	242.36
753.60	242.16
753.93	241.98
754.26	241.81
754.59	241.56
754.91	241.33
755.24	241.09
755.57	240.87
755.90	240.70
756.22	240.50
756.55	240.25
756.88	240.02
757.20	239.76
757.53	239.58
757.86	239.43
758.19	239.27
758.51	239.10
758.84	238.89
759.17	238.72
759.49	238.58
759.82	238.44
760.15	238.31
760.47	238.13
760.80	237.93
761.13	237.79
761.45	237.63
761.78	237.50
762.11	237.36
762.43	237.22
762.76	237.10
763.08	236.94
763.41	236.86
763.74	236.74
764.06	236.59
764.39	236.47
764.71	236.32
765.04	236.15
765.37	236.01
765.69	235.88
766.02	235.76
766.34	235.63
766.67	235.48
767.00	235.37
767.32	235.31
767.65	235.28
767.97	235.14
768.30	235.05
768.62	234.93
768.95	234.80
769.27	234.68
769.60	234.54
769.92	234.44
770.25	234.34
770.57	234.22
770.90	234.11
771.22	233.95
771.55	233.88
771.87	233.81
772.20	233.69
772.52	233.72
772.85	233.71
773.17	233.59
773.50	233.50
773.82	233.38
774.15	233.28
774.47	233.12
774.80	233.04
775.12	232.95
775.45	232.91
775.77	232.85
776.09	232.80
776.42	232.75
776.74	232.69
777.07	232.58
777.39	232.51
777.72	232.48
778.04	232.43
778.36	232.31
778.69	232.26
779.01	232.19
779.33	232.01
779.66	231.86
779.98	231.80
780.31	231.74
780.63	231.73
780.95	231.66
781.28	231.66
781.60	231.57
781.92	231.52
782.25	231.43
782.57	231.37
782.89	231.31
783.22	231.28
783.54	231.21
783.86	231.19
784.19	231.11
784.51	231.07
784.83	231.04
785.16	230.98
785.48	230.94
785.80	230.90
786.12	230.87
786.45	230.80
786.77	230.77
787.09	230.74
787.42	230.66
787.74	230.61
788.06	230.54
788.38	230.54
788.71	230.49
789.03	230.48
789.35	230.43
789.67	230.35
789.99	230.29
790.32	230.23
790.64	230.21
790.96	230.23
791.28	230.17
791.61	230.12
791.93	230.09
792.25	230.04
792.57	230.04
792.89	229.97
793.21	229.94
793.54	229.89
793.86	229.80
794.18	229.76
794.50	229.70
794.82	229.66
795.14	229.58
795.47	229.54
795.79	229.49
796.11	229.43
796.43	229.42
796.75	229.34
797.07	229.31
797.39	229.22
797.71	229.12
798.04	229.11
798.36	229.09
798.68	229.05
799.00	229.01
799.32	228.94
799.64	228.94
799.96	228.94
800.28	228.94
800.60	228.92
800.92	228.90
801.24	228.86
801.56	228.80
801.89	228.78
802.21	228.76
802.53	228.70
802.85	228.65
803.17	228.67
803.49	228.63
803.81	228.60
804.13	228.57
804.45	228.55
804.77	228.51
805.09	228.44
805.41	228.42
805.73	228.36
806.05	228.33
806.37	228.28
806.69	228.22
807.01	228.16
807.33	228.16
807.65	228.10
807.97	228.13
808.28	228.13
808.60	228.11
808.92	228.04
809.24	228.11
809.56	228.10
809.88	228.05
810.20	228.05
810.52	228.08
810.84	228.04
811.16	228.00
811.48	227.97
811.80	228.02
812.12	228.02
812.43	228.02
812.75	227.97
813.07	227.94
813.39	227.92
813.71	227.88
814.03	227.85
814.35	227.83
814.67	227.76
814.98	227.72
815.30	227.69
815.62	227.67
815.94	227.58
816.26	227.60
816.58	227.54
816.89	227.55
817.21	227.50
817.53	227.50
817.85	227.51
818.17	227.52
818.48	227.44
818.80	227.43
819.12	227.39
819.44	227.39
819.76	227.36
820.07	227.36
820.39	227.37
820.71	227.37
821.03	227.37
821.34	227.37
821.66	227.40
821.98	227.40
822.30	227.43
822.61	227.49
822.93	227.45
823.25	227.48
823.57	227.44
823.88	227.44
824.20	227.45
824.52	227.45
824.83	227.45
825.15	227.44
825.47	227.42
825.79	227.45
826.10	227.46
826.42	227.49
826.74	227.48
827.05	227.48
827.37	227.48
827.69	227.44
828.00	227.40
828.32	227.37
828.64	227.37
828.95	227.40
829.27	227.35
829.58	227.33
829.90	227.31
830.22	227.31
830.53	227.28
830.85	227.27
831.17	227.26
831.48	227.22
831.80	227.17
832.11	227.15
832.43	227.13
832.75	227.08
833.06	227.08
833.38	227.07
833.69	227.06
834.01	227.06
834.32	227.07
834.64	227.07
834.96	227.03
835.27	227.02
835.59	226.99
835.90	226.95
836.22	226.97
836.53	226.95
836.85	226.94
837.16	227.03
837.48	226.99
837.79	227.01
838.11	227.03
838.42	227.09
838.74	227.10
839.05	227.07
839.37	227.09
839.68	227.05
840.00	227.06
840.31	227.04
840.63	226.99
840.94	226.96
841.26	226.97
841.57	226.97
841.88	226.99
842.20	226.95
842.51	226.93
842.83	226.90
843.14	226.99
843.46	226.98
843.77	226.90
844.08	226.89
844.40	226.80
844.71	226.76
845.03	226.73
845.34	226.71
845.65	226.69
845.97	226.67
846.28	226.69
846.60	226.65
846.91	226.61
847.22	226.59
847.54	226.59
847.85	226.58
848.16	226.54
848.48	226.48
848.79	226.50
849.10	226.49
849.42	226.49
849.73	226.38
850.04	226.35
850.36	226.32
850.67	226.34
850.98	226.35
851.30	226.36
851.61	226.33
851.92	226.31
852.23	226.35
852.55	226.37
852.86	226.34
853.17	226.35
853.49	226.39
853.80	226.44
854.11	226.43
854.42	226.43
854.74	226.47
855.05	226.49
855.36	226.48
855.67	226.49
855.99	226.49
856.30	226.61
856.61	226.65
856.92	226.68
857.23	226.67
857.55	226.69
857.86	226.68
858.17	226.67
858.48	226.66
858.79	226.63
859.11	226.60
859.42	226.58
859.73	226.55
860.04	226.54
860.35	226.51
860.66	226.48
860.98	226.50
861.29	226.48
861.60	226.45
861.91	226.46
862.22	226.44
862.53	226.44
862.84	226.33
863.16	226.33
863.47	226.31
863.78	226.30
864.09	226.29
864.40	226.28
864.71	226.29
865.02	226.32
865.33	226.31
865.64	226.31
865.95	226.33
866.27	226.43
866.58	226.42
866.89	226.42
867.20	226.43
867.51	226.38
867.82	226.38
868.13	226.44
868.44	226.41
868.75	226.46
869.06	226.42
869.37	226.43
869.68	226.40
869.99	226.42
870.30	226.44
870.61	226.45
870.92	226.47
871.23	226.47
871.54	226.47
871.85	226.49
872.16	226.51
872.47	226.48
872.78	226.40
873.09	226.41
873.40	226.43
873.71	226.45
874.02	226.49
874.33	226.49
874.64	226.49
874.95	226.49
875.26	226.45
875.56	226.46
875.87	226.44
876.18	226.43
876.49	226.50
876.80	226.50
877.11	226.48
877.42	226.49
877.73	226.49
878.04	226.48
878.35	226.47
878.66	226.47
878.96	226.47
879.27	226.50
879.58	226.48
879.89	226.46
880.20	226.47
880.51	226.43
880.82	226.43
881.12	226.40
881.43	226.39
881.74	226.36
882.05	226.37
882.36	226.35
882.67	226.34
882.97	226.22
883.28	226.19
883.59	226.19
883.90	226.18
884.21	226.22
884.51	226.21
884.82	226.21
885.13	226.19
885.44	226.23
885.74	226.21
886.05	226.20
886.36	226.20
886.67	226.15
886.98	226.19
887.28	226.19
887.59	226.18
887.90	226.18
888.20	226.18
888.51	226.20
888.82	226.21
889.13	226.20
889.43	226.30
889.74	226.30
890.05	226.30
890.35	226.25
890.66	226.21
890.97	226.20
891.28	226.17
891.58	226.14
891.89	226.11
892.20	226.09
892.50	226.09
892.81	226.08
893.12	226.08
893.42	226.06
893.73	226.06
894.04	226.07
894.34	226.09
894.65	226.08
894.95	226.07
895.26	226.06
895.57	226.10
895.87	225.98
896.18	225.98
896.48	226.01
896.79	226.03
897.10	226.05
897.40	226.03
897.71	226.04
898.01	226.05
898.32	226.06
898.63	226.05
898.93	226.08
899.24	226.08
899.54	226.07
899.85	226.04
900.15	226.02
900.46	226.03
900.76	226.03
901.07	226.05
901.38	226.03
901.68	226.03
901.99	226.01
902.29	226.05
902.60	226.03
902.90	226.01
903.21	226.01
903.51	226.00
903.82	226.03
904.12	226.04
904.43	226.07
904.73	226.04
905.03	226.07
905.34	226.16
905.64	226.18
905.95	226.19
906.25	226.22
906.56	226.25
906.86	226.26
907.17	226.23
907.47	226.25
907.77	226.23
908.08	226.22
908.38	226.24
908.69	226.26
908.99	226.32
909.30	226.34
909.60	226.33
909.90	226.33
910.21	226.32
910.51	226.35
910.81	226.31
911.12	226.33
911.42	226.36
911.73	226.24
912.03	226.22
912.33	226.25
912.64	226.21
912.94	226.19
913.24	226.18
913.55	226.20
913.85	226.19
914.15	226.23
914.46	226.25
914.76	226.22
915.06	226.22
915.37	226.17
915.67	226.15
915.97	226.16
916.27	226.15
916.58	226.12
916.88	226.09
917.18	226.08
917.49	226.15
917.79	226.13
918.09	226.13
918.39	226.16
918.70	226.14
919.00	226.15
919.30	226.16
919.60	226.12
919.91	226.10
920.21	226.07
920.51	226.00
920.81	225.99
921.12	225.98
921.42	225.97
921.72	225.98
922.02	225.96
922.32	225.92
922.63	225.89
922.93	225.94
923.23	225.93
923.53	225.91
923.83	225.82
924.13	225.79
924.44	225.74
924.74	225.71
925.04	225.70
925.34	225.71
925.64	225.66
925.94	225.67
926.24	225.72
926.55	225.68
926.85	225.74
927.15	225.70
927.45	225.69
927.75	225.63
928.05	225.62
928.35	225.63
928.65	225.68
928.95	225.70
929.26	225.65
929.56	225.65
929.86	225.68
930.16	225.64
930.46	225.65
930.76	225.67
931.06	225.64
931.36	225.63
931.66	225.63
931.96	225.64
932.26	225.63
932.56	225.59
932.86	225.63
933.16	225.58
933.46	225.60
933.76	225.59
934.06	225.62
934.36	225.64
934.66	225.65
934.96	225.62
935.26	225.60
935.56	225.62
935.86	225.58
936.16	225.58
936.46	225.61
936.76	225.60
937.06	225.61
937.36	225.61
937.66	225.62
937.96	225.61
938.26	225.59
938.56	225.60
938.86	225.61
939.16	225.61
939.46	225.64
939.76	225.62
940.06	225.65
940.35	225.63
940.65	225.59
940.95	225.59
941.25	225.55
941.55	225.54
941.85	225.55
942.15	225.59
942.45	225.59
942.75	225.60
943.04	225.59
943.34	225.67
943.64	225.66
943.94	225.68
944.24	225.67
944.54	225.71
944.84	225.70
945.13	225.66
945.43	225.67
945.73	225.68
946.03	225.71
946.33	225.69
946.62	225.70
946.92	225.74
947.22	225.74
947.52	225.77
947.82	225.80
948.11	225.79
948.41	225.79
948.71	225.77
949.01	225.76
949.31	225.75
949.60	225.67
949.90	225.69
950.20	225.65
950.50	225.68
950.79	225.66
951.09	225.68
951.39	225.71
951.69	225.72
951.98	225.74
952.28	225.76
952.58	225.76
952.87	225.78
953.17	225.78
953.47	225.76
953.76	225.76
954.06	225.77
954.36	225.75
954.66	225.74
954.95	225.76
955.25	225.78
955.55	225.80
955.84	225.81
956.14	225.83
956.44	225.81
956.73	225.79
957.03	225.80
957.32	225.82
957.62	225.79
957.92	225.79
958.21	225.78
958.51	225.87
958.81	225.88
959.10	225.89
959.40	225.92
959.69	225.93
959.99	225.97
960.29	225.94
960.58	225.96
960.88	226.00
961.17	225.99
961.47	226.00
961.76	225.98
962.06	226.00
962.36	225.99
962.65	226.00
962.95	225.98
963.24	225.98
963.54	225.96
963.83	225.96
964.13	225.97
964.42	225.91
964.72	225.82
965.01	225.84
965.31	225.80
965.60	225.77
965.90	225.86
966.19	225.83
966.49	225.85
966.78	225.85
967.08	225.82
967.37	225.87
967.67	225.85
967.96	225.88
968.26	225.88
968.55	225.87
968.85	225.88
969.14	225.91
969.43	225.91
969.73	225.89
970.02	225.91
970.32	225.88
970.61	225.91
970.91	225.87
971.20	225.86
971.49	225.84
971.79	225.82
972.08	225.71
972.38	225.70
972.67	225.68
972.96	225.69
973.26	225.68
973.55	225.71
973.85	225.68
974.14	225.65
974.43	225.67
974.73	225.63
975.02	225.64
975.31	225.61
975.61	225.61
975.90	225.59
976.19	225.59
976.49	225.59
976.78	225.56
977.07	225.58
977.37	225.58
977.66	225.57
977.95	225.58
978.24	225.60
978.54	225.60
978.83	225.61
979.12	225.59
979.42	225.59
979.71	225.53
980.00	225.53
980.29	225.56
980.59	225.52
980.88	225.57
981.17	225.56
981.46	225.55
981.76	225.54
982.05	225.60
982.34	225.58
982.63	225.62
982.93	225.66
983.22	225.66
983.51	225.64
983.80	225.69
984.09	225.70
984.39	225.71
984.68	225.68
984.97	225.71
985.26	225.71
985.55	225.71
985.85	225.73
986.14	225.75
986.43	225.75
986.72	225.73
987.01	225.70
987.30	225.71
987.59	225.73
987.89	225.75
988.18	225.74
988.47	225.79
988.76	225.76
989.05	225.75
989.34	225.74
989.63	225.78
989.92	225.78
990.22	225.80
990.51	225.81
990.80	225.81
991.09	225.80
991.38	225.80
991.67	225.79
991.96	225.76
992.25	225.74
992.54	225.72
992.83	225.76
993.12	225.75
993.41	225.77
993.70	225.83
993.99	225.83
994.28	225.84
994.58	225.83
994.87	225.83
995.16	225.82
995.45	225.83
995.74	225.81
996.03	225.83
996.32	225.82
996.61	225.84
996.90	225.85
997.19	225.87
997.48	225.89
997.77	225.87
998.06	225.90
998.34	225.92
998.63	225.92
998.92	225.94
999.21	226.00
999.50	225.98
999.79	225.92
1000.08	225.94
1000.37	225.94
1000.66	225.95
1000.95	225.98
1001.24	226.02
1001.53	226.02
1001.82	226.03
1002.11	226.03
1002.40	226.03
1002.68	226.07
1002.97	226.13
1003.26	226.15
1003.55	226.13
1003.84	226.18
1004.13	226.20
1004.42	226.19
1004.71	226.22
1004.99	226.18
1005.28	226.21
1005.57	226.24
1005.86	226.22
1006.15	226.18
1006.44	226.15
1006.72	226.13
1007.01	226.13
1007.30	226.16
1007.59	226.14
1007.88	226.10
1008.17	226.08
1008.45	226.05
1008.74	226.01
1009.03	225.94
1009.32	225.91
1009.60	225.89
1009.89	225.86
1010.18	225.79
1010.47	225.77
1010.76	225.74
1011.04	225.74
1011.33	225.71
1011.62	225.70
1011.91	225.75
1012.19	225.77
1012.48	225.77
1012.77	225.78
1013.05	225.82
1013.34	225.76
1013.63	225.76
1013.92	225.79
1014.20	225.76
1014.49	225.74
1014.78	225.74
1015.06	225.70
1015.35	225.69
1015.64	225.72
1015.92	225.73
1016.21	225.78
1016.50	225.80
1016.78	225.82
1017.07	225.83
1017.36	225.81
1017.64	225.81
1017.93	225.80
1018.22	225.78
1018.50	225.80
1018.79	225.80
1019.08	225.72
1019.36	225.72
1019.65	225.70
1019.93	225.73
1020.22	225.77
1020.51	225.83
1020.79	225.81
1021.08	225.60
1021.36	225.95
1021.65	226.14
1021.94	225.47
1022.22	225.49
1022.51	225.22
1022.79	226.42
1023.08	226.13
1023.36	226.50
1023.65	225.25
>>>>>End Processed Spectral Data<<<<<
