SpectraSuite Data File
++++++++++++++++++++++++++++++++++++
Date: Fri Feb 01 15:03:31 EST 2013
User: group
Dark Spectrum Present: No
Reference Spectrum Present: No
Number of Sampled Component Spectra: 1
Spectrometers: USB2E7196
Integration Time (usec): 35000 (USB2E7196)
Spectra Averaged: 100 (USB2E7196)
Boxcar Smoothing: 10 (USB2E7196)
Correct for Electrical Dark: No (USB2E7196)
Strobe/Lamp Enabled: No (USB2E7196)
Correct for Detector Non-linearity: No (USB2E7196)
Correct for Stray Light: No (USB2E7196)
Number of Pixels in Processed Spectrum: 2048
>>>>>Begin Processed Spectral Data<<<<<
339.09	0.00
339.48	215.25
339.86	216.05
340.24	217.83
340.63	219.66
341.01	222.43
341.39	222.41
341.78	223.23
342.16	224.51
342.54	225.08
342.93	213.49
343.31	224.28
343.69	224.82
344.07	225.31
344.46	225.74
344.84	226.14
345.22	226.35
345.60	226.60
345.99	226.79
346.37	226.91
346.75	227.02
347.13	227.10
347.52	227.14
347.90	227.18
348.28	227.22
348.66	227.27
349.05	227.27
349.43	227.29
349.81	227.34
350.19	227.36
350.57	227.42
350.96	227.48
351.34	227.56
351.72	227.64
352.10	227.78
352.48	227.85
352.87	227.88
353.25	227.97
353.63	228.02
354.01	228.10
354.39	228.21
354.77	228.29
355.15	228.38
355.54	228.48
355.92	228.54
356.30	228.59
356.68	228.71
357.06	228.73
357.44	228.80
357.82	228.86
358.20	228.93
358.58	229.01
358.97	229.05
359.35	229.15
359.73	229.24
360.11	229.28
360.49	229.34
360.87	229.38
361.25	229.43
361.63	229.52
362.01	229.57
362.39	229.57
362.77	229.59
363.15	229.63
363.53	229.65
363.91	229.68
364.29	229.73
364.67	229.62
365.05	229.65
365.43	229.65
365.81	229.69
366.19	229.74
366.57	229.75
366.95	229.74
367.33	229.69
367.71	229.65
368.09	229.59
368.47	229.55
368.85	229.50
369.23	229.47
369.61	229.37
369.99	229.36
370.37	229.35
370.75	229.35
371.13	229.27
371.51	229.19
371.89	229.16
372.27	229.11
372.65	229.08
373.03	229.04
373.41	228.96
373.78	228.88
374.16	228.75
374.54	228.69
374.92	228.62
375.30	228.55
375.68	228.45
376.06	228.39
376.44	228.33
376.82	228.27
377.19	228.17
377.57	228.10
377.95	228.00
378.33	227.89
378.71	227.77
379.09	227.69
379.47	227.59
379.84	227.50
380.22	227.40
380.60	227.31
380.98	227.22
381.36	227.13
381.73	227.04
382.11	226.98
382.49	226.91
382.87	226.83
383.25	226.79
383.62	226.83
384.00	226.74
384.38	226.66
384.76	226.60
385.13	226.60
385.51	226.55
385.89	226.47
386.27	226.42
386.64	226.39
387.02	226.33
387.40	226.30
387.78	226.23
388.15	226.22
388.53	226.20
388.91	226.14
389.29	226.12
389.66	226.10
390.04	226.08
390.42	226.07
390.79	226.06
391.17	226.02
391.55	225.89
391.92	225.92
392.30	225.94
392.68	225.96
393.05	225.95
393.43	225.96
393.81	225.99
394.18	225.98
394.56	225.98
394.94	226.04
395.31	226.09
395.69	226.15
396.06	226.19
396.44	226.21
396.82	226.27
397.19	226.38
397.57	226.46
397.95	226.56
398.32	226.57
398.70	226.62
399.07	226.71
399.45	226.83
399.82	226.88
400.20	226.96
400.58	227.03
400.95	227.07
401.33	227.18
401.70	227.37
402.08	227.50
402.45	227.63
402.83	227.77
403.20	227.90
403.58	228.00
403.95	228.15
404.33	228.33
404.71	228.48
405.08	228.66
405.46	228.81
405.83	228.97
406.21	229.14
406.58	229.36
406.96	229.54
407.33	229.68
407.70	229.94
408.08	230.23
408.45	230.49
408.83	230.76
409.20	230.98
409.58	231.17
409.95	231.44
410.33	231.72
410.70	231.98
411.08	232.29
411.45	232.59
411.82	232.91
412.20	233.27
412.57	233.69
412.95	233.98
413.32	234.38
413.69	234.80
414.07	235.27
414.44	235.73
414.82	236.21
415.19	236.82
415.56	237.33
415.94	237.85
416.31	238.49
416.68	239.14
417.06	239.87
417.43	240.57
417.81	241.30
418.18	242.08
418.55	242.91
418.93	243.77
419.30	244.70
419.67	245.60
420.04	246.53
420.42	247.51
420.79	248.68
421.16	249.81
421.54	250.96
421.91	252.12
422.28	253.35
422.66	254.69
423.03	255.97
423.40	257.35
423.77	258.76
424.15	260.17
424.52	261.62
424.89	263.20
425.26	264.71
425.64	266.17
426.01	267.75
426.38	269.37
426.75	271.03
427.13	272.75
427.50	274.61
427.87	276.51
428.24	278.38
428.61	280.08
428.99	282.05
429.36	284.18
429.73	286.29
430.10	288.32
430.47	290.35
430.85	292.47
431.22	294.70
431.59	297.10
431.96	299.35
432.33	301.84
432.70	304.28
433.08	307.09
433.45	309.74
433.82	312.38
434.19	315.30
434.56	318.09
434.93	320.77
435.30	323.32
435.68	326.21
436.05	329.05
436.42	331.92
436.79	334.43
437.16	337.12
437.53	339.98
437.90	342.81
438.27	345.58
438.64	348.41
439.01	350.98
439.38	353.21
439.75	355.36
440.13	357.90
440.50	360.18
440.87	362.05
441.24	364.01
441.61	366.14
441.98	367.64
442.35	369.47
442.72	371.35
443.09	373.16
443.46	374.11
443.83	374.68
444.20	375.18
444.57	375.99
444.94	376.27
445.31	376.55
445.68	376.91
446.05	376.99
446.42	376.63
446.79	376.21
447.16	375.77
447.53	375.50
447.90	374.30
448.27	373.12
448.64	371.58
449.01	370.42
449.37	368.45
449.74	366.57
450.11	364.31
450.48	361.82
450.85	359.32
451.22	357.20
451.59	355.18
451.96	353.24
452.33	350.65
452.70	348.31
453.07	345.52
453.43	342.60
453.80	339.81
454.17	337.09
454.54	334.53
454.91	331.81
455.28	329.07
455.65	326.58
456.02	324.13
456.38	321.96
456.75	319.30
457.12	317.05
457.49	314.79
457.86	312.62
458.23	310.75
458.59	308.73
458.96	306.66
459.33	304.80
459.70	302.97
460.07	301.45
460.43	299.71
460.80	298.06
461.17	296.61
461.54	295.14
461.91	293.73
462.27	292.31
462.64	291.04
463.01	289.70
463.38	288.39
463.74	287.03
464.11	285.89
464.48	284.86
464.85	283.72
465.21	282.82
465.58	281.90
465.95	280.75
466.32	279.79
466.68	278.87
467.05	277.97
467.42	277.04
467.78	276.10
468.15	275.26
468.52	274.57
468.88	273.68
469.25	272.88
469.62	272.22
469.98	271.52
470.35	270.88
470.72	270.27
471.08	269.60
471.45	269.07
471.82	268.48
472.18	267.90
472.55	267.48
472.92	266.95
473.28	266.45
473.65	266.02
474.02	265.61
474.38	265.19
474.75	264.84
475.11	264.46
475.48	264.19
475.85	263.94
476.21	263.72
476.58	263.52
476.94	263.36
477.31	263.17
477.67	263.00
478.04	262.88
478.41	262.79
478.77	262.83
479.14	262.74
479.50	262.71
479.87	262.73
480.23	262.83
480.60	262.87
480.96	262.99
481.33	263.19
481.69	263.34
482.06	263.56
482.42	263.75
482.79	264.00
483.15	264.31
483.52	264.70
483.88	265.03
484.25	265.43
484.61	265.86
484.98	266.32
485.34	266.86
485.71	267.45
486.07	268.07
486.44	268.64
486.80	269.37
487.17	270.10
487.53	270.92
487.90	271.74
488.26	272.71
488.62	273.71
488.99	274.65
489.35	275.72
489.72	276.83
490.08	278.03
490.44	279.26
490.81	280.57
491.17	281.86
491.54	283.35
491.90	284.91
492.26	286.54
492.63	288.26
492.99	289.98
493.36	291.85
493.72	293.87
494.08	295.94
494.45	298.17
494.81	300.52
495.17	302.94
495.54	305.52
495.90	308.15
496.26	310.91
496.63	313.86
496.99	316.95
497.35	320.21
497.72	323.62
498.08	327.14
498.44	330.80
498.80	334.74
499.17	338.74
499.53	342.88
499.89	347.22
500.26	351.70
500.62	356.43
500.98	361.40
501.34	366.49
501.71	371.83
502.07	377.24
502.43	382.89
502.79	388.70
503.16	394.76
503.52	401.05
503.88	407.45
504.24	414.11
504.60	420.98
504.97	428.07
505.33	435.36
505.69	443.05
506.05	450.88
506.41	458.71
506.78	466.91
507.14	475.30
507.50	483.98
507.86	492.99
508.22	502.18
508.59	511.32
508.95	520.87
509.31	530.62
509.67	540.74
510.03	550.93
510.39	561.51
510.75	572.31
511.12	583.26
511.48	594.59
511.84	606.00
512.20	617.53
512.56	629.47
512.92	641.68
513.28	654.02
513.64	666.47
514.00	679.26
514.37	692.17
514.73	705.20
515.09	718.29
515.45	731.54
515.81	745.18
516.17	759.20
516.53	773.25
516.89	787.41
517.25	801.62
517.61	816.10
517.97	830.49
518.33	845.01
518.69	859.77
519.05	874.78
519.41	889.96
519.77	905.45
520.13	920.94
520.49	936.31
520.85	951.83
521.21	967.57
521.57	983.87
521.93	999.72
522.29	1016.28
522.65	1032.56
523.01	1048.88
523.37	1065.00
523.73	1081.24
524.09	1097.44
524.45	1113.95
524.81	1130.66
525.17	1147.57
525.53	1164.59
525.89	1181.51
526.25	1198.38
526.61	1214.84
526.97	1231.74
527.33	1248.34
527.68	1265.11
528.04	1281.66
528.40	1298.43
528.76	1315.65
529.12	1332.31
529.48	1349.22
529.84	1365.39
530.20	1382.15
530.56	1399.34
530.91	1416.70
531.27	1433.50
531.63	1450.04
531.99	1466.68
532.35	1482.62
532.71	1498.49
533.07	1514.78
533.42	1530.63
533.78	1546.76
534.14	1563.08
534.50	1578.33
534.86	1594.25
535.21	1609.41
535.57	1625.52
535.93	1640.95
536.29	1655.75
536.65	1670.90
537.00	1685.80
537.36	1701.06
537.72	1715.62
538.08	1730.12
538.44	1743.96
538.79	1757.99
539.15	1771.95
539.51	1785.80
539.87	1800.29
540.22	1814.17
540.58	1828.11
540.94	1841.55
541.29	1854.61
541.65	1867.47
542.01	1880.87
542.37	1893.42
542.72	1906.02
543.08	1917.86
543.44	1930.30
543.79	1941.62
544.15	1952.54
544.51	1964.15
544.87	1975.15
545.22	1986.05
545.58	1996.21
545.94	2006.00
546.29	2015.86
546.65	2025.49
547.01	2034.60
547.36	2043.40
547.72	2051.93
548.07	2059.78
548.43	2068.10
548.79	2076.23
549.14	2083.63
549.50	2090.97
549.86	2098.65
550.21	2105.80
550.57	2112.86
550.92	2119.39
551.28	2126.50
551.64	2133.71
551.99	2140.18
552.35	2146.36
552.70	2152.30
553.06	2158.16
553.41	2164.59
553.77	2170.74
554.13	2176.85
554.48	2182.96
554.84	2188.25
555.19	2193.56
555.55	2198.63
555.90	2203.00
556.26	2207.56
556.61	2212.33
556.97	2216.35
557.32	2220.43
557.68	2224.69
558.03	2229.04
558.39	2232.89
558.74	2237.48
559.10	2241.18
559.45	2244.80
559.81	2249.14
560.16	2253.11
560.52	2256.37
560.87	2259.73
561.23	2262.30
561.58	2265.38
561.94	2267.85
562.29	2270.44
562.64	2273.01
563.00	2275.71
563.35	2279.25
563.71	2282.43
564.06	2285.56
564.42	2288.54
564.77	2290.97
565.12	2293.08
565.48	2294.86
565.83	2296.54
566.19	2297.57
566.54	2298.50
566.89	2299.49
567.25	2299.93
567.60	2301.30
567.96	2302.82
568.31	2303.62
568.66	2304.51
569.02	2304.87
569.37	2305.10
569.72	2305.73
570.08	2305.61
570.43	2305.24
570.78	2304.33
571.14	2302.69
571.49	2301.27
571.84	2300.90
572.20	2299.46
572.55	2298.14
572.90	2296.51
573.26	2294.94
573.61	2293.24
573.96	2291.27
574.31	2288.07
574.67	2284.81
575.02	2280.86
575.37	2277.47
575.72	2273.44
576.08	2270.17
576.43	2266.77
576.78	2263.02
577.13	2259.59
577.49	2256.42
577.84	2252.91
578.19	2249.23
578.54	2245.43
578.90	2240.94
579.25	2235.20
579.60	2230.13
579.95	2225.11
580.30	2220.00
580.66	2214.62
581.01	2209.56
581.36	2204.50
581.71	2200.27
582.06	2195.77
582.42	2191.18
582.77	2185.76
583.12	2181.02
583.47	2176.02
583.82	2170.71
584.17	2165.35
584.53	2159.85
584.88	2154.21
585.23	2148.24
585.58	2142.63
585.93	2137.10
586.28	2132.33
586.63	2127.10
586.98	2121.94
587.34	2117.19
587.69	2112.11
588.04	2106.84
588.39	2101.00
588.74	2094.48
589.09	2088.33
589.44	2081.37
589.79	2075.27
590.14	2069.57
590.49	2062.88
590.84	2056.38
591.19	2050.32
591.54	2043.68
591.89	2036.07
592.25	2029.15
592.60	2021.89
592.95	2014.09
593.30	2006.69
593.65	1998.97
594.00	1991.94
594.35	1984.69
594.70	1976.41
595.05	1968.99
595.40	1961.65
595.75	1954.05
596.10	1947.70
596.45	1940.68
596.80	1934.42
597.15	1927.67
597.50	1920.43
597.85	1914.06
598.19	1907.31
598.54	1900.11
598.89	1893.61
599.24	1887.61
599.59	1880.87
599.94	1874.61
600.29	1868.24
600.64	1861.51
600.99	1854.02
601.34	1847.07
601.69	1839.93
602.04	1833.07
602.39	1825.86
602.74	1818.98
603.08	1812.27
603.43	1805.48
603.78	1798.35
604.13	1791.11
604.48	1783.73
604.83	1776.85
605.18	1769.71
605.53	1761.63
605.87	1753.65
606.22	1746.37
606.57	1738.54
606.92	1731.23
607.27	1723.93
607.62	1717.07
607.96	1709.82
608.31	1703.13
608.66	1695.48
609.01	1688.02
609.36	1680.42
609.70	1672.30
610.05	1664.14
610.40	1656.39
610.75	1648.04
611.10	1640.45
611.44	1632.08
611.79	1624.10
612.14	1615.41
612.49	1606.39
612.83	1598.13
613.18	1590.00
613.53	1581.87
613.88	1573.30
614.22	1564.93
614.57	1556.55
614.92	1548.51
615.27	1540.96
615.61	1532.61
615.96	1524.74
616.31	1517.19
616.65	1510.00
617.00	1502.43
617.35	1495.00
617.70	1486.69
618.04	1478.19
618.39	1469.87
618.74	1462.36
619.08	1454.15
619.43	1446.74
619.78	1439.88
620.12	1432.73
620.47	1425.23
620.82	1417.02
621.16	1409.74
621.51	1402.30
621.85	1394.69
622.20	1386.17
622.55	1377.90
622.89	1370.21
623.24	1362.60
623.59	1355.26
623.93	1347.71
624.28	1340.56
624.62	1332.88
624.97	1325.75
625.32	1319.20
625.66	1312.17
626.01	1304.93
626.35	1297.55
626.70	1289.82
627.04	1282.05
627.39	1274.40
627.73	1267.03
628.08	1260.15
628.43	1252.74
628.77	1245.29
629.12	1237.71
629.46	1230.50
629.81	1223.13
630.15	1215.93
630.50	1208.58
630.84	1200.34
631.19	1192.48
631.53	1184.99
631.88	1177.48
632.22	1169.96
632.57	1162.59
632.91	1155.10
633.26	1147.70
633.60	1140.39
633.95	1133.35
634.29	1126.36
634.64	1119.66
634.98	1112.39
635.32	1105.37
635.67	1098.96
636.01	1092.47
636.36	1085.72
636.70	1079.32
637.05	1072.73
637.39	1066.30
637.73	1059.77
638.08	1053.95
638.42	1047.96
638.77	1041.54
639.11	1034.93
639.45	1028.67
639.80	1022.05
640.14	1015.75
640.49	1009.28
640.83	1002.99
641.17	996.69
641.52	990.39
641.86	983.95
642.20	978.14
642.55	971.81
642.89	965.28
643.23	958.72
643.58	953.03
643.92	946.80
644.26	940.72
644.61	934.74
644.95	928.67
645.29	922.05
645.64	915.28
645.98	908.98
646.32	903.22
646.66	897.13
647.01	891.29
647.35	885.55
647.69	879.80
648.04	874.30
648.38	868.53
648.72	862.55
649.06	856.50
649.41	850.63
649.75	844.61
650.09	838.66
650.43	832.90
650.78	826.71
651.12	820.84
651.46	815.12
651.80	809.32
652.14	804.01
652.49	798.68
652.83	793.61
653.17	787.89
653.51	782.21
653.85	776.83
654.20	771.21
654.54	765.25
654.88	759.53
655.22	753.67
655.56	748.04
655.90	742.64
656.25	737.44
656.59	732.10
656.93	727.11
657.27	721.96
657.61	716.52
657.95	711.48
658.29	706.42
658.64	701.25
658.98	696.00
659.32	690.52
659.66	685.33
660.00	679.98
660.34	675.10
660.68	670.20
661.02	665.21
661.36	660.53
661.70	656.04
662.05	651.72
662.39	647.45
662.73	643.03
663.07	638.73
663.41	634.29
663.75	629.75
664.09	625.17
664.43	620.88
664.77	616.82
665.11	612.51
665.45	608.44
665.79	604.42
666.13	600.34
666.47	596.31
666.81	592.17
667.15	588.18
667.49	584.34
667.83	580.62
668.17	576.68
668.51	572.67
668.85	568.71
669.19	564.87
669.53	561.03
669.87	557.18
670.21	553.48
670.55	549.88
670.89	546.47
671.23	543.12
671.57	539.59
671.91	536.07
672.25	532.74
672.58	529.23
672.92	525.85
673.26	522.73
673.60	519.62
673.94	516.50
674.28	513.57
674.62	510.65
674.96	507.54
675.30	504.66
675.64	501.76
675.97	499.02
676.31	496.17
676.65	493.29
676.99	490.60
677.33	487.72
677.67	484.90
678.01	481.93
678.34	478.96
678.68	476.12
679.02	473.31
679.36	470.48
679.70	467.76
680.04	464.97
680.37	462.06
680.71	459.29
681.05	456.70
681.39	453.99
681.73	451.35
682.06	448.83
682.40	446.30
682.74	443.73
683.08	441.17
683.42	438.62
683.75	436.14
684.09	433.62
684.43	431.13
684.77	428.67
685.10	426.31
685.44	424.03
685.78	421.73
686.12	419.51
686.45	417.27
686.79	415.00
687.13	412.90
687.46	410.78
687.80	408.64
688.14	406.49
688.48	404.45
688.81	402.16
689.15	400.06
689.49	397.93
689.82	395.91
690.16	393.92
690.50	391.95
690.83	390.02
691.17	388.02
691.51	386.14
691.84	384.36
692.18	382.42
692.52	380.40
692.85	378.49
693.19	376.62
693.52	374.79
693.86	373.00
694.20	371.18
694.53	369.31
694.87	367.49
695.21	365.69
695.54	363.88
695.88	362.20
696.21	360.46
696.55	358.74
696.88	357.11
697.22	355.45
697.56	353.83
697.89	352.17
698.23	350.61
698.56	349.00
698.90	347.41
699.23	345.84
699.57	344.35
699.90	342.84
700.24	341.31
700.58	339.80
700.91	338.30
701.25	336.87
701.58	335.56
701.92	334.24
702.25	332.90
702.59	331.54
702.92	330.23
703.26	328.90
703.59	327.66
703.93	326.42
704.26	325.16
704.60	323.89
704.93	322.61
705.26	321.36
705.60	320.21
705.93	319.07
706.27	318.02
706.60	316.96
706.94	315.87
707.27	314.74
707.61	313.67
707.94	312.67
708.27	311.58
708.61	310.52
708.94	309.49
709.28	308.48
709.61	307.52
709.94	306.55
710.28	305.58
710.61	304.63
710.95	303.60
711.28	302.69
711.61	301.73
711.95	300.85
712.28	299.92
712.61	298.93
712.95	298.01
713.28	297.15
713.61	296.30
713.95	295.42
714.28	294.63
714.61	293.83
714.95	292.99
715.28	292.15
715.61	291.30
715.95	290.47
716.28	289.70
716.61	288.92
716.95	288.12
717.28	287.37
717.61	286.59
717.94	285.84
718.28	285.04
718.61	284.32
718.94	283.63
719.27	282.98
719.61	282.34
719.94	281.67
720.27	280.99
720.60	280.29
720.94	279.70
721.27	279.05
721.60	278.45
721.93	277.86
722.27	277.31
722.60	276.78
722.93	276.19
723.26	275.58
723.59	274.97
723.93	274.45
724.26	273.92
724.59	273.35
724.92	272.84
725.25	272.31
725.59	271.81
725.92	271.30
726.25	270.81
726.58	270.32
726.91	269.84
727.24	269.33
727.57	268.88
727.91	268.35
728.24	267.87
728.57	267.40
728.90	266.94
729.23	266.45
729.56	265.98
729.89	265.55
730.22	265.10
730.55	264.70
730.89	264.25
731.22	263.79
731.55	263.40
731.88	262.98
732.21	262.57
732.54	262.14
732.87	261.73
733.20	261.29
733.53	260.94
733.86	260.52
734.19	260.13
734.52	259.73
734.85	259.42
735.18	259.01
735.51	258.60
735.84	258.23
736.17	257.91
736.50	257.56
736.83	257.30
737.16	256.94
737.49	256.61
737.82	256.27
738.15	255.95
738.48	255.59
738.81	255.24
739.14	254.90
739.47	254.57
739.80	254.26
740.13	253.95
740.46	253.61
740.79	253.29
741.12	252.96
741.45	252.65
741.78	252.29
742.11	252.03
742.44	251.70
742.77	251.40
743.10	251.04
743.43	250.68
743.75	250.30
744.08	250.16
744.41	249.87
744.74	249.59
745.07	249.31
745.40	249.07
745.73	248.85
746.06	248.58
746.39	248.31
746.71	247.98
747.04	247.70
747.37	247.43
747.70	247.19
748.03	246.96
748.36	246.76
748.68	246.51
749.01	246.28
749.34	246.07
749.67	245.83
750.00	245.64
750.33	245.49
750.65	245.27
750.98	244.94
751.31	244.70
751.64	244.50
751.97	244.31
752.29	244.08
752.62	243.83
752.95	243.62
753.28	243.44
753.60	243.30
753.93	243.15
754.26	242.97
754.59	242.76
754.91	242.58
755.24	242.37
755.57	242.18
755.90	241.97
756.22	241.77
756.55	241.61
756.88	241.38
757.20	241.17
757.53	240.97
757.86	240.80
758.19	240.65
758.51	240.48
758.84	240.27
759.17	240.11
759.49	239.97
759.82	239.87
760.15	239.73
760.47	239.56
760.80	239.40
761.13	239.26
761.45	239.10
761.78	238.94
762.11	238.82
762.43	238.68
762.76	238.56
763.08	238.45
763.41	238.29
763.74	238.18
764.06	238.04
764.39	237.90
764.71	237.74
765.04	237.59
765.37	237.47
765.69	237.38
766.02	237.25
766.34	237.12
766.67	236.98
767.00	236.85
767.32	236.79
767.65	236.72
767.97	236.65
768.30	236.56
768.62	236.47
768.95	236.35
769.27	236.24
769.60	236.15
769.92	235.99
770.25	235.91
770.57	235.80
770.90	235.69
771.22	235.59
771.55	235.54
771.87	235.46
772.20	235.32
772.52	235.28
772.85	235.28
773.17	235.19
773.50	235.07
773.82	234.98
774.15	234.83
774.47	234.70
774.80	234.60
775.12	234.52
775.45	234.41
775.77	234.35
776.09	234.27
776.42	234.18
776.74	234.14
777.07	234.04
777.39	233.95
777.72	233.90
778.04	233.81
778.36	233.72
778.69	233.63
779.01	233.58
779.33	233.41
779.66	233.23
779.98	233.15
780.31	233.10
780.63	233.05
780.95	232.99
781.28	232.86
781.60	232.77
781.92	232.68
782.25	232.62
782.57	232.52
782.89	232.43
783.22	232.36
783.54	232.31
783.86	232.25
784.19	232.18
784.51	232.16
784.83	232.12
785.16	232.05
785.48	231.97
785.80	231.91
786.12	231.93
786.45	231.87
786.77	231.81
787.09	231.76
787.42	231.68
787.74	231.64
788.06	231.63
788.38	231.59
788.71	231.52
789.03	231.47
789.35	231.44
789.67	231.41
789.99	231.37
790.32	231.28
790.64	231.29
790.96	231.30
791.28	231.22
791.61	231.19
791.93	231.15
792.25	231.12
792.57	231.15
792.89	231.07
793.21	231.07
793.54	231.05
793.86	230.98
794.18	230.96
794.50	230.90
794.82	230.84
795.14	230.81
795.47	230.82
795.79	230.79
796.11	230.76
796.43	230.71
796.75	230.70
797.07	230.66
797.39	230.61
797.71	230.55
798.04	230.51
798.36	230.49
798.68	230.46
799.00	230.45
799.32	230.37
799.64	230.34
799.96	230.29
800.28	230.26
800.60	230.24
800.92	230.23
801.24	230.20
801.56	230.17
801.89	230.13
802.21	230.11
802.53	230.07
802.85	230.06
803.17	230.08
803.49	230.02
803.81	230.01
804.13	229.98
804.45	229.94
804.77	229.91
805.09	229.85
805.41	229.85
805.73	229.81
806.05	229.78
806.37	229.77
806.69	229.74
807.01	229.71
807.33	229.70
807.65	229.65
807.97	229.68
808.28	229.65
808.60	229.63
808.92	229.62
809.24	229.66
809.56	229.59
809.88	229.55
810.20	229.58
810.52	229.60
810.84	229.54
811.16	229.49
811.48	229.46
811.80	229.50
812.12	229.43
812.43	229.41
812.75	229.36
813.07	229.31
813.39	229.29
813.71	229.28
814.03	229.26
814.35	229.25
814.67	229.20
814.98	229.19
815.30	229.15
815.62	229.10
815.94	229.00
816.26	229.04
816.58	229.02
816.89	228.97
817.21	228.91
817.53	228.88
817.85	228.88
818.17	228.86
818.48	228.80
818.80	228.82
819.12	228.78
819.44	228.78
819.76	228.74
820.07	228.74
820.39	228.70
820.71	228.67
821.03	228.63
821.34	228.61
821.66	228.59
821.98	228.59
822.30	228.59
822.61	228.65
822.93	228.58
823.25	228.54
823.57	228.56
823.88	228.58
824.20	228.59
824.52	228.59
824.83	228.58
825.15	228.55
825.47	228.53
825.79	228.55
826.10	228.50
826.42	228.51
826.74	228.46
827.05	228.46
827.37	228.45
827.69	228.44
828.00	228.39
828.32	228.36
828.64	228.33
828.95	228.38
829.27	228.32
829.58	228.32
829.90	228.30
830.22	228.26
830.53	228.22
830.85	228.17
831.17	228.14
831.48	228.14
831.80	228.13
832.11	228.11
832.43	228.07
832.75	228.06
833.06	228.09
833.38	228.10
833.69	228.06
834.01	228.05
834.32	228.03
834.64	228.05
834.96	228.07
835.27	228.08
835.59	228.03
835.90	227.99
836.22	227.99
836.53	228.00
836.85	227.98
837.16	228.07
837.48	228.09
837.79	228.11
838.11	228.13
838.42	228.15
838.74	228.16
839.05	228.16
839.37	228.17
839.68	228.12
840.00	228.14
840.31	228.15
840.63	228.11
840.94	228.14
841.26	228.12
841.57	228.10
841.88	228.08
842.20	228.08
842.51	228.08
842.83	228.07
843.14	228.17
843.46	228.16
843.77	228.08
844.08	228.08
844.40	228.04
844.71	228.04
845.03	228.01
845.34	227.98
845.65	227.97
845.97	227.98
846.28	228.01
846.60	227.97
846.91	227.98
847.22	227.99
847.54	228.01
847.85	228.03
848.16	228.03
848.48	228.01
848.79	228.00
849.10	227.99
849.42	227.97
849.73	227.86
850.04	227.85
850.36	227.81
850.67	227.80
850.98	227.79
851.30	227.79
851.61	227.77
851.92	227.80
852.23	227.86
852.55	227.85
852.86	227.82
853.17	227.85
853.49	227.86
853.80	227.88
854.11	227.88
854.42	227.86
854.74	227.84
855.05	227.85
855.36	227.85
855.67	227.85
855.99	227.86
856.30	227.98
856.61	228.00
856.92	228.03
857.23	228.01
857.55	228.00
857.86	227.98
858.17	227.98
858.48	227.94
858.79	227.89
859.11	227.87
859.42	227.87
859.73	227.83
860.04	227.81
860.35	227.77
860.66	227.71
860.98	227.71
861.29	227.71
861.60	227.68
861.91	227.67
862.22	227.68
862.53	227.66
862.84	227.54
863.16	227.53
863.47	227.50
863.78	227.50
864.09	227.51
864.40	227.54
864.71	227.52
865.02	227.54
865.33	227.54
865.64	227.54
865.95	227.55
866.27	227.64
866.58	227.61
866.89	227.62
867.20	227.63
867.51	227.59
867.82	227.60
868.13	227.61
868.44	227.58
868.75	227.57
869.06	227.54
869.37	227.55
869.68	227.54
869.99	227.56
870.30	227.56
870.61	227.56
870.92	227.51
871.23	227.52
871.54	227.53
871.85	227.54
872.16	227.56
872.47	227.52
872.78	227.45
873.09	227.45
873.40	227.44
873.71	227.45
874.02	227.46
874.33	227.44
874.64	227.44
874.95	227.46
875.26	227.42
875.56	227.45
875.87	227.41
876.18	227.39
876.49	227.48
876.80	227.48
877.11	227.48
877.42	227.50
877.73	227.51
878.04	227.48
878.35	227.47
878.66	227.46
878.96	227.46
879.27	227.48
879.58	227.51
879.89	227.50
880.20	227.53
880.51	227.53
880.82	227.52
881.12	227.54
881.43	227.51
881.74	227.52
882.05	227.50
882.36	227.56
882.67	227.57
882.97	227.46
883.28	227.44
883.59	227.45
883.90	227.43
884.21	227.43
884.51	227.43
884.82	227.45
885.13	227.44
885.44	227.46
885.74	227.45
886.05	227.41
886.36	227.41
886.67	227.36
886.98	227.43
887.28	227.45
887.59	227.44
887.90	227.44
888.20	227.44
888.51	227.46
888.82	227.43
889.13	227.46
889.43	227.52
889.74	227.52
890.05	227.48
890.35	227.47
890.66	227.47
890.97	227.49
891.28	227.42
891.58	227.41
891.89	227.40
892.20	227.39
892.50	227.41
892.81	227.39
893.12	227.40
893.42	227.34
893.73	227.32
894.04	227.30
894.34	227.30
894.65	227.27
894.95	227.24
895.26	227.22
895.57	227.22
895.87	227.12
896.18	227.13
896.48	227.18
896.79	227.18
897.10	227.16
897.40	227.15
897.71	227.18
898.01	227.17
898.32	227.17
898.63	227.16
898.93	227.15
899.24	227.15
899.54	227.12
899.85	227.14
900.15	227.12
900.46	227.11
900.76	227.13
901.07	227.12
901.38	227.11
901.68	227.13
901.99	227.08
902.29	227.08
902.60	227.08
902.90	227.06
903.21	227.04
903.51	227.04
903.82	227.05
904.12	227.06
904.43	227.10
904.73	227.07
905.03	227.06
905.34	227.16
905.64	227.15
905.95	227.14
906.25	227.11
906.56	227.14
906.86	227.14
907.17	227.15
907.47	227.16
907.77	227.18
908.08	227.17
908.38	227.21
908.69	227.25
908.99	227.23
909.30	227.20
909.60	227.20
909.90	227.20
910.21	227.18
910.51	227.13
910.81	227.13
911.12	227.12
911.42	227.14
911.73	227.04
912.03	227.09
912.33	227.12
912.64	227.14
912.94	227.17
913.24	227.18
913.55	227.18
913.85	227.21
914.15	227.23
914.46	227.24
914.76	227.22
915.06	227.18
915.37	227.20
915.67	227.24
915.97	227.24
916.27	227.22
916.58	227.24
916.88	227.22
917.18	227.20
917.49	227.30
917.79	227.27
918.09	227.28
918.39	227.26
918.70	227.26
919.00	227.23
919.30	227.23
919.60	227.21
919.91	227.19
920.21	227.19
920.51	227.15
920.81	227.16
921.12	227.22
921.42	227.25
921.72	227.23
922.02	227.21
922.32	227.26
922.63	227.29
922.93	227.32
923.23	227.36
923.53	227.38
923.83	227.30
924.13	227.32
924.44	227.33
924.74	227.33
925.04	227.36
925.34	227.34
925.64	227.30
925.94	227.28
926.24	227.32
926.55	227.28
926.85	227.30
927.15	227.30
927.45	227.26
927.75	227.25
928.05	227.25
928.35	227.24
928.65	227.19
928.95	227.17
929.26	227.11
929.56	227.16
929.86	227.16
930.16	227.15
930.46	227.15
930.76	227.13
931.06	227.10
931.36	227.07
931.66	227.08
931.96	227.10
932.26	227.14
932.56	227.09
932.86	227.08
933.16	227.07
933.46	227.05
933.76	227.03
934.06	227.07
934.36	227.11
934.66	227.12
934.96	227.14
935.26	227.15
935.56	227.17
935.86	227.12
936.16	227.06
936.46	227.06
936.76	227.05
937.06	227.05
937.36	227.07
937.66	227.08
937.96	227.04
938.26	227.01
938.56	226.95
938.86	226.98
939.16	226.99
939.46	226.99
939.76	226.97
940.06	226.99
940.35	226.94
940.65	226.88
940.95	226.89
941.25	226.84
941.55	226.84
941.85	226.85
942.15	226.89
942.45	226.96
942.75	226.97
943.04	226.97
943.34	226.98
943.64	226.99
943.94	227.00
944.24	227.04
944.54	227.05
944.84	227.09
945.13	227.05
945.43	227.06
945.73	227.06
946.03	227.08
946.33	227.07
946.62	227.09
946.92	227.09
947.22	227.12
947.52	227.15
947.82	227.15
948.11	227.13
948.41	227.09
948.71	227.08
949.01	227.09
949.31	227.10
949.60	227.11
949.90	227.12
950.20	227.13
950.50	227.15
950.79	227.15
951.09	227.17
951.39	227.19
951.69	227.19
951.98	227.21
952.28	227.23
952.58	227.22
952.87	227.21
953.17	227.24
953.47	227.23
953.76	227.23
954.06	227.24
954.36	227.23
954.66	227.21
954.95	227.24
955.25	227.24
955.55	227.25
955.84	227.25
956.14	227.26
956.44	227.26
956.73	227.24
957.03	227.25
957.32	227.29
957.62	227.25
957.92	227.32
958.21	227.33
958.51	227.42
958.81	227.43
959.10	227.43
959.40	227.47
959.69	227.48
959.99	227.47
960.29	227.44
960.58	227.43
960.88	227.47
961.17	227.46
961.47	227.46
961.76	227.46
962.06	227.46
962.36	227.45
962.65	227.44
962.95	227.45
963.24	227.46
963.54	227.42
963.83	227.45
964.13	227.40
964.42	227.37
964.72	227.29
965.01	227.30
965.31	227.30
965.60	227.26
965.90	227.29
966.19	227.30
966.49	227.32
966.78	227.34
967.08	227.36
967.37	227.33
967.67	227.32
967.96	227.32
968.26	227.31
968.55	227.30
968.85	227.29
969.14	227.27
969.43	227.24
969.73	227.25
970.02	227.21
970.32	227.20
970.61	227.15
970.91	227.10
971.20	227.08
971.49	227.05
971.79	227.05
972.08	226.96
972.38	226.95
972.67	226.91
972.96	226.91
973.26	226.86
973.55	226.89
973.85	226.85
974.14	226.82
974.43	226.80
974.73	226.79
975.02	226.78
975.31	226.81
975.61	226.81
975.90	226.76
976.19	226.76
976.49	226.72
976.78	226.76
977.07	226.75
977.37	226.73
977.66	226.74
977.95	226.74
978.24	226.78
978.54	226.78
978.83	226.77
979.12	226.77
979.42	226.75
979.71	226.72
980.00	226.73
980.29	226.75
980.59	226.74
980.88	226.77
981.17	226.77
981.46	226.76
981.76	226.75
982.05	226.81
982.34	226.84
982.63	226.88
982.93	226.89
983.22	226.92
983.51	226.93
983.80	226.98
984.09	226.96
984.39	226.93
984.68	226.93
984.97	226.97
985.26	226.98
985.55	227.03
985.85	227.03
986.14	227.04
986.43	227.06
986.72	227.06
987.01	227.02
987.30	227.02
987.59	226.98
987.89	227.00
988.18	226.98
988.47	226.96
988.76	226.96
989.05	226.94
989.34	226.97
989.63	226.99
989.92	226.93
990.22	226.98
990.51	226.99
990.80	227.01
991.09	227.01
991.38	227.02
991.67	226.99
991.96	226.99
992.25	226.98
992.54	226.95
992.83	226.95
993.12	226.95
993.41	227.00
993.70	227.05
993.99	227.06
994.28	227.06
994.58	227.10
994.87	227.10
995.16	227.11
995.45	227.08
995.74	227.06
996.03	227.09
996.32	227.05
996.61	227.06
996.90	227.03
997.19	227.01
997.48	227.02
997.77	227.02
998.06	227.05
998.34	227.07
998.63	227.08
998.92	227.10
999.21	227.15
999.50	227.15
999.79	227.13
1000.08	227.16
1000.37	227.19
1000.66	227.16
1000.95	227.21
1001.24	227.19
1001.53	227.22
1001.82	227.22
1002.11	227.19
1002.40	227.21
1002.68	227.24
1002.97	227.32
1003.26	227.30
1003.55	227.26
1003.84	227.27
1004.13	227.25
1004.42	227.24
1004.71	227.24
1004.99	227.23
1005.28	227.24
1005.57	227.24
1005.86	227.19
1006.15	227.14
1006.44	227.09
1006.72	227.09
1007.01	227.04
1007.30	227.06
1007.59	227.03
1007.88	227.02
1008.17	226.99
1008.45	227.01
1008.74	226.96
1009.03	226.95
1009.32	226.95
1009.60	226.93
1009.89	226.91
1010.18	226.89
1010.47	226.88
1010.76	226.90
1011.04	226.87
1011.33	226.88
1011.62	226.83
1011.91	226.84
1012.19	226.85
1012.48	226.87
1012.77	226.87
1013.05	226.91
1013.34	226.88
1013.63	226.86
1013.92	226.90
1014.20	226.94
1014.49	226.91
1014.78	226.93
1015.06	226.88
1015.35	226.89
1015.64	226.92
1015.92	226.96
1016.21	226.99
1016.50	226.99
1016.78	226.95
1017.07	226.95
1017.36	226.91
1017.64	226.90
1017.93	226.94
1018.22	226.92
1018.50	226.90
1018.79	226.87
1019.08	226.81
1019.36	226.86
1019.65	226.89
1019.93	226.88
1020.22	226.88
1020.51	226.93
1020.79	226.91
1021.08	226.44
1021.36	226.68
1021.65	226.50
1021.94	226.17
1022.22	227.58
1022.51	227.25
1022.79	226.97
1023.08	227.01
1023.36	227.95
1023.65	226.59
>>>>>End Processed Spectral Data<<<<<
