SpectraSuite Data File
++++++++++++++++++++++++++++++++++++
Date: Fri Feb 01 16:13:55 EST 2013
User: group
Dark Spectrum Present: No
Reference Spectrum Present: No
Number of Sampled Component Spectra: 1
Spectrometers: USB2E7196
Integration Time (usec): 35000 (USB2E7196)
Spectra Averaged: 100 (USB2E7196)
Boxcar Smoothing: 10 (USB2E7196)
Correct for Electrical Dark: No (USB2E7196)
Strobe/Lamp Enabled: No (USB2E7196)
Correct for Detector Non-linearity: No (USB2E7196)
Correct for Stray Light: No (USB2E7196)
Number of Pixels in Processed Spectrum: 2048
>>>>>Begin Processed Spectral Data<<<<<
339.09	0.00
339.48	213.81
339.86	215.55
340.24	216.84
340.63	218.45
341.01	221.23
341.39	221.41
341.78	221.63
342.16	222.78
342.54	223.84
342.93	212.48
343.31	223.20
343.69	223.76
344.07	224.23
344.46	224.66
344.84	225.04
345.22	225.28
345.60	225.52
345.99	225.76
346.37	225.94
346.75	226.08
347.13	226.14
347.52	226.18
347.90	226.24
348.28	226.31
348.66	226.35
349.05	226.36
349.43	226.38
349.81	226.42
350.19	226.51
350.57	226.55
350.96	226.63
351.34	226.75
351.72	226.82
352.10	226.93
352.48	227.01
352.87	227.06
353.25	227.11
353.63	227.22
354.01	227.30
354.39	227.38
354.77	227.46
355.15	227.57
355.54	227.66
355.92	227.72
356.30	227.77
356.68	227.92
357.06	228.00
357.44	228.06
357.82	228.11
358.20	228.17
358.58	228.25
358.97	228.33
359.35	228.40
359.73	228.52
360.11	228.57
360.49	228.62
360.87	228.67
361.25	228.75
361.63	228.79
362.01	228.81
362.39	228.84
362.77	228.86
363.15	228.90
363.53	228.92
363.91	228.90
364.29	228.89
364.67	228.78
365.05	228.75
365.43	228.77
365.81	228.79
366.19	228.83
366.57	228.84
366.95	228.83
367.33	228.75
367.71	228.67
368.09	228.67
368.47	228.64
368.85	228.59
369.23	228.56
369.61	228.46
369.99	228.45
370.37	228.44
370.75	228.42
371.13	228.35
371.51	228.29
371.89	228.28
372.27	228.25
372.65	228.20
373.03	228.16
373.41	228.11
373.78	228.03
374.16	227.93
374.54	227.84
374.92	227.76
375.30	227.76
375.68	227.72
376.06	227.64
376.44	227.59
376.82	227.57
377.19	227.50
377.57	227.45
377.95	227.34
378.33	227.25
378.71	227.12
379.09	227.07
379.47	227.01
379.84	226.94
380.22	226.85
380.60	226.78
380.98	226.71
381.36	226.61
381.73	226.53
382.11	226.48
382.49	226.44
382.87	226.37
383.25	226.28
383.62	226.34
384.00	226.28
384.38	226.20
384.76	226.17
385.13	226.16
385.51	226.11
385.89	226.03
386.27	225.99
386.64	225.98
387.02	225.90
387.40	225.87
387.78	225.83
388.15	225.84
388.53	225.81
388.91	225.77
389.29	225.77
389.66	225.76
390.04	225.72
390.42	225.67
390.79	225.68
391.17	225.65
391.55	225.55
391.92	225.54
392.30	225.53
392.68	225.49
393.05	225.48
393.43	225.50
393.81	225.54
394.18	225.55
394.56	225.58
394.94	225.63
395.31	225.60
395.69	225.66
396.06	225.67
396.44	225.71
396.82	225.73
397.19	225.82
397.57	225.85
397.95	225.92
398.32	225.99
398.70	226.05
399.07	226.13
399.45	226.15
399.82	226.21
400.20	226.27
400.58	226.33
400.95	226.34
401.33	226.44
401.70	226.60
402.08	226.66
402.45	226.73
402.83	226.82
403.20	226.96
403.58	227.06
403.95	227.19
404.33	227.33
404.71	227.49
405.08	227.64
405.46	227.77
405.83	227.91
406.21	228.05
406.58	228.19
406.96	228.34
407.33	228.55
407.70	228.77
408.08	229.06
408.45	229.31
408.83	229.57
409.20	229.77
409.58	229.92
409.95	230.21
410.33	230.48
410.70	230.75
411.08	231.05
411.45	231.37
411.82	231.65
412.20	232.03
412.57	232.43
412.95	232.76
413.32	233.16
413.69	233.61
414.07	234.04
414.44	234.50
414.82	235.01
415.19	235.57
415.56	236.12
415.94	236.67
416.31	237.29
416.68	237.90
417.06	238.62
417.43	239.30
417.81	240.03
418.18	240.83
418.55	241.68
418.93	242.54
419.30	243.42
419.67	244.38
420.04	245.31
420.42	246.31
420.79	247.48
421.16	248.63
421.54	249.78
421.91	250.99
422.28	252.24
422.66	253.53
423.03	254.80
423.40	256.12
423.77	257.48
424.15	258.93
424.52	260.43
424.89	262.01
425.26	263.56
425.64	264.99
426.01	266.58
426.38	268.25
426.75	269.90
427.13	271.62
427.50	273.42
427.87	275.29
428.24	277.11
428.61	278.85
428.99	280.80
429.36	282.90
429.73	284.98
430.10	287.04
430.47	289.12
430.85	291.24
431.22	293.48
431.59	295.84
431.96	298.06
432.33	300.54
432.70	302.93
433.08	305.73
433.45	308.41
433.82	311.00
434.19	313.87
434.56	316.70
434.93	319.35
435.30	321.93
435.68	324.82
436.05	327.65
436.42	330.42
436.79	332.94
437.16	335.61
437.53	338.41
437.90	341.16
438.27	343.88
438.64	346.66
439.01	349.23
439.38	351.47
439.75	353.64
440.13	356.11
440.50	358.44
440.87	360.27
441.24	362.21
441.61	364.35
441.98	365.79
442.35	367.59
442.72	369.44
443.09	371.22
443.46	372.20
443.83	372.80
444.20	373.30
444.57	374.13
444.94	374.39
445.31	374.70
445.68	375.06
446.05	375.15
446.42	374.79
446.79	374.41
447.16	373.94
447.53	373.58
447.90	372.44
448.27	371.26
448.64	369.71
449.01	368.52
449.37	366.55
449.74	364.67
450.11	362.43
450.48	359.96
450.85	357.48
451.22	355.36
451.59	353.31
451.96	351.39
452.33	348.76
452.70	346.44
453.07	343.63
453.43	340.81
453.80	338.06
454.17	335.40
454.54	332.84
454.91	330.14
455.28	327.51
455.65	325.03
456.02	322.64
456.38	320.50
456.75	317.89
457.12	315.64
457.49	313.40
457.86	311.23
458.23	309.37
458.59	307.31
458.96	305.19
459.33	303.38
459.70	301.51
460.07	300.02
460.43	298.34
460.80	296.71
461.17	295.25
461.54	293.73
461.91	292.30
462.27	290.88
462.64	289.62
463.01	288.28
463.38	286.99
463.74	285.62
464.11	284.45
464.48	283.45
464.85	282.35
465.21	281.51
465.58	280.60
465.95	279.51
466.32	278.60
466.68	277.71
467.05	276.82
467.42	275.93
467.78	275.05
468.15	274.15
468.52	273.52
468.88	272.62
469.25	271.90
469.62	271.29
469.98	270.60
470.35	270.03
470.72	269.45
471.08	268.80
471.45	268.26
471.82	267.70
472.18	267.08
472.55	266.67
472.92	266.15
473.28	265.70
473.65	265.28
474.02	264.87
474.38	264.55
474.75	264.20
475.11	263.88
475.48	263.59
475.85	263.37
476.21	263.14
476.58	262.99
476.94	262.82
477.31	262.68
477.67	262.50
478.04	262.37
478.41	262.34
478.77	262.39
479.14	262.32
479.50	262.38
479.87	262.44
480.23	262.51
480.60	262.63
480.96	262.67
481.33	262.90
481.69	263.09
482.06	263.28
482.42	263.48
482.79	263.73
483.15	264.06
483.52	264.47
483.88	264.82
484.25	265.23
484.61	265.71
484.98	266.14
485.34	266.72
485.71	267.28
486.07	267.85
486.44	268.41
486.80	269.16
487.17	269.89
487.53	270.71
487.90	271.60
488.26	272.51
488.62	273.52
488.99	274.49
489.35	275.53
489.72	276.62
490.08	277.85
490.44	279.12
490.81	280.44
491.17	281.79
491.54	283.32
491.90	284.84
492.26	286.47
492.63	288.22
492.99	290.01
493.36	291.94
493.72	293.96
494.08	296.07
494.45	298.28
494.81	300.63
495.17	303.07
495.54	305.63
495.90	308.31
496.26	311.10
496.63	314.05
496.99	317.19
497.35	320.47
497.72	323.89
498.08	327.39
498.44	331.11
498.80	335.03
499.17	339.05
499.53	343.22
499.89	347.56
500.26	352.09
500.62	356.80
500.98	361.76
501.34	366.79
501.71	372.10
502.07	377.53
502.43	383.11
502.79	389.00
503.16	395.05
503.52	401.38
503.88	407.83
504.24	414.48
504.60	421.33
504.97	428.48
505.33	435.74
505.69	443.50
506.05	451.24
506.41	459.10
506.78	467.25
507.14	475.68
507.50	484.40
507.86	493.38
508.22	502.58
508.59	511.75
508.95	521.41
509.31	531.19
509.67	541.34
510.03	551.63
510.39	562.17
510.75	572.97
511.12	583.84
511.48	595.11
511.84	606.57
512.20	618.10
512.56	629.98
512.92	642.21
513.28	654.52
513.64	667.02
514.00	679.75
514.37	692.71
514.73	705.78
515.09	718.83
515.45	732.18
515.81	745.72
516.17	759.73
516.53	773.84
516.89	788.01
517.25	802.15
517.61	816.62
517.97	831.05
518.33	845.44
518.69	860.22
519.05	875.11
519.41	890.21
519.77	905.69
520.13	921.17
520.49	936.56
520.85	951.92
521.21	967.56
521.57	983.75
521.93	999.49
522.29	1015.74
522.65	1031.91
523.01	1048.03
523.37	1064.06
523.73	1080.16
524.09	1096.20
524.45	1112.52
524.81	1129.07
525.17	1145.79
525.53	1162.62
525.89	1179.49
526.25	1196.26
526.61	1212.64
526.97	1229.29
527.33	1245.67
527.68	1262.21
528.04	1278.54
528.40	1295.10
528.76	1312.06
529.12	1328.59
529.48	1345.46
529.84	1361.54
530.20	1378.19
530.56	1395.15
530.91	1412.43
531.27	1429.24
531.63	1445.61
531.99	1462.14
532.35	1478.09
532.71	1493.92
533.07	1510.09
533.42	1526.06
533.78	1542.07
534.14	1558.27
534.50	1573.59
534.86	1589.42
535.21	1604.43
535.57	1620.23
535.93	1635.68
536.29	1650.37
536.65	1665.33
537.00	1679.99
537.36	1695.21
537.72	1709.53
538.08	1723.89
538.44	1737.61
538.79	1751.34
539.15	1764.90
539.51	1778.61
539.87	1792.90
540.22	1806.57
540.58	1820.23
540.94	1833.31
541.29	1846.01
541.65	1858.67
542.01	1871.90
542.37	1884.19
542.72	1896.54
543.08	1908.38
543.44	1920.60
543.79	1931.83
544.15	1942.80
544.51	1954.39
544.87	1965.30
545.22	1976.10
545.58	1986.31
545.94	1996.12
546.29	2005.84
546.65	2015.71
547.01	2024.91
547.36	2033.50
547.72	2041.90
548.07	2049.83
548.43	2057.99
548.79	2066.05
549.14	2073.54
549.50	2080.75
549.86	2088.30
550.21	2095.64
550.57	2102.76
550.92	2109.37
551.28	2116.46
551.64	2123.44
551.99	2129.78
552.35	2135.81
552.70	2141.98
553.06	2147.89
553.41	2154.17
553.77	2160.14
554.13	2166.07
554.48	2172.16
554.84	2177.81
555.19	2182.96
555.55	2188.06
555.90	2192.53
556.26	2197.47
556.61	2202.21
556.97	2206.68
557.32	2210.84
557.68	2215.01
558.03	2219.33
558.39	2222.95
558.74	2227.53
559.10	2231.47
559.45	2235.10
559.81	2239.45
560.16	2243.29
560.52	2246.47
560.87	2249.93
561.23	2252.66
561.58	2255.72
561.94	2258.21
562.29	2260.43
562.64	2263.22
563.00	2265.82
563.35	2269.37
563.71	2272.39
564.06	2275.60
564.42	2278.25
564.77	2280.81
565.12	2283.09
565.48	2284.88
565.83	2286.87
566.19	2288.20
566.54	2288.91
566.89	2290.21
567.25	2290.95
567.60	2292.28
567.96	2294.14
568.31	2294.87
568.66	2296.09
569.02	2296.60
569.37	2296.99
569.72	2297.87
570.08	2298.24
570.43	2298.35
570.78	2297.89
571.14	2296.23
571.49	2294.84
571.84	2294.65
572.20	2293.49
572.55	2292.43
572.90	2290.84
573.26	2289.53
573.61	2287.74
573.96	2286.29
574.31	2283.24
574.67	2280.20
575.02	2276.53
575.37	2273.07
575.72	2269.39
576.08	2266.02
576.43	2262.69
576.78	2259.06
577.13	2255.75
577.49	2252.39
577.84	2248.86
578.19	2245.03
578.54	2241.67
578.90	2237.60
579.25	2231.98
579.60	2227.21
579.95	2222.36
580.30	2217.41
580.66	2212.17
581.01	2207.31
581.36	2202.35
581.71	2198.31
582.06	2193.94
582.42	2189.58
582.77	2184.38
583.12	2179.90
583.47	2175.38
583.82	2170.63
584.17	2165.52
584.53	2160.19
584.88	2154.64
585.23	2149.00
585.58	2143.41
585.93	2137.87
586.28	2133.06
586.63	2128.13
586.98	2123.03
587.34	2118.41
587.69	2113.59
588.04	2108.51
588.39	2102.88
588.74	2096.29
589.09	2090.10
589.44	2083.30
589.79	2077.17
590.14	2071.48
590.49	2064.91
590.84	2058.32
591.19	2052.18
591.54	2045.71
591.89	2038.42
592.25	2031.73
592.60	2024.46
592.95	2017.11
593.30	2009.79
593.65	2002.16
594.00	1995.08
594.35	1987.79
594.70	1979.61
595.05	1972.58
595.40	1965.23
595.75	1957.85
596.10	1951.91
596.45	1945.27
596.80	1939.08
597.15	1932.55
597.50	1925.64
597.85	1919.18
598.19	1912.60
598.54	1905.69
598.89	1899.04
599.24	1893.11
599.59	1886.60
599.94	1880.24
600.29	1873.81
600.64	1867.19
600.99	1859.82
601.34	1853.06
601.69	1846.12
602.04	1839.32
602.39	1831.85
602.74	1825.06
603.08	1818.28
603.43	1811.49
603.78	1804.06
604.13	1796.92
604.48	1789.69
604.83	1782.78
605.18	1775.86
605.53	1768.01
605.87	1759.92
606.22	1752.73
606.57	1744.89
606.92	1737.38
607.27	1730.45
607.62	1723.61
607.96	1716.55
608.31	1710.03
608.66	1702.44
609.01	1695.00
609.36	1687.54
609.70	1679.54
610.05	1671.50
610.40	1663.97
610.75	1655.61
611.10	1647.96
611.44	1639.50
611.79	1631.47
612.14	1622.83
612.49	1613.77
612.83	1605.28
613.18	1597.14
613.53	1588.87
613.88	1580.27
614.22	1572.06
614.57	1563.32
614.92	1555.30
615.27	1547.69
615.61	1539.35
615.96	1531.32
616.31	1523.69
616.65	1516.29
617.00	1508.85
617.35	1501.01
617.70	1492.61
618.04	1484.23
618.39	1476.11
618.74	1468.61
619.08	1460.40
619.43	1452.79
619.78	1445.80
620.12	1438.73
620.47	1431.22
620.82	1423.12
621.16	1415.63
621.51	1408.01
621.85	1400.40
622.20	1392.01
622.55	1383.66
622.89	1375.85
623.24	1368.22
623.59	1360.71
623.93	1353.12
624.28	1345.82
624.62	1338.48
624.97	1331.20
625.32	1324.22
625.66	1317.17
626.01	1309.94
626.35	1302.59
626.70	1294.94
627.04	1287.20
627.39	1279.24
627.73	1271.91
628.08	1264.98
628.43	1257.81
628.77	1250.48
629.12	1243.01
629.46	1235.80
629.81	1228.25
630.15	1221.03
630.50	1213.60
630.84	1205.47
631.19	1197.61
631.53	1190.00
631.88	1182.44
632.22	1174.95
632.57	1167.68
632.91	1160.15
633.26	1152.72
633.60	1145.18
633.95	1137.90
634.29	1130.84
634.64	1124.32
634.98	1116.92
635.32	1109.77
635.67	1103.06
636.01	1096.38
636.36	1089.54
636.70	1082.84
637.05	1076.37
637.39	1069.88
637.73	1063.49
638.08	1057.62
638.42	1051.61
638.77	1045.17
639.11	1038.69
639.45	1032.18
639.80	1025.57
640.14	1019.18
640.49	1012.70
640.83	1006.46
641.17	1000.30
641.52	993.99
641.86	987.46
642.20	981.61
642.55	975.28
642.89	968.87
643.23	962.33
643.58	956.64
643.92	950.55
644.26	944.58
644.61	938.50
644.95	932.42
645.29	925.84
645.64	919.01
645.98	912.75
646.32	906.85
646.66	900.91
647.01	895.11
647.35	889.40
647.69	883.49
648.04	877.93
648.38	872.15
648.72	866.14
649.06	860.10
649.41	854.18
649.75	848.28
650.09	842.32
650.43	836.47
650.78	830.33
651.12	824.36
651.46	818.53
651.80	812.88
652.14	807.41
652.49	802.09
652.83	797.00
653.17	791.40
653.51	785.70
653.85	780.26
654.20	774.64
654.54	768.63
654.88	762.86
655.22	756.92
655.56	751.21
655.90	745.76
656.25	740.52
656.59	735.12
656.93	729.96
657.27	724.91
657.61	719.52
657.95	714.34
658.29	709.21
658.64	704.00
658.98	698.61
659.32	693.16
659.66	687.95
660.00	682.58
660.34	677.53
660.68	672.59
661.02	667.59
661.36	662.90
661.70	658.45
662.05	654.12
662.39	649.81
662.73	645.35
663.07	640.98
663.41	636.55
663.75	632.13
664.09	627.59
664.43	623.15
664.77	619.07
665.11	614.88
665.45	610.78
665.79	606.70
666.13	602.58
666.47	598.53
666.81	594.30
667.15	590.15
667.49	586.28
667.83	582.36
668.17	578.43
668.51	574.38
668.85	570.33
669.19	566.47
669.53	562.68
669.87	558.79
670.21	555.06
670.55	551.41
670.89	547.96
671.23	544.51
671.57	541.01
671.91	537.50
672.25	533.96
672.58	530.47
672.92	527.10
673.26	523.94
673.60	520.74
673.94	517.72
674.28	514.85
674.62	511.93
674.96	508.85
675.30	505.98
675.64	503.03
675.97	500.22
676.31	497.34
676.65	494.39
676.99	491.70
677.33	488.87
677.67	486.05
678.01	483.03
678.34	480.06
678.68	477.16
679.02	474.33
679.36	471.56
679.70	468.84
680.04	466.07
680.37	463.21
680.71	460.35
681.05	457.67
681.39	454.95
681.73	452.27
682.06	449.73
682.40	447.13
682.74	444.57
683.08	441.98
683.42	439.42
683.75	436.91
684.09	434.37
684.43	431.89
684.77	429.41
685.10	427.05
685.44	424.73
685.78	422.47
686.12	420.14
686.45	417.86
686.79	415.57
687.13	413.35
687.46	411.14
687.80	409.05
688.14	406.81
688.48	404.74
688.81	402.51
689.15	400.34
689.49	398.18
689.82	396.09
690.16	394.04
690.50	392.06
690.83	390.14
691.17	388.12
691.51	386.21
691.84	384.36
692.18	382.44
692.52	380.50
692.85	378.52
693.19	376.68
693.52	374.78
693.86	372.94
694.20	371.15
694.53	369.41
694.87	367.57
695.21	365.78
695.54	363.92
695.88	362.18
696.21	360.51
696.55	358.84
696.88	357.13
697.22	355.43
697.56	353.76
697.89	352.10
698.23	350.48
698.56	348.87
698.90	347.29
699.23	345.65
699.57	344.10
699.90	342.53
700.24	340.95
700.58	339.45
700.91	337.94
701.25	336.51
701.58	335.09
701.92	333.72
702.25	332.37
702.59	331.02
702.92	329.69
703.26	328.39
703.59	327.09
703.93	325.94
704.26	324.75
704.60	323.49
704.93	322.26
705.26	321.03
705.60	319.83
705.93	318.66
706.27	317.64
706.60	316.57
706.94	315.55
707.27	314.45
707.61	313.40
707.94	312.38
708.27	311.26
708.61	310.18
708.94	309.19
709.28	308.21
709.61	307.27
709.94	306.33
710.28	305.28
710.61	304.32
710.95	303.24
711.28	302.33
711.61	301.40
711.95	300.51
712.28	299.61
712.61	298.59
712.95	297.65
713.28	296.71
713.61	295.81
713.95	294.88
714.28	294.07
714.61	293.18
714.95	292.34
715.28	291.50
715.61	290.63
715.95	289.75
716.28	288.88
716.61	288.08
716.95	287.23
717.28	286.50
717.61	285.71
717.94	284.95
718.28	284.11
718.61	283.33
718.94	282.60
719.27	281.90
719.61	281.30
719.94	280.63
720.27	279.93
720.60	279.28
720.94	278.68
721.27	278.04
721.60	277.45
721.93	276.85
722.27	276.31
722.60	275.73
722.93	275.16
723.26	274.62
723.59	274.02
723.93	273.49
724.26	272.91
724.59	272.32
724.92	271.79
725.25	271.31
725.59	270.84
725.92	270.28
726.25	269.77
726.58	269.27
726.91	268.78
727.24	268.32
727.57	267.84
727.91	267.31
728.24	266.85
728.57	266.36
728.90	265.88
729.23	265.35
729.56	264.94
729.89	264.45
730.22	263.97
730.55	263.49
730.89	263.03
731.22	262.59
731.55	262.22
731.88	261.78
732.21	261.36
732.54	260.93
732.87	260.52
733.20	260.15
733.53	259.72
733.86	259.35
734.19	258.93
734.52	258.57
734.85	258.23
735.18	257.81
735.51	257.43
735.84	257.07
736.17	256.71
736.50	256.31
736.83	256.11
737.16	255.78
737.49	255.42
737.82	255.05
738.15	254.74
738.48	254.35
738.81	254.05
739.14	253.74
739.47	253.43
739.80	253.12
740.13	252.77
740.46	252.47
740.79	252.13
741.12	251.82
741.45	251.52
741.78	251.19
742.11	250.90
742.44	250.62
742.77	250.34
743.10	250.10
743.43	249.81
743.75	249.41
744.08	249.30
744.41	249.07
744.74	248.84
745.07	248.55
745.40	248.31
745.73	248.05
746.06	247.77
746.39	247.50
746.71	247.20
747.04	246.99
747.37	246.76
747.70	246.57
748.03	246.36
748.36	246.12
748.68	245.86
749.01	245.65
749.34	245.45
749.67	245.20
750.00	244.98
750.33	244.86
750.65	244.66
750.98	244.31
751.31	244.07
751.64	243.85
751.97	243.73
752.29	243.56
752.62	243.33
752.95	243.10
753.28	242.89
753.60	242.74
753.93	242.54
754.26	242.36
754.59	242.12
754.91	241.89
755.24	241.67
755.57	241.50
755.90	241.31
756.22	241.12
756.55	240.96
756.88	240.74
757.20	240.47
757.53	240.27
757.86	240.11
758.19	239.97
758.51	239.81
758.84	239.58
759.17	239.39
759.49	239.23
759.82	239.12
760.15	238.98
760.47	238.81
760.80	238.65
761.13	238.49
761.45	238.34
761.78	238.18
762.11	238.05
762.43	237.89
762.76	237.73
763.08	237.59
763.41	237.48
763.74	237.35
764.06	237.23
764.39	237.09
764.71	236.90
765.04	236.75
765.37	236.64
765.69	236.50
766.02	236.38
766.34	236.26
766.67	236.13
767.00	236.03
767.32	235.95
767.65	235.86
767.97	235.75
768.30	235.60
768.62	235.50
768.95	235.38
769.27	235.31
769.60	235.25
769.92	235.10
770.25	234.96
770.57	234.83
770.90	234.69
771.22	234.58
771.55	234.50
771.87	234.41
772.20	234.29
772.52	234.26
772.85	234.28
773.17	234.21
773.50	234.06
773.82	233.91
774.15	233.76
774.47	233.60
774.80	233.48
775.12	233.39
775.45	233.32
775.77	233.25
776.09	233.14
776.42	233.01
776.74	232.96
777.07	232.89
777.39	232.83
777.72	232.76
778.04	232.71
778.36	232.63
778.69	232.54
779.01	232.47
779.33	232.32
779.66	232.13
779.98	232.01
780.31	231.96
780.63	231.97
780.95	231.93
781.28	231.88
781.60	231.83
781.92	231.79
782.25	231.72
782.57	231.61
782.89	231.54
783.22	231.48
783.54	231.41
783.86	231.37
784.19	231.30
784.51	231.28
784.83	231.23
785.16	231.17
785.48	231.11
785.80	231.03
786.12	231.00
786.45	230.95
786.77	230.92
787.09	230.86
787.42	230.78
787.74	230.74
788.06	230.70
788.38	230.66
788.71	230.62
789.03	230.59
789.35	230.60
789.67	230.56
789.99	230.55
790.32	230.51
790.64	230.47
790.96	230.54
791.28	230.46
791.61	230.40
791.93	230.39
792.25	230.39
792.57	230.47
792.89	230.41
793.21	230.40
793.54	230.34
793.86	230.32
794.18	230.29
794.50	230.25
794.82	230.22
795.14	230.19
795.47	230.13
795.79	230.09
796.11	230.02
796.43	229.99
796.75	229.94
797.07	229.90
797.39	229.86
797.71	229.75
798.04	229.73
798.36	229.69
798.68	229.67
799.00	229.65
799.32	229.55
799.64	229.56
799.96	229.52
800.28	229.50
800.60	229.46
800.92	229.43
801.24	229.38
801.56	229.37
801.89	229.32
802.21	229.31
802.53	229.29
802.85	229.28
803.17	229.30
803.49	229.30
803.81	229.26
804.13	229.21
804.45	229.15
804.77	229.16
805.09	229.12
805.41	229.03
805.73	228.98
806.05	228.92
806.37	228.86
806.69	228.83
807.01	228.83
807.33	228.81
807.65	228.76
807.97	228.78
808.28	228.74
808.60	228.71
808.92	228.67
809.24	228.70
809.56	228.66
809.88	228.57
810.20	228.50
810.52	228.49
810.84	228.48
811.16	228.46
811.48	228.39
811.80	228.42
812.12	228.40
812.43	228.39
812.75	228.37
813.07	228.32
813.39	228.29
813.71	228.25
814.03	228.23
814.35	228.22
814.67	228.14
814.98	228.11
815.30	228.06
815.62	228.03
815.94	227.91
816.26	227.96
816.58	227.93
816.89	227.93
817.21	227.90
817.53	227.86
817.85	227.87
818.17	227.85
818.48	227.79
818.80	227.82
819.12	227.79
819.44	227.78
819.76	227.78
820.07	227.75
820.39	227.73
820.71	227.73
821.03	227.69
821.34	227.68
821.66	227.68
821.98	227.72
822.30	227.73
822.61	227.78
822.93	227.70
823.25	227.72
823.57	227.70
823.88	227.72
824.20	227.73
824.52	227.71
824.83	227.71
825.15	227.67
825.47	227.65
825.79	227.65
826.10	227.61
826.42	227.59
826.74	227.59
827.05	227.58
827.37	227.55
827.69	227.54
828.00	227.52
828.32	227.51
828.64	227.47
828.95	227.50
829.27	227.46
829.58	227.43
829.90	227.42
830.22	227.42
830.53	227.39
830.85	227.37
831.17	227.32
831.48	227.29
831.80	227.31
832.11	227.29
832.43	227.28
832.75	227.29
833.06	227.35
833.38	227.34
833.69	227.29
834.01	227.31
834.32	227.29
834.64	227.30
834.96	227.29
835.27	227.30
835.59	227.25
835.90	227.22
836.22	227.23
836.53	227.19
836.85	227.15
837.16	227.21
837.48	227.19
837.79	227.21
838.11	227.23
838.42	227.20
838.74	227.19
839.05	227.18
839.37	227.19
839.68	227.11
840.00	227.08
840.31	227.12
840.63	227.09
840.94	227.10
841.26	227.07
841.57	227.08
841.88	227.07
842.20	227.07
842.51	227.05
842.83	227.06
843.14	227.17
843.46	227.17
843.77	227.13
844.08	227.13
844.40	227.10
844.71	227.10
845.03	227.08
845.34	227.07
845.65	227.05
845.97	227.03
846.28	227.03
846.60	227.04
846.91	227.00
847.22	227.00
847.54	227.02
847.85	227.01
848.16	226.96
848.48	226.96
848.79	226.98
849.10	226.97
849.42	226.97
849.73	226.86
850.04	226.89
850.36	226.82
850.67	226.82
850.98	226.82
851.30	226.79
851.61	226.81
851.92	226.78
852.23	226.84
852.55	226.79
852.86	226.81
853.17	226.82
853.49	226.81
853.80	226.84
854.11	226.82
854.42	226.86
854.74	226.86
855.05	226.83
855.36	226.75
855.67	226.76
855.99	226.75
856.30	226.84
856.61	226.79
856.92	226.78
857.23	226.81
857.55	226.82
857.86	226.80
858.17	226.78
858.48	226.78
858.79	226.76
859.11	226.79
859.42	226.77
859.73	226.74
860.04	226.73
860.35	226.69
860.66	226.68
860.98	226.63
861.29	226.67
861.60	226.64
861.91	226.72
862.22	226.69
862.53	226.69
862.84	226.62
863.16	226.68
863.47	226.70
863.78	226.65
864.09	226.66
864.40	226.70
864.71	226.72
865.02	226.70
865.33	226.69
865.64	226.65
865.95	226.68
866.27	226.70
866.58	226.68
866.89	226.69
867.20	226.70
867.51	226.72
867.82	226.67
868.13	226.75
868.44	226.71
868.75	226.77
869.06	226.75
869.37	226.74
869.68	226.71
869.99	226.71
870.30	226.74
870.61	226.73
870.92	226.70
871.23	226.71
871.54	226.77
871.85	226.76
872.16	226.79
872.47	226.75
872.78	226.72
873.09	226.75
873.40	226.74
873.71	226.74
874.02	226.73
874.33	226.77
874.64	226.73
874.95	226.74
875.26	226.69
875.56	226.71
875.87	226.69
876.18	226.66
876.49	226.77
876.80	226.75
877.11	226.76
877.42	226.77
877.73	226.78
878.04	226.72
878.35	226.71
878.66	226.71
878.96	226.71
879.27	226.74
879.58	226.70
879.89	226.70
880.20	226.72
880.51	226.72
880.82	226.71
881.12	226.71
881.43	226.66
881.74	226.66
882.05	226.64
882.36	226.63
882.67	226.67
882.97	226.54
883.28	226.55
883.59	226.50
883.90	226.51
884.21	226.51
884.51	226.52
884.82	226.50
885.13	226.52
885.44	226.55
885.74	226.55
886.05	226.57
886.36	226.55
886.67	226.50
886.98	226.53
887.28	226.52
887.59	226.52
887.90	226.53
888.20	226.53
888.51	226.57
888.82	226.56
889.13	226.53
889.43	226.65
889.74	226.61
890.05	226.65
890.35	226.63
890.66	226.62
890.97	226.59
891.28	226.57
891.58	226.54
891.89	226.52
892.20	226.49
892.50	226.49
892.81	226.47
893.12	226.49
893.42	226.44
893.73	226.43
894.04	226.43
894.34	226.45
894.65	226.42
894.95	226.40
895.26	226.39
895.57	226.45
895.87	226.34
896.18	226.37
896.48	226.34
896.79	226.34
897.10	226.32
897.40	226.35
897.71	226.37
898.01	226.38
898.32	226.38
898.63	226.37
898.93	226.36
899.24	226.37
899.54	226.35
899.85	226.36
900.15	226.37
900.46	226.38
900.76	226.39
901.07	226.42
901.38	226.40
901.68	226.44
901.99	226.36
902.29	226.36
902.60	226.34
902.90	226.36
903.21	226.35
903.51	226.35
903.82	226.36
904.12	226.40
904.43	226.38
904.73	226.38
905.03	226.39
905.34	226.51
905.64	226.50
905.95	226.52
906.25	226.53
906.56	226.53
906.86	226.54
907.17	226.52
907.47	226.50
907.77	226.50
908.08	226.49
908.38	226.51
908.69	226.54
908.99	226.55
909.30	226.53
909.60	226.52
909.90	226.52
910.21	226.49
910.51	226.46
910.81	226.46
911.12	226.47
911.42	226.47
911.73	226.34
912.03	226.34
912.33	226.35
912.64	226.34
912.94	226.34
913.24	226.27
913.55	226.28
913.85	226.28
914.15	226.28
914.46	226.28
914.76	226.26
915.06	226.23
915.37	226.23
915.67	226.22
915.97	226.22
916.27	226.21
916.58	226.20
916.88	226.19
917.18	226.18
917.49	226.24
917.79	226.23
918.09	226.25
918.39	226.28
918.70	226.26
919.00	226.26
919.30	226.28
919.60	226.29
919.91	226.29
920.21	226.27
920.51	226.26
920.81	226.27
921.12	226.29
921.42	226.28
921.72	226.23
922.02	226.24
922.32	226.24
922.63	226.23
922.93	226.28
923.23	226.26
923.53	226.27
923.83	226.20
924.13	226.20
924.44	226.21
924.74	226.17
925.04	226.20
925.34	226.16
925.64	226.13
925.94	226.12
926.24	226.12
926.55	226.14
926.85	226.17
927.15	226.14
927.45	226.11
927.75	226.11
928.05	226.16
928.35	226.16
928.65	226.18
928.95	226.19
929.26	226.18
929.56	226.21
929.86	226.21
930.16	226.20
930.46	226.21
930.76	226.20
931.06	226.20
931.36	226.15
931.66	226.20
931.96	226.19
932.26	226.22
932.56	226.22
932.86	226.22
933.16	226.21
933.46	226.21
933.76	226.23
934.06	226.26
934.36	226.26
934.66	226.28
934.96	226.25
935.26	226.26
935.56	226.26
935.86	226.24
936.16	226.21
936.46	226.23
936.76	226.20
937.06	226.18
937.36	226.19
937.66	226.21
937.96	226.19
938.26	226.18
938.56	226.15
938.86	226.16
939.16	226.17
939.46	226.17
939.76	226.17
940.06	226.14
940.35	226.12
940.65	226.09
940.95	226.06
941.25	226.08
941.55	226.07
941.85	226.09
942.15	226.11
942.45	226.16
942.75	226.14
943.04	226.19
943.34	226.23
943.64	226.22
943.94	226.23
944.24	226.24
944.54	226.25
944.84	226.28
945.13	226.28
945.43	226.26
945.73	226.27
946.03	226.29
946.33	226.28
946.62	226.28
946.92	226.28
947.22	226.32
947.52	226.34
947.82	226.37
948.11	226.32
948.41	226.30
948.71	226.25
949.01	226.26
949.31	226.22
949.60	226.21
949.90	226.24
950.20	226.20
950.50	226.19
950.79	226.21
951.09	226.22
951.39	226.23
951.69	226.22
951.98	226.23
952.28	226.24
952.58	226.27
952.87	226.30
953.17	226.31
953.47	226.31
953.76	226.28
954.06	226.22
954.36	226.24
954.66	226.27
954.95	226.30
955.25	226.30
955.55	226.33
955.84	226.29
956.14	226.28
956.44	226.29
956.73	226.27
957.03	226.26
957.32	226.24
957.62	226.20
957.92	226.21
958.21	226.21
958.51	226.31
958.81	226.30
959.10	226.29
959.40	226.30
959.69	226.27
959.99	226.30
960.29	226.30
960.58	226.27
960.88	226.29
961.17	226.28
961.47	226.26
961.76	226.26
962.06	226.32
962.36	226.28
962.65	226.28
962.95	226.30
963.24	226.27
963.54	226.26
963.83	226.26
964.13	226.24
964.42	226.19
964.72	226.10
965.01	226.07
965.31	226.05
965.60	226.06
965.90	226.13
966.19	226.10
966.49	226.11
966.78	226.09
967.08	226.09
967.37	226.11
967.67	226.11
967.96	226.12
968.26	226.08
968.55	226.09
968.85	226.11
969.14	226.09
969.43	226.08
969.73	226.08
970.02	226.08
970.32	226.08
970.61	226.07
970.91	226.05
971.20	226.07
971.49	226.07
971.79	226.05
972.08	225.97
972.38	225.98
972.67	225.95
972.96	226.00
973.26	225.95
973.55	225.97
973.85	225.95
974.14	225.91
974.43	225.90
974.73	225.93
975.02	225.92
975.31	225.95
975.61	225.98
975.90	225.96
976.19	225.96
976.49	225.98
976.78	226.02
977.07	226.04
977.37	226.03
977.66	226.03
977.95	226.02
978.24	226.04
978.54	226.06
978.83	226.08
979.12	226.08
979.42	226.08
979.71	226.09
980.00	226.10
980.29	226.15
980.59	226.19
980.88	226.19
981.17	226.21
981.46	226.21
981.76	226.24
982.05	226.28
982.34	226.28
982.63	226.28
982.93	226.27
983.22	226.27
983.51	226.30
983.80	226.29
984.09	226.33
984.39	226.35
984.68	226.31
984.97	226.35
985.26	226.33
985.55	226.34
985.85	226.31
986.14	226.33
986.43	226.33
986.72	226.29
987.01	226.26
987.30	226.28
987.59	226.26
987.89	226.25
988.18	226.29
988.47	226.28
988.76	226.29
989.05	226.32
989.34	226.30
989.63	226.28
989.92	226.28
990.22	226.24
990.51	226.22
990.80	226.23
991.09	226.24
991.38	226.28
991.67	226.27
991.96	226.23
992.25	226.25
992.54	226.22
992.83	226.22
993.12	226.23
993.41	226.18
993.70	226.23
993.99	226.21
994.28	226.19
994.58	226.21
994.87	226.18
995.16	226.14
995.45	226.14
995.74	226.11
996.03	226.14
996.32	226.14
996.61	226.15
996.90	226.13
997.19	226.12
997.48	226.09
997.77	226.05
998.06	226.08
998.34	226.06
998.63	226.05
998.92	226.07
999.21	226.10
999.50	226.10
999.79	226.05
1000.08	226.06
1000.37	226.03
1000.66	225.99
1000.95	226.03
1001.24	226.04
1001.53	226.03
1001.82	226.05
1002.11	226.03
1002.40	226.02
1002.68	226.09
1002.97	226.15
1003.26	226.13
1003.55	226.13
1003.84	226.15
1004.13	226.20
1004.42	226.17
1004.71	226.16
1004.99	226.14
1005.28	226.16
1005.57	226.15
1005.86	226.14
1006.15	226.11
1006.44	226.10
1006.72	226.13
1007.01	226.11
1007.30	226.10
1007.59	226.10
1007.88	226.10
1008.17	226.07
1008.45	226.07
1008.74	225.95
1009.03	225.92
1009.32	225.89
1009.60	225.88
1009.89	225.89
1010.18	225.84
1010.47	225.86
1010.76	225.88
1011.04	225.88
1011.33	225.87
1011.62	225.87
1011.91	225.90
1012.19	225.91
1012.48	225.92
1012.77	225.94
1013.05	225.99
1013.34	225.99
1013.63	226.00
1013.92	226.04
1014.20	226.07
1014.49	226.08
1014.78	226.14
1015.06	226.12
1015.35	226.17
1015.64	226.18
1015.92	226.20
1016.21	226.21
1016.50	226.22
1016.78	226.23
1017.07	226.28
1017.36	226.27
1017.64	226.30
1017.93	226.30
1018.22	226.31
1018.50	226.33
1018.79	226.32
1019.08	226.29
1019.36	226.30
1019.65	226.32
1019.93	226.31
1020.22	226.34
1020.51	226.39
1020.79	226.39
1021.08	226.05
1021.36	226.38
1021.65	226.27
1021.94	226.25
1022.22	226.25
1022.51	226.53
1022.79	226.31
1023.08	226.88
1023.36	227.18
1023.65	226.45
>>>>>End Processed Spectral Data<<<<<
