SpectraSuite Data File
++++++++++++++++++++++++++++++++++++
Date: Fri Feb 01 15:29:49 EST 2013
User: group
Dark Spectrum Present: No
Reference Spectrum Present: No
Number of Sampled Component Spectra: 1
Spectrometers: USB2E7196
Integration Time (usec): 35000 (USB2E7196)
Spectra Averaged: 100 (USB2E7196)
Boxcar Smoothing: 10 (USB2E7196)
Correct for Electrical Dark: No (USB2E7196)
Strobe/Lamp Enabled: No (USB2E7196)
Correct for Detector Non-linearity: No (USB2E7196)
Correct for Stray Light: No (USB2E7196)
Number of Pixels in Processed Spectrum: 2048
>>>>>Begin Processed Spectral Data<<<<<
339.09	0.00
339.48	214.88
339.86	216.69
340.24	217.30
340.63	219.68
341.01	222.07
341.39	221.80
341.78	223.25
342.16	224.81
342.54	225.37
342.93	213.41
343.31	224.18
343.69	224.75
344.07	225.20
344.46	225.64
344.84	225.99
345.22	226.25
345.60	226.49
345.99	226.68
346.37	226.79
346.75	226.88
347.13	226.98
347.52	227.04
347.90	227.10
348.28	227.11
348.66	227.15
349.05	227.17
349.43	227.19
349.81	227.22
350.19	227.25
350.57	227.32
350.96	227.42
351.34	227.51
351.72	227.58
352.10	227.67
352.48	227.76
352.87	227.81
353.25	227.88
353.63	227.94
354.01	228.00
354.39	228.08
354.77	228.12
355.15	228.22
355.54	228.29
355.92	228.32
356.30	228.41
356.68	228.54
357.06	228.55
357.44	228.59
357.82	228.68
358.20	228.77
358.58	228.83
358.97	228.85
359.35	228.92
359.73	228.98
360.11	229.04
360.49	229.08
360.87	229.13
361.25	229.17
361.63	229.26
362.01	229.32
362.39	229.32
362.77	229.37
363.15	229.38
363.53	229.39
363.91	229.43
364.29	229.45
364.67	229.36
365.05	229.38
365.43	229.41
365.81	229.39
366.19	229.43
366.57	229.46
366.95	229.43
367.33	229.42
367.71	229.42
368.09	229.42
368.47	229.40
368.85	229.37
369.23	229.38
369.61	229.30
369.99	229.25
370.37	229.23
370.75	229.25
371.13	229.19
371.51	229.13
371.89	229.11
372.27	229.05
372.65	229.00
373.03	228.98
373.41	228.93
373.78	228.87
374.16	228.78
374.54	228.67
374.92	228.64
375.30	228.55
375.68	228.47
376.06	228.38
376.44	228.29
376.82	228.23
377.19	228.16
377.57	228.07
377.95	228.02
378.33	227.95
378.71	227.83
379.09	227.77
379.47	227.71
379.84	227.58
380.22	227.51
380.60	227.45
380.98	227.37
381.36	227.30
381.73	227.22
382.11	227.18
382.49	227.11
382.87	227.00
383.25	226.93
383.62	227.01
384.00	226.94
384.38	226.93
384.76	226.89
385.13	226.87
385.51	226.85
385.89	226.77
386.27	226.73
386.64	226.72
387.02	226.71
387.40	226.67
387.78	226.65
388.15	226.63
388.53	226.60
388.91	226.58
389.29	226.57
389.66	226.57
390.04	226.51
390.42	226.55
390.79	226.55
391.17	226.58
391.55	226.45
391.92	226.44
392.30	226.41
392.68	226.42
393.05	226.40
393.43	226.42
393.81	226.44
394.18	226.45
394.56	226.45
394.94	226.48
395.31	226.51
395.69	226.61
396.06	226.64
396.44	226.65
396.82	226.69
397.19	226.76
397.57	226.83
397.95	226.87
398.32	226.88
398.70	226.93
399.07	227.00
399.45	227.05
399.82	227.14
400.20	227.22
400.58	227.31
400.95	227.36
401.33	227.47
401.70	227.62
402.08	227.74
402.45	227.85
402.83	227.93
403.20	228.06
403.58	228.15
403.95	228.31
404.33	228.48
404.71	228.57
405.08	228.73
405.46	228.87
405.83	229.07
406.21	229.21
406.58	229.41
406.96	229.55
407.33	229.76
407.70	229.96
408.08	230.24
408.45	230.44
408.83	230.67
409.20	230.88
409.58	231.07
409.95	231.33
410.33	231.59
410.70	231.85
411.08	232.10
411.45	232.40
411.82	232.71
412.20	233.05
412.57	233.50
412.95	233.81
413.32	234.18
413.69	234.59
414.07	235.03
414.44	235.49
414.82	235.98
415.19	236.51
415.56	237.08
415.94	237.62
416.31	238.24
416.68	238.85
417.06	239.54
417.43	240.24
417.81	240.97
418.18	241.75
418.55	242.60
418.93	243.49
419.30	244.40
419.67	245.30
420.04	246.27
420.42	247.24
420.79	248.43
421.16	249.58
421.54	250.77
421.91	251.99
422.28	253.24
422.66	254.61
423.03	255.87
423.40	257.17
423.77	258.56
424.15	259.96
424.52	261.45
424.89	263.06
425.26	264.59
425.64	266.05
426.01	267.66
426.38	269.32
426.75	270.95
427.13	272.69
427.50	274.54
427.87	276.40
428.24	278.27
428.61	280.03
428.99	282.02
429.36	284.10
429.73	286.13
430.10	288.17
430.47	290.22
430.85	292.42
431.22	294.70
431.59	297.09
431.96	299.34
432.33	301.83
432.70	304.25
433.08	307.07
433.45	309.69
433.82	312.27
434.19	315.17
434.56	317.99
434.93	320.60
435.30	323.21
435.68	326.12
436.05	328.95
436.42	331.75
436.79	334.23
437.16	336.92
437.53	339.80
437.90	342.63
438.27	345.37
438.64	348.17
439.01	350.78
439.38	353.02
439.75	355.22
440.13	357.78
440.50	360.09
440.87	361.94
441.24	363.94
441.61	366.17
441.98	367.65
442.35	369.47
442.72	371.39
443.09	373.17
443.46	374.12
443.83	374.73
444.20	375.27
444.57	376.12
444.94	376.44
445.31	376.79
445.68	377.12
446.05	377.24
446.42	376.85
446.79	376.39
447.16	375.99
447.53	375.65
447.90	374.45
448.27	373.29
448.64	371.72
449.01	370.53
449.37	368.54
449.74	366.64
450.11	364.40
450.48	361.89
450.85	359.38
451.22	357.26
451.59	355.22
451.96	353.23
452.33	350.60
452.70	348.20
453.07	345.37
453.43	342.48
453.80	339.65
454.17	336.95
454.54	334.40
454.91	331.64
455.28	329.00
455.65	326.51
456.02	324.05
456.38	321.89
456.75	319.26
457.12	316.99
457.49	314.78
457.86	312.62
458.23	310.78
458.59	308.75
458.96	306.70
459.33	304.82
459.70	302.94
460.07	301.54
460.43	299.83
460.80	298.18
461.17	296.71
461.54	295.20
461.91	293.81
462.27	292.37
462.64	291.10
463.01	289.71
463.38	288.38
463.74	287.02
464.11	285.84
464.48	284.79
464.85	283.65
465.21	282.76
465.58	281.83
465.95	280.72
466.32	279.77
466.68	278.81
467.05	277.92
467.42	277.04
467.78	276.04
468.15	275.14
468.52	274.48
468.88	273.64
469.25	272.85
469.62	272.20
469.98	271.52
470.35	270.89
470.72	270.30
471.08	269.66
471.45	269.11
471.82	268.55
472.18	267.93
472.55	267.49
472.92	266.95
473.28	266.45
473.65	265.98
474.02	265.51
474.38	265.15
474.75	264.82
475.11	264.46
475.48	264.17
475.85	263.94
476.21	263.67
476.58	263.47
476.94	263.33
477.31	263.14
477.67	262.98
478.04	262.84
478.41	262.77
478.77	262.80
479.14	262.72
479.50	262.74
479.87	262.79
480.23	262.87
480.60	262.92
480.96	263.04
481.33	263.24
481.69	263.47
482.06	263.68
482.42	263.85
482.79	264.13
483.15	264.47
483.52	264.86
483.88	265.25
484.25	265.63
484.61	266.06
484.98	266.54
485.34	267.14
485.71	267.78
486.07	268.38
486.44	268.95
486.80	269.65
487.17	270.38
487.53	271.27
487.90	272.13
488.26	273.12
488.62	274.11
488.99	275.12
489.35	276.16
489.72	277.29
490.08	278.53
490.44	279.75
490.81	281.11
491.17	282.49
491.54	284.00
491.90	285.57
492.26	287.25
492.63	288.99
492.99	290.74
493.36	292.62
493.72	294.66
494.08	296.77
494.45	299.06
494.81	301.40
495.17	303.76
495.54	306.34
495.90	308.99
496.26	311.78
496.63	314.76
496.99	317.87
497.35	321.16
497.72	324.57
498.08	328.13
498.44	331.76
498.80	335.64
499.17	339.64
499.53	343.83
499.89	348.19
500.26	352.68
500.62	357.35
500.98	362.36
501.34	367.41
501.71	372.76
502.07	378.18
502.43	383.84
502.79	389.67
503.16	395.71
503.52	401.98
503.88	408.44
504.24	414.98
504.60	421.83
504.97	428.94
505.33	436.29
505.69	443.93
506.05	451.72
506.41	459.64
506.78	467.78
507.14	476.17
507.50	484.85
507.86	493.84
508.22	503.10
508.59	512.26
508.95	521.85
509.31	531.62
509.67	541.74
510.03	552.01
510.39	562.53
510.75	573.34
511.12	584.31
511.48	595.59
511.84	607.07
512.20	618.59
512.56	630.53
512.92	642.72
513.28	655.07
513.64	667.58
514.00	680.28
514.37	693.31
514.73	706.34
515.09	719.41
515.45	732.76
515.81	746.24
516.17	760.26
516.53	774.40
516.89	788.73
517.25	802.98
517.61	817.47
517.97	832.04
518.33	846.54
518.69	861.43
519.05	876.45
519.41	891.66
519.77	907.25
520.13	922.78
520.49	938.21
520.85	953.74
521.21	969.57
521.57	985.80
521.93	1001.57
522.29	1018.10
522.65	1034.37
523.01	1050.60
523.37	1066.81
523.73	1083.06
524.09	1099.16
524.45	1115.41
524.81	1132.03
525.17	1148.93
525.53	1165.87
525.89	1182.77
526.25	1199.57
526.61	1215.99
526.97	1232.82
527.33	1249.31
527.68	1266.01
528.04	1282.50
528.40	1299.15
528.76	1316.16
529.12	1332.93
529.48	1349.91
529.84	1366.00
530.20	1382.76
530.56	1399.88
530.91	1417.25
531.27	1434.13
531.63	1450.66
531.99	1467.44
532.35	1483.48
532.71	1499.22
533.07	1515.59
533.42	1531.43
533.78	1547.52
534.14	1563.86
534.50	1579.19
534.86	1595.33
535.21	1610.48
535.57	1626.57
535.93	1642.07
536.29	1656.84
536.65	1672.01
537.00	1686.84
537.36	1702.25
537.72	1716.91
538.08	1731.33
538.44	1745.34
538.79	1759.23
539.15	1773.09
539.51	1786.89
539.87	1801.29
540.22	1815.23
540.58	1829.10
540.94	1842.66
541.29	1855.57
541.65	1868.35
542.01	1881.66
542.37	1893.87
542.72	1906.33
543.08	1918.10
543.44	1930.57
543.79	1942.01
544.15	1952.93
544.51	1964.48
544.87	1975.47
545.22	1986.17
545.58	1996.52
545.94	2006.25
546.29	2016.13
546.65	2026.00
547.01	2035.13
547.36	2044.00
547.72	2052.48
548.07	2060.35
548.43	2068.57
548.79	2076.79
549.14	2084.31
549.50	2091.72
549.86	2099.39
550.21	2106.71
550.57	2113.86
550.92	2120.38
551.28	2127.51
551.64	2134.58
551.99	2141.17
552.35	2147.39
552.70	2153.63
553.06	2159.49
553.41	2165.73
553.77	2171.83
554.13	2177.94
554.48	2184.19
554.84	2189.58
555.19	2194.92
555.55	2200.01
555.90	2204.31
556.26	2209.05
556.61	2213.73
556.97	2218.01
557.32	2222.23
557.68	2226.37
558.03	2230.67
558.39	2234.51
558.74	2238.97
559.10	2242.71
559.45	2246.35
559.81	2250.52
560.16	2254.33
560.52	2257.57
560.87	2261.04
561.23	2263.55
561.58	2266.50
561.94	2269.03
562.29	2271.47
562.64	2274.07
563.00	2276.69
563.35	2280.38
563.71	2283.57
564.06	2286.81
564.42	2289.54
564.77	2292.02
565.12	2294.33
565.48	2296.15
565.83	2297.88
566.19	2299.27
566.54	2300.38
566.89	2301.42
567.25	2302.05
567.60	2303.36
567.96	2305.08
568.31	2305.99
568.66	2307.13
569.02	2307.65
569.37	2307.83
569.72	2308.55
570.08	2308.71
570.43	2308.70
570.78	2307.95
571.14	2306.34
571.49	2305.03
571.84	2304.72
572.20	2303.50
572.55	2302.41
572.90	2300.97
573.26	2299.60
573.61	2297.76
573.96	2295.97
574.31	2293.04
574.67	2289.95
575.02	2286.29
575.37	2282.91
575.72	2278.91
576.08	2275.60
576.43	2272.24
576.78	2268.54
577.13	2265.27
577.49	2262.23
577.84	2258.67
578.19	2254.87
578.54	2251.16
578.90	2246.79
579.25	2241.27
579.60	2236.30
579.95	2231.20
580.30	2226.13
580.66	2220.91
581.01	2216.00
581.36	2210.92
581.71	2206.57
582.06	2202.05
582.42	2197.42
582.77	2192.03
583.12	2187.30
583.47	2182.33
583.82	2177.14
584.17	2171.81
584.53	2166.25
584.88	2160.48
585.23	2154.62
585.58	2149.19
585.93	2143.72
586.28	2138.93
586.63	2133.79
586.98	2128.71
587.34	2123.91
587.69	2118.91
588.04	2113.58
588.39	2107.76
588.74	2101.20
589.09	2095.12
589.44	2088.32
589.79	2082.33
590.14	2076.64
590.49	2070.19
590.84	2063.83
591.19	2057.71
591.54	2051.22
591.89	2043.63
592.25	2036.83
592.60	2029.62
592.95	2021.87
593.30	2014.33
593.65	2006.62
594.00	1999.45
594.35	1992.09
594.70	1984.12
595.05	1976.83
595.40	1969.42
595.75	1961.90
596.10	1955.63
596.45	1948.73
596.80	1942.29
597.15	1935.40
597.50	1928.22
597.85	1921.82
598.19	1915.20
598.54	1908.19
598.89	1901.44
599.24	1895.47
599.59	1888.64
599.94	1882.27
600.29	1875.99
600.64	1869.43
600.99	1861.89
601.34	1854.97
601.69	1847.97
602.04	1840.93
602.39	1833.55
602.74	1826.66
603.08	1819.79
603.43	1813.04
603.78	1805.73
604.13	1798.57
604.48	1791.38
604.83	1784.52
605.18	1777.33
605.53	1769.29
605.87	1761.09
606.22	1753.91
606.57	1745.98
606.92	1738.70
607.27	1731.54
607.62	1724.55
607.96	1717.10
608.31	1710.57
608.66	1702.88
609.01	1695.25
609.36	1687.75
609.70	1679.65
610.05	1671.66
610.40	1664.07
610.75	1655.71
611.10	1648.09
611.44	1639.81
611.79	1631.83
612.14	1623.11
612.49	1614.07
612.83	1605.69
613.18	1597.73
613.53	1589.59
613.88	1581.16
614.22	1572.79
614.57	1564.25
614.92	1556.25
615.27	1548.78
615.61	1540.36
615.96	1532.48
616.31	1524.86
616.65	1517.39
617.00	1509.82
617.35	1502.13
617.70	1493.71
618.04	1485.09
618.39	1476.76
618.74	1469.04
619.08	1460.75
619.43	1453.29
619.78	1446.35
620.12	1439.16
620.47	1431.51
620.82	1423.44
621.16	1416.09
621.51	1408.40
621.85	1400.65
622.20	1391.97
622.55	1383.67
622.89	1375.91
623.24	1368.23
623.59	1360.84
623.93	1353.34
624.28	1346.07
624.62	1338.50
624.97	1331.34
625.32	1324.62
625.66	1317.64
626.01	1310.50
626.35	1303.01
626.70	1295.15
627.04	1287.29
627.39	1279.45
627.73	1272.09
628.08	1264.98
628.43	1257.51
628.77	1250.16
629.12	1242.60
629.46	1235.51
629.81	1227.99
630.15	1220.72
630.50	1213.28
630.84	1205.15
631.19	1197.30
631.53	1189.85
631.88	1182.32
632.22	1174.68
632.57	1167.39
632.91	1159.86
633.26	1152.43
633.60	1144.99
633.95	1137.87
634.29	1130.82
634.64	1124.16
634.98	1116.76
635.32	1109.72
635.67	1103.30
636.01	1096.66
636.36	1089.88
636.70	1083.28
637.05	1076.78
637.39	1070.28
637.73	1063.86
638.08	1057.92
638.42	1051.91
638.77	1045.45
639.11	1038.80
639.45	1032.37
639.80	1025.62
640.14	1019.22
640.49	1012.68
640.83	1006.48
641.17	1000.33
641.52	994.03
641.86	987.55
642.20	981.73
642.55	975.39
642.89	968.76
643.23	962.25
643.58	956.54
643.92	950.42
644.26	944.33
644.61	938.31
644.95	932.22
645.29	925.71
645.64	918.90
645.98	912.55
646.32	906.81
646.66	900.79
647.01	895.09
647.35	889.33
647.69	883.52
648.04	877.99
648.38	872.24
648.72	866.19
649.06	860.11
649.41	854.19
649.75	848.24
650.09	842.27
650.43	836.47
650.78	830.29
651.12	824.32
651.46	818.61
651.80	812.86
652.14	807.47
652.49	802.03
652.83	796.81
653.17	791.00
653.51	785.17
653.85	779.82
654.20	774.10
654.54	768.12
654.88	762.37
655.22	756.40
655.56	750.69
655.90	745.27
656.25	740.07
656.59	734.75
656.93	729.66
657.27	724.55
657.61	719.17
657.95	714.05
658.29	708.95
658.64	703.73
658.98	698.42
659.32	692.97
659.66	687.71
660.00	682.40
660.34	677.57
660.68	672.72
661.02	667.70
661.36	663.04
661.70	658.51
662.05	654.11
662.39	649.83
662.73	645.28
663.07	640.89
663.41	636.44
663.75	631.85
664.09	627.32
664.43	622.98
664.77	618.82
665.11	614.56
665.45	610.40
665.79	606.33
666.13	602.18
666.47	598.10
666.81	594.01
667.15	589.93
667.49	586.06
667.83	582.23
668.17	578.32
668.51	574.29
668.85	570.27
669.19	566.38
669.53	562.51
669.87	558.66
670.21	554.99
670.55	551.36
670.89	547.96
671.23	544.48
671.57	540.92
671.91	537.40
672.25	534.00
672.58	530.55
672.92	527.14
673.26	524.05
673.60	520.85
673.94	517.75
674.28	514.89
674.62	511.91
674.96	508.83
675.30	505.93
675.64	502.98
675.97	500.25
676.31	497.43
676.65	494.51
676.99	491.80
677.33	488.96
677.67	486.10
678.01	483.12
678.34	480.16
678.68	477.37
679.02	474.51
679.36	471.65
679.70	468.93
680.04	466.15
680.37	463.22
680.71	460.45
681.05	457.81
681.39	455.02
681.73	452.38
682.06	449.89
682.40	447.30
682.74	444.78
683.08	442.23
683.42	439.62
683.75	437.14
684.09	434.61
684.43	432.17
684.77	429.76
685.10	427.45
685.44	425.13
685.78	422.80
686.12	420.58
686.45	418.33
686.79	416.02
687.13	413.81
687.46	411.67
687.80	409.50
688.14	407.31
688.48	405.31
688.81	403.02
689.15	400.85
689.49	398.75
689.82	396.70
690.16	394.62
690.50	392.71
690.83	390.76
691.17	388.79
691.51	386.85
691.84	385.02
692.18	383.07
692.52	381.12
692.85	379.20
693.19	377.32
693.52	375.50
693.86	373.68
694.20	371.95
694.53	370.18
694.87	368.39
695.21	366.64
695.54	364.82
695.88	363.16
696.21	361.43
696.55	359.73
696.88	358.04
697.22	356.38
697.56	354.77
697.89	353.14
698.23	351.52
698.56	349.87
698.90	348.26
699.23	346.60
699.57	345.05
699.90	343.53
700.24	341.98
700.58	340.44
700.91	338.94
701.25	337.45
701.58	336.07
701.92	334.71
702.25	333.30
702.59	331.89
702.92	330.57
703.26	329.28
703.59	327.98
703.93	326.79
704.26	325.59
704.60	324.30
704.93	322.98
705.26	321.77
705.60	320.63
705.93	319.47
706.27	318.48
706.60	317.45
706.94	316.38
707.27	315.30
707.61	314.23
707.94	313.20
708.27	312.12
708.61	311.09
708.94	310.02
709.28	309.10
709.61	308.22
709.94	307.19
710.28	306.18
710.61	305.24
710.95	304.17
711.28	303.25
711.61	302.28
711.95	301.40
712.28	300.44
712.61	299.45
712.95	298.50
713.28	297.59
713.61	296.65
713.95	295.72
714.28	294.91
714.61	294.04
714.95	293.22
715.28	292.36
715.61	291.46
715.95	290.62
716.28	289.69
716.61	288.80
716.95	288.01
717.28	287.27
717.61	286.46
717.94	285.71
718.28	284.90
718.61	284.19
718.94	283.45
719.27	282.80
719.61	282.16
719.94	281.51
720.27	280.79
720.60	280.15
720.94	279.53
721.27	278.90
721.60	278.37
721.93	277.76
722.27	277.23
722.60	276.65
722.93	276.07
723.26	275.55
723.59	275.01
723.93	274.46
724.26	273.92
724.59	273.38
724.92	272.88
725.25	272.37
725.59	271.88
725.92	271.38
726.25	270.86
726.58	270.32
726.91	269.82
727.24	269.39
727.57	268.92
727.91	268.36
728.24	267.89
728.57	267.36
728.90	266.91
729.23	266.41
729.56	265.98
729.89	265.56
730.22	265.10
730.55	264.66
730.89	264.20
731.22	263.75
731.55	263.29
731.88	262.85
732.21	262.41
732.54	261.92
732.87	261.53
733.20	261.15
733.53	260.79
733.86	260.42
734.19	259.94
734.52	259.56
734.85	259.26
735.18	258.84
735.51	258.47
735.84	258.07
736.17	257.70
736.50	257.30
736.83	257.05
737.16	256.71
737.49	256.35
737.82	256.03
738.15	255.70
738.48	255.40
738.81	255.10
739.14	254.81
739.47	254.53
739.80	254.19
740.13	253.86
740.46	253.51
740.79	253.16
741.12	252.90
741.45	252.58
741.78	252.24
742.11	251.97
742.44	251.62
742.77	251.39
743.10	251.09
743.43	250.81
743.75	250.43
744.08	250.28
744.41	250.01
744.74	249.74
745.07	249.44
745.40	249.20
745.73	248.95
746.06	248.66
746.39	248.39
746.71	248.14
747.04	247.86
747.37	247.66
747.70	247.43
748.03	247.22
748.36	247.02
748.68	246.81
749.01	246.57
749.34	246.38
749.67	246.12
750.00	245.93
750.33	245.80
750.65	245.57
750.98	245.23
751.31	245.01
751.64	244.79
751.97	244.65
752.29	244.42
752.62	244.16
752.95	243.96
753.28	243.76
753.60	243.55
753.93	243.39
754.26	243.18
754.59	242.96
754.91	242.73
755.24	242.49
755.57	242.29
755.90	242.11
756.22	241.94
756.55	241.78
756.88	241.59
757.20	241.34
757.53	241.14
757.86	241.00
758.19	240.85
758.51	240.68
758.84	240.49
759.17	240.35
759.49	240.21
759.82	240.07
760.15	239.95
760.47	239.80
760.80	239.63
761.13	239.51
761.45	239.38
761.78	239.24
762.11	239.10
762.43	238.95
762.76	238.81
763.08	238.68
763.41	238.51
763.74	238.32
764.06	238.20
764.39	238.09
764.71	237.93
765.04	237.81
765.37	237.68
765.69	237.53
766.02	237.38
766.34	237.26
766.67	237.10
767.00	236.94
767.32	236.84
767.65	236.76
767.97	236.59
768.30	236.49
768.62	236.35
768.95	236.22
769.27	236.08
769.60	235.97
769.92	235.83
770.25	235.72
770.57	235.65
770.90	235.53
771.22	235.40
771.55	235.28
771.87	235.18
772.20	235.08
772.52	235.06
772.85	235.10
773.17	235.01
773.50	234.89
773.82	234.82
774.15	234.69
774.47	234.58
774.80	234.54
775.12	234.44
775.45	234.36
775.77	234.29
776.09	234.21
776.42	234.15
776.74	234.09
777.07	233.99
777.39	233.92
777.72	233.82
778.04	233.77
778.36	233.68
778.69	233.62
779.01	233.55
779.33	233.39
779.66	233.18
779.98	233.12
780.31	233.06
780.63	232.99
780.95	232.95
781.28	232.86
781.60	232.79
781.92	232.76
782.25	232.71
782.57	232.63
782.89	232.58
783.22	232.48
783.54	232.43
783.86	232.39
784.19	232.30
784.51	232.28
784.83	232.23
785.16	232.17
785.48	232.12
785.80	232.07
786.12	232.02
786.45	231.96
786.77	231.92
787.09	231.90
787.42	231.87
787.74	231.83
788.06	231.81
788.38	231.77
788.71	231.72
789.03	231.68
789.35	231.68
789.67	231.65
789.99	231.64
790.32	231.57
790.64	231.55
790.96	231.57
791.28	231.49
791.61	231.42
791.93	231.39
792.25	231.31
792.57	231.37
792.89	231.32
793.21	231.30
793.54	231.21
793.86	231.19
794.18	231.12
794.50	231.07
794.82	231.03
795.14	230.98
795.47	230.93
795.79	230.91
796.11	230.87
796.43	230.81
796.75	230.77
797.07	230.76
797.39	230.70
797.71	230.65
798.04	230.61
798.36	230.59
798.68	230.57
799.00	230.53
799.32	230.45
799.64	230.42
799.96	230.37
800.28	230.39
800.60	230.35
800.92	230.33
801.24	230.25
801.56	230.21
801.89	230.19
802.21	230.17
802.53	230.12
802.85	230.09
803.17	230.10
803.49	230.06
803.81	230.01
804.13	229.98
804.45	229.92
804.77	229.90
805.09	229.88
805.41	229.84
805.73	229.82
806.05	229.73
806.37	229.70
806.69	229.66
807.01	229.61
807.33	229.58
807.65	229.54
807.97	229.60
808.28	229.56
808.60	229.51
808.92	229.46
809.24	229.48
809.56	229.41
809.88	229.37
810.20	229.35
810.52	229.31
810.84	229.29
811.16	229.28
811.48	229.26
811.80	229.23
812.12	229.17
812.43	229.17
812.75	229.16
813.07	229.14
813.39	229.11
813.71	229.09
814.03	229.04
814.35	229.02
814.67	228.94
814.98	228.93
815.30	228.93
815.62	228.86
815.94	228.77
816.26	228.80
816.58	228.74
816.89	228.72
817.21	228.69
817.53	228.69
817.85	228.71
818.17	228.68
818.48	228.64
818.80	228.69
819.12	228.68
819.44	228.66
819.76	228.66
820.07	228.67
820.39	228.63
820.71	228.66
821.03	228.67
821.34	228.66
821.66	228.66
821.98	228.63
822.30	228.66
822.61	228.72
822.93	228.68
823.25	228.71
823.57	228.71
823.88	228.75
824.20	228.72
824.52	228.72
824.83	228.70
825.15	228.71
825.47	228.68
825.79	228.69
826.10	228.66
826.42	228.67
826.74	228.65
827.05	228.68
827.37	228.63
827.69	228.61
828.00	228.63
828.32	228.63
828.64	228.66
828.95	228.69
829.27	228.63
829.58	228.60
829.90	228.57
830.22	228.57
830.53	228.55
830.85	228.53
831.17	228.48
831.48	228.52
831.80	228.50
832.11	228.46
832.43	228.41
832.75	228.44
833.06	228.43
833.38	228.43
833.69	228.44
834.01	228.45
834.32	228.43
834.64	228.40
834.96	228.38
835.27	228.35
835.59	228.29
835.90	228.30
836.22	228.29
836.53	228.27
836.85	228.23
837.16	228.26
837.48	228.26
837.79	228.28
838.11	228.25
838.42	228.21
838.74	228.22
839.05	228.23
839.37	228.20
839.68	228.16
840.00	228.12
840.31	228.06
840.63	228.02
840.94	228.00
841.26	227.96
841.57	227.94
841.88	227.92
842.20	227.90
842.51	227.86
842.83	227.86
843.14	227.91
843.46	227.91
843.77	227.87
844.08	227.83
844.40	227.77
844.71	227.74
845.03	227.72
845.34	227.70
845.65	227.67
845.97	227.65
846.28	227.61
846.60	227.57
846.91	227.58
847.22	227.60
847.54	227.59
847.85	227.60
848.16	227.59
848.48	227.56
848.79	227.59
849.10	227.61
849.42	227.64
849.73	227.57
850.04	227.58
850.36	227.51
850.67	227.53
850.98	227.56
851.30	227.59
851.61	227.59
851.92	227.56
852.23	227.59
852.55	227.57
852.86	227.58
853.17	227.61
853.49	227.61
853.80	227.60
854.11	227.58
854.42	227.58
854.74	227.57
855.05	227.59
855.36	227.55
855.67	227.52
855.99	227.48
856.30	227.56
856.61	227.55
856.92	227.57
857.23	227.55
857.55	227.54
857.86	227.50
858.17	227.51
858.48	227.50
858.79	227.48
859.11	227.52
859.42	227.49
859.73	227.48
860.04	227.48
860.35	227.46
860.66	227.44
860.98	227.44
861.29	227.45
861.60	227.42
861.91	227.44
862.22	227.43
862.53	227.42
862.84	227.33
863.16	227.35
863.47	227.32
863.78	227.32
864.09	227.33
864.40	227.33
864.71	227.35
865.02	227.37
865.33	227.35
865.64	227.33
865.95	227.34
866.27	227.39
866.58	227.39
866.89	227.39
867.20	227.42
867.51	227.40
867.82	227.39
868.13	227.41
868.44	227.39
868.75	227.41
869.06	227.43
869.37	227.45
869.68	227.40
869.99	227.43
870.30	227.46
870.61	227.45
870.92	227.44
871.23	227.40
871.54	227.42
871.85	227.46
872.16	227.45
872.47	227.47
872.78	227.43
873.09	227.43
873.40	227.44
873.71	227.41
874.02	227.42
874.33	227.40
874.64	227.39
874.95	227.43
875.26	227.41
875.56	227.38
875.87	227.36
876.18	227.36
876.49	227.43
876.80	227.43
877.11	227.43
877.42	227.45
877.73	227.47
878.04	227.45
878.35	227.45
878.66	227.46
878.96	227.45
879.27	227.43
879.58	227.43
879.89	227.40
880.20	227.46
880.51	227.46
880.82	227.46
881.12	227.48
881.43	227.45
881.74	227.42
882.05	227.39
882.36	227.42
882.67	227.45
882.97	227.38
883.28	227.34
883.59	227.32
883.90	227.35
884.21	227.38
884.51	227.36
884.82	227.32
885.13	227.30
885.44	227.29
885.74	227.29
886.05	227.29
886.36	227.30
886.67	227.26
886.98	227.30
887.28	227.33
887.59	227.32
887.90	227.29
888.20	227.31
888.51	227.37
888.82	227.34
889.13	227.33
889.43	227.35
889.74	227.34
890.05	227.35
890.35	227.31
890.66	227.28
890.97	227.28
891.28	227.27
891.58	227.28
891.89	227.27
892.20	227.26
892.50	227.25
892.81	227.22
893.12	227.21
893.42	227.13
893.73	227.09
894.04	227.07
894.34	227.10
894.65	227.10
894.95	227.08
895.26	227.07
895.57	227.08
895.87	227.02
896.18	227.03
896.48	227.05
896.79	227.04
897.10	227.04
897.40	227.05
897.71	227.06
898.01	227.05
898.32	227.06
898.63	227.04
898.93	227.02
899.24	227.05
899.54	227.08
899.85	227.12
900.15	227.13
900.46	227.15
900.76	227.17
901.07	227.16
901.38	227.16
901.68	227.19
901.99	227.17
902.29	227.19
902.60	227.18
902.90	227.17
903.21	227.17
903.51	227.19
903.82	227.23
904.12	227.23
904.43	227.21
904.73	227.19
905.03	227.22
905.34	227.32
905.64	227.33
905.95	227.32
906.25	227.28
906.56	227.31
906.86	227.29
907.17	227.27
907.47	227.26
907.77	227.23
908.08	227.21
908.38	227.23
908.69	227.24
908.99	227.24
909.30	227.27
909.60	227.27
909.90	227.26
910.21	227.22
910.51	227.24
910.81	227.26
911.12	227.29
911.42	227.29
911.73	227.20
912.03	227.19
912.33	227.22
912.64	227.24
912.94	227.20
913.24	227.22
913.55	227.23
913.85	227.26
914.15	227.30
914.46	227.33
914.76	227.31
915.06	227.29
915.37	227.31
915.67	227.27
915.97	227.29
916.27	227.28
916.58	227.29
916.88	227.25
917.18	227.27
917.49	227.35
917.79	227.34
918.09	227.35
918.39	227.35
918.70	227.33
919.00	227.35
919.30	227.39
919.60	227.35
919.91	227.31
920.21	227.29
920.51	227.26
920.81	227.25
921.12	227.27
921.42	227.28
921.72	227.27
922.02	227.27
922.32	227.28
922.63	227.26
922.93	227.27
923.23	227.26
923.53	227.22
923.83	227.15
924.13	227.14
924.44	227.13
924.74	227.14
925.04	227.15
925.34	227.09
925.64	227.06
925.94	227.05
926.24	227.11
926.55	227.09
926.85	227.10
927.15	227.06
927.45	227.05
927.75	227.02
928.05	227.01
928.35	227.00
928.65	227.00
928.95	227.00
929.26	226.96
929.56	227.00
929.86	227.01
930.16	226.98
930.46	226.99
930.76	226.98
931.06	226.96
931.36	226.95
931.66	227.00
931.96	227.01
932.26	227.06
932.56	227.00
932.86	227.02
933.16	227.03
933.46	227.03
933.76	227.02
934.06	227.05
934.36	227.11
934.66	227.08
934.96	227.05
935.26	227.05
935.56	227.05
935.86	227.06
936.16	227.04
936.46	227.05
936.76	227.05
937.06	227.04
937.36	227.05
937.66	227.06
937.96	227.03
938.26	227.02
938.56	227.00
938.86	227.03
939.16	227.05
939.46	227.03
939.76	227.05
940.06	227.08
940.35	227.07
940.65	227.02
940.95	227.07
941.25	227.05
941.55	227.06
941.85	227.09
942.15	227.09
942.45	227.13
942.75	227.15
943.04	227.12
943.34	227.16
943.64	227.13
943.94	227.12
944.24	227.13
944.54	227.14
944.84	227.13
945.13	227.13
945.43	227.10
945.73	227.11
946.03	227.11
946.33	227.06
946.62	227.03
946.92	227.02
947.22	227.00
947.52	227.03
947.82	227.04
948.11	227.03
948.41	226.99
948.71	226.97
949.01	226.97
949.31	226.98
949.60	226.95
949.90	226.98
950.20	226.95
950.50	226.97
950.79	226.96
951.09	227.00
951.39	226.96
951.69	226.98
951.98	227.02
952.28	227.01
952.58	227.04
952.87	227.07
953.17	227.09
953.47	227.09
953.76	227.10
954.06	227.07
954.36	227.05
954.66	227.08
954.95	227.10
955.25	227.12
955.55	227.12
955.84	227.13
956.14	227.15
956.44	227.16
956.73	227.14
957.03	227.15
957.32	227.12
957.62	227.14
957.92	227.15
958.21	227.11
958.51	227.22
958.81	227.23
959.10	227.22
959.40	227.22
959.69	227.24
959.99	227.27
960.29	227.28
960.58	227.27
960.88	227.26
961.17	227.20
961.47	227.20
961.76	227.21
962.06	227.18
962.36	227.12
962.65	227.11
962.95	227.10
963.24	227.07
963.54	227.07
963.83	227.08
964.13	227.06
964.42	227.02
964.72	226.92
965.01	226.92
965.31	226.92
965.60	226.90
965.90	226.93
966.19	226.88
966.49	226.87
966.78	226.90
967.08	226.90
967.37	226.93
967.67	226.90
967.96	226.92
968.26	226.91
968.55	226.97
968.85	226.97
969.14	226.99
969.43	227.00
969.73	226.99
970.02	226.96
970.32	226.96
970.61	226.96
970.91	226.96
971.20	226.94
971.49	226.89
971.79	226.89
972.08	226.86
972.38	226.87
972.67	226.88
972.96	226.89
973.26	226.86
973.55	226.87
973.85	226.88
974.14	226.86
974.43	226.88
974.73	226.86
975.02	226.88
975.31	226.86
975.61	226.85
975.90	226.85
976.19	226.82
976.49	226.85
976.78	226.87
977.07	226.87
977.37	226.86
977.66	226.87
977.95	226.88
978.24	226.85
978.54	226.86
978.83	226.87
979.12	226.88
979.42	226.92
979.71	226.89
980.00	226.87
980.29	226.87
980.59	226.87
980.88	226.86
981.17	226.87
981.46	226.86
981.76	226.90
982.05	226.94
982.34	226.99
982.63	226.97
982.93	226.97
983.22	227.00
983.51	227.04
983.80	227.10
984.09	227.11
984.39	227.12
984.68	227.11
984.97	227.10
985.26	227.08
985.55	227.06
985.85	227.08
986.14	227.10
986.43	227.11
986.72	227.11
987.01	227.10
987.30	227.08
987.59	227.10
987.89	227.08
988.18	227.05
988.47	227.03
988.76	227.03
989.05	227.07
989.34	227.04
989.63	227.04
989.92	226.99
990.22	227.00
990.51	227.01
990.80	227.00
991.09	227.01
991.38	227.04
991.67	227.03
991.96	227.02
992.25	227.02
992.54	226.99
992.83	226.99
993.12	227.00
993.41	227.04
993.70	227.08
993.99	227.09
994.28	227.10
994.58	227.12
994.87	227.11
995.16	227.08
995.45	227.07
995.74	227.04
996.03	227.09
996.32	227.09
996.61	227.11
996.90	227.09
997.19	227.11
997.48	227.06
997.77	227.06
998.06	227.09
998.34	227.07
998.63	227.08
998.92	227.09
999.21	227.12
999.50	227.09
999.79	227.02
1000.08	227.01
1000.37	226.98
1000.66	226.95
1000.95	226.95
1001.24	226.96
1001.53	226.96
1001.82	226.95
1002.11	226.92
1002.40	226.93
1002.68	226.93
1002.97	226.99
1003.26	226.96
1003.55	226.97
1003.84	226.98
1004.13	226.97
1004.42	227.01
1004.71	227.00
1004.99	226.96
1005.28	226.94
1005.57	226.93
1005.86	226.94
1006.15	226.96
1006.44	226.95
1006.72	226.96
1007.01	226.95
1007.30	226.93
1007.59	226.94
1007.88	226.92
1008.17	226.91
1008.45	226.84
1008.74	226.80
1009.03	226.76
1009.32	226.75
1009.60	226.74
1009.89	226.73
1010.18	226.68
1010.47	226.65
1010.76	226.64
1011.04	226.63
1011.33	226.63
1011.62	226.62
1011.91	226.61
1012.19	226.59
1012.48	226.60
1012.77	226.60
1013.05	226.66
1013.34	226.66
1013.63	226.61
1013.92	226.63
1014.20	226.59
1014.49	226.64
1014.78	226.64
1015.06	226.63
1015.35	226.63
1015.64	226.66
1015.92	226.67
1016.21	226.70
1016.50	226.72
1016.78	226.76
1017.07	226.78
1017.36	226.79
1017.64	226.85
1017.93	226.85
1018.22	226.86
1018.50	226.86
1018.79	226.85
1019.08	226.78
1019.36	226.78
1019.65	226.79
1019.93	226.86
1020.22	226.90
1020.51	226.97
1020.79	226.97
1021.08	226.74
1021.36	226.68
1021.65	226.61
1021.94	226.20
1022.22	226.82
1022.51	226.43
1022.79	228.07
1023.08	226.93
1023.36	228.59
1023.65	226.47
>>>>>End Processed Spectral Data<<<<<
