SpectraSuite Data File
++++++++++++++++++++++++++++++++++++
Date: Fri Feb 01 15:41:52 EST 2013
User: group
Dark Spectrum Present: No
Reference Spectrum Present: No
Number of Sampled Component Spectra: 1
Spectrometers: USB2E7196
Integration Time (usec): 35000 (USB2E7196)
Spectra Averaged: 100 (USB2E7196)
Boxcar Smoothing: 10 (USB2E7196)
Correct for Electrical Dark: No (USB2E7196)
Strobe/Lamp Enabled: No (USB2E7196)
Correct for Detector Non-linearity: No (USB2E7196)
Correct for Stray Light: No (USB2E7196)
Number of Pixels in Processed Spectrum: 2048
>>>>>Begin Processed Spectral Data<<<<<
339.09	0.00
339.48	214.82
339.86	216.77
340.24	218.36
340.63	219.32
341.01	222.33
341.39	222.41
341.78	223.57
342.16	225.09
342.54	225.47
342.93	213.61
343.31	224.42
343.69	224.99
344.07	225.44
344.46	225.85
344.84	226.24
345.22	226.47
345.60	226.72
345.99	226.90
346.37	227.00
346.75	227.10
347.13	227.16
347.52	227.24
347.90	227.32
348.28	227.35
348.66	227.39
349.05	227.35
349.43	227.38
349.81	227.41
350.19	227.45
350.57	227.49
350.96	227.53
351.34	227.60
351.72	227.64
352.10	227.74
352.48	227.80
352.87	227.85
353.25	227.90
353.63	227.93
354.01	227.96
354.39	228.03
354.77	228.06
355.15	228.13
355.54	228.16
355.92	228.15
356.30	228.17
356.68	228.30
357.06	228.37
357.44	228.43
357.82	228.46
358.20	228.48
358.58	228.51
358.97	228.58
359.35	228.63
359.73	228.71
360.11	228.73
360.49	228.75
360.87	228.77
361.25	228.79
361.63	228.86
362.01	228.91
362.39	228.94
362.77	228.98
363.15	229.01
363.53	229.06
363.91	229.10
364.29	229.12
364.67	229.02
365.05	229.03
365.43	229.05
365.81	229.09
366.19	229.18
366.57	229.23
366.95	229.23
367.33	229.20
367.71	229.20
368.09	229.20
368.47	229.18
368.85	229.17
369.23	229.18
369.61	229.13
369.99	229.16
370.37	229.14
370.75	229.18
371.13	229.12
371.51	229.06
371.89	229.04
372.27	229.00
372.65	229.00
373.03	228.96
373.41	228.91
373.78	228.82
374.16	228.68
374.54	228.59
374.92	228.53
375.30	228.47
375.68	228.38
376.06	228.31
376.44	228.26
376.82	228.19
377.19	228.14
377.57	228.04
377.95	227.91
378.33	227.81
378.71	227.66
379.09	227.62
379.47	227.55
379.84	227.46
380.22	227.38
380.60	227.28
380.98	227.20
381.36	227.11
381.73	227.04
382.11	227.03
382.49	226.97
382.87	226.90
383.25	226.83
383.62	226.86
384.00	226.79
384.38	226.74
384.76	226.72
385.13	226.69
385.51	226.69
385.89	226.66
386.27	226.65
386.64	226.60
387.02	226.55
387.40	226.50
387.78	226.46
388.15	226.45
388.53	226.42
388.91	226.40
389.29	226.36
389.66	226.37
390.04	226.33
390.42	226.31
390.79	226.30
391.17	226.30
391.55	226.19
391.92	226.20
392.30	226.24
392.68	226.22
393.05	226.21
393.43	226.21
393.81	226.22
394.18	226.20
394.56	226.23
394.94	226.30
395.31	226.29
395.69	226.36
396.06	226.43
396.44	226.46
396.82	226.45
397.19	226.56
397.57	226.59
397.95	226.66
398.32	226.70
398.70	226.78
399.07	226.89
399.45	226.96
399.82	227.05
400.20	227.08
400.58	227.14
400.95	227.17
401.33	227.26
401.70	227.41
402.08	227.52
402.45	227.60
402.83	227.72
403.20	227.86
403.58	227.97
403.95	228.07
404.33	228.22
404.71	228.38
405.08	228.58
405.46	228.71
405.83	228.87
406.21	229.01
406.58	229.15
406.96	229.28
407.33	229.49
407.70	229.67
408.08	229.94
408.45	230.14
408.83	230.39
409.20	230.61
409.58	230.78
409.95	231.04
410.33	231.34
410.70	231.53
411.08	231.83
411.45	232.10
411.82	232.39
412.20	232.74
412.57	233.13
412.95	233.41
413.32	233.83
413.69	234.24
414.07	234.68
414.44	235.12
414.82	235.60
415.19	236.14
415.56	236.66
415.94	237.22
416.31	237.89
416.68	238.53
417.06	239.25
417.43	239.94
417.81	240.68
418.18	241.43
418.55	242.33
418.93	243.17
419.30	244.06
419.67	245.00
420.04	245.95
420.42	246.97
420.79	248.18
421.16	249.34
421.54	250.50
421.91	251.76
422.28	253.07
422.66	254.40
423.03	255.71
423.40	257.07
423.77	258.46
424.15	259.88
424.52	261.33
424.89	262.95
425.26	264.51
425.64	265.95
426.01	267.57
426.38	269.24
426.75	270.93
427.13	272.68
427.50	274.51
427.87	276.40
428.24	278.27
428.61	280.01
428.99	281.96
429.36	284.10
429.73	286.12
430.10	288.12
430.47	290.22
430.85	292.39
431.22	294.66
431.59	297.03
431.96	299.30
432.33	301.79
432.70	304.16
433.08	307.00
433.45	309.67
433.82	312.25
434.19	315.09
434.56	317.95
434.93	320.63
435.30	323.25
435.68	326.18
436.05	328.99
436.42	331.75
436.79	334.29
437.16	336.93
437.53	339.77
437.90	342.61
438.27	345.29
438.64	348.05
439.01	350.63
439.38	352.90
439.75	355.05
440.13	357.58
440.50	359.91
440.87	361.75
441.24	363.70
441.61	365.86
441.98	367.36
442.35	369.11
442.72	370.96
443.09	372.76
443.46	373.75
443.83	374.37
444.20	374.89
444.57	375.68
444.94	376.01
445.31	376.33
445.68	376.67
446.05	376.78
446.42	376.40
446.79	375.96
447.16	375.50
447.53	375.17
447.90	373.98
448.27	372.84
448.64	371.25
449.01	370.12
449.37	368.15
449.74	366.29
450.11	364.07
450.48	361.58
450.85	359.05
451.22	356.87
451.59	354.82
451.96	352.85
452.33	350.23
452.70	347.83
453.07	345.00
453.43	342.08
453.80	339.30
454.17	336.64
454.54	334.11
454.91	331.37
455.28	328.68
455.65	326.17
456.02	323.70
456.38	321.51
456.75	318.80
457.12	316.51
457.49	314.25
457.86	312.09
458.23	310.25
458.59	308.19
458.96	306.10
459.33	304.22
459.70	302.34
460.07	300.88
460.43	299.17
460.80	297.56
461.17	296.13
461.54	294.58
461.91	293.16
462.27	291.67
462.64	290.42
463.01	289.06
463.38	287.76
463.74	286.36
464.11	285.24
464.48	284.25
464.85	283.19
465.21	282.32
465.58	281.37
465.95	280.26
466.32	279.35
466.68	278.41
467.05	277.55
467.42	276.68
467.78	275.75
468.15	274.86
468.52	274.18
468.88	273.31
469.25	272.59
469.62	271.93
469.98	271.30
470.35	270.70
470.72	270.11
471.08	269.49
471.45	268.99
471.82	268.44
472.18	267.80
472.55	267.35
472.92	266.81
473.28	266.33
473.65	265.89
474.02	265.45
474.38	265.14
474.75	264.82
475.11	264.49
475.48	264.23
475.85	264.03
476.21	263.82
476.58	263.63
476.94	263.52
477.31	263.36
477.67	263.21
478.04	263.08
478.41	263.05
478.77	263.09
479.14	263.05
479.50	263.04
479.87	263.15
480.23	263.24
480.60	263.31
480.96	263.45
481.33	263.68
481.69	263.86
482.06	264.04
482.42	264.23
482.79	264.49
483.15	264.82
483.52	265.18
483.88	265.53
484.25	265.95
484.61	266.37
484.98	266.86
485.34	267.40
485.71	267.99
486.07	268.57
486.44	269.15
486.80	269.86
487.17	270.62
487.53	271.46
487.90	272.31
488.26	273.28
488.62	274.29
488.99	275.23
489.35	276.25
489.72	277.41
490.08	278.62
490.44	279.86
490.81	281.13
491.17	282.48
491.54	283.99
491.90	285.52
492.26	287.15
492.63	288.86
492.99	290.67
493.36	292.55
493.72	294.58
494.08	296.68
494.45	298.91
494.81	301.27
495.17	303.67
495.54	306.27
495.90	308.90
496.26	311.67
496.63	314.62
496.99	317.79
497.35	321.04
497.72	324.43
498.08	327.90
498.44	331.63
498.80	335.57
499.17	339.60
499.53	343.78
499.89	348.12
500.26	352.64
500.62	357.28
500.98	362.23
501.34	367.30
501.71	372.61
502.07	378.02
502.43	383.62
502.79	389.47
503.16	395.47
503.52	401.79
503.88	408.23
504.24	414.93
504.60	421.82
504.97	428.92
505.33	436.25
505.69	443.98
506.05	451.73
506.41	459.60
506.78	467.79
507.14	476.24
507.50	485.02
507.86	494.07
508.22	503.32
508.59	512.57
508.95	522.18
509.31	532.01
509.67	542.12
510.03	552.44
510.39	563.00
510.75	573.80
511.12	584.67
511.48	595.93
511.84	607.40
512.20	618.94
512.56	630.92
512.92	643.10
513.28	655.54
513.64	668.02
514.00	680.72
514.37	693.56
514.73	706.63
515.09	719.65
515.45	732.92
515.81	746.51
516.17	760.49
516.53	774.70
516.89	788.91
517.25	803.07
517.61	817.49
517.97	831.98
518.33	846.51
518.69	861.38
519.05	876.40
519.41	891.55
519.77	907.02
520.13	922.42
520.49	937.75
520.85	953.06
521.21	968.87
521.57	985.11
521.93	1000.97
522.29	1017.36
522.65	1033.67
523.01	1049.90
523.37	1065.94
523.73	1082.06
524.09	1098.00
524.45	1114.32
524.81	1131.07
525.17	1148.01
525.53	1164.87
525.89	1181.74
526.25	1198.56
526.61	1214.95
526.97	1231.64
527.33	1248.13
527.68	1264.82
528.04	1281.29
528.40	1297.90
528.76	1314.82
529.12	1331.38
529.48	1348.24
529.84	1364.24
530.20	1380.80
530.56	1397.84
530.91	1415.25
531.27	1432.10
531.63	1448.68
531.99	1465.38
532.35	1481.35
532.71	1497.20
533.07	1513.49
533.42	1529.34
533.78	1545.32
534.14	1561.63
534.50	1576.97
534.86	1592.82
535.21	1607.88
535.57	1623.90
535.93	1639.40
536.29	1654.32
536.65	1669.49
537.00	1684.34
537.36	1699.62
537.72	1714.20
538.08	1728.67
538.44	1742.48
538.79	1756.30
539.15	1769.98
539.51	1783.60
539.87	1797.87
540.22	1811.49
540.58	1825.17
540.94	1838.65
541.29	1851.62
541.65	1864.25
542.01	1877.59
542.37	1889.86
542.72	1902.32
543.08	1914.19
543.44	1926.69
543.79	1937.94
544.15	1948.88
544.51	1960.47
544.87	1971.42
545.22	1982.37
545.58	1992.61
545.94	2002.33
546.29	2012.25
546.65	2022.07
547.01	2031.25
547.36	2040.03
547.72	2048.55
548.07	2056.43
548.43	2064.43
548.79	2072.66
549.14	2080.14
549.50	2087.51
549.86	2095.34
550.21	2102.74
550.57	2109.81
550.92	2116.32
551.28	2123.38
551.64	2130.60
551.99	2137.00
552.35	2143.26
552.70	2149.27
553.06	2155.05
553.41	2161.49
553.77	2167.65
554.13	2173.80
554.48	2179.94
554.84	2185.29
555.19	2190.63
555.55	2195.85
555.90	2200.35
556.26	2204.98
556.61	2209.87
556.97	2214.11
557.32	2218.20
557.68	2222.34
558.03	2226.60
558.39	2230.39
558.74	2235.01
559.10	2238.70
559.45	2242.40
559.81	2246.66
560.16	2250.44
560.52	2253.86
560.87	2257.14
561.23	2259.68
561.58	2262.62
561.94	2265.20
562.29	2267.50
562.64	2270.17
563.00	2272.64
563.35	2276.21
563.71	2279.44
564.06	2282.59
564.42	2285.41
564.77	2287.94
565.12	2290.18
565.48	2292.07
565.83	2293.80
566.19	2295.07
566.54	2296.09
566.89	2297.27
567.25	2297.76
567.60	2299.25
567.96	2300.73
568.31	2301.66
568.66	2302.67
569.02	2303.16
569.37	2303.42
569.72	2304.39
570.08	2304.40
570.43	2304.49
570.78	2303.96
571.14	2302.34
571.49	2300.95
571.84	2300.57
572.20	2299.45
572.55	2298.37
572.90	2296.72
573.26	2295.31
573.61	2293.56
573.96	2291.64
574.31	2288.59
574.67	2285.53
575.02	2281.86
575.37	2278.71
575.72	2274.88
576.08	2271.62
576.43	2268.28
576.78	2264.59
577.13	2261.38
577.49	2258.33
577.84	2254.84
578.19	2250.98
578.54	2247.31
578.90	2242.98
579.25	2237.54
579.60	2232.43
579.95	2227.40
580.30	2222.51
580.66	2217.27
581.01	2212.32
581.36	2207.44
581.71	2203.23
582.06	2198.87
582.42	2194.13
582.77	2188.69
583.12	2184.04
583.47	2179.24
583.82	2174.29
584.17	2169.13
584.53	2163.59
584.88	2157.88
585.23	2152.10
585.58	2146.64
585.93	2141.12
586.28	2136.42
586.63	2131.28
586.98	2126.28
587.34	2121.48
587.69	2116.48
588.04	2111.31
588.39	2105.65
588.74	2099.22
589.09	2093.12
589.44	2086.21
589.79	2080.39
590.14	2074.79
590.49	2068.24
590.84	2061.84
591.19	2055.69
591.54	2049.14
591.89	2041.70
592.25	2034.86
592.60	2027.57
592.95	2019.90
593.30	2012.64
593.65	2005.06
594.00	1997.95
594.35	1990.66
594.70	1982.66
595.05	1975.34
595.40	1967.95
595.75	1960.47
596.10	1954.17
596.45	1947.20
596.80	1941.15
597.15	1934.39
597.50	1927.10
597.85	1920.63
598.19	1913.91
598.54	1906.70
598.89	1900.12
599.24	1894.36
599.59	1887.64
599.94	1881.52
600.29	1875.07
600.64	1868.46
600.99	1860.92
601.34	1854.09
601.69	1847.10
602.04	1840.18
602.39	1832.85
602.74	1826.03
603.08	1819.21
603.43	1812.50
603.78	1805.28
604.13	1797.92
604.48	1790.55
604.83	1783.81
605.18	1776.79
605.53	1768.78
605.87	1760.88
606.22	1753.55
606.57	1745.57
606.92	1738.28
607.27	1731.05
607.62	1724.15
607.96	1716.80
608.31	1710.12
608.66	1702.42
609.01	1694.83
609.36	1687.28
609.70	1679.29
610.05	1671.26
610.40	1663.36
610.75	1654.93
611.10	1647.34
611.44	1638.98
611.79	1631.12
612.14	1622.41
612.49	1613.18
612.83	1604.85
613.18	1596.67
613.53	1588.53
613.88	1579.92
614.22	1571.55
614.57	1562.95
614.92	1554.88
615.27	1547.28
615.61	1538.98
615.96	1530.98
616.31	1523.36
616.65	1515.90
617.00	1508.49
617.35	1500.82
617.70	1492.65
618.04	1484.14
618.39	1475.94
618.74	1468.40
619.08	1460.01
619.43	1452.40
619.78	1445.56
620.12	1438.32
620.47	1430.71
620.82	1422.56
621.16	1415.14
621.51	1407.65
621.85	1399.95
622.20	1391.42
622.55	1383.05
622.89	1375.24
623.24	1367.60
623.59	1360.39
623.93	1352.99
624.28	1345.61
624.62	1338.10
624.97	1330.90
625.32	1324.19
625.66	1317.02
626.01	1309.79
626.35	1302.37
626.70	1294.80
627.04	1286.89
627.39	1279.20
627.73	1271.90
628.08	1265.14
628.43	1257.74
628.77	1250.35
629.12	1242.86
629.46	1235.73
629.81	1228.39
630.15	1221.11
630.50	1213.67
630.84	1205.35
631.19	1197.40
631.53	1189.95
631.88	1182.36
632.22	1174.70
632.57	1167.39
632.91	1159.87
633.26	1152.43
633.60	1145.05
633.95	1137.89
634.29	1131.04
634.64	1124.32
634.98	1116.94
635.32	1109.68
635.67	1103.20
636.01	1096.60
636.36	1089.77
636.70	1083.34
637.05	1076.75
637.39	1070.29
637.73	1063.86
638.08	1058.00
638.42	1051.96
638.77	1045.47
639.11	1038.88
639.45	1032.57
639.80	1025.97
640.14	1019.44
640.49	1012.87
640.83	1006.55
641.17	1000.20
641.52	993.82
641.86	987.33
642.20	981.48
642.55	975.22
642.89	968.68
643.23	962.09
643.58	956.27
643.92	950.01
644.26	943.93
644.61	937.92
644.95	931.78
645.29	925.11
645.64	918.39
645.98	912.05
646.32	906.14
646.66	900.12
647.01	894.24
647.35	888.64
647.69	882.82
648.04	877.29
648.38	871.54
648.72	865.53
649.06	859.51
649.41	853.66
649.75	847.61
650.09	841.71
650.43	836.01
650.78	829.83
651.12	823.91
651.46	818.19
651.80	812.46
652.14	807.11
652.49	801.69
652.83	796.50
653.17	790.85
653.51	785.16
653.85	779.75
654.20	774.07
654.54	768.06
654.88	762.39
655.22	756.57
655.56	750.88
655.90	745.51
656.25	740.26
656.59	734.81
656.93	729.75
657.27	724.56
657.61	719.03
657.95	713.98
658.29	708.89
658.64	703.67
658.98	698.35
659.32	692.92
659.66	687.81
660.00	682.48
660.34	677.55
660.68	672.68
661.02	667.60
661.36	662.97
661.70	658.50
662.05	654.09
662.39	649.68
662.73	645.21
663.07	640.77
663.41	636.30
663.75	631.87
664.09	627.32
664.43	622.95
664.77	618.88
665.11	614.66
665.45	610.53
665.79	606.45
666.13	602.34
666.47	598.30
666.81	594.11
667.15	590.05
667.49	586.17
667.83	582.35
668.17	578.47
668.51	574.39
668.85	570.40
669.19	566.64
669.53	562.77
669.87	558.87
670.21	555.23
670.55	551.67
670.89	548.24
671.23	544.80
671.57	541.26
671.91	537.71
672.25	534.21
672.58	530.75
672.92	527.32
673.26	524.16
673.60	520.97
673.94	517.92
674.28	514.97
674.62	512.01
674.96	508.88
675.30	506.00
675.64	503.05
675.97	500.28
676.31	497.39
676.65	494.55
676.99	491.90
677.33	488.99
677.67	486.16
678.01	483.13
678.34	480.10
678.68	477.25
679.02	474.47
679.36	471.68
679.70	468.97
680.04	466.17
680.37	463.29
680.71	460.49
681.05	457.87
681.39	455.16
681.73	452.51
682.06	449.99
682.40	447.36
682.74	444.86
683.08	442.33
683.42	439.74
683.75	437.21
684.09	434.67
684.43	432.26
684.77	429.75
685.10	427.40
685.44	425.14
685.78	422.81
686.12	420.55
686.45	418.30
686.79	415.99
687.13	413.86
687.46	411.67
687.80	409.52
688.14	407.25
688.48	405.21
688.81	402.95
689.15	400.81
689.49	398.67
689.82	396.62
690.16	394.52
690.50	392.53
690.83	390.60
691.17	388.62
691.51	386.66
691.84	384.85
692.18	382.92
692.52	380.92
692.85	379.05
693.19	377.14
693.52	375.27
693.86	373.47
694.20	371.67
694.53	369.88
694.87	368.00
695.21	366.25
695.54	364.41
695.88	362.67
696.21	360.95
696.55	359.31
696.88	357.57
697.22	355.91
697.56	354.30
697.89	352.63
698.23	350.99
698.56	349.42
698.90	347.81
699.23	346.15
699.57	344.60
699.90	343.06
700.24	341.56
700.58	340.05
700.91	338.52
701.25	337.07
701.58	335.69
701.92	334.38
702.25	332.98
702.59	331.62
702.92	330.33
703.26	329.02
703.59	327.75
703.93	326.60
704.26	325.37
704.60	324.04
704.93	322.79
705.26	321.57
705.60	320.40
705.93	319.25
706.27	318.21
706.60	317.20
706.94	316.11
707.27	314.97
707.61	313.90
707.94	312.93
708.27	311.84
708.61	310.79
708.94	309.79
709.28	308.82
709.61	307.90
709.94	306.97
710.28	305.95
710.61	304.98
710.95	303.89
711.28	302.99
711.61	302.05
711.95	301.14
712.28	300.23
712.61	299.21
712.95	298.31
713.28	297.45
713.61	296.56
713.95	295.65
714.28	294.84
714.61	294.00
714.95	293.13
715.28	292.29
715.61	291.46
715.95	290.63
716.28	289.81
716.61	288.96
716.95	288.11
717.28	287.39
717.61	286.63
717.94	285.92
718.28	285.11
718.61	284.39
718.94	283.74
719.27	283.07
719.61	282.45
719.94	281.77
720.27	281.07
720.60	280.43
720.94	279.81
721.27	279.21
721.60	278.61
721.93	278.00
722.27	277.46
722.60	276.86
722.93	276.27
723.26	275.73
723.59	275.18
723.93	274.65
724.26	274.09
724.59	273.51
724.92	273.02
725.25	272.53
725.59	272.01
725.92	271.46
726.25	270.91
726.58	270.43
726.91	269.90
727.24	269.44
727.57	268.95
727.91	268.45
728.24	267.98
728.57	267.47
728.90	267.03
729.23	266.51
729.56	266.09
729.89	265.62
730.22	265.10
730.55	264.62
730.89	264.17
731.22	263.70
731.55	263.25
731.88	262.76
732.21	262.31
732.54	261.90
732.87	261.46
733.20	261.09
733.53	260.68
733.86	260.33
734.19	259.87
734.52	259.48
734.85	259.16
735.18	258.71
735.51	258.38
735.84	257.99
736.17	257.64
736.50	257.19
736.83	256.97
737.16	256.64
737.49	256.30
737.82	255.96
738.15	255.66
738.48	255.35
738.81	255.05
739.14	254.70
739.47	254.36
739.80	254.06
740.13	253.75
740.46	253.42
740.79	253.11
741.12	252.84
741.45	252.53
741.78	252.17
742.11	251.90
742.44	251.58
742.77	251.28
743.10	250.97
743.43	250.71
743.75	250.30
744.08	250.16
744.41	249.88
744.74	249.60
745.07	249.34
745.40	249.12
745.73	248.86
746.06	248.57
746.39	248.30
746.71	248.02
747.04	247.73
747.37	247.48
747.70	247.22
748.03	246.98
748.36	246.79
748.68	246.55
749.01	246.30
749.34	246.07
749.67	245.87
750.00	245.68
750.33	245.53
750.65	245.31
750.98	244.95
751.31	244.75
751.64	244.53
751.97	244.35
752.29	244.10
752.62	243.84
752.95	243.67
753.28	243.50
753.60	243.31
753.93	243.14
754.26	242.94
754.59	242.73
754.91	242.49
755.24	242.30
755.57	242.16
755.90	242.00
756.22	241.82
756.55	241.62
756.88	241.44
757.20	241.20
757.53	241.00
757.86	240.85
758.19	240.68
758.51	240.53
758.84	240.33
759.17	240.16
759.49	240.06
759.82	239.95
760.15	239.76
760.47	239.60
760.80	239.44
761.13	239.35
761.45	239.22
761.78	239.10
762.11	238.94
762.43	238.75
762.76	238.57
763.08	238.41
763.41	238.32
763.74	238.15
764.06	237.99
764.39	237.87
764.71	237.72
765.04	237.57
765.37	237.43
765.69	237.29
766.02	237.16
766.34	236.99
766.67	236.82
767.00	236.72
767.32	236.64
767.65	236.60
767.97	236.41
768.30	236.27
768.62	236.12
768.95	236.00
769.27	235.90
769.60	235.83
769.92	235.72
770.25	235.55
770.57	235.45
770.90	235.35
771.22	235.24
771.55	235.14
771.87	235.05
772.20	234.94
772.52	234.94
772.85	234.95
773.17	234.87
773.50	234.78
773.82	234.67
774.15	234.51
774.47	234.32
774.80	234.24
775.12	234.15
775.45	234.06
775.77	233.96
776.09	233.83
776.42	233.77
776.74	233.72
777.07	233.68
777.39	233.60
777.72	233.55
778.04	233.48
778.36	233.39
778.69	233.32
779.01	233.26
779.33	233.07
779.66	232.88
779.98	232.80
780.31	232.69
780.63	232.67
780.95	232.64
781.28	232.60
781.60	232.57
781.92	232.53
782.25	232.45
782.57	232.36
782.89	232.32
783.22	232.23
783.54	232.14
783.86	232.07
784.19	231.99
784.51	231.96
784.83	231.92
785.16	231.87
785.48	231.82
785.80	231.77
786.12	231.75
786.45	231.73
786.77	231.69
787.09	231.68
787.42	231.60
787.74	231.56
788.06	231.50
788.38	231.43
788.71	231.37
789.03	231.36
789.35	231.37
789.67	231.32
789.99	231.28
790.32	231.24
790.64	231.21
790.96	231.25
791.28	231.16
791.61	231.09
791.93	231.05
792.25	231.03
792.57	231.08
792.89	231.02
793.21	231.00
793.54	230.97
793.86	230.89
794.18	230.87
794.50	230.82
794.82	230.82
795.14	230.80
795.47	230.81
795.79	230.76
796.11	230.70
796.43	230.65
796.75	230.64
797.07	230.59
797.39	230.56
797.71	230.49
798.04	230.48
798.36	230.48
798.68	230.41
799.00	230.39
799.32	230.26
799.64	230.26
799.96	230.21
800.28	230.16
800.60	230.15
800.92	230.12
801.24	230.08
801.56	230.04
801.89	230.00
802.21	229.96
802.53	229.92
802.85	229.94
803.17	230.00
803.49	229.90
803.81	229.88
804.13	229.84
804.45	229.81
804.77	229.80
805.09	229.77
805.41	229.77
805.73	229.73
806.05	229.70
806.37	229.67
806.69	229.65
807.01	229.63
807.33	229.60
807.65	229.56
807.97	229.61
808.28	229.55
808.60	229.55
808.92	229.50
809.24	229.54
809.56	229.47
809.88	229.40
810.20	229.45
810.52	229.44
810.84	229.39
811.16	229.34
811.48	229.29
811.80	229.31
812.12	229.27
812.43	229.27
812.75	229.26
813.07	229.21
813.39	229.18
813.71	229.16
814.03	229.15
814.35	229.12
814.67	229.05
814.98	229.04
815.30	229.00
815.62	228.95
815.94	228.87
816.26	228.88
816.58	228.80
816.89	228.78
817.21	228.73
817.53	228.74
817.85	228.74
818.17	228.72
818.48	228.65
818.80	228.68
819.12	228.63
819.44	228.59
819.76	228.57
820.07	228.55
820.39	228.50
820.71	228.48
821.03	228.43
821.34	228.39
821.66	228.39
821.98	228.37
822.30	228.37
822.61	228.41
822.93	228.37
823.25	228.39
823.57	228.34
823.88	228.35
824.20	228.31
824.52	228.32
824.83	228.28
825.15	228.24
825.47	228.23
825.79	228.23
826.10	228.19
826.42	228.20
826.74	228.19
827.05	228.16
827.37	228.16
827.69	228.18
828.00	228.19
828.32	228.18
828.64	228.16
828.95	228.21
829.27	228.17
829.58	228.14
829.90	228.15
830.22	228.16
830.53	228.14
830.85	228.11
831.17	228.05
831.48	228.06
831.80	228.06
832.11	228.00
832.43	227.99
832.75	228.00
833.06	228.06
833.38	228.05
833.69	228.07
834.01	228.06
834.32	228.02
834.64	228.02
834.96	228.03
835.27	228.01
835.59	227.98
835.90	227.99
836.22	227.97
836.53	227.94
836.85	227.93
837.16	228.01
837.48	228.01
837.79	228.04
838.11	228.04
838.42	228.04
838.74	228.11
839.05	228.09
839.37	228.09
839.68	228.01
840.00	228.01
840.31	228.02
840.63	227.99
840.94	228.00
841.26	227.97
841.57	227.96
841.88	227.98
842.20	228.00
842.51	227.97
842.83	227.96
843.14	228.02
843.46	227.98
843.77	227.95
844.08	227.94
844.40	227.88
844.71	227.89
845.03	227.88
845.34	227.81
845.65	227.82
845.97	227.81
846.28	227.83
846.60	227.81
846.91	227.81
847.22	227.82
847.54	227.85
847.85	227.85
848.16	227.79
848.48	227.76
848.79	227.79
849.10	227.80
849.42	227.84
849.73	227.78
850.04	227.79
850.36	227.73
850.67	227.76
850.98	227.79
851.30	227.77
851.61	227.76
851.92	227.78
852.23	227.78
852.55	227.78
852.86	227.77
853.17	227.76
853.49	227.74
853.80	227.74
854.11	227.72
854.42	227.74
854.74	227.72
855.05	227.74
855.36	227.65
855.67	227.63
855.99	227.61
856.30	227.71
856.61	227.70
856.92	227.70
857.23	227.70
857.55	227.69
857.86	227.69
858.17	227.68
858.48	227.68
858.79	227.67
859.11	227.67
859.42	227.66
859.73	227.65
860.04	227.64
860.35	227.63
860.66	227.62
860.98	227.60
861.29	227.62
861.60	227.57
861.91	227.60
862.22	227.58
862.53	227.56
862.84	227.41
863.16	227.44
863.47	227.42
863.78	227.40
864.09	227.39
864.40	227.42
864.71	227.43
865.02	227.42
865.33	227.42
865.64	227.41
865.95	227.39
866.27	227.50
866.58	227.48
866.89	227.50
867.20	227.52
867.51	227.51
867.82	227.51
868.13	227.57
868.44	227.55
868.75	227.56
869.06	227.56
869.37	227.60
869.68	227.57
869.99	227.60
870.30	227.59
870.61	227.59
870.92	227.58
871.23	227.59
871.54	227.60
871.85	227.63
872.16	227.63
872.47	227.60
872.78	227.54
873.09	227.58
873.40	227.54
873.71	227.53
874.02	227.54
874.33	227.55
874.64	227.52
874.95	227.52
875.26	227.54
875.56	227.51
875.87	227.51
876.18	227.50
876.49	227.58
876.80	227.58
877.11	227.56
877.42	227.54
877.73	227.51
878.04	227.47
878.35	227.46
878.66	227.45
878.96	227.45
879.27	227.41
879.58	227.36
879.89	227.37
880.20	227.41
880.51	227.40
880.82	227.41
881.12	227.43
881.43	227.40
881.74	227.37
882.05	227.42
882.36	227.38
882.67	227.41
882.97	227.30
883.28	227.30
883.59	227.27
883.90	227.29
884.21	227.27
884.51	227.30
884.82	227.25
885.13	227.24
885.44	227.23
885.74	227.23
886.05	227.24
886.36	227.23
886.67	227.14
886.98	227.17
887.28	227.18
887.59	227.13
887.90	227.15
888.20	227.17
888.51	227.13
888.82	227.14
889.13	227.14
889.43	227.21
889.74	227.19
890.05	227.22
890.35	227.20
890.66	227.19
890.97	227.15
891.28	227.16
891.58	227.14
891.89	227.13
892.20	227.11
892.50	227.14
892.81	227.12
893.12	227.13
893.42	227.06
893.73	227.04
894.04	227.01
894.34	226.98
894.65	226.98
894.95	227.00
895.26	226.99
895.57	227.02
895.87	226.92
896.18	226.93
896.48	226.92
896.79	226.92
897.10	226.97
897.40	227.00
897.71	227.02
898.01	227.02
898.32	227.04
898.63	227.04
898.93	227.00
899.24	227.02
899.54	227.01
899.85	227.03
900.15	227.01
900.46	227.03
900.76	227.05
901.07	227.02
901.38	227.02
901.68	227.04
901.99	226.99
902.29	227.00
902.60	226.97
902.90	226.96
903.21	226.96
903.51	226.92
903.82	226.92
904.12	226.92
904.43	226.94
904.73	226.92
905.03	226.93
905.34	227.03
905.64	227.02
905.95	227.01
906.25	227.02
906.56	227.03
906.86	227.02
907.17	226.99
907.47	227.00
907.77	226.97
908.08	226.95
908.38	226.99
908.69	227.02
908.99	227.06
909.30	227.02
909.60	227.02
909.90	227.03
910.21	227.00
910.51	226.99
910.81	227.00
911.12	227.04
911.42	227.07
911.73	226.97
912.03	226.96
912.33	226.99
912.64	227.00
912.94	226.99
913.24	227.00
913.55	227.04
913.85	227.07
914.15	227.10
914.46	227.12
914.76	227.10
915.06	227.07
915.37	227.06
915.67	227.12
915.97	227.14
916.27	227.11
916.58	227.13
916.88	227.13
917.18	227.08
917.49	227.14
917.79	227.13
918.09	227.16
918.39	227.18
918.70	227.16
919.00	227.14
919.30	227.19
919.60	227.21
919.91	227.17
920.21	227.17
920.51	227.15
920.81	227.12
921.12	227.12
921.42	227.13
921.72	227.13
922.02	227.10
922.32	227.14
922.63	227.17
922.93	227.20
923.23	227.20
923.53	227.25
923.83	227.20
924.13	227.23
924.44	227.23
924.74	227.23
925.04	227.27
925.34	227.26
925.64	227.22
925.94	227.19
926.24	227.23
926.55	227.20
926.85	227.19
927.15	227.23
927.45	227.25
927.75	227.23
928.05	227.23
928.35	227.22
928.65	227.20
928.95	227.16
929.26	227.16
929.56	227.15
929.86	227.13
930.16	227.08
930.46	227.02
930.76	227.01
931.06	226.98
931.36	226.99
931.66	227.03
931.96	227.03
932.26	227.05
932.56	227.02
932.86	227.03
933.16	227.03
933.46	227.00
933.76	226.95
934.06	226.99
934.36	227.01
934.66	227.02
934.96	227.01
935.26	227.04
935.56	227.01
935.86	227.00
936.16	227.00
936.46	227.00
936.76	227.02
937.06	227.01
937.36	227.02
937.66	227.01
937.96	226.99
938.26	226.96
938.56	226.95
938.86	226.96
939.16	226.97
939.46	227.02
939.76	227.04
940.06	227.05
940.35	227.04
940.65	227.01
940.95	227.01
941.25	226.99
941.55	227.01
941.85	227.04
942.15	227.06
942.45	227.09
942.75	227.09
943.04	227.09
943.34	227.11
943.64	227.11
943.94	227.07
944.24	227.10
944.54	227.13
944.84	227.14
945.13	227.11
945.43	227.08
945.73	227.06
946.03	227.02
946.33	227.04
946.62	227.04
946.92	227.03
947.22	227.05
947.52	227.05
947.82	227.05
948.11	227.05
948.41	227.02
948.71	226.99
949.01	227.05
949.31	227.03
949.60	227.05
949.90	227.08
950.20	227.08
950.50	227.06
950.79	227.06
951.09	227.07
951.39	227.09
951.69	227.13
951.98	227.14
952.28	227.17
952.58	227.17
952.87	227.14
953.17	227.18
953.47	227.18
953.76	227.22
954.06	227.22
954.36	227.20
954.66	227.20
954.95	227.24
955.25	227.21
955.55	227.21
955.84	227.17
956.14	227.17
956.44	227.16
956.73	227.13
957.03	227.13
957.32	227.14
957.62	227.16
957.92	227.16
958.21	227.14
958.51	227.23
958.81	227.23
959.10	227.25
959.40	227.24
959.69	227.23
959.99	227.22
960.29	227.18
960.58	227.17
960.88	227.20
961.17	227.17
961.47	227.17
961.76	227.16
962.06	227.18
962.36	227.18
962.65	227.19
962.95	227.17
963.24	227.14
963.54	227.12
963.83	227.09
964.13	227.06
964.42	227.05
964.72	226.99
965.01	226.97
965.31	226.96
965.60	226.93
965.90	226.95
966.19	226.90
966.49	226.90
966.78	226.89
967.08	226.88
967.37	226.87
967.67	226.85
967.96	226.86
968.26	226.82
968.55	226.80
968.85	226.79
969.14	226.81
969.43	226.82
969.73	226.80
970.02	226.77
970.32	226.76
970.61	226.73
970.91	226.67
971.20	226.65
971.49	226.62
971.79	226.62
972.08	226.54
972.38	226.56
972.67	226.56
972.96	226.57
973.26	226.54
973.55	226.58
973.85	226.57
974.14	226.54
974.43	226.57
974.73	226.56
975.02	226.55
975.31	226.54
975.61	226.54
975.90	226.53
976.19	226.53
976.49	226.54
976.78	226.57
977.07	226.56
977.37	226.58
977.66	226.61
977.95	226.63
978.24	226.65
978.54	226.68
978.83	226.67
979.12	226.66
979.42	226.69
979.71	226.68
980.00	226.68
980.29	226.70
980.59	226.71
980.88	226.76
981.17	226.75
981.46	226.75
981.76	226.76
982.05	226.80
982.34	226.84
982.63	226.88
982.93	226.86
983.22	226.91
983.51	226.93
983.80	226.93
984.09	226.93
984.39	226.89
984.68	226.86
984.97	226.88
985.26	226.87
985.55	226.86
985.85	226.84
986.14	226.84
986.43	226.88
986.72	226.86
987.01	226.80
987.30	226.84
987.59	226.82
987.89	226.86
988.18	226.85
988.47	226.81
988.76	226.77
989.05	226.78
989.34	226.76
989.63	226.75
989.92	226.76
990.22	226.75
990.51	226.78
990.80	226.78
991.09	226.78
991.38	226.83
991.67	226.84
991.96	226.82
992.25	226.84
992.54	226.78
992.83	226.80
993.12	226.82
993.41	226.82
993.70	226.88
993.99	226.86
994.28	226.88
994.58	226.90
994.87	226.91
995.16	226.90
995.45	226.91
995.74	226.89
996.03	226.88
996.32	226.89
996.61	226.91
996.90	226.91
997.19	226.90
997.48	226.85
997.77	226.83
998.06	226.84
998.34	226.82
998.63	226.82
998.92	226.82
999.21	226.79
999.50	226.79
999.79	226.73
1000.08	226.75
1000.37	226.72
1000.66	226.67
1000.95	226.69
1001.24	226.67
1001.53	226.69
1001.82	226.71
1002.11	226.71
1002.40	226.73
1002.68	226.77
1002.97	226.83
1003.26	226.83
1003.55	226.83
1003.84	226.81
1004.13	226.84
1004.42	226.84
1004.71	226.84
1004.99	226.80
1005.28	226.86
1005.57	226.84
1005.86	226.83
1006.15	226.80
1006.44	226.76
1006.72	226.80
1007.01	226.75
1007.30	226.76
1007.59	226.75
1007.88	226.72
1008.17	226.70
1008.45	226.69
1008.74	226.63
1009.03	226.55
1009.32	226.53
1009.60	226.56
1009.89	226.54
1010.18	226.49
1010.47	226.48
1010.76	226.52
1011.04	226.54
1011.33	226.53
1011.62	226.56
1011.91	226.58
1012.19	226.62
1012.48	226.66
1012.77	226.63
1013.05	226.70
1013.34	226.71
1013.63	226.72
1013.92	226.74
1014.20	226.74
1014.49	226.71
1014.78	226.71
1015.06	226.73
1015.35	226.73
1015.64	226.74
1015.92	226.80
1016.21	226.81
1016.50	226.82
1016.78	226.80
1017.07	226.82
1017.36	226.80
1017.64	226.78
1017.93	226.77
1018.22	226.76
1018.50	226.74
1018.79	226.75
1019.08	226.70
1019.36	226.68
1019.65	226.66
1019.93	226.66
1020.22	226.69
1020.51	226.76
1020.79	226.76
1021.08	227.04
1021.36	226.27
1021.65	226.61
1021.94	226.56
1022.22	226.44
1022.51	226.45
1022.79	226.96
1023.08	227.06
1023.36	228.17
1023.65	226.45
>>>>>End Processed Spectral Data<<<<<
