SpectraSuite Data File
++++++++++++++++++++++++++++++++++++
Date: Fri Feb 01 18:14:29 EST 2013
User: group
Dark Spectrum Present: No
Reference Spectrum Present: No
Number of Sampled Component Spectra: 1
Spectrometers: USB2E7196
Integration Time (usec): 35000 (USB2E7196)
Spectra Averaged: 100 (USB2E7196)
Boxcar Smoothing: 10 (USB2E7196)
Correct for Electrical Dark: No (USB2E7196)
Strobe/Lamp Enabled: No (USB2E7196)
Correct for Detector Non-linearity: No (USB2E7196)
Correct for Stray Light: No (USB2E7196)
Number of Pixels in Processed Spectrum: 2048
>>>>>Begin Processed Spectral Data<<<<<
339.09	0.00
339.48	213.66
339.86	214.54
340.24	216.12
340.63	217.28
341.01	220.14
341.39	220.43
341.78	221.40
342.16	222.47
342.54	222.83
342.93	211.62
343.31	222.31
343.69	222.82
344.07	223.29
344.46	223.71
344.84	224.11
345.22	224.36
345.60	224.60
345.99	224.81
346.37	224.94
346.75	225.07
347.13	225.15
347.52	225.20
347.90	225.30
348.28	225.35
348.66	225.40
349.05	225.39
349.43	225.42
349.81	225.45
350.19	225.50
350.57	225.58
350.96	225.69
351.34	225.78
351.72	225.84
352.10	225.93
352.48	226.03
352.87	226.05
353.25	226.12
353.63	226.15
354.01	226.21
354.39	226.26
354.77	226.31
355.15	226.41
355.54	226.44
355.92	226.48
356.30	226.53
356.68	226.66
357.06	226.74
357.44	226.80
357.82	226.87
358.20	226.94
358.58	227.00
358.97	227.02
359.35	227.10
359.73	227.16
360.11	227.23
360.49	227.25
360.87	227.31
361.25	227.37
361.63	227.46
362.01	227.49
362.39	227.54
362.77	227.61
363.15	227.66
363.53	227.72
363.91	227.75
364.29	227.79
364.67	227.71
365.05	227.70
365.43	227.72
365.81	227.74
366.19	227.79
366.57	227.84
366.95	227.86
367.33	227.82
367.71	227.85
368.09	227.85
368.47	227.85
368.85	227.85
369.23	227.84
369.61	227.80
369.99	227.80
370.37	227.83
370.75	227.84
371.13	227.76
371.51	227.71
371.89	227.69
372.27	227.66
372.65	227.64
373.03	227.62
373.41	227.57
373.78	227.51
374.16	227.43
374.54	227.33
374.92	227.26
375.30	227.25
375.68	227.19
376.06	227.14
376.44	227.07
376.82	227.02
377.19	226.98
377.57	226.91
377.95	226.85
378.33	226.77
378.71	226.65
379.09	226.64
379.47	226.62
379.84	226.54
380.22	226.51
380.60	226.43
380.98	226.38
381.36	226.33
381.73	226.30
382.11	226.26
382.49	226.23
382.87	226.19
383.25	226.11
383.62	226.18
384.00	226.13
384.38	226.12
384.76	226.12
385.13	226.07
385.51	226.06
385.89	226.02
386.27	225.98
386.64	225.99
387.02	225.91
387.40	225.89
387.78	225.85
388.15	225.81
388.53	225.79
388.91	225.76
389.29	225.72
389.66	225.69
390.04	225.64
390.42	225.65
390.79	225.64
391.17	225.63
391.55	225.48
391.92	225.45
392.30	225.47
392.68	225.41
393.05	225.40
393.43	225.37
393.81	225.37
394.18	225.36
394.56	225.36
394.94	225.36
395.31	225.33
395.69	225.38
396.06	225.40
396.44	225.39
396.82	225.38
397.19	225.47
397.57	225.48
397.95	225.54
398.32	225.52
398.70	225.54
399.07	225.61
399.45	225.66
399.82	225.71
400.20	225.74
400.58	225.81
400.95	225.86
401.33	225.95
401.70	226.11
402.08	226.20
402.45	226.29
402.83	226.42
403.20	226.50
403.58	226.58
403.95	226.70
404.33	226.88
404.71	227.03
405.08	227.22
405.46	227.39
405.83	227.58
406.21	227.75
406.58	227.97
406.96	228.15
407.33	228.40
407.70	228.64
408.08	228.96
408.45	229.24
408.83	229.54
409.20	229.78
409.58	230.00
409.95	230.33
410.33	230.68
410.70	231.00
411.08	231.42
411.45	231.82
411.82	232.22
412.20	232.69
412.57	233.23
412.95	233.65
413.32	234.20
413.69	234.72
414.07	235.32
414.44	235.98
414.82	236.62
415.19	237.35
415.56	238.12
415.94	238.86
416.31	239.75
416.68	240.60
417.06	241.61
417.43	242.57
417.81	243.63
418.18	244.70
418.55	245.91
418.93	247.16
419.30	248.45
419.67	249.78
420.04	251.08
420.42	252.49
420.79	254.13
421.16	255.74
421.54	257.39
421.91	259.11
422.28	260.88
422.66	262.78
423.03	264.62
423.40	266.49
423.77	268.49
424.15	270.50
424.52	272.62
424.89	274.87
425.26	277.04
425.64	279.07
426.01	281.35
426.38	283.68
426.75	286.04
427.13	288.47
427.50	291.03
427.87	293.72
428.24	296.37
428.61	298.85
428.99	301.60
429.36	304.61
429.73	307.50
430.10	310.33
430.47	313.27
430.85	316.30
431.22	319.47
431.59	322.81
431.96	325.98
432.33	329.48
432.70	332.83
433.08	336.80
433.45	340.53
433.82	344.22
434.19	348.31
434.56	352.22
434.93	355.94
435.30	359.63
435.68	363.71
436.05	367.69
436.42	371.67
436.79	375.20
437.16	379.01
437.53	383.02
437.90	387.01
438.27	390.83
438.64	394.77
439.01	398.38
439.38	401.57
439.75	404.63
440.13	408.15
440.50	411.47
440.87	414.10
441.24	416.91
441.61	419.94
441.98	422.04
442.35	424.65
442.72	427.31
443.09	429.85
443.46	431.27
443.83	432.08
444.20	432.79
444.57	433.97
444.94	434.37
445.31	434.86
445.68	435.28
446.05	435.43
446.42	434.88
446.79	434.32
447.16	433.66
447.53	433.20
447.90	431.56
448.27	429.89
448.64	427.65
449.01	426.00
449.37	423.21
449.74	420.49
450.11	417.25
450.48	413.78
450.85	410.20
451.22	407.14
451.59	404.28
451.96	401.50
452.33	397.82
452.70	394.46
453.07	390.49
453.43	386.41
453.80	382.48
454.17	378.74
454.54	375.16
454.91	371.35
455.28	367.54
455.65	364.07
456.02	360.57
456.38	357.48
456.75	353.69
457.12	350.50
457.49	347.36
457.86	344.32
458.23	341.62
458.59	338.70
458.96	335.73
459.33	333.08
459.70	330.44
460.07	328.29
460.43	325.86
460.80	323.50
461.17	321.49
461.54	319.35
461.91	317.26
462.27	315.19
462.64	313.40
463.01	311.50
463.38	309.56
463.74	307.64
464.11	306.02
464.48	304.62
464.85	303.04
465.21	301.78
465.58	300.49
465.95	298.92
466.32	297.64
466.68	296.36
467.05	295.12
467.42	293.86
467.78	292.53
468.15	291.28
468.52	290.37
468.88	289.15
469.25	288.06
469.62	287.18
469.98	286.19
470.35	285.25
470.72	284.41
471.08	283.50
471.45	282.75
471.82	281.96
472.18	281.02
472.55	280.39
472.92	279.65
473.28	278.96
473.65	278.35
474.02	277.72
474.38	277.17
474.75	276.66
475.11	276.09
475.48	275.68
475.85	275.33
476.21	274.91
476.58	274.58
476.94	274.30
477.31	273.99
477.67	273.72
478.04	273.50
478.41	273.30
478.77	273.28
479.14	273.12
479.50	273.05
479.87	273.07
480.23	273.10
480.60	273.08
480.96	273.07
481.33	273.23
481.69	273.38
482.06	273.54
482.42	273.70
482.79	273.92
483.15	274.24
483.52	274.59
483.88	274.96
484.25	275.32
484.61	275.71
484.98	276.16
485.34	276.74
485.71	277.34
486.07	277.98
486.44	278.54
486.80	279.27
487.17	280.01
487.53	280.84
487.90	281.68
488.26	282.66
488.62	283.73
488.99	284.73
489.35	285.76
489.72	286.95
490.08	288.18
490.44	289.48
490.81	290.87
491.17	292.28
491.54	293.82
491.90	295.45
492.26	297.23
492.63	299.11
492.99	301.01
493.36	303.05
493.72	305.23
494.08	307.48
494.45	309.88
494.81	312.41
495.17	314.99
495.54	317.75
495.90	320.60
496.26	323.58
496.63	326.71
496.99	330.07
497.35	333.56
497.72	337.26
498.08	341.08
498.44	345.05
498.80	349.26
499.17	353.60
499.53	358.10
499.89	362.78
500.26	367.62
500.62	372.55
500.98	377.84
501.34	383.24
501.71	388.95
502.07	394.81
502.43	400.81
502.79	407.09
503.16	413.60
503.52	420.40
503.88	427.32
504.24	434.47
504.60	441.83
504.97	449.51
505.33	457.33
505.69	465.58
506.05	473.95
506.41	482.43
506.78	491.17
507.14	500.31
507.50	509.74
507.86	519.42
508.22	529.49
508.59	539.47
508.95	549.86
509.31	560.44
509.67	571.35
510.03	582.52
510.39	594.03
510.75	605.73
511.12	617.58
511.48	629.83
511.84	642.31
512.20	654.85
512.56	667.81
512.92	681.14
513.28	694.65
513.64	708.20
514.00	722.11
514.37	736.35
514.73	750.62
515.09	764.83
515.45	779.46
515.81	794.33
516.17	809.67
516.53	825.19
516.89	840.85
517.25	856.47
517.61	872.47
517.97	888.29
518.33	904.13
518.69	920.45
519.05	937.00
519.41	953.76
519.77	971.09
520.13	988.26
520.49	1005.29
520.85	1022.31
521.21	1039.84
521.57	1057.87
521.93	1075.35
522.29	1093.59
522.65	1111.82
523.01	1129.89
523.37	1147.73
523.73	1165.85
524.09	1183.90
524.45	1202.17
524.81	1220.82
525.17	1239.47
525.53	1258.53
525.89	1277.52
526.25	1296.43
526.61	1314.98
526.97	1333.90
527.33	1352.43
527.68	1371.17
528.04	1389.99
528.40	1408.86
528.76	1428.23
529.12	1447.15
529.48	1466.44
529.84	1484.68
530.20	1503.59
530.56	1522.91
530.91	1542.87
531.27	1561.98
531.63	1580.81
531.99	1599.74
532.35	1618.05
532.71	1636.41
533.07	1655.16
533.42	1673.67
533.78	1692.21
534.14	1710.97
534.50	1728.85
534.86	1747.26
535.21	1764.94
535.57	1783.22
535.93	1801.24
536.29	1818.53
536.65	1836.07
537.00	1853.22
537.36	1871.06
537.72	1888.07
538.08	1905.23
538.44	1921.46
538.79	1937.83
539.15	1953.91
539.51	1970.21
539.87	1987.27
540.22	2003.61
540.58	2020.03
540.94	2035.84
541.29	2051.23
541.65	2066.47
542.01	2082.35
542.37	2097.23
542.72	2112.27
543.08	2126.81
543.44	2141.97
543.79	2155.73
544.15	2169.19
544.51	2183.46
544.87	2197.10
545.22	2210.55
545.58	2223.23
545.94	2235.67
546.29	2248.22
546.65	2260.79
547.01	2272.69
547.36	2283.75
547.72	2294.65
548.07	2304.90
548.43	2315.48
548.79	2325.77
549.14	2335.73
549.50	2345.13
549.86	2355.06
550.21	2364.70
550.57	2374.17
550.92	2382.98
551.28	2392.33
551.64	2401.63
551.99	2410.33
552.35	2418.83
552.70	2427.07
553.06	2435.14
553.41	2443.56
553.77	2451.67
554.13	2459.74
554.48	2467.91
554.84	2475.63
555.19	2482.85
555.55	2489.99
555.90	2496.48
556.26	2503.73
556.61	2510.28
556.97	2516.60
557.32	2522.75
557.68	2528.69
558.03	2534.81
558.39	2540.10
558.74	2546.62
559.10	2552.57
559.45	2558.00
559.81	2563.86
560.16	2569.53
560.52	2574.56
560.87	2579.59
561.23	2583.77
561.58	2588.26
561.94	2592.36
562.29	2596.02
562.64	2600.44
563.00	2604.43
563.35	2609.45
563.71	2613.90
564.06	2618.65
564.42	2623.04
564.77	2626.95
565.12	2630.94
565.48	2634.13
565.83	2637.47
566.19	2640.09
566.54	2642.00
566.89	2644.45
567.25	2646.11
567.60	2648.37
567.96	2651.38
568.31	2653.31
568.66	2655.58
569.02	2657.20
569.37	2658.44
569.72	2660.40
570.08	2661.44
570.43	2662.35
570.78	2662.57
571.14	2661.68
571.49	2660.83
571.84	2661.18
572.20	2660.68
572.55	2659.93
572.90	2658.73
573.26	2657.75
573.61	2656.38
573.96	2655.12
574.31	2652.29
574.67	2649.63
575.02	2646.31
575.37	2642.68
575.72	2639.05
576.08	2635.66
576.43	2632.29
576.78	2628.68
577.13	2625.63
577.49	2622.34
577.84	2618.93
578.19	2615.07
578.54	2611.42
578.90	2607.32
579.25	2601.32
579.60	2596.18
579.95	2590.94
580.30	2585.71
580.66	2580.25
581.01	2574.83
581.36	2569.39
581.71	2564.94
582.06	2560.15
582.42	2555.42
582.77	2549.91
583.12	2544.97
583.47	2540.01
583.82	2534.69
584.17	2529.03
584.53	2522.87
584.88	2516.77
585.23	2510.18
585.58	2504.07
585.93	2497.98
586.28	2492.47
586.63	2486.95
586.98	2481.15
587.34	2475.86
587.69	2470.24
588.04	2464.46
588.39	2458.00
588.74	2450.70
589.09	2443.71
589.44	2435.82
589.79	2428.58
590.14	2422.14
590.49	2414.32
590.84	2406.77
591.19	2399.93
591.54	2392.33
591.89	2384.06
592.25	2376.35
592.60	2368.20
592.95	2359.62
593.30	2351.06
593.65	2342.25
594.00	2334.02
594.35	2325.43
594.70	2315.91
595.05	2307.79
595.40	2299.00
595.75	2290.43
596.10	2283.16
596.45	2275.25
596.80	2268.23
597.15	2260.76
597.50	2252.54
597.85	2245.15
598.19	2237.54
598.54	2229.33
598.89	2221.49
599.24	2214.39
599.59	2206.48
599.94	2199.06
600.29	2191.41
600.64	2183.60
600.99	2174.90
601.34	2166.79
601.69	2158.57
602.04	2150.63
602.39	2141.85
602.74	2133.76
603.08	2125.65
603.43	2117.66
603.78	2109.02
604.13	2100.39
604.48	2091.59
604.83	2083.37
605.18	2075.14
605.53	2065.49
605.87	2055.71
606.22	2047.09
606.57	2037.48
606.92	2028.54
607.27	2020.03
607.62	2011.74
607.96	2003.16
608.31	1995.39
608.66	1986.44
609.01	1977.59
609.36	1968.49
609.70	1958.77
610.05	1949.21
610.40	1940.05
610.75	1930.02
611.10	1920.84
611.44	1910.60
611.79	1901.03
612.14	1890.68
612.49	1879.53
612.83	1869.48
613.18	1859.67
613.53	1849.97
613.88	1839.69
614.22	1829.84
614.57	1819.44
614.92	1809.89
615.27	1800.84
615.61	1790.79
615.96	1781.04
616.31	1771.80
616.65	1762.83
617.00	1753.79
617.35	1744.57
617.70	1734.62
618.04	1724.48
618.39	1714.57
618.74	1705.49
619.08	1695.56
619.43	1686.27
619.78	1677.99
620.12	1669.47
620.47	1660.49
620.82	1650.49
621.16	1641.50
621.51	1632.24
621.85	1622.91
622.20	1612.57
622.55	1602.40
622.89	1592.76
623.24	1583.42
623.59	1574.29
623.93	1565.21
624.28	1556.41
624.62	1547.43
624.97	1538.74
625.32	1530.47
625.66	1521.91
626.01	1513.30
626.35	1504.36
626.70	1495.05
627.04	1485.78
627.39	1476.27
627.73	1467.35
628.08	1459.17
628.43	1450.60
628.77	1441.86
629.12	1432.82
629.46	1424.24
629.81	1415.11
630.15	1406.46
630.50	1397.61
630.84	1387.82
631.19	1378.28
631.53	1369.20
631.88	1360.02
632.22	1350.80
632.57	1342.01
632.91	1332.95
633.26	1324.15
633.60	1315.17
633.95	1306.54
634.29	1298.08
634.64	1290.10
634.98	1281.29
635.32	1272.65
635.67	1264.52
636.01	1256.47
636.36	1248.40
636.70	1240.49
637.05	1232.68
637.39	1224.94
637.73	1217.12
638.08	1210.04
638.42	1202.91
638.77	1195.26
639.11	1187.38
639.45	1179.82
639.80	1171.83
640.14	1164.27
640.49	1156.41
640.83	1148.87
641.17	1141.46
641.52	1133.78
641.86	1126.01
642.20	1119.05
642.55	1111.38
642.89	1103.74
643.23	1095.88
643.58	1088.91
643.92	1081.59
644.26	1074.47
644.61	1067.18
644.95	1060.16
645.29	1052.50
645.64	1044.46
645.98	1036.92
646.32	1029.87
646.66	1022.65
647.01	1015.86
647.35	1009.01
647.69	1002.00
648.04	995.46
648.38	988.61
648.72	981.72
649.06	974.57
649.41	967.53
649.75	960.54
650.09	953.56
650.43	946.71
650.78	939.44
651.12	932.42
651.46	925.61
651.80	918.83
652.14	912.31
652.49	905.91
652.83	899.75
653.17	893.10
653.51	886.32
653.85	879.87
654.20	873.22
654.54	866.03
654.88	859.24
655.22	852.26
655.56	845.51
655.90	838.90
656.25	832.73
656.59	826.40
656.93	820.41
657.27	814.26
657.61	807.85
657.95	801.86
658.29	795.83
658.64	789.58
658.98	783.30
659.32	776.88
659.66	770.76
660.00	764.50
660.34	758.55
660.68	752.81
661.02	746.86
661.36	741.28
661.70	735.96
662.05	730.83
662.39	725.77
662.73	720.51
663.07	715.35
663.41	710.10
663.75	704.77
664.09	699.38
664.43	694.17
664.77	689.31
665.11	684.30
665.45	679.40
665.79	674.61
666.13	669.79
666.47	664.89
666.81	660.00
667.15	655.15
667.49	650.57
667.83	646.02
668.17	641.45
668.51	636.70
668.85	631.97
669.19	627.40
669.53	622.86
669.87	618.29
670.21	613.88
670.55	609.57
670.89	605.59
671.23	601.62
671.57	597.54
671.91	593.41
672.25	589.31
672.58	585.18
672.92	581.16
673.26	577.38
673.60	573.69
673.94	570.01
674.28	566.57
674.62	563.15
674.96	559.51
675.30	556.14
675.64	552.59
675.97	549.35
676.31	546.00
676.65	542.57
676.99	539.37
677.33	536.03
677.67	532.69
678.01	529.13
678.34	525.58
678.68	522.11
679.02	518.77
679.36	515.46
679.70	512.22
680.04	508.93
680.37	505.59
680.71	502.36
681.05	499.27
681.39	496.03
681.73	492.85
682.06	489.90
682.40	486.83
682.74	483.83
683.08	480.86
683.42	477.81
683.75	474.85
684.09	471.83
684.43	468.95
684.77	466.04
685.10	463.23
685.44	460.48
685.78	457.82
686.12	455.16
686.45	452.44
686.79	449.73
687.13	447.16
687.46	444.61
687.80	441.98
688.14	439.27
688.48	436.87
688.81	434.26
689.15	431.67
689.49	429.13
689.82	426.72
690.16	424.17
690.50	421.84
690.83	419.58
691.17	417.23
691.51	414.94
691.84	412.75
692.18	410.45
692.52	408.13
692.85	405.81
693.19	403.55
693.52	401.36
693.86	399.19
694.20	397.05
694.53	394.86
694.87	392.70
695.21	390.63
695.54	388.46
695.88	386.36
696.21	384.31
696.55	382.31
696.88	380.29
697.22	378.32
697.56	376.36
697.89	374.36
698.23	372.42
698.56	370.47
698.90	368.59
699.23	366.65
699.57	364.82
699.90	363.01
700.24	361.18
700.58	359.41
700.91	357.63
701.25	355.95
701.58	354.36
701.92	352.75
702.25	351.10
702.59	349.47
702.92	347.92
703.26	346.42
703.59	344.92
703.93	343.51
704.26	342.10
704.60	340.59
704.93	339.08
705.26	337.64
705.60	336.27
705.93	334.88
706.27	333.67
706.60	332.38
706.94	331.06
707.27	329.72
707.61	328.46
707.94	327.22
708.27	325.91
708.61	324.62
708.94	323.40
709.28	322.24
709.61	321.11
709.94	319.95
710.28	318.71
710.61	317.51
710.95	316.21
711.28	315.07
711.61	313.93
711.95	312.86
712.28	311.71
712.61	310.53
712.95	309.42
713.28	308.36
713.61	307.30
713.95	306.29
714.28	305.33
714.61	304.29
714.95	303.31
715.28	302.32
715.61	301.28
715.95	300.28
716.28	299.24
716.61	298.24
716.95	297.27
717.28	296.38
717.61	295.49
717.94	294.66
718.28	293.71
718.61	292.81
718.94	292.01
719.27	291.28
719.61	290.55
719.94	289.78
720.27	288.94
720.60	288.15
720.94	287.42
721.27	286.72
721.60	286.02
721.93	285.29
722.27	284.64
722.60	283.98
722.93	283.32
723.26	282.70
723.59	282.06
723.93	281.44
724.26	280.76
724.59	280.08
724.92	279.45
725.25	278.87
725.59	278.30
725.92	277.66
726.25	277.02
726.58	276.40
726.91	275.78
727.24	275.21
727.57	274.69
727.91	274.03
728.24	273.43
728.57	272.84
728.90	272.32
729.23	271.71
729.56	271.22
729.89	270.64
730.22	270.03
730.55	269.50
730.89	268.96
731.22	268.46
731.55	267.97
731.88	267.45
732.21	266.95
732.54	266.42
732.87	265.95
733.20	265.45
733.53	265.00
733.86	264.60
734.19	264.10
734.52	263.60
734.85	263.27
735.18	262.79
735.51	262.37
735.84	261.93
736.17	261.55
736.50	261.08
736.83	260.81
737.16	260.43
737.49	260.01
737.82	259.57
738.15	259.18
738.48	258.79
738.81	258.39
739.14	257.99
739.47	257.64
739.80	257.26
740.13	256.92
740.46	256.56
740.79	256.15
741.12	255.81
741.45	255.47
741.78	255.05
742.11	254.73
742.44	254.36
742.77	254.01
743.10	253.60
743.43	253.23
743.75	252.76
744.08	252.58
744.41	252.25
744.74	251.94
745.07	251.59
745.40	251.30
745.73	251.00
746.06	250.69
746.39	250.33
746.71	250.01
747.04	249.69
747.37	249.36
747.70	249.08
748.03	248.79
748.36	248.50
748.68	248.23
749.01	247.91
749.34	247.66
749.67	247.39
750.00	247.16
750.33	246.98
750.65	246.73
750.98	246.37
751.31	246.08
751.64	245.84
751.97	245.65
752.29	245.33
752.62	245.07
752.95	244.81
753.28	244.60
753.60	244.36
753.93	244.13
754.26	243.89
754.59	243.63
754.91	243.39
755.24	243.15
755.57	242.94
755.90	242.71
756.22	242.48
756.55	242.24
756.88	241.99
757.20	241.67
757.53	241.43
757.86	241.21
758.19	241.04
758.51	240.83
758.84	240.59
759.17	240.42
759.49	240.22
759.82	240.07
760.15	239.89
760.47	239.72
760.80	239.54
761.13	239.41
761.45	239.21
761.78	239.03
762.11	238.86
762.43	238.66
762.76	238.49
763.08	238.34
763.41	238.21
763.74	238.05
764.06	237.92
764.39	237.76
764.71	237.61
765.04	237.45
765.37	237.28
765.69	237.13
766.02	237.00
766.34	236.82
766.67	236.63
767.00	236.52
767.32	236.44
767.65	236.36
767.97	236.20
768.30	236.10
768.62	235.98
768.95	235.82
769.27	235.70
769.60	235.62
769.92	235.47
770.25	235.29
770.57	235.15
770.90	235.03
771.22	234.91
771.55	234.82
771.87	234.69
772.20	234.62
772.52	234.60
772.85	234.62
773.17	234.54
773.50	234.47
773.82	234.37
774.15	234.21
774.47	234.04
774.80	233.93
775.12	233.80
775.45	233.72
775.77	233.68
776.09	233.65
776.42	233.51
776.74	233.43
777.07	233.38
777.39	233.34
777.72	233.23
778.04	233.18
778.36	233.07
778.69	233.01
779.01	232.94
779.33	232.78
779.66	232.61
779.98	232.53
780.31	232.45
780.63	232.39
780.95	232.35
781.28	232.29
781.60	232.20
781.92	232.13
782.25	232.07
782.57	231.95
782.89	231.86
783.22	231.81
783.54	231.76
783.86	231.69
784.19	231.59
784.51	231.58
784.83	231.48
785.16	231.40
785.48	231.34
785.80	231.25
786.12	231.21
786.45	231.15
786.77	231.10
787.09	231.01
787.42	230.91
787.74	230.84
788.06	230.78
788.38	230.73
788.71	230.66
789.03	230.58
789.35	230.56
789.67	230.52
789.99	230.47
790.32	230.39
790.64	230.33
790.96	230.38
791.28	230.29
791.61	230.26
791.93	230.23
792.25	230.17
792.57	230.22
792.89	230.10
793.21	230.04
793.54	230.00
793.86	229.94
794.18	229.87
794.50	229.77
794.82	229.72
795.14	229.68
795.47	229.65
795.79	229.64
796.11	229.56
796.43	229.52
796.75	229.44
797.07	229.42
797.39	229.40
797.71	229.29
798.04	229.25
798.36	229.19
798.68	229.15
799.00	229.08
799.32	228.96
799.64	228.97
799.96	228.95
800.28	228.87
800.60	228.83
800.92	228.83
801.24	228.80
801.56	228.76
801.89	228.69
802.21	228.63
802.53	228.54
802.85	228.53
803.17	228.49
803.49	228.46
803.81	228.43
804.13	228.36
804.45	228.31
804.77	228.28
805.09	228.23
805.41	228.20
805.73	228.16
806.05	228.12
806.37	228.07
806.69	227.99
807.01	227.99
807.33	227.95
807.65	227.90
807.97	227.93
808.28	227.92
808.60	227.90
808.92	227.91
809.24	227.92
809.56	227.87
809.88	227.81
810.20	227.77
810.52	227.74
810.84	227.67
811.16	227.61
811.48	227.58
811.80	227.61
812.12	227.57
812.43	227.57
812.75	227.53
813.07	227.52
813.39	227.53
813.71	227.49
814.03	227.47
814.35	227.45
814.67	227.37
814.98	227.34
815.30	227.28
815.62	227.23
815.94	227.18
816.26	227.20
816.58	227.19
816.89	227.21
817.21	227.17
817.53	227.17
817.85	227.17
818.17	227.12
818.48	227.06
818.80	227.06
819.12	227.03
819.44	227.00
819.76	226.96
820.07	226.94
820.39	226.94
820.71	226.96
821.03	226.92
821.34	226.88
821.66	226.90
821.98	226.93
822.30	226.93
822.61	226.95
822.93	226.87
823.25	226.87
823.57	226.83
823.88	226.84
824.20	226.84
824.52	226.83
824.83	226.86
825.15	226.84
825.47	226.83
825.79	226.84
826.10	226.83
826.42	226.80
826.74	226.78
827.05	226.76
827.37	226.72
827.69	226.73
828.00	226.74
828.32	226.71
828.64	226.67
828.95	226.71
829.27	226.67
829.58	226.67
829.90	226.63
830.22	226.64
830.53	226.61
830.85	226.59
831.17	226.58
831.48	226.52
831.80	226.50
832.11	226.50
832.43	226.44
832.75	226.43
833.06	226.47
833.38	226.44
833.69	226.42
834.01	226.41
834.32	226.37
834.64	226.33
834.96	226.32
835.27	226.30
835.59	226.25
835.90	226.22
836.22	226.23
836.53	226.23
836.85	226.18
837.16	226.27
837.48	226.26
837.79	226.26
838.11	226.26
838.42	226.26
838.74	226.22
839.05	226.23
839.37	226.20
839.68	226.13
840.00	226.13
840.31	226.09
840.63	226.05
840.94	226.06
841.26	226.06
841.57	226.03
841.88	226.05
842.20	226.00
842.51	225.98
842.83	225.95
843.14	226.04
843.46	226.03
843.77	225.95
844.08	225.94
844.40	225.90
844.71	225.91
845.03	225.87
845.34	225.85
845.65	225.86
845.97	225.86
846.28	225.87
846.60	225.87
846.91	225.87
847.22	225.85
847.54	225.87
847.85	225.86
848.16	225.84
848.48	225.82
848.79	225.85
849.10	225.86
849.42	225.86
849.73	225.71
850.04	225.72
850.36	225.68
850.67	225.68
850.98	225.68
851.30	225.68
851.61	225.65
851.92	225.65
852.23	225.67
852.55	225.67
852.86	225.66
853.17	225.68
853.49	225.68
853.80	225.73
854.11	225.70
854.42	225.69
854.74	225.68
855.05	225.67
855.36	225.62
855.67	225.64
855.99	225.61
856.30	225.77
856.61	225.75
856.92	225.79
857.23	225.80
857.55	225.79
857.86	225.77
858.17	225.80
858.48	225.77
858.79	225.72
859.11	225.73
859.42	225.73
859.73	225.67
860.04	225.67
860.35	225.61
860.66	225.56
860.98	225.57
861.29	225.58
861.60	225.60
861.91	225.64
862.22	225.60
862.53	225.58
862.84	225.45
863.16	225.47
863.47	225.42
863.78	225.39
864.09	225.39
864.40	225.40
864.71	225.40
865.02	225.42
865.33	225.41
865.64	225.39
865.95	225.38
866.27	225.45
866.58	225.43
866.89	225.49
867.20	225.49
867.51	225.47
867.82	225.46
868.13	225.45
868.44	225.42
868.75	225.43
869.06	225.43
869.37	225.42
869.68	225.40
869.99	225.42
870.30	225.43
870.61	225.46
870.92	225.43
871.23	225.42
871.54	225.45
871.85	225.51
872.16	225.51
872.47	225.50
872.78	225.47
873.09	225.50
873.40	225.48
873.71	225.48
874.02	225.54
874.33	225.54
874.64	225.53
874.95	225.54
875.26	225.55
875.56	225.56
875.87	225.56
876.18	225.54
876.49	225.65
876.80	225.66
877.11	225.63
877.42	225.62
877.73	225.64
878.04	225.62
878.35	225.59
878.66	225.60
878.96	225.63
879.27	225.60
879.58	225.62
879.89	225.60
880.20	225.68
880.51	225.61
880.82	225.64
881.12	225.65
881.43	225.63
881.74	225.63
882.05	225.63
882.36	225.66
882.67	225.70
882.97	225.60
883.28	225.57
883.59	225.57
883.90	225.62
884.21	225.61
884.51	225.62
884.82	225.60
885.13	225.59
885.44	225.59
885.74	225.58
886.05	225.56
886.36	225.58
886.67	225.49
886.98	225.55
887.28	225.53
887.59	225.50
887.90	225.52
888.20	225.50
888.51	225.52
888.82	225.48
889.13	225.48
889.43	225.58
889.74	225.60
890.05	225.62
890.35	225.60
890.66	225.61
890.97	225.59
891.28	225.61
891.58	225.63
891.89	225.61
892.20	225.60
892.50	225.59
892.81	225.57
893.12	225.61
893.42	225.56
893.73	225.57
894.04	225.56
894.34	225.55
894.65	225.54
894.95	225.51
895.26	225.52
895.57	225.54
895.87	225.41
896.18	225.39
896.48	225.38
896.79	225.35
897.10	225.35
897.40	225.32
897.71	225.30
898.01	225.29
898.32	225.29
898.63	225.29
898.93	225.27
899.24	225.27
899.54	225.28
899.85	225.26
900.15	225.24
900.46	225.23
900.76	225.25
901.07	225.22
901.38	225.22
901.68	225.25
901.99	225.19
902.29	225.19
902.60	225.16
902.90	225.16
903.21	225.16
903.51	225.15
903.82	225.19
904.12	225.22
904.43	225.22
904.73	225.22
905.03	225.21
905.34	225.32
905.64	225.32
905.95	225.31
906.25	225.33
906.56	225.33
906.86	225.34
907.17	225.34
907.47	225.40
907.77	225.38
908.08	225.36
908.38	225.36
908.69	225.39
908.99	225.43
909.30	225.41
909.60	225.42
909.90	225.40
910.21	225.34
910.51	225.32
910.81	225.32
911.12	225.32
911.42	225.36
911.73	225.25
912.03	225.26
912.33	225.25
912.64	225.26
912.94	225.22
913.24	225.22
913.55	225.18
913.85	225.12
914.15	225.15
914.46	225.16
914.76	225.16
915.06	225.14
915.37	225.15
915.67	225.16
915.97	225.16
916.27	225.21
916.58	225.26
916.88	225.26
917.18	225.28
917.49	225.36
917.79	225.36
918.09	225.40
918.39	225.42
918.70	225.43
919.00	225.42
919.30	225.49
919.60	225.48
919.91	225.50
920.21	225.53
920.51	225.52
920.81	225.54
921.12	225.58
921.42	225.57
921.72	225.57
922.02	225.54
922.32	225.54
922.63	225.50
922.93	225.52
923.23	225.54
923.53	225.52
923.83	225.45
924.13	225.45
924.44	225.43
924.74	225.44
925.04	225.46
925.34	225.48
925.64	225.46
925.94	225.45
926.24	225.50
926.55	225.50
926.85	225.51
927.15	225.52
927.45	225.51
927.75	225.52
928.05	225.50
928.35	225.52
928.65	225.55
928.95	225.61
929.26	225.57
929.56	225.56
929.86	225.55
930.16	225.55
930.46	225.50
930.76	225.48
931.06	225.43
931.36	225.41
931.66	225.43
931.96	225.44
932.26	225.47
932.56	225.42
932.86	225.41
933.16	225.37
933.46	225.34
933.76	225.31
934.06	225.33
934.36	225.36
934.66	225.37
934.96	225.35
935.26	225.29
935.56	225.29
935.86	225.25
936.16	225.25
936.46	225.22
936.76	225.24
937.06	225.21
937.36	225.23
937.66	225.23
937.96	225.19
938.26	225.13
938.56	225.11
938.86	225.10
939.16	225.11
939.46	225.15
939.76	225.13
940.06	225.12
940.35	225.07
940.65	225.00
940.95	225.00
941.25	224.99
941.55	225.00
941.85	225.00
942.15	225.02
942.45	225.04
942.75	225.03
943.04	225.04
943.34	225.08
943.64	225.03
943.94	225.01
944.24	224.99
944.54	225.04
944.84	225.01
945.13	225.00
945.43	224.98
945.73	224.97
946.03	224.93
946.33	224.93
946.62	224.95
946.92	224.96
947.22	224.96
947.52	224.92
947.82	224.93
948.11	224.92
948.41	224.89
948.71	224.89
949.01	224.92
949.31	224.91
949.60	224.91
949.90	224.96
950.20	224.97
950.50	224.98
950.79	224.94
951.09	224.99
951.39	225.01
951.69	225.03
951.98	225.04
952.28	225.07
952.58	225.10
952.87	225.10
953.17	225.11
953.47	225.10
953.76	225.14
954.06	225.13
954.36	225.11
954.66	225.14
954.95	225.18
955.25	225.16
955.55	225.19
955.84	225.18
956.14	225.18
956.44	225.22
956.73	225.26
957.03	225.26
957.32	225.26
957.62	225.27
957.92	225.28
958.21	225.30
958.51	225.43
958.81	225.43
959.10	225.44
959.40	225.49
959.69	225.51
959.99	225.52
960.29	225.55
960.58	225.56
960.88	225.58
961.17	225.59
961.47	225.62
961.76	225.59
962.06	225.63
962.36	225.63
962.65	225.60
962.95	225.59
963.24	225.63
963.54	225.66
963.83	225.69
964.13	225.68
964.42	225.67
964.72	225.59
965.01	225.61
965.31	225.61
965.60	225.56
965.90	225.58
966.19	225.56
966.49	225.55
966.78	225.55
967.08	225.56
967.37	225.55
967.67	225.51
967.96	225.57
968.26	225.52
968.55	225.53
968.85	225.56
969.14	225.55
969.43	225.55
969.73	225.50
970.02	225.46
970.32	225.45
970.61	225.43
970.91	225.40
971.20	225.35
971.49	225.33
971.79	225.35
972.08	225.29
972.38	225.30
972.67	225.29
972.96	225.30
973.26	225.28
973.55	225.29
973.85	225.30
974.14	225.22
974.43	225.23
974.73	225.21
975.02	225.16
975.31	225.15
975.61	225.09
975.90	225.07
976.19	225.07
976.49	225.09
976.78	225.09
977.07	225.06
977.37	225.09
977.66	225.12
977.95	225.07
978.24	225.08
978.54	225.08
978.83	225.03
979.12	225.00
979.42	224.99
979.71	224.97
980.00	224.95
980.29	225.01
980.59	224.99
980.88	225.00
981.17	225.00
981.46	225.02
981.76	225.06
982.05	225.11
982.34	225.10
982.63	225.09
982.93	225.11
983.22	225.17
983.51	225.15
983.80	225.16
984.09	225.16
984.39	225.18
984.68	225.17
984.97	225.21
985.26	225.21
985.55	225.24
985.85	225.21
986.14	225.21
986.43	225.19
986.72	225.18
987.01	225.14
987.30	225.13
987.59	225.09
987.89	225.08
988.18	225.02
988.47	225.00
988.76	224.97
989.05	224.95
989.34	224.91
989.63	224.94
989.92	224.92
990.22	224.94
990.51	224.93
990.80	224.92
991.09	224.96
991.38	224.95
991.67	224.91
991.96	224.89
992.25	224.86
992.54	224.83
992.83	224.85
993.12	224.86
993.41	224.85
993.70	224.91
993.99	224.93
994.28	224.99
994.58	225.02
994.87	225.03
995.16	225.01
995.45	225.01
995.74	224.98
996.03	224.97
996.32	224.98
996.61	225.00
996.90	225.00
997.19	224.95
997.48	224.96
997.77	224.98
998.06	224.99
998.34	225.04
998.63	225.05
998.92	225.04
999.21	225.07
999.50	225.11
999.79	225.07
1000.08	225.05
1000.37	225.02
1000.66	224.99
1000.95	225.03
1001.24	225.02
1001.53	225.03
1001.82	225.02
1002.11	225.02
1002.40	224.99
1002.68	224.99
1002.97	225.05
1003.26	225.02
1003.55	225.00
1003.84	225.00
1004.13	225.03
1004.42	225.01
1004.71	225.03
1004.99	224.98
1005.28	225.00
1005.57	224.96
1005.86	224.95
1006.15	224.97
1006.44	224.94
1006.72	224.98
1007.01	224.94
1007.30	224.96
1007.59	224.95
1007.88	224.95
1008.17	224.97
1008.45	224.99
1008.74	224.97
1009.03	224.94
1009.32	224.99
1009.60	225.01
1009.89	224.98
1010.18	224.94
1010.47	224.94
1010.76	224.93
1011.04	224.96
1011.33	224.97
1011.62	224.98
1011.91	224.99
1012.19	225.01
1012.48	225.03
1012.77	225.01
1013.05	225.09
1013.34	225.11
1013.63	225.10
1013.92	225.12
1014.20	225.11
1014.49	225.14
1014.78	225.15
1015.06	225.10
1015.35	225.11
1015.64	225.14
1015.92	225.18
1016.21	225.20
1016.50	225.24
1016.78	225.25
1017.07	225.27
1017.36	225.27
1017.64	225.26
1017.93	225.30
1018.22	225.27
1018.50	225.26
1018.79	225.28
1019.08	225.23
1019.36	225.22
1019.65	225.22
1019.93	225.25
1020.22	225.26
1020.51	225.27
1020.79	225.28
1021.08	224.90
1021.36	225.04
1021.65	225.31
1021.94	225.38
1022.22	225.25
1022.51	224.75
1022.79	225.93
1023.08	224.93
1023.36	226.38
1023.65	225.04
>>>>>End Processed Spectral Data<<<<<
