SpectraSuite Data File
++++++++++++++++++++++++++++++++++++
Date: Fri Feb 01 17:42:34 EST 2013
User: group
Dark Spectrum Present: No
Reference Spectrum Present: No
Number of Sampled Component Spectra: 1
Spectrometers: USB2E7196
Integration Time (usec): 35000 (USB2E7196)
Spectra Averaged: 100 (USB2E7196)
Boxcar Smoothing: 10 (USB2E7196)
Correct for Electrical Dark: No (USB2E7196)
Strobe/Lamp Enabled: No (USB2E7196)
Correct for Detector Non-linearity: No (USB2E7196)
Correct for Stray Light: No (USB2E7196)
Number of Pixels in Processed Spectrum: 2048
>>>>>Begin Processed Spectral Data<<<<<
339.09	0.00
339.48	212.67
339.86	213.73
340.24	214.83
340.63	216.84
341.01	219.86
341.39	219.43
341.78	220.92
342.16	221.99
342.54	222.80
342.93	211.01
343.31	221.66
343.69	222.19
344.07	222.70
344.46	223.18
344.84	223.58
345.22	223.80
345.60	224.06
345.99	224.27
346.37	224.39
346.75	224.49
347.13	224.59
347.52	224.62
347.90	224.69
348.28	224.72
348.66	224.75
349.05	224.74
349.43	224.80
349.81	224.83
350.19	224.83
350.57	224.89
350.96	224.99
351.34	225.10
351.72	225.21
352.10	225.26
352.48	225.31
352.87	225.33
353.25	225.40
353.63	225.46
354.01	225.47
354.39	225.54
354.77	225.60
355.15	225.67
355.54	225.76
355.92	225.83
356.30	225.91
356.68	226.07
357.06	226.16
357.44	226.19
357.82	226.27
358.20	226.39
358.58	226.47
358.97	226.53
359.35	226.59
359.73	226.66
360.11	226.73
360.49	226.80
360.87	226.85
361.25	226.90
361.63	226.95
362.01	227.01
362.39	227.07
362.77	227.10
363.15	227.15
363.53	227.17
363.91	227.18
364.29	227.22
364.67	227.12
365.05	227.13
365.43	227.16
365.81	227.22
366.19	227.26
366.57	227.30
366.95	227.30
367.33	227.27
367.71	227.27
368.09	227.28
368.47	227.24
368.85	227.23
369.23	227.25
369.61	227.21
369.99	227.25
370.37	227.20
370.75	227.26
371.13	227.22
371.51	227.16
371.89	227.13
372.27	227.05
372.65	227.01
373.03	226.99
373.41	226.93
373.78	226.86
374.16	226.74
374.54	226.66
374.92	226.62
375.30	226.57
375.68	226.48
376.06	226.41
376.44	226.36
376.82	226.29
377.19	226.22
377.57	226.18
377.95	226.05
378.33	225.99
378.71	225.87
379.09	225.80
379.47	225.78
379.84	225.70
380.22	225.65
380.60	225.57
380.98	225.46
381.36	225.41
381.73	225.33
382.11	225.29
382.49	225.24
382.87	225.15
383.25	225.11
383.62	225.18
384.00	225.13
384.38	225.07
384.76	225.06
385.13	225.02
385.51	224.96
385.89	224.89
386.27	224.89
386.64	224.87
387.02	224.81
387.40	224.76
387.78	224.73
388.15	224.66
388.53	224.63
388.91	224.60
389.29	224.55
389.66	224.55
390.04	224.51
390.42	224.50
390.79	224.46
391.17	224.44
391.55	224.32
391.92	224.31
392.30	224.32
392.68	224.29
393.05	224.28
393.43	224.29
393.81	224.31
394.18	224.28
394.56	224.28
394.94	224.32
395.31	224.30
395.69	224.36
396.06	224.44
396.44	224.48
396.82	224.53
397.19	224.62
397.57	224.64
397.95	224.70
398.32	224.70
398.70	224.76
399.07	224.80
399.45	224.82
399.82	224.91
400.20	224.96
400.58	225.03
400.95	225.06
401.33	225.16
401.70	225.31
402.08	225.38
402.45	225.45
402.83	225.56
403.20	225.69
403.58	225.74
403.95	225.85
404.33	225.96
404.71	226.08
405.08	226.28
405.46	226.40
405.83	226.54
406.21	226.70
406.58	226.89
406.96	227.08
407.33	227.26
407.70	227.44
408.08	227.75
408.45	227.99
408.83	228.26
409.20	228.46
409.58	228.68
409.95	228.99
410.33	229.30
410.70	229.55
411.08	229.87
411.45	230.21
411.82	230.54
412.20	230.95
412.57	231.41
412.95	231.74
413.32	232.21
413.69	232.71
414.07	233.20
414.44	233.72
414.82	234.28
415.19	234.92
415.56	235.55
415.94	236.18
416.31	236.93
416.68	237.61
417.06	238.48
417.43	239.30
417.81	240.19
418.18	241.11
418.55	242.12
418.93	243.15
419.30	244.24
419.67	245.35
420.04	246.50
420.42	247.66
420.79	249.03
421.16	250.40
421.54	251.76
421.91	253.20
422.28	254.72
422.66	256.28
423.03	257.82
423.40	259.41
423.77	261.06
424.15	262.74
424.52	264.56
424.89	266.47
425.26	268.27
425.64	269.98
426.01	271.90
426.38	273.88
426.75	275.87
427.13	277.91
427.50	280.06
427.87	282.27
428.24	284.48
428.61	286.54
428.99	288.86
429.36	291.37
429.73	293.82
430.10	296.19
430.47	298.68
430.85	301.20
431.22	303.84
431.59	306.65
431.96	309.28
432.33	312.22
432.70	314.99
433.08	318.32
433.45	321.45
433.82	324.49
434.19	327.86
434.56	331.18
434.93	334.35
435.30	337.48
435.68	340.89
436.05	344.26
436.42	347.61
436.79	350.56
437.16	353.76
437.53	357.15
437.90	360.51
438.27	363.70
438.64	367.06
439.01	370.11
439.38	372.80
439.75	375.42
440.13	378.39
440.50	381.14
440.87	383.32
441.24	385.61
441.61	388.23
441.98	390.05
442.35	392.14
442.72	394.33
443.09	396.42
443.46	397.67
443.83	398.32
444.20	398.91
444.57	399.92
444.94	400.27
445.31	400.61
445.68	400.98
446.05	401.15
446.42	400.70
446.79	400.22
447.16	399.68
447.53	399.34
447.90	397.96
448.27	396.63
448.64	394.80
449.01	393.50
449.37	391.14
449.74	388.89
450.11	386.28
450.48	383.36
450.85	380.42
451.22	377.85
451.59	375.50
451.96	373.24
452.33	370.15
452.70	367.38
453.07	364.07
453.43	360.67
453.80	357.39
454.17	354.17
454.54	351.20
454.91	347.97
455.28	344.77
455.65	341.83
456.02	338.92
456.38	336.35
456.75	333.21
457.12	330.51
457.49	327.88
457.86	325.34
458.23	323.12
458.59	320.68
458.96	318.21
459.33	316.02
459.70	313.76
460.07	311.99
460.43	309.91
460.80	307.95
461.17	306.23
461.54	304.45
461.91	302.81
462.27	301.08
462.64	299.60
463.01	297.99
463.38	296.41
463.74	294.78
464.11	293.41
464.48	292.16
464.85	290.84
465.21	289.81
465.58	288.69
465.95	287.41
466.32	286.31
466.68	285.26
467.05	284.21
467.42	283.20
467.78	282.09
468.15	281.09
468.52	280.32
468.88	279.28
469.25	278.35
469.62	277.61
469.98	276.80
470.35	276.03
470.72	275.32
471.08	274.54
471.45	273.91
471.82	273.25
472.18	272.52
472.55	272.00
472.92	271.36
473.28	270.76
473.65	270.20
474.02	269.71
474.38	269.20
474.75	268.78
475.11	268.32
475.48	268.01
475.85	267.73
476.21	267.46
476.58	267.22
476.94	267.03
477.31	266.77
477.67	266.55
478.04	266.46
478.41	266.34
478.77	266.40
479.14	266.29
479.50	266.27
479.87	266.31
480.23	266.39
480.60	266.44
480.96	266.53
481.33	266.71
481.69	266.85
482.06	267.06
482.42	267.27
482.79	267.51
483.15	267.78
483.52	268.15
483.88	268.49
484.25	268.89
484.61	269.29
484.98	269.71
485.34	270.29
485.71	270.83
486.07	271.43
486.44	271.93
486.80	272.65
487.17	273.37
487.53	274.17
487.90	275.00
488.26	275.94
488.62	276.94
488.99	277.93
489.35	278.98
489.72	280.08
490.08	281.26
490.44	282.49
490.81	283.83
491.17	285.17
491.54	286.63
491.90	288.19
492.26	289.87
492.63	291.66
492.99	293.45
493.36	295.39
493.72	297.50
494.08	299.65
494.45	301.91
494.81	304.34
495.17	306.83
495.54	309.46
495.90	312.21
496.26	315.04
496.63	318.03
496.99	321.19
497.35	324.51
497.72	327.97
498.08	331.59
498.44	335.34
498.80	339.36
499.17	343.46
499.53	347.67
499.89	352.10
500.26	356.68
500.62	361.46
500.98	366.53
501.34	371.74
501.71	377.18
502.07	382.71
502.43	388.39
502.79	394.32
503.16	400.46
503.52	406.78
503.88	413.37
504.24	420.12
504.60	427.14
504.97	434.42
505.33	441.89
505.69	449.72
506.05	457.59
506.41	465.62
506.78	473.98
507.14	482.62
507.50	491.56
507.86	500.77
508.22	510.14
508.59	519.48
508.95	529.12
509.31	539.17
509.67	549.51
510.03	560.01
510.39	570.78
510.75	581.79
511.12	592.97
511.48	604.44
511.84	616.15
512.20	627.85
512.56	640.10
512.92	652.47
513.28	665.13
513.64	677.90
514.00	690.84
514.37	704.08
514.73	717.44
515.09	730.70
515.45	744.26
515.81	758.18
516.17	772.56
516.53	787.08
516.89	801.50
517.25	816.03
517.61	830.83
517.97	845.66
518.33	860.44
518.69	875.59
519.05	890.89
519.41	906.38
519.77	922.32
520.13	938.13
520.49	954.11
520.85	969.76
521.21	985.93
521.57	1002.63
521.93	1018.81
522.29	1035.52
522.65	1052.37
523.01	1069.05
523.37	1085.46
523.73	1102.04
524.09	1118.66
524.45	1135.45
524.81	1152.51
525.17	1169.76
525.53	1187.16
525.89	1204.66
526.25	1222.08
526.61	1239.00
526.97	1256.29
527.33	1273.36
527.68	1290.49
528.04	1307.37
528.40	1324.64
528.76	1342.23
529.12	1359.29
529.48	1376.83
529.84	1393.57
530.20	1410.68
530.56	1428.33
530.91	1446.40
531.27	1463.90
531.63	1481.09
531.99	1498.37
532.35	1515.21
532.71	1531.96
533.07	1548.94
533.42	1565.56
533.78	1582.38
534.14	1599.37
534.50	1615.62
534.86	1632.32
535.21	1648.37
535.57	1665.12
535.93	1681.36
536.29	1697.08
536.65	1713.13
537.00	1728.69
537.36	1744.87
537.72	1760.28
538.08	1775.62
538.44	1790.31
538.79	1805.06
539.15	1819.53
539.51	1834.23
539.87	1849.42
540.22	1863.93
540.58	1878.63
540.94	1892.84
541.29	1906.51
541.65	1920.27
542.01	1934.47
542.37	1947.88
542.72	1961.26
543.08	1974.20
543.44	1987.83
543.79	2000.08
544.15	2012.07
544.51	2024.68
544.87	2036.65
545.22	2048.61
545.58	2059.86
545.94	2070.73
546.29	2081.72
546.65	2092.67
547.01	2103.08
547.36	2113.05
547.72	2122.72
548.07	2131.78
548.43	2140.90
548.79	2149.80
549.14	2158.58
549.50	2166.83
549.86	2175.38
550.21	2183.83
550.57	2192.08
550.92	2199.73
551.28	2207.99
551.64	2216.10
551.99	2223.64
552.35	2230.91
552.70	2238.28
553.06	2245.33
553.41	2252.72
553.77	2259.49
554.13	2266.50
554.48	2273.50
554.84	2280.12
555.19	2286.27
555.55	2292.47
555.90	2298.18
556.26	2304.49
556.61	2309.96
556.97	2315.43
557.32	2320.47
557.68	2325.51
558.03	2330.49
558.39	2334.91
558.74	2340.15
559.10	2344.96
559.45	2349.61
559.81	2354.66
560.16	2359.13
560.52	2363.34
560.87	2367.59
561.23	2371.15
561.58	2374.83
561.94	2378.29
562.29	2381.05
562.64	2384.95
563.00	2388.40
563.35	2392.57
563.71	2396.55
564.06	2400.57
564.42	2404.28
564.77	2407.92
565.12	2411.10
565.48	2414.07
565.83	2416.85
566.19	2419.30
566.54	2420.81
566.89	2422.89
567.25	2424.33
567.60	2426.33
567.96	2428.81
568.31	2430.39
568.66	2432.49
569.02	2433.84
569.37	2434.90
569.72	2436.35
570.08	2436.80
570.43	2437.27
570.78	2437.40
571.14	2436.33
571.49	2435.51
571.84	2435.43
572.20	2434.74
572.55	2434.08
572.90	2432.71
573.26	2431.85
573.61	2430.18
573.96	2429.12
574.31	2426.29
574.67	2423.74
575.02	2420.43
575.37	2417.07
575.72	2413.63
576.08	2410.28
576.43	2407.13
576.78	2403.75
577.13	2400.83
577.49	2397.86
577.84	2394.63
578.19	2390.96
578.54	2387.47
578.90	2383.59
579.25	2378.27
579.60	2373.60
579.95	2368.82
580.30	2364.06
580.66	2358.85
581.01	2354.00
581.36	2348.98
581.71	2344.96
582.06	2340.62
582.42	2336.24
582.77	2331.12
583.12	2326.62
583.47	2322.21
583.82	2317.44
584.17	2312.23
584.53	2306.80
584.88	2301.25
585.23	2295.50
585.58	2289.91
585.93	2284.34
586.28	2279.26
586.63	2274.14
586.98	2268.66
587.34	2263.65
587.69	2258.45
588.04	2253.25
588.39	2247.56
588.74	2240.90
589.09	2234.40
589.44	2227.47
589.79	2221.01
590.14	2215.13
590.49	2208.22
590.84	2201.36
591.19	2195.06
591.54	2188.17
591.89	2180.65
592.25	2173.72
592.60	2166.26
592.95	2158.55
593.30	2151.03
593.65	2143.10
594.00	2135.63
594.35	2128.08
594.70	2119.63
595.05	2112.30
595.40	2104.46
595.75	2096.61
596.10	2090.21
596.45	2083.28
596.80	2076.70
597.15	2069.86
597.50	2062.68
597.85	2055.84
598.19	2048.98
598.54	2041.79
598.89	2034.93
599.24	2028.56
599.59	2021.84
599.94	2015.02
600.29	2008.34
600.64	2001.11
600.99	1993.49
601.34	1986.32
601.69	1978.84
602.04	1971.66
602.39	1963.89
602.74	1956.67
603.08	1949.52
603.43	1942.15
603.78	1934.23
604.13	1926.44
604.48	1918.83
604.83	1911.41
605.18	1904.21
605.53	1895.66
605.87	1886.84
606.22	1878.87
606.57	1870.44
606.92	1861.97
607.27	1854.47
607.62	1846.98
607.96	1839.42
608.31	1832.29
608.66	1824.28
609.01	1816.22
609.36	1808.18
609.70	1799.47
610.05	1790.91
610.40	1782.70
610.75	1773.86
611.10	1765.64
611.44	1756.51
611.79	1747.83
612.14	1738.34
612.49	1728.18
612.83	1719.05
613.18	1710.10
613.53	1701.34
613.88	1692.01
614.22	1683.11
614.57	1673.57
614.92	1664.93
615.27	1656.71
615.61	1647.71
615.96	1638.88
616.31	1630.43
616.65	1622.30
617.00	1614.19
617.35	1605.74
617.70	1596.63
618.04	1587.38
618.39	1578.47
618.74	1570.28
619.08	1561.19
619.43	1552.94
619.78	1545.47
620.12	1537.77
620.47	1529.68
620.82	1520.78
621.16	1512.53
621.51	1504.23
621.85	1495.89
622.20	1486.52
622.55	1477.31
622.89	1468.70
623.24	1460.24
623.59	1452.23
623.93	1443.98
624.28	1435.92
624.62	1427.70
624.97	1419.82
625.32	1412.23
625.66	1404.54
626.01	1396.73
626.35	1388.77
626.70	1380.32
627.04	1371.99
627.39	1363.29
627.73	1355.22
628.08	1347.69
628.43	1340.03
628.77	1332.22
629.12	1324.04
629.46	1316.16
629.81	1307.87
630.15	1299.86
630.50	1291.85
630.84	1282.98
631.19	1274.30
631.53	1266.07
631.88	1257.88
632.22	1249.63
632.57	1241.71
632.91	1233.39
633.26	1225.27
633.60	1217.21
633.95	1209.37
634.29	1201.56
634.64	1194.37
634.98	1186.43
635.32	1178.69
635.67	1171.38
636.01	1164.07
636.36	1156.81
636.70	1149.72
637.05	1142.66
637.39	1135.62
637.73	1128.56
638.08	1122.16
638.42	1115.74
638.77	1108.85
639.11	1101.79
639.45	1094.88
639.80	1087.78
640.14	1080.99
640.49	1074.04
640.83	1067.09
641.17	1060.50
641.52	1053.81
641.86	1046.83
642.20	1040.54
642.55	1033.50
642.89	1026.56
643.23	1019.34
643.58	1013.08
643.92	1006.45
644.26	1000.06
644.61	993.60
644.95	987.27
645.29	980.15
645.64	972.81
645.98	965.95
646.32	959.43
646.66	952.96
647.01	946.72
647.35	940.57
647.69	934.12
648.04	928.28
648.38	921.97
648.72	915.51
649.06	908.98
649.41	902.48
649.75	896.27
650.09	889.78
650.43	883.61
650.78	876.92
651.12	870.48
651.46	864.21
651.80	858.12
652.14	852.20
652.49	846.51
652.83	840.94
653.17	834.90
653.51	828.85
653.85	822.90
654.20	816.85
654.54	810.35
654.88	804.16
655.22	797.76
655.56	791.50
655.90	785.55
656.25	779.93
656.59	774.24
656.93	768.68
657.27	763.25
657.61	757.41
657.95	751.91
658.29	746.45
658.64	740.80
658.98	734.89
659.32	728.94
659.66	723.39
660.00	717.77
660.34	712.37
660.68	707.09
661.02	701.77
661.36	696.61
661.70	691.76
662.05	687.07
662.39	682.42
662.73	677.69
663.07	672.94
663.41	668.13
663.75	663.20
664.09	658.30
664.43	653.55
664.77	649.22
665.11	644.70
665.45	640.28
665.79	635.98
666.13	631.62
666.47	627.32
666.81	622.74
667.15	618.25
667.49	614.04
667.83	609.81
668.17	605.48
668.51	601.20
668.85	596.83
669.19	592.68
669.53	588.58
669.87	584.51
670.21	580.47
670.55	576.53
670.89	572.91
671.23	569.22
671.57	565.38
671.91	561.55
672.25	557.71
672.58	553.86
672.92	550.12
673.26	546.65
673.60	543.18
673.94	539.87
674.28	536.70
674.62	533.57
674.96	530.32
675.30	527.24
675.64	524.12
675.97	521.09
676.31	518.03
676.65	514.89
676.99	511.88
677.33	508.82
677.67	505.82
678.01	502.57
678.34	499.36
678.68	496.26
679.02	493.18
679.36	490.21
679.70	487.31
680.04	484.37
680.37	481.37
680.71	478.34
681.05	475.47
681.39	472.62
681.73	469.74
682.06	466.98
682.40	464.18
682.74	461.38
683.08	458.64
683.42	455.79
683.75	453.09
684.09	450.31
684.43	447.63
684.77	445.00
685.10	442.42
685.44	439.92
685.78	437.43
686.12	435.00
686.45	432.49
686.79	430.03
687.13	427.64
687.46	425.29
687.80	422.99
688.14	420.57
688.48	418.28
688.81	415.89
689.15	413.63
689.49	411.37
689.82	409.14
690.16	406.89
690.50	404.78
690.83	402.68
691.17	400.54
691.51	398.50
691.84	396.48
692.18	394.46
692.52	392.41
692.85	390.31
693.19	388.23
693.52	386.24
693.86	384.23
694.20	382.29
694.53	380.32
694.87	378.33
695.21	376.44
695.54	374.47
695.88	372.57
696.21	370.67
696.55	368.81
696.88	366.93
697.22	365.13
697.56	363.33
697.89	361.50
698.23	359.78
698.56	358.05
698.90	356.31
699.23	354.52
699.57	352.78
699.90	351.13
700.24	349.50
700.58	347.90
700.91	346.33
701.25	344.79
701.58	343.31
701.92	341.77
702.25	340.27
702.59	338.79
702.92	337.39
703.26	335.95
703.59	334.60
703.93	333.37
704.26	332.04
704.60	330.68
704.93	329.32
705.26	328.02
705.60	326.64
705.93	325.38
706.27	324.20
706.60	323.09
706.94	321.87
707.27	320.64
707.61	319.46
707.94	318.27
708.27	317.07
708.61	315.93
708.94	314.88
709.28	313.81
709.61	312.75
709.94	311.67
710.28	310.52
710.61	309.39
710.95	308.17
711.28	307.17
711.61	306.14
711.95	305.12
712.28	304.07
712.61	303.10
712.95	302.06
713.28	301.08
713.61	300.05
713.95	299.12
714.28	298.22
714.61	297.30
714.95	296.38
715.28	295.46
715.61	294.50
715.95	293.56
716.28	292.62
716.61	291.68
716.95	290.78
717.28	290.01
717.61	289.23
717.94	288.45
718.28	287.56
718.61	286.77
718.94	286.01
719.27	285.30
719.61	284.56
719.94	283.86
720.27	283.09
720.60	282.41
720.94	281.72
721.27	281.02
721.60	280.37
721.93	279.76
722.27	279.16
722.60	278.54
722.93	277.91
723.26	277.36
723.59	276.80
723.93	276.20
724.26	275.58
724.59	274.95
724.92	274.37
725.25	273.88
725.59	273.31
725.92	272.76
726.25	272.19
726.58	271.67
726.91	271.14
727.24	270.63
727.57	270.10
727.91	269.54
728.24	269.07
728.57	268.52
728.90	267.96
729.23	267.40
729.56	266.92
729.89	266.41
730.22	265.88
730.55	265.37
730.89	264.91
731.22	264.42
731.55	263.96
731.88	263.49
732.21	262.98
732.54	262.52
732.87	262.07
733.20	261.64
733.53	261.24
733.86	260.79
734.19	260.38
734.52	259.97
734.85	259.59
735.18	259.12
735.51	258.74
735.84	258.37
736.17	258.04
736.50	257.62
736.83	257.35
737.16	256.96
737.49	256.60
737.82	256.19
738.15	255.88
738.48	255.50
738.81	255.17
739.14	254.84
739.47	254.48
739.80	254.14
740.13	253.79
740.46	253.43
740.79	253.12
741.12	252.77
741.45	252.45
741.78	252.13
742.11	251.83
742.44	251.47
742.77	251.14
743.10	250.77
743.43	250.45
743.75	250.07
744.08	249.94
744.41	249.60
744.74	249.30
745.07	249.00
745.40	248.71
745.73	248.45
746.06	248.15
746.39	247.90
746.71	247.61
747.04	247.32
747.37	247.04
747.70	246.78
748.03	246.49
748.36	246.23
748.68	245.97
749.01	245.69
749.34	245.46
749.67	245.22
750.00	244.96
750.33	244.79
750.65	244.54
750.98	244.13
751.31	243.92
751.64	243.70
751.97	243.48
752.29	243.25
752.62	242.97
752.95	242.72
753.28	242.47
753.60	242.24
753.93	242.07
754.26	241.87
754.59	241.62
754.91	241.43
755.24	241.20
755.57	240.96
755.90	240.78
756.22	240.54
756.55	240.36
756.88	240.17
757.20	239.90
757.53	239.73
757.86	239.53
758.19	239.35
758.51	239.17
758.84	238.93
759.17	238.76
759.49	238.60
759.82	238.48
760.15	238.30
760.47	238.10
760.80	237.87
761.13	237.71
761.45	237.55
761.78	237.38
762.11	237.22
762.43	237.06
762.76	236.88
763.08	236.73
763.41	236.56
763.74	236.43
764.06	236.26
764.39	236.07
764.71	235.94
765.04	235.76
765.37	235.61
765.69	235.48
766.02	235.32
766.34	235.18
766.67	235.01
767.00	234.88
767.32	234.86
767.65	234.84
767.97	234.68
768.30	234.56
768.62	234.41
768.95	234.26
769.27	234.14
769.60	234.05
769.92	233.93
770.25	233.80
770.57	233.65
770.90	233.56
771.22	233.45
771.55	233.35
771.87	233.27
772.20	233.17
772.52	233.15
772.85	233.18
773.17	233.08
773.50	232.93
773.82	232.85
774.15	232.66
774.47	232.50
774.80	232.38
775.12	232.31
775.45	232.23
775.77	232.18
776.09	232.11
776.42	232.00
776.74	231.96
777.07	231.88
777.39	231.82
777.72	231.73
778.04	231.66
778.36	231.58
778.69	231.49
779.01	231.44
779.33	231.26
779.66	231.04
779.98	230.96
780.31	230.96
780.63	230.90
780.95	230.85
781.28	230.77
781.60	230.72
781.92	230.62
782.25	230.56
782.57	230.51
782.89	230.39
783.22	230.33
783.54	230.23
783.86	230.15
784.19	230.06
784.51	230.01
784.83	229.93
785.16	229.85
785.48	229.81
785.80	229.78
786.12	229.73
786.45	229.72
786.77	229.68
787.09	229.64
787.42	229.60
787.74	229.58
788.06	229.48
788.38	229.43
788.71	229.40
789.03	229.38
789.35	229.34
789.67	229.30
789.99	229.25
790.32	229.21
790.64	229.21
790.96	229.26
791.28	229.19
791.61	229.15
791.93	229.13
792.25	229.08
792.57	229.08
792.89	229.04
793.21	229.00
793.54	228.92
793.86	228.84
794.18	228.76
794.50	228.70
794.82	228.71
795.14	228.69
795.47	228.67
795.79	228.61
796.11	228.52
796.43	228.53
796.75	228.54
797.07	228.51
797.39	228.47
797.71	228.39
798.04	228.38
798.36	228.37
798.68	228.32
799.00	228.27
799.32	228.19
799.64	228.21
799.96	228.17
800.28	228.15
800.60	228.13
800.92	228.13
801.24	228.09
801.56	228.06
801.89	228.02
802.21	228.00
802.53	227.97
802.85	227.99
803.17	227.98
803.49	227.93
803.81	227.89
804.13	227.84
804.45	227.80
804.77	227.80
805.09	227.76
805.41	227.72
805.73	227.68
806.05	227.60
806.37	227.52
806.69	227.47
807.01	227.46
807.33	227.44
807.65	227.37
807.97	227.41
808.28	227.35
808.60	227.33
808.92	227.25
809.24	227.29
809.56	227.26
809.88	227.20
810.20	227.19
810.52	227.19
810.84	227.14
811.16	227.08
811.48	227.02
811.80	227.03
812.12	227.02
812.43	227.02
812.75	227.00
813.07	226.97
813.39	226.98
813.71	226.92
814.03	226.90
814.35	226.88
814.67	226.80
814.98	226.80
815.30	226.79
815.62	226.77
815.94	226.67
816.26	226.62
816.58	226.58
816.89	226.54
817.21	226.50
817.53	226.52
817.85	226.52
818.17	226.49
818.48	226.41
818.80	226.41
819.12	226.42
819.44	226.41
819.76	226.40
820.07	226.38
820.39	226.39
820.71	226.35
821.03	226.37
821.34	226.34
821.66	226.30
821.98	226.27
822.30	226.26
822.61	226.32
822.93	226.31
823.25	226.29
823.57	226.28
823.88	226.30
824.20	226.27
824.52	226.24
824.83	226.25
825.15	226.21
825.47	226.18
825.79	226.14
826.10	226.10
826.42	226.10
826.74	226.08
827.05	226.08
827.37	226.09
827.69	226.07
828.00	226.04
828.32	226.06
828.64	226.05
828.95	226.09
829.27	226.01
829.58	225.99
829.90	226.00
830.22	225.96
830.53	225.92
830.85	225.87
831.17	225.82
831.48	225.83
831.80	225.88
832.11	225.86
832.43	225.86
832.75	225.87
833.06	225.89
833.38	225.85
833.69	225.81
834.01	225.80
834.32	225.74
834.64	225.74
834.96	225.72
835.27	225.70
835.59	225.64
835.90	225.62
836.22	225.61
836.53	225.57
836.85	225.55
837.16	225.64
837.48	225.67
837.79	225.69
838.11	225.66
838.42	225.64
838.74	225.63
839.05	225.62
839.37	225.58
839.68	225.55
840.00	225.53
840.31	225.55
840.63	225.51
840.94	225.54
841.26	225.52
841.57	225.52
841.88	225.53
842.20	225.56
842.51	225.54
842.83	225.54
843.14	225.62
843.46	225.63
843.77	225.58
844.08	225.57
844.40	225.57
844.71	225.57
845.03	225.55
845.34	225.57
845.65	225.53
845.97	225.54
846.28	225.53
846.60	225.52
846.91	225.49
847.22	225.49
847.54	225.48
847.85	225.48
848.16	225.46
848.48	225.44
848.79	225.45
849.10	225.49
849.42	225.49
849.73	225.41
850.04	225.39
850.36	225.37
850.67	225.40
850.98	225.39
851.30	225.38
851.61	225.38
851.92	225.35
852.23	225.39
852.55	225.43
852.86	225.44
853.17	225.46
853.49	225.47
853.80	225.47
854.11	225.47
854.42	225.48
854.74	225.47
855.05	225.46
855.36	225.40
855.67	225.40
855.99	225.40
856.30	225.53
856.61	225.50
856.92	225.48
857.23	225.48
857.55	225.47
857.86	225.47
858.17	225.48
858.48	225.47
858.79	225.46
859.11	225.44
859.42	225.43
859.73	225.42
860.04	225.42
860.35	225.45
860.66	225.43
860.98	225.42
861.29	225.43
861.60	225.43
861.91	225.45
862.22	225.42
862.53	225.37
862.84	225.24
863.16	225.27
863.47	225.27
863.78	225.24
864.09	225.24
864.40	225.23
864.71	225.20
865.02	225.23
865.33	225.19
865.64	225.17
865.95	225.15
866.27	225.24
866.58	225.24
866.89	225.22
867.20	225.22
867.51	225.24
867.82	225.23
868.13	225.25
868.44	225.24
868.75	225.27
869.06	225.29
869.37	225.25
869.68	225.23
869.99	225.25
870.30	225.25
870.61	225.27
870.92	225.21
871.23	225.24
871.54	225.22
871.85	225.25
872.16	225.24
872.47	225.24
872.78	225.15
873.09	225.18
873.40	225.14
873.71	225.14
874.02	225.12
874.33	225.09
874.64	225.09
874.95	225.05
875.26	225.00
875.56	224.99
875.87	225.05
876.18	225.05
876.49	225.12
876.80	225.10
877.11	225.05
877.42	225.11
877.73	225.07
878.04	225.05
878.35	225.03
878.66	225.04
878.96	225.01
879.27	224.99
879.58	224.96
879.89	224.98
880.20	225.00
880.51	225.00
880.82	225.03
881.12	225.02
881.43	225.03
881.74	225.02
882.05	225.03
882.36	225.01
882.67	224.99
882.97	224.89
883.28	224.89
883.59	224.90
883.90	224.87
884.21	224.92
884.51	224.93
884.82	224.92
885.13	224.92
885.44	224.92
885.74	224.91
886.05	224.87
886.36	224.87
886.67	224.83
886.98	224.90
887.28	224.87
887.59	224.88
887.90	224.91
888.20	224.89
888.51	224.89
888.82	224.86
889.13	224.92
889.43	225.01
889.74	224.98
890.05	224.95
890.35	224.96
890.66	224.95
890.97	224.91
891.28	224.91
891.58	224.90
891.89	224.92
892.20	224.96
892.50	224.99
892.81	224.96
893.12	224.99
893.42	224.90
893.73	224.90
894.04	224.89
894.34	224.84
894.65	224.87
894.95	224.88
895.26	224.86
895.57	224.85
895.87	224.75
896.18	224.78
896.48	224.85
896.79	224.84
897.10	224.83
897.40	224.84
897.71	224.84
898.01	224.85
898.32	224.85
898.63	224.83
898.93	224.82
899.24	224.79
899.54	224.78
899.85	224.78
900.15	224.78
900.46	224.78
900.76	224.80
901.07	224.81
901.38	224.77
901.68	224.84
901.99	224.82
902.29	224.82
902.60	224.82
902.90	224.78
903.21	224.80
903.51	224.79
903.82	224.79
904.12	224.81
904.43	224.84
904.73	224.81
905.03	224.82
905.34	224.91
905.64	224.93
905.95	224.93
906.25	224.96
906.56	224.97
906.86	224.96
907.17	225.01
907.47	225.00
907.77	225.00
908.08	224.93
908.38	224.93
908.69	224.92
908.99	224.93
909.30	224.93
909.60	224.89
909.90	224.91
910.21	224.93
910.51	224.89
910.81	224.88
911.12	224.90
911.42	224.86
911.73	224.76
912.03	224.76
912.33	224.77
912.64	224.73
912.94	224.73
913.24	224.72
913.55	224.67
913.85	224.65
914.15	224.70
914.46	224.70
914.76	224.65
915.06	224.66
915.37	224.62
915.67	224.60
915.97	224.60
916.27	224.55
916.58	224.51
916.88	224.54
917.18	224.49
917.49	224.52
917.79	224.55
918.09	224.57
918.39	224.62
918.70	224.60
919.00	224.59
919.30	224.60
919.60	224.58
919.91	224.58
920.21	224.56
920.51	224.51
920.81	224.54
921.12	224.60
921.42	224.61
921.72	224.63
922.02	224.65
922.32	224.68
922.63	224.72
922.93	224.78
923.23	224.77
923.53	224.76
923.83	224.71
924.13	224.71
924.44	224.72
924.74	224.72
925.04	224.73
925.34	224.74
925.64	224.70
925.94	224.71
926.24	224.77
926.55	224.79
926.85	224.83
927.15	224.81
927.45	224.79
927.75	224.80
928.05	224.77
928.35	224.77
928.65	224.78
928.95	224.79
929.26	224.77
929.56	224.79
929.86	224.82
930.16	224.81
930.46	224.82
930.76	224.79
931.06	224.73
931.36	224.73
931.66	224.75
931.96	224.80
932.26	224.78
932.56	224.74
932.86	224.73
933.16	224.73
933.46	224.72
933.76	224.73
934.06	224.74
934.36	224.78
934.66	224.77
934.96	224.77
935.26	224.76
935.56	224.74
935.86	224.69
936.16	224.66
936.46	224.69
936.76	224.68
937.06	224.68
937.36	224.68
937.66	224.70
937.96	224.68
938.26	224.64
938.56	224.64
938.86	224.64
939.16	224.66
939.46	224.66
939.76	224.68
940.06	224.68
940.35	224.65
940.65	224.61
940.95	224.63
941.25	224.61
941.55	224.59
941.85	224.59
942.15	224.64
942.45	224.68
942.75	224.63
943.04	224.65
943.34	224.66
943.64	224.66
943.94	224.63
944.24	224.61
944.54	224.62
944.84	224.62
945.13	224.60
945.43	224.59
945.73	224.58
946.03	224.55
946.33	224.52
946.62	224.50
946.92	224.50
947.22	224.47
947.52	224.46
947.82	224.44
948.11	224.45
948.41	224.41
948.71	224.38
949.01	224.38
949.31	224.33
949.60	224.31
949.90	224.32
950.20	224.32
950.50	224.36
950.79	224.31
951.09	224.34
951.39	224.32
951.69	224.27
951.98	224.30
952.28	224.30
952.58	224.29
952.87	224.29
953.17	224.30
953.47	224.31
953.76	224.31
954.06	224.32
954.36	224.32
954.66	224.32
954.95	224.36
955.25	224.36
955.55	224.39
955.84	224.37
956.14	224.37
956.44	224.37
956.73	224.38
957.03	224.40
957.32	224.37
957.62	224.39
957.92	224.42
958.21	224.41
958.51	224.53
958.81	224.53
959.10	224.55
959.40	224.56
959.69	224.56
959.99	224.57
960.29	224.53
960.58	224.52
960.88	224.56
961.17	224.56
961.47	224.58
961.76	224.59
962.06	224.61
962.36	224.63
962.65	224.64
962.95	224.62
963.24	224.62
963.54	224.64
963.83	224.64
964.13	224.66
964.42	224.63
964.72	224.55
965.01	224.59
965.31	224.59
965.60	224.56
965.90	224.62
966.19	224.62
966.49	224.66
966.78	224.64
967.08	224.63
967.37	224.63
967.67	224.60
967.96	224.63
968.26	224.64
968.55	224.65
968.85	224.66
969.14	224.67
969.43	224.68
969.73	224.69
970.02	224.72
970.32	224.71
970.61	224.71
970.91	224.68
971.20	224.66
971.49	224.64
971.79	224.66
972.08	224.59
972.38	224.57
972.67	224.57
972.96	224.60
973.26	224.60
973.55	224.61
973.85	224.61
974.14	224.58
974.43	224.59
974.73	224.56
975.02	224.55
975.31	224.51
975.61	224.47
975.90	224.44
976.19	224.41
976.49	224.41
976.78	224.42
977.07	224.43
977.37	224.42
977.66	224.45
977.95	224.43
978.24	224.44
978.54	224.47
978.83	224.45
979.12	224.41
979.42	224.40
979.71	224.39
980.00	224.38
980.29	224.40
980.59	224.38
980.88	224.39
981.17	224.36
981.46	224.38
981.76	224.42
982.05	224.47
982.34	224.47
982.63	224.46
982.93	224.46
983.22	224.48
983.51	224.50
983.80	224.49
984.09	224.51
984.39	224.53
984.68	224.51
984.97	224.50
985.26	224.53
985.55	224.51
985.85	224.49
986.14	224.51
986.43	224.49
986.72	224.49
987.01	224.46
987.30	224.51
987.59	224.53
987.89	224.56
988.18	224.52
988.47	224.50
988.76	224.49
989.05	224.49
989.34	224.46
989.63	224.47
989.92	224.46
990.22	224.44
990.51	224.45
990.80	224.45
991.09	224.47
991.38	224.49
991.67	224.51
991.96	224.50
992.25	224.52
992.54	224.52
992.83	224.52
993.12	224.52
993.41	224.54
993.70	224.56
993.99	224.59
994.28	224.57
994.58	224.58
994.87	224.59
995.16	224.58
995.45	224.58
995.74	224.53
996.03	224.52
996.32	224.56
996.61	224.55
996.90	224.54
997.19	224.54
997.48	224.54
997.77	224.50
998.06	224.53
998.34	224.47
998.63	224.48
998.92	224.47
999.21	224.49
999.50	224.47
999.79	224.45
1000.08	224.39
1000.37	224.41
1000.66	224.41
1000.95	224.41
1001.24	224.44
1001.53	224.48
1001.82	224.49
1002.11	224.51
1002.40	224.50
1002.68	224.55
1002.97	224.62
1003.26	224.59
1003.55	224.59
1003.84	224.64
1004.13	224.63
1004.42	224.65
1004.71	224.68
1004.99	224.68
1005.28	224.71
1005.57	224.70
1005.86	224.66
1006.15	224.67
1006.44	224.69
1006.72	224.67
1007.01	224.69
1007.30	224.68
1007.59	224.65
1007.88	224.68
1008.17	224.65
1008.45	224.60
1008.74	224.58
1009.03	224.53
1009.32	224.56
1009.60	224.53
1009.89	224.48
1010.18	224.47
1010.47	224.45
1010.76	224.43
1011.04	224.44
1011.33	224.42
1011.62	224.43
1011.91	224.45
1012.19	224.42
1012.48	224.41
1012.77	224.45
1013.05	224.46
1013.34	224.45
1013.63	224.46
1013.92	224.44
1014.20	224.43
1014.49	224.47
1014.78	224.46
1015.06	224.43
1015.35	224.44
1015.64	224.45
1015.92	224.50
1016.21	224.50
1016.50	224.52
1016.78	224.53
1017.07	224.53
1017.36	224.50
1017.64	224.51
1017.93	224.53
1018.22	224.51
1018.50	224.50
1018.79	224.45
1019.08	224.44
1019.36	224.45
1019.65	224.42
1019.93	224.46
1020.22	224.49
1020.51	224.53
1020.79	224.52
1021.08	223.58
1021.36	224.40
1021.65	223.89
1021.94	224.60
1022.22	224.76
1022.51	224.27
1022.79	224.92
1023.08	224.46
1023.36	225.79
1023.65	224.28
>>>>>End Processed Spectral Data<<<<<
