SpectraSuite Data File
++++++++++++++++++++++++++++++++++++
Date: Fri Feb 01 15:04:25 EST 2013
User: group
Dark Spectrum Present: No
Reference Spectrum Present: No
Number of Sampled Component Spectra: 1
Spectrometers: USB2E7196
Integration Time (usec): 35000 (USB2E7196)
Spectra Averaged: 100 (USB2E7196)
Boxcar Smoothing: 10 (USB2E7196)
Correct for Electrical Dark: No (USB2E7196)
Strobe/Lamp Enabled: No (USB2E7196)
Correct for Detector Non-linearity: No (USB2E7196)
Correct for Stray Light: No (USB2E7196)
Number of Pixels in Processed Spectrum: 2048
>>>>>Begin Processed Spectral Data<<<<<
339.09	0.00
339.48	215.64
339.86	216.45
340.24	217.97
340.63	219.35
341.01	221.51
341.39	221.98
341.78	223.29
342.16	224.62
342.54	224.56
342.93	213.38
343.31	224.15
343.69	224.67
344.07	225.12
344.46	225.53
344.84	225.93
345.22	226.19
345.60	226.45
345.99	226.65
346.37	226.78
346.75	226.89
347.13	226.95
347.52	227.00
347.90	227.09
348.28	227.09
348.66	227.13
349.05	227.15
349.43	227.21
349.81	227.24
350.19	227.28
350.57	227.33
350.96	227.38
351.34	227.48
351.72	227.52
352.10	227.62
352.48	227.73
352.87	227.74
353.25	227.78
353.63	227.84
354.01	227.87
354.39	227.92
354.77	228.00
355.15	228.08
355.54	228.14
355.92	228.17
356.30	228.23
356.68	228.36
357.06	228.46
357.44	228.50
357.82	228.56
358.20	228.61
358.58	228.68
358.97	228.74
359.35	228.83
359.73	228.92
360.11	228.99
360.49	229.06
360.87	229.11
361.25	229.18
361.63	229.22
362.01	229.29
362.39	229.34
362.77	229.38
363.15	229.40
363.53	229.45
363.91	229.46
364.29	229.49
364.67	229.41
365.05	229.39
365.43	229.41
365.81	229.44
366.19	229.49
366.57	229.50
366.95	229.51
367.33	229.45
367.71	229.46
368.09	229.45
368.47	229.40
368.85	229.39
369.23	229.40
369.61	229.35
369.99	229.34
370.37	229.28
370.75	229.29
371.13	229.26
371.51	229.20
371.89	229.16
372.27	229.09
372.65	229.06
373.03	228.98
373.41	228.88
373.78	228.81
374.16	228.67
374.54	228.61
374.92	228.52
375.30	228.46
375.68	228.36
376.06	228.30
376.44	228.23
376.82	228.15
377.19	228.05
377.57	227.98
377.95	227.84
378.33	227.76
378.71	227.60
379.09	227.51
379.47	227.42
379.84	227.34
380.22	227.26
380.60	227.12
380.98	227.06
381.36	227.03
381.73	226.95
382.11	226.91
382.49	226.81
382.87	226.72
383.25	226.66
383.62	226.70
384.00	226.59
384.38	226.52
384.76	226.47
385.13	226.47
385.51	226.41
385.89	226.38
386.27	226.34
386.64	226.34
387.02	226.30
387.40	226.25
387.78	226.21
388.15	226.19
388.53	226.17
388.91	226.16
389.29	226.10
389.66	226.09
390.04	226.05
390.42	226.08
390.79	226.09
391.17	226.09
391.55	225.96
391.92	225.95
392.30	225.96
392.68	225.96
393.05	225.93
393.43	225.94
393.81	225.98
394.18	226.02
394.56	226.03
394.94	226.12
395.31	226.15
395.69	226.20
396.06	226.27
396.44	226.33
396.82	226.35
397.19	226.47
397.57	226.54
397.95	226.61
398.32	226.68
398.70	226.74
399.07	226.84
399.45	226.93
399.82	227.00
400.20	227.08
400.58	227.17
400.95	227.25
401.33	227.39
401.70	227.56
402.08	227.65
402.45	227.76
402.83	227.88
403.20	227.99
403.58	228.12
403.95	228.28
404.33	228.43
404.71	228.59
405.08	228.76
405.46	228.88
405.83	229.06
406.21	229.20
406.58	229.40
406.96	229.56
407.33	229.75
407.70	229.98
408.08	230.28
408.45	230.50
408.83	230.76
409.20	230.97
409.58	231.15
409.95	231.42
410.33	231.69
410.70	231.93
411.08	232.23
411.45	232.52
411.82	232.80
412.20	233.13
412.57	233.55
412.95	233.86
413.32	234.30
413.69	234.70
414.07	235.14
414.44	235.56
414.82	236.03
415.19	236.57
415.56	237.09
415.94	237.62
416.31	238.26
416.68	238.85
417.06	239.56
417.43	240.23
417.81	241.00
418.18	241.78
418.55	242.62
418.93	243.49
419.30	244.38
419.67	245.36
420.04	246.33
420.42	247.30
420.79	248.47
421.16	249.61
421.54	250.79
421.91	252.02
422.28	253.28
422.66	254.65
423.03	255.99
423.40	257.32
423.77	258.71
424.15	260.06
424.52	261.53
424.89	263.11
425.26	264.65
425.64	266.03
426.01	267.63
426.38	269.28
426.75	270.98
427.13	272.72
427.50	274.50
427.87	276.32
428.24	278.19
428.61	279.95
428.99	281.90
429.36	284.01
429.73	286.04
430.10	288.08
430.47	290.08
430.85	292.17
431.22	294.43
431.59	296.78
431.96	299.09
432.33	301.63
432.70	304.05
433.08	306.94
433.45	309.60
433.82	312.20
434.19	315.09
434.56	317.89
434.93	320.52
435.30	323.14
435.68	326.05
436.05	328.88
436.42	331.68
436.79	334.20
437.16	336.93
437.53	339.74
437.90	342.59
438.27	345.36
438.64	348.24
439.01	350.85
439.38	353.14
439.75	355.36
440.13	357.86
440.50	360.14
440.87	361.97
441.24	363.96
441.61	366.14
441.98	367.63
442.35	369.47
442.72	371.35
443.09	373.19
443.46	374.26
443.83	374.86
444.20	375.34
444.57	376.13
444.94	376.36
445.31	376.73
445.68	377.08
446.05	377.11
446.42	376.69
446.79	376.27
447.16	375.84
447.53	375.53
447.90	374.36
448.27	373.22
448.64	371.64
449.01	370.50
449.37	368.52
449.74	366.61
450.11	364.34
450.48	361.88
450.85	359.31
451.22	357.15
451.59	355.14
451.96	353.17
452.33	350.61
452.70	348.33
453.07	345.51
453.43	342.59
453.80	339.86
454.17	337.17
454.54	334.67
454.91	331.92
455.28	329.21
455.65	326.68
456.02	324.23
456.38	322.06
456.75	319.36
457.12	317.11
457.49	314.88
457.86	312.67
458.23	310.80
458.59	308.73
458.96	306.58
459.33	304.71
459.70	302.88
460.07	301.42
460.43	299.63
460.80	297.99
461.17	296.57
461.54	295.06
461.91	293.66
462.27	292.15
462.64	290.89
463.01	289.51
463.38	288.19
463.74	286.83
464.11	285.66
464.48	284.65
464.85	283.52
465.21	282.63
465.58	281.72
465.95	280.60
466.32	279.73
466.68	278.85
467.05	277.93
467.42	277.02
467.78	275.99
468.15	275.09
468.52	274.38
468.88	273.46
469.25	272.68
469.62	272.01
469.98	271.31
470.35	270.66
470.72	270.05
471.08	269.38
471.45	268.81
471.82	268.22
472.18	267.61
472.55	267.14
472.92	266.56
473.28	266.06
473.65	265.59
474.02	265.10
474.38	264.70
474.75	264.36
475.11	264.04
475.48	263.79
475.85	263.59
476.21	263.38
476.58	263.18
476.94	263.03
477.31	262.83
477.67	262.65
478.04	262.52
478.41	262.44
478.77	262.48
479.14	262.40
479.50	262.41
479.87	262.48
480.23	262.55
480.60	262.65
480.96	262.77
481.33	262.96
481.69	263.17
482.06	263.38
482.42	263.57
482.79	263.79
483.15	264.12
483.52	264.48
483.88	264.86
484.25	265.26
484.61	265.66
484.98	266.15
485.34	266.77
485.71	267.37
486.07	268.01
486.44	268.59
486.80	269.35
487.17	270.04
487.53	270.84
487.90	271.70
488.26	272.64
488.62	273.62
488.99	274.61
489.35	275.68
489.72	276.79
490.08	278.02
490.44	279.26
490.81	280.56
491.17	281.91
491.54	283.36
491.90	284.90
492.26	286.56
492.63	288.28
492.99	290.04
493.36	291.89
493.72	293.92
494.08	296.02
494.45	298.27
494.81	300.65
495.17	303.05
495.54	305.62
495.90	308.31
496.26	311.15
496.63	314.13
496.99	317.26
497.35	320.52
497.72	323.88
498.08	327.40
498.44	331.11
498.80	335.03
499.17	339.03
499.53	343.19
499.89	347.56
500.26	352.05
500.62	356.73
500.98	361.72
501.34	366.80
501.71	372.14
502.07	377.51
502.43	383.12
502.79	389.00
503.16	395.00
503.52	401.23
503.88	407.63
504.24	414.23
504.60	421.08
504.97	428.16
505.33	435.45
505.69	443.11
506.05	450.87
506.41	458.72
506.78	466.90
507.14	475.35
507.50	484.09
507.86	493.08
508.22	502.24
508.59	511.42
508.95	520.99
509.31	530.76
509.67	540.81
510.03	551.11
510.39	561.56
510.75	572.38
511.12	583.33
511.48	594.57
511.84	605.94
512.20	617.42
512.56	629.43
512.92	641.61
513.28	653.88
513.64	666.33
514.00	678.99
514.37	691.93
514.73	704.94
515.09	717.97
515.45	731.26
515.81	744.81
516.17	758.79
516.53	772.86
516.89	787.00
517.25	801.29
517.61	815.79
517.97	830.30
518.33	844.76
518.69	859.50
519.05	874.57
519.41	889.80
519.77	905.37
520.13	920.78
520.49	936.18
520.85	951.74
521.21	967.53
521.57	983.90
521.93	999.78
522.29	1016.23
522.65	1032.54
523.01	1048.87
523.37	1064.94
523.73	1081.18
524.09	1097.32
524.45	1113.74
524.81	1130.40
525.17	1147.16
525.53	1164.24
525.89	1181.22
526.25	1198.11
526.61	1214.38
526.97	1231.24
527.33	1247.81
527.68	1264.52
528.04	1281.12
528.40	1297.81
528.76	1314.93
529.12	1331.58
529.48	1348.44
529.84	1364.55
530.20	1381.21
530.56	1398.27
530.91	1415.75
531.27	1432.54
531.63	1449.20
531.99	1465.79
532.35	1481.93
532.71	1497.94
533.07	1514.19
533.42	1530.02
533.78	1546.16
534.14	1562.61
534.50	1577.98
534.86	1593.92
535.21	1609.11
535.57	1625.17
535.93	1640.79
536.29	1655.65
536.65	1670.89
537.00	1685.91
537.36	1701.34
537.72	1715.86
538.08	1730.38
538.44	1744.33
538.79	1758.37
539.15	1772.20
539.51	1786.13
539.87	1800.53
540.22	1814.31
540.58	1827.97
540.94	1841.52
541.29	1854.50
541.65	1867.37
542.01	1880.76
542.37	1893.09
542.72	1905.68
543.08	1917.50
543.44	1929.89
543.79	1941.12
544.15	1951.98
544.51	1963.50
544.87	1974.55
545.22	1985.50
545.58	1995.69
545.94	2005.46
546.29	2015.26
546.65	2024.96
547.01	2034.18
547.36	2042.92
547.72	2051.42
548.07	2059.51
548.43	2067.73
548.79	2075.78
549.14	2083.25
549.50	2090.50
549.86	2098.28
550.21	2105.57
550.57	2112.86
550.92	2119.41
551.28	2126.65
551.64	2133.84
551.99	2140.41
552.35	2146.55
552.70	2152.56
553.06	2158.49
553.41	2164.84
553.77	2170.79
554.13	2176.88
554.48	2182.87
554.84	2188.20
555.19	2193.60
555.55	2198.61
555.90	2203.02
556.26	2207.91
556.61	2212.59
556.97	2216.86
557.32	2221.05
557.68	2225.19
558.03	2229.35
558.39	2233.05
558.74	2237.56
559.10	2241.38
559.45	2244.84
559.81	2249.04
560.16	2252.91
560.52	2256.19
560.87	2259.60
561.23	2262.23
561.58	2265.10
561.94	2267.71
562.29	2270.14
562.64	2272.68
563.00	2275.40
563.35	2278.83
563.71	2281.80
564.06	2284.87
564.42	2287.74
564.77	2289.91
565.12	2291.91
565.48	2293.64
565.83	2295.48
566.19	2296.61
566.54	2297.35
566.89	2298.40
567.25	2298.86
567.60	2300.05
567.96	2301.52
568.31	2302.20
568.66	2303.30
569.02	2303.81
569.37	2304.02
569.72	2304.69
570.08	2304.56
570.43	2304.34
570.78	2303.51
571.14	2301.99
571.49	2300.56
571.84	2300.10
572.20	2298.88
572.55	2297.86
572.90	2296.19
573.26	2294.55
573.61	2292.77
573.96	2290.91
574.31	2287.85
574.67	2284.55
575.02	2280.79
575.37	2277.24
575.72	2273.28
576.08	2269.92
576.43	2266.63
576.78	2262.80
577.13	2259.61
577.49	2256.53
577.84	2253.00
578.19	2249.30
578.54	2245.44
578.90	2241.17
579.25	2235.44
579.60	2230.50
579.95	2225.36
580.30	2220.36
580.66	2215.18
581.01	2210.00
581.36	2205.00
581.71	2200.67
582.06	2196.20
582.42	2191.68
582.77	2186.44
583.12	2181.79
583.47	2176.78
583.82	2171.52
584.17	2166.22
584.53	2160.57
584.88	2154.73
585.23	2148.78
585.58	2143.30
585.93	2137.63
586.28	2132.74
586.63	2127.61
586.98	2122.40
587.34	2117.62
587.69	2112.53
588.04	2107.06
588.39	2101.45
588.74	2094.83
589.09	2088.51
589.44	2081.74
589.79	2075.62
590.14	2069.78
590.49	2062.97
590.84	2056.54
591.19	2050.45
591.54	2043.92
591.89	2036.38
592.25	2029.50
592.60	2022.22
592.95	2014.28
593.30	2007.00
593.65	1999.30
594.00	1992.25
594.35	1984.87
594.70	1976.71
595.05	1969.34
595.40	1962.14
595.75	1954.49
596.10	1948.17
596.45	1941.41
596.80	1935.17
597.15	1928.47
597.50	1921.31
597.85	1914.92
598.19	1908.18
598.54	1900.95
598.89	1894.22
599.24	1888.31
599.59	1881.50
599.94	1875.17
600.29	1868.85
600.64	1862.20
600.99	1854.74
601.34	1847.66
601.69	1840.58
602.04	1833.60
602.39	1826.28
602.74	1819.22
603.08	1812.46
603.43	1805.77
603.78	1798.42
604.13	1791.07
604.48	1783.60
604.83	1776.90
605.18	1769.86
605.53	1761.73
605.87	1753.72
606.22	1746.47
606.57	1738.46
606.92	1731.22
607.27	1724.00
607.62	1716.98
607.96	1709.62
608.31	1702.88
608.66	1695.24
609.01	1687.81
609.36	1680.34
609.70	1672.36
610.05	1664.36
610.40	1656.58
610.75	1648.24
611.10	1640.73
611.44	1632.49
611.79	1624.58
612.14	1615.87
612.49	1606.71
612.83	1598.54
613.18	1590.47
613.53	1582.33
613.88	1573.77
614.22	1565.42
614.57	1556.95
614.92	1549.08
615.27	1541.48
615.61	1533.28
615.96	1525.41
616.31	1517.82
616.65	1510.35
617.00	1502.71
617.35	1495.03
617.70	1486.67
618.04	1478.07
618.39	1469.76
618.74	1462.12
619.08	1453.99
619.43	1446.50
619.78	1439.68
620.12	1432.42
620.47	1424.85
620.82	1416.73
621.16	1409.48
621.51	1402.09
621.85	1394.52
622.20	1386.12
622.55	1377.87
622.89	1370.05
623.24	1362.45
623.59	1355.14
623.93	1347.74
624.28	1340.67
624.62	1333.20
624.97	1326.17
625.32	1319.56
625.66	1312.59
626.01	1305.36
626.35	1297.82
626.70	1290.05
627.04	1282.43
627.39	1274.76
627.73	1267.49
628.08	1260.63
628.43	1253.21
628.77	1245.77
629.12	1238.19
629.46	1231.06
629.81	1223.71
630.15	1216.49
630.50	1209.10
630.84	1200.87
631.19	1192.94
631.53	1185.42
631.88	1177.91
632.22	1170.28
632.57	1163.10
632.91	1155.69
633.26	1148.24
633.60	1140.93
633.95	1133.86
634.29	1126.75
634.64	1120.06
634.98	1112.72
635.32	1105.59
635.67	1099.13
636.01	1092.54
636.36	1085.75
636.70	1079.19
637.05	1072.73
637.39	1066.34
637.73	1059.87
638.08	1054.01
638.42	1048.07
638.77	1041.65
639.11	1035.01
639.45	1028.72
639.80	1021.99
640.14	1015.44
640.49	1009.09
640.83	1002.88
641.17	996.71
641.52	990.51
641.86	984.15
642.20	978.40
642.55	972.15
642.89	965.65
643.23	959.15
643.58	953.48
643.92	947.35
644.26	941.20
644.61	935.28
644.95	929.24
645.29	922.65
645.64	915.96
645.98	909.61
646.32	903.87
646.66	897.94
647.01	892.10
647.35	886.52
647.69	880.67
648.04	875.21
648.38	869.33
648.72	863.25
649.06	857.21
649.41	851.20
649.75	845.21
650.09	839.31
650.43	833.54
650.78	827.33
651.12	821.34
651.46	815.65
651.80	809.78
652.14	804.44
652.49	799.12
652.83	794.03
653.17	788.38
653.51	782.66
653.85	777.13
654.20	771.59
654.54	765.60
654.88	759.91
655.22	753.98
655.56	748.30
655.90	742.88
656.25	737.69
656.59	732.38
656.93	727.30
657.27	722.11
657.61	716.71
657.95	711.65
658.29	706.53
658.64	701.33
658.98	696.13
659.32	690.64
659.66	685.44
660.00	680.13
660.34	675.25
660.68	670.41
661.02	665.46
661.36	660.77
661.70	656.23
662.05	651.87
662.39	647.52
662.73	643.16
663.07	638.84
663.41	634.39
663.75	629.91
664.09	625.37
664.43	621.05
664.77	616.95
665.11	612.71
665.45	608.65
665.79	604.63
666.13	600.52
666.47	596.48
666.81	592.30
667.15	588.14
667.49	584.23
667.83	580.42
668.17	576.50
668.51	572.42
668.85	568.46
669.19	564.65
669.53	560.84
669.87	556.96
670.21	553.30
670.55	549.64
670.89	546.24
671.23	542.77
671.57	539.28
671.91	535.74
672.25	532.32
672.58	528.85
672.92	525.45
673.26	522.28
673.60	519.14
673.94	516.06
674.28	513.23
674.62	510.35
674.96	507.21
675.30	504.28
675.64	501.38
675.97	498.69
676.31	495.83
676.65	492.96
676.99	490.30
677.33	487.45
677.67	484.68
678.01	481.66
678.34	478.72
678.68	475.87
679.02	473.10
679.36	470.35
679.70	467.60
680.04	464.84
680.37	462.00
680.71	459.24
681.05	456.66
681.39	453.91
681.73	451.23
682.06	448.71
682.40	446.21
682.74	443.71
683.08	441.11
683.42	438.53
683.75	436.06
684.09	433.50
684.43	431.01
684.77	428.54
685.10	426.18
685.44	423.96
685.78	421.68
686.12	419.45
686.45	417.14
686.79	414.91
687.13	412.70
687.46	410.54
687.80	408.39
688.14	406.17
688.48	404.12
688.81	401.89
689.15	399.79
689.49	397.70
689.82	395.60
690.16	393.52
690.50	391.58
690.83	389.58
691.17	387.66
691.51	385.82
691.84	384.00
692.18	382.11
692.52	380.11
692.85	378.19
693.19	376.30
693.52	374.49
693.86	372.69
694.20	370.91
694.53	369.14
694.87	367.33
695.21	365.59
695.54	363.80
695.88	362.14
696.21	360.45
696.55	358.74
696.88	357.11
697.22	355.48
697.56	353.85
697.89	352.23
698.23	350.59
698.56	348.94
698.90	347.31
699.23	345.68
699.57	344.14
699.90	342.61
700.24	341.03
700.58	339.51
700.91	338.02
701.25	336.64
701.58	335.24
701.92	333.91
702.25	332.57
702.59	331.23
702.92	329.86
703.26	328.53
703.59	327.30
703.93	326.12
704.26	324.91
704.60	323.63
704.93	322.39
705.26	321.13
705.60	320.02
705.93	318.88
706.27	317.85
706.60	316.77
706.94	315.68
707.27	314.59
707.61	313.56
707.94	312.56
708.27	311.44
708.61	310.40
708.94	309.38
709.28	308.37
709.61	307.37
709.94	306.45
710.28	305.48
710.61	304.51
710.95	303.42
711.28	302.51
711.61	301.58
711.95	300.67
712.28	299.72
712.61	298.72
712.95	297.79
713.28	296.95
713.61	296.09
713.95	295.25
714.28	294.45
714.61	293.61
714.95	292.72
715.28	291.84
715.61	290.96
715.95	290.10
716.28	289.26
716.61	288.45
716.95	287.63
717.28	286.87
717.61	286.06
717.94	285.34
718.28	284.53
718.61	283.84
718.94	283.15
719.27	282.56
719.61	281.91
719.94	281.26
720.27	280.54
720.60	279.89
720.94	279.25
721.27	278.65
721.60	278.05
721.93	277.49
722.27	276.97
722.60	276.43
722.93	275.87
723.26	275.33
723.59	274.78
723.93	274.25
724.26	273.74
724.59	273.21
724.92	272.69
725.25	272.16
725.59	271.60
725.92	271.10
726.25	270.57
726.58	270.10
726.91	269.62
727.24	269.17
727.57	268.72
727.91	268.21
728.24	267.73
728.57	267.24
728.90	266.78
729.23	266.28
729.56	265.82
729.89	265.34
730.22	264.85
730.55	264.40
730.89	263.96
731.22	263.46
731.55	263.01
731.88	262.59
732.21	262.20
732.54	261.79
732.87	261.35
733.20	260.97
733.53	260.55
733.86	260.19
734.19	259.76
734.52	259.34
734.85	259.07
735.18	258.65
735.51	258.31
735.84	257.92
736.17	257.59
736.50	257.19
736.83	256.97
737.16	256.69
737.49	256.34
737.82	255.97
738.15	255.67
738.48	255.34
738.81	255.03
739.14	254.66
739.47	254.33
739.80	254.02
740.13	253.70
740.46	253.39
740.79	253.04
741.12	252.77
741.45	252.47
741.78	252.09
742.11	251.81
742.44	251.48
742.77	251.19
743.10	250.88
743.43	250.60
743.75	250.21
744.08	250.05
744.41	249.79
744.74	249.56
745.07	249.30
745.40	249.06
745.73	248.85
746.06	248.63
746.39	248.39
746.71	248.13
747.04	247.89
747.37	247.62
747.70	247.38
748.03	247.14
748.36	246.90
748.68	246.72
749.01	246.50
749.34	246.27
749.67	246.05
750.00	245.88
750.33	245.72
750.65	245.52
750.98	245.16
751.31	244.94
751.64	244.73
751.97	244.56
752.29	244.33
752.62	244.06
752.95	243.84
753.28	243.65
753.60	243.48
753.93	243.30
754.26	243.12
754.59	242.91
754.91	242.69
755.24	242.50
755.57	242.28
755.90	242.06
756.22	241.87
756.55	241.67
756.88	241.48
757.20	241.24
757.53	241.04
757.86	240.89
758.19	240.73
758.51	240.54
758.84	240.34
759.17	240.18
759.49	240.03
759.82	239.90
760.15	239.74
760.47	239.61
760.80	239.43
761.13	239.28
761.45	239.12
761.78	238.96
762.11	238.84
762.43	238.66
762.76	238.52
763.08	238.41
763.41	238.31
763.74	238.15
764.06	238.04
764.39	237.92
764.71	237.79
765.04	237.60
765.37	237.49
765.69	237.35
766.02	237.23
766.34	237.09
766.67	236.93
767.00	236.83
767.32	236.74
767.65	236.68
767.97	236.58
768.30	236.44
768.62	236.35
768.95	236.22
769.27	236.12
769.60	236.04
769.92	235.90
770.25	235.74
770.57	235.62
770.90	235.51
771.22	235.39
771.55	235.28
771.87	235.18
772.20	235.07
772.52	235.04
772.85	235.04
773.17	234.94
773.50	234.83
773.82	234.72
774.15	234.58
774.47	234.44
774.80	234.31
775.12	234.25
775.45	234.12
775.77	234.08
776.09	234.01
776.42	233.89
776.74	233.83
777.07	233.78
777.39	233.68
777.72	233.57
778.04	233.52
778.36	233.44
778.69	233.40
779.01	233.30
779.33	233.13
779.66	232.95
779.98	232.87
780.31	232.80
780.63	232.76
780.95	232.71
781.28	232.64
781.60	232.61
781.92	232.56
782.25	232.54
782.57	232.42
782.89	232.36
783.22	232.29
783.54	232.21
783.86	232.16
784.19	232.11
784.51	232.11
784.83	232.04
785.16	231.97
785.48	231.93
785.80	231.89
786.12	231.88
786.45	231.83
786.77	231.83
787.09	231.78
787.42	231.71
787.74	231.67
788.06	231.62
788.38	231.53
788.71	231.51
789.03	231.46
789.35	231.44
789.67	231.39
789.99	231.37
790.32	231.28
790.64	231.24
790.96	231.28
791.28	231.19
791.61	231.15
791.93	231.14
792.25	231.07
792.57	231.13
792.89	231.06
793.21	231.03
793.54	230.95
793.86	230.91
794.18	230.83
794.50	230.72
794.82	230.70
795.14	230.68
795.47	230.63
795.79	230.60
796.11	230.56
796.43	230.52
796.75	230.51
797.07	230.54
797.39	230.50
797.71	230.38
798.04	230.39
798.36	230.37
798.68	230.33
799.00	230.35
799.32	230.27
799.64	230.27
799.96	230.22
800.28	230.23
800.60	230.17
800.92	230.19
801.24	230.17
801.56	230.15
801.89	230.11
802.21	230.11
802.53	230.03
802.85	229.99
803.17	230.02
803.49	229.95
803.81	229.90
804.13	229.85
804.45	229.84
804.77	229.80
805.09	229.72
805.41	229.68
805.73	229.61
806.05	229.56
806.37	229.53
806.69	229.54
807.01	229.49
807.33	229.49
807.65	229.41
807.97	229.42
808.28	229.36
808.60	229.36
808.92	229.28
809.24	229.34
809.56	229.31
809.88	229.22
810.20	229.21
810.52	229.21
810.84	229.18
811.16	229.13
811.48	229.09
811.80	229.14
812.12	229.08
812.43	229.08
812.75	229.04
813.07	229.00
813.39	228.94
813.71	228.89
814.03	228.85
814.35	228.87
814.67	228.80
814.98	228.78
815.30	228.74
815.62	228.71
815.94	228.61
816.26	228.60
816.58	228.55
816.89	228.51
817.21	228.44
817.53	228.43
817.85	228.43
818.17	228.42
818.48	228.35
818.80	228.37
819.12	228.33
819.44	228.31
819.76	228.30
820.07	228.27
820.39	228.29
820.71	228.28
821.03	228.22
821.34	228.25
821.66	228.26
821.98	228.24
822.30	228.24
822.61	228.32
822.93	228.29
823.25	228.31
823.57	228.31
823.88	228.34
824.20	228.34
824.52	228.34
824.83	228.35
825.15	228.32
825.47	228.31
825.79	228.30
826.10	228.29
826.42	228.26
826.74	228.30
827.05	228.30
827.37	228.31
827.69	228.33
828.00	228.29
828.32	228.28
828.64	228.29
828.95	228.34
829.27	228.28
829.58	228.29
829.90	228.28
830.22	228.33
830.53	228.29
830.85	228.27
831.17	228.26
831.48	228.24
831.80	228.25
832.11	228.26
832.43	228.27
832.75	228.25
833.06	228.30
833.38	228.25
833.69	228.22
834.01	228.19
834.32	228.19
834.64	228.16
834.96	228.14
835.27	228.13
835.59	228.10
835.90	228.06
836.22	228.03
836.53	228.00
836.85	227.94
837.16	228.06
837.48	228.06
837.79	228.09
838.11	228.09
838.42	228.10
838.74	228.12
839.05	228.12
839.37	228.09
839.68	228.05
840.00	228.05
840.31	228.02
840.63	228.02
840.94	228.03
841.26	228.02
841.57	228.02
841.88	228.03
842.20	227.97
842.51	227.97
842.83	227.98
843.14	228.08
843.46	228.09
843.77	228.01
844.08	227.97
844.40	227.90
844.71	227.86
845.03	227.84
845.34	227.79
845.65	227.76
845.97	227.77
846.28	227.77
846.60	227.76
846.91	227.77
847.22	227.76
847.54	227.78
847.85	227.76
848.16	227.77
848.48	227.71
848.79	227.74
849.10	227.73
849.42	227.74
849.73	227.66
850.04	227.61
850.36	227.54
850.67	227.57
850.98	227.59
851.30	227.60
851.61	227.55
851.92	227.54
852.23	227.58
852.55	227.58
852.86	227.55
853.17	227.58
853.49	227.58
853.80	227.59
854.11	227.58
854.42	227.59
854.74	227.55
855.05	227.57
855.36	227.53
855.67	227.54
855.99	227.53
856.30	227.61
856.61	227.61
856.92	227.62
857.23	227.62
857.55	227.60
857.86	227.61
858.17	227.64
858.48	227.64
858.79	227.61
859.11	227.61
859.42	227.63
859.73	227.59
860.04	227.59
860.35	227.58
860.66	227.54
860.98	227.55
861.29	227.59
861.60	227.58
861.91	227.62
862.22	227.62
862.53	227.61
862.84	227.51
863.16	227.55
863.47	227.55
863.78	227.52
864.09	227.51
864.40	227.49
864.71	227.47
865.02	227.46
865.33	227.45
865.64	227.45
865.95	227.45
866.27	227.52
866.58	227.50
866.89	227.49
867.20	227.48
867.51	227.49
867.82	227.45
868.13	227.48
868.44	227.47
868.75	227.47
869.06	227.49
869.37	227.49
869.68	227.46
869.99	227.47
870.30	227.46
870.61	227.50
870.92	227.52
871.23	227.52
871.54	227.57
871.85	227.57
872.16	227.55
872.47	227.51
872.78	227.45
873.09	227.46
873.40	227.46
873.71	227.50
874.02	227.50
874.33	227.50
874.64	227.49
874.95	227.50
875.26	227.45
875.56	227.42
875.87	227.40
876.18	227.43
876.49	227.51
876.80	227.52
877.11	227.45
877.42	227.44
877.73	227.41
878.04	227.37
878.35	227.36
878.66	227.37
878.96	227.40
879.27	227.40
879.58	227.39
879.89	227.36
880.20	227.35
880.51	227.33
880.82	227.33
881.12	227.33
881.43	227.27
881.74	227.31
882.05	227.31
882.36	227.31
882.67	227.31
882.97	227.21
883.28	227.20
883.59	227.23
883.90	227.25
884.21	227.28
884.51	227.26
884.82	227.21
885.13	227.22
885.44	227.21
885.74	227.20
886.05	227.19
886.36	227.18
886.67	227.13
886.98	227.16
887.28	227.14
887.59	227.13
887.90	227.15
888.20	227.11
888.51	227.12
888.82	227.12
889.13	227.06
889.43	227.19
889.74	227.14
890.05	227.13
890.35	227.11
890.66	227.08
890.97	227.07
891.28	227.08
891.58	227.09
891.89	227.07
892.20	227.06
892.50	227.05
892.81	227.10
893.12	227.12
893.42	227.07
893.73	227.09
894.04	227.06
894.34	227.08
894.65	227.06
894.95	227.05
895.26	227.01
895.57	227.10
895.87	226.95
896.18	226.98
896.48	226.98
896.79	226.97
897.10	227.01
897.40	227.03
897.71	227.05
898.01	227.00
898.32	227.03
898.63	227.03
898.93	227.03
899.24	226.99
899.54	226.99
899.85	227.02
900.15	227.03
900.46	227.03
900.76	227.00
901.07	227.01
901.38	227.00
901.68	227.02
901.99	226.98
902.29	227.03
902.60	227.05
902.90	227.05
903.21	227.04
903.51	227.04
903.82	227.06
904.12	227.07
904.43	227.11
904.73	227.11
905.03	227.13
905.34	227.25
905.64	227.25
905.95	227.25
906.25	227.25
906.56	227.25
906.86	227.26
907.17	227.30
907.47	227.33
907.77	227.35
908.08	227.37
908.38	227.36
908.69	227.36
908.99	227.39
909.30	227.43
909.60	227.46
909.90	227.49
910.21	227.47
910.51	227.45
910.81	227.46
911.12	227.46
911.42	227.47
911.73	227.36
912.03	227.39
912.33	227.39
912.64	227.41
912.94	227.40
913.24	227.39
913.55	227.38
913.85	227.37
914.15	227.34
914.46	227.36
914.76	227.37
915.06	227.36
915.37	227.33
915.67	227.29
915.97	227.29
916.27	227.24
916.58	227.26
916.88	227.25
917.18	227.21
917.49	227.29
917.79	227.28
918.09	227.28
918.39	227.31
918.70	227.28
919.00	227.27
919.30	227.30
919.60	227.30
919.91	227.27
920.21	227.30
920.51	227.33
920.81	227.29
921.12	227.30
921.42	227.30
921.72	227.30
922.02	227.29
922.32	227.29
922.63	227.31
922.93	227.35
923.23	227.33
923.53	227.31
923.83	227.23
924.13	227.23
924.44	227.25
924.74	227.24
925.04	227.29
925.34	227.26
925.64	227.22
925.94	227.22
926.24	227.25
926.55	227.22
926.85	227.24
927.15	227.27
927.45	227.27
927.75	227.26
928.05	227.27
928.35	227.27
928.65	227.29
928.95	227.32
929.26	227.26
929.56	227.28
929.86	227.30
930.16	227.29
930.46	227.27
930.76	227.27
931.06	227.23
931.36	227.22
931.66	227.23
931.96	227.23
932.26	227.23
932.56	227.22
932.86	227.24
933.16	227.23
933.46	227.18
933.76	227.18
934.06	227.18
934.36	227.20
934.66	227.20
934.96	227.19
935.26	227.14
935.56	227.13
935.86	227.12
936.16	227.12
936.46	227.12
936.76	227.12
937.06	227.06
937.36	227.05
937.66	227.05
937.96	227.05
938.26	227.01
938.56	226.99
938.86	226.95
939.16	226.94
939.46	226.94
939.76	226.97
940.06	226.92
940.35	226.91
940.65	226.87
940.95	226.89
941.25	226.84
941.55	226.86
941.85	226.87
942.15	226.88
942.45	226.91
942.75	226.89
943.04	226.90
943.34	226.95
943.64	226.95
943.94	226.91
944.24	226.89
944.54	226.90
944.84	226.89
945.13	226.92
945.43	226.91
945.73	226.88
946.03	226.86
946.33	226.86
946.62	226.84
946.92	226.81
947.22	226.80
947.52	226.80
947.82	226.82
948.11	226.78
948.41	226.76
948.71	226.73
949.01	226.77
949.31	226.75
949.60	226.73
949.90	226.73
950.20	226.74
950.50	226.77
950.79	226.76
951.09	226.82
951.39	226.81
951.69	226.80
951.98	226.85
952.28	226.87
952.58	226.87
952.87	226.87
953.17	226.87
953.47	226.85
953.76	226.86
954.06	226.83
954.36	226.88
954.66	226.90
954.95	226.95
955.25	226.91
955.55	226.92
955.84	226.94
956.14	226.96
956.44	226.97
956.73	226.97
957.03	226.97
957.32	226.93
957.62	226.91
957.92	226.94
958.21	226.92
958.51	227.01
958.81	227.04
959.10	227.08
959.40	227.14
959.69	227.18
959.99	227.20
960.29	227.20
960.58	227.19
960.88	227.20
961.17	227.17
961.47	227.22
961.76	227.22
962.06	227.24
962.36	227.21
962.65	227.19
962.95	227.17
963.24	227.20
963.54	227.22
963.83	227.26
964.13	227.26
964.42	227.21
964.72	227.13
965.01	227.13
965.31	227.10
965.60	227.07
965.90	227.10
966.19	227.06
966.49	227.06
966.78	227.04
967.08	227.04
967.37	227.05
967.67	227.01
967.96	227.04
968.26	227.00
968.55	227.05
968.85	227.08
969.14	227.09
969.43	227.07
969.73	227.04
970.02	227.00
970.32	226.98
970.61	227.01
970.91	226.98
971.20	226.98
971.49	226.98
971.79	226.99
972.08	226.94
972.38	226.93
972.67	226.94
972.96	226.94
973.26	226.89
973.55	226.91
973.85	226.90
974.14	226.88
974.43	226.89
974.73	226.84
975.02	226.81
975.31	226.79
975.61	226.79
975.90	226.80
976.19	226.80
976.49	226.81
976.78	226.81
977.07	226.78
977.37	226.74
977.66	226.75
977.95	226.74
978.24	226.71
978.54	226.73
978.83	226.72
979.12	226.70
979.42	226.73
979.71	226.69
980.00	226.71
980.29	226.67
980.59	226.64
980.88	226.67
981.17	226.67
981.46	226.69
981.76	226.70
982.05	226.76
982.34	226.76
982.63	226.76
982.93	226.77
983.22	226.83
983.51	226.85
983.80	226.87
984.09	226.87
984.39	226.89
984.68	226.88
984.97	226.88
985.26	226.91
985.55	226.91
985.85	226.89
986.14	226.88
986.43	226.93
986.72	226.95
987.01	226.91
987.30	226.91
987.59	226.92
987.89	226.93
988.18	226.87
988.47	226.86
988.76	226.86
989.05	226.85
989.34	226.87
989.63	226.89
989.92	226.87
990.22	226.85
990.51	226.86
990.80	226.83
991.09	226.85
991.38	226.88
991.67	226.88
991.96	226.90
992.25	226.91
992.54	226.87
992.83	226.91
993.12	226.92
993.41	226.95
993.70	227.00
993.99	226.97
994.28	227.02
994.58	227.06
994.87	227.06
995.16	227.08
995.45	227.06
995.74	227.04
996.03	227.06
996.32	227.09
996.61	227.11
996.90	227.14
997.19	227.14
997.48	227.14
997.77	227.14
998.06	227.17
998.34	227.17
998.63	227.19
998.92	227.18
999.21	227.22
999.50	227.22
999.79	227.17
1000.08	227.21
1000.37	227.19
1000.66	227.15
1000.95	227.17
1001.24	227.17
1001.53	227.14
1001.82	227.14
1002.11	227.10
1002.40	227.12
1002.68	227.16
1002.97	227.24
1003.26	227.24
1003.55	227.21
1003.84	227.20
1004.13	227.20
1004.42	227.21
1004.71	227.23
1004.99	227.18
1005.28	227.16
1005.57	227.12
1005.86	227.12
1006.15	227.07
1006.44	227.08
1006.72	227.10
1007.01	227.10
1007.30	227.09
1007.59	227.11
1007.88	227.08
1008.17	227.09
1008.45	227.05
1008.74	226.99
1009.03	226.93
1009.32	226.89
1009.60	226.85
1009.89	226.85
1010.18	226.82
1010.47	226.77
1010.76	226.75
1011.04	226.76
1011.33	226.74
1011.62	226.76
1011.91	226.75
1012.19	226.73
1012.48	226.69
1012.77	226.68
1013.05	226.71
1013.34	226.71
1013.63	226.68
1013.92	226.69
1014.20	226.66
1014.49	226.63
1014.78	226.61
1015.06	226.56
1015.35	226.59
1015.64	226.61
1015.92	226.62
1016.21	226.60
1016.50	226.64
1016.78	226.64
1017.07	226.66
1017.36	226.68
1017.64	226.67
1017.93	226.68
1018.22	226.71
1018.50	226.72
1018.79	226.70
1019.08	226.62
1019.36	226.63
1019.65	226.61
1019.93	226.65
1020.22	226.69
1020.51	226.76
1020.79	226.76
1021.08	226.78
1021.36	226.49
1021.65	226.32
1021.94	226.36
1022.22	226.83
1022.51	226.03
1022.79	227.39
1023.08	226.85
1023.36	227.82
1023.65	226.70
>>>>>End Processed Spectral Data<<<<<
