SpectraSuite Data File
++++++++++++++++++++++++++++++++++++
Date: Fri Feb 01 15:56:45 EST 2013
User: group
Dark Spectrum Present: No
Reference Spectrum Present: No
Number of Sampled Component Spectra: 1
Spectrometers: USB2E7196
Integration Time (usec): 35000 (USB2E7196)
Spectra Averaged: 100 (USB2E7196)
Boxcar Smoothing: 10 (USB2E7196)
Correct for Electrical Dark: No (USB2E7196)
Strobe/Lamp Enabled: No (USB2E7196)
Correct for Detector Non-linearity: No (USB2E7196)
Correct for Stray Light: No (USB2E7196)
Number of Pixels in Processed Spectrum: 2048
>>>>>Begin Processed Spectral Data<<<<<
339.09	0.00
339.48	215.40
339.86	216.26
340.24	218.18
340.63	218.75
341.01	222.58
341.39	221.94
341.78	223.02
342.16	224.53
342.54	224.73
342.93	213.31
343.31	224.07
343.69	224.59
344.07	225.03
344.46	225.42
344.84	225.80
345.22	225.99
345.60	226.22
345.99	226.38
346.37	226.48
346.75	226.58
347.13	226.64
347.52	226.67
347.90	226.69
348.28	226.70
348.66	226.74
349.05	226.72
349.43	226.76
349.81	226.80
350.19	226.84
350.57	226.87
350.96	226.93
351.34	227.02
351.72	227.09
352.10	227.19
352.48	227.25
352.87	227.30
353.25	227.36
353.63	227.42
354.01	227.51
354.39	227.60
354.77	227.65
355.15	227.71
355.54	227.78
355.92	227.84
356.30	227.91
356.68	228.02
357.06	228.09
357.44	228.12
357.82	228.18
358.20	228.25
358.58	228.29
358.97	228.38
359.35	228.47
359.73	228.54
360.11	228.62
360.49	228.66
360.87	228.72
361.25	228.79
361.63	228.88
362.01	228.91
362.39	228.91
362.77	228.98
363.15	229.03
363.53	229.06
363.91	229.08
364.29	229.09
364.67	229.04
365.05	229.06
365.43	229.07
365.81	229.11
366.19	229.13
366.57	229.16
366.95	229.15
367.33	229.08
367.71	229.08
368.09	229.09
368.47	229.08
368.85	229.06
369.23	229.10
369.61	229.03
369.99	229.04
370.37	229.07
370.75	229.09
371.13	229.00
371.51	228.95
371.89	228.94
372.27	228.91
372.65	228.87
373.03	228.84
373.41	228.81
373.78	228.75
374.16	228.68
374.54	228.63
374.92	228.56
375.30	228.53
375.68	228.44
376.06	228.35
376.44	228.33
376.82	228.25
377.19	228.16
377.57	228.07
377.95	227.98
378.33	227.87
378.71	227.75
379.09	227.76
379.47	227.72
379.84	227.63
380.22	227.55
380.60	227.49
380.98	227.43
381.36	227.35
381.73	227.28
382.11	227.24
382.49	227.16
382.87	227.12
383.25	227.03
383.62	227.09
384.00	227.03
384.38	226.96
384.76	226.93
385.13	226.89
385.51	226.89
385.89	226.83
386.27	226.78
386.64	226.72
387.02	226.65
387.40	226.58
387.78	226.55
388.15	226.54
388.53	226.49
388.91	226.46
389.29	226.41
389.66	226.38
390.04	226.33
390.42	226.33
390.79	226.31
391.17	226.31
391.55	226.19
391.92	226.21
392.30	226.20
392.68	226.17
393.05	226.17
393.43	226.16
393.81	226.18
394.18	226.15
394.56	226.16
394.94	226.16
395.31	226.15
395.69	226.20
396.06	226.23
396.44	226.28
396.82	226.27
397.19	226.38
397.57	226.40
397.95	226.44
398.32	226.43
398.70	226.46
399.07	226.54
399.45	226.58
399.82	226.59
400.20	226.63
400.58	226.71
400.95	226.71
401.33	226.80
401.70	226.91
402.08	227.02
402.45	227.13
402.83	227.27
403.20	227.42
403.58	227.49
403.95	227.57
404.33	227.65
404.71	227.78
405.08	227.96
405.46	228.06
405.83	228.22
406.21	228.38
406.58	228.56
406.96	228.73
407.33	228.90
407.70	229.13
408.08	229.44
408.45	229.64
408.83	229.92
409.20	230.13
409.58	230.35
409.95	230.61
410.33	230.88
410.70	231.10
411.08	231.40
411.45	231.73
411.82	232.05
412.20	232.43
412.57	232.87
412.95	233.14
413.32	233.58
413.69	233.99
414.07	234.43
414.44	234.88
414.82	235.34
415.19	235.91
415.56	236.45
415.94	236.96
416.31	237.61
416.68	238.21
417.06	238.92
417.43	239.58
417.81	240.36
418.18	241.13
418.55	242.02
418.93	242.88
419.30	243.77
419.67	244.74
420.04	245.72
420.42	246.66
420.79	247.87
421.16	248.99
421.54	250.21
421.91	251.42
422.28	252.67
422.66	254.02
423.03	255.34
423.40	256.66
423.77	258.07
424.15	259.49
424.52	261.00
424.89	262.64
425.26	264.20
425.64	265.68
426.01	267.29
426.38	268.92
426.75	270.58
427.13	272.33
427.50	274.11
427.87	276.01
428.24	277.92
428.61	279.62
428.99	281.60
429.36	283.68
429.73	285.79
430.10	287.88
430.47	289.93
430.85	292.02
431.22	294.30
431.59	296.67
431.96	298.91
432.33	301.38
432.70	303.77
433.08	306.58
433.45	309.22
433.82	311.83
434.19	314.70
434.56	317.52
434.93	320.15
435.30	322.73
435.68	325.66
436.05	328.46
436.42	331.29
436.79	333.80
437.16	336.47
437.53	339.30
437.90	342.08
438.27	344.81
438.64	347.59
439.01	350.14
439.38	352.40
439.75	354.59
440.13	357.10
440.50	359.37
440.87	361.20
441.24	363.09
441.61	365.23
441.98	366.69
442.35	368.47
442.72	370.34
443.09	372.18
443.46	373.13
443.83	373.72
444.20	374.22
444.57	375.02
444.94	375.33
445.31	375.64
445.68	375.94
446.05	376.01
446.42	375.70
446.79	375.31
447.16	374.83
447.53	374.50
447.90	373.31
448.27	372.20
448.64	370.63
449.01	369.54
449.37	367.60
449.74	365.75
450.11	363.51
450.48	361.02
450.85	358.51
451.22	356.37
451.59	354.34
451.96	352.41
452.33	349.84
452.70	347.49
453.07	344.66
453.43	341.77
453.80	338.98
454.17	336.24
454.54	333.64
454.91	330.95
455.28	328.29
455.65	325.83
456.02	323.34
456.38	321.17
456.75	318.50
457.12	316.23
457.49	314.00
457.86	311.88
458.23	310.02
458.59	307.97
458.96	305.90
459.33	304.09
459.70	302.22
460.07	300.74
460.43	299.03
460.80	297.42
461.17	296.04
461.54	294.60
461.91	293.25
462.27	291.87
462.64	290.61
463.01	289.24
463.38	287.95
463.74	286.60
464.11	285.48
464.48	284.44
464.85	283.36
465.21	282.51
465.58	281.57
465.95	280.53
466.32	279.59
466.68	278.69
467.05	277.77
467.42	276.89
467.78	275.92
468.15	275.05
468.52	274.41
468.88	273.55
469.25	272.76
469.62	272.09
469.98	271.39
470.35	270.75
470.72	270.18
471.08	269.50
471.45	268.98
471.82	268.40
472.18	267.82
472.55	267.33
472.92	266.80
473.28	266.31
473.65	265.84
474.02	265.40
474.38	264.99
474.75	264.65
475.11	264.30
475.48	264.05
475.85	263.78
476.21	263.53
476.58	263.28
476.94	263.13
477.31	262.96
477.67	262.82
478.04	262.74
478.41	262.64
478.77	262.67
479.14	262.58
479.50	262.60
479.87	262.68
480.23	262.78
480.60	262.83
480.96	262.91
481.33	263.14
481.69	263.33
482.06	263.56
482.42	263.75
482.79	264.01
483.15	264.31
483.52	264.70
483.88	265.04
484.25	265.47
484.61	265.89
484.98	266.36
485.34	266.86
485.71	267.43
486.07	268.06
486.44	268.63
486.80	269.34
487.17	270.06
487.53	270.84
487.90	271.70
488.26	272.65
488.62	273.63
488.99	274.56
489.35	275.61
489.72	276.74
490.08	277.94
490.44	279.17
490.81	280.48
491.17	281.85
491.54	283.34
491.90	284.84
492.26	286.50
492.63	288.22
492.99	290.05
493.36	291.95
493.72	293.98
494.08	296.07
494.45	298.33
494.81	300.72
495.17	303.15
495.54	305.71
495.90	308.38
496.26	311.20
496.63	314.18
496.99	317.34
497.35	320.63
497.72	324.02
498.08	327.54
498.44	331.26
498.80	335.25
499.17	339.26
499.53	343.48
499.89	347.84
500.26	352.35
500.62	357.04
500.98	361.98
501.34	367.07
501.71	372.46
502.07	377.92
502.43	383.53
502.79	389.35
503.16	395.49
503.52	401.75
503.88	408.19
504.24	414.83
504.60	421.75
504.97	428.85
505.33	436.17
505.69	443.92
506.05	451.66
506.41	459.48
506.78	467.70
507.14	476.15
507.50	484.91
507.86	493.94
508.22	503.11
508.59	512.30
508.95	521.92
509.31	531.72
509.67	541.89
510.03	552.18
510.39	562.82
510.75	573.60
511.12	584.51
511.48	595.85
511.84	607.34
512.20	618.82
512.56	630.75
512.92	642.86
513.28	655.15
513.64	667.69
514.00	680.35
514.37	693.30
514.73	706.38
515.09	719.41
515.45	732.72
515.81	746.31
516.17	760.35
516.53	774.48
516.89	788.55
517.25	802.65
517.61	817.25
517.97	831.66
518.33	846.03
518.69	860.79
519.05	875.74
519.41	890.86
519.77	906.38
520.13	921.77
520.49	937.20
520.85	952.64
521.21	968.34
521.57	984.68
521.93	1000.33
522.29	1016.68
522.65	1032.85
523.01	1049.04
523.37	1065.04
523.73	1081.24
524.09	1097.11
524.45	1113.45
524.81	1130.00
525.17	1146.52
525.53	1163.41
525.89	1180.36
526.25	1197.14
526.61	1213.43
526.97	1230.09
527.33	1246.38
527.68	1263.02
528.04	1279.45
528.40	1296.05
528.76	1313.06
529.12	1329.48
529.48	1346.44
529.84	1362.41
530.20	1379.10
530.56	1396.04
530.91	1413.52
531.27	1430.12
531.63	1446.75
531.99	1463.27
532.35	1479.27
532.71	1495.21
533.07	1511.45
533.42	1527.23
533.78	1543.32
534.14	1559.61
534.50	1574.99
534.86	1591.04
535.21	1606.12
535.57	1622.05
535.93	1637.42
536.29	1652.21
536.65	1667.25
537.00	1682.06
537.36	1697.20
537.72	1711.56
538.08	1725.99
538.44	1739.66
538.79	1753.59
539.15	1767.21
539.51	1780.97
539.87	1795.18
540.22	1808.81
540.58	1822.47
540.94	1835.79
541.29	1848.57
541.65	1861.17
542.01	1874.26
542.37	1886.53
542.72	1898.87
543.08	1910.59
543.44	1922.90
543.79	1934.03
544.15	1945.09
544.51	1956.57
544.87	1967.70
545.22	1978.57
545.58	1988.75
545.94	1998.60
546.29	2008.47
546.65	2018.35
547.01	2027.60
547.36	2036.38
547.72	2044.95
548.07	2052.86
548.43	2061.05
548.79	2069.11
549.14	2076.64
549.50	2084.12
549.86	2091.75
550.21	2099.20
550.57	2106.44
550.92	2113.13
551.28	2120.20
551.64	2127.21
551.99	2133.58
552.35	2139.69
552.70	2145.84
553.06	2151.78
553.41	2158.06
553.77	2164.04
554.13	2170.00
554.48	2176.14
554.84	2181.57
555.19	2186.75
555.55	2191.93
555.90	2196.31
556.26	2201.23
556.61	2206.06
556.97	2210.21
557.32	2214.25
557.68	2218.31
558.03	2222.49
558.39	2226.20
558.74	2230.84
559.10	2234.64
559.45	2238.41
559.81	2242.69
560.16	2246.49
560.52	2249.77
560.87	2253.20
561.23	2255.88
561.58	2258.92
561.94	2261.47
562.29	2263.79
562.64	2266.60
563.00	2269.02
563.35	2272.50
563.71	2275.44
564.06	2278.57
564.42	2281.54
564.77	2284.15
565.12	2286.44
565.48	2288.40
565.83	2290.23
566.19	2291.42
566.54	2292.45
566.89	2293.56
567.25	2294.03
567.60	2295.44
567.96	2297.14
568.31	2297.97
568.66	2299.00
569.02	2299.46
569.37	2299.72
569.72	2300.70
570.08	2300.74
570.43	2300.87
570.78	2300.39
571.14	2299.01
571.49	2297.60
571.84	2297.24
572.20	2296.13
572.55	2295.27
572.90	2293.84
573.26	2292.54
573.61	2291.01
573.96	2289.29
574.31	2286.36
574.67	2283.44
575.02	2279.83
575.37	2276.41
575.72	2272.55
576.08	2269.29
576.43	2266.07
576.78	2262.43
577.13	2259.19
577.49	2256.23
577.84	2252.62
578.19	2248.83
578.54	2245.24
578.90	2241.04
579.25	2235.44
579.60	2230.41
579.95	2225.13
580.30	2220.12
580.66	2214.89
581.01	2209.90
581.36	2204.89
581.71	2200.68
582.06	2196.29
582.42	2191.78
582.77	2186.48
583.12	2181.98
583.47	2177.38
583.82	2172.31
584.17	2167.11
584.53	2161.66
584.88	2155.86
585.23	2150.11
585.58	2144.63
585.93	2139.11
586.28	2134.45
586.63	2129.41
586.98	2124.42
587.34	2119.79
587.69	2114.86
588.04	2109.52
588.39	2103.80
588.74	2097.37
589.09	2091.20
589.44	2084.36
589.79	2078.41
590.14	2072.90
590.49	2066.28
590.84	2059.73
591.19	2053.76
591.54	2047.42
591.89	2040.04
592.25	2033.27
592.60	2026.11
592.95	2018.64
593.30	2011.29
593.65	2003.72
594.00	1996.78
594.35	1989.56
594.70	1981.64
595.05	1974.28
595.40	1967.11
595.75	1959.64
596.10	1953.35
596.45	1946.57
596.80	1940.42
597.15	1933.76
597.50	1926.64
597.85	1920.29
598.19	1913.64
598.54	1906.54
598.89	1899.69
599.24	1893.78
599.59	1887.12
599.94	1881.02
600.29	1874.62
600.64	1868.08
600.99	1860.55
601.34	1853.66
601.69	1846.62
602.04	1839.75
602.39	1832.62
602.74	1825.83
603.08	1819.11
603.43	1812.44
603.78	1805.13
604.13	1798.00
604.48	1790.57
604.83	1783.63
605.18	1776.54
605.53	1768.50
605.87	1760.59
606.22	1753.37
606.57	1745.45
606.92	1738.15
607.27	1730.88
607.62	1724.07
607.96	1716.78
608.31	1710.19
608.66	1702.54
609.01	1695.02
609.36	1687.36
609.70	1679.28
610.05	1671.12
610.40	1663.51
610.75	1655.06
611.10	1647.37
611.44	1638.98
611.79	1631.11
612.14	1622.47
612.49	1613.33
612.83	1605.11
613.18	1596.94
613.53	1588.83
613.88	1580.23
614.22	1572.00
614.57	1563.39
614.92	1555.22
615.27	1547.68
615.61	1539.28
615.96	1531.35
616.31	1523.71
616.65	1516.30
617.00	1508.70
617.35	1501.08
617.70	1492.69
618.04	1484.24
618.39	1476.18
618.74	1468.54
619.08	1460.28
619.43	1452.64
619.78	1445.84
620.12	1438.43
620.47	1430.82
620.82	1422.78
621.16	1415.45
621.51	1407.80
621.85	1400.28
622.20	1391.79
622.55	1383.47
622.89	1375.65
623.24	1367.91
623.59	1360.46
623.93	1353.07
624.28	1345.73
624.62	1338.20
624.97	1331.03
625.32	1324.36
625.66	1317.31
626.01	1310.08
626.35	1302.59
626.70	1294.92
627.04	1287.09
627.39	1279.46
627.73	1272.02
628.08	1265.08
628.43	1257.69
628.77	1250.24
629.12	1242.64
629.46	1235.56
629.81	1228.09
630.15	1220.89
630.50	1213.59
630.84	1205.47
631.19	1197.55
631.53	1190.11
631.88	1182.55
632.22	1174.86
632.57	1167.48
632.91	1159.88
633.26	1152.42
633.60	1145.14
633.95	1138.07
634.29	1131.04
634.64	1124.42
634.98	1117.07
635.32	1109.87
635.67	1103.36
636.01	1096.82
636.36	1090.05
636.70	1083.52
637.05	1076.97
637.39	1070.49
637.73	1063.92
638.08	1057.95
638.42	1051.87
638.77	1045.45
639.11	1038.83
639.45	1032.56
639.80	1025.88
640.14	1019.47
640.49	1012.98
640.83	1006.61
641.17	1000.38
641.52	994.09
641.86	987.59
642.20	981.80
642.55	975.48
642.89	968.97
643.23	962.40
643.58	956.56
643.92	950.34
644.26	944.27
644.61	938.24
644.95	932.15
645.29	925.61
645.64	918.89
645.98	912.52
646.32	906.72
646.66	900.64
647.01	894.86
647.35	889.15
647.69	883.38
648.04	877.82
648.38	871.95
648.72	865.89
649.06	859.85
649.41	853.95
649.75	848.03
650.09	842.08
650.43	836.32
650.78	830.25
651.12	824.19
651.46	818.59
651.80	812.84
652.14	807.46
652.49	802.12
652.83	796.96
653.17	791.32
653.51	785.59
653.85	780.18
654.20	774.54
654.54	768.61
654.88	762.83
655.22	756.98
655.56	751.35
655.90	745.93
656.25	740.67
656.59	735.24
656.93	730.15
657.27	724.97
657.61	719.46
657.95	714.32
658.29	709.32
658.64	703.93
658.98	698.66
659.32	693.18
659.66	687.91
660.00	682.56
660.34	677.60
660.68	672.64
661.02	667.61
661.36	662.95
661.70	658.38
662.05	654.05
662.39	649.70
662.73	645.24
663.07	640.90
663.41	636.44
663.75	632.00
664.09	627.40
664.43	623.01
664.77	618.92
665.11	614.70
665.45	610.61
665.79	606.56
666.13	602.45
666.47	598.42
666.81	594.29
667.15	590.19
667.49	586.26
667.83	582.48
668.17	578.58
668.51	574.48
668.85	570.50
669.19	566.66
669.53	562.82
669.87	558.85
670.21	555.11
670.55	551.47
670.89	548.05
671.23	544.55
671.57	541.04
671.91	537.48
672.25	533.97
672.58	530.38
672.92	526.98
673.26	523.77
673.60	520.62
673.94	517.54
674.28	514.61
674.62	511.67
674.96	508.53
675.30	505.58
675.64	502.66
675.97	499.88
676.31	496.93
676.65	493.94
676.99	491.30
677.33	488.44
677.67	485.63
678.01	482.65
678.34	479.74
678.68	476.91
679.02	474.13
679.36	471.33
679.70	468.68
680.04	465.90
680.37	463.06
680.71	460.26
681.05	457.61
681.39	454.95
681.73	452.30
682.06	449.76
682.40	447.21
682.74	444.68
683.08	442.12
683.42	439.53
683.75	437.07
684.09	434.54
684.43	432.07
684.77	429.57
685.10	427.18
685.44	424.88
685.78	422.55
686.12	420.28
686.45	418.00
686.79	415.64
687.13	413.54
687.46	411.34
687.80	409.19
688.14	407.01
688.48	404.90
688.81	402.66
689.15	400.60
689.49	398.42
689.82	396.36
690.16	394.29
690.50	392.35
690.83	390.38
691.17	388.38
691.51	386.48
691.84	384.65
692.18	382.71
692.52	380.71
692.85	378.79
693.19	376.92
693.52	375.09
693.86	373.29
694.20	371.48
694.53	369.69
694.87	367.83
695.21	366.04
695.54	364.25
695.88	362.52
696.21	360.74
696.55	359.08
696.88	357.35
697.22	355.67
697.56	354.06
697.89	352.45
698.23	350.87
698.56	349.25
698.90	347.63
699.23	346.01
699.57	344.49
699.90	342.96
700.24	341.41
700.58	339.90
700.91	338.43
701.25	336.96
701.58	335.55
701.92	334.19
702.25	332.81
702.59	331.45
702.92	330.13
703.26	328.82
703.59	327.56
703.93	326.37
704.26	325.15
704.60	323.84
704.93	322.56
705.26	321.29
705.60	320.15
705.93	319.05
706.27	318.01
706.60	316.97
706.94	315.91
707.27	314.78
707.61	313.70
707.94	312.67
708.27	311.56
708.61	310.50
708.94	309.53
709.28	308.53
709.61	307.56
709.94	306.63
710.28	305.67
710.61	304.70
710.95	303.64
711.28	302.76
711.61	301.83
711.95	300.91
712.28	299.94
712.61	298.99
712.95	298.07
713.28	297.20
713.61	296.28
713.95	295.42
714.28	294.62
714.61	293.76
714.95	292.89
715.28	292.06
715.61	291.21
715.95	290.30
716.28	289.46
716.61	288.63
716.95	287.84
717.28	287.10
717.61	286.35
717.94	285.63
718.28	284.78
718.61	284.06
718.94	283.36
719.27	282.75
719.61	282.08
719.94	281.36
720.27	280.61
720.60	279.94
720.94	279.26
721.27	278.67
721.60	278.11
721.93	277.55
722.27	277.01
722.60	276.48
722.93	275.95
723.26	275.42
723.59	274.83
723.93	274.28
724.26	273.72
724.59	273.12
724.92	272.60
725.25	272.10
725.59	271.56
725.92	271.03
726.25	270.45
726.58	269.93
726.91	269.44
727.24	268.97
727.57	268.49
727.91	268.00
728.24	267.48
728.57	266.99
728.90	266.51
729.23	265.99
729.56	265.51
729.89	265.02
730.22	264.56
730.55	264.12
730.89	263.62
731.22	263.18
731.55	262.76
731.88	262.33
732.21	261.90
732.54	261.47
732.87	261.05
733.20	260.67
733.53	260.29
733.86	259.91
734.19	259.51
734.52	259.13
734.85	258.82
735.18	258.44
735.51	258.07
735.84	257.70
736.17	257.37
736.50	256.96
736.83	256.75
737.16	256.42
737.49	256.09
737.82	255.72
738.15	255.34
738.48	255.00
738.81	254.68
739.14	254.33
739.47	253.98
739.80	253.68
740.13	253.38
740.46	253.03
740.79	252.74
741.12	252.44
741.45	252.14
741.78	251.77
742.11	251.49
742.44	251.15
742.77	250.87
743.10	250.58
743.43	250.31
743.75	249.90
744.08	249.74
744.41	249.45
744.74	249.20
745.07	248.94
745.40	248.73
745.73	248.47
746.06	248.24
746.39	247.99
746.71	247.72
747.04	247.40
747.37	247.19
747.70	246.92
748.03	246.67
748.36	246.46
748.68	246.24
749.01	246.00
749.34	245.81
749.67	245.59
750.00	245.32
750.33	245.18
750.65	244.98
750.98	244.62
751.31	244.40
751.64	244.21
751.97	244.07
752.29	243.84
752.62	243.62
752.95	243.42
753.28	243.24
753.60	243.05
753.93	242.92
754.26	242.74
754.59	242.53
754.91	242.32
755.24	242.08
755.57	241.92
755.90	241.71
756.22	241.50
756.55	241.28
756.88	241.12
757.20	240.89
757.53	240.71
757.86	240.53
758.19	240.38
758.51	240.22
758.84	240.00
759.17	239.82
759.49	239.65
759.82	239.51
760.15	239.37
760.47	239.25
760.80	239.07
761.13	238.90
761.45	238.75
761.78	238.64
762.11	238.51
762.43	238.32
762.76	238.21
763.08	238.09
763.41	237.97
763.74	237.85
764.06	237.69
764.39	237.54
764.71	237.42
765.04	237.26
765.37	237.13
765.69	236.98
766.02	236.88
766.34	236.78
766.67	236.63
767.00	236.52
767.32	236.42
767.65	236.35
767.97	236.27
768.30	236.15
768.62	236.01
768.95	235.90
769.27	235.81
769.60	235.69
769.92	235.56
770.25	235.45
770.57	235.31
770.90	235.21
771.22	235.11
771.55	235.00
771.87	234.91
772.20	234.80
772.52	234.80
772.85	234.82
773.17	234.69
773.50	234.61
773.82	234.50
774.15	234.38
774.47	234.26
774.80	234.13
775.12	234.05
775.45	233.99
775.77	233.90
776.09	233.83
776.42	233.73
776.74	233.69
777.07	233.60
777.39	233.54
777.72	233.47
778.04	233.40
778.36	233.33
778.69	233.28
779.01	233.24
779.33	233.06
779.66	232.84
779.98	232.80
780.31	232.72
780.63	232.68
780.95	232.63
781.28	232.55
781.60	232.48
781.92	232.42
782.25	232.34
782.57	232.31
782.89	232.24
783.22	232.18
783.54	232.07
783.86	232.02
784.19	231.95
784.51	231.92
784.83	231.86
785.16	231.76
785.48	231.68
785.80	231.61
786.12	231.59
786.45	231.59
786.77	231.49
787.09	231.46
787.42	231.39
787.74	231.34
788.06	231.30
788.38	231.28
788.71	231.24
789.03	231.20
789.35	231.15
789.67	231.09
789.99	231.05
790.32	231.03
790.64	231.00
790.96	231.02
791.28	230.95
791.61	230.91
791.93	230.93
792.25	230.93
792.57	230.93
792.89	230.90
793.21	230.87
793.54	230.89
793.86	230.83
794.18	230.81
794.50	230.76
794.82	230.73
795.14	230.71
795.47	230.72
795.79	230.67
796.11	230.62
796.43	230.60
796.75	230.56
797.07	230.53
797.39	230.49
797.71	230.38
798.04	230.33
798.36	230.30
798.68	230.24
799.00	230.22
799.32	230.18
799.64	230.13
799.96	230.07
800.28	230.03
800.60	229.99
800.92	229.95
801.24	229.91
801.56	229.87
801.89	229.85
802.21	229.78
802.53	229.74
802.85	229.72
803.17	229.74
803.49	229.66
803.81	229.61
804.13	229.60
804.45	229.54
804.77	229.52
805.09	229.49
805.41	229.49
805.73	229.43
806.05	229.36
806.37	229.32
806.69	229.26
807.01	229.23
807.33	229.20
807.65	229.13
807.97	229.12
808.28	229.10
808.60	229.07
808.92	229.01
809.24	229.05
809.56	228.99
809.88	228.92
810.20	228.94
810.52	228.91
810.84	228.86
811.16	228.86
811.48	228.84
811.80	228.84
812.12	228.81
812.43	228.82
812.75	228.80
813.07	228.79
813.39	228.77
813.71	228.72
814.03	228.70
814.35	228.68
814.67	228.62
814.98	228.55
815.30	228.49
815.62	228.47
815.94	228.37
816.26	228.39
816.58	228.33
816.89	228.33
817.21	228.30
817.53	228.30
817.85	228.27
818.17	228.23
818.48	228.19
818.80	228.14
819.12	228.09
819.44	228.04
819.76	228.04
820.07	228.02
820.39	228.03
820.71	228.05
821.03	227.98
821.34	227.97
821.66	227.98
821.98	227.99
822.30	227.97
822.61	228.03
822.93	228.00
823.25	228.01
823.57	227.97
823.88	228.01
824.20	227.99
824.52	228.03
824.83	228.02
825.15	228.02
825.47	228.00
825.79	228.04
826.10	228.02
826.42	228.01
826.74	228.01
827.05	228.00
827.37	227.96
827.69	228.00
828.00	228.03
828.32	228.04
828.64	228.02
828.95	228.08
829.27	228.05
829.58	228.05
829.90	228.05
830.22	228.05
830.53	228.03
830.85	228.01
831.17	227.95
831.48	227.96
831.80	227.92
832.11	227.90
832.43	227.88
832.75	227.87
833.06	227.91
833.38	227.88
833.69	227.84
834.01	227.83
834.32	227.80
834.64	227.73
834.96	227.72
835.27	227.70
835.59	227.63
835.90	227.61
836.22	227.59
836.53	227.56
836.85	227.54
837.16	227.63
837.48	227.64
837.79	227.65
838.11	227.66
838.42	227.66
838.74	227.68
839.05	227.66
839.37	227.68
839.68	227.60
840.00	227.59
840.31	227.61
840.63	227.60
840.94	227.58
841.26	227.59
841.57	227.58
841.88	227.55
842.20	227.56
842.51	227.49
842.83	227.48
843.14	227.57
843.46	227.59
843.77	227.48
844.08	227.42
844.40	227.41
844.71	227.40
845.03	227.36
845.34	227.31
845.65	227.30
845.97	227.28
846.28	227.26
846.60	227.29
846.91	227.27
847.22	227.26
847.54	227.27
847.85	227.25
848.16	227.24
848.48	227.23
848.79	227.25
849.10	227.27
849.42	227.25
849.73	227.15
850.04	227.12
850.36	227.09
850.67	227.14
850.98	227.12
851.30	227.09
851.61	227.11
851.92	227.13
852.23	227.16
852.55	227.14
852.86	227.13
853.17	227.13
853.49	227.14
853.80	227.16
854.11	227.17
854.42	227.19
854.74	227.19
855.05	227.20
855.36	227.12
855.67	227.11
855.99	227.13
856.30	227.26
856.61	227.23
856.92	227.24
857.23	227.23
857.55	227.21
857.86	227.24
858.17	227.23
858.48	227.20
858.79	227.17
859.11	227.18
859.42	227.19
859.73	227.17
860.04	227.16
860.35	227.12
860.66	227.13
860.98	227.14
861.29	227.13
861.60	227.10
861.91	227.16
862.22	227.18
862.53	227.15
862.84	227.05
863.16	227.08
863.47	227.06
863.78	227.05
864.09	227.06
864.40	227.05
864.71	227.03
865.02	227.08
865.33	227.07
865.64	227.08
865.95	227.09
866.27	227.19
866.58	227.22
866.89	227.26
867.20	227.24
867.51	227.21
867.82	227.21
868.13	227.30
868.44	227.33
868.75	227.35
869.06	227.36
869.37	227.35
869.68	227.33
869.99	227.40
870.30	227.45
870.61	227.47
870.92	227.45
871.23	227.46
871.54	227.46
871.85	227.47
872.16	227.50
872.47	227.49
872.78	227.41
873.09	227.39
873.40	227.37
873.71	227.36
874.02	227.39
874.33	227.37
874.64	227.34
874.95	227.34
875.26	227.29
875.56	227.31
875.87	227.31
876.18	227.32
876.49	227.36
876.80	227.33
877.11	227.29
877.42	227.31
877.73	227.35
878.04	227.34
878.35	227.35
878.66	227.32
878.96	227.30
879.27	227.29
879.58	227.30
879.89	227.28
880.20	227.31
880.51	227.30
880.82	227.29
881.12	227.26
881.43	227.23
881.74	227.24
882.05	227.20
882.36	227.19
882.67	227.23
882.97	227.14
883.28	227.13
883.59	227.16
883.90	227.17
884.21	227.15
884.51	227.15
884.82	227.13
885.13	227.14
885.44	227.12
885.74	227.10
886.05	227.08
886.36	227.09
886.67	227.08
886.98	227.09
887.28	227.11
887.59	227.14
887.90	227.13
888.20	227.12
888.51	227.15
888.82	227.13
889.13	227.09
889.43	227.15
889.74	227.14
890.05	227.10
890.35	227.08
890.66	227.06
890.97	227.02
891.28	226.99
891.58	226.96
891.89	226.96
892.20	226.96
892.50	226.94
892.81	226.93
893.12	226.89
893.42	226.88
893.73	226.90
894.04	226.87
894.34	226.87
894.65	226.88
894.95	226.87
895.26	226.91
895.57	226.94
895.87	226.83
896.18	226.85
896.48	226.85
896.79	226.85
897.10	226.85
897.40	226.90
897.71	226.91
898.01	226.92
898.32	226.95
898.63	226.93
898.93	226.94
899.24	226.93
899.54	226.95
899.85	226.93
900.15	226.90
900.46	226.89
900.76	226.90
901.07	226.89
901.38	226.87
901.68	226.88
901.99	226.81
902.29	226.83
902.60	226.82
902.90	226.85
903.21	226.85
903.51	226.86
903.82	226.85
904.12	226.86
904.43	226.85
904.73	226.83
905.03	226.87
905.34	226.98
905.64	226.99
905.95	226.99
906.25	227.00
906.56	227.01
906.86	226.97
907.17	226.95
907.47	226.94
907.77	226.91
908.08	226.88
908.38	226.91
908.69	226.90
908.99	226.90
909.30	226.89
909.60	226.87
909.90	226.86
910.21	226.86
910.51	226.85
910.81	226.85
911.12	226.87
911.42	226.83
911.73	226.70
912.03	226.67
912.33	226.69
912.64	226.70
912.94	226.69
913.24	226.72
913.55	226.72
913.85	226.68
914.15	226.72
914.46	226.74
914.76	226.71
915.06	226.70
915.37	226.67
915.67	226.64
915.97	226.63
916.27	226.58
916.58	226.57
916.88	226.58
917.18	226.56
917.49	226.61
917.79	226.60
918.09	226.62
918.39	226.68
918.70	226.66
919.00	226.65
919.30	226.69
919.60	226.65
919.91	226.62
920.21	226.64
920.51	226.61
920.81	226.52
921.12	226.56
921.42	226.56
921.72	226.60
922.02	226.62
922.32	226.62
922.63	226.65
922.93	226.67
923.23	226.67
923.53	226.69
923.83	226.60
924.13	226.62
924.44	226.58
924.74	226.58
925.04	226.61
925.34	226.58
925.64	226.52
925.94	226.54
926.24	226.60
926.55	226.62
926.85	226.63
927.15	226.69
927.45	226.69
927.75	226.68
928.05	226.68
928.35	226.66
928.65	226.66
928.95	226.67
929.26	226.64
929.56	226.69
929.86	226.69
930.16	226.69
930.46	226.71
930.76	226.76
931.06	226.71
931.36	226.69
931.66	226.72
931.96	226.74
932.26	226.76
932.56	226.77
932.86	226.78
933.16	226.79
933.46	226.74
933.76	226.71
934.06	226.75
934.36	226.75
934.66	226.78
934.96	226.82
935.26	226.85
935.56	226.91
935.86	226.85
936.16	226.87
936.46	226.88
936.76	226.83
937.06	226.80
937.36	226.81
937.66	226.79
937.96	226.83
938.26	226.81
938.56	226.79
938.86	226.74
939.16	226.79
939.46	226.80
939.76	226.85
940.06	226.85
940.35	226.81
940.65	226.78
940.95	226.76
941.25	226.72
941.55	226.70
941.85	226.67
942.15	226.70
942.45	226.71
942.75	226.73
943.04	226.74
943.34	226.75
943.64	226.74
943.94	226.71
944.24	226.70
944.54	226.70
944.84	226.72
945.13	226.70
945.43	226.67
945.73	226.65
946.03	226.62
946.33	226.63
946.62	226.63
946.92	226.65
947.22	226.70
947.52	226.68
947.82	226.70
948.11	226.70
948.41	226.67
948.71	226.61
949.01	226.61
949.31	226.61
949.60	226.59
949.90	226.64
950.20	226.66
950.50	226.64
950.79	226.66
951.09	226.67
951.39	226.68
951.69	226.65
951.98	226.67
952.28	226.68
952.58	226.65
952.87	226.61
953.17	226.62
953.47	226.61
953.76	226.61
954.06	226.59
954.36	226.55
954.66	226.54
954.95	226.58
955.25	226.57
955.55	226.57
955.84	226.58
956.14	226.57
956.44	226.56
956.73	226.54
957.03	226.53
957.32	226.52
957.62	226.52
957.92	226.56
958.21	226.54
958.51	226.65
958.81	226.70
959.10	226.75
959.40	226.74
959.69	226.72
959.99	226.73
960.29	226.72
960.58	226.74
960.88	226.80
961.17	226.80
961.47	226.82
961.76	226.81
962.06	226.80
962.36	226.81
962.65	226.83
962.95	226.86
963.24	226.83
963.54	226.81
963.83	226.80
964.13	226.81
964.42	226.79
964.72	226.72
965.01	226.71
965.31	226.70
965.60	226.67
965.90	226.74
966.19	226.75
966.49	226.77
966.78	226.79
967.08	226.78
967.37	226.77
967.67	226.75
967.96	226.80
968.26	226.81
968.55	226.81
968.85	226.80
969.14	226.78
969.43	226.81
969.73	226.83
970.02	226.84
970.32	226.82
970.61	226.85
970.91	226.81
971.20	226.82
971.49	226.82
971.79	226.85
972.08	226.77
972.38	226.79
972.67	226.79
972.96	226.75
973.26	226.70
973.55	226.75
973.85	226.74
974.14	226.73
974.43	226.73
974.73	226.73
975.02	226.72
975.31	226.75
975.61	226.72
975.90	226.73
976.19	226.73
976.49	226.76
976.78	226.77
977.07	226.79
977.37	226.79
977.66	226.81
977.95	226.78
978.24	226.81
978.54	226.80
978.83	226.78
979.12	226.81
979.42	226.80
979.71	226.77
980.00	226.83
980.29	226.80
980.59	226.80
980.88	226.83
981.17	226.83
981.46	226.83
981.76	226.86
982.05	226.88
982.34	226.88
982.63	226.88
982.93	226.89
983.22	226.87
983.51	226.86
983.80	226.86
984.09	226.88
984.39	226.85
984.68	226.88
984.97	226.91
985.26	226.88
985.55	226.93
985.85	226.92
986.14	226.88
986.43	226.90
986.72	226.92
987.01	226.85
987.30	226.88
987.59	226.86
987.89	226.86
988.18	226.88
988.47	226.86
988.76	226.85
989.05	226.83
989.34	226.88
989.63	226.91
989.92	226.93
990.22	226.90
990.51	226.88
990.80	226.86
991.09	226.85
991.38	226.88
991.67	226.85
991.96	226.83
992.25	226.84
992.54	226.85
992.83	226.81
993.12	226.81
993.41	226.80
993.70	226.81
993.99	226.80
994.28	226.75
994.58	226.75
994.87	226.74
995.16	226.74
995.45	226.68
995.74	226.67
996.03	226.66
996.32	226.68
996.61	226.76
996.90	226.78
997.19	226.74
997.48	226.73
997.77	226.72
998.06	226.71
998.34	226.70
998.63	226.68
998.92	226.68
999.21	226.72
999.50	226.75
999.79	226.73
1000.08	226.72
1000.37	226.75
1000.66	226.76
1000.95	226.75
1001.24	226.77
1001.53	226.79
1001.82	226.76
1002.11	226.72
1002.40	226.71
1002.68	226.70
1002.97	226.74
1003.26	226.74
1003.55	226.73
1003.84	226.76
1004.13	226.78
1004.42	226.78
1004.71	226.77
1004.99	226.72
1005.28	226.72
1005.57	226.65
1005.86	226.63
1006.15	226.61
1006.44	226.59
1006.72	226.59
1007.01	226.58
1007.30	226.55
1007.59	226.55
1007.88	226.56
1008.17	226.57
1008.45	226.55
1008.74	226.52
1009.03	226.48
1009.32	226.48
1009.60	226.46
1009.89	226.42
1010.18	226.40
1010.47	226.35
1010.76	226.35
1011.04	226.41
1011.33	226.41
1011.62	226.43
1011.91	226.44
1012.19	226.43
1012.48	226.43
1012.77	226.47
1013.05	226.51
1013.34	226.49
1013.63	226.46
1013.92	226.44
1014.20	226.45
1014.49	226.45
1014.78	226.45
1015.06	226.39
1015.35	226.38
1015.64	226.45
1015.92	226.46
1016.21	226.44
1016.50	226.46
1016.78	226.45
1017.07	226.43
1017.36	226.42
1017.64	226.42
1017.93	226.42
1018.22	226.43
1018.50	226.43
1018.79	226.40
1019.08	226.37
1019.36	226.41
1019.65	226.40
1019.93	226.44
1020.22	226.43
1020.51	226.48
1020.79	226.47
1021.08	226.29
1021.36	226.61
1021.65	226.71
1021.94	226.70
1022.22	226.84
1022.51	225.96
1022.79	226.94
1023.08	226.24
1023.36	227.45
1023.65	226.24
>>>>>End Processed Spectral Data<<<<<
