SpectraSuite Data File
++++++++++++++++++++++++++++++++++++
Date: Fri Feb 01 15:57:10 EST 2013
User: group
Dark Spectrum Present: No
Reference Spectrum Present: No
Number of Sampled Component Spectra: 1
Spectrometers: USB2E7196
Integration Time (usec): 35000 (USB2E7196)
Spectra Averaged: 100 (USB2E7196)
Boxcar Smoothing: 10 (USB2E7196)
Correct for Electrical Dark: No (USB2E7196)
Strobe/Lamp Enabled: No (USB2E7196)
Correct for Detector Non-linearity: No (USB2E7196)
Correct for Stray Light: No (USB2E7196)
Number of Pixels in Processed Spectrum: 2048
>>>>>Begin Processed Spectral Data<<<<<
339.09	0.00
339.48	214.98
339.86	216.19
340.24	217.38
340.63	219.00
341.01	221.72
341.39	221.22
341.78	222.91
342.16	224.11
342.54	225.10
342.93	212.91
343.31	223.67
343.69	224.20
344.07	224.68
344.46	225.10
344.84	225.48
345.22	225.70
345.60	225.98
345.99	226.16
346.37	226.28
346.75	226.35
347.13	226.39
347.52	226.46
347.90	226.51
348.28	226.60
348.66	226.66
349.05	226.65
349.43	226.71
349.81	226.75
350.19	226.80
350.57	226.90
350.96	226.97
351.34	227.07
351.72	227.16
352.10	227.24
352.48	227.31
352.87	227.36
353.25	227.45
353.63	227.50
354.01	227.58
354.39	227.69
354.77	227.76
355.15	227.88
355.54	227.93
355.92	227.98
356.30	228.04
356.68	228.20
357.06	228.31
357.44	228.35
357.82	228.44
358.20	228.55
358.58	228.59
358.97	228.69
359.35	228.76
359.73	228.84
360.11	228.90
360.49	228.94
360.87	228.99
361.25	229.06
361.63	229.15
362.01	229.20
362.39	229.23
362.77	229.27
363.15	229.32
363.53	229.34
363.91	229.40
364.29	229.43
364.67	229.35
365.05	229.34
365.43	229.34
365.81	229.35
366.19	229.39
366.57	229.44
366.95	229.43
367.33	229.37
367.71	229.37
368.09	229.38
368.47	229.40
368.85	229.39
369.23	229.39
369.61	229.33
369.99	229.31
370.37	229.31
370.75	229.33
371.13	229.30
371.51	229.26
371.89	229.24
372.27	229.18
372.65	229.15
373.03	229.10
373.41	229.07
373.78	229.01
374.16	228.88
374.54	228.77
374.92	228.71
375.30	228.67
375.68	228.58
376.06	228.52
376.44	228.46
376.82	228.43
377.19	228.31
377.57	228.25
377.95	228.19
378.33	228.14
378.71	228.01
379.09	227.91
379.47	227.86
379.84	227.76
380.22	227.70
380.60	227.60
380.98	227.53
381.36	227.44
381.73	227.37
382.11	227.33
382.49	227.27
382.87	227.19
383.25	227.13
383.62	227.15
384.00	227.08
384.38	227.02
384.76	226.95
385.13	226.95
385.51	226.90
385.89	226.82
386.27	226.67
386.64	226.64
387.02	226.62
387.40	226.56
387.78	226.51
388.15	226.45
388.53	226.41
388.91	226.37
389.29	226.36
389.66	226.34
390.04	226.30
390.42	226.31
390.79	226.32
391.17	226.28
391.55	226.18
391.92	226.16
392.30	226.18
392.68	226.15
393.05	226.13
393.43	226.11
393.81	226.14
394.18	226.14
394.56	226.16
394.94	226.21
395.31	226.25
395.69	226.31
396.06	226.37
396.44	226.41
396.82	226.46
397.19	226.55
397.57	226.58
397.95	226.64
398.32	226.64
398.70	226.66
399.07	226.76
399.45	226.82
399.82	226.87
400.20	226.91
400.58	226.98
400.95	227.00
401.33	227.12
401.70	227.29
402.08	227.41
402.45	227.50
402.83	227.60
403.20	227.69
403.58	227.81
403.95	227.93
404.33	228.07
404.71	228.19
405.08	228.36
405.46	228.50
405.83	228.67
406.21	228.84
406.58	229.02
406.96	229.18
407.33	229.34
407.70	229.57
408.08	229.86
408.45	230.10
408.83	230.39
409.20	230.60
409.58	230.75
409.95	231.01
410.33	231.29
410.70	231.52
411.08	231.84
411.45	232.13
411.82	232.44
412.20	232.79
412.57	233.22
412.95	233.52
413.32	233.91
413.69	234.32
414.07	234.77
414.44	235.23
414.82	235.71
415.19	236.30
415.56	236.83
415.94	237.34
416.31	237.98
416.68	238.59
417.06	239.29
417.43	240.00
417.81	240.81
418.18	241.59
418.55	242.44
418.93	243.32
419.30	244.21
419.67	245.14
420.04	246.10
420.42	247.05
420.79	248.23
421.16	249.40
421.54	250.58
421.91	251.78
422.28	253.04
422.66	254.38
423.03	255.67
423.40	257.01
423.77	258.42
424.15	259.86
424.52	261.36
424.89	262.98
425.26	264.49
425.64	265.89
426.01	267.51
426.38	269.14
426.75	270.84
427.13	272.58
427.50	274.38
427.87	276.26
428.24	278.14
428.61	279.86
428.99	281.83
429.36	283.90
429.73	285.97
430.10	287.95
430.47	290.00
430.85	292.08
431.22	294.31
431.59	296.70
431.96	298.90
432.33	301.37
432.70	303.73
433.08	306.55
433.45	309.16
433.82	311.71
434.19	314.59
434.56	317.34
434.93	319.99
435.30	322.58
435.68	325.44
436.05	328.28
436.42	331.08
436.79	333.57
437.16	336.27
437.53	339.06
437.90	341.86
438.27	344.59
438.64	347.45
439.01	350.05
439.38	352.24
439.75	354.39
440.13	356.84
440.50	359.18
440.87	361.03
441.24	362.96
441.61	365.16
441.98	366.64
442.35	368.43
442.72	370.25
443.09	372.06
443.46	373.04
443.83	373.61
444.20	374.09
444.57	374.90
444.94	375.18
445.31	375.51
445.68	375.90
446.05	375.98
446.42	375.55
446.79	375.09
447.16	374.66
447.53	374.33
447.90	373.17
448.27	371.97
448.64	370.39
449.01	369.30
449.37	367.27
449.74	365.39
450.11	363.18
450.48	360.68
450.85	358.14
451.22	355.99
451.59	353.92
451.96	352.03
452.33	349.46
452.70	347.10
453.07	344.32
453.43	341.38
453.80	338.62
454.17	335.94
454.54	333.40
454.91	330.68
455.28	328.04
455.65	325.60
456.02	323.21
456.38	321.07
456.75	318.45
457.12	316.24
457.49	314.03
457.86	311.88
458.23	310.06
458.59	308.04
458.96	306.00
459.33	304.18
459.70	302.29
460.07	300.77
460.43	299.11
460.80	297.52
461.17	296.11
461.54	294.62
461.91	293.21
462.27	291.79
462.64	290.55
463.01	289.21
463.38	287.91
463.74	286.51
464.11	285.38
464.48	284.33
464.85	283.22
465.21	282.37
465.58	281.43
465.95	280.35
466.32	279.44
466.68	278.53
467.05	277.65
467.42	276.79
467.78	275.90
468.15	275.02
468.52	274.37
468.88	273.54
469.25	272.81
469.62	272.22
469.98	271.56
470.35	270.94
470.72	270.33
471.08	269.71
471.45	269.21
471.82	268.62
472.18	268.00
472.55	267.58
472.92	267.05
473.28	266.61
473.65	266.16
474.02	265.72
474.38	265.35
474.75	265.04
475.11	264.73
475.48	264.44
475.85	264.20
476.21	263.96
476.58	263.75
476.94	263.54
477.31	263.38
477.67	263.26
478.04	263.16
478.41	263.11
478.77	263.16
479.14	263.08
479.50	263.12
479.87	263.21
480.23	263.27
480.60	263.35
480.96	263.43
481.33	263.64
481.69	263.85
482.06	264.08
482.42	264.28
482.79	264.51
483.15	264.85
483.52	265.18
483.88	265.50
484.25	265.91
484.61	266.38
484.98	266.83
485.34	267.36
485.71	267.90
486.07	268.49
486.44	269.04
486.80	269.75
487.17	270.44
487.53	271.25
487.90	272.12
488.26	273.04
488.62	274.01
488.99	275.01
489.35	276.03
489.72	277.16
490.08	278.32
490.44	279.55
490.81	280.84
491.17	282.21
491.54	283.72
491.90	285.26
492.26	286.88
492.63	288.58
492.99	290.34
493.36	292.24
493.72	294.27
494.08	296.37
494.45	298.63
494.81	301.04
495.17	303.48
495.54	306.01
495.90	308.69
496.26	311.50
496.63	314.46
496.99	317.61
497.35	320.83
497.72	324.24
498.08	327.74
498.44	331.43
498.80	335.35
499.17	339.39
499.53	343.53
499.89	347.89
500.26	352.42
500.62	357.10
500.98	362.11
501.34	367.22
501.71	372.57
502.07	378.01
502.43	383.64
502.79	389.45
503.16	395.58
503.52	401.89
503.88	408.29
504.24	414.89
504.60	421.78
504.97	428.94
505.33	436.28
505.69	443.99
506.05	451.75
506.41	459.65
506.78	467.81
507.14	476.27
507.50	484.96
507.86	493.97
508.22	503.18
508.59	512.38
508.95	522.00
509.31	531.83
509.67	541.93
510.03	552.14
510.39	562.70
510.75	573.51
511.12	584.46
511.48	595.73
511.84	607.17
512.20	618.69
512.56	630.60
512.92	642.82
513.28	655.18
513.64	667.68
514.00	680.33
514.37	693.25
514.73	706.26
515.09	719.39
515.45	732.70
515.81	746.26
516.17	760.23
516.53	774.30
516.89	788.40
517.25	802.59
517.61	817.09
517.97	831.49
518.33	845.88
518.69	860.63
519.05	875.63
519.41	890.74
519.77	906.26
520.13	921.75
520.49	937.13
520.85	952.49
521.21	968.18
521.57	984.41
521.93	1000.15
522.29	1016.55
522.65	1032.78
523.01	1049.01
523.37	1065.06
523.73	1081.31
524.09	1097.27
524.45	1113.63
524.81	1130.16
525.17	1146.90
525.53	1163.73
525.89	1180.61
526.25	1197.31
526.61	1213.70
526.97	1230.42
527.33	1246.87
527.68	1263.36
528.04	1279.89
528.40	1296.49
528.76	1313.53
529.12	1330.08
529.48	1346.92
529.84	1362.90
530.20	1379.54
530.56	1396.46
530.91	1413.79
531.27	1430.29
531.63	1446.84
531.99	1463.32
532.35	1479.30
532.71	1495.20
533.07	1511.59
533.42	1527.29
533.78	1543.38
534.14	1559.54
534.50	1574.94
534.86	1590.81
535.21	1606.06
535.57	1621.88
535.93	1637.24
536.29	1651.95
536.65	1666.89
537.00	1681.65
537.36	1697.02
537.72	1711.37
538.08	1725.73
538.44	1739.50
538.79	1753.53
539.15	1767.26
539.51	1780.94
539.87	1795.18
540.22	1808.77
540.58	1822.40
540.94	1835.86
541.29	1848.75
541.65	1861.44
542.01	1874.60
542.37	1886.88
542.72	1899.17
543.08	1910.81
543.44	1923.11
543.79	1934.29
544.15	1945.37
544.51	1956.88
544.87	1967.72
545.22	1978.47
545.58	1988.52
545.94	1998.33
546.29	2008.10
546.65	2017.87
547.01	2027.10
547.36	2035.87
547.72	2044.27
548.07	2052.06
548.43	2060.10
548.79	2068.08
549.14	2075.64
549.50	2082.90
549.86	2090.44
550.21	2097.75
550.57	2105.00
550.92	2111.61
551.28	2118.60
551.64	2125.59
551.99	2132.18
552.35	2138.33
552.70	2144.55
553.06	2150.67
553.41	2156.89
553.77	2162.99
554.13	2169.03
554.48	2175.23
554.84	2180.62
555.19	2186.06
555.55	2191.03
555.90	2195.56
556.26	2200.41
556.61	2205.13
556.97	2209.41
557.32	2213.60
557.68	2217.67
558.03	2222.03
558.39	2225.85
558.74	2230.71
559.10	2234.57
559.45	2238.13
559.81	2242.48
560.16	2246.35
560.52	2249.56
560.87	2253.08
561.23	2255.75
561.58	2258.66
561.94	2261.20
562.29	2263.56
562.64	2266.27
563.00	2269.04
563.35	2272.58
563.71	2275.81
564.06	2279.00
564.42	2281.89
564.77	2284.42
565.12	2286.82
565.48	2288.60
565.83	2290.64
566.19	2291.66
566.54	2292.68
566.89	2293.92
567.25	2294.47
567.60	2295.73
567.96	2297.44
568.31	2298.28
568.66	2299.35
569.02	2299.93
569.37	2300.12
569.72	2301.06
570.08	2301.18
570.43	2301.27
570.78	2300.65
571.14	2299.03
571.49	2297.79
571.84	2297.51
572.20	2296.45
572.55	2295.35
572.90	2293.77
573.26	2292.30
573.61	2290.85
573.96	2289.02
574.31	2286.03
574.67	2283.10
575.02	2279.46
575.37	2276.09
575.72	2272.21
576.08	2268.90
576.43	2265.51
576.78	2261.91
577.13	2258.73
577.49	2255.55
577.84	2252.09
578.19	2248.40
578.54	2244.81
578.90	2240.49
579.25	2234.91
579.60	2229.76
579.95	2224.71
580.30	2219.86
580.66	2214.56
581.01	2209.53
581.36	2204.62
581.71	2200.48
582.06	2195.92
582.42	2191.53
582.77	2186.32
583.12	2181.83
583.47	2177.05
583.82	2172.15
584.17	2166.76
584.53	2161.16
584.88	2155.55
585.23	2149.83
585.58	2144.37
585.93	2138.88
586.28	2134.14
586.63	2129.02
586.98	2124.15
587.34	2119.46
587.69	2114.42
588.04	2109.12
588.39	2103.47
588.74	2097.15
589.09	2090.99
589.44	2084.23
589.79	2078.27
590.14	2072.66
590.49	2066.04
590.84	2059.69
591.19	2053.63
591.54	2047.34
591.89	2040.04
592.25	2033.24
592.60	2025.94
592.95	2018.39
593.30	2011.07
593.65	2003.53
594.00	1996.58
594.35	1989.28
594.70	1981.28
595.05	1974.07
595.40	1967.00
595.75	1959.52
596.10	1953.09
596.45	1946.37
596.80	1940.19
597.15	1933.50
597.50	1926.26
597.85	1919.92
598.19	1913.19
598.54	1906.03
598.89	1899.41
599.24	1893.50
599.59	1886.81
599.94	1880.67
600.29	1874.29
600.64	1867.77
600.99	1860.26
601.34	1853.60
601.69	1846.63
602.04	1839.85
602.39	1832.53
602.74	1825.55
603.08	1818.83
603.43	1812.19
603.78	1804.80
604.13	1797.60
604.48	1790.27
604.83	1783.50
605.18	1776.42
605.53	1768.43
605.87	1760.41
606.22	1753.26
606.57	1745.47
606.92	1738.31
607.27	1731.09
607.62	1724.14
607.96	1716.75
608.31	1710.24
608.66	1702.47
609.01	1694.95
609.36	1687.33
609.70	1679.29
610.05	1671.30
610.40	1663.60
610.75	1655.35
611.10	1647.76
611.44	1639.32
611.79	1631.35
612.14	1622.65
612.49	1613.56
612.83	1605.29
613.18	1597.24
613.53	1589.02
613.88	1580.35
614.22	1571.89
614.57	1563.30
614.92	1555.24
615.27	1547.63
615.61	1539.34
615.96	1531.39
616.31	1523.80
616.65	1516.42
617.00	1508.97
617.35	1501.33
617.70	1492.92
618.04	1484.30
618.39	1476.05
618.74	1468.52
619.08	1460.28
619.43	1452.70
619.78	1445.67
620.12	1438.47
620.47	1430.96
620.82	1422.90
621.16	1415.56
621.51	1407.98
621.85	1400.43
622.20	1391.97
622.55	1383.65
622.89	1375.72
623.24	1368.00
623.59	1360.55
623.93	1353.05
624.28	1345.75
624.62	1338.21
624.97	1331.14
625.32	1324.43
625.66	1317.39
626.01	1310.17
626.35	1302.68
626.70	1295.07
627.04	1287.44
627.39	1279.69
627.73	1272.33
628.08	1265.30
628.43	1257.95
628.77	1250.55
629.12	1242.95
629.46	1235.69
629.81	1228.37
630.15	1221.11
630.50	1213.73
630.84	1205.49
631.19	1197.66
631.53	1190.09
631.88	1182.47
632.22	1174.73
632.57	1167.43
632.91	1159.94
633.26	1152.52
633.60	1145.28
633.95	1138.13
634.29	1131.17
634.64	1124.44
634.98	1117.01
635.32	1109.92
635.67	1103.40
636.01	1096.83
636.36	1090.00
636.70	1083.56
637.05	1076.95
637.39	1070.52
637.73	1064.01
638.08	1058.23
638.42	1052.05
638.77	1045.69
639.11	1039.14
639.45	1032.88
639.80	1026.20
640.14	1019.76
640.49	1013.36
640.83	1006.94
641.17	1000.72
641.52	994.30
641.86	987.84
642.20	982.01
642.55	975.67
642.89	969.14
643.23	962.57
643.58	956.83
643.92	950.63
644.26	944.46
644.61	938.38
644.95	932.30
645.29	925.64
645.64	919.02
645.98	912.58
646.32	906.75
646.66	900.62
647.01	894.86
647.35	889.11
647.69	883.13
648.04	877.57
648.38	871.68
648.72	865.69
649.06	859.65
649.41	853.78
649.75	847.89
650.09	842.02
650.43	836.33
650.78	830.19
651.12	824.29
651.46	818.63
651.80	812.90
652.14	807.52
652.49	802.17
652.83	796.96
653.17	791.24
653.51	785.56
653.85	780.19
654.20	774.42
654.54	768.52
654.88	762.89
655.22	757.10
655.56	751.46
655.90	746.01
656.25	740.79
656.59	735.35
656.93	730.26
657.27	725.05
657.61	719.55
657.95	714.44
658.29	709.30
658.64	704.04
658.98	698.68
659.32	693.26
659.66	688.03
660.00	682.67
660.34	677.86
660.68	672.97
661.02	667.99
661.36	663.39
661.70	658.78
662.05	654.30
662.39	649.89
662.73	645.47
663.07	641.08
663.41	636.61
663.75	632.14
664.09	627.51
664.43	623.11
664.77	619.00
665.11	614.73
665.45	610.62
665.79	606.53
666.13	602.44
666.47	598.34
666.81	594.15
667.15	590.05
667.49	586.14
667.83	582.28
668.17	578.32
668.51	574.24
668.85	570.24
669.19	566.46
669.53	562.62
669.87	558.70
670.21	555.04
670.55	551.38
670.89	547.97
671.23	544.56
671.57	541.03
671.91	537.46
672.25	533.94
672.58	530.39
672.92	527.03
673.26	523.93
673.60	520.81
673.94	517.76
674.28	514.87
674.62	511.88
674.96	508.77
675.30	505.85
675.64	502.92
675.97	500.18
676.31	497.35
676.65	494.41
676.99	491.73
677.33	488.88
677.67	486.05
678.01	483.04
678.34	480.07
678.68	477.22
679.02	474.40
679.36	471.68
679.70	468.99
680.04	466.21
680.37	463.34
680.71	460.50
681.05	457.87
681.39	455.20
681.73	452.55
682.06	450.05
682.40	447.50
682.74	444.99
683.08	442.42
683.42	439.82
683.75	437.31
684.09	434.75
684.43	432.26
684.77	429.81
685.10	427.51
685.44	425.25
685.78	422.92
686.12	420.73
686.45	418.40
686.79	416.14
687.13	413.98
687.46	411.79
687.80	409.66
688.14	407.45
688.48	405.36
688.81	403.13
689.15	400.98
689.49	398.83
689.82	396.71
690.16	394.63
690.50	392.67
690.83	390.74
691.17	388.76
691.51	386.85
691.84	385.02
692.18	383.01
692.52	381.00
692.85	379.10
693.19	377.18
693.52	375.42
693.86	373.63
694.20	371.82
694.53	370.04
694.87	368.18
695.21	366.41
695.54	364.61
695.88	362.88
696.21	361.17
696.55	359.53
696.88	357.87
697.22	356.21
697.56	354.58
697.89	352.99
698.23	351.38
698.56	349.75
698.90	348.12
699.23	346.51
699.57	344.99
699.90	343.48
700.24	341.94
700.58	340.37
700.91	338.82
701.25	337.36
701.58	335.97
701.92	334.59
702.25	333.22
702.59	331.83
702.92	330.49
703.26	329.14
703.59	327.85
703.93	326.66
704.26	325.42
704.60	324.10
704.93	322.79
705.26	321.54
705.60	320.36
705.93	319.26
706.27	318.25
706.60	317.14
706.94	316.01
707.27	314.90
707.61	313.80
707.94	312.75
708.27	311.66
708.61	310.61
708.94	309.61
709.28	308.57
709.61	307.59
709.94	306.63
710.28	305.58
710.61	304.58
710.95	303.49
711.28	302.52
711.61	301.60
711.95	300.70
712.28	299.79
712.61	298.79
712.95	297.82
713.28	296.90
713.61	295.99
713.95	295.11
714.28	294.23
714.61	293.39
714.95	292.55
715.28	291.69
715.61	290.77
715.95	289.93
716.28	289.11
716.61	288.31
716.95	287.54
717.28	286.87
717.61	286.11
717.94	285.38
718.28	284.62
718.61	283.89
718.94	283.15
719.27	282.45
719.61	281.86
719.94	281.18
720.27	280.50
720.60	279.87
720.94	279.22
721.27	278.65
721.60	278.08
721.93	277.49
722.27	276.93
722.60	276.42
722.93	275.80
723.26	275.25
723.59	274.69
723.93	274.12
724.26	273.56
724.59	273.00
724.92	272.47
725.25	271.97
725.59	271.43
725.92	270.95
726.25	270.45
726.58	269.91
726.91	269.46
727.24	268.96
727.57	268.47
727.91	267.99
728.24	267.50
728.57	267.00
728.90	266.55
729.23	266.07
729.56	265.62
729.89	265.19
730.22	264.72
730.55	264.24
730.89	263.77
731.22	263.31
731.55	262.86
731.88	262.46
732.21	262.05
732.54	261.61
732.87	261.18
733.20	260.76
733.53	260.38
733.86	259.99
734.19	259.62
734.52	259.24
734.85	258.93
735.18	258.54
735.51	258.18
735.84	257.84
736.17	257.46
736.50	257.07
736.83	256.80
737.16	256.51
737.49	256.19
737.82	255.87
738.15	255.57
738.48	255.24
738.81	254.89
739.14	254.54
739.47	254.24
739.80	253.97
740.13	253.69
740.46	253.37
740.79	253.05
741.12	252.73
741.45	252.38
741.78	252.03
742.11	251.76
742.44	251.43
742.77	251.15
743.10	250.88
743.43	250.57
743.75	250.21
744.08	250.05
744.41	249.77
744.74	249.48
745.07	249.18
745.40	248.97
745.73	248.76
746.06	248.50
746.39	248.24
746.71	247.97
747.04	247.68
747.37	247.45
747.70	247.23
748.03	246.99
748.36	246.79
748.68	246.57
749.01	246.30
749.34	246.11
749.67	245.85
750.00	245.63
750.33	245.48
750.65	245.29
750.98	244.94
751.31	244.73
751.64	244.54
751.97	244.38
752.29	244.16
752.62	243.90
752.95	243.68
753.28	243.49
753.60	243.26
753.93	243.08
754.26	242.88
754.59	242.64
754.91	242.44
755.24	242.24
755.57	242.03
755.90	241.89
756.22	241.66
756.55	241.47
756.88	241.28
757.20	241.07
757.53	240.85
757.86	240.66
758.19	240.50
758.51	240.32
758.84	240.09
759.17	239.88
759.49	239.74
759.82	239.66
760.15	239.53
760.47	239.37
760.80	239.19
761.13	239.06
761.45	238.92
761.78	238.77
762.11	238.63
762.43	238.51
762.76	238.37
763.08	238.27
763.41	238.13
763.74	238.02
764.06	237.89
764.39	237.77
764.71	237.64
765.04	237.51
765.37	237.38
765.69	237.27
766.02	237.17
766.34	237.01
766.67	236.85
767.00	236.72
767.32	236.67
767.65	236.65
767.97	236.51
768.30	236.39
768.62	236.30
768.95	236.17
769.27	236.02
769.60	235.92
769.92	235.80
770.25	235.68
770.57	235.58
770.90	235.45
771.22	235.33
771.55	235.25
771.87	235.17
772.20	235.08
772.52	235.10
772.85	235.09
773.17	235.02
773.50	234.93
773.82	234.78
774.15	234.65
774.47	234.47
774.80	234.39
775.12	234.27
775.45	234.21
775.77	234.15
776.09	234.06
776.42	233.98
776.74	233.91
777.07	233.83
777.39	233.75
777.72	233.68
778.04	233.65
778.36	233.55
778.69	233.45
779.01	233.38
779.33	233.21
779.66	233.03
779.98	233.00
780.31	232.94
780.63	232.94
780.95	232.89
781.28	232.83
781.60	232.77
781.92	232.73
782.25	232.63
782.57	232.55
782.89	232.51
783.22	232.42
783.54	232.36
783.86	232.31
784.19	232.21
784.51	232.19
784.83	232.09
785.16	232.05
785.48	232.00
785.80	231.97
786.12	231.91
786.45	231.84
786.77	231.75
787.09	231.65
787.42	231.57
787.74	231.52
788.06	231.50
788.38	231.46
788.71	231.42
789.03	231.40
789.35	231.39
789.67	231.33
789.99	231.31
790.32	231.24
790.64	231.21
790.96	231.25
791.28	231.17
791.61	231.12
791.93	231.08
792.25	231.04
792.57	231.03
792.89	230.93
793.21	230.91
793.54	230.86
793.86	230.81
794.18	230.81
794.50	230.76
794.82	230.70
795.14	230.64
795.47	230.60
795.79	230.55
796.11	230.50
796.43	230.46
796.75	230.43
797.07	230.39
797.39	230.37
797.71	230.25
798.04	230.22
798.36	230.17
798.68	230.12
799.00	230.09
799.32	230.04
799.64	230.09
799.96	230.07
800.28	230.07
800.60	230.06
800.92	229.99
801.24	229.94
801.56	229.90
801.89	229.87
802.21	229.84
802.53	229.77
802.85	229.78
803.17	229.81
803.49	229.76
803.81	229.75
804.13	229.71
804.45	229.69
804.77	229.69
805.09	229.67
805.41	229.64
805.73	229.60
806.05	229.54
806.37	229.47
806.69	229.42
807.01	229.40
807.33	229.39
807.65	229.31
807.97	229.32
808.28	229.31
808.60	229.29
808.92	229.24
809.24	229.29
809.56	229.24
809.88	229.16
810.20	229.12
810.52	229.11
810.84	229.08
811.16	229.05
811.48	229.00
811.80	229.04
812.12	229.00
812.43	228.98
812.75	228.97
813.07	228.92
813.39	228.89
813.71	228.82
814.03	228.78
814.35	228.79
814.67	228.76
814.98	228.75
815.30	228.71
815.62	228.69
815.94	228.60
816.26	228.64
816.58	228.57
816.89	228.55
817.21	228.49
817.53	228.46
817.85	228.45
818.17	228.44
818.48	228.38
818.80	228.39
819.12	228.38
819.44	228.35
819.76	228.34
820.07	228.33
820.39	228.32
820.71	228.30
821.03	228.28
821.34	228.26
821.66	228.22
821.98	228.21
822.30	228.20
822.61	228.27
822.93	228.19
823.25	228.23
823.57	228.21
823.88	228.20
824.20	228.22
824.52	228.16
824.83	228.15
825.15	228.09
825.47	228.09
825.79	228.09
826.10	228.09
826.42	228.09
826.74	228.10
827.05	228.10
827.37	228.11
827.69	228.11
828.00	228.10
828.32	228.10
828.64	228.08
828.95	228.13
829.27	228.10
829.58	228.09
829.90	228.08
830.22	228.08
830.53	228.06
830.85	228.04
831.17	228.03
831.48	228.05
831.80	228.06
832.11	228.06
832.43	228.00
832.75	227.98
833.06	228.01
833.38	227.98
833.69	227.94
834.01	227.94
834.32	227.90
834.64	227.88
834.96	227.89
835.27	227.91
835.59	227.86
835.90	227.83
836.22	227.83
836.53	227.81
836.85	227.80
837.16	227.92
837.48	227.91
837.79	227.95
838.11	227.94
838.42	227.92
838.74	227.90
839.05	227.89
839.37	227.88
839.68	227.82
840.00	227.83
840.31	227.86
840.63	227.82
840.94	227.82
841.26	227.80
841.57	227.81
841.88	227.80
842.20	227.78
842.51	227.76
842.83	227.72
843.14	227.80
843.46	227.79
843.77	227.73
844.08	227.71
844.40	227.68
844.71	227.66
845.03	227.66
845.34	227.64
845.65	227.69
845.97	227.70
846.28	227.68
846.60	227.66
846.91	227.65
847.22	227.65
847.54	227.67
847.85	227.68
848.16	227.64
848.48	227.59
848.79	227.63
849.10	227.64
849.42	227.67
849.73	227.57
850.04	227.52
850.36	227.46
850.67	227.45
850.98	227.47
851.30	227.46
851.61	227.47
851.92	227.47
852.23	227.46
852.55	227.47
852.86	227.49
853.17	227.44
853.49	227.45
853.80	227.49
854.11	227.48
854.42	227.45
854.74	227.42
855.05	227.49
855.36	227.41
855.67	227.38
855.99	227.38
856.30	227.49
856.61	227.48
856.92	227.50
857.23	227.52
857.55	227.49
857.86	227.46
858.17	227.48
858.48	227.45
858.79	227.43
859.11	227.39
859.42	227.38
859.73	227.38
860.04	227.36
860.35	227.32
860.66	227.31
860.98	227.33
861.29	227.37
861.60	227.32
861.91	227.35
862.22	227.36
862.53	227.34
862.84	227.22
863.16	227.29
863.47	227.26
863.78	227.24
864.09	227.25
864.40	227.27
864.71	227.28
865.02	227.27
865.33	227.25
865.64	227.25
865.95	227.27
866.27	227.36
866.58	227.36
866.89	227.39
867.20	227.37
867.51	227.36
867.82	227.34
868.13	227.40
868.44	227.38
868.75	227.40
869.06	227.43
869.37	227.43
869.68	227.39
869.99	227.40
870.30	227.40
870.61	227.42
870.92	227.38
871.23	227.34
871.54	227.37
871.85	227.39
872.16	227.40
872.47	227.39
872.78	227.31
873.09	227.34
873.40	227.32
873.71	227.35
874.02	227.38
874.33	227.36
874.64	227.31
874.95	227.30
875.26	227.27
875.56	227.26
875.87	227.29
876.18	227.30
876.49	227.41
876.80	227.38
877.11	227.36
877.42	227.37
877.73	227.40
878.04	227.39
878.35	227.39
878.66	227.42
878.96	227.40
879.27	227.42
879.58	227.43
879.89	227.40
880.20	227.40
880.51	227.36
880.82	227.38
881.12	227.41
881.43	227.41
881.74	227.42
882.05	227.43
882.36	227.42
882.67	227.39
882.97	227.29
883.28	227.27
883.59	227.26
883.90	227.28
884.21	227.27
884.51	227.27
884.82	227.26
885.13	227.23
885.44	227.23
885.74	227.23
886.05	227.17
886.36	227.18
886.67	227.15
886.98	227.23
887.28	227.20
887.59	227.18
887.90	227.19
888.20	227.17
888.51	227.18
888.82	227.13
889.13	227.16
889.43	227.22
889.74	227.23
890.05	227.23
890.35	227.19
890.66	227.20
890.97	227.19
891.28	227.14
891.58	227.15
891.89	227.15
892.20	227.12
892.50	227.11
892.81	227.11
893.12	227.11
893.42	227.03
893.73	227.05
894.04	227.07
894.34	227.07
894.65	227.05
894.95	227.01
895.26	227.02
895.57	227.04
895.87	226.97
896.18	226.96
896.48	226.96
896.79	226.96
897.10	226.94
897.40	226.94
897.71	226.98
898.01	226.96
898.32	226.95
898.63	226.96
898.93	226.95
899.24	226.94
899.54	226.90
899.85	226.91
900.15	226.90
900.46	226.86
900.76	226.84
901.07	226.81
901.38	226.82
901.68	226.83
901.99	226.80
902.29	226.78
902.60	226.77
902.90	226.74
903.21	226.76
903.51	226.75
903.82	226.76
904.12	226.75
904.43	226.75
904.73	226.73
905.03	226.72
905.34	226.84
905.64	226.87
905.95	226.89
906.25	226.86
906.56	226.84
906.86	226.85
907.17	226.87
907.47	226.90
907.77	226.87
908.08	226.84
908.38	226.82
908.69	226.83
908.99	226.87
909.30	226.92
909.60	226.92
909.90	226.95
910.21	226.92
910.51	226.91
910.81	226.93
911.12	226.96
911.42	226.98
911.73	226.87
912.03	226.86
912.33	226.88
912.64	226.91
912.94	226.90
913.24	226.89
913.55	226.84
913.85	226.85
914.15	226.88
914.46	226.90
914.76	226.91
915.06	226.90
915.37	226.86
915.67	226.84
915.97	226.83
916.27	226.81
916.58	226.83
916.88	226.84
917.18	226.84
917.49	226.93
917.79	226.91
918.09	226.92
918.39	226.96
918.70	226.97
919.00	226.98
919.30	227.04
919.60	227.03
919.91	227.06
920.21	227.06
920.51	227.07
920.81	227.08
921.12	227.09
921.42	227.11
921.72	227.15
922.02	227.17
922.32	227.19
922.63	227.16
922.93	227.18
923.23	227.20
923.53	227.17
923.83	227.09
924.13	227.12
924.44	227.13
924.74	227.15
925.04	227.13
925.34	227.13
925.64	227.08
925.94	227.08
926.24	227.13
926.55	227.09
926.85	227.08
927.15	227.09
927.45	227.10
927.75	227.09
928.05	227.07
928.35	227.04
928.65	227.05
928.95	227.06
929.26	227.01
929.56	227.02
929.86	227.03
930.16	226.99
930.46	226.96
930.76	226.97
931.06	226.87
931.36	226.86
931.66	226.83
931.96	226.84
932.26	226.84
932.56	226.78
932.86	226.80
933.16	226.79
933.46	226.77
933.76	226.73
934.06	226.77
934.36	226.79
934.66	226.78
934.96	226.78
935.26	226.78
935.56	226.81
935.86	226.78
936.16	226.79
936.46	226.80
936.76	226.79
937.06	226.75
937.36	226.81
937.66	226.81
937.96	226.83
938.26	226.79
938.56	226.78
938.86	226.77
939.16	226.79
939.46	226.77
939.76	226.77
940.06	226.79
940.35	226.74
940.65	226.69
940.95	226.71
941.25	226.67
941.55	226.66
941.85	226.65
942.15	226.67
942.45	226.68
942.75	226.68
943.04	226.72
943.34	226.74
943.64	226.73
943.94	226.71
944.24	226.72
944.54	226.75
944.84	226.77
945.13	226.81
945.43	226.80
945.73	226.84
946.03	226.86
946.33	226.86
946.62	226.87
946.92	226.87
947.22	226.88
947.52	226.91
947.82	226.93
948.11	226.93
948.41	226.92
948.71	226.91
949.01	226.91
949.31	226.91
949.60	226.93
949.90	226.94
950.20	226.96
950.50	226.94
950.79	226.96
951.09	226.97
951.39	226.97
951.69	226.99
951.98	227.00
952.28	227.00
952.58	227.00
952.87	227.00
953.17	227.04
953.47	227.08
953.76	227.07
954.06	227.06
954.36	227.05
954.66	227.09
954.95	227.11
955.25	227.12
955.55	227.10
955.84	227.10
956.14	227.10
956.44	227.11
956.73	227.12
957.03	227.15
957.32	227.16
957.62	227.14
957.92	227.15
958.21	227.14
958.51	227.27
958.81	227.26
959.10	227.28
959.40	227.28
959.69	227.23
959.99	227.22
960.29	227.24
960.58	227.23
960.88	227.26
961.17	227.27
961.47	227.27
961.76	227.28
962.06	227.25
962.36	227.23
962.65	227.27
962.95	227.25
963.24	227.17
963.54	227.14
963.83	227.16
964.13	227.16
964.42	227.10
964.72	227.02
965.01	227.02
965.31	227.01
965.60	226.98
965.90	227.03
966.19	226.99
966.49	226.98
966.78	226.96
967.08	226.92
967.37	226.85
967.67	226.84
967.96	226.84
968.26	226.85
968.55	226.84
968.85	226.77
969.14	226.75
969.43	226.78
969.73	226.75
970.02	226.74
970.32	226.72
970.61	226.71
970.91	226.63
971.20	226.60
971.49	226.57
971.79	226.57
972.08	226.53
972.38	226.56
972.67	226.56
972.96	226.58
973.26	226.53
973.55	226.55
973.85	226.53
974.14	226.54
974.43	226.54
974.73	226.53
975.02	226.58
975.31	226.60
975.61	226.58
975.90	226.61
976.19	226.59
976.49	226.58
976.78	226.63
977.07	226.63
977.37	226.64
977.66	226.67
977.95	226.67
978.24	226.67
978.54	226.69
978.83	226.66
979.12	226.65
979.42	226.72
979.71	226.72
980.00	226.72
980.29	226.71
980.59	226.70
980.88	226.73
981.17	226.70
981.46	226.71
981.76	226.70
982.05	226.71
982.34	226.72
982.63	226.77
982.93	226.75
983.22	226.81
983.51	226.82
983.80	226.88
984.09	226.92
984.39	226.95
984.68	226.94
984.97	226.96
985.26	227.00
985.55	226.98
985.85	226.97
986.14	227.04
986.43	227.04
986.72	227.04
987.01	227.02
987.30	227.02
987.59	227.03
987.89	227.02
988.18	227.01
988.47	227.03
988.76	227.02
989.05	227.02
989.34	227.00
989.63	227.05
989.92	226.99
990.22	226.96
990.51	226.94
990.80	226.90
991.09	226.93
991.38	226.96
991.67	226.93
991.96	226.93
992.25	226.91
992.54	226.91
992.83	226.90
993.12	226.89
993.41	226.90
993.70	226.95
993.99	226.98
994.28	227.00
994.58	226.97
994.87	226.97
995.16	226.97
995.45	226.96
995.74	226.90
996.03	226.93
996.32	226.95
996.61	226.95
996.90	226.98
997.19	226.95
997.48	226.94
997.77	226.94
998.06	226.98
998.34	226.98
998.63	226.99
998.92	227.00
999.21	227.01
999.50	227.04
999.79	226.98
1000.08	226.96
1000.37	226.95
1000.66	226.95
1000.95	226.95
1001.24	226.93
1001.53	226.92
1001.82	226.91
1002.11	226.88
1002.40	226.85
1002.68	226.85
1002.97	226.90
1003.26	226.90
1003.55	226.85
1003.84	226.83
1004.13	226.82
1004.42	226.79
1004.71	226.80
1004.99	226.78
1005.28	226.81
1005.57	226.77
1005.86	226.79
1006.15	226.78
1006.44	226.77
1006.72	226.78
1007.01	226.74
1007.30	226.75
1007.59	226.76
1007.88	226.79
1008.17	226.79
1008.45	226.78
1008.74	226.76
1009.03	226.74
1009.32	226.76
1009.60	226.73
1009.89	226.74
1010.18	226.68
1010.47	226.68
1010.76	226.65
1011.04	226.63
1011.33	226.63
1011.62	226.64
1011.91	226.63
1012.19	226.63
1012.48	226.63
1012.77	226.61
1013.05	226.68
1013.34	226.65
1013.63	226.67
1013.92	226.63
1014.20	226.60
1014.49	226.63
1014.78	226.65
1015.06	226.60
1015.35	226.56
1015.64	226.58
1015.92	226.59
1016.21	226.61
1016.50	226.61
1016.78	226.62
1017.07	226.63
1017.36	226.63
1017.64	226.61
1017.93	226.62
1018.22	226.63
1018.50	226.62
1018.79	226.59
1019.08	226.52
1019.36	226.54
1019.65	226.53
1019.93	226.57
1020.22	226.61
1020.51	226.62
1020.79	226.59
1021.08	226.92
1021.36	226.05
1021.65	226.07
1021.94	226.26
1022.22	226.29
1022.51	226.78
1022.79	227.01
1023.08	227.02
1023.36	227.45
1023.65	226.43
>>>>>End Processed Spectral Data<<<<<
