SpectraSuite Data File
++++++++++++++++++++++++++++++++++++
Date: Fri Feb 01 16:30:56 EST 2013
User: group
Dark Spectrum Present: No
Reference Spectrum Present: No
Number of Sampled Component Spectra: 1
Spectrometers: USB2E7196
Integration Time (usec): 35000 (USB2E7196)
Spectra Averaged: 100 (USB2E7196)
Boxcar Smoothing: 10 (USB2E7196)
Correct for Electrical Dark: No (USB2E7196)
Strobe/Lamp Enabled: No (USB2E7196)
Correct for Detector Non-linearity: No (USB2E7196)
Correct for Stray Light: No (USB2E7196)
Number of Pixels in Processed Spectrum: 2048
>>>>>Begin Processed Spectral Data<<<<<
339.09	0.00
339.48	214.03
339.86	215.59
340.24	216.59
340.63	218.06
341.01	220.58
341.39	220.95
341.78	222.85
342.16	223.04
342.54	223.98
342.93	212.27
343.31	223.00
343.69	223.55
344.07	224.01
344.46	224.46
344.84	224.81
345.22	225.09
345.60	225.35
345.99	225.50
346.37	225.66
346.75	225.75
347.13	225.84
347.52	225.91
347.90	225.97
348.28	226.01
348.66	226.08
349.05	226.10
349.43	226.14
349.81	226.19
350.19	226.23
350.57	226.32
350.96	226.38
351.34	226.43
351.72	226.50
352.10	226.62
352.48	226.70
352.87	226.80
353.25	226.85
353.63	226.90
354.01	226.98
354.39	227.04
354.77	227.14
355.15	227.25
355.54	227.26
355.92	227.27
356.30	227.35
356.68	227.46
357.06	227.56
357.44	227.61
357.82	227.67
358.20	227.76
358.58	227.81
358.97	227.86
359.35	227.96
359.73	228.05
360.11	228.08
360.49	228.11
360.87	228.17
361.25	228.24
361.63	228.31
362.01	228.36
362.39	228.40
362.77	228.43
363.15	228.43
363.53	228.50
363.91	228.56
364.29	228.56
364.67	228.50
365.05	228.51
365.43	228.52
365.81	228.54
366.19	228.59
366.57	228.60
366.95	228.60
367.33	228.57
367.71	228.57
368.09	228.56
368.47	228.54
368.85	228.49
369.23	228.49
369.61	228.46
369.99	228.45
370.37	228.42
370.75	228.45
371.13	228.38
371.51	228.35
371.89	228.32
372.27	228.28
372.65	228.24
373.03	228.14
373.41	228.12
373.78	228.05
374.16	227.90
374.54	227.85
374.92	227.79
375.30	227.74
375.68	227.61
376.06	227.54
376.44	227.46
376.82	227.41
377.19	227.31
377.57	227.21
377.95	227.10
378.33	227.01
378.71	226.87
379.09	226.79
379.47	226.69
379.84	226.57
380.22	226.47
380.60	226.39
380.98	226.38
381.36	226.30
381.73	226.23
382.11	226.24
382.49	226.15
382.87	226.07
383.25	226.00
383.62	226.07
384.00	226.00
384.38	225.94
384.76	225.93
385.13	225.90
385.51	225.85
385.89	225.77
386.27	225.75
386.64	225.73
387.02	225.71
387.40	225.66
387.78	225.68
388.15	225.69
388.53	225.61
388.91	225.57
389.29	225.52
389.66	225.46
390.04	225.41
390.42	225.40
390.79	225.39
391.17	225.38
391.55	225.23
391.92	225.22
392.30	225.24
392.68	225.19
393.05	225.20
393.43	225.23
393.81	225.26
394.18	225.25
394.56	225.27
394.94	225.33
395.31	225.36
395.69	225.38
396.06	225.40
396.44	225.45
396.82	225.47
397.19	225.56
397.57	225.65
397.95	225.70
398.32	225.70
398.70	225.72
399.07	225.82
399.45	225.89
399.82	225.99
400.20	225.99
400.58	226.08
400.95	226.09
401.33	226.17
401.70	226.32
402.08	226.39
402.45	226.48
402.83	226.59
403.20	226.70
403.58	226.80
403.95	226.92
404.33	227.06
404.71	227.20
405.08	227.40
405.46	227.50
405.83	227.67
406.21	227.85
406.58	228.03
406.96	228.16
407.33	228.36
407.70	228.54
408.08	228.88
408.45	229.09
408.83	229.33
409.20	229.56
409.58	229.71
409.95	230.00
410.33	230.28
410.70	230.49
411.08	230.79
411.45	231.10
411.82	231.38
412.20	231.76
412.57	232.15
412.95	232.39
413.32	232.84
413.69	233.23
414.07	233.66
414.44	234.15
414.82	234.66
415.19	235.22
415.56	235.74
415.94	236.26
416.31	236.91
416.68	237.55
417.06	238.26
417.43	238.97
417.81	239.71
418.18	240.50
418.55	241.33
418.93	242.21
419.30	243.10
419.67	244.06
420.04	244.98
420.42	245.97
420.79	247.17
421.16	248.29
421.54	249.46
421.91	250.67
422.28	251.92
422.66	253.21
423.03	254.50
423.40	255.82
423.77	257.23
424.15	258.59
424.52	260.07
424.89	261.65
425.26	263.21
425.64	264.69
426.01	266.21
426.38	267.87
426.75	269.53
427.13	271.24
427.50	273.01
427.87	274.89
428.24	276.73
428.61	278.45
428.99	280.37
429.36	282.46
429.73	284.52
430.10	286.51
430.47	288.58
430.85	290.67
431.22	292.90
431.59	295.26
431.96	297.51
432.33	299.99
432.70	302.38
433.08	305.17
433.45	307.73
433.82	310.38
434.19	313.27
434.56	316.06
434.93	318.71
435.30	321.35
435.68	324.23
436.05	327.07
436.42	329.84
436.79	332.35
437.16	335.04
437.53	337.84
437.90	340.62
438.27	343.35
438.64	346.16
439.01	348.77
439.38	351.00
439.75	353.14
440.13	355.60
440.50	357.91
440.87	359.69
441.24	361.60
441.61	363.76
441.98	365.18
442.35	366.97
442.72	368.78
443.09	370.54
443.46	371.55
443.83	372.16
444.20	372.66
444.57	373.52
444.94	373.85
445.31	374.15
445.68	374.50
446.05	374.55
446.42	374.16
446.79	373.72
447.16	373.25
447.53	372.97
447.90	371.81
448.27	370.67
448.64	369.14
449.01	368.05
449.37	366.10
449.74	364.28
450.11	362.05
450.48	359.62
450.85	357.14
451.22	354.96
451.59	352.93
451.96	351.03
452.33	348.41
452.70	346.06
453.07	343.30
453.43	340.40
453.80	337.63
454.17	335.02
454.54	332.46
454.91	329.79
455.28	327.11
455.65	324.63
456.02	322.19
456.38	320.06
456.75	317.44
457.12	315.20
457.49	312.98
457.86	310.81
458.23	308.97
458.59	306.92
458.96	304.88
459.33	303.02
459.70	301.16
460.07	299.69
460.43	297.98
460.80	296.36
461.17	294.99
461.54	293.54
461.91	292.14
462.27	290.71
462.64	289.47
463.01	288.11
463.38	286.81
463.74	285.43
464.11	284.29
464.48	283.28
464.85	282.17
465.21	281.29
465.58	280.39
465.95	279.28
466.32	278.39
466.68	277.53
467.05	276.63
467.42	275.75
467.78	274.79
468.15	273.88
468.52	273.23
468.88	272.37
469.25	271.58
469.62	270.96
469.98	270.34
470.35	269.74
470.72	269.19
471.08	268.54
471.45	268.05
471.82	267.47
472.18	266.84
472.55	266.43
472.92	265.96
473.28	265.50
473.65	265.09
474.02	264.66
474.38	264.26
474.75	263.93
475.11	263.60
475.48	263.38
475.85	263.16
476.21	262.95
476.58	262.78
476.94	262.66
477.31	262.46
477.67	262.30
478.04	262.19
478.41	262.10
478.77	262.17
479.14	262.09
479.50	262.12
479.87	262.23
480.23	262.35
480.60	262.40
480.96	262.48
481.33	262.69
481.69	262.91
482.06	263.16
482.42	263.39
482.79	263.68
483.15	264.01
483.52	264.42
483.88	264.75
484.25	265.12
484.61	265.53
484.98	266.01
485.34	266.56
485.71	267.18
486.07	267.83
486.44	268.40
486.80	269.16
487.17	269.86
487.53	270.67
487.90	271.48
488.26	272.45
488.62	273.45
488.99	274.42
489.35	275.46
489.72	276.55
490.08	277.74
490.44	278.95
490.81	280.25
491.17	281.60
491.54	283.09
491.90	284.63
492.26	286.29
492.63	288.06
492.99	289.86
493.36	291.73
493.72	293.75
494.08	295.87
494.45	298.11
494.81	300.47
495.17	302.90
495.54	305.48
495.90	308.11
496.26	310.93
496.63	313.93
496.99	317.04
497.35	320.33
497.72	323.71
498.08	327.23
498.44	330.92
498.80	334.84
499.17	338.96
499.53	343.14
499.89	347.54
500.26	351.99
500.62	356.66
500.98	361.62
501.34	366.71
501.71	372.01
502.07	377.47
502.43	383.10
502.79	388.92
503.16	395.00
503.52	401.29
503.88	407.71
504.24	414.33
504.60	421.21
504.97	428.37
505.33	435.73
505.69	443.46
506.05	451.22
506.41	459.09
506.78	467.22
507.14	475.69
507.50	484.41
507.86	493.48
508.22	502.69
508.59	511.91
508.95	521.48
509.31	531.29
509.67	541.38
510.03	551.67
510.39	562.22
510.75	572.98
511.12	583.82
511.48	595.10
511.84	606.55
512.20	618.02
512.56	629.91
512.92	642.14
513.28	654.45
513.64	666.93
514.00	679.64
514.37	692.54
514.73	705.55
515.09	718.50
515.45	731.77
515.81	745.32
516.17	759.30
516.53	773.39
516.89	787.57
517.25	801.67
517.61	816.09
517.97	830.55
518.33	844.90
518.69	859.75
519.05	874.69
519.41	889.69
519.77	905.23
520.13	920.62
520.49	935.84
520.85	951.23
521.21	966.87
521.57	983.05
521.93	998.75
522.29	1015.05
522.65	1031.29
523.01	1047.44
523.37	1063.35
523.73	1079.35
524.09	1095.25
524.45	1111.47
524.81	1128.01
525.17	1144.73
525.53	1161.39
525.89	1178.22
526.25	1195.01
526.61	1211.23
526.97	1228.08
527.33	1244.39
527.68	1260.96
528.04	1277.49
528.40	1294.02
528.76	1311.03
529.12	1327.48
529.48	1344.21
529.84	1360.14
530.20	1376.74
530.56	1393.52
530.91	1410.95
531.27	1427.69
531.63	1444.11
531.99	1460.64
532.35	1476.53
532.71	1492.35
533.07	1508.54
533.42	1524.35
533.78	1540.26
534.14	1556.47
534.50	1571.68
534.86	1587.59
535.21	1602.66
535.57	1618.43
535.93	1633.79
536.29	1648.46
536.65	1663.38
537.00	1677.99
537.36	1693.20
537.72	1707.46
538.08	1721.88
538.44	1735.55
538.79	1749.44
539.15	1763.15
539.51	1776.71
539.87	1791.03
540.22	1804.64
540.58	1818.45
540.94	1831.72
541.29	1844.43
541.65	1857.07
542.01	1870.19
542.37	1882.38
542.72	1894.54
543.08	1906.11
543.44	1918.27
543.79	1929.48
544.15	1940.56
544.51	1952.15
544.87	1963.12
545.22	1973.96
545.58	1984.13
545.94	1993.80
546.29	2003.49
546.65	2013.25
547.01	2022.37
547.36	2030.97
547.72	2039.29
548.07	2046.96
548.43	2055.09
548.79	2063.00
549.14	2070.47
549.50	2077.64
549.86	2085.24
550.21	2092.58
550.57	2099.81
550.92	2106.41
551.28	2113.40
551.64	2120.30
551.99	2126.67
552.35	2132.70
552.70	2138.86
553.06	2144.73
553.41	2151.09
553.77	2157.16
554.13	2163.15
554.48	2169.39
554.84	2174.88
555.19	2180.18
555.55	2185.42
555.90	2189.75
556.26	2194.69
556.61	2199.47
556.97	2203.80
557.32	2207.91
557.68	2212.08
558.03	2216.39
558.39	2220.18
558.74	2224.80
559.10	2228.64
559.45	2232.36
559.81	2236.63
560.16	2240.38
560.52	2243.71
560.87	2246.99
561.23	2249.53
561.58	2252.50
561.94	2255.04
562.29	2257.39
562.64	2260.14
563.00	2262.56
563.35	2266.07
563.71	2269.22
564.06	2272.48
564.42	2275.39
564.77	2277.82
565.12	2280.14
565.48	2281.99
565.83	2283.97
566.19	2285.32
566.54	2286.35
566.89	2287.66
567.25	2288.19
567.60	2289.45
567.96	2291.14
568.31	2292.05
568.66	2293.21
569.02	2293.77
569.37	2294.08
569.72	2295.01
570.08	2295.14
570.43	2295.40
570.78	2294.97
571.14	2293.48
571.49	2292.16
571.84	2291.90
572.20	2290.94
572.55	2289.92
572.90	2288.52
573.26	2287.22
573.61	2285.57
573.96	2283.83
574.31	2280.89
574.67	2278.11
575.02	2274.71
575.37	2271.32
575.72	2267.74
576.08	2264.55
576.43	2261.39
576.78	2257.67
577.13	2254.62
577.49	2251.58
577.84	2248.21
578.19	2244.58
578.54	2241.06
578.90	2236.95
579.25	2231.40
579.60	2226.41
579.95	2221.56
580.30	2216.62
580.66	2211.39
581.01	2206.51
581.36	2201.65
581.71	2197.51
582.06	2193.17
582.42	2188.72
582.77	2183.69
583.12	2179.03
583.47	2174.32
583.82	2169.40
584.17	2164.43
584.53	2158.82
584.88	2153.37
585.23	2147.49
585.58	2142.03
585.93	2136.78
586.28	2131.92
586.63	2126.97
586.98	2121.98
587.34	2117.35
587.69	2112.57
588.04	2107.38
588.39	2101.64
588.74	2095.23
589.09	2089.21
589.44	2082.42
589.79	2076.46
590.14	2070.87
590.49	2064.43
590.84	2058.16
591.19	2052.23
591.54	2045.81
591.89	2038.63
592.25	2031.84
592.60	2024.75
592.95	2017.21
593.30	2009.74
593.65	2002.30
594.00	1995.39
594.35	1988.35
594.70	1980.38
595.05	1973.13
595.40	1965.83
595.75	1958.58
596.10	1952.57
596.45	1945.87
596.80	1939.86
597.15	1933.26
597.50	1926.14
597.85	1919.84
598.19	1913.12
598.54	1905.90
598.89	1899.17
599.24	1893.33
599.59	1886.69
599.94	1880.62
600.29	1874.38
600.64	1867.93
600.99	1860.63
601.34	1853.73
601.69	1846.77
602.04	1839.84
602.39	1832.49
602.74	1825.84
603.08	1819.10
603.43	1812.38
603.78	1805.05
604.13	1797.73
604.48	1790.46
604.83	1783.62
605.18	1776.59
605.53	1768.76
605.87	1760.87
606.22	1753.74
606.57	1745.82
606.92	1738.55
607.27	1731.44
607.62	1724.52
607.96	1717.29
608.31	1710.66
608.66	1703.13
609.01	1695.51
609.36	1687.96
609.70	1679.97
610.05	1671.80
610.40	1664.12
610.75	1655.74
611.10	1648.04
611.44	1639.76
611.79	1631.89
612.14	1623.33
612.49	1614.19
612.83	1605.80
613.18	1597.68
613.53	1589.57
613.88	1580.97
614.22	1572.66
614.57	1564.02
614.92	1555.97
615.27	1548.46
615.61	1540.02
615.96	1532.01
616.31	1524.43
616.65	1517.04
617.00	1509.49
617.35	1501.86
617.70	1493.52
618.04	1485.03
618.39	1476.79
618.74	1469.13
619.08	1460.81
619.43	1453.11
619.78	1446.20
620.12	1438.93
620.47	1431.42
620.82	1423.31
621.16	1415.95
621.51	1408.25
621.85	1400.62
622.20	1391.94
622.55	1383.50
622.89	1375.80
623.24	1368.12
623.59	1360.81
623.93	1353.41
624.28	1346.17
624.62	1338.60
624.97	1331.40
625.32	1324.58
625.66	1317.60
626.01	1310.41
626.35	1302.85
626.70	1295.12
627.04	1287.43
627.39	1279.70
627.73	1272.35
628.08	1265.37
628.43	1258.11
628.77	1250.80
629.12	1243.29
629.46	1236.30
629.81	1228.84
630.15	1221.45
630.50	1214.05
630.84	1205.81
631.19	1197.83
631.53	1190.43
631.88	1182.86
632.22	1175.28
632.57	1167.87
632.91	1160.33
633.26	1152.94
633.60	1145.57
633.95	1138.59
634.29	1131.48
634.64	1124.82
634.98	1117.44
635.32	1110.28
635.67	1103.62
636.01	1097.01
636.36	1090.06
636.70	1083.47
637.05	1076.89
637.39	1070.39
637.73	1063.85
638.08	1057.91
638.42	1051.89
638.77	1045.38
639.11	1038.80
639.45	1032.39
639.80	1025.76
640.14	1019.38
640.49	1012.81
640.83	1006.53
641.17	1000.21
641.52	993.86
641.86	987.38
642.20	981.46
642.55	975.16
642.89	968.72
643.23	962.18
643.58	956.51
643.92	950.41
644.26	944.27
644.61	938.29
644.95	932.32
645.29	925.67
645.64	918.91
645.98	912.51
646.32	906.68
646.66	900.65
647.01	895.01
647.35	889.21
647.69	883.36
648.04	877.84
648.38	871.97
648.72	865.94
649.06	859.83
649.41	853.96
649.75	848.01
650.09	842.05
650.43	836.20
650.78	830.00
651.12	824.03
651.46	818.37
651.80	812.60
652.14	807.23
652.49	801.91
652.83	796.72
653.17	791.09
653.51	785.35
653.85	779.91
654.20	774.21
654.54	768.25
654.88	762.48
655.22	756.55
655.56	750.90
655.90	745.51
656.25	740.26
656.59	734.87
656.93	729.70
657.27	724.47
657.61	719.06
657.95	714.03
658.29	708.99
658.64	703.72
658.98	698.48
659.32	693.01
659.66	687.77
660.00	682.42
660.34	677.46
660.68	672.57
661.02	667.54
661.36	662.82
661.70	658.32
662.05	653.99
662.39	649.73
662.73	645.28
663.07	640.90
663.41	636.41
663.75	631.92
664.09	627.42
664.43	623.05
664.77	618.98
665.11	614.63
665.45	610.48
665.79	606.35
666.13	602.20
666.47	598.04
666.81	593.92
667.15	589.85
667.49	585.97
667.83	582.15
668.17	578.26
668.51	574.19
668.85	570.13
669.19	566.32
669.53	562.45
669.87	558.53
670.21	554.78
670.55	551.19
670.89	547.78
671.23	544.37
671.57	540.84
671.91	537.23
672.25	533.79
672.58	530.19
672.92	526.82
673.26	523.64
673.60	520.50
673.94	517.34
674.28	514.45
674.62	511.40
674.96	508.26
675.30	505.32
675.64	502.40
675.97	499.62
676.31	496.72
676.65	493.82
676.99	491.19
677.33	488.38
677.67	485.59
678.01	482.50
678.34	479.44
678.68	476.60
679.02	473.81
679.36	471.03
679.70	468.33
680.04	465.61
680.37	462.71
680.71	459.95
681.05	457.40
681.39	454.63
681.73	452.08
682.06	449.55
682.40	446.98
682.74	444.44
683.08	441.92
683.42	439.35
683.75	436.83
684.09	434.26
684.43	431.79
684.77	429.34
685.10	427.01
685.44	424.79
685.78	422.47
686.12	420.22
686.45	417.90
686.79	415.63
687.13	413.39
687.46	411.23
687.80	409.04
688.14	406.80
688.48	404.74
688.81	402.47
689.15	400.30
689.49	398.18
689.82	396.09
690.16	394.01
690.50	392.04
690.83	390.07
691.17	388.06
691.51	386.18
691.84	384.31
692.18	382.37
692.52	380.36
692.85	378.43
693.19	376.53
693.52	374.70
693.86	372.92
694.20	371.17
694.53	369.40
694.87	367.53
695.21	365.75
695.54	363.91
695.88	362.16
696.21	360.45
696.55	358.77
696.88	357.06
697.22	355.38
697.56	353.75
697.89	352.11
698.23	350.55
698.56	348.91
698.90	347.31
699.23	345.69
699.57	344.11
699.90	342.57
700.24	340.99
700.58	339.47
700.91	337.93
701.25	336.46
701.58	335.10
701.92	333.77
702.25	332.38
702.59	331.02
702.92	329.72
703.26	328.41
703.59	327.12
703.93	325.94
704.26	324.70
704.60	323.34
704.93	322.06
705.26	320.76
705.60	319.56
705.93	318.38
706.27	317.33
706.60	316.32
706.94	315.25
707.27	314.13
707.61	313.07
707.94	312.01
708.27	310.89
708.61	309.76
708.94	308.75
709.28	307.75
709.61	306.75
709.94	305.81
710.28	304.79
710.61	303.77
710.95	302.67
711.28	301.77
711.61	300.86
711.95	299.93
712.28	298.95
712.61	297.95
712.95	297.03
713.28	296.15
713.61	295.21
713.95	294.29
714.28	293.42
714.61	292.56
714.95	291.72
715.28	290.87
715.61	290.02
715.95	289.16
716.28	288.31
716.61	287.47
716.95	286.62
717.28	285.87
717.61	285.15
717.94	284.44
718.28	283.64
718.61	282.94
718.94	282.24
719.27	281.61
719.61	281.01
719.94	280.35
720.27	279.66
720.60	279.05
720.94	278.43
721.27	277.86
721.60	277.29
721.93	276.73
722.27	276.19
722.60	275.64
722.93	275.08
723.26	274.55
723.59	274.00
723.93	273.44
724.26	272.90
724.59	272.32
724.92	271.79
725.25	271.29
725.59	270.77
725.92	270.30
726.25	269.79
726.58	269.27
726.91	268.78
727.24	268.30
727.57	267.81
727.91	267.32
728.24	266.89
728.57	266.36
728.90	265.91
729.23	265.43
729.56	264.95
729.89	264.52
730.22	264.03
730.55	263.61
730.89	263.20
731.22	262.75
731.55	262.35
731.88	261.92
732.21	261.52
732.54	261.10
732.87	260.70
733.20	260.33
733.53	259.98
733.86	259.62
734.19	259.22
734.52	258.85
734.85	258.53
735.18	258.12
735.51	257.80
735.84	257.41
736.17	257.06
736.50	256.69
736.83	256.43
737.16	256.09
737.49	255.72
737.82	255.37
738.15	255.07
738.48	254.71
738.81	254.42
739.14	254.08
739.47	253.74
739.80	253.40
740.13	253.09
740.46	252.76
740.79	252.39
741.12	252.10
741.45	251.75
741.78	251.39
742.11	251.09
742.44	250.73
742.77	250.43
743.10	250.13
743.43	249.85
743.75	249.49
744.08	249.38
744.41	249.11
744.74	248.82
745.07	248.53
745.40	248.30
745.73	248.01
746.06	247.69
746.39	247.45
746.71	247.17
747.04	246.89
747.37	246.59
747.70	246.34
748.03	246.08
748.36	245.87
748.68	245.64
749.01	245.39
749.34	245.17
749.67	244.95
750.00	244.69
750.33	244.52
750.65	244.28
750.98	243.89
751.31	243.68
751.64	243.44
751.97	243.26
752.29	243.03
752.62	242.75
752.95	242.56
753.28	242.30
753.60	242.13
753.93	241.90
754.26	241.68
754.59	241.50
754.91	241.27
755.24	241.07
755.57	240.87
755.90	240.69
756.22	240.45
756.55	240.22
756.88	240.04
757.20	239.79
757.53	239.58
757.86	239.40
758.19	239.21
758.51	239.06
758.84	238.86
759.17	238.71
759.49	238.56
759.82	238.44
760.15	238.31
760.47	238.11
760.80	237.95
761.13	237.84
761.45	237.68
761.78	237.54
762.11	237.41
762.43	237.25
762.76	237.07
763.08	236.97
763.41	236.86
763.74	236.70
764.06	236.54
764.39	236.41
764.71	236.26
765.04	236.15
765.37	236.00
765.69	235.88
766.02	235.73
766.34	235.61
766.67	235.48
767.00	235.34
767.32	235.30
767.65	235.27
767.97	235.15
768.30	235.03
768.62	234.92
768.95	234.78
769.27	234.68
769.60	234.59
769.92	234.45
770.25	234.35
770.57	234.24
770.90	234.17
771.22	234.10
771.55	234.05
771.87	233.95
772.20	233.88
772.52	233.86
772.85	233.88
773.17	233.80
773.50	233.73
773.82	233.67
774.15	233.54
774.47	233.40
774.80	233.30
775.12	233.24
775.45	233.17
775.77	233.12
776.09	233.07
776.42	233.03
776.74	233.06
777.07	233.02
777.39	232.95
777.72	232.88
778.04	232.83
778.36	232.74
778.69	232.69
779.01	232.63
779.33	232.49
779.66	232.33
779.98	232.25
780.31	232.14
780.63	232.12
780.95	232.09
781.28	232.04
781.60	231.97
781.92	231.93
782.25	231.87
782.57	231.82
782.89	231.75
783.22	231.63
783.54	231.50
783.86	231.43
784.19	231.40
784.51	231.39
784.83	231.30
785.16	231.23
785.48	231.16
785.80	231.11
786.12	231.08
786.45	231.05
786.77	231.00
787.09	230.98
787.42	230.89
787.74	230.80
788.06	230.73
788.38	230.71
788.71	230.63
789.03	230.57
789.35	230.54
789.67	230.49
789.99	230.49
790.32	230.42
790.64	230.37
790.96	230.39
791.28	230.30
791.61	230.25
791.93	230.21
792.25	230.16
792.57	230.19
792.89	230.11
793.21	230.02
793.54	229.99
793.86	229.91
794.18	229.85
794.50	229.83
794.82	229.79
795.14	229.77
795.47	229.75
795.79	229.71
796.11	229.62
796.43	229.56
796.75	229.52
797.07	229.51
797.39	229.47
797.71	229.37
798.04	229.33
798.36	229.29
798.68	229.27
799.00	229.24
799.32	229.15
799.64	229.14
799.96	229.11
800.28	229.07
800.60	229.08
800.92	229.05
801.24	229.00
801.56	228.96
801.89	228.91
802.21	228.87
802.53	228.83
802.85	228.83
803.17	228.85
803.49	228.77
803.81	228.74
804.13	228.71
804.45	228.68
804.77	228.66
805.09	228.62
805.41	228.57
805.73	228.52
806.05	228.48
806.37	228.45
806.69	228.45
807.01	228.42
807.33	228.38
807.65	228.33
807.97	228.36
808.28	228.32
808.60	228.29
808.92	228.22
809.24	228.26
809.56	228.21
809.88	228.14
810.20	228.13
810.52	228.10
810.84	228.06
811.16	228.00
811.48	227.97
811.80	228.00
812.12	227.98
812.43	228.00
812.75	227.96
813.07	227.94
813.39	227.90
813.71	227.90
814.03	227.86
814.35	227.86
814.67	227.81
814.98	227.81
815.30	227.80
815.62	227.82
815.94	227.73
816.26	227.75
816.58	227.74
816.89	227.77
817.21	227.75
817.53	227.78
817.85	227.78
818.17	227.78
818.48	227.74
818.80	227.75
819.12	227.73
819.44	227.71
819.76	227.69
820.07	227.73
820.39	227.72
820.71	227.72
821.03	227.76
821.34	227.72
821.66	227.73
821.98	227.73
822.30	227.71
822.61	227.76
822.93	227.74
823.25	227.72
823.57	227.68
823.88	227.72
824.20	227.69
824.52	227.70
824.83	227.69
825.15	227.69
825.47	227.69
825.79	227.69
826.10	227.70
826.42	227.70
826.74	227.66
827.05	227.64
827.37	227.61
827.69	227.54
828.00	227.53
828.32	227.51
828.64	227.51
828.95	227.56
829.27	227.53
829.58	227.51
829.90	227.52
830.22	227.51
830.53	227.42
830.85	227.45
831.17	227.38
831.48	227.37
831.80	227.32
832.11	227.30
832.43	227.27
832.75	227.27
833.06	227.30
833.38	227.21
833.69	227.23
834.01	227.26
834.32	227.26
834.64	227.24
834.96	227.22
835.27	227.20
835.59	227.13
835.90	227.10
836.22	227.07
836.53	227.04
836.85	227.03
837.16	227.13
837.48	227.07
837.79	227.09
838.11	227.06
838.42	227.07
838.74	227.06
839.05	227.03
839.37	227.00
839.68	226.94
840.00	226.99
840.31	226.93
840.63	226.89
840.94	226.87
841.26	226.85
841.57	226.86
841.88	226.85
842.20	226.84
842.51	226.81
842.83	226.82
843.14	226.91
843.46	226.93
843.77	226.90
844.08	226.88
844.40	226.84
844.71	226.82
845.03	226.81
845.34	226.80
845.65	226.81
845.97	226.79
846.28	226.79
846.60	226.76
846.91	226.78
847.22	226.79
847.54	226.80
847.85	226.78
848.16	226.73
848.48	226.68
848.79	226.72
849.10	226.73
849.42	226.70
849.73	226.61
850.04	226.57
850.36	226.52
850.67	226.54
850.98	226.53
851.30	226.56
851.61	226.54
851.92	226.51
852.23	226.54
852.55	226.53
852.86	226.53
853.17	226.53
853.49	226.54
853.80	226.57
854.11	226.56
854.42	226.55
854.74	226.55
855.05	226.59
855.36	226.54
855.67	226.55
855.99	226.56
856.30	226.66
856.61	226.66
856.92	226.64
857.23	226.65
857.55	226.66
857.86	226.65
858.17	226.66
858.48	226.65
858.79	226.62
859.11	226.66
859.42	226.65
859.73	226.68
860.04	226.63
860.35	226.58
860.66	226.57
860.98	226.60
861.29	226.66
861.60	226.61
861.91	226.67
862.22	226.64
862.53	226.65
862.84	226.55
863.16	226.57
863.47	226.58
863.78	226.57
864.09	226.58
864.40	226.57
864.71	226.57
865.02	226.59
865.33	226.60
865.64	226.55
865.95	226.52
866.27	226.59
866.58	226.60
866.89	226.61
867.20	226.61
867.51	226.56
867.82	226.50
868.13	226.56
868.44	226.49
868.75	226.54
869.06	226.54
869.37	226.54
869.68	226.51
869.99	226.51
870.30	226.51
870.61	226.51
870.92	226.49
871.23	226.50
871.54	226.48
871.85	226.48
872.16	226.49
872.47	226.52
872.78	226.43
873.09	226.43
873.40	226.39
873.71	226.40
874.02	226.42
874.33	226.44
874.64	226.41
874.95	226.44
875.26	226.40
875.56	226.40
875.87	226.39
876.18	226.34
876.49	226.41
876.80	226.41
877.11	226.39
877.42	226.39
877.73	226.35
878.04	226.34
878.35	226.36
878.66	226.35
878.96	226.32
879.27	226.32
879.58	226.32
879.89	226.33
880.20	226.35
880.51	226.34
880.82	226.32
881.12	226.31
881.43	226.29
881.74	226.27
882.05	226.25
882.36	226.24
882.67	226.29
882.97	226.21
883.28	226.19
883.59	226.20
883.90	226.20
884.21	226.24
884.51	226.24
884.82	226.22
885.13	226.23
885.44	226.24
885.74	226.25
886.05	226.24
886.36	226.24
886.67	226.19
886.98	226.21
887.28	226.23
887.59	226.23
887.90	226.20
888.20	226.21
888.51	226.21
888.82	226.20
889.13	226.18
889.43	226.26
889.74	226.23
890.05	226.20
890.35	226.18
890.66	226.15
890.97	226.11
891.28	226.09
891.58	226.11
891.89	226.10
892.20	226.10
892.50	226.10
892.81	226.09
893.12	226.10
893.42	226.06
893.73	226.05
894.04	226.06
894.34	226.08
894.65	226.06
894.95	226.08
895.26	226.06
895.57	226.07
895.87	225.97
896.18	226.03
896.48	226.02
896.79	226.06
897.10	226.08
897.40	226.11
897.71	226.12
898.01	226.09
898.32	226.10
898.63	226.08
898.93	226.10
899.24	226.12
899.54	226.11
899.85	226.12
900.15	226.14
900.46	226.13
900.76	226.16
901.07	226.17
901.38	226.15
901.68	226.19
901.99	226.15
902.29	226.19
902.60	226.15
902.90	226.18
903.21	226.15
903.51	226.16
903.82	226.19
904.12	226.22
904.43	226.22
904.73	226.23
905.03	226.21
905.34	226.28
905.64	226.25
905.95	226.27
906.25	226.29
906.56	226.27
906.86	226.23
907.17	226.22
907.47	226.23
907.77	226.21
908.08	226.20
908.38	226.20
908.69	226.21
908.99	226.22
909.30	226.21
909.60	226.22
909.90	226.21
910.21	226.17
910.51	226.15
910.81	226.17
911.12	226.16
911.42	226.17
911.73	226.08
912.03	226.08
912.33	226.08
912.64	226.06
912.94	226.03
913.24	226.03
913.55	226.01
913.85	226.01
914.15	226.01
914.46	226.05
914.76	226.06
915.06	226.04
915.37	226.02
915.67	226.03
915.97	226.03
916.27	226.01
916.58	225.99
916.88	226.01
917.18	226.00
917.49	226.04
917.79	226.04
918.09	226.03
918.39	226.06
918.70	226.06
919.00	226.07
919.30	226.16
919.60	226.12
919.91	226.14
920.21	226.14
920.51	226.13
920.81	226.10
921.12	226.10
921.42	226.11
921.72	226.09
922.02	226.09
922.32	226.08
922.63	226.11
922.93	226.17
923.23	226.12
923.53	226.11
923.83	226.07
924.13	226.05
924.44	226.06
924.74	226.05
925.04	226.07
925.34	226.06
925.64	225.99
925.94	226.02
926.24	226.07
926.55	226.05
926.85	226.07
927.15	226.12
927.45	226.12
927.75	226.13
928.05	226.16
928.35	226.14
928.65	226.17
928.95	226.17
929.26	226.12
929.56	226.17
929.86	226.18
930.16	226.16
930.46	226.15
930.76	226.17
931.06	226.16
931.36	226.16
931.66	226.18
931.96	226.22
932.26	226.24
932.56	226.18
932.86	226.20
933.16	226.20
933.46	226.16
933.76	226.16
934.06	226.17
934.36	226.20
934.66	226.19
934.96	226.18
935.26	226.19
935.56	226.22
935.86	226.18
936.16	226.18
936.46	226.20
936.76	226.21
937.06	226.19
937.36	226.17
937.66	226.14
937.96	226.12
938.26	226.08
938.56	226.07
938.86	226.06
939.16	226.06
939.46	226.06
939.76	226.05
940.06	226.06
940.35	226.03
940.65	225.97
940.95	226.00
941.25	226.00
941.55	225.96
941.85	225.95
942.15	225.95
942.45	225.96
942.75	225.93
943.04	225.93
943.34	225.95
943.64	225.97
943.94	226.01
944.24	226.00
944.54	226.01
944.84	226.00
945.13	225.99
945.43	225.99
945.73	225.99
946.03	226.01
946.33	226.00
946.62	226.00
946.92	226.01
947.22	226.02
947.52	226.02
947.82	226.03
948.11	226.03
948.41	225.99
948.71	225.95
949.01	225.97
949.31	225.96
949.60	225.95
949.90	225.93
950.20	225.86
950.50	225.83
950.79	225.82
951.09	225.83
951.39	225.83
951.69	225.81
951.98	225.80
952.28	225.78
952.58	225.76
952.87	225.74
953.17	225.74
953.47	225.71
953.76	225.68
954.06	225.66
954.36	225.63
954.66	225.67
954.95	225.70
955.25	225.71
955.55	225.70
955.84	225.67
956.14	225.70
956.44	225.75
956.73	225.75
957.03	225.74
957.32	225.74
957.62	225.72
957.92	225.72
958.21	225.74
958.51	225.83
958.81	225.85
959.10	225.85
959.40	225.88
959.69	225.90
959.99	225.94
960.29	225.95
960.58	225.94
960.88	225.94
961.17	225.95
961.47	225.93
961.76	225.94
962.06	225.94
962.36	225.92
962.65	225.92
962.95	225.96
963.24	225.96
963.54	225.98
963.83	226.02
964.13	226.04
964.42	226.03
964.72	225.97
965.01	225.96
965.31	225.96
965.60	225.92
965.90	225.97
966.19	225.91
966.49	225.93
966.78	225.91
967.08	225.93
967.37	225.91
967.67	225.91
967.96	225.96
968.26	225.96
968.55	225.97
968.85	225.92
969.14	225.89
969.43	225.91
969.73	225.88
970.02	225.88
970.32	225.85
970.61	225.83
970.91	225.82
971.20	225.82
971.49	225.82
971.79	225.87
972.08	225.81
972.38	225.87
972.67	225.85
972.96	225.89
973.26	225.87
973.55	225.86
973.85	225.86
974.14	225.83
974.43	225.84
974.73	225.84
975.02	225.87
975.31	225.87
975.61	225.85
975.90	225.85
976.19	225.85
976.49	225.87
976.78	225.90
977.07	225.91
977.37	225.92
977.66	225.92
977.95	225.92
978.24	225.91
978.54	225.91
978.83	225.91
979.12	225.90
979.42	225.88
979.71	225.90
980.00	225.91
980.29	225.90
980.59	225.90
980.88	225.89
981.17	225.88
981.46	225.91
981.76	225.92
982.05	225.97
982.34	225.92
982.63	225.93
982.93	225.88
983.22	225.86
983.51	225.90
983.80	225.90
984.09	225.87
984.39	225.88
984.68	225.83
984.97	225.82
985.26	225.85
985.55	225.85
985.85	225.83
986.14	225.83
986.43	225.85
986.72	225.87
987.01	225.87
987.30	225.87
987.59	225.88
987.89	225.86
988.18	225.79
988.47	225.81
988.76	225.78
989.05	225.82
989.34	225.83
989.63	225.81
989.92	225.81
990.22	225.81
990.51	225.80
990.80	225.78
991.09	225.79
991.38	225.80
991.67	225.78
991.96	225.75
992.25	225.73
992.54	225.71
992.83	225.70
993.12	225.70
993.41	225.71
993.70	225.71
993.99	225.70
994.28	225.76
994.58	225.77
994.87	225.76
995.16	225.73
995.45	225.73
995.74	225.67
996.03	225.64
996.32	225.64
996.61	225.69
996.90	225.68
997.19	225.68
997.48	225.67
997.77	225.69
998.06	225.73
998.34	225.75
998.63	225.74
998.92	225.73
999.21	225.76
999.50	225.76
999.79	225.74
1000.08	225.74
1000.37	225.72
1000.66	225.72
1000.95	225.73
1001.24	225.77
1001.53	225.76
1001.82	225.81
1002.11	225.81
1002.40	225.80
1002.68	225.79
1002.97	225.89
1003.26	225.86
1003.55	225.84
1003.84	225.84
1004.13	225.88
1004.42	225.87
1004.71	225.85
1004.99	225.86
1005.28	225.85
1005.57	225.86
1005.86	225.84
1006.15	225.85
1006.44	225.82
1006.72	225.84
1007.01	225.88
1007.30	225.84
1007.59	225.84
1007.88	225.83
1008.17	225.88
1008.45	225.86
1008.74	225.83
1009.03	225.76
1009.32	225.80
1009.60	225.82
1009.89	225.79
1010.18	225.74
1010.47	225.75
1010.76	225.76
1011.04	225.74
1011.33	225.76
1011.62	225.73
1011.91	225.72
1012.19	225.72
1012.48	225.74
1012.77	225.73
1013.05	225.74
1013.34	225.75
1013.63	225.74
1013.92	225.75
1014.20	225.72
1014.49	225.75
1014.78	225.74
1015.06	225.72
1015.35	225.73
1015.64	225.73
1015.92	225.74
1016.21	225.72
1016.50	225.70
1016.78	225.71
1017.07	225.73
1017.36	225.69
1017.64	225.71
1017.93	225.74
1018.22	225.73
1018.50	225.75
1018.79	225.75
1019.08	225.73
1019.36	225.71
1019.65	225.70
1019.93	225.72
1020.22	225.74
1020.51	225.74
1020.79	225.78
1021.08	225.46
1021.36	226.18
1021.65	226.13
1021.94	225.81
1022.22	225.54
1022.51	225.40
1022.79	226.17
1023.08	226.13
1023.36	226.24
1023.65	225.97
>>>>>End Processed Spectral Data<<<<<
