SpectraSuite Data File
++++++++++++++++++++++++++++++++++++
Date: Fri Feb 01 16:38:05 EST 2013
User: group
Dark Spectrum Present: No
Reference Spectrum Present: No
Number of Sampled Component Spectra: 1
Spectrometers: USB2E7196
Integration Time (usec): 35000 (USB2E7196)
Spectra Averaged: 100 (USB2E7196)
Boxcar Smoothing: 10 (USB2E7196)
Correct for Electrical Dark: No (USB2E7196)
Strobe/Lamp Enabled: No (USB2E7196)
Correct for Detector Non-linearity: No (USB2E7196)
Correct for Stray Light: No (USB2E7196)
Number of Pixels in Processed Spectrum: 2048
>>>>>Begin Processed Spectral Data<<<<<
339.09	0.00
339.48	213.68
339.86	215.64
340.24	216.56
340.63	218.69
341.01	220.41
341.39	221.44
341.78	222.16
342.16	223.41
342.54	224.65
342.93	212.38
343.31	223.08
343.69	223.65
344.07	224.09
344.46	224.55
344.84	224.92
345.22	225.18
345.60	225.39
345.99	225.59
346.37	225.70
346.75	225.76
347.13	225.80
347.52	225.85
347.90	225.94
348.28	225.96
348.66	226.01
349.05	225.99
349.43	226.04
349.81	226.05
350.19	226.06
350.57	226.10
350.96	226.17
351.34	226.24
351.72	226.32
352.10	226.43
352.48	226.48
352.87	226.51
353.25	226.56
353.63	226.61
354.01	226.66
354.39	226.75
354.77	226.82
355.15	226.88
355.54	226.96
355.92	226.97
356.30	227.03
356.68	227.15
357.06	227.26
357.44	227.28
357.82	227.35
358.20	227.39
358.58	227.48
358.97	227.55
359.35	227.66
359.73	227.73
360.11	227.78
360.49	227.83
360.87	227.89
361.25	227.98
361.63	228.08
362.01	228.11
362.39	228.11
362.77	228.18
363.15	228.27
363.53	228.27
363.91	228.29
364.29	228.32
364.67	228.27
365.05	228.26
365.43	228.33
365.81	228.36
366.19	228.42
366.57	228.48
366.95	228.47
367.33	228.47
367.71	228.44
368.09	228.44
368.47	228.42
368.85	228.43
369.23	228.41
369.61	228.37
369.99	228.37
370.37	228.38
370.75	228.37
371.13	228.32
371.51	228.30
371.89	228.33
372.27	228.31
372.65	228.26
373.03	228.23
373.41	228.16
373.78	228.10
374.16	228.00
374.54	227.91
374.92	227.85
375.30	227.78
375.68	227.73
376.06	227.67
376.44	227.61
376.82	227.50
377.19	227.43
377.57	227.35
377.95	227.27
378.33	227.20
378.71	227.08
379.09	227.00
379.47	226.98
379.84	226.87
380.22	226.81
380.60	226.75
380.98	226.65
381.36	226.56
381.73	226.48
382.11	226.47
382.49	226.41
382.87	226.32
383.25	226.28
383.62	226.32
384.00	226.23
384.38	226.16
384.76	226.13
385.13	226.12
385.51	226.07
385.89	226.00
386.27	225.98
386.64	225.94
387.02	225.91
387.40	225.81
387.78	225.76
388.15	225.69
388.53	225.65
388.91	225.62
389.29	225.61
389.66	225.61
390.04	225.58
390.42	225.58
390.79	225.58
391.17	225.53
391.55	225.40
391.92	225.39
392.30	225.43
392.68	225.39
393.05	225.36
393.43	225.36
393.81	225.40
394.18	225.34
394.56	225.38
394.94	225.38
395.31	225.41
395.69	225.45
396.06	225.49
396.44	225.52
396.82	225.53
397.19	225.57
397.57	225.60
397.95	225.61
398.32	225.60
398.70	225.65
399.07	225.72
399.45	225.77
399.82	225.86
400.20	225.88
400.58	225.94
400.95	225.98
401.33	226.05
401.70	226.12
402.08	226.22
402.45	226.27
402.83	226.39
403.20	226.48
403.58	226.54
403.95	226.67
404.33	226.76
404.71	226.92
405.08	227.10
405.46	227.19
405.83	227.32
406.21	227.45
406.58	227.57
406.96	227.71
407.33	227.89
407.70	228.04
408.08	228.28
408.45	228.53
408.83	228.75
409.20	228.95
409.58	229.16
409.95	229.41
410.33	229.65
410.70	229.90
411.08	230.20
411.45	230.53
411.82	230.81
412.20	231.17
412.57	231.54
412.95	231.84
413.32	232.28
413.69	232.69
414.07	233.15
414.44	233.67
414.82	234.14
415.19	234.68
415.56	235.25
415.94	235.83
416.31	236.46
416.68	237.09
417.06	237.83
417.43	238.51
417.81	239.28
418.18	240.09
418.55	240.91
418.93	241.79
419.30	242.67
419.67	243.64
420.04	244.63
420.42	245.63
420.79	246.82
421.16	247.97
421.54	249.16
421.91	250.36
422.28	251.62
422.66	252.99
423.03	254.31
423.40	255.62
423.77	257.03
424.15	258.46
424.52	259.95
424.89	261.53
425.26	263.13
425.64	264.58
426.01	266.19
426.38	267.84
426.75	269.52
427.13	271.30
427.50	273.11
427.87	274.94
428.24	276.82
428.61	278.58
428.99	280.51
429.36	282.59
429.73	284.64
430.10	286.60
430.47	288.62
430.85	290.71
431.22	292.88
431.59	295.22
431.96	297.46
432.33	299.90
432.70	302.31
433.08	305.05
433.45	307.64
433.82	310.21
434.19	313.07
434.56	315.86
434.93	318.45
435.30	321.04
435.68	323.93
436.05	326.70
436.42	329.50
436.79	332.04
437.16	334.73
437.53	337.57
437.90	340.36
438.27	343.11
438.64	345.91
439.01	348.55
439.38	350.74
439.75	352.89
440.13	355.41
440.50	357.70
440.87	359.55
441.24	361.51
441.61	363.65
441.98	365.16
442.35	366.93
442.72	368.72
443.09	370.51
443.46	371.45
443.83	372.02
444.20	372.47
444.57	373.23
444.94	373.52
445.31	373.82
445.68	374.20
446.05	374.28
446.42	373.92
446.79	373.47
447.16	373.08
447.53	372.75
447.90	371.58
448.27	370.45
448.64	368.90
449.01	367.74
449.37	365.81
449.74	363.94
450.11	361.72
450.48	359.32
450.85	356.77
451.22	354.64
451.59	352.66
451.96	350.74
452.33	348.14
452.70	345.78
453.07	342.96
453.43	340.06
453.80	337.30
454.17	334.65
454.54	332.14
454.91	329.41
455.28	326.75
455.65	324.27
456.02	321.83
456.38	319.65
456.75	317.02
457.12	314.76
457.49	312.52
457.86	310.36
458.23	308.50
458.59	306.53
458.96	304.49
459.33	302.60
459.70	300.70
460.07	299.24
460.43	297.59
460.80	295.97
461.17	294.55
461.54	293.06
461.91	291.65
462.27	290.22
462.64	288.99
463.01	287.69
463.38	286.41
463.74	285.02
464.11	283.91
464.48	282.92
464.85	281.82
465.21	280.98
465.58	280.06
465.95	279.00
466.32	278.07
466.68	277.17
467.05	276.36
467.42	275.53
467.78	274.62
468.15	273.75
468.52	273.08
468.88	272.24
469.25	271.49
469.62	270.87
469.98	270.22
470.35	269.64
470.72	269.04
471.08	268.40
471.45	267.91
471.82	267.38
472.18	266.77
472.55	266.34
472.92	265.87
473.28	265.45
473.65	265.00
474.02	264.60
474.38	264.26
474.75	263.94
475.11	263.62
475.48	263.36
475.85	263.13
476.21	262.95
476.58	262.78
476.94	262.64
477.31	262.48
477.67	262.33
478.04	262.20
478.41	262.14
478.77	262.19
479.14	262.12
479.50	262.16
479.87	262.26
480.23	262.34
480.60	262.38
480.96	262.47
481.33	262.67
481.69	262.88
482.06	263.09
482.42	263.28
482.79	263.53
483.15	263.84
483.52	264.21
483.88	264.57
484.25	264.94
484.61	265.39
484.98	265.87
485.34	266.47
485.71	267.04
486.07	267.69
486.44	268.22
486.80	268.92
487.17	269.66
487.53	270.44
487.90	271.31
488.26	272.26
488.62	273.24
488.99	274.21
489.35	275.25
489.72	276.36
490.08	277.60
490.44	278.84
490.81	280.16
491.17	281.52
491.54	282.99
491.90	284.54
492.26	286.17
492.63	287.91
492.99	289.65
493.36	291.57
493.72	293.61
494.08	295.74
494.45	297.97
494.81	300.27
495.17	302.69
495.54	305.30
495.90	307.97
496.26	310.78
496.63	313.78
496.99	316.88
497.35	320.16
497.72	323.55
498.08	327.08
498.44	330.76
498.80	334.69
499.17	338.77
499.53	342.95
499.89	347.31
500.26	351.83
500.62	356.54
500.98	361.52
501.34	366.54
501.71	371.87
502.07	377.32
502.43	382.99
502.79	388.89
503.16	394.96
503.52	401.22
503.88	407.61
504.24	414.25
504.60	421.16
504.97	428.33
505.33	435.62
505.69	443.33
506.05	451.17
506.41	459.06
506.78	467.17
507.14	475.65
507.50	484.36
507.86	493.37
508.22	502.55
508.59	511.73
508.95	521.39
509.31	531.24
509.67	541.40
510.03	551.66
510.39	562.12
510.75	572.88
511.12	583.83
511.48	595.13
511.84	606.55
512.20	618.00
512.56	629.95
512.92	642.05
513.28	654.33
513.64	666.73
514.00	679.41
514.37	692.29
514.73	705.30
515.09	718.31
515.45	731.52
515.81	745.03
516.17	758.95
516.53	772.93
516.89	787.03
517.25	801.10
517.61	815.47
517.97	829.95
518.33	844.28
518.69	859.04
519.05	873.97
519.41	889.05
519.77	904.52
520.13	919.82
520.49	935.26
520.85	950.65
521.21	966.21
521.57	982.37
521.93	998.04
522.29	1014.32
522.65	1030.55
523.01	1046.72
523.37	1062.76
523.73	1078.82
524.09	1094.91
524.45	1111.13
524.81	1127.72
525.17	1144.41
525.53	1161.14
525.89	1177.97
526.25	1194.64
526.61	1210.93
526.97	1227.57
527.33	1244.08
527.68	1260.54
528.04	1276.83
528.40	1293.27
528.76	1310.36
529.12	1326.84
529.48	1343.63
529.84	1359.49
530.20	1376.06
530.56	1392.84
530.91	1410.07
531.27	1426.80
531.63	1443.21
531.99	1459.60
532.35	1475.45
532.71	1491.19
533.07	1507.35
533.42	1523.30
533.78	1539.39
534.14	1555.49
534.50	1570.73
534.86	1586.40
535.21	1601.45
535.57	1617.28
535.93	1632.65
536.29	1647.22
536.65	1662.06
537.00	1676.64
537.36	1691.88
537.72	1706.02
538.08	1720.42
538.44	1734.04
538.79	1747.77
539.15	1761.08
539.51	1774.70
539.87	1788.80
540.22	1802.35
540.58	1815.83
540.94	1828.66
541.29	1841.06
541.65	1853.57
542.01	1866.58
542.37	1878.64
542.72	1890.93
543.08	1902.58
543.44	1914.69
543.79	1925.81
544.15	1936.63
544.51	1948.18
544.87	1959.01
545.22	1969.83
545.58	1979.95
545.94	1989.58
546.29	1999.32
546.65	2009.19
547.01	2018.40
547.36	2027.06
547.72	2035.51
548.07	2043.57
548.43	2051.77
548.79	2059.76
549.14	2067.35
549.50	2074.63
549.86	2082.22
550.21	2089.47
550.57	2096.60
550.92	2103.28
551.28	2110.29
551.64	2117.40
551.99	2123.83
552.35	2130.03
552.70	2136.13
553.06	2142.08
553.41	2148.48
553.77	2154.38
554.13	2160.40
554.48	2166.37
554.84	2171.96
555.19	2177.15
555.55	2182.24
555.90	2186.78
556.26	2191.85
556.61	2196.41
556.97	2200.83
557.32	2205.18
557.68	2209.39
558.03	2213.76
558.39	2217.42
558.74	2221.99
559.10	2225.80
559.45	2229.34
559.81	2233.47
560.16	2237.37
560.52	2240.59
560.87	2243.96
561.23	2246.64
561.58	2249.49
561.94	2252.19
562.29	2254.34
562.64	2257.28
563.00	2259.77
563.35	2263.23
563.71	2266.39
564.06	2269.70
564.42	2272.52
564.77	2275.02
565.12	2277.46
565.48	2279.36
565.83	2281.44
566.19	2282.89
566.54	2283.70
566.89	2285.15
567.25	2285.98
567.60	2287.23
567.96	2288.96
568.31	2289.82
568.66	2291.10
569.02	2291.73
569.37	2292.20
569.72	2293.33
570.08	2293.57
570.43	2293.62
570.78	2293.16
571.14	2291.65
571.49	2290.29
571.84	2289.88
572.20	2288.87
572.55	2287.65
572.90	2286.02
573.26	2284.57
573.61	2282.73
573.96	2281.28
574.31	2278.30
574.67	2275.24
575.02	2271.72
575.37	2268.37
575.72	2264.63
576.08	2261.15
576.43	2257.87
576.78	2254.19
577.13	2250.78
577.49	2247.36
577.84	2244.05
578.19	2240.25
578.54	2236.69
578.90	2232.68
579.25	2227.22
579.60	2222.37
579.95	2217.59
580.30	2212.69
580.66	2207.59
581.01	2202.68
581.36	2197.80
581.71	2193.73
582.06	2189.50
582.42	2185.14
582.77	2180.09
583.12	2175.66
583.47	2171.24
583.82	2166.50
584.17	2161.32
584.53	2156.01
584.88	2150.61
585.23	2145.00
585.58	2139.68
585.93	2134.22
586.28	2129.26
586.63	2124.42
586.98	2119.35
587.34	2114.56
587.69	2109.72
588.04	2104.55
588.39	2099.16
588.74	2092.63
589.09	2086.52
589.44	2079.69
589.79	2073.47
590.14	2067.77
590.49	2061.27
590.84	2054.76
591.19	2048.65
591.54	2042.14
591.89	2034.98
592.25	2028.45
592.60	2021.24
592.95	2013.77
593.30	2006.61
593.65	1999.16
594.00	1992.03
594.35	1984.74
594.70	1976.71
595.05	1969.66
595.40	1962.37
595.75	1954.87
596.10	1949.01
596.45	1942.41
596.80	1936.32
597.15	1929.96
597.50	1923.09
597.85	1916.79
598.19	1910.33
598.54	1903.58
598.89	1897.09
599.24	1891.24
599.59	1884.63
599.94	1878.43
600.29	1872.12
600.64	1865.47
600.99	1858.30
601.34	1851.63
601.69	1844.64
602.04	1837.96
602.39	1830.56
602.74	1823.84
603.08	1817.22
603.43	1810.36
603.78	1803.04
604.13	1796.02
604.48	1788.83
604.83	1782.08
605.18	1775.16
605.53	1767.26
605.87	1759.12
606.22	1751.85
606.57	1743.82
606.92	1736.24
607.27	1729.07
607.62	1722.27
607.96	1715.00
608.31	1708.43
608.66	1700.92
609.01	1693.63
609.36	1686.11
609.70	1678.19
610.05	1670.16
610.40	1662.55
610.75	1654.25
611.10	1646.58
611.44	1638.05
611.79	1629.99
612.14	1621.20
612.49	1612.01
612.83	1603.57
613.18	1595.41
613.53	1587.43
613.88	1578.95
614.22	1570.75
614.57	1562.13
614.92	1554.10
615.27	1546.74
615.61	1538.44
615.96	1530.37
616.31	1522.54
616.65	1515.18
617.00	1507.63
617.35	1499.95
617.70	1491.62
618.04	1483.17
618.39	1474.86
618.74	1467.40
619.08	1459.10
619.43	1451.52
619.78	1444.55
620.12	1437.49
620.47	1430.01
620.82	1421.81
621.16	1414.38
621.51	1406.89
621.85	1399.37
622.20	1390.85
622.55	1382.44
622.89	1374.45
623.24	1366.68
623.59	1359.32
623.93	1351.74
624.28	1344.46
624.62	1337.01
624.97	1329.84
625.32	1322.92
625.66	1316.04
626.01	1308.84
626.35	1301.55
626.70	1293.78
627.04	1286.16
627.39	1278.35
627.73	1271.02
628.08	1264.10
628.43	1256.92
628.77	1249.56
629.12	1242.03
629.46	1234.90
629.81	1227.36
630.15	1220.12
630.50	1212.84
630.84	1204.69
631.19	1196.69
631.53	1189.16
631.88	1181.61
632.22	1173.92
632.57	1166.74
632.91	1159.20
633.26	1151.68
633.60	1144.19
633.95	1137.02
634.29	1129.88
634.64	1123.12
634.98	1115.78
635.32	1108.70
635.67	1101.94
636.01	1095.23
636.36	1088.37
636.70	1081.74
637.05	1075.26
637.39	1068.81
637.73	1062.33
638.08	1056.42
638.42	1050.51
638.77	1044.12
639.11	1037.67
639.45	1031.36
639.80	1024.67
640.14	1018.23
640.49	1011.82
640.83	1005.51
641.17	999.40
641.52	993.14
641.86	986.65
642.20	980.75
642.55	974.36
642.89	968.02
643.23	961.44
643.58	955.77
643.92	949.66
644.26	943.64
644.61	937.65
644.95	931.76
645.29	925.30
645.64	918.53
645.98	912.19
646.32	906.20
646.66	900.16
647.01	894.36
647.35	888.64
647.69	882.75
648.04	877.22
648.38	871.40
648.72	865.49
649.06	859.54
649.41	853.60
649.75	847.71
650.09	841.73
650.43	836.10
650.78	829.91
651.12	823.97
651.46	818.25
651.80	812.59
652.14	807.10
652.49	801.70
652.83	796.61
653.17	790.95
653.51	785.31
653.85	779.90
654.20	774.37
654.54	768.32
654.88	762.57
655.22	756.68
655.56	750.92
655.90	745.33
656.25	740.09
656.59	734.68
656.93	729.59
657.27	724.50
657.61	718.96
657.95	713.83
658.29	708.71
658.64	703.42
658.98	697.98
659.32	692.50
659.66	687.31
660.00	682.05
660.34	677.16
660.68	672.26
661.02	667.18
661.36	662.43
661.70	658.04
662.05	653.69
662.39	649.40
662.73	644.98
663.07	640.67
663.41	636.22
663.75	631.80
664.09	627.22
664.43	622.81
664.77	618.80
665.11	614.57
665.45	610.42
665.79	606.45
666.13	602.44
666.47	598.36
666.81	594.19
667.15	590.00
667.49	586.08
667.83	582.23
668.17	578.32
668.51	574.26
668.85	570.20
669.19	566.30
669.53	562.49
669.87	558.72
670.21	554.96
670.55	551.26
670.89	547.84
671.23	544.41
671.57	540.90
671.91	537.40
672.25	533.86
672.58	530.37
672.92	526.87
673.26	523.69
673.60	520.50
673.94	517.41
674.28	514.50
674.62	511.52
674.96	508.35
675.30	505.46
675.64	502.56
675.97	499.76
676.31	496.88
676.65	493.92
676.99	491.15
677.33	488.30
677.67	485.48
678.01	482.40
678.34	479.43
678.68	476.53
679.02	473.66
679.36	470.90
679.70	468.15
680.04	465.42
680.37	462.52
680.71	459.71
681.05	457.09
681.39	454.41
681.73	451.76
682.06	449.28
682.40	446.68
682.74	444.12
683.08	441.53
683.42	438.97
683.75	436.49
684.09	433.92
684.43	431.50
684.77	429.07
685.10	426.73
685.44	424.43
685.78	422.13
686.12	419.84
686.45	417.54
686.79	415.28
687.13	413.04
687.46	410.89
687.80	408.71
688.14	406.44
688.48	404.35
688.81	402.14
689.15	399.98
689.49	397.86
689.82	395.84
690.16	393.75
690.50	391.79
690.83	389.91
691.17	387.91
691.51	385.96
691.84	384.13
692.18	382.24
692.52	380.24
692.85	378.32
693.19	376.44
693.52	374.58
693.86	372.70
694.20	370.92
694.53	369.10
694.87	367.29
695.21	365.58
695.54	363.73
695.88	361.97
696.21	360.26
696.55	358.59
696.88	356.87
697.22	355.28
697.56	353.61
697.89	351.89
698.23	350.32
698.56	348.72
698.90	347.19
699.23	345.57
699.57	344.00
699.90	342.45
700.24	340.93
700.58	339.46
700.91	338.01
701.25	336.56
701.58	335.23
701.92	333.89
702.25	332.52
702.59	331.19
702.92	329.93
703.26	328.60
703.59	327.32
703.93	326.15
704.26	324.88
704.60	323.63
704.93	322.38
705.26	321.13
705.60	319.92
705.93	318.70
706.27	317.68
706.60	316.65
706.94	315.59
707.27	314.49
707.61	313.44
707.94	312.40
708.27	311.30
708.61	310.15
708.94	309.12
709.28	308.12
709.61	307.17
709.94	306.19
710.28	305.17
710.61	304.17
710.95	303.07
711.28	302.17
711.61	301.19
711.95	300.31
712.28	299.41
712.61	298.46
712.95	297.54
713.28	296.59
713.61	295.76
713.95	294.85
714.28	294.01
714.61	293.11
714.95	292.27
715.28	291.43
715.61	290.59
715.95	289.78
716.28	288.90
716.61	288.04
716.95	287.18
717.28	286.44
717.61	285.63
717.94	284.87
718.28	284.03
718.61	283.33
718.94	282.62
719.27	281.94
719.61	281.27
719.94	280.62
720.27	279.91
720.60	279.18
720.94	278.54
721.27	277.89
721.60	277.30
721.93	276.70
722.27	276.14
722.60	275.62
722.93	275.00
723.26	274.46
723.59	273.89
723.93	273.35
724.26	272.77
724.59	272.22
724.92	271.71
725.25	271.23
725.59	270.71
725.92	270.17
726.25	269.62
726.58	269.10
726.91	268.59
727.24	268.10
727.57	267.59
727.91	267.08
728.24	266.61
728.57	266.10
728.90	265.62
729.23	265.14
729.56	264.67
729.89	264.19
730.22	263.69
730.55	263.21
730.89	262.76
731.22	262.30
731.55	261.90
731.88	261.45
732.21	260.97
732.54	260.50
732.87	260.03
733.20	259.65
733.53	259.26
733.86	258.83
734.19	258.45
734.52	258.06
734.85	257.72
735.18	257.27
735.51	256.93
735.84	256.54
736.17	256.21
736.50	255.80
736.83	255.59
737.16	255.28
737.49	254.95
737.82	254.59
738.15	254.27
738.48	253.88
738.81	253.57
739.14	253.31
739.47	253.00
739.80	252.72
740.13	252.40
740.46	252.08
740.79	251.78
741.12	251.48
741.45	251.20
741.78	250.91
742.11	250.66
742.44	250.33
742.77	250.09
743.10	249.77
743.43	249.50
743.75	249.08
744.08	248.93
744.41	248.66
744.74	248.41
745.07	248.12
745.40	247.92
745.73	247.70
746.06	247.42
746.39	247.18
746.71	246.92
747.04	246.63
747.37	246.36
747.70	246.12
748.03	245.87
748.36	245.66
748.68	245.43
749.01	245.18
749.34	244.98
749.67	244.72
750.00	244.51
750.33	244.33
750.65	244.16
750.98	243.83
751.31	243.61
751.64	243.40
751.97	243.27
752.29	243.04
752.62	242.77
752.95	242.57
753.28	242.34
753.60	242.14
753.93	242.03
754.26	241.84
754.59	241.66
754.91	241.45
755.24	241.25
755.57	241.02
755.90	240.88
756.22	240.66
756.55	240.48
756.88	240.29
757.20	240.06
757.53	239.86
757.86	239.70
758.19	239.56
758.51	239.40
758.84	239.19
759.17	239.04
759.49	238.89
759.82	238.74
760.15	238.63
760.47	238.48
760.80	238.26
761.13	238.13
761.45	237.95
761.78	237.81
762.11	237.66
762.43	237.53
762.76	237.36
763.08	237.25
763.41	237.13
763.74	236.98
764.06	236.84
764.39	236.69
764.71	236.51
765.04	236.34
765.37	236.20
765.69	236.10
766.02	235.95
766.34	235.82
766.67	235.67
767.00	235.54
767.32	235.44
767.65	235.40
767.97	235.29
768.30	235.20
768.62	235.08
768.95	234.96
769.27	234.83
769.60	234.73
769.92	234.60
770.25	234.46
770.57	234.35
770.90	234.27
771.22	234.17
771.55	234.09
771.87	234.01
772.20	233.90
772.52	233.88
772.85	233.90
773.17	233.80
773.50	233.68
773.82	233.58
774.15	233.45
774.47	233.29
774.80	233.18
775.12	233.05
775.45	232.95
775.77	232.86
776.09	232.77
776.42	232.67
776.74	232.62
777.07	232.55
777.39	232.48
777.72	232.40
778.04	232.36
778.36	232.29
778.69	232.19
779.01	232.14
779.33	231.99
779.66	231.82
779.98	231.74
780.31	231.72
780.63	231.69
780.95	231.67
781.28	231.63
781.60	231.61
781.92	231.57
782.25	231.53
782.57	231.48
782.89	231.41
783.22	231.33
783.54	231.25
783.86	231.24
784.19	231.18
784.51	231.11
784.83	231.05
785.16	231.00
785.48	230.98
785.80	230.93
786.12	230.86
786.45	230.85
786.77	230.83
787.09	230.77
787.42	230.67
787.74	230.64
788.06	230.59
788.38	230.54
788.71	230.50
789.03	230.47
789.35	230.44
789.67	230.42
789.99	230.44
790.32	230.40
790.64	230.35
790.96	230.38
791.28	230.30
791.61	230.23
791.93	230.19
792.25	230.14
792.57	230.17
792.89	230.14
793.21	230.03
793.54	229.99
793.86	229.94
794.18	229.94
794.50	229.86
794.82	229.83
795.14	229.76
795.47	229.73
795.79	229.71
796.11	229.69
796.43	229.63
796.75	229.57
797.07	229.52
797.39	229.45
797.71	229.31
798.04	229.30
798.36	229.28
798.68	229.27
799.00	229.24
799.32	229.18
799.64	229.19
799.96	229.17
800.28	229.16
800.60	229.08
800.92	229.07
801.24	229.03
801.56	228.99
801.89	228.96
802.21	228.96
802.53	228.91
802.85	228.90
803.17	228.93
803.49	228.88
803.81	228.85
804.13	228.84
804.45	228.80
804.77	228.81
805.09	228.75
805.41	228.69
805.73	228.63
806.05	228.56
806.37	228.49
806.69	228.48
807.01	228.42
807.33	228.42
807.65	228.34
807.97	228.35
808.28	228.33
808.60	228.29
808.92	228.24
809.24	228.25
809.56	228.19
809.88	228.13
810.20	228.11
810.52	228.12
810.84	228.09
811.16	228.07
811.48	227.99
811.80	228.01
812.12	227.99
812.43	228.01
812.75	227.99
813.07	227.96
813.39	227.91
813.71	227.87
814.03	227.85
814.35	227.84
814.67	227.71
814.98	227.68
815.30	227.68
815.62	227.65
815.94	227.54
816.26	227.55
816.58	227.50
816.89	227.49
817.21	227.42
817.53	227.41
817.85	227.38
818.17	227.40
818.48	227.34
818.80	227.35
819.12	227.32
819.44	227.29
819.76	227.27
820.07	227.27
820.39	227.28
820.71	227.25
821.03	227.21
821.34	227.24
821.66	227.24
821.98	227.25
822.30	227.21
822.61	227.28
822.93	227.21
823.25	227.22
823.57	227.19
823.88	227.25
824.20	227.25
824.52	227.29
824.83	227.24
825.15	227.26
825.47	227.20
825.79	227.19
826.10	227.17
826.42	227.13
826.74	227.14
827.05	227.13
827.37	227.13
827.69	227.15
828.00	227.16
828.32	227.17
828.64	227.13
828.95	227.13
829.27	227.10
829.58	227.12
829.90	227.15
830.22	227.14
830.53	227.11
830.85	227.07
831.17	227.03
831.48	227.07
831.80	227.08
832.11	227.10
832.43	227.09
832.75	227.06
833.06	227.12
833.38	227.08
833.69	227.09
834.01	227.08
834.32	227.07
834.64	227.04
834.96	227.01
835.27	227.00
835.59	227.02
835.90	226.97
836.22	226.97
836.53	226.92
836.85	226.91
837.16	226.97
837.48	226.98
837.79	226.98
838.11	226.97
838.42	226.94
838.74	226.94
839.05	226.92
839.37	226.91
839.68	226.85
840.00	226.83
840.31	226.79
840.63	226.75
840.94	226.74
841.26	226.73
841.57	226.72
841.88	226.73
842.20	226.70
842.51	226.71
842.83	226.68
843.14	226.76
843.46	226.74
843.77	226.66
844.08	226.64
844.40	226.62
844.71	226.62
845.03	226.59
845.34	226.59
845.65	226.59
845.97	226.58
846.28	226.62
846.60	226.62
846.91	226.64
847.22	226.65
847.54	226.68
847.85	226.67
848.16	226.67
848.48	226.64
848.79	226.67
849.10	226.67
849.42	226.69
849.73	226.59
850.04	226.62
850.36	226.60
850.67	226.58
850.98	226.60
851.30	226.55
851.61	226.54
851.92	226.55
852.23	226.59
852.55	226.60
852.86	226.60
853.17	226.60
853.49	226.61
853.80	226.63
854.11	226.64
854.42	226.66
854.74	226.60
855.05	226.62
855.36	226.57
855.67	226.54
855.99	226.53
856.30	226.63
856.61	226.57
856.92	226.57
857.23	226.59
857.55	226.54
857.86	226.58
858.17	226.58
858.48	226.52
858.79	226.46
859.11	226.45
859.42	226.41
859.73	226.36
860.04	226.35
860.35	226.33
860.66	226.29
860.98	226.27
861.29	226.31
861.60	226.27
861.91	226.29
862.22	226.31
862.53	226.28
862.84	226.17
863.16	226.25
863.47	226.21
863.78	226.20
864.09	226.23
864.40	226.23
864.71	226.26
865.02	226.29
865.33	226.29
865.64	226.29
865.95	226.30
866.27	226.38
866.58	226.36
866.89	226.34
867.20	226.33
867.51	226.30
867.82	226.28
868.13	226.32
868.44	226.31
868.75	226.31
869.06	226.34
869.37	226.34
869.68	226.30
869.99	226.33
870.30	226.34
870.61	226.33
870.92	226.32
871.23	226.31
871.54	226.35
871.85	226.38
872.16	226.38
872.47	226.36
872.78	226.31
873.09	226.33
873.40	226.33
873.71	226.33
874.02	226.34
874.33	226.33
874.64	226.31
874.95	226.33
875.26	226.34
875.56	226.31
875.87	226.33
876.18	226.35
876.49	226.43
876.80	226.44
877.11	226.39
877.42	226.42
877.73	226.41
878.04	226.38
878.35	226.37
878.66	226.37
878.96	226.37
879.27	226.34
879.58	226.34
879.89	226.37
880.20	226.41
880.51	226.45
880.82	226.47
881.12	226.45
881.43	226.42
881.74	226.38
882.05	226.39
882.36	226.40
882.67	226.40
882.97	226.29
883.28	226.26
883.59	226.26
883.90	226.25
884.21	226.27
884.51	226.27
884.82	226.23
885.13	226.24
885.44	226.25
885.74	226.31
886.05	226.26
886.36	226.23
886.67	226.22
886.98	226.25
887.28	226.27
887.59	226.30
887.90	226.27
888.20	226.26
888.51	226.30
888.82	226.26
889.13	226.25
889.43	226.35
889.74	226.36
890.05	226.37
890.35	226.35
890.66	226.33
890.97	226.32
891.28	226.33
891.58	226.34
891.89	226.35
892.20	226.32
892.50	226.31
892.81	226.31
893.12	226.29
893.42	226.24
893.73	226.23
894.04	226.25
894.34	226.28
894.65	226.31
894.95	226.27
895.26	226.28
895.57	226.31
895.87	226.22
896.18	226.21
896.48	226.23
896.79	226.23
897.10	226.22
897.40	226.21
897.71	226.22
898.01	226.19
898.32	226.20
898.63	226.20
898.93	226.24
899.24	226.24
899.54	226.23
899.85	226.24
900.15	226.22
900.46	226.20
900.76	226.20
901.07	226.20
901.38	226.19
901.68	226.20
901.99	226.15
902.29	226.16
902.60	226.15
902.90	226.13
903.21	226.12
903.51	226.11
903.82	226.11
904.12	226.09
904.43	226.09
904.73	226.05
905.03	226.03
905.34	226.08
905.64	226.06
905.95	226.05
906.25	226.02
906.56	226.03
906.86	226.00
907.17	225.99
907.47	225.97
907.77	225.94
908.08	225.87
908.38	225.85
908.69	225.80
908.99	225.79
909.30	225.81
909.60	225.81
909.90	225.79
910.21	225.78
910.51	225.78
910.81	225.78
911.12	225.79
911.42	225.81
911.73	225.71
912.03	225.73
912.33	225.73
912.64	225.73
912.94	225.70
913.24	225.71
913.55	225.68
913.85	225.69
914.15	225.73
914.46	225.77
914.76	225.74
915.06	225.77
915.37	225.81
915.67	225.78
915.97	225.75
916.27	225.72
916.58	225.72
916.88	225.70
917.18	225.66
917.49	225.74
917.79	225.74
918.09	225.75
918.39	225.74
918.70	225.75
919.00	225.76
919.30	225.84
919.60	225.81
919.91	225.81
920.21	225.82
920.51	225.77
920.81	225.77
921.12	225.85
921.42	225.84
921.72	225.81
922.02	225.82
922.32	225.88
922.63	225.90
922.93	225.96
923.23	225.97
923.53	226.01
923.83	225.95
924.13	225.94
924.44	225.93
924.74	225.96
925.04	225.97
925.34	225.96
925.64	225.92
925.94	225.95
926.24	226.02
926.55	226.00
926.85	226.05
927.15	226.09
927.45	226.05
927.75	226.05
928.05	226.07
928.35	226.07
928.65	226.06
928.95	226.08
929.26	226.06
929.56	226.10
929.86	226.11
930.16	226.09
930.46	226.10
930.76	226.08
931.06	226.04
931.36	226.02
931.66	226.06
931.96	226.07
932.26	226.10
932.56	226.05
932.86	226.04
933.16	226.05
933.46	226.00
933.76	225.99
934.06	226.02
934.36	226.06
934.66	226.06
934.96	226.05
935.26	226.04
935.56	226.05
935.86	226.02
936.16	225.99
936.46	225.98
936.76	225.98
937.06	226.03
937.36	226.03
937.66	226.04
937.96	226.02
938.26	226.00
938.56	225.95
938.86	225.95
939.16	225.99
939.46	225.95
939.76	225.94
940.06	225.94
940.35	225.94
940.65	225.86
940.95	225.87
941.25	225.86
941.55	225.84
941.85	225.84
942.15	225.87
942.45	225.88
942.75	225.89
943.04	225.88
943.34	225.87
943.64	225.88
943.94	225.87
944.24	225.85
944.54	225.83
944.84	225.84
945.13	225.83
945.43	225.81
945.73	225.80
946.03	225.83
946.33	225.80
946.62	225.78
946.92	225.82
947.22	225.79
947.52	225.80
947.82	225.83
948.11	225.78
948.41	225.76
948.71	225.74
949.01	225.74
949.31	225.73
949.60	225.70
949.90	225.72
950.20	225.69
950.50	225.70
950.79	225.70
951.09	225.69
951.39	225.69
951.69	225.68
951.98	225.72
952.28	225.69
952.58	225.67
952.87	225.67
953.17	225.68
953.47	225.69
953.76	225.67
954.06	225.60
954.36	225.59
954.66	225.57
954.95	225.59
955.25	225.57
955.55	225.62
955.84	225.60
956.14	225.61
956.44	225.61
956.73	225.58
957.03	225.58
957.32	225.59
957.62	225.58
957.92	225.65
958.21	225.67
958.51	225.80
958.81	225.81
959.10	225.82
959.40	225.84
959.69	225.85
959.99	225.86
960.29	225.92
960.58	225.91
960.88	225.98
961.17	225.99
961.47	226.06
961.76	226.05
962.06	226.08
962.36	226.03
962.65	226.06
962.95	226.09
963.24	226.09
963.54	226.11
963.83	226.13
964.13	226.08
964.42	226.03
964.72	225.96
965.01	225.98
965.31	225.99
965.60	225.95
965.90	226.04
966.19	226.02
966.49	226.01
966.78	226.01
967.08	225.99
967.37	225.98
967.67	225.91
967.96	225.90
968.26	225.91
968.55	225.96
968.85	225.94
969.14	225.93
969.43	225.93
969.73	225.92
970.02	225.90
970.32	225.89
970.61	225.90
970.91	225.84
971.20	225.82
971.49	225.79
971.79	225.80
972.08	225.70
972.38	225.72
972.67	225.71
972.96	225.73
973.26	225.71
973.55	225.74
973.85	225.73
974.14	225.73
974.43	225.72
974.73	225.67
975.02	225.66
975.31	225.66
975.61	225.65
975.90	225.63
976.19	225.60
976.49	225.63
976.78	225.64
977.07	225.65
977.37	225.67
977.66	225.72
977.95	225.69
978.24	225.72
978.54	225.73
978.83	225.73
979.12	225.70
979.42	225.68
979.71	225.64
980.00	225.65
980.29	225.63
980.59	225.59
980.88	225.63
981.17	225.63
981.46	225.63
981.76	225.65
982.05	225.65
982.34	225.68
982.63	225.64
982.93	225.64
983.22	225.65
983.51	225.61
983.80	225.59
984.09	225.60
984.39	225.52
984.68	225.49
984.97	225.50
985.26	225.50
985.55	225.51
985.85	225.48
986.14	225.52
986.43	225.56
986.72	225.53
987.01	225.49
987.30	225.48
987.59	225.47
987.89	225.43
988.18	225.40
988.47	225.42
988.76	225.39
989.05	225.39
989.34	225.37
989.63	225.43
989.92	225.41
990.22	225.42
990.51	225.45
990.80	225.42
991.09	225.41
991.38	225.41
991.67	225.38
991.96	225.40
992.25	225.39
992.54	225.38
992.83	225.43
993.12	225.43
993.41	225.44
993.70	225.49
993.99	225.55
994.28	225.58
994.58	225.54
994.87	225.60
995.16	225.62
995.45	225.64
995.74	225.59
996.03	225.63
996.32	225.64
996.61	225.66
996.90	225.69
997.19	225.69
997.48	225.74
997.77	225.72
998.06	225.70
998.34	225.72
998.63	225.70
998.92	225.71
999.21	225.72
999.50	225.74
999.79	225.69
1000.08	225.68
1000.37	225.71
1000.66	225.73
1000.95	225.72
1001.24	225.71
1001.53	225.74
1001.82	225.77
1002.11	225.75
1002.40	225.75
1002.68	225.77
1002.97	225.84
1003.26	225.83
1003.55	225.80
1003.84	225.84
1004.13	225.88
1004.42	225.89
1004.71	225.93
1004.99	225.89
1005.28	225.95
1005.57	225.95
1005.86	225.96
1006.15	225.94
1006.44	225.93
1006.72	225.95
1007.01	225.90
1007.30	225.90
1007.59	225.85
1007.88	225.85
1008.17	225.85
1008.45	225.85
1008.74	225.85
1009.03	225.81
1009.32	225.84
1009.60	225.87
1009.89	225.89
1010.18	225.89
1010.47	225.85
1010.76	225.80
1011.04	225.83
1011.33	225.80
1011.62	225.80
1011.91	225.80
1012.19	225.79
1012.48	225.76
1012.77	225.74
1013.05	225.82
1013.34	225.80
1013.63	225.82
1013.92	225.80
1014.20	225.78
1014.49	225.77
1014.78	225.76
1015.06	225.73
1015.35	225.71
1015.64	225.75
1015.92	225.73
1016.21	225.71
1016.50	225.70
1016.78	225.72
1017.07	225.73
1017.36	225.71
1017.64	225.71
1017.93	225.74
1018.22	225.74
1018.50	225.76
1018.79	225.76
1019.08	225.71
1019.36	225.74
1019.65	225.72
1019.93	225.73
1020.22	225.76
1020.51	225.81
1020.79	225.77
1021.08	225.56
1021.36	225.57
1021.65	225.73
1021.94	225.68
1022.22	225.91
1022.51	225.20
1022.79	225.78
1023.08	226.02
1023.36	226.89
1023.65	224.95
>>>>>End Processed Spectral Data<<<<<
