SpectraSuite Data File
++++++++++++++++++++++++++++++++++++
Date: Fri Feb 01 15:45:08 EST 2013
User: group
Dark Spectrum Present: No
Reference Spectrum Present: No
Number of Sampled Component Spectra: 1
Spectrometers: USB2E7196
Integration Time (usec): 35000 (USB2E7196)
Spectra Averaged: 100 (USB2E7196)
Boxcar Smoothing: 10 (USB2E7196)
Correct for Electrical Dark: No (USB2E7196)
Strobe/Lamp Enabled: No (USB2E7196)
Correct for Detector Non-linearity: No (USB2E7196)
Correct for Stray Light: No (USB2E7196)
Number of Pixels in Processed Spectrum: 2048
>>>>>Begin Processed Spectral Data<<<<<
339.09	0.00
339.48	214.75
339.86	215.57
340.24	217.75
340.63	218.82
341.01	221.49
341.39	221.37
341.78	222.50
342.16	224.15
342.54	224.83
342.93	212.94
343.31	223.71
343.69	224.23
344.07	224.73
344.46	225.16
344.84	225.52
345.22	225.77
345.60	226.04
345.99	226.23
346.37	226.36
346.75	226.46
347.13	226.56
347.52	226.63
347.90	226.75
348.28	226.77
348.66	226.78
349.05	226.79
349.43	226.81
349.81	226.89
350.19	226.98
350.57	227.06
350.96	227.13
351.34	227.20
351.72	227.32
352.10	227.42
352.48	227.50
352.87	227.63
353.25	227.72
353.63	227.83
354.01	227.97
354.39	228.07
354.77	228.17
355.15	228.29
355.54	228.36
355.92	228.40
356.30	228.53
356.68	228.71
357.06	228.79
357.44	228.87
357.82	228.93
358.20	229.01
358.58	229.04
358.97	229.16
359.35	229.28
359.73	229.41
360.11	229.47
360.49	229.55
360.87	229.60
361.25	229.66
361.63	229.71
362.01	229.75
362.39	229.78
362.77	229.80
363.15	229.83
363.53	229.88
363.91	229.91
364.29	229.90
364.67	229.83
365.05	229.87
365.43	229.90
365.81	229.92
366.19	229.95
366.57	230.00
366.95	229.98
367.33	229.93
367.71	229.88
368.09	229.87
368.47	229.83
368.85	229.79
369.23	229.78
369.61	229.70
369.99	229.68
370.37	229.65
370.75	229.65
371.13	229.59
371.51	229.52
371.89	229.47
372.27	229.46
372.65	229.41
373.03	229.39
373.41	229.33
373.78	229.26
374.16	229.14
374.54	229.07
374.92	228.99
375.30	228.89
375.68	228.84
376.06	228.77
376.44	228.71
376.82	228.65
377.19	228.54
377.57	228.45
377.95	228.36
378.33	228.26
378.71	228.13
379.09	228.06
379.47	227.98
379.84	227.90
380.22	227.80
380.60	227.71
380.98	227.58
381.36	227.50
381.73	227.42
382.11	227.38
382.49	227.28
382.87	227.19
383.25	227.13
383.62	227.15
384.00	227.07
384.38	226.97
384.76	226.88
385.13	226.87
385.51	226.83
385.89	226.74
386.27	226.71
386.64	226.69
387.02	226.60
387.40	226.53
387.78	226.50
388.15	226.43
388.53	226.39
388.91	226.35
389.29	226.28
389.66	226.27
390.04	226.20
390.42	226.20
390.79	226.21
391.17	226.21
391.55	226.08
391.92	226.05
392.30	226.05
392.68	226.06
393.05	226.04
393.43	226.04
393.81	226.06
394.18	226.05
394.56	226.06
394.94	226.14
395.31	226.19
395.69	226.23
396.06	226.33
396.44	226.37
396.82	226.43
397.19	226.54
397.57	226.55
397.95	226.63
398.32	226.61
398.70	226.63
399.07	226.69
399.45	226.73
399.82	226.78
400.20	226.86
400.58	226.91
400.95	226.95
401.33	227.06
401.70	227.21
402.08	227.29
402.45	227.39
402.83	227.51
403.20	227.64
403.58	227.73
403.95	227.83
404.33	227.96
404.71	228.06
405.08	228.25
405.46	228.42
405.83	228.59
406.21	228.79
406.58	228.97
406.96	229.16
407.33	229.36
407.70	229.59
408.08	229.85
408.45	230.10
408.83	230.39
409.20	230.57
409.58	230.73
409.95	231.02
410.33	231.33
410.70	231.60
411.08	231.87
411.45	232.21
411.82	232.52
412.20	232.86
412.57	233.29
412.95	233.57
413.32	233.97
413.69	234.35
414.07	234.77
414.44	235.23
414.82	235.68
415.19	236.23
415.56	236.78
415.94	237.35
416.31	237.99
416.68	238.60
417.06	239.32
417.43	240.01
417.81	240.75
418.18	241.50
418.55	242.32
418.93	243.18
419.30	244.04
419.67	244.97
420.04	245.95
420.42	246.92
420.79	248.10
421.16	249.25
421.54	250.43
421.91	251.68
422.28	252.96
422.66	254.32
423.03	255.62
423.40	256.95
423.77	258.31
424.15	259.72
424.52	261.20
424.89	262.84
425.26	264.42
425.64	265.89
426.01	267.49
426.38	269.12
426.75	270.80
427.13	272.54
427.50	274.35
427.87	276.19
428.24	278.09
428.61	279.84
428.99	281.79
429.36	283.89
429.73	285.95
430.10	287.95
430.47	290.04
430.85	292.18
431.22	294.46
431.59	296.88
431.96	299.12
432.33	301.61
432.70	303.98
433.08	306.76
433.45	309.38
433.82	311.96
434.19	314.85
434.56	317.63
434.93	320.26
435.30	322.87
435.68	325.79
436.05	328.59
436.42	331.36
436.79	333.86
437.16	336.50
437.53	339.36
437.90	342.18
438.27	344.86
438.64	347.67
439.01	350.20
439.38	352.43
439.75	354.65
440.13	357.09
440.50	359.43
440.87	361.31
441.24	363.24
441.61	365.40
441.98	366.88
442.35	368.71
442.72	370.57
443.09	372.42
443.46	373.42
443.83	374.00
444.20	374.56
444.57	375.38
444.94	375.77
445.31	376.07
445.68	376.37
446.05	376.43
446.42	376.03
446.79	375.63
447.16	375.19
447.53	374.84
447.90	373.72
448.27	372.55
448.64	370.96
449.01	369.87
449.37	367.94
449.74	366.04
450.11	363.81
450.48	361.33
450.85	358.78
451.22	356.66
451.59	354.65
451.96	352.71
452.33	350.11
452.70	347.70
453.07	344.92
453.43	342.04
453.80	339.31
454.17	336.65
454.54	334.12
454.91	331.37
455.28	328.68
455.65	326.19
456.02	323.75
456.38	321.54
456.75	318.82
457.12	316.56
457.49	314.35
457.86	312.17
458.23	310.31
458.59	308.26
458.96	306.15
459.33	304.31
459.70	302.43
460.07	300.96
460.43	299.25
460.80	297.63
461.17	296.23
461.54	294.74
461.91	293.35
462.27	291.91
462.64	290.68
463.01	289.33
463.38	288.05
463.74	286.69
464.11	285.55
464.48	284.58
464.85	283.49
465.21	282.69
465.58	281.77
465.95	280.70
466.32	279.77
466.68	278.90
467.05	278.00
467.42	277.09
467.78	276.15
468.15	275.29
468.52	274.62
468.88	273.75
469.25	272.97
469.62	272.31
469.98	271.63
470.35	271.04
470.72	270.43
471.08	269.73
471.45	269.21
471.82	268.70
472.18	268.07
472.55	267.62
472.92	267.03
473.28	266.57
473.65	266.12
474.02	265.72
474.38	265.32
474.75	265.01
475.11	264.66
475.48	264.39
475.85	264.17
476.21	263.91
476.58	263.76
476.94	263.63
477.31	263.46
477.67	263.30
478.04	263.16
478.41	263.11
478.77	263.15
479.14	263.07
479.50	263.08
479.87	263.17
480.23	263.23
480.60	263.32
480.96	263.39
481.33	263.61
481.69	263.78
482.06	263.98
482.42	264.16
482.79	264.41
483.15	264.72
483.52	265.11
483.88	265.44
484.25	265.79
484.61	266.21
484.98	266.67
485.34	267.28
485.71	267.81
486.07	268.43
486.44	269.01
486.80	269.73
487.17	270.44
487.53	271.26
487.90	272.13
488.26	273.05
488.62	274.04
488.99	274.98
489.35	275.99
489.72	277.10
490.08	278.29
490.44	279.52
490.81	280.82
491.17	282.12
491.54	283.58
491.90	285.11
492.26	286.77
492.63	288.49
492.99	290.21
493.36	292.18
493.72	294.22
494.08	296.32
494.45	298.58
494.81	300.94
495.17	303.33
495.54	305.89
495.90	308.56
496.26	311.35
496.63	314.35
496.99	317.45
497.35	320.73
497.72	324.13
498.08	327.67
498.44	331.41
498.80	335.39
499.17	339.44
499.53	343.63
499.89	348.01
500.26	352.52
500.62	357.22
500.98	362.14
501.34	367.23
501.71	372.54
502.07	377.98
502.43	383.63
502.79	389.51
503.16	395.60
503.52	401.90
503.88	408.36
504.24	415.00
504.60	421.89
504.97	429.01
505.33	436.36
505.69	444.12
506.05	451.94
506.41	459.81
506.78	468.02
507.14	476.48
507.50	485.19
507.86	494.21
508.22	503.40
508.59	512.62
508.95	522.26
509.31	532.05
509.67	542.14
510.03	552.46
510.39	562.98
510.75	573.76
511.12	584.69
511.48	595.98
511.84	607.45
512.20	619.05
512.56	630.96
512.92	643.18
513.28	655.48
513.64	667.82
514.00	680.55
514.37	693.47
514.73	706.54
515.09	719.66
515.45	732.98
515.81	746.61
516.17	760.71
516.53	774.80
516.89	789.06
517.25	803.32
517.61	817.69
517.97	832.24
518.33	846.62
518.69	861.49
519.05	876.43
519.41	891.68
519.77	907.17
520.13	922.72
520.49	938.10
520.85	953.64
521.21	969.46
521.57	985.72
521.93	1001.50
522.29	1017.93
522.65	1034.08
523.01	1050.30
523.37	1066.34
523.73	1082.49
524.09	1098.56
524.45	1114.87
524.81	1131.47
525.17	1148.31
525.53	1165.15
525.89	1182.10
526.25	1198.83
526.61	1215.31
526.97	1231.95
527.33	1248.43
527.68	1264.96
528.04	1281.36
528.40	1297.79
528.76	1314.85
529.12	1331.38
529.48	1348.26
529.84	1364.20
530.20	1380.98
530.56	1397.97
530.91	1415.42
531.27	1432.16
531.63	1448.65
531.99	1465.23
532.35	1481.11
532.71	1496.99
533.07	1513.30
533.42	1529.15
533.78	1545.29
534.14	1561.62
534.50	1577.00
534.86	1592.95
535.21	1608.06
535.57	1624.03
535.93	1639.62
536.29	1654.48
536.65	1669.66
537.00	1684.54
537.36	1699.95
537.72	1714.46
538.08	1728.86
538.44	1742.48
538.79	1756.41
539.15	1770.08
539.51	1783.84
539.87	1798.31
540.22	1812.03
540.58	1825.71
540.94	1839.15
541.29	1852.00
541.65	1864.55
542.01	1877.71
542.37	1890.04
542.72	1902.57
543.08	1914.35
543.44	1926.80
543.79	1937.92
544.15	1948.83
544.51	1960.29
544.87	1971.19
545.22	1981.92
545.58	1992.16
545.94	2002.03
546.29	2011.87
546.65	2021.75
547.01	2030.97
547.36	2039.55
547.72	2048.13
548.07	2055.99
548.43	2064.10
548.79	2072.13
549.14	2079.61
549.50	2086.99
549.86	2094.68
550.21	2101.98
550.57	2109.22
550.92	2115.72
551.28	2122.83
551.64	2129.84
551.99	2136.36
552.35	2142.58
552.70	2148.77
553.06	2154.84
553.41	2161.24
553.77	2167.25
554.13	2173.35
554.48	2179.38
554.84	2184.79
555.19	2190.07
555.55	2195.25
555.90	2199.73
556.26	2204.62
556.61	2209.45
556.97	2213.62
557.32	2217.66
557.68	2221.75
558.03	2226.02
558.39	2229.63
558.74	2234.25
559.10	2238.14
559.45	2241.91
559.81	2246.17
560.16	2249.84
560.52	2252.97
560.87	2256.22
561.23	2258.90
561.58	2261.82
561.94	2264.45
562.29	2266.89
562.64	2269.43
563.00	2271.98
563.35	2275.49
563.71	2278.54
564.06	2281.85
564.42	2284.83
564.77	2287.26
565.12	2289.75
565.48	2291.66
565.83	2293.65
566.19	2294.85
566.54	2295.79
566.89	2296.74
567.25	2297.26
567.60	2298.66
567.96	2300.23
568.31	2301.18
568.66	2302.21
569.02	2302.64
569.37	2302.95
569.72	2303.89
570.08	2304.03
570.43	2303.96
570.78	2303.29
571.14	2301.67
571.49	2300.19
571.84	2299.90
572.20	2298.76
572.55	2297.54
572.90	2296.00
573.26	2294.66
573.61	2293.05
573.96	2291.27
574.31	2288.37
574.67	2285.48
575.02	2281.91
575.37	2278.63
575.72	2274.76
576.08	2271.43
576.43	2268.32
576.78	2264.64
577.13	2261.47
577.49	2258.47
577.84	2255.07
578.19	2251.31
578.54	2247.75
578.90	2243.48
579.25	2237.86
579.60	2232.90
579.95	2227.83
580.30	2222.89
580.66	2217.63
581.01	2212.60
581.36	2207.68
581.71	2203.44
582.06	2198.79
582.42	2194.19
582.77	2188.90
583.12	2184.27
583.47	2179.51
583.82	2174.25
584.17	2168.91
584.53	2163.25
584.88	2157.43
585.23	2151.60
585.58	2146.16
585.93	2140.66
586.28	2136.00
586.63	2130.93
586.98	2125.97
587.34	2121.17
587.69	2116.06
588.04	2110.74
588.39	2105.00
588.74	2098.59
589.09	2092.35
589.44	2085.61
589.79	2079.73
590.14	2074.22
590.49	2067.66
590.84	2061.29
591.19	2055.27
591.54	2048.94
591.89	2041.59
592.25	2034.90
592.60	2027.74
592.95	2020.15
593.30	2012.74
593.65	2005.18
594.00	1998.06
594.35	1990.67
594.70	1982.71
595.05	1975.57
595.40	1968.24
595.75	1960.80
596.10	1954.46
596.45	1947.74
596.80	1941.51
597.15	1934.77
597.50	1927.53
597.85	1921.05
598.19	1914.24
598.54	1907.08
598.89	1900.40
599.24	1894.63
599.59	1887.95
599.94	1881.80
600.29	1875.46
600.64	1869.00
600.99	1861.34
601.34	1854.68
601.69	1847.74
602.04	1840.93
602.39	1833.56
602.74	1826.77
603.08	1819.98
603.43	1813.30
603.78	1806.11
604.13	1798.94
604.48	1791.51
604.83	1784.63
605.18	1777.61
605.53	1769.74
605.87	1761.84
606.22	1754.49
606.57	1746.45
606.92	1739.05
607.27	1731.79
607.62	1724.80
607.96	1717.41
608.31	1710.80
608.66	1702.91
609.01	1695.37
609.36	1687.75
609.70	1679.71
610.05	1671.63
610.40	1664.00
610.75	1655.53
611.10	1647.77
611.44	1639.41
611.79	1631.58
612.14	1622.87
612.49	1613.82
612.83	1605.44
613.18	1597.26
613.53	1589.22
613.88	1580.58
614.22	1572.34
614.57	1563.73
614.92	1555.79
615.27	1548.31
615.61	1540.03
615.96	1532.14
616.31	1524.49
616.65	1517.09
617.00	1509.53
617.35	1501.88
617.70	1493.46
618.04	1485.09
618.39	1476.92
618.74	1469.29
619.08	1460.98
619.43	1453.51
619.78	1446.58
620.12	1439.37
620.47	1431.96
620.82	1423.79
621.16	1416.49
621.51	1408.87
621.85	1401.20
622.20	1392.66
622.55	1384.26
622.89	1376.36
623.24	1368.77
623.59	1361.39
623.93	1353.75
624.28	1346.40
624.62	1338.80
624.97	1331.70
625.32	1324.91
625.66	1317.80
626.01	1310.50
626.35	1302.95
626.70	1295.19
627.04	1287.41
627.39	1279.65
627.73	1272.15
628.08	1265.17
628.43	1257.77
628.77	1250.38
629.12	1242.88
629.46	1235.70
629.81	1228.28
630.15	1221.07
630.50	1213.56
630.84	1205.35
631.19	1197.58
631.53	1190.11
631.88	1182.62
632.22	1174.90
632.57	1167.54
632.91	1160.08
633.26	1152.74
633.60	1145.46
633.95	1138.33
634.29	1131.40
634.64	1124.76
634.98	1117.37
635.32	1110.18
635.67	1103.59
636.01	1096.99
636.36	1090.15
636.70	1083.58
637.05	1076.95
637.39	1070.56
637.73	1064.18
638.08	1058.25
638.42	1052.20
638.77	1045.78
639.11	1039.16
639.45	1032.88
639.80	1026.19
640.14	1019.62
640.49	1013.10
640.83	1006.81
641.17	1000.60
641.52	994.17
641.86	987.70
642.20	981.89
642.55	975.72
642.89	969.28
643.23	962.76
643.58	957.05
643.92	950.87
644.26	944.82
644.61	938.73
644.95	932.58
645.29	925.98
645.64	919.23
645.98	912.94
646.32	907.14
646.66	901.08
647.01	895.25
647.35	889.73
647.69	883.84
648.04	878.27
648.38	872.42
648.72	866.39
649.06	860.29
649.41	854.39
649.75	848.36
650.09	842.38
650.43	836.53
650.78	830.34
651.12	824.41
651.46	818.71
651.80	812.94
652.14	807.59
652.49	802.26
652.83	797.09
653.17	791.32
653.51	785.56
653.85	780.14
654.20	774.56
654.54	768.42
654.88	762.80
655.22	756.90
655.56	751.17
655.90	745.76
656.25	740.54
656.59	735.22
656.93	730.17
657.27	725.05
657.61	719.62
657.95	714.44
658.29	709.31
658.64	704.08
658.98	698.89
659.32	693.39
659.66	688.22
660.00	682.88
660.34	678.00
660.68	673.13
661.02	668.06
661.36	663.36
661.70	658.91
662.05	654.47
662.39	650.13
662.73	645.76
663.07	641.33
663.41	636.89
663.75	632.37
664.09	627.73
664.43	623.37
664.77	619.27
665.11	615.02
665.45	610.93
665.79	606.77
666.13	602.54
666.47	598.51
666.81	594.28
667.15	590.17
667.49	586.21
667.83	582.43
668.17	578.52
668.51	574.40
668.85	570.33
669.19	566.50
669.53	562.62
669.87	558.71
670.21	555.05
670.55	551.45
670.89	548.01
671.23	544.68
671.57	541.09
671.91	537.56
672.25	534.13
672.58	530.59
672.92	527.21
673.26	524.03
673.60	520.88
673.94	517.74
674.28	514.85
674.62	511.94
674.96	508.78
675.30	505.88
675.64	502.98
675.97	500.23
676.31	497.41
676.65	494.49
676.99	491.75
677.33	488.97
677.67	486.09
678.01	483.06
678.34	480.04
678.68	477.21
679.02	474.40
679.36	471.64
679.70	468.94
680.04	466.22
680.37	463.39
680.71	460.58
681.05	458.02
681.39	455.33
681.73	452.67
682.06	450.12
682.40	447.56
682.74	445.05
683.08	442.55
683.42	439.95
683.75	437.44
684.09	434.92
684.43	432.34
684.77	429.85
685.10	427.49
685.44	425.16
685.78	422.85
686.12	420.56
686.45	418.22
686.79	415.94
687.13	413.74
687.46	411.55
687.80	409.41
688.14	407.15
688.48	405.07
688.81	402.84
689.15	400.73
689.49	398.59
689.82	396.50
690.16	394.40
690.50	392.45
690.83	390.52
691.17	388.58
691.51	386.77
691.84	384.96
692.18	383.08
692.52	381.13
692.85	379.24
693.19	377.36
693.52	375.62
693.86	373.81
694.20	371.99
694.53	370.24
694.87	368.44
695.21	366.74
695.54	364.91
695.88	363.17
696.21	361.45
696.55	359.74
696.88	358.06
697.22	356.38
697.56	354.74
697.89	353.12
698.23	351.51
698.56	349.87
698.90	348.29
699.23	346.60
699.57	345.02
699.90	343.48
700.24	341.89
700.58	340.33
700.91	338.82
701.25	337.42
701.58	336.00
701.92	334.60
702.25	333.19
702.59	331.79
702.92	330.44
703.26	329.11
703.59	327.86
703.93	326.69
704.26	325.45
704.60	324.10
704.93	322.79
705.26	321.52
705.60	320.29
705.93	319.05
706.27	318.06
706.60	317.00
706.94	315.90
707.27	314.83
707.61	313.74
707.94	312.68
708.27	311.57
708.61	310.50
708.94	309.46
709.28	308.48
709.61	307.57
709.94	306.64
710.28	305.61
710.61	304.60
710.95	303.50
711.28	302.60
711.61	301.70
711.95	300.81
712.28	299.82
712.61	298.87
712.95	297.98
713.28	297.07
713.61	296.17
713.95	295.29
714.28	294.44
714.61	293.60
714.95	292.78
715.28	291.92
715.61	291.03
715.95	290.18
716.28	289.31
716.61	288.44
716.95	287.63
717.28	286.92
717.61	286.19
717.94	285.48
718.28	284.68
718.61	283.94
718.94	283.24
719.27	282.61
719.61	281.99
719.94	281.36
720.27	280.66
720.60	280.01
720.94	279.39
721.27	278.80
721.60	278.22
721.93	277.66
722.27	277.10
722.60	276.58
722.93	275.99
723.26	275.46
723.59	274.94
723.93	274.35
724.26	273.79
724.59	273.26
724.92	272.73
725.25	272.24
725.59	271.70
725.92	271.17
726.25	270.69
726.58	270.23
726.91	269.68
727.24	269.18
727.57	268.70
727.91	268.18
728.24	267.70
728.57	267.20
728.90	266.72
729.23	266.24
729.56	265.79
729.89	265.36
730.22	264.88
730.55	264.42
730.89	264.01
731.22	263.58
731.55	263.12
731.88	262.68
732.21	262.27
732.54	261.87
732.87	261.45
733.20	261.07
733.53	260.65
733.86	260.30
734.19	259.91
734.52	259.54
734.85	259.25
735.18	258.84
735.51	258.49
735.84	258.12
736.17	257.79
736.50	257.38
736.83	257.13
737.16	256.83
737.49	256.51
737.82	256.18
738.15	255.84
738.48	255.50
738.81	255.18
739.14	254.81
739.47	254.50
739.80	254.20
740.13	253.86
740.46	253.53
740.79	253.19
741.12	252.90
741.45	252.58
741.78	252.21
742.11	251.93
742.44	251.56
742.77	251.26
743.10	250.91
743.43	250.65
743.75	250.26
744.08	250.12
744.41	249.82
744.74	249.52
745.07	249.23
745.40	249.00
745.73	248.76
746.06	248.51
746.39	248.24
746.71	247.97
747.04	247.68
747.37	247.40
747.70	247.14
748.03	246.87
748.36	246.62
748.68	246.42
749.01	246.17
749.34	245.95
749.67	245.74
750.00	245.57
750.33	245.40
750.65	245.21
750.98	244.83
751.31	244.62
751.64	244.42
751.97	244.23
752.29	244.00
752.62	243.79
752.95	243.59
753.28	243.37
753.60	243.15
753.93	242.99
754.26	242.82
754.59	242.60
754.91	242.39
755.24	242.21
755.57	242.00
755.90	241.83
756.22	241.67
756.55	241.46
756.88	241.26
757.20	241.00
757.53	240.78
757.86	240.63
758.19	240.45
758.51	240.28
758.84	240.07
759.17	239.92
759.49	239.70
759.82	239.57
760.15	239.46
760.47	239.28
760.80	239.12
761.13	238.96
761.45	238.81
761.78	238.67
762.11	238.55
762.43	238.41
762.76	238.22
763.08	238.11
763.41	237.99
763.74	237.84
764.06	237.74
764.39	237.65
764.71	237.48
765.04	237.34
765.37	237.20
765.69	237.09
766.02	236.95
766.34	236.88
766.67	236.73
767.00	236.59
767.32	236.56
767.65	236.50
767.97	236.40
768.30	236.28
768.62	236.21
768.95	236.08
769.27	235.99
769.60	235.94
769.92	235.82
770.25	235.70
770.57	235.59
770.90	235.46
771.22	235.34
771.55	235.24
771.87	235.20
772.20	235.11
772.52	235.12
772.85	235.16
773.17	235.05
773.50	234.97
773.82	234.90
774.15	234.74
774.47	234.61
774.80	234.51
775.12	234.48
775.45	234.35
775.77	234.27
776.09	234.15
776.42	234.04
776.74	233.99
777.07	233.92
777.39	233.85
777.72	233.76
778.04	233.70
778.36	233.64
778.69	233.54
779.01	233.48
779.33	233.29
779.66	233.10
779.98	233.02
780.31	232.92
780.63	232.89
780.95	232.86
781.28	232.79
781.60	232.72
781.92	232.64
782.25	232.58
782.57	232.52
782.89	232.48
783.22	232.40
783.54	232.33
783.86	232.25
784.19	232.19
784.51	232.17
784.83	232.06
785.16	231.99
785.48	231.95
785.80	231.89
786.12	231.84
786.45	231.79
786.77	231.76
787.09	231.67
787.42	231.59
787.74	231.54
788.06	231.48
788.38	231.44
788.71	231.40
789.03	231.38
789.35	231.31
789.67	231.25
789.99	231.23
790.32	231.17
790.64	231.16
790.96	231.19
791.28	231.13
791.61	231.10
791.93	231.07
792.25	231.01
792.57	231.05
792.89	230.99
793.21	230.94
793.54	230.89
793.86	230.87
794.18	230.84
794.50	230.77
794.82	230.73
795.14	230.71
795.47	230.67
795.79	230.61
796.11	230.57
796.43	230.53
796.75	230.50
797.07	230.49
797.39	230.42
797.71	230.35
798.04	230.31
798.36	230.29
798.68	230.25
799.00	230.23
799.32	230.15
799.64	230.13
799.96	230.08
800.28	230.08
800.60	230.05
800.92	230.01
801.24	229.98
801.56	229.97
801.89	229.92
802.21	229.89
802.53	229.85
802.85	229.85
803.17	229.88
803.49	229.85
803.81	229.80
804.13	229.79
804.45	229.73
804.77	229.73
805.09	229.70
805.41	229.68
805.73	229.67
806.05	229.62
806.37	229.58
806.69	229.59
807.01	229.54
807.33	229.50
807.65	229.44
807.97	229.46
808.28	229.41
808.60	229.36
808.92	229.33
809.24	229.39
809.56	229.35
809.88	229.27
810.20	229.22
810.52	229.21
810.84	229.16
811.16	229.13
811.48	229.09
811.80	229.08
812.12	229.06
812.43	229.07
812.75	229.05
813.07	229.03
813.39	229.01
813.71	228.99
814.03	228.98
814.35	228.96
814.67	228.90
814.98	228.86
815.30	228.86
815.62	228.83
815.94	228.74
816.26	228.76
816.58	228.74
816.89	228.77
817.21	228.71
817.53	228.70
817.85	228.69
818.17	228.66
818.48	228.62
818.80	228.59
819.12	228.49
819.44	228.45
819.76	228.43
820.07	228.40
820.39	228.38
820.71	228.37
821.03	228.38
821.34	228.37
821.66	228.36
821.98	228.35
822.30	228.33
822.61	228.38
822.93	228.33
823.25	228.27
823.57	228.22
823.88	228.26
824.20	228.27
824.52	228.27
824.83	228.25
825.15	228.23
825.47	228.25
825.79	228.26
826.10	228.26
826.42	228.23
826.74	228.21
827.05	228.21
827.37	228.20
827.69	228.18
828.00	228.18
828.32	228.21
828.64	228.21
828.95	228.25
829.27	228.23
829.58	228.25
829.90	228.29
830.22	228.30
830.53	228.25
830.85	228.22
831.17	228.17
831.48	228.21
831.80	228.18
832.11	228.17
832.43	228.19
832.75	228.19
833.06	228.29
833.38	228.27
833.69	228.24
834.01	228.26
834.32	228.25
834.64	228.23
834.96	228.19
835.27	228.17
835.59	228.11
835.90	228.07
836.22	228.03
836.53	228.01
836.85	228.02
837.16	228.12
837.48	228.12
837.79	228.19
838.11	228.13
838.42	228.16
838.74	228.15
839.05	228.11
839.37	228.13
839.68	228.02
840.00	228.02
840.31	228.03
840.63	227.98
840.94	227.97
841.26	227.95
841.57	227.99
841.88	228.02
842.20	227.99
842.51	227.98
842.83	227.97
843.14	228.06
843.46	228.05
843.77	228.00
844.08	227.98
844.40	227.95
844.71	227.97
845.03	227.93
845.34	227.93
845.65	227.95
845.97	227.92
846.28	227.91
846.60	227.92
846.91	227.91
847.22	227.94
847.54	227.95
847.85	227.97
848.16	227.94
848.48	227.90
848.79	227.95
849.10	227.98
849.42	228.00
849.73	227.93
850.04	227.90
850.36	227.84
850.67	227.86
850.98	227.83
851.30	227.81
851.61	227.84
851.92	227.83
852.23	227.83
852.55	227.84
852.86	227.85
853.17	227.84
853.49	227.84
853.80	227.84
854.11	227.82
854.42	227.81
854.74	227.78
855.05	227.76
855.36	227.66
855.67	227.62
855.99	227.60
856.30	227.69
856.61	227.68
856.92	227.69
857.23	227.70
857.55	227.63
857.86	227.61
858.17	227.60
858.48	227.56
858.79	227.52
859.11	227.51
859.42	227.50
859.73	227.48
860.04	227.48
860.35	227.45
860.66	227.43
860.98	227.40
861.29	227.42
861.60	227.43
861.91	227.47
862.22	227.46
862.53	227.43
862.84	227.29
863.16	227.30
863.47	227.28
863.78	227.24
864.09	227.26
864.40	227.27
864.71	227.25
865.02	227.27
865.33	227.25
865.64	227.24
865.95	227.25
866.27	227.31
866.58	227.26
866.89	227.26
867.20	227.26
867.51	227.26
867.82	227.23
868.13	227.24
868.44	227.20
868.75	227.25
869.06	227.26
869.37	227.25
869.68	227.19
869.99	227.18
870.30	227.19
870.61	227.19
870.92	227.21
871.23	227.20
871.54	227.21
871.85	227.24
872.16	227.23
872.47	227.23
872.78	227.18
873.09	227.19
873.40	227.19
873.71	227.21
874.02	227.23
874.33	227.24
874.64	227.21
874.95	227.25
875.26	227.21
875.56	227.18
875.87	227.18
876.18	227.22
876.49	227.32
876.80	227.29
877.11	227.32
877.42	227.29
877.73	227.29
878.04	227.27
878.35	227.27
878.66	227.28
878.96	227.25
879.27	227.23
879.58	227.23
879.89	227.22
880.20	227.24
880.51	227.22
880.82	227.21
881.12	227.23
881.43	227.21
881.74	227.21
882.05	227.21
882.36	227.22
882.67	227.23
882.97	227.14
883.28	227.14
883.59	227.11
883.90	227.13
884.21	227.12
884.51	227.12
884.82	227.14
885.13	227.13
885.44	227.13
885.74	227.14
886.05	227.15
886.36	227.17
886.67	227.14
886.98	227.17
887.28	227.19
887.59	227.19
887.90	227.24
888.20	227.24
888.51	227.27
888.82	227.27
889.13	227.25
889.43	227.31
889.74	227.31
890.05	227.31
890.35	227.32
890.66	227.31
890.97	227.32
891.28	227.28
891.58	227.29
891.89	227.28
892.20	227.26
892.50	227.25
892.81	227.24
893.12	227.21
893.42	227.18
893.73	227.17
894.04	227.15
894.34	227.10
894.65	227.09
894.95	227.07
895.26	227.09
895.57	227.15
895.87	227.06
896.18	227.08
896.48	227.10
896.79	227.10
897.10	227.10
897.40	227.09
897.71	227.10
898.01	227.08
898.32	227.08
898.63	227.08
898.93	227.06
899.24	227.06
899.54	227.07
899.85	227.08
900.15	227.08
900.46	227.08
900.76	227.08
901.07	227.06
901.38	227.07
901.68	227.08
901.99	227.00
902.29	227.02
902.60	227.03
902.90	226.99
903.21	226.98
903.51	226.95
903.82	226.98
904.12	227.03
904.43	227.05
904.73	227.06
905.03	227.05
905.34	227.13
905.64	227.11
905.95	227.07
906.25	227.07
906.56	227.07
906.86	227.03
907.17	227.02
907.47	227.06
907.77	227.04
908.08	227.00
908.38	227.01
908.69	227.01
908.99	227.04
909.30	227.06
909.60	227.07
909.90	227.08
910.21	227.04
910.51	226.98
910.81	227.00
911.12	227.03
911.42	227.01
911.73	226.92
912.03	226.95
912.33	226.98
912.64	226.96
912.94	226.95
913.24	226.97
913.55	226.98
913.85	226.98
914.15	226.99
914.46	227.00
914.76	226.99
915.06	226.99
915.37	226.96
915.67	226.93
915.97	226.93
916.27	226.93
916.58	226.94
916.88	226.96
917.18	226.92
917.49	226.94
917.79	226.97
918.09	226.98
918.39	227.02
918.70	227.03
919.00	227.05
919.30	227.09
919.60	227.09
919.91	227.08
920.21	227.07
920.51	227.04
920.81	227.06
921.12	227.09
921.42	227.09
921.72	227.08
922.02	227.10
922.32	227.12
922.63	227.11
922.93	227.15
923.23	227.13
923.53	227.16
923.83	227.12
924.13	227.15
924.44	227.18
924.74	227.19
925.04	227.23
925.34	227.22
925.64	227.19
925.94	227.20
926.24	227.26
926.55	227.24
926.85	227.26
927.15	227.26
927.45	227.25
927.75	227.25
928.05	227.29
928.35	227.27
928.65	227.30
928.95	227.29
929.26	227.26
929.56	227.29
929.86	227.25
930.16	227.23
930.46	227.22
930.76	227.19
931.06	227.14
931.36	227.11
931.66	227.13
931.96	227.13
932.26	227.14
932.56	227.09
932.86	227.10
933.16	227.12
933.46	227.11
933.76	227.10
934.06	227.06
934.36	227.07
934.66	227.09
934.96	227.06
935.26	227.10
935.56	227.10
935.86	227.07
936.16	227.08
936.46	227.09
936.76	227.09
937.06	227.11
937.36	227.14
937.66	227.12
937.96	227.10
938.26	227.07
938.56	227.05
938.86	227.05
939.16	227.08
939.46	227.09
939.76	227.10
940.06	227.08
940.35	227.14
940.65	227.09
940.95	227.10
941.25	227.07
941.55	227.03
941.85	227.02
942.15	227.03
942.45	227.01
942.75	226.99
943.04	226.94
943.34	226.93
943.64	226.85
943.94	226.82
944.24	226.81
944.54	226.81
944.84	226.78
945.13	226.79
945.43	226.73
945.73	226.69
946.03	226.66
946.33	226.64
946.62	226.59
946.92	226.57
947.22	226.54
947.52	226.56
947.82	226.59
948.11	226.57
948.41	226.58
948.71	226.57
949.01	226.56
949.31	226.57
949.60	226.54
949.90	226.58
950.20	226.58
950.50	226.56
950.79	226.55
951.09	226.55
951.39	226.53
951.69	226.53
951.98	226.55
952.28	226.56
952.58	226.57
952.87	226.58
953.17	226.62
953.47	226.60
953.76	226.57
954.06	226.52
954.36	226.50
954.66	226.47
954.95	226.52
955.25	226.52
955.55	226.53
955.84	226.55
956.14	226.55
956.44	226.52
956.73	226.54
957.03	226.54
957.32	226.57
957.62	226.59
957.92	226.65
958.21	226.64
958.51	226.75
958.81	226.78
959.10	226.80
959.40	226.83
959.69	226.84
959.99	226.89
960.29	226.92
960.58	226.95
960.88	226.98
961.17	226.95
961.47	226.96
961.76	226.93
962.06	226.93
962.36	226.93
962.65	226.98
962.95	226.97
963.24	226.98
963.54	226.96
963.83	226.97
964.13	226.95
964.42	226.93
964.72	226.87
965.01	226.85
965.31	226.86
965.60	226.79
965.90	226.88
966.19	226.80
966.49	226.79
966.78	226.80
967.08	226.80
967.37	226.82
967.67	226.81
967.96	226.85
968.26	226.86
968.55	226.89
968.85	226.89
969.14	226.90
969.43	226.92
969.73	226.94
970.02	226.95
970.32	226.93
970.61	226.93
970.91	226.87
971.20	226.87
971.49	226.85
971.79	226.92
972.08	226.84
972.38	226.88
972.67	226.89
972.96	226.89
973.26	226.88
973.55	226.87
973.85	226.90
974.14	226.87
974.43	226.89
974.73	226.88
975.02	226.87
975.31	226.89
975.61	226.90
975.90	226.90
976.19	226.87
976.49	226.88
976.78	226.89
977.07	226.94
977.37	226.94
977.66	226.91
977.95	226.87
978.24	226.85
978.54	226.87
978.83	226.83
979.12	226.85
979.42	226.84
979.71	226.88
980.00	226.87
980.29	226.89
980.59	226.85
980.88	226.87
981.17	226.85
981.46	226.81
981.76	226.80
982.05	226.81
982.34	226.82
982.63	226.82
982.93	226.83
983.22	226.80
983.51	226.82
983.80	226.85
984.09	226.88
984.39	226.90
984.68	226.88
984.97	226.90
985.26	226.88
985.55	226.89
985.85	226.83
986.14	226.85
986.43	226.83
986.72	226.81
987.01	226.77
987.30	226.75
987.59	226.75
987.89	226.74
988.18	226.69
988.47	226.67
988.76	226.65
989.05	226.63
989.34	226.62
989.63	226.62
989.92	226.61
990.22	226.59
990.51	226.58
990.80	226.57
991.09	226.57
991.38	226.56
991.67	226.53
991.96	226.49
992.25	226.49
992.54	226.48
992.83	226.52
993.12	226.51
993.41	226.53
993.70	226.57
993.99	226.60
994.28	226.60
994.58	226.57
994.87	226.58
995.16	226.58
995.45	226.58
995.74	226.55
996.03	226.55
996.32	226.55
996.61	226.58
996.90	226.59
997.19	226.61
997.48	226.60
997.77	226.60
998.06	226.63
998.34	226.61
998.63	226.61
998.92	226.61
999.21	226.66
999.50	226.65
999.79	226.59
1000.08	226.61
1000.37	226.63
1000.66	226.66
1000.95	226.68
1001.24	226.68
1001.53	226.70
1001.82	226.70
1002.11	226.68
1002.40	226.68
1002.68	226.67
1002.97	226.73
1003.26	226.70
1003.55	226.71
1003.84	226.73
1004.13	226.79
1004.42	226.81
1004.71	226.83
1004.99	226.82
1005.28	226.79
1005.57	226.77
1005.86	226.80
1006.15	226.76
1006.44	226.75
1006.72	226.77
1007.01	226.74
1007.30	226.77
1007.59	226.78
1007.88	226.78
1008.17	226.79
1008.45	226.79
1008.74	226.78
1009.03	226.73
1009.32	226.72
1009.60	226.73
1009.89	226.72
1010.18	226.67
1010.47	226.66
1010.76	226.65
1011.04	226.65
1011.33	226.66
1011.62	226.72
1011.91	226.73
1012.19	226.75
1012.48	226.76
1012.77	226.76
1013.05	226.83
1013.34	226.82
1013.63	226.80
1013.92	226.82
1014.20	226.81
1014.49	226.83
1014.78	226.82
1015.06	226.79
1015.35	226.84
1015.64	226.84
1015.92	226.83
1016.21	226.83
1016.50	226.83
1016.78	226.81
1017.07	226.81
1017.36	226.79
1017.64	226.75
1017.93	226.75
1018.22	226.72
1018.50	226.73
1018.79	226.72
1019.08	226.68
1019.36	226.68
1019.65	226.66
1019.93	226.68
1020.22	226.72
1020.51	226.76
1020.79	226.73
1021.08	226.33
1021.36	226.77
1021.65	226.87
1021.94	227.21
1022.22	226.75
1022.51	226.45
1022.79	227.11
1023.08	227.42
1023.36	228.04
1023.65	226.06
>>>>>End Processed Spectral Data<<<<<
