SpectraSuite Data File
++++++++++++++++++++++++++++++++++++
Date: Fri Feb 01 16:32:01 EST 2013
User: group
Dark Spectrum Present: No
Reference Spectrum Present: No
Number of Sampled Component Spectra: 1
Spectrometers: USB2E7196
Integration Time (usec): 35000 (USB2E7196)
Spectra Averaged: 100 (USB2E7196)
Boxcar Smoothing: 10 (USB2E7196)
Correct for Electrical Dark: No (USB2E7196)
Strobe/Lamp Enabled: No (USB2E7196)
Correct for Detector Non-linearity: No (USB2E7196)
Correct for Stray Light: No (USB2E7196)
Number of Pixels in Processed Spectrum: 2048
>>>>>Begin Processed Spectral Data<<<<<
339.09	0.00
339.48	213.75
339.86	215.81
340.24	216.86
340.63	218.11
341.01	220.92
341.39	220.99
341.78	222.00
342.16	223.42
342.54	224.36
342.93	212.44
343.31	223.18
343.69	223.74
344.07	224.19
344.46	224.62
344.84	225.02
345.22	225.26
345.60	225.51
345.99	225.69
346.37	225.83
346.75	225.90
347.13	226.00
347.52	226.04
347.90	226.12
348.28	226.16
348.66	226.17
349.05	226.16
349.43	226.18
349.81	226.21
350.19	226.26
350.57	226.33
350.96	226.41
351.34	226.51
351.72	226.58
352.10	226.69
352.48	226.75
352.87	226.78
353.25	226.82
353.63	226.88
354.01	226.95
354.39	227.01
354.77	227.10
355.15	227.18
355.54	227.24
355.92	227.28
356.30	227.34
356.68	227.46
357.06	227.49
357.44	227.54
357.82	227.59
358.20	227.65
358.58	227.72
358.97	227.76
359.35	227.80
359.73	227.89
360.11	227.91
360.49	227.94
360.87	228.02
361.25	228.11
361.63	228.20
362.01	228.26
362.39	228.29
362.77	228.31
363.15	228.35
363.53	228.38
363.91	228.40
364.29	228.41
364.67	228.38
365.05	228.42
365.43	228.40
365.81	228.42
366.19	228.47
366.57	228.47
366.95	228.47
367.33	228.46
367.71	228.41
368.09	228.44
368.47	228.44
368.85	228.40
369.23	228.39
369.61	228.29
369.99	228.31
370.37	228.30
370.75	228.32
371.13	228.25
371.51	228.22
371.89	228.19
372.27	228.18
372.65	228.12
373.03	228.06
373.41	228.04
373.78	227.98
374.16	227.89
374.54	227.83
374.92	227.78
375.30	227.72
375.68	227.64
376.06	227.58
376.44	227.52
376.82	227.46
377.19	227.38
377.57	227.35
377.95	227.24
378.33	227.16
378.71	227.04
379.09	227.01
379.47	226.95
379.84	226.90
380.22	226.78
380.60	226.71
380.98	226.67
381.36	226.60
381.73	226.51
382.11	226.45
382.49	226.40
382.87	226.30
383.25	226.26
383.62	226.33
384.00	226.26
384.38	226.21
384.76	226.17
385.13	226.18
385.51	226.12
385.89	226.08
386.27	226.05
386.64	226.05
387.02	226.00
387.40	225.96
387.78	225.96
388.15	225.96
388.53	225.90
388.91	225.84
389.29	225.81
389.66	225.82
390.04	225.80
390.42	225.79
390.79	225.83
391.17	225.77
391.55	225.67
391.92	225.63
392.30	225.62
392.68	225.64
393.05	225.61
393.43	225.61
393.81	225.62
394.18	225.60
394.56	225.56
394.94	225.59
395.31	225.59
395.69	225.62
396.06	225.65
396.44	225.71
396.82	225.77
397.19	225.86
397.57	225.89
397.95	225.94
398.32	225.97
398.70	226.01
399.07	226.10
399.45	226.14
399.82	226.22
400.20	226.28
400.58	226.34
400.95	226.36
401.33	226.47
401.70	226.61
402.08	226.69
402.45	226.80
402.83	226.90
403.20	226.99
403.58	227.04
403.95	227.18
404.33	227.31
404.71	227.41
405.08	227.55
405.46	227.67
405.83	227.83
406.21	227.95
406.58	228.07
406.96	228.25
407.33	228.40
407.70	228.58
408.08	228.84
408.45	229.04
408.83	229.28
409.20	229.49
409.58	229.62
409.95	229.90
410.33	230.16
410.70	230.39
411.08	230.69
411.45	231.02
411.82	231.29
412.20	231.61
412.57	232.08
412.95	232.37
413.32	232.76
413.69	233.14
414.07	233.55
414.44	234.04
414.82	234.49
415.19	235.05
415.56	235.60
415.94	236.15
416.31	236.77
416.68	237.34
417.06	238.06
417.43	238.78
417.81	239.52
418.18	240.26
418.55	241.11
418.93	241.98
419.30	242.85
419.67	243.77
420.04	244.71
420.42	245.65
420.79	246.83
421.16	247.97
421.54	249.18
421.91	250.40
422.28	251.64
422.66	252.96
423.03	254.25
423.40	255.57
423.77	256.99
424.15	258.40
424.52	259.93
424.89	261.56
425.26	263.10
425.64	264.55
426.01	266.16
426.38	267.80
426.75	269.47
427.13	271.19
427.50	273.00
427.87	274.92
428.24	276.74
428.61	278.45
428.99	280.40
429.36	282.45
429.73	284.50
430.10	286.51
430.47	288.56
430.85	290.70
431.22	292.94
431.59	295.28
431.96	297.52
432.33	300.00
432.70	302.32
433.08	305.12
433.45	307.74
433.82	310.32
434.19	313.19
434.56	315.98
434.93	318.66
435.30	321.28
435.68	324.09
436.05	326.94
436.42	329.79
436.79	332.31
437.16	335.03
437.53	337.90
437.90	340.75
438.27	343.49
438.64	346.30
439.01	348.89
439.38	351.12
439.75	353.30
440.13	355.79
440.50	358.14
440.87	359.97
441.24	361.92
441.61	364.12
441.98	365.57
442.35	367.39
442.72	369.23
443.09	371.05
443.46	372.09
443.83	372.69
444.20	373.21
444.57	374.02
444.94	374.31
445.31	374.65
445.68	374.96
446.05	375.04
446.42	374.68
446.79	374.25
447.16	373.81
447.53	373.48
447.90	372.31
448.27	371.10
448.64	369.57
449.01	368.42
449.37	366.43
449.74	364.60
450.11	362.33
450.48	359.82
450.85	357.29
451.22	355.11
451.59	353.07
451.96	351.07
452.33	348.48
452.70	346.11
453.07	343.28
453.43	340.38
453.80	337.63
454.17	334.92
454.54	332.38
454.91	329.69
455.28	327.00
455.65	324.50
456.02	322.11
456.38	319.93
456.75	317.28
457.12	315.05
457.49	312.80
457.86	310.68
458.23	308.84
458.59	306.81
458.96	304.77
459.33	302.93
459.70	301.09
460.07	299.60
460.43	297.90
460.80	296.27
461.17	294.83
461.54	293.30
461.91	291.88
462.27	290.47
462.64	289.21
463.01	287.90
463.38	286.62
463.74	285.24
464.11	284.07
464.48	283.08
464.85	281.96
465.21	281.10
465.58	280.16
465.95	279.07
466.32	278.15
466.68	277.22
467.05	276.34
467.42	275.46
467.78	274.55
468.15	273.69
468.52	273.06
468.88	272.23
469.25	271.51
469.62	270.90
469.98	270.21
470.35	269.60
470.72	269.00
471.08	268.36
471.45	267.82
471.82	267.28
472.18	266.67
472.55	266.25
472.92	265.80
473.28	265.35
473.65	264.97
474.02	264.56
474.38	264.27
474.75	263.94
475.11	263.60
475.48	263.35
475.85	263.13
476.21	262.90
476.58	262.70
476.94	262.57
477.31	262.45
477.67	262.30
478.04	262.16
478.41	262.14
478.77	262.20
479.14	262.17
479.50	262.22
479.87	262.33
480.23	262.43
480.60	262.46
480.96	262.61
481.33	262.85
481.69	263.03
482.06	263.20
482.42	263.44
482.79	263.74
483.15	264.02
483.52	264.43
483.88	264.80
484.25	265.25
484.61	265.70
484.98	266.16
485.34	266.76
485.71	267.39
486.07	267.96
486.44	268.52
486.80	269.24
487.17	269.96
487.53	270.73
487.90	271.59
488.26	272.52
488.62	273.48
488.99	274.42
489.35	275.48
489.72	276.62
490.08	277.82
490.44	279.03
490.81	280.45
491.17	281.76
491.54	283.23
491.90	284.73
492.26	286.32
492.63	288.06
492.99	289.78
493.36	291.64
493.72	293.68
494.08	295.82
494.45	298.08
494.81	300.47
495.17	302.95
495.54	305.51
495.90	308.24
496.26	311.05
496.63	314.05
496.99	317.14
497.35	320.42
497.72	323.83
498.08	327.39
498.44	331.01
498.80	334.93
499.17	338.94
499.53	343.13
499.89	347.53
500.26	352.03
500.62	356.73
500.98	361.68
501.34	366.79
501.71	372.10
502.07	377.53
502.43	383.17
502.79	388.97
503.16	395.05
503.52	401.29
503.88	407.67
504.24	414.27
504.60	421.17
504.97	428.27
505.33	435.60
505.69	443.28
506.05	451.07
506.41	458.94
506.78	467.15
507.14	475.58
507.50	484.28
507.86	493.27
508.22	502.50
508.59	511.75
508.95	521.32
509.31	531.11
509.67	541.27
510.03	551.50
510.39	562.04
510.75	572.87
511.12	583.75
511.48	595.08
511.84	606.48
512.20	617.98
512.56	629.89
512.92	642.03
513.28	654.43
513.64	666.86
514.00	679.66
514.37	692.54
514.73	705.57
515.09	718.53
515.45	731.83
515.81	745.37
516.17	759.35
516.53	773.45
516.89	787.61
517.25	801.65
517.61	816.06
517.97	830.50
518.33	844.79
518.69	859.55
519.05	874.46
519.41	889.62
519.77	905.06
520.13	920.48
520.49	935.85
520.85	951.15
521.21	966.78
521.57	982.86
521.93	998.56
522.29	1014.83
522.65	1031.06
523.01	1047.16
523.37	1063.10
523.73	1079.21
524.09	1095.12
524.45	1111.33
524.81	1127.87
525.17	1144.62
525.53	1161.40
525.89	1178.22
526.25	1194.98
526.61	1211.27
526.97	1227.97
527.33	1244.41
527.68	1260.90
528.04	1277.24
528.40	1293.79
528.76	1310.80
529.12	1327.32
529.48	1344.17
529.84	1360.22
530.20	1376.82
530.56	1393.74
530.91	1411.15
531.27	1427.70
531.63	1444.23
531.99	1460.72
532.35	1476.64
532.71	1492.35
533.07	1508.46
533.42	1524.29
533.78	1540.27
534.14	1556.46
534.50	1571.66
534.86	1587.38
535.21	1602.46
535.57	1618.26
535.93	1633.61
536.29	1648.33
536.65	1663.22
537.00	1677.81
537.36	1693.03
537.72	1707.52
538.08	1721.84
538.44	1735.51
538.79	1749.38
539.15	1762.88
539.51	1776.56
539.87	1790.82
540.22	1804.44
540.58	1818.17
540.94	1831.26
541.29	1844.06
541.65	1856.70
542.01	1869.86
542.37	1882.12
542.72	1894.55
543.08	1906.32
543.44	1918.61
543.79	1929.62
544.15	1940.59
544.51	1952.14
544.87	1962.90
545.22	1973.52
545.58	1983.72
545.94	1993.41
546.29	2003.25
546.65	2012.98
547.01	2022.17
547.36	2030.87
547.72	2039.25
548.07	2046.98
548.43	2055.22
548.79	2063.16
549.14	2070.53
549.50	2077.70
549.86	2085.26
550.21	2092.50
550.57	2099.47
550.92	2105.88
551.28	2112.92
551.64	2119.84
551.99	2126.30
552.35	2132.48
552.70	2138.70
553.06	2144.67
553.41	2151.02
553.77	2156.84
554.13	2162.98
554.48	2169.10
554.84	2174.48
555.19	2179.90
555.55	2185.19
555.90	2189.61
556.26	2194.43
556.61	2199.30
556.97	2203.66
557.32	2207.93
557.68	2212.02
558.03	2216.42
558.39	2220.27
558.74	2225.02
559.10	2229.08
559.45	2232.76
559.81	2236.93
560.16	2240.63
560.52	2243.86
560.87	2247.12
561.23	2249.96
561.58	2252.78
561.94	2255.29
562.29	2257.74
562.64	2260.35
563.00	2262.77
563.35	2266.27
563.71	2269.36
564.06	2272.51
564.42	2275.40
564.77	2277.84
565.12	2280.09
565.48	2282.08
565.83	2284.06
566.19	2285.41
566.54	2286.22
566.89	2287.41
567.25	2288.14
567.60	2289.59
567.96	2291.30
568.31	2292.32
568.66	2293.45
569.02	2294.15
569.37	2294.54
569.72	2295.51
570.08	2295.71
570.43	2295.86
570.78	2295.48
571.14	2294.04
571.49	2292.72
571.84	2292.41
572.20	2291.40
572.55	2290.44
572.90	2288.84
573.26	2287.54
573.61	2285.86
573.96	2284.16
574.31	2281.23
574.67	2278.37
575.02	2274.74
575.37	2271.34
575.72	2267.64
576.08	2264.21
576.43	2260.94
576.78	2257.28
577.13	2254.09
577.49	2251.13
577.84	2247.71
578.19	2243.96
578.54	2240.53
578.90	2236.41
579.25	2230.93
579.60	2225.88
579.95	2220.98
580.30	2216.03
580.66	2210.90
581.01	2205.98
581.36	2201.27
581.71	2197.29
582.06	2192.89
582.42	2188.55
582.77	2183.50
583.12	2179.01
583.47	2174.54
583.82	2169.58
584.17	2164.41
584.53	2158.93
584.88	2153.36
585.23	2147.60
585.58	2142.18
585.93	2136.60
586.28	2131.88
586.63	2126.90
586.98	2121.93
587.34	2117.27
587.69	2112.50
588.04	2107.23
588.39	2101.65
588.74	2095.11
589.09	2088.88
589.44	2082.03
589.79	2076.04
590.14	2070.48
590.49	2063.91
590.84	2057.57
591.19	2051.69
591.54	2045.28
591.89	2038.05
592.25	2031.27
592.60	2024.23
592.95	2016.78
593.30	2009.61
593.65	2002.08
594.00	1995.01
594.35	1987.89
594.70	1979.87
595.05	1972.78
595.40	1965.58
595.75	1958.13
596.10	1952.08
596.45	1945.43
596.80	1939.53
597.15	1932.93
597.50	1925.84
597.85	1919.53
598.19	1912.79
598.54	1905.69
598.89	1899.06
599.24	1893.16
599.59	1886.54
599.94	1880.41
600.29	1874.09
600.64	1867.49
600.99	1860.12
601.34	1853.40
601.69	1846.51
602.04	1839.78
602.39	1832.50
602.74	1825.69
603.08	1819.02
603.43	1812.23
603.78	1804.74
604.13	1797.43
604.48	1790.18
604.83	1783.35
605.18	1776.32
605.53	1768.46
605.87	1760.55
606.22	1753.37
606.57	1745.49
606.92	1738.21
607.27	1731.10
607.62	1724.14
607.96	1716.94
608.31	1710.28
608.66	1702.75
609.01	1695.24
609.36	1687.62
609.70	1679.51
610.05	1671.47
610.40	1663.70
610.75	1655.38
611.10	1647.90
611.44	1639.54
611.79	1631.55
612.14	1622.84
612.49	1613.67
612.83	1605.36
613.18	1597.26
613.53	1589.20
613.88	1580.68
614.22	1572.39
614.57	1563.80
614.92	1555.81
615.27	1548.29
615.61	1539.97
615.96	1532.00
616.31	1524.34
616.65	1517.00
617.00	1509.53
617.35	1501.93
617.70	1493.62
618.04	1485.12
618.39	1476.97
618.74	1469.35
619.08	1461.08
619.43	1453.46
619.78	1446.48
620.12	1439.24
620.47	1431.62
620.82	1423.50
621.16	1415.98
621.51	1408.37
621.85	1400.65
622.20	1392.07
622.55	1383.73
622.89	1375.98
623.24	1368.28
623.59	1360.92
623.93	1353.36
624.28	1346.10
624.62	1338.50
624.97	1331.30
625.32	1324.56
625.66	1317.59
626.01	1310.41
626.35	1302.92
626.70	1295.30
627.04	1287.55
627.39	1279.79
627.73	1272.35
628.08	1265.42
628.43	1258.13
628.77	1250.65
629.12	1243.07
629.46	1236.00
629.81	1228.58
630.15	1221.29
630.50	1213.86
630.84	1205.66
631.19	1197.74
631.53	1190.25
631.88	1182.69
632.22	1175.11
632.57	1167.80
632.91	1160.09
633.26	1152.57
633.60	1145.25
633.95	1138.13
634.29	1131.16
634.64	1124.45
634.98	1117.12
635.32	1109.86
635.67	1103.31
636.01	1096.77
636.36	1089.98
636.70	1083.42
637.05	1076.74
637.39	1070.29
637.73	1063.76
638.08	1057.82
638.42	1051.85
638.77	1045.37
639.11	1038.79
639.45	1032.43
639.80	1025.76
640.14	1019.35
640.49	1012.89
640.83	1006.55
641.17	1000.16
641.52	993.83
641.86	987.40
642.20	981.58
642.55	975.27
642.89	968.79
643.23	962.15
643.58	956.35
643.92	950.12
644.26	944.08
644.61	938.02
644.95	931.95
645.29	925.35
645.64	918.49
645.98	912.13
646.32	906.31
646.66	900.18
647.01	894.40
647.35	888.70
647.69	882.83
648.04	877.30
648.38	871.63
648.72	865.65
649.06	859.61
649.41	853.72
649.75	847.75
650.09	841.83
650.43	836.14
650.78	830.04
651.12	824.14
651.46	818.44
651.80	812.72
652.14	807.37
652.49	802.00
652.83	796.91
653.17	791.23
653.51	785.49
653.85	780.18
654.20	774.57
654.54	768.61
654.88	762.90
655.22	757.01
655.56	751.31
655.90	745.83
656.25	740.57
656.59	735.23
656.93	730.16
657.27	724.97
657.61	719.51
657.95	714.41
658.29	709.40
658.64	704.12
658.98	698.85
659.32	693.36
659.66	688.21
660.00	682.90
660.34	677.97
660.68	673.02
661.02	667.97
661.36	663.31
661.70	658.79
662.05	654.39
662.39	650.17
662.73	645.62
663.07	641.31
663.41	636.83
663.75	632.30
664.09	627.80
664.43	623.38
664.77	619.22
665.11	614.97
665.45	610.70
665.79	606.60
666.13	602.43
666.47	598.36
666.81	594.20
667.15	590.09
667.49	586.23
667.83	582.44
668.17	578.52
668.51	574.35
668.85	570.35
669.19	566.55
669.53	562.57
669.87	558.78
670.21	555.01
670.55	551.36
670.89	547.96
671.23	544.50
671.57	540.95
671.91	537.42
672.25	533.89
672.58	530.40
672.92	526.97
673.26	523.80
673.60	520.65
673.94	517.47
674.28	514.57
674.62	511.51
674.96	508.42
675.30	505.50
675.64	502.59
675.97	499.76
676.31	496.84
676.65	493.93
676.99	491.20
677.33	488.32
677.67	485.53
678.01	482.48
678.34	479.51
678.68	476.61
679.02	473.78
679.36	471.04
679.70	468.38
680.04	465.69
680.37	462.83
680.71	460.07
681.05	457.47
681.39	454.70
681.73	452.05
682.06	449.48
682.40	446.87
682.74	444.36
683.08	441.84
683.42	439.26
683.75	436.78
684.09	434.18
684.43	431.72
684.77	429.25
685.10	426.90
685.44	424.57
685.78	422.35
686.12	420.11
686.45	417.80
686.79	415.42
687.13	413.22
687.46	411.03
687.80	408.83
688.14	406.63
688.48	404.57
688.81	402.35
689.15	400.20
689.49	398.13
689.82	396.00
690.16	393.92
690.50	391.98
690.83	390.04
691.17	388.08
691.51	386.16
691.84	384.27
692.18	382.32
692.52	380.38
692.85	378.48
693.19	376.62
693.52	374.80
693.86	373.00
694.20	371.24
694.53	369.47
694.87	367.62
695.21	365.84
695.54	364.05
695.88	362.33
696.21	360.61
696.55	358.91
696.88	357.27
697.22	355.61
697.56	354.00
697.89	352.36
698.23	350.75
698.56	349.15
698.90	347.62
699.23	346.01
699.57	344.45
699.90	342.85
700.24	341.29
700.58	339.75
700.91	338.25
701.25	336.78
701.58	335.38
701.92	333.99
702.25	332.61
702.59	331.24
702.92	329.91
703.26	328.61
703.59	327.33
703.93	326.16
704.26	324.91
704.60	323.63
704.93	322.36
705.26	321.09
705.60	319.92
705.93	318.70
706.27	317.68
706.60	316.60
706.94	315.50
707.27	314.35
707.61	313.32
707.94	312.31
708.27	311.20
708.61	310.13
708.94	309.13
709.28	308.13
709.61	307.14
709.94	306.18
710.28	305.14
710.61	304.14
710.95	303.03
711.28	302.11
711.61	301.12
711.95	300.17
712.28	299.25
712.61	298.25
712.95	297.32
713.28	296.43
713.61	295.54
713.95	294.70
714.28	293.88
714.61	293.00
714.95	292.14
715.28	291.27
715.61	290.43
715.95	289.59
716.28	288.71
716.61	287.88
716.95	287.03
717.28	286.27
717.61	285.47
717.94	284.76
718.28	283.93
718.61	283.24
718.94	282.55
719.27	281.91
719.61	281.28
719.94	280.66
720.27	279.90
720.60	279.20
720.94	278.54
721.27	277.96
721.60	277.37
721.93	276.76
722.27	276.21
722.60	275.64
722.93	275.07
723.26	274.58
723.59	274.02
723.93	273.49
724.26	272.95
724.59	272.39
724.92	271.88
725.25	271.38
725.59	270.84
725.92	270.31
726.25	269.78
726.58	269.28
726.91	268.78
727.24	268.31
727.57	267.86
727.91	267.36
728.24	266.88
728.57	266.39
728.90	265.95
729.23	265.44
729.56	265.01
729.89	264.54
730.22	264.05
730.55	263.56
730.89	263.13
731.22	262.68
731.55	262.25
731.88	261.80
732.21	261.39
732.54	260.96
732.87	260.52
733.20	260.10
733.53	259.71
733.86	259.32
734.19	258.95
734.52	258.58
734.85	258.29
735.18	257.88
735.51	257.53
735.84	257.17
736.17	256.83
736.50	256.42
736.83	256.20
737.16	255.87
737.49	255.56
737.82	255.21
738.15	254.91
738.48	254.60
738.81	254.26
739.14	253.92
739.47	253.63
739.80	253.37
740.13	253.10
740.46	252.77
740.79	252.46
741.12	252.14
741.45	251.77
741.78	251.44
742.11	251.13
742.44	250.79
742.77	250.47
743.10	250.15
743.43	249.87
743.75	249.49
744.08	249.33
744.41	249.04
744.74	248.79
745.07	248.48
745.40	248.22
745.73	248.00
746.06	247.72
746.39	247.45
746.71	247.15
747.04	246.86
747.37	246.61
747.70	246.34
748.03	246.09
748.36	245.91
748.68	245.64
749.01	245.41
749.34	245.18
749.67	244.93
750.00	244.69
750.33	244.51
750.65	244.27
750.98	243.93
751.31	243.69
751.64	243.47
751.97	243.33
752.29	243.12
752.62	242.87
752.95	242.64
753.28	242.42
753.60	242.24
753.93	242.08
754.26	241.86
754.59	241.62
754.91	241.39
755.24	241.20
755.57	241.00
755.90	240.80
756.22	240.58
756.55	240.41
756.88	240.24
757.20	239.99
757.53	239.79
757.86	239.61
758.19	239.44
758.51	239.27
758.84	239.01
759.17	238.83
759.49	238.69
759.82	238.58
760.15	238.44
760.47	238.27
760.80	238.08
761.13	237.95
761.45	237.80
761.78	237.65
762.11	237.51
762.43	237.38
762.76	237.25
763.08	237.16
763.41	237.07
763.74	236.93
764.06	236.79
764.39	236.66
764.71	236.53
765.04	236.42
765.37	236.27
765.69	236.18
766.02	236.02
766.34	235.87
766.67	235.75
767.00	235.65
767.32	235.61
767.65	235.58
767.97	235.46
768.30	235.37
768.62	235.27
768.95	235.13
769.27	234.99
769.60	234.90
769.92	234.79
770.25	234.63
770.57	234.53
770.90	234.43
771.22	234.36
771.55	234.25
771.87	234.16
772.20	234.08
772.52	234.06
772.85	234.10
773.17	234.00
773.50	233.89
773.82	233.77
774.15	233.62
774.47	233.41
774.80	233.31
775.12	233.23
775.45	233.17
775.77	233.12
776.09	233.03
776.42	232.94
776.74	232.88
777.07	232.81
777.39	232.72
777.72	232.66
778.04	232.59
778.36	232.51
778.69	232.44
779.01	232.36
779.33	232.20
779.66	232.02
779.98	231.93
780.31	231.84
780.63	231.80
780.95	231.75
781.28	231.73
781.60	231.65
781.92	231.59
782.25	231.51
782.57	231.44
782.89	231.40
783.22	231.36
783.54	231.28
783.86	231.26
784.19	231.20
784.51	231.17
784.83	231.10
785.16	231.08
785.48	231.02
785.80	231.02
786.12	230.99
786.45	230.95
786.77	230.97
787.09	230.94
787.42	230.85
787.74	230.79
788.06	230.72
788.38	230.68
788.71	230.62
789.03	230.60
789.35	230.54
789.67	230.48
789.99	230.44
790.32	230.40
790.64	230.36
790.96	230.43
791.28	230.39
791.61	230.35
791.93	230.29
792.25	230.25
792.57	230.25
792.89	230.21
793.21	230.20
793.54	230.13
793.86	230.12
794.18	230.09
794.50	230.00
794.82	229.98
795.14	229.95
795.47	229.96
795.79	229.90
796.11	229.87
796.43	229.85
796.75	229.80
797.07	229.76
797.39	229.72
797.71	229.60
798.04	229.54
798.36	229.52
798.68	229.48
799.00	229.43
799.32	229.32
799.64	229.29
799.96	229.23
800.28	229.19
800.60	229.11
800.92	229.07
801.24	229.04
801.56	229.02
801.89	228.94
802.21	228.89
802.53	228.85
802.85	228.81
803.17	228.81
803.49	228.76
803.81	228.71
804.13	228.64
804.45	228.59
804.77	228.57
805.09	228.55
805.41	228.52
805.73	228.47
806.05	228.44
806.37	228.42
806.69	228.37
807.01	228.32
807.33	228.34
807.65	228.29
807.97	228.33
808.28	228.28
808.60	228.30
808.92	228.28
809.24	228.30
809.56	228.27
809.88	228.20
810.20	228.17
810.52	228.17
810.84	228.17
811.16	228.11
811.48	228.09
811.80	228.05
812.12	227.99
812.43	227.99
812.75	227.94
813.07	227.86
813.39	227.85
813.71	227.82
814.03	227.77
814.35	227.77
814.67	227.72
814.98	227.71
815.30	227.69
815.62	227.61
815.94	227.54
816.26	227.59
816.58	227.57
816.89	227.57
817.21	227.52
817.53	227.49
817.85	227.50
818.17	227.46
818.48	227.44
818.80	227.48
819.12	227.47
819.44	227.48
819.76	227.49
820.07	227.51
820.39	227.49
820.71	227.49
821.03	227.49
821.34	227.46
821.66	227.48
821.98	227.47
822.30	227.47
822.61	227.51
822.93	227.43
823.25	227.41
823.57	227.41
823.88	227.42
824.20	227.41
824.52	227.43
824.83	227.44
825.15	227.42
825.47	227.41
825.79	227.41
826.10	227.40
826.42	227.39
826.74	227.38
827.05	227.35
827.37	227.37
827.69	227.36
828.00	227.35
828.32	227.34
828.64	227.34
828.95	227.40
829.27	227.38
829.58	227.34
829.90	227.36
830.22	227.35
830.53	227.33
830.85	227.31
831.17	227.27
831.48	227.27
831.80	227.26
832.11	227.24
832.43	227.23
832.75	227.25
833.06	227.30
833.38	227.26
833.69	227.26
834.01	227.23
834.32	227.21
834.64	227.21
834.96	227.20
835.27	227.17
835.59	227.14
835.90	227.09
836.22	227.13
836.53	227.10
836.85	227.09
837.16	227.17
837.48	227.15
837.79	227.21
838.11	227.20
838.42	227.20
838.74	227.19
839.05	227.13
839.37	227.09
839.68	227.03
840.00	226.99
840.31	227.00
840.63	226.96
840.94	226.92
841.26	226.91
841.57	226.89
841.88	226.89
842.20	226.88
842.51	226.87
842.83	226.86
843.14	226.91
843.46	226.88
843.77	226.82
844.08	226.82
844.40	226.74
844.71	226.70
845.03	226.67
845.34	226.66
845.65	226.69
845.97	226.67
846.28	226.66
846.60	226.65
846.91	226.64
847.22	226.64
847.54	226.66
847.85	226.66
848.16	226.63
848.48	226.59
848.79	226.57
849.10	226.56
849.42	226.55
849.73	226.49
850.04	226.46
850.36	226.42
850.67	226.38
850.98	226.39
851.30	226.41
851.61	226.39
851.92	226.36
852.23	226.37
852.55	226.38
852.86	226.38
853.17	226.43
853.49	226.43
853.80	226.46
854.11	226.46
854.42	226.43
854.74	226.41
855.05	226.40
855.36	226.36
855.67	226.40
855.99	226.42
856.30	226.53
856.61	226.51
856.92	226.51
857.23	226.53
857.55	226.49
857.86	226.47
858.17	226.50
858.48	226.48
858.79	226.45
859.11	226.43
859.42	226.40
859.73	226.36
860.04	226.36
860.35	226.33
860.66	226.30
860.98	226.31
861.29	226.32
861.60	226.35
861.91	226.37
862.22	226.32
862.53	226.30
862.84	226.19
863.16	226.24
863.47	226.23
863.78	226.18
864.09	226.22
864.40	226.24
864.71	226.24
865.02	226.28
865.33	226.30
865.64	226.31
865.95	226.32
866.27	226.42
866.58	226.40
866.89	226.42
867.20	226.42
867.51	226.42
867.82	226.43
868.13	226.42
868.44	226.41
868.75	226.43
869.06	226.46
869.37	226.47
869.68	226.44
869.99	226.45
870.30	226.50
870.61	226.53
870.92	226.52
871.23	226.51
871.54	226.51
871.85	226.51
872.16	226.57
872.47	226.56
872.78	226.49
873.09	226.51
873.40	226.53
873.71	226.54
874.02	226.55
874.33	226.54
874.64	226.54
874.95	226.55
875.26	226.55
875.56	226.53
875.87	226.52
876.18	226.51
876.49	226.62
876.80	226.58
877.11	226.54
877.42	226.56
877.73	226.54
878.04	226.51
878.35	226.52
878.66	226.50
878.96	226.48
879.27	226.46
879.58	226.44
879.89	226.41
880.20	226.42
880.51	226.41
880.82	226.41
881.12	226.43
881.43	226.43
881.74	226.41
882.05	226.39
882.36	226.38
882.67	226.39
882.97	226.28
883.28	226.28
883.59	226.29
883.90	226.28
884.21	226.30
884.51	226.29
884.82	226.25
885.13	226.22
885.44	226.23
885.74	226.26
886.05	226.28
886.36	226.26
886.67	226.20
886.98	226.27
887.28	226.26
887.59	226.25
887.90	226.25
888.20	226.26
888.51	226.26
888.82	226.26
889.13	226.26
889.43	226.36
889.74	226.34
890.05	226.32
890.35	226.32
890.66	226.28
890.97	226.30
891.28	226.32
891.58	226.31
891.89	226.29
892.20	226.28
892.50	226.27
892.81	226.22
893.12	226.21
893.42	226.12
893.73	226.12
894.04	226.07
894.34	226.08
894.65	226.08
894.95	226.06
895.26	226.03
895.57	226.08
895.87	225.97
896.18	226.01
896.48	226.02
896.79	226.00
897.10	226.00
897.40	225.99
897.71	225.98
898.01	226.00
898.32	226.01
898.63	226.00
898.93	225.99
899.24	226.04
899.54	226.06
899.85	226.09
900.15	226.09
900.46	226.13
900.76	226.10
901.07	226.11
901.38	226.14
901.68	226.18
901.99	226.10
902.29	226.12
902.60	226.13
902.90	226.15
903.21	226.16
903.51	226.19
903.82	226.22
904.12	226.21
904.43	226.23
904.73	226.21
905.03	226.22
905.34	226.29
905.64	226.29
905.95	226.31
906.25	226.30
906.56	226.34
906.86	226.31
907.17	226.34
907.47	226.33
907.77	226.31
908.08	226.27
908.38	226.29
908.69	226.31
908.99	226.33
909.30	226.30
909.60	226.30
909.90	226.30
910.21	226.30
910.51	226.33
910.81	226.30
911.12	226.36
911.42	226.36
911.73	226.30
912.03	226.30
912.33	226.29
912.64	226.26
912.94	226.25
913.24	226.28
913.55	226.25
913.85	226.26
914.15	226.29
914.46	226.32
914.76	226.32
915.06	226.30
915.37	226.25
915.67	226.26
915.97	226.25
916.27	226.24
916.58	226.26
916.88	226.24
917.18	226.27
917.49	226.30
917.79	226.28
918.09	226.28
918.39	226.33
918.70	226.31
919.00	226.36
919.30	226.39
919.60	226.36
919.91	226.38
920.21	226.37
920.51	226.32
920.81	226.35
921.12	226.35
921.42	226.35
921.72	226.36
922.02	226.37
922.32	226.38
922.63	226.33
922.93	226.35
923.23	226.38
923.53	226.33
923.83	226.29
924.13	226.30
924.44	226.29
924.74	226.26
925.04	226.30
925.34	226.28
925.64	226.22
925.94	226.22
926.24	226.27
926.55	226.24
926.85	226.24
927.15	226.17
927.45	226.17
927.75	226.12
928.05	226.11
928.35	226.05
928.65	226.07
928.95	226.10
929.26	226.06
929.56	226.02
929.86	226.02
930.16	225.98
930.46	225.96
930.76	225.95
931.06	225.89
931.36	225.85
931.66	225.89
931.96	225.89
932.26	225.86
932.56	225.80
932.86	225.83
933.16	225.86
933.46	225.85
933.76	225.81
934.06	225.83
934.36	225.85
934.66	225.86
934.96	225.79
935.26	225.77
935.56	225.78
935.86	225.76
936.16	225.72
936.46	225.70
936.76	225.69
937.06	225.68
937.36	225.68
937.66	225.70
937.96	225.66
938.26	225.64
938.56	225.66
938.86	225.67
939.16	225.65
939.46	225.66
939.76	225.67
940.06	225.66
940.35	225.64
940.65	225.56
940.95	225.55
941.25	225.56
941.55	225.57
941.85	225.55
942.15	225.56
942.45	225.60
942.75	225.62
943.04	225.63
943.34	225.67
943.64	225.66
943.94	225.61
944.24	225.61
944.54	225.63
944.84	225.61
945.13	225.57
945.43	225.57
945.73	225.53
946.03	225.53
946.33	225.55
946.62	225.57
946.92	225.62
947.22	225.64
947.52	225.66
947.82	225.69
948.11	225.66
948.41	225.65
948.71	225.66
949.01	225.64
949.31	225.63
949.60	225.63
949.90	225.64
950.20	225.66
950.50	225.66
950.79	225.63
951.09	225.67
951.39	225.68
951.69	225.68
951.98	225.72
952.28	225.75
952.58	225.79
952.87	225.81
953.17	225.83
953.47	225.85
953.76	225.86
954.06	225.82
954.36	225.85
954.66	225.88
954.95	225.85
955.25	225.93
955.55	225.95
955.84	225.91
956.14	225.92
956.44	225.94
956.73	225.92
957.03	225.95
957.32	225.92
957.62	225.93
957.92	225.95
958.21	225.97
958.51	226.07
958.81	226.05
959.10	226.08
959.40	226.10
959.69	226.12
959.99	226.13
960.29	226.16
960.58	226.15
960.88	226.18
961.17	226.22
961.47	226.18
961.76	226.15
962.06	226.18
962.36	226.16
962.65	226.16
962.95	226.19
963.24	226.18
963.54	226.19
963.83	226.21
964.13	226.20
964.42	226.18
964.72	226.07
965.01	226.07
965.31	226.03
965.60	225.99
965.90	226.00
966.19	225.98
966.49	225.96
966.78	225.95
967.08	225.92
967.37	225.89
967.67	225.86
967.96	225.89
968.26	225.85
968.55	225.86
968.85	225.87
969.14	225.87
969.43	225.85
969.73	225.79
970.02	225.76
970.32	225.74
970.61	225.68
970.91	225.65
971.20	225.64
971.49	225.61
971.79	225.62
972.08	225.57
972.38	225.56
972.67	225.60
972.96	225.58
973.26	225.52
973.55	225.52
973.85	225.53
974.14	225.52
974.43	225.54
974.73	225.54
975.02	225.50
975.31	225.50
975.61	225.50
975.90	225.51
976.19	225.52
976.49	225.54
976.78	225.59
977.07	225.58
977.37	225.58
977.66	225.60
977.95	225.61
978.24	225.60
978.54	225.62
978.83	225.59
979.12	225.64
979.42	225.69
979.71	225.73
980.00	225.73
980.29	225.72
980.59	225.71
980.88	225.72
981.17	225.74
981.46	225.73
981.76	225.75
982.05	225.81
982.34	225.80
982.63	225.82
982.93	225.81
983.22	225.85
983.51	225.85
983.80	225.87
984.09	225.88
984.39	225.87
984.68	225.89
984.97	225.90
985.26	225.89
985.55	225.86
985.85	225.85
986.14	225.91
986.43	225.95
986.72	225.96
987.01	225.97
987.30	226.00
987.59	225.99
987.89	226.00
988.18	225.98
988.47	226.03
988.76	225.99
989.05	225.98
989.34	226.00
989.63	226.03
989.92	226.04
990.22	226.05
990.51	226.07
990.80	226.08
991.09	226.08
991.38	226.10
991.67	226.14
991.96	226.13
992.25	226.12
992.54	226.13
992.83	226.13
993.12	226.11
993.41	226.10
993.70	226.15
993.99	226.18
994.28	226.21
994.58	226.19
994.87	226.19
995.16	226.20
995.45	226.16
995.74	226.13
996.03	226.14
996.32	226.14
996.61	226.16
996.90	226.13
997.19	226.13
997.48	226.12
997.77	226.11
998.06	226.13
998.34	226.10
998.63	226.06
998.92	226.07
999.21	226.05
999.50	226.05
999.79	226.00
1000.08	225.98
1000.37	225.98
1000.66	225.97
1000.95	226.02
1001.24	226.02
1001.53	226.04
1001.82	226.04
1002.11	226.00
1002.40	225.97
1002.68	225.98
1002.97	226.04
1003.26	226.00
1003.55	225.97
1003.84	225.95
1004.13	225.95
1004.42	225.94
1004.71	225.95
1004.99	225.93
1005.28	225.96
1005.57	225.92
1005.86	225.94
1006.15	225.93
1006.44	225.89
1006.72	225.87
1007.01	225.81
1007.30	225.81
1007.59	225.76
1007.88	225.73
1008.17	225.73
1008.45	225.72
1008.74	225.64
1009.03	225.60
1009.32	225.58
1009.60	225.58
1009.89	225.56
1010.18	225.53
1010.47	225.49
1010.76	225.48
1011.04	225.46
1011.33	225.47
1011.62	225.49
1011.91	225.43
1012.19	225.44
1012.48	225.42
1012.77	225.44
1013.05	225.49
1013.34	225.49
1013.63	225.51
1013.92	225.52
1014.20	225.50
1014.49	225.51
1014.78	225.57
1015.06	225.54
1015.35	225.59
1015.64	225.63
1015.92	225.65
1016.21	225.66
1016.50	225.68
1016.78	225.68
1017.07	225.73
1017.36	225.69
1017.64	225.69
1017.93	225.72
1018.22	225.71
1018.50	225.71
1018.79	225.73
1019.08	225.70
1019.36	225.69
1019.65	225.68
1019.93	225.72
1020.22	225.73
1020.51	225.80
1020.79	225.76
1021.08	225.30
1021.36	225.35
1021.65	226.21
1021.94	226.03
1022.22	225.61
1022.51	225.34
1022.79	226.34
1023.08	225.32
1023.36	227.16
1023.65	225.39
>>>>>End Processed Spectral Data<<<<<
