SpectraSuite Data File
++++++++++++++++++++++++++++++++++++
Date: Fri Feb 01 14:59:56 EST 2013
User: group
Dark Spectrum Present: No
Reference Spectrum Present: No
Number of Sampled Component Spectra: 1
Spectrometers: USB2E7196
Integration Time (usec): 35000 (USB2E7196)
Spectra Averaged: 100 (USB2E7196)
Boxcar Smoothing: 10 (USB2E7196)
Correct for Electrical Dark: No (USB2E7196)
Strobe/Lamp Enabled: No (USB2E7196)
Correct for Detector Non-linearity: No (USB2E7196)
Correct for Stray Light: No (USB2E7196)
Number of Pixels in Processed Spectrum: 2048
>>>>>Begin Processed Spectral Data<<<<<
339.09	0.00
339.48	215.16
339.86	217.16
340.24	218.29
340.63	219.72
341.01	222.28
341.39	222.07
341.78	223.00
342.16	224.98
342.54	224.74
342.93	213.53
343.31	224.33
343.69	224.85
344.07	225.27
344.46	225.69
344.84	226.05
345.22	226.28
345.60	226.52
345.99	226.71
346.37	226.81
346.75	226.93
347.13	226.98
347.52	227.03
347.90	227.13
348.28	227.14
348.66	227.18
349.05	227.19
349.43	227.18
349.81	227.19
350.19	227.23
350.57	227.25
350.96	227.34
351.34	227.41
351.72	227.48
352.10	227.60
352.48	227.65
352.87	227.69
353.25	227.76
353.63	227.84
354.01	227.93
354.39	228.02
354.77	228.11
355.15	228.24
355.54	228.30
355.92	228.33
356.30	228.44
356.68	228.57
357.06	228.62
357.44	228.68
357.82	228.79
358.20	228.86
358.58	228.90
358.97	228.98
359.35	229.08
359.73	229.20
360.11	229.24
360.49	229.29
360.87	229.35
361.25	229.40
361.63	229.49
362.01	229.50
362.39	229.52
362.77	229.54
363.15	229.53
363.53	229.56
363.91	229.58
364.29	229.60
364.67	229.54
365.05	229.56
365.43	229.59
365.81	229.59
366.19	229.63
366.57	229.67
366.95	229.62
367.33	229.55
367.71	229.50
368.09	229.49
368.47	229.49
368.85	229.47
369.23	229.45
369.61	229.34
369.99	229.37
370.37	229.33
370.75	229.34
371.13	229.31
371.51	229.25
371.89	229.21
372.27	229.14
372.65	229.07
373.03	229.00
373.41	228.94
373.78	228.87
374.16	228.77
374.54	228.70
374.92	228.62
375.30	228.57
375.68	228.51
376.06	228.46
376.44	228.38
376.82	228.32
377.19	228.23
377.57	228.17
377.95	228.04
378.33	227.96
378.71	227.84
379.09	227.78
379.47	227.70
379.84	227.60
380.22	227.49
380.60	227.43
380.98	227.34
381.36	227.27
381.73	227.20
382.11	227.15
382.49	227.08
382.87	227.03
383.25	226.94
383.62	226.97
384.00	226.89
384.38	226.83
384.76	226.77
385.13	226.75
385.51	226.71
385.89	226.64
386.27	226.62
386.64	226.56
387.02	226.47
387.40	226.45
387.78	226.40
388.15	226.41
388.53	226.35
388.91	226.31
389.29	226.26
389.66	226.23
390.04	226.18
390.42	226.18
390.79	226.16
391.17	226.19
391.55	226.07
391.92	226.06
392.30	226.07
392.68	226.07
393.05	226.08
393.43	226.09
393.81	226.13
394.18	226.10
394.56	226.11
394.94	226.18
395.31	226.21
395.69	226.31
396.06	226.36
396.44	226.42
396.82	226.48
397.19	226.59
397.57	226.63
397.95	226.70
398.32	226.73
398.70	226.80
399.07	226.86
399.45	226.94
399.82	227.04
400.20	227.09
400.58	227.15
400.95	227.21
401.33	227.33
401.70	227.50
402.08	227.66
402.45	227.79
402.83	227.91
403.20	228.02
403.58	228.13
403.95	228.26
404.33	228.40
404.71	228.56
405.08	228.75
405.46	228.90
405.83	229.08
406.21	229.26
406.58	229.41
406.96	229.61
407.33	229.83
407.70	230.03
408.08	230.33
408.45	230.62
408.83	230.87
409.20	231.09
409.58	231.26
409.95	231.50
410.33	231.79
410.70	232.00
411.08	232.35
411.45	232.66
411.82	233.01
412.20	233.36
412.57	233.79
412.95	234.08
413.32	234.51
413.69	234.93
414.07	235.39
414.44	235.87
414.82	236.33
415.19	236.85
415.56	237.38
415.94	237.92
416.31	238.52
416.68	239.14
417.06	239.86
417.43	240.57
417.81	241.34
418.18	242.13
418.55	243.01
418.93	243.84
419.30	244.70
419.67	245.61
420.04	246.56
420.42	247.53
420.79	248.73
421.16	249.85
421.54	251.01
421.91	252.17
422.28	253.43
422.66	254.73
423.03	256.03
423.40	257.35
423.77	258.74
424.15	260.16
424.52	261.61
424.89	263.18
425.26	264.73
425.64	266.16
426.01	267.74
426.38	269.38
426.75	271.05
427.13	272.76
427.50	274.58
427.87	276.42
428.24	278.28
428.61	280.01
428.99	282.00
429.36	284.09
429.73	286.18
430.10	288.19
430.47	290.24
430.85	292.36
431.22	294.65
431.59	297.02
431.96	299.29
432.33	301.78
432.70	304.16
433.08	306.95
433.45	309.59
433.82	312.21
434.19	315.13
434.56	317.92
434.93	320.58
435.30	323.24
435.68	326.17
436.05	329.03
436.42	331.81
436.79	334.28
437.16	336.98
437.53	339.80
437.90	342.63
438.27	345.40
438.64	348.27
439.01	350.84
439.38	353.11
439.75	355.27
440.13	357.81
440.50	360.19
440.87	362.06
441.24	364.02
441.61	366.16
441.98	367.66
442.35	369.48
442.72	371.40
443.09	373.15
443.46	374.13
443.83	374.68
444.20	375.21
444.57	376.11
444.94	376.44
445.31	376.76
445.68	377.12
446.05	377.22
446.42	376.82
446.79	376.42
447.16	375.96
447.53	375.62
447.90	374.47
448.27	373.30
448.64	371.72
449.01	370.52
449.37	368.57
449.74	366.65
450.11	364.45
450.48	361.94
450.85	359.44
451.22	357.30
451.59	355.30
451.96	353.37
452.33	350.76
452.70	348.41
453.07	345.58
453.43	342.70
453.80	339.91
454.17	337.25
454.54	334.69
454.91	331.99
455.28	329.38
455.65	326.86
456.02	324.41
456.38	322.25
456.75	319.59
457.12	317.36
457.49	315.12
457.86	312.95
458.23	311.12
458.59	309.08
458.96	307.02
459.33	305.14
459.70	303.29
460.07	301.77
460.43	300.05
460.80	298.45
461.17	296.96
461.54	295.48
461.91	294.04
462.27	292.61
462.64	291.35
463.01	289.95
463.38	288.66
463.74	287.29
464.11	286.14
464.48	285.14
464.85	284.02
465.21	283.18
465.58	282.23
465.95	281.13
466.32	280.20
466.68	279.28
467.05	278.38
467.42	277.47
467.78	276.52
468.15	275.59
468.52	274.94
468.88	274.08
469.25	273.29
469.62	272.61
469.98	271.91
470.35	271.26
470.72	270.65
471.08	269.99
471.45	269.42
471.82	268.83
472.18	268.23
472.55	267.78
472.92	267.20
473.28	266.68
473.65	266.19
474.02	265.73
474.38	265.34
474.75	265.01
475.11	264.63
475.48	264.36
475.85	264.12
476.21	263.87
476.58	263.66
476.94	263.51
477.31	263.32
477.67	263.14
478.04	263.00
478.41	262.92
478.77	262.94
479.14	262.86
479.50	262.88
479.87	262.91
480.23	262.95
480.60	263.03
480.96	263.13
481.33	263.33
481.69	263.50
482.06	263.68
482.42	263.86
482.79	264.08
483.15	264.35
483.52	264.73
483.88	265.02
484.25	265.38
484.61	265.78
484.98	266.23
485.34	266.82
485.71	267.41
486.07	267.99
486.44	268.53
486.80	269.20
487.17	269.90
487.53	270.74
487.90	271.61
488.26	272.50
488.62	273.48
488.99	274.44
489.35	275.49
489.72	276.58
490.08	277.79
490.44	278.99
490.81	280.34
491.17	281.68
491.54	283.21
491.90	284.73
492.26	286.37
492.63	288.06
492.99	289.83
493.36	291.73
493.72	293.75
494.08	295.90
494.45	298.15
494.81	300.51
495.17	302.89
495.54	305.46
495.90	308.11
496.26	310.86
496.63	313.83
496.99	316.95
497.35	320.25
497.72	323.64
498.08	327.17
498.44	330.80
498.80	334.71
499.17	338.69
499.53	342.87
499.89	347.20
500.26	351.74
500.62	356.36
500.98	361.30
501.34	366.34
501.71	371.60
502.07	377.03
502.43	382.68
502.79	388.46
503.16	394.49
503.52	400.75
503.88	407.20
504.24	413.77
504.60	420.64
504.97	427.72
505.33	434.97
505.69	442.67
506.05	450.44
506.41	458.27
506.78	466.40
507.14	474.81
507.50	483.57
507.86	492.62
508.22	501.81
508.59	510.96
508.95	520.53
509.31	530.26
509.67	540.33
510.03	550.53
510.39	561.11
510.75	571.84
511.12	582.83
511.48	594.06
511.84	605.47
512.20	616.95
512.56	628.91
512.92	641.09
513.28	653.43
513.64	665.92
514.00	678.65
514.37	691.61
514.73	704.70
515.09	717.67
515.45	730.86
515.81	744.43
516.17	758.46
516.53	772.60
516.89	786.80
517.25	801.04
517.61	815.52
517.97	829.99
518.33	844.50
518.69	859.30
519.05	874.31
519.41	889.56
519.77	905.24
520.13	920.65
520.49	936.12
520.85	951.60
521.21	967.34
521.57	983.61
521.93	999.45
522.29	1015.93
522.65	1032.23
523.01	1048.52
523.37	1064.64
523.73	1080.95
524.09	1097.17
524.45	1113.59
524.81	1130.33
525.17	1147.24
525.53	1164.24
525.89	1181.22
526.25	1198.06
526.61	1214.59
526.97	1231.44
527.33	1247.92
527.68	1264.74
528.04	1281.29
528.40	1297.98
528.76	1315.07
529.12	1331.69
529.48	1348.69
529.84	1364.84
530.20	1381.60
530.56	1398.80
530.91	1416.20
531.27	1432.93
531.63	1449.42
531.99	1466.06
532.35	1482.13
532.71	1498.00
533.07	1514.32
533.42	1530.27
533.78	1546.44
534.14	1562.76
534.50	1578.08
534.86	1594.07
535.21	1609.22
535.57	1625.24
535.93	1640.82
536.29	1655.72
536.65	1671.04
537.00	1685.94
537.36	1701.28
537.72	1716.03
538.08	1730.45
538.44	1744.41
538.79	1758.41
539.15	1772.33
539.51	1786.26
539.87	1800.59
540.22	1814.38
540.58	1828.30
540.94	1841.80
541.29	1854.82
541.65	1867.64
542.01	1881.12
542.37	1893.38
542.72	1906.00
543.08	1917.80
543.44	1930.27
543.79	1941.55
544.15	1952.66
544.51	1964.15
544.87	1975.27
545.22	1986.07
545.58	1996.31
545.94	2006.07
546.29	2016.07
546.65	2025.80
547.01	2035.03
547.36	2043.81
547.72	2052.45
548.07	2060.35
548.43	2068.46
548.79	2076.58
549.14	2084.08
549.50	2091.43
549.86	2099.19
550.21	2106.51
550.57	2113.74
550.92	2120.31
551.28	2127.43
551.64	2134.44
551.99	2141.11
552.35	2147.09
552.70	2153.20
553.06	2159.23
553.41	2165.55
553.77	2171.55
554.13	2177.62
554.48	2183.56
554.84	2188.91
555.19	2194.18
555.55	2199.09
555.90	2203.49
556.26	2208.22
556.61	2212.86
556.97	2216.99
557.32	2221.02
557.68	2225.07
558.03	2229.34
558.39	2233.09
558.74	2237.74
559.10	2241.45
559.45	2244.93
559.81	2249.40
560.16	2253.15
560.52	2256.24
560.87	2259.70
561.23	2262.16
561.58	2265.18
561.94	2267.71
562.29	2270.31
562.64	2273.02
563.00	2275.63
563.35	2279.16
563.71	2282.22
564.06	2285.42
564.42	2288.20
564.77	2290.74
565.12	2292.89
565.48	2294.60
565.83	2296.22
566.19	2297.27
566.54	2298.17
566.89	2299.13
567.25	2299.38
567.60	2300.51
567.96	2301.97
568.31	2302.64
568.66	2303.64
569.02	2303.90
569.37	2303.97
569.72	2304.45
570.08	2304.26
570.43	2304.13
570.78	2303.24
571.14	2301.74
571.49	2300.25
571.84	2299.85
572.20	2298.44
572.55	2297.24
572.90	2295.51
573.26	2293.93
573.61	2292.09
573.96	2289.99
574.31	2286.93
574.67	2283.80
575.02	2280.06
575.37	2276.67
575.72	2272.63
576.08	2269.27
576.43	2265.95
576.78	2262.30
577.13	2259.04
577.49	2255.85
577.84	2252.16
578.19	2248.42
578.54	2244.32
578.90	2239.94
579.25	2234.19
579.60	2229.19
579.95	2224.04
580.30	2218.94
580.66	2213.69
581.01	2208.68
581.36	2203.74
581.71	2199.51
582.06	2194.91
582.42	2190.40
582.77	2185.03
583.12	2180.43
583.47	2175.45
583.82	2170.17
584.17	2164.80
584.53	2159.10
584.88	2153.46
585.23	2147.46
585.58	2141.84
585.93	2136.41
586.28	2131.44
586.63	2126.18
586.98	2120.92
587.34	2116.15
587.69	2111.19
588.04	2105.89
588.39	2099.99
588.74	2093.35
589.09	2087.00
589.44	2080.15
589.79	2073.98
590.14	2068.23
590.49	2061.54
590.84	2054.99
591.19	2048.91
591.54	2042.39
591.89	2034.94
592.25	2027.89
592.60	2020.80
592.95	2013.06
593.30	2005.58
593.65	1997.84
594.00	1990.74
594.35	1983.38
594.70	1975.40
595.05	1968.00
595.40	1960.57
595.75	1953.13
596.10	1946.84
596.45	1939.87
596.80	1933.72
597.15	1926.91
597.50	1919.70
597.85	1913.14
598.19	1906.44
598.54	1899.26
598.89	1892.52
599.24	1886.54
599.59	1879.68
599.94	1873.29
600.29	1866.83
600.64	1860.32
600.99	1852.94
601.34	1845.96
601.69	1838.96
602.04	1831.82
602.39	1824.41
602.74	1817.54
603.08	1810.71
603.43	1803.93
603.78	1796.75
604.13	1789.39
604.48	1782.00
604.83	1775.15
605.18	1768.11
605.53	1760.20
605.87	1752.13
606.22	1744.88
606.57	1736.99
606.92	1729.74
607.27	1722.58
607.62	1715.62
607.96	1708.16
608.31	1701.47
608.66	1693.87
609.01	1686.39
609.36	1678.88
609.70	1670.98
610.05	1662.89
610.40	1655.24
610.75	1646.91
611.10	1639.25
611.44	1630.96
611.79	1623.09
612.14	1614.29
612.49	1605.29
612.83	1596.99
613.18	1588.94
613.53	1580.78
613.88	1572.20
614.22	1564.02
614.57	1555.51
614.92	1547.59
615.27	1540.00
615.61	1531.64
615.96	1523.70
616.31	1516.14
616.65	1508.78
617.00	1501.20
617.35	1493.65
617.70	1485.24
618.04	1476.75
618.39	1468.54
618.74	1460.87
619.08	1452.55
619.43	1445.26
619.78	1438.25
620.12	1430.88
620.47	1423.28
620.82	1415.25
621.16	1407.98
621.51	1400.41
621.85	1392.94
622.20	1384.47
622.55	1376.29
622.89	1368.65
623.24	1361.14
623.59	1353.71
623.93	1346.17
624.28	1338.94
624.62	1331.38
624.97	1324.34
625.32	1317.79
625.66	1310.90
626.01	1303.80
626.35	1296.36
626.70	1288.55
627.04	1281.00
627.39	1273.33
627.73	1266.10
628.08	1259.22
628.43	1251.85
628.77	1244.47
629.12	1236.78
629.46	1229.58
629.81	1222.26
630.15	1215.05
630.50	1207.66
630.84	1199.47
631.19	1191.66
631.53	1184.32
631.88	1176.85
632.22	1169.29
632.57	1162.00
632.91	1154.38
633.26	1146.89
633.60	1139.70
633.95	1132.65
634.29	1125.70
634.64	1119.09
634.98	1111.74
635.32	1104.67
635.67	1098.22
636.01	1091.65
636.36	1084.97
636.70	1078.61
637.05	1072.15
637.39	1065.77
637.73	1059.34
638.08	1053.57
638.42	1047.59
638.77	1041.02
639.11	1034.44
639.45	1028.08
639.80	1021.41
640.14	1015.13
640.49	1008.66
640.83	1002.29
641.17	996.08
641.52	989.72
641.86	983.38
642.20	977.57
642.55	971.34
642.89	964.83
643.23	958.35
643.58	952.63
643.92	946.41
644.26	940.15
644.61	934.21
644.95	928.14
645.29	921.50
645.64	914.73
645.98	908.54
646.32	902.76
646.66	896.78
647.01	891.01
647.35	885.22
647.69	879.55
648.04	874.08
648.38	868.33
648.72	862.28
649.06	856.21
649.41	850.37
649.75	844.34
650.09	838.34
650.43	832.55
650.78	826.35
651.12	820.41
651.46	814.75
651.80	808.84
652.14	803.47
652.49	798.18
652.83	793.05
653.17	787.27
653.51	781.54
653.85	776.13
654.20	770.40
654.54	764.46
654.88	758.78
655.22	752.96
655.56	747.28
655.90	741.89
656.25	736.65
656.59	731.29
656.93	726.27
657.27	721.17
657.61	715.75
657.95	710.69
658.29	705.57
658.64	700.44
658.98	695.21
659.32	689.80
659.66	684.58
660.00	679.29
660.34	674.50
660.68	669.55
661.02	664.56
661.36	659.90
661.70	655.42
662.05	651.01
662.39	646.66
662.73	642.27
663.07	637.91
663.41	633.50
663.75	629.01
664.09	624.48
664.43	620.16
664.77	616.07
665.11	611.85
665.45	607.86
665.79	603.74
666.13	599.65
666.47	595.59
666.81	591.50
667.15	587.45
667.49	583.63
667.83	579.95
668.17	576.04
668.51	572.04
668.85	568.10
669.19	564.27
669.53	560.47
669.87	556.63
670.21	553.00
670.55	549.40
670.89	546.05
671.23	542.65
671.57	539.20
671.91	535.72
672.25	532.29
672.58	528.80
672.92	525.48
673.26	522.45
673.60	519.32
673.94	516.22
674.28	513.38
674.62	510.38
674.96	507.21
675.30	504.37
675.64	501.50
675.97	498.75
676.31	495.97
676.65	493.06
676.99	490.39
677.33	487.57
677.67	484.76
678.01	481.71
678.34	478.77
678.68	475.89
679.02	473.11
679.36	470.36
679.70	467.69
680.04	464.93
680.37	462.02
680.71	459.31
681.05	456.74
681.39	454.03
681.73	451.45
682.06	448.97
682.40	446.40
682.74	443.93
683.08	441.40
683.42	438.79
683.75	436.33
684.09	433.80
684.43	431.37
684.77	428.96
685.10	426.68
685.44	424.39
685.78	422.10
686.12	419.87
686.45	417.64
686.79	415.36
687.13	413.23
687.46	411.10
687.80	408.95
688.14	406.75
688.48	404.70
688.81	402.40
689.15	400.31
689.49	398.19
689.82	396.08
690.16	394.01
690.50	392.07
690.83	390.13
691.17	388.13
691.51	386.19
691.84	384.36
692.18	382.41
692.52	380.40
692.85	378.51
693.19	376.58
693.52	374.71
693.86	372.90
694.20	371.07
694.53	369.22
694.87	367.36
695.21	365.59
695.54	363.73
695.88	362.04
696.21	360.34
696.55	358.70
696.88	357.04
697.22	355.35
697.56	353.72
697.89	352.09
698.23	350.49
698.56	348.92
698.90	347.29
699.23	345.64
699.57	344.11
699.90	342.56
700.24	341.06
700.58	339.52
700.91	338.03
701.25	336.58
701.58	335.22
701.92	333.85
702.25	332.51
702.59	331.15
702.92	329.83
703.26	328.45
703.59	327.15
703.93	325.94
704.26	324.75
704.60	323.44
704.93	322.14
705.26	320.89
705.60	319.71
705.93	318.60
706.27	317.58
706.60	316.51
706.94	315.43
707.27	314.28
707.61	313.29
707.94	312.29
708.27	311.24
708.61	310.18
708.94	309.16
709.28	308.15
709.61	307.25
709.94	306.30
710.28	305.35
710.61	304.41
710.95	303.38
711.28	302.48
711.61	301.52
711.95	300.61
712.28	299.65
712.61	298.66
712.95	297.71
713.28	296.84
713.61	296.00
713.95	295.15
714.28	294.36
714.61	293.51
714.95	292.65
715.28	291.79
715.61	290.92
715.95	290.14
716.28	289.36
716.61	288.48
716.95	287.70
717.28	286.94
717.61	286.15
717.94	285.46
718.28	284.67
718.61	284.00
718.94	283.35
719.27	282.77
719.61	282.15
719.94	281.51
720.27	280.84
720.60	280.20
720.94	279.58
721.27	278.99
721.60	278.43
721.93	277.87
722.27	277.37
722.60	276.84
722.93	276.24
723.26	275.68
723.59	275.17
723.93	274.67
724.26	274.15
724.59	273.62
724.92	273.10
725.25	272.59
725.59	272.12
725.92	271.60
726.25	271.06
726.58	270.59
726.91	270.12
727.24	269.65
727.57	269.17
727.91	268.66
728.24	268.19
728.57	267.72
728.90	267.24
729.23	266.74
729.56	266.29
729.89	265.86
730.22	265.37
730.55	264.90
730.89	264.43
731.22	263.96
731.55	263.53
731.88	263.07
732.21	262.63
732.54	262.16
732.87	261.73
733.20	261.31
733.53	260.90
733.86	260.52
734.19	260.13
734.52	259.73
734.85	259.41
735.18	258.99
735.51	258.62
735.84	258.25
736.17	257.89
736.50	257.48
736.83	257.23
737.16	256.89
737.49	256.55
737.82	256.21
738.15	255.86
738.48	255.49
738.81	255.17
739.14	254.85
739.47	254.52
739.80	254.22
740.13	253.90
740.46	253.56
740.79	253.21
741.12	252.89
741.45	252.55
741.78	252.16
742.11	251.86
742.44	251.52
742.77	251.23
743.10	250.93
743.43	250.65
743.75	250.20
744.08	250.07
744.41	249.77
744.74	249.47
745.07	249.21
745.40	248.94
745.73	248.71
746.06	248.41
746.39	248.16
746.71	247.88
747.04	247.59
747.37	247.32
747.70	247.05
748.03	246.78
748.36	246.56
748.68	246.35
749.01	246.12
749.34	245.89
749.67	245.66
750.00	245.42
750.33	245.24
750.65	245.05
750.98	244.70
751.31	244.47
751.64	244.28
751.97	244.12
752.29	243.95
752.62	243.69
752.95	243.47
753.28	243.28
753.60	243.08
753.93	242.94
754.26	242.74
754.59	242.56
754.91	242.37
755.24	242.19
755.57	242.00
755.90	241.81
756.22	241.61
756.55	241.43
756.88	241.24
757.20	241.03
757.53	240.86
757.86	240.70
758.19	240.58
758.51	240.42
758.84	240.21
759.17	240.02
759.49	239.89
759.82	239.80
760.15	239.67
760.47	239.53
760.80	239.36
761.13	239.24
761.45	239.13
761.78	238.99
762.11	238.87
762.43	238.73
762.76	238.59
763.08	238.47
763.41	238.36
763.74	238.26
764.06	238.14
764.39	238.01
764.71	237.89
765.04	237.77
765.37	237.64
765.69	237.53
766.02	237.39
766.34	237.25
766.67	237.09
767.00	236.99
767.32	236.93
767.65	236.88
767.97	236.80
768.30	236.67
768.62	236.57
768.95	236.47
769.27	236.37
769.60	236.30
769.92	236.19
770.25	236.05
770.57	235.93
770.90	235.80
771.22	235.71
771.55	235.61
771.87	235.45
772.20	235.36
772.52	235.32
772.85	235.37
773.17	235.27
773.50	235.18
773.82	235.03
774.15	234.90
774.47	234.71
774.80	234.59
775.12	234.49
775.45	234.42
775.77	234.30
776.09	234.22
776.42	234.12
776.74	234.04
777.07	233.97
777.39	233.86
777.72	233.78
778.04	233.69
778.36	233.58
778.69	233.53
779.01	233.47
779.33	233.30
779.66	233.11
779.98	233.06
780.31	232.99
780.63	232.98
780.95	232.91
781.28	232.86
781.60	232.78
781.92	232.71
782.25	232.61
782.57	232.51
782.89	232.44
783.22	232.35
783.54	232.28
783.86	232.20
784.19	232.14
784.51	232.13
784.83	232.03
785.16	231.98
785.48	231.92
785.80	231.83
786.12	231.79
786.45	231.72
786.77	231.64
787.09	231.57
787.42	231.47
787.74	231.45
788.06	231.41
788.38	231.35
788.71	231.31
789.03	231.29
789.35	231.30
789.67	231.25
789.99	231.22
790.32	231.16
790.64	231.13
790.96	231.17
791.28	231.08
791.61	231.11
791.93	231.07
792.25	231.02
792.57	231.07
792.89	230.97
793.21	230.95
793.54	230.93
793.86	230.91
794.18	230.89
794.50	230.81
794.82	230.78
795.14	230.76
795.47	230.73
795.79	230.68
796.11	230.58
796.43	230.57
796.75	230.53
797.07	230.51
797.39	230.48
797.71	230.38
798.04	230.34
798.36	230.29
798.68	230.27
799.00	230.28
799.32	230.23
799.64	230.24
799.96	230.24
800.28	230.22
800.60	230.19
800.92	230.18
801.24	230.17
801.56	230.16
801.89	230.11
802.21	230.12
802.53	230.10
802.85	230.13
803.17	230.11
803.49	230.10
803.81	230.05
804.13	230.02
804.45	230.01
804.77	230.02
805.09	230.01
805.41	230.00
805.73	229.96
806.05	229.91
806.37	229.92
806.69	229.88
807.01	229.85
807.33	229.84
807.65	229.78
807.97	229.83
808.28	229.80
808.60	229.83
808.92	229.79
809.24	229.83
809.56	229.80
809.88	229.76
810.20	229.73
810.52	229.73
810.84	229.69
811.16	229.69
811.48	229.66
811.80	229.64
812.12	229.60
812.43	229.58
812.75	229.58
813.07	229.54
813.39	229.56
813.71	229.52
814.03	229.50
814.35	229.49
814.67	229.39
814.98	229.36
815.30	229.29
815.62	229.23
815.94	229.17
816.26	229.21
816.58	229.16
816.89	229.15
817.21	229.11
817.53	229.09
817.85	229.04
818.17	229.01
818.48	228.96
818.80	228.97
819.12	228.91
819.44	228.88
819.76	228.83
820.07	228.77
820.39	228.75
820.71	228.72
821.03	228.69
821.34	228.66
821.66	228.63
821.98	228.67
822.30	228.63
822.61	228.64
822.93	228.56
823.25	228.55
823.57	228.51
823.88	228.53
824.20	228.49
824.52	228.46
824.83	228.46
825.15	228.45
825.47	228.41
825.79	228.42
826.10	228.37
826.42	228.35
826.74	228.34
827.05	228.32
827.37	228.32
827.69	228.34
828.00	228.34
828.32	228.34
828.64	228.29
828.95	228.34
829.27	228.31
829.58	228.29
829.90	228.32
830.22	228.33
830.53	228.30
830.85	228.31
831.17	228.29
831.48	228.26
831.80	228.24
832.11	228.23
832.43	228.20
832.75	228.20
833.06	228.27
833.38	228.24
833.69	228.20
834.01	228.19
834.32	228.15
834.64	228.17
834.96	228.14
835.27	228.15
835.59	228.15
835.90	228.12
836.22	228.11
836.53	228.08
836.85	228.06
837.16	228.15
837.48	228.14
837.79	228.16
838.11	228.17
838.42	228.19
838.74	228.19
839.05	228.17
839.37	228.19
839.68	228.09
840.00	228.11
840.31	228.17
840.63	228.17
840.94	228.18
841.26	228.15
841.57	228.15
841.88	228.15
842.20	228.10
842.51	228.09
842.83	228.09
843.14	228.18
843.46	228.17
843.77	228.11
844.08	228.08
844.40	228.10
844.71	228.11
845.03	228.10
845.34	228.09
845.65	228.09
845.97	228.08
846.28	228.12
846.60	228.13
846.91	228.11
847.22	228.08
847.54	228.09
847.85	228.10
848.16	228.09
848.48	228.06
848.79	228.10
849.10	228.10
849.42	228.11
849.73	227.99
850.04	228.01
850.36	227.99
850.67	228.03
850.98	228.01
851.30	228.02
851.61	228.00
851.92	228.03
852.23	228.08
852.55	228.06
852.86	228.08
853.17	228.05
853.49	228.05
853.80	228.06
854.11	228.05
854.42	228.04
854.74	228.03
855.05	228.03
855.36	227.98
855.67	227.99
855.99	227.98
856.30	228.11
856.61	228.07
856.92	228.05
857.23	228.05
857.55	228.00
857.86	228.00
858.17	227.99
858.48	227.93
858.79	227.90
859.11	227.92
859.42	227.90
859.73	227.88
860.04	227.87
860.35	227.86
860.66	227.81
860.98	227.79
861.29	227.80
861.60	227.78
861.91	227.78
862.22	227.78
862.53	227.76
862.84	227.63
863.16	227.64
863.47	227.60
863.78	227.56
864.09	227.55
864.40	227.53
864.71	227.55
865.02	227.58
865.33	227.56
865.64	227.53
865.95	227.51
866.27	227.59
866.58	227.57
866.89	227.56
867.20	227.56
867.51	227.54
867.82	227.53
868.13	227.54
868.44	227.52
868.75	227.48
869.06	227.49
869.37	227.50
869.68	227.44
869.99	227.46
870.30	227.47
870.61	227.51
870.92	227.46
871.23	227.45
871.54	227.47
871.85	227.45
872.16	227.45
872.47	227.46
872.78	227.34
873.09	227.36
873.40	227.36
873.71	227.37
874.02	227.39
874.33	227.39
874.64	227.37
874.95	227.39
875.26	227.40
875.56	227.42
875.87	227.42
876.18	227.44
876.49	227.54
876.80	227.53
877.11	227.45
877.42	227.49
877.73	227.47
878.04	227.44
878.35	227.46
878.66	227.48
878.96	227.44
879.27	227.50
879.58	227.47
879.89	227.46
880.20	227.51
880.51	227.51
880.82	227.50
881.12	227.53
881.43	227.54
881.74	227.50
882.05	227.50
882.36	227.50
882.67	227.53
882.97	227.41
883.28	227.42
883.59	227.46
883.90	227.49
884.21	227.50
884.51	227.51
884.82	227.50
885.13	227.52
885.44	227.53
885.74	227.50
886.05	227.51
886.36	227.53
886.67	227.48
886.98	227.56
887.28	227.56
887.59	227.53
887.90	227.50
888.20	227.53
888.51	227.52
888.82	227.52
889.13	227.53
889.43	227.67
889.74	227.66
890.05	227.66
890.35	227.59
890.66	227.62
890.97	227.60
891.28	227.57
891.58	227.54
891.89	227.56
892.20	227.57
892.50	227.60
892.81	227.57
893.12	227.57
893.42	227.47
893.73	227.49
894.04	227.52
894.34	227.53
894.65	227.53
894.95	227.51
895.26	227.49
895.57	227.55
895.87	227.44
896.18	227.46
896.48	227.47
896.79	227.51
897.10	227.47
897.40	227.48
897.71	227.50
898.01	227.55
898.32	227.55
898.63	227.54
898.93	227.51
899.24	227.52
899.54	227.51
899.85	227.50
900.15	227.48
900.46	227.45
900.76	227.45
901.07	227.43
901.38	227.39
901.68	227.42
901.99	227.35
902.29	227.34
902.60	227.31
902.90	227.28
903.21	227.26
903.51	227.27
903.82	227.27
904.12	227.26
904.43	227.23
904.73	227.22
905.03	227.21
905.34	227.30
905.64	227.29
905.95	227.28
906.25	227.26
906.56	227.23
906.86	227.20
907.17	227.19
907.47	227.19
907.77	227.20
908.08	227.15
908.38	227.13
908.69	227.13
908.99	227.16
909.30	227.18
909.60	227.18
909.90	227.19
910.21	227.17
910.51	227.19
910.81	227.18
911.12	227.19
911.42	227.19
911.73	227.09
912.03	227.10
912.33	227.14
912.64	227.15
912.94	227.18
913.24	227.18
913.55	227.20
913.85	227.21
914.15	227.22
914.46	227.23
914.76	227.25
915.06	227.23
915.37	227.20
915.67	227.19
915.97	227.17
916.27	227.16
916.58	227.17
916.88	227.15
917.18	227.12
917.49	227.20
917.79	227.23
918.09	227.24
918.39	227.26
918.70	227.25
919.00	227.27
919.30	227.30
919.60	227.28
919.91	227.28
920.21	227.30
920.51	227.27
920.81	227.28
921.12	227.29
921.42	227.31
921.72	227.34
922.02	227.31
922.32	227.35
922.63	227.36
922.93	227.42
923.23	227.42
923.53	227.41
923.83	227.30
924.13	227.31
924.44	227.28
924.74	227.28
925.04	227.30
925.34	227.34
925.64	227.31
925.94	227.33
926.24	227.36
926.55	227.32
926.85	227.39
927.15	227.37
927.45	227.37
927.75	227.34
928.05	227.31
928.35	227.33
928.65	227.34
928.95	227.31
929.26	227.25
929.56	227.26
929.86	227.28
930.16	227.31
930.46	227.26
930.76	227.29
931.06	227.25
931.36	227.18
931.66	227.20
931.96	227.19
932.26	227.20
932.56	227.15
932.86	227.17
933.16	227.15
933.46	227.15
933.76	227.14
934.06	227.15
934.36	227.21
934.66	227.20
934.96	227.21
935.26	227.27
935.56	227.28
935.86	227.28
936.16	227.27
936.46	227.25
936.76	227.28
937.06	227.26
937.36	227.28
937.66	227.30
937.96	227.26
938.26	227.20
938.56	227.20
938.86	227.20
939.16	227.22
939.46	227.19
939.76	227.18
940.06	227.14
940.35	227.19
940.65	227.12
940.95	227.12
941.25	227.05
941.55	226.97
941.85	226.98
942.15	226.96
942.45	226.98
942.75	226.94
943.04	226.90
943.34	226.90
943.64	226.89
943.94	226.89
944.24	226.88
944.54	226.90
944.84	226.89
945.13	226.86
945.43	226.83
945.73	226.86
946.03	226.85
946.33	226.86
946.62	226.79
946.92	226.80
947.22	226.79
947.52	226.80
947.82	226.83
948.11	226.79
948.41	226.77
948.71	226.74
949.01	226.75
949.31	226.77
949.60	226.76
949.90	226.77
950.20	226.78
950.50	226.79
950.79	226.82
951.09	226.85
951.39	226.86
951.69	226.87
951.98	226.88
952.28	226.89
952.58	226.90
952.87	226.90
953.17	226.93
953.47	226.91
953.76	226.93
954.06	226.90
954.36	226.93
954.66	226.94
954.95	226.97
955.25	227.02
955.55	227.04
955.84	227.04
956.14	227.06
956.44	227.07
956.73	227.07
957.03	227.04
957.32	227.04
957.62	227.06
957.92	227.08
958.21	227.05
958.51	227.19
958.81	227.20
959.10	227.24
959.40	227.27
959.69	227.29
959.99	227.32
960.29	227.36
960.58	227.35
960.88	227.40
961.17	227.38
961.47	227.38
961.76	227.39
962.06	227.40
962.36	227.38
962.65	227.36
962.95	227.37
963.24	227.39
963.54	227.38
963.83	227.39
964.13	227.39
964.42	227.38
964.72	227.28
965.01	227.31
965.31	227.27
965.60	227.20
965.90	227.24
966.19	227.21
966.49	227.19
966.78	227.21
967.08	227.16
967.37	227.19
967.67	227.14
967.96	227.14
968.26	227.17
968.55	227.20
968.85	227.20
969.14	227.20
969.43	227.21
969.73	227.22
970.02	227.20
970.32	227.18
970.61	227.19
970.91	227.17
971.20	227.16
971.49	227.18
971.79	227.23
972.08	227.16
972.38	227.16
972.67	227.16
972.96	227.15
973.26	227.16
973.55	227.18
973.85	227.18
974.14	227.17
974.43	227.19
974.73	227.14
975.02	227.12
975.31	227.09
975.61	227.07
975.90	227.07
976.19	227.07
976.49	227.08
976.78	227.10
977.07	227.11
977.37	227.12
977.66	227.13
977.95	227.11
978.24	227.15
978.54	227.16
978.83	227.14
979.12	227.17
979.42	227.15
979.71	227.14
980.00	227.15
980.29	227.14
980.59	227.10
980.88	227.16
981.17	227.17
981.46	227.17
981.76	227.18
982.05	227.19
982.34	227.19
982.63	227.18
982.93	227.15
983.22	227.15
983.51	227.14
983.80	227.15
984.09	227.15
984.39	227.12
984.68	227.10
984.97	227.14
985.26	227.08
985.55	227.08
985.85	227.07
986.14	227.09
986.43	227.10
986.72	227.12
987.01	227.06
987.30	227.04
987.59	227.04
987.89	227.04
988.18	227.00
988.47	227.00
988.76	226.98
989.05	226.96
989.34	226.97
989.63	226.97
989.92	226.96
990.22	226.92
990.51	226.95
990.80	226.97
991.09	226.96
991.38	227.01
991.67	227.01
991.96	226.97
992.25	226.96
992.54	226.95
992.83	226.94
993.12	226.95
993.41	226.98
993.70	227.03
993.99	227.07
994.28	227.06
994.58	227.09
994.87	227.08
995.16	227.10
995.45	227.06
995.74	227.04
996.03	227.06
996.32	227.10
996.61	227.07
996.90	227.06
997.19	227.05
997.48	227.03
997.77	227.03
998.06	227.03
998.34	227.02
998.63	227.01
998.92	227.00
999.21	227.02
999.50	227.03
999.79	227.00
1000.08	226.95
1000.37	226.96
1000.66	226.95
1000.95	226.99
1001.24	226.98
1001.53	227.00
1001.82	226.98
1002.11	226.93
1002.40	226.93
1002.68	226.99
1002.97	227.06
1003.26	227.05
1003.55	227.05
1003.84	227.05
1004.13	227.07
1004.42	227.10
1004.71	227.09
1004.99	227.08
1005.28	227.10
1005.57	227.08
1005.86	227.07
1006.15	227.11
1006.44	227.08
1006.72	227.08
1007.01	227.06
1007.30	227.09
1007.59	227.12
1007.88	227.13
1008.17	227.13
1008.45	227.13
1008.74	227.07
1009.03	227.03
1009.32	227.01
1009.60	226.98
1009.89	226.99
1010.18	226.97
1010.47	226.94
1010.76	226.97
1011.04	226.97
1011.33	226.96
1011.62	226.97
1011.91	226.96
1012.19	226.97
1012.48	226.99
1012.77	226.95
1013.05	227.00
1013.34	226.98
1013.63	226.99
1013.92	227.00
1014.20	227.05
1014.49	227.05
1014.78	227.09
1015.06	227.09
1015.35	227.11
1015.64	227.17
1015.92	227.17
1016.21	227.20
1016.50	227.22
1016.78	227.21
1017.07	227.21
1017.36	227.20
1017.64	227.23
1017.93	227.26
1018.22	227.21
1018.50	227.25
1018.79	227.29
1019.08	227.25
1019.36	227.27
1019.65	227.23
1019.93	227.27
1020.22	227.23
1020.51	227.28
1020.79	227.27
1021.08	226.51
1021.36	227.49
1021.65	227.25
1021.94	227.09
1022.22	227.36
1022.51	226.88
1022.79	227.94
1023.08	226.73
1023.36	228.40
1023.65	227.12
>>>>>End Processed Spectral Data<<<<<
