SpectraSuite Data File
++++++++++++++++++++++++++++++++++++
Date: Fri Feb 01 15:43:55 EST 2013
User: group
Dark Spectrum Present: No
Reference Spectrum Present: No
Number of Sampled Component Spectra: 1
Spectrometers: USB2E7196
Integration Time (usec): 35000 (USB2E7196)
Spectra Averaged: 100 (USB2E7196)
Boxcar Smoothing: 10 (USB2E7196)
Correct for Electrical Dark: No (USB2E7196)
Strobe/Lamp Enabled: No (USB2E7196)
Correct for Detector Non-linearity: No (USB2E7196)
Correct for Stray Light: No (USB2E7196)
Number of Pixels in Processed Spectrum: 2048
>>>>>Begin Processed Spectral Data<<<<<
339.09	0.00
339.48	214.81
339.86	216.11
340.24	218.07
340.63	219.70
341.01	221.96
341.39	221.85
341.78	223.52
342.16	224.01
342.54	224.89
342.93	213.11
343.31	223.89
343.69	224.44
344.07	224.92
344.46	225.32
344.84	225.66
345.22	225.88
345.60	226.12
345.99	226.28
346.37	226.40
346.75	226.48
347.13	226.52
347.52	226.58
347.90	226.65
348.28	226.68
348.66	226.74
349.05	226.76
349.43	226.78
349.81	226.84
350.19	226.86
350.57	226.97
350.96	227.03
351.34	227.13
351.72	227.22
352.10	227.31
352.48	227.35
352.87	227.41
353.25	227.48
353.63	227.52
354.01	227.57
354.39	227.67
354.77	227.76
355.15	227.85
355.54	227.91
355.92	227.98
356.30	228.09
356.68	228.22
357.06	228.29
357.44	228.33
357.82	228.40
358.20	228.50
358.58	228.53
358.97	228.60
359.35	228.67
359.73	228.71
360.11	228.78
360.49	228.89
360.87	228.95
361.25	229.02
361.63	229.15
362.01	229.23
362.39	229.26
362.77	229.33
363.15	229.40
363.53	229.45
363.91	229.47
364.29	229.48
364.67	229.39
365.05	229.40
365.43	229.43
365.81	229.49
366.19	229.54
366.57	229.60
366.95	229.58
367.33	229.56
367.71	229.59
368.09	229.55
368.47	229.52
368.85	229.50
369.23	229.48
369.61	229.42
369.99	229.41
370.37	229.41
370.75	229.38
371.13	229.29
371.51	229.20
371.89	229.19
372.27	229.19
372.65	229.17
373.03	229.13
373.41	229.07
373.78	228.96
374.16	228.90
374.54	228.82
374.92	228.77
375.30	228.71
375.68	228.57
376.06	228.53
376.44	228.46
376.82	228.40
377.19	228.35
377.57	228.23
377.95	228.11
378.33	228.00
378.71	227.91
379.09	227.86
379.47	227.84
379.84	227.73
380.22	227.63
380.60	227.52
380.98	227.43
381.36	227.37
381.73	227.31
382.11	227.25
382.49	227.16
382.87	227.10
383.25	227.04
383.62	227.11
384.00	227.03
384.38	226.96
384.76	226.92
385.13	226.87
385.51	226.83
385.89	226.77
386.27	226.70
386.64	226.67
387.02	226.61
387.40	226.55
387.78	226.52
388.15	226.48
388.53	226.44
388.91	226.40
389.29	226.36
389.66	226.31
390.04	226.26
390.42	226.26
390.79	226.24
391.17	226.20
391.55	226.07
391.92	226.07
392.30	226.09
392.68	226.05
393.05	226.02
393.43	226.02
393.81	226.03
394.18	226.06
394.56	226.04
394.94	226.07
395.31	226.11
395.69	226.13
396.06	226.16
396.44	226.24
396.82	226.26
397.19	226.35
397.57	226.41
397.95	226.45
398.32	226.49
398.70	226.53
399.07	226.61
399.45	226.68
399.82	226.75
400.20	226.78
400.58	226.86
400.95	226.95
401.33	227.06
401.70	227.22
402.08	227.30
402.45	227.42
402.83	227.56
403.20	227.66
403.58	227.80
403.95	227.93
404.33	228.03
404.71	228.14
405.08	228.28
405.46	228.40
405.83	228.55
406.21	228.69
406.58	228.89
406.96	229.04
407.33	229.24
407.70	229.45
408.08	229.74
408.45	229.96
408.83	230.18
409.20	230.38
409.58	230.56
409.95	230.80
410.33	231.05
410.70	231.30
411.08	231.58
411.45	231.87
411.82	232.19
412.20	232.56
412.57	233.01
412.95	233.34
413.32	233.77
413.69	234.18
414.07	234.61
414.44	235.05
414.82	235.55
415.19	236.07
415.56	236.61
415.94	237.16
416.31	237.82
416.68	238.46
417.06	239.18
417.43	239.89
417.81	240.67
418.18	241.46
418.55	242.28
418.93	243.14
419.30	244.07
419.67	245.02
420.04	245.97
420.42	246.98
420.79	248.16
421.16	249.29
421.54	250.49
421.91	251.73
422.28	253.00
422.66	254.32
423.03	255.63
423.40	256.98
423.77	258.40
424.15	259.81
424.52	261.31
424.89	262.89
425.26	264.43
425.64	265.90
426.01	267.52
426.38	269.16
426.75	270.86
427.13	272.55
427.50	274.33
427.87	276.21
428.24	278.06
428.61	279.81
428.99	281.75
429.36	283.85
429.73	285.89
430.10	287.89
430.47	289.98
430.85	292.11
431.22	294.33
431.59	296.70
431.96	298.91
432.33	301.35
432.70	303.78
433.08	306.64
433.45	309.30
433.82	311.92
434.19	314.85
434.56	317.65
434.93	320.33
435.30	322.94
435.68	325.84
436.05	328.67
436.42	331.44
436.79	333.98
437.16	336.69
437.53	339.55
437.90	342.35
438.27	345.09
438.64	347.91
439.01	350.50
439.38	352.76
439.75	354.95
440.13	357.48
440.50	359.80
440.87	361.62
441.24	363.55
441.61	365.67
441.98	367.13
442.35	368.95
442.72	370.80
443.09	372.63
443.46	373.60
443.83	374.18
444.20	374.71
444.57	375.55
444.94	375.84
445.31	376.19
445.68	376.59
446.05	376.65
446.42	376.25
446.79	375.82
447.16	375.38
447.53	375.05
447.90	373.87
448.27	372.72
448.64	371.14
449.01	369.97
449.37	368.03
449.74	366.12
450.11	363.85
450.48	361.41
450.85	358.89
451.22	356.75
451.59	354.72
451.96	352.76
452.33	350.16
452.70	347.75
453.07	344.89
453.43	341.96
453.80	339.19
454.17	336.55
454.54	334.05
454.91	331.32
455.28	328.68
455.65	326.22
456.02	323.75
456.38	321.58
456.75	318.94
457.12	316.68
457.49	314.46
457.86	312.29
458.23	310.39
458.59	308.34
458.96	306.28
459.33	304.43
459.70	302.59
460.07	301.06
460.43	299.41
460.80	297.78
461.17	296.31
461.54	294.83
461.91	293.38
462.27	291.91
462.64	290.64
463.01	289.26
463.38	287.94
463.74	286.57
464.11	285.39
464.48	284.35
464.85	283.24
465.21	282.41
465.58	281.49
465.95	280.40
466.32	279.49
466.68	278.58
467.05	277.65
467.42	276.78
467.78	275.90
468.15	275.00
468.52	274.33
468.88	273.50
469.25	272.70
469.62	272.07
469.98	271.40
470.35	270.77
470.72	270.17
471.08	269.53
471.45	268.97
471.82	268.46
472.18	267.87
472.55	267.44
472.92	266.88
473.28	266.39
473.65	265.93
474.02	265.46
474.38	265.10
474.75	264.79
475.11	264.42
475.48	264.11
475.85	263.87
476.21	263.62
476.58	263.44
476.94	263.27
477.31	263.12
477.67	262.98
478.04	262.90
478.41	262.83
478.77	262.89
479.14	262.85
479.50	262.85
479.87	262.93
480.23	262.99
480.60	263.11
480.96	263.21
481.33	263.41
481.69	263.67
482.06	263.85
482.42	264.05
482.79	264.32
483.15	264.65
483.52	265.02
483.88	265.42
484.25	265.84
484.61	266.27
484.98	266.72
485.34	267.28
485.71	267.87
486.07	268.50
486.44	269.05
486.80	269.75
487.17	270.47
487.53	271.30
487.90	272.14
488.26	273.06
488.62	274.07
488.99	275.05
489.35	276.05
489.72	277.19
490.08	278.41
490.44	279.65
490.81	280.94
491.17	282.28
491.54	283.73
491.90	285.27
492.26	286.92
492.63	288.64
492.99	290.40
493.36	292.25
493.72	294.30
494.08	296.38
494.45	298.62
494.81	301.03
495.17	303.43
495.54	305.98
495.90	308.69
496.26	311.50
496.63	314.49
496.99	317.63
497.35	320.87
497.72	324.23
498.08	327.76
498.44	331.47
498.80	335.39
499.17	339.49
499.53	343.64
499.89	348.05
500.26	352.54
500.62	357.24
500.98	362.22
501.34	367.26
501.71	372.64
502.07	378.14
502.43	383.70
502.79	389.54
503.16	395.62
503.52	401.89
503.88	408.31
504.24	414.97
504.60	421.79
504.97	428.90
505.33	436.27
505.69	444.02
506.05	451.83
506.41	459.75
506.78	467.90
507.14	476.37
507.50	485.02
507.86	494.07
508.22	503.20
508.59	512.44
508.95	522.02
509.31	531.83
509.67	541.88
510.03	552.21
510.39	562.77
510.75	573.61
511.12	584.54
511.48	595.88
511.84	607.32
512.20	618.90
512.56	630.91
512.92	643.10
513.28	655.36
513.64	667.82
514.00	680.54
514.37	693.48
514.73	706.55
515.09	719.62
515.45	733.02
515.81	746.62
516.17	760.60
516.53	774.79
516.89	788.92
517.25	803.06
517.61	817.46
517.97	831.94
518.33	846.37
518.69	861.17
519.05	876.09
519.41	891.26
519.77	906.83
520.13	922.26
520.49	937.59
520.85	953.04
521.21	968.81
521.57	984.98
521.93	1000.72
522.29	1017.19
522.65	1033.46
523.01	1049.55
523.37	1065.61
523.73	1081.72
524.09	1097.72
524.45	1114.07
524.81	1130.81
525.17	1147.66
525.53	1164.51
525.89	1181.31
526.25	1198.16
526.61	1214.53
526.97	1231.26
527.33	1247.75
527.68	1264.40
528.04	1280.93
528.40	1297.58
528.76	1314.60
529.12	1331.30
529.48	1348.21
529.84	1364.16
530.20	1380.88
530.56	1398.02
530.91	1415.47
531.27	1432.34
531.63	1448.81
531.99	1465.45
532.35	1481.44
532.71	1497.41
533.07	1513.64
533.42	1529.58
533.78	1545.67
534.14	1561.89
534.50	1577.25
534.86	1593.13
535.21	1608.18
535.57	1624.24
535.93	1639.77
536.29	1654.55
536.65	1669.54
537.00	1684.35
537.36	1699.62
537.72	1714.16
538.08	1728.47
538.44	1742.29
538.79	1756.24
539.15	1769.92
539.51	1783.53
539.87	1797.75
540.22	1811.48
540.58	1825.34
540.94	1838.70
541.29	1851.48
541.65	1864.31
542.01	1877.63
542.37	1889.96
542.72	1902.46
543.08	1914.03
543.44	1926.28
543.79	1937.49
544.15	1948.41
544.51	1959.97
544.87	1971.01
545.22	1981.74
545.58	1992.06
545.94	2001.79
546.29	2011.60
546.65	2021.55
547.01	2030.92
547.36	2039.68
547.72	2048.05
548.07	2055.91
548.43	2064.05
548.79	2071.99
549.14	2079.41
549.50	2086.66
549.86	2094.37
550.21	2101.71
550.57	2108.91
550.92	2115.57
551.28	2122.56
551.64	2129.81
551.99	2136.28
552.35	2142.49
552.70	2148.64
553.06	2154.51
553.41	2160.87
553.77	2166.74
554.13	2172.75
554.48	2178.97
554.84	2184.37
555.19	2189.68
555.55	2194.84
555.90	2199.40
556.26	2204.38
556.61	2209.19
556.97	2213.45
557.32	2217.52
557.68	2221.70
558.03	2226.06
558.39	2229.81
558.74	2234.51
559.10	2238.22
559.45	2241.92
559.81	2246.23
560.16	2250.07
560.52	2253.39
560.87	2256.93
561.23	2259.73
561.58	2262.77
561.94	2265.17
562.29	2267.58
562.64	2270.24
563.00	2272.84
563.35	2276.34
563.71	2279.45
564.06	2282.64
564.42	2285.51
564.77	2288.04
565.12	2290.30
565.48	2292.25
565.83	2294.11
566.19	2295.52
566.54	2296.46
566.89	2297.67
567.25	2298.06
567.60	2299.39
567.96	2301.00
568.31	2301.76
568.66	2302.76
569.02	2303.30
569.37	2303.57
569.72	2304.38
570.08	2304.52
570.43	2304.56
570.78	2303.84
571.14	2302.32
571.49	2300.81
571.84	2300.39
572.20	2299.30
572.55	2298.17
572.90	2296.52
573.26	2294.96
573.61	2293.16
573.96	2291.44
574.31	2288.45
574.67	2285.48
575.02	2281.82
575.37	2278.55
575.72	2274.60
576.08	2271.32
576.43	2267.96
576.78	2264.20
577.13	2261.06
577.49	2258.16
577.84	2254.68
578.19	2251.01
578.54	2247.26
578.90	2243.21
579.25	2237.66
579.60	2232.53
579.95	2227.44
580.30	2222.48
580.66	2217.34
581.01	2212.46
581.36	2207.51
581.71	2203.17
582.06	2198.69
582.42	2193.99
582.77	2188.62
583.12	2184.15
583.47	2179.42
583.82	2174.40
584.17	2169.17
584.53	2163.61
584.88	2157.80
585.23	2151.94
585.58	2146.44
585.93	2141.02
586.28	2136.21
586.63	2131.17
586.98	2126.25
587.34	2121.53
587.69	2116.47
588.04	2111.34
588.39	2105.61
588.74	2099.08
589.09	2092.86
589.44	2086.02
589.79	2080.11
590.14	2074.57
590.49	2068.05
590.84	2061.57
591.19	2055.51
591.54	2049.10
591.89	2041.65
592.25	2034.83
592.60	2027.50
592.95	2019.91
593.30	2012.62
593.65	2004.96
594.00	1997.92
594.35	1990.69
594.70	1982.82
595.05	1975.67
595.40	1968.33
595.75	1960.77
596.10	1954.59
596.45	1947.97
596.80	1941.89
597.15	1935.20
597.50	1927.89
597.85	1921.33
598.19	1914.66
598.54	1907.53
598.89	1900.89
599.24	1895.09
599.59	1888.24
599.94	1881.94
600.29	1875.60
600.64	1868.94
600.99	1861.50
601.34	1854.66
601.69	1847.58
602.04	1840.59
602.39	1833.20
602.74	1826.28
603.08	1819.57
603.43	1812.74
603.78	1805.37
604.13	1798.11
604.48	1790.89
604.83	1784.06
605.18	1777.00
605.53	1769.00
605.87	1760.94
606.22	1753.80
606.57	1745.73
606.92	1738.50
607.27	1731.48
607.62	1724.57
607.96	1717.30
608.31	1710.60
608.66	1702.81
609.01	1695.19
609.36	1687.51
609.70	1679.43
610.05	1671.31
610.40	1663.57
610.75	1655.28
611.10	1647.60
611.44	1639.17
611.79	1631.21
612.14	1622.44
612.49	1613.30
612.83	1604.98
613.18	1596.91
613.53	1588.70
613.88	1580.25
614.22	1571.85
614.57	1563.21
614.92	1555.02
615.27	1547.32
615.61	1539.03
615.96	1531.05
616.31	1523.45
616.65	1516.13
617.00	1508.65
617.35	1501.03
617.70	1492.63
618.04	1483.99
618.39	1475.74
618.74	1468.15
619.08	1459.85
619.43	1452.39
619.78	1445.58
620.12	1438.29
620.47	1430.70
620.82	1422.54
621.16	1415.10
621.51	1407.56
621.85	1400.07
622.20	1391.57
622.55	1383.33
622.89	1375.53
623.24	1367.88
623.59	1360.46
623.93	1352.92
624.28	1345.77
624.62	1338.17
624.97	1331.09
625.32	1324.45
625.66	1317.40
626.01	1310.10
626.35	1302.59
626.70	1294.85
627.04	1287.02
627.39	1279.21
627.73	1271.87
628.08	1264.92
628.43	1257.67
628.77	1250.31
629.12	1242.56
629.46	1235.47
629.81	1228.06
630.15	1220.77
630.50	1213.40
630.84	1205.16
631.19	1197.32
631.53	1189.73
631.88	1182.27
632.22	1174.54
632.57	1167.26
632.91	1159.72
633.26	1152.42
633.60	1145.19
633.95	1138.08
634.29	1131.12
634.64	1124.57
634.98	1117.08
635.32	1109.95
635.67	1103.37
636.01	1096.68
636.36	1090.02
636.70	1083.48
637.05	1076.90
637.39	1070.46
637.73	1064.02
638.08	1058.27
638.42	1052.23
638.77	1045.80
639.11	1039.21
639.45	1032.97
639.80	1026.26
640.14	1019.92
640.49	1013.33
640.83	1006.95
641.17	1000.69
641.52	994.33
641.86	987.86
642.20	982.06
642.55	975.74
642.89	969.20
643.23	962.70
643.58	956.87
643.92	950.70
644.26	944.65
644.61	938.65
644.95	932.60
645.29	925.97
645.64	919.23
645.98	912.86
646.32	906.96
646.66	900.84
647.01	895.15
647.35	889.39
647.69	883.71
648.04	878.04
648.38	872.28
648.72	866.26
649.06	860.11
649.41	854.31
649.75	848.26
650.09	842.34
650.43	836.62
650.78	830.39
651.12	824.38
651.46	818.57
651.80	812.77
652.14	807.37
652.49	801.95
652.83	796.76
653.17	791.01
653.51	785.39
653.85	780.07
654.20	774.33
654.54	768.34
654.88	762.53
655.22	756.72
655.56	751.03
655.90	745.63
656.25	740.41
656.59	735.04
656.93	730.04
657.27	724.85
657.61	719.35
657.95	714.23
658.29	709.23
658.64	704.00
658.98	698.77
659.32	693.29
659.66	688.03
660.00	682.73
660.34	677.81
660.68	672.82
661.02	667.70
661.36	663.00
661.70	658.52
662.05	654.14
662.39	649.79
662.73	645.30
663.07	640.91
663.41	636.48
663.75	631.91
664.09	627.33
664.43	622.93
664.77	618.85
665.11	614.66
665.45	610.50
665.79	606.39
666.13	602.17
666.47	598.10
666.81	594.00
667.15	589.88
667.49	586.02
667.83	582.27
668.17	578.36
668.51	574.33
668.85	570.25
669.19	566.41
669.53	562.58
669.87	558.68
670.21	554.97
670.55	551.34
670.89	547.99
671.23	544.58
671.57	541.09
671.91	537.57
672.25	534.09
672.58	530.54
672.92	527.23
673.26	524.10
673.60	520.97
673.94	517.86
674.28	515.01
674.62	512.10
674.96	508.94
675.30	506.02
675.64	503.06
675.97	500.32
676.31	497.40
676.65	494.50
676.99	491.81
677.33	488.96
677.67	486.11
678.01	482.98
678.34	479.99
678.68	477.19
679.02	474.37
679.36	471.61
679.70	468.92
680.04	466.16
680.37	463.32
680.71	460.55
681.05	457.92
681.39	455.12
681.73	452.47
682.06	449.98
682.40	447.48
682.74	444.96
683.08	442.42
683.42	439.89
683.75	437.39
684.09	434.89
684.43	432.48
684.77	430.07
685.10	427.82
685.44	425.54
685.78	423.21
686.12	420.96
686.45	418.66
686.79	416.39
687.13	414.16
687.46	412.00
687.80	409.85
688.14	407.65
688.48	405.62
688.81	403.33
689.15	401.17
689.49	398.96
689.82	396.90
690.16	394.80
690.50	392.81
690.83	390.85
691.17	388.88
691.51	386.91
691.84	385.01
692.18	383.02
692.52	381.00
692.85	379.06
693.19	377.21
693.52	375.40
693.86	373.56
694.20	371.82
694.53	370.04
694.87	368.14
695.21	366.36
695.54	364.57
695.88	362.86
696.21	361.16
696.55	359.48
696.88	357.73
697.22	356.12
697.56	354.52
697.89	352.89
698.23	351.24
698.56	349.63
698.90	348.04
699.23	346.40
699.57	344.86
699.90	343.32
700.24	341.73
700.58	340.21
700.91	338.71
701.25	337.22
701.58	335.81
701.92	334.45
702.25	333.05
702.59	331.64
702.92	330.34
703.26	329.02
703.59	327.76
703.93	326.60
704.26	325.35
704.60	324.04
704.93	322.72
705.26	321.46
705.60	320.32
705.93	319.21
706.27	318.18
706.60	317.14
706.94	316.05
707.27	314.90
707.61	313.84
707.94	312.82
708.27	311.75
708.61	310.66
708.94	309.66
709.28	308.72
709.61	307.76
709.94	306.78
710.28	305.72
710.61	304.75
710.95	303.67
711.28	302.70
711.61	301.74
711.95	300.86
712.28	299.90
712.61	298.85
712.95	297.89
713.28	297.04
713.61	296.15
713.95	295.27
714.28	294.44
714.61	293.56
714.95	292.72
715.28	291.85
715.61	291.01
715.95	290.13
716.28	289.28
716.61	288.44
716.95	287.62
717.28	286.89
717.61	286.10
717.94	285.37
718.28	284.57
718.61	283.87
718.94	283.16
719.27	282.52
719.61	281.92
719.94	281.27
720.27	280.56
720.60	279.90
720.94	279.29
721.27	278.70
721.60	278.14
721.93	277.51
722.27	276.98
722.60	276.42
722.93	275.84
723.26	275.27
723.59	274.68
723.93	274.19
724.26	273.64
724.59	273.10
724.92	272.58
725.25	272.09
725.59	271.58
725.92	271.09
726.25	270.59
726.58	270.07
726.91	269.54
727.24	269.03
727.57	268.55
727.91	268.04
728.24	267.57
728.57	267.07
728.90	266.62
729.23	266.11
729.56	265.69
729.89	265.25
730.22	264.81
730.55	264.36
730.89	263.87
731.22	263.45
731.55	263.02
731.88	262.60
732.21	262.16
732.54	261.75
732.87	261.32
733.20	260.96
733.53	260.55
733.86	260.23
734.19	259.85
734.52	259.46
734.85	259.14
735.18	258.73
735.51	258.37
735.84	258.00
736.17	257.67
736.50	257.28
736.83	257.08
737.16	256.76
737.49	256.47
737.82	256.11
738.15	255.78
738.48	255.43
738.81	255.11
739.14	254.77
739.47	254.43
739.80	254.10
740.13	253.77
740.46	253.49
740.79	253.13
741.12	252.83
741.45	252.53
741.78	252.15
742.11	251.90
742.44	251.57
742.77	251.26
743.10	250.97
743.43	250.61
743.75	250.20
744.08	250.02
744.41	249.74
744.74	249.50
745.07	249.20
745.40	248.96
745.73	248.71
746.06	248.42
746.39	248.18
746.71	247.91
747.04	247.62
747.37	247.36
747.70	247.14
748.03	246.90
748.36	246.65
748.68	246.45
749.01	246.16
749.34	245.96
749.67	245.72
750.00	245.47
750.33	245.33
750.65	245.09
750.98	244.74
751.31	244.52
751.64	244.34
751.97	244.16
752.29	243.95
752.62	243.71
752.95	243.51
753.28	243.31
753.60	243.12
753.93	242.96
754.26	242.72
754.59	242.44
754.91	242.18
755.24	241.99
755.57	241.77
755.90	241.58
756.22	241.37
756.55	241.19
756.88	241.00
757.20	240.80
757.53	240.61
757.86	240.43
758.19	240.24
758.51	240.03
758.84	239.84
759.17	239.62
759.49	239.46
759.82	239.37
760.15	239.21
760.47	239.04
760.80	238.85
761.13	238.73
761.45	238.62
761.78	238.51
762.11	238.37
762.43	238.23
762.76	238.13
763.08	238.01
763.41	237.89
763.74	237.78
764.06	237.60
764.39	237.46
764.71	237.31
765.04	237.19
765.37	237.08
765.69	236.96
766.02	236.84
766.34	236.72
766.67	236.61
767.00	236.54
767.32	236.49
767.65	236.45
767.97	236.33
768.30	236.19
768.62	236.09
768.95	235.97
769.27	235.87
769.60	235.73
769.92	235.60
770.25	235.52
770.57	235.37
770.90	235.26
771.22	235.21
771.55	235.13
771.87	235.05
772.20	234.98
772.52	234.99
772.85	235.07
773.17	234.95
773.50	234.80
773.82	234.66
774.15	234.52
774.47	234.38
774.80	234.28
775.12	234.19
775.45	234.11
775.77	234.03
776.09	233.96
776.42	233.90
776.74	233.84
777.07	233.72
777.39	233.69
777.72	233.67
778.04	233.61
778.36	233.54
778.69	233.46
779.01	233.38
779.33	233.20
779.66	232.98
779.98	232.94
780.31	232.86
780.63	232.84
780.95	232.81
781.28	232.75
781.60	232.70
781.92	232.64
782.25	232.59
782.57	232.55
782.89	232.46
783.22	232.37
783.54	232.30
783.86	232.23
784.19	232.13
784.51	232.08
784.83	231.99
785.16	231.94
785.48	231.89
785.80	231.82
786.12	231.81
786.45	231.76
786.77	231.72
787.09	231.69
787.42	231.59
787.74	231.52
788.06	231.45
788.38	231.41
788.71	231.38
789.03	231.29
789.35	231.25
789.67	231.21
789.99	231.17
790.32	231.12
790.64	231.11
790.96	231.15
791.28	231.09
791.61	231.03
791.93	231.00
792.25	230.92
792.57	230.95
792.89	230.83
793.21	230.80
793.54	230.73
793.86	230.72
794.18	230.69
794.50	230.64
794.82	230.63
795.14	230.58
795.47	230.59
795.79	230.57
796.11	230.53
796.43	230.54
796.75	230.53
797.07	230.53
797.39	230.52
797.71	230.42
798.04	230.39
798.36	230.37
798.68	230.33
799.00	230.35
799.32	230.25
799.64	230.29
799.96	230.25
800.28	230.23
800.60	230.17
800.92	230.16
801.24	230.15
801.56	230.10
801.89	230.05
802.21	229.99
802.53	229.95
802.85	229.90
803.17	229.90
803.49	229.85
803.81	229.78
804.13	229.71
804.45	229.69
804.77	229.65
805.09	229.64
805.41	229.61
805.73	229.54
806.05	229.53
806.37	229.45
806.69	229.45
807.01	229.45
807.33	229.46
807.65	229.40
807.97	229.44
808.28	229.41
808.60	229.43
808.92	229.39
809.24	229.45
809.56	229.41
809.88	229.34
810.20	229.34
810.52	229.35
810.84	229.33
811.16	229.28
811.48	229.28
811.80	229.27
812.12	229.20
812.43	229.21
812.75	229.18
813.07	229.15
813.39	229.14
813.71	229.09
814.03	229.02
814.35	229.02
814.67	228.96
814.98	228.91
815.30	228.86
815.62	228.83
815.94	228.73
816.26	228.74
816.58	228.71
816.89	228.71
817.21	228.68
817.53	228.65
817.85	228.61
818.17	228.58
818.48	228.52
818.80	228.55
819.12	228.52
819.44	228.50
819.76	228.50
820.07	228.44
820.39	228.40
820.71	228.41
821.03	228.38
821.34	228.31
821.66	228.33
821.98	228.34
822.30	228.35
822.61	228.42
822.93	228.40
823.25	228.38
823.57	228.32
823.88	228.33
824.20	228.33
824.52	228.37
824.83	228.32
825.15	228.33
825.47	228.30
825.79	228.26
826.10	228.25
826.42	228.23
826.74	228.24
827.05	228.26
827.37	228.22
827.69	228.23
828.00	228.24
828.32	228.21
828.64	228.21
828.95	228.26
829.27	228.21
829.58	228.18
829.90	228.20
830.22	228.21
830.53	228.15
830.85	228.15
831.17	228.11
831.48	228.10
831.80	228.09
832.11	228.12
832.43	228.11
832.75	228.09
833.06	228.14
833.38	228.10
833.69	228.10
834.01	228.11
834.32	228.11
834.64	228.11
834.96	228.10
835.27	228.08
835.59	228.02
835.90	227.98
836.22	227.98
836.53	227.97
836.85	227.94
837.16	228.05
837.48	228.04
837.79	228.07
838.11	228.10
838.42	228.09
838.74	228.06
839.05	228.09
839.37	228.08
839.68	228.04
840.00	228.04
840.31	228.01
840.63	228.00
840.94	227.95
841.26	227.91
841.57	227.92
841.88	227.88
842.20	227.87
842.51	227.85
842.83	227.85
843.14	227.92
843.46	227.94
843.77	227.87
844.08	227.85
844.40	227.78
844.71	227.73
845.03	227.73
845.34	227.71
845.65	227.68
845.97	227.68
846.28	227.67
846.60	227.63
846.91	227.61
847.22	227.61
847.54	227.63
847.85	227.64
848.16	227.61
848.48	227.63
848.79	227.64
849.10	227.66
849.42	227.62
849.73	227.53
850.04	227.48
850.36	227.45
850.67	227.45
850.98	227.44
851.30	227.45
851.61	227.44
851.92	227.44
852.23	227.47
852.55	227.43
852.86	227.41
853.17	227.44
853.49	227.45
853.80	227.46
854.11	227.43
854.42	227.47
854.74	227.46
855.05	227.42
855.36	227.36
855.67	227.34
855.99	227.32
856.30	227.42
856.61	227.44
856.92	227.43
857.23	227.42
857.55	227.44
857.86	227.46
858.17	227.46
858.48	227.41
858.79	227.38
859.11	227.38
859.42	227.38
859.73	227.35
860.04	227.33
860.35	227.33
860.66	227.31
860.98	227.26
861.29	227.28
861.60	227.30
861.91	227.33
862.22	227.30
862.53	227.29
862.84	227.22
863.16	227.22
863.47	227.21
863.78	227.21
864.09	227.24
864.40	227.25
864.71	227.27
865.02	227.30
865.33	227.28
865.64	227.27
865.95	227.29
866.27	227.37
866.58	227.40
866.89	227.37
867.20	227.37
867.51	227.38
867.82	227.39
868.13	227.44
868.44	227.40
868.75	227.45
869.06	227.47
869.37	227.49
869.68	227.47
869.99	227.50
870.30	227.48
870.61	227.46
870.92	227.44
871.23	227.42
871.54	227.45
871.85	227.51
872.16	227.56
872.47	227.52
872.78	227.47
873.09	227.47
873.40	227.49
873.71	227.53
874.02	227.53
874.33	227.52
874.64	227.45
874.95	227.47
875.26	227.47
875.56	227.47
875.87	227.44
876.18	227.44
876.49	227.53
876.80	227.55
877.11	227.55
877.42	227.54
877.73	227.56
878.04	227.52
878.35	227.52
878.66	227.50
878.96	227.54
879.27	227.50
879.58	227.51
879.89	227.51
880.20	227.50
880.51	227.47
880.82	227.45
881.12	227.47
881.43	227.46
881.74	227.41
882.05	227.41
882.36	227.44
882.67	227.45
882.97	227.33
883.28	227.31
883.59	227.30
883.90	227.32
884.21	227.30
884.51	227.29
884.82	227.23
885.13	227.20
885.44	227.20
885.74	227.19
886.05	227.18
886.36	227.15
886.67	227.11
886.98	227.18
887.28	227.19
887.59	227.19
887.90	227.18
888.20	227.17
888.51	227.16
888.82	227.11
889.13	227.12
889.43	227.19
889.74	227.16
890.05	227.14
890.35	227.13
890.66	227.09
890.97	227.05
891.28	227.07
891.58	227.07
891.89	227.03
892.20	227.04
892.50	227.01
892.81	227.00
893.12	227.01
893.42	226.92
893.73	226.93
894.04	226.90
894.34	226.91
894.65	226.91
894.95	226.88
895.26	226.89
895.57	226.89
895.87	226.79
896.18	226.82
896.48	226.83
896.79	226.80
897.10	226.85
897.40	226.87
897.71	226.85
898.01	226.84
898.32	226.85
898.63	226.84
898.93	226.82
899.24	226.86
899.54	226.84
899.85	226.86
900.15	226.84
900.46	226.84
900.76	226.84
901.07	226.86
901.38	226.88
901.68	226.88
901.99	226.85
902.29	226.86
902.60	226.87
902.90	226.83
903.21	226.83
903.51	226.82
903.82	226.84
904.12	226.85
904.43	226.84
904.73	226.85
905.03	226.84
905.34	226.94
905.64	226.92
905.95	226.93
906.25	226.90
906.56	226.90
906.86	226.91
907.17	226.89
907.47	226.90
907.77	226.86
908.08	226.87
908.38	226.89
908.69	226.89
908.99	226.89
909.30	226.90
909.60	226.91
909.90	226.91
910.21	226.91
910.51	226.93
910.81	226.92
911.12	226.92
911.42	226.93
911.73	226.83
912.03	226.82
912.33	226.83
912.64	226.86
912.94	226.86
913.24	226.87
913.55	226.92
913.85	226.92
914.15	226.98
914.46	226.98
914.76	226.98
915.06	226.98
915.37	226.94
915.67	226.97
915.97	226.98
916.27	226.97
916.58	226.95
916.88	226.93
917.18	226.95
917.49	227.02
917.79	227.05
918.09	227.09
918.39	227.10
918.70	227.12
919.00	227.11
919.30	227.14
919.60	227.11
919.91	227.07
920.21	227.04
920.51	227.03
920.81	227.03
921.12	227.03
921.42	227.02
921.72	227.04
922.02	227.03
922.32	227.03
922.63	227.03
922.93	227.09
923.23	227.12
923.53	227.10
923.83	227.06
924.13	227.05
924.44	227.04
924.74	227.07
925.04	227.07
925.34	227.06
925.64	227.03
925.94	227.08
926.24	227.15
926.55	227.15
926.85	227.15
927.15	227.17
927.45	227.19
927.75	227.18
928.05	227.17
928.35	227.13
928.65	227.15
928.95	227.16
929.26	227.12
929.56	227.12
929.86	227.13
930.16	227.07
930.46	227.07
930.76	227.09
931.06	227.06
931.36	227.05
931.66	227.06
931.96	227.09
932.26	227.05
932.56	226.99
932.86	227.01
933.16	227.02
933.46	226.99
933.76	226.93
934.06	226.95
934.36	226.99
934.66	227.04
934.96	227.02
935.26	226.99
935.56	227.01
935.86	226.97
936.16	226.96
936.46	226.99
936.76	226.96
937.06	226.90
937.36	226.90
937.66	226.92
937.96	226.95
938.26	226.94
938.56	226.91
938.86	226.91
939.16	226.94
939.46	226.94
939.76	226.92
940.06	226.93
940.35	226.92
940.65	226.86
940.95	226.89
941.25	226.87
941.55	226.86
941.85	226.86
942.15	226.90
942.45	226.94
942.75	226.91
943.04	226.92
943.34	226.97
943.64	226.96
943.94	226.92
944.24	226.89
944.54	226.87
944.84	226.90
945.13	226.88
945.43	226.88
945.73	226.87
946.03	226.90
946.33	226.91
946.62	226.91
946.92	226.93
947.22	226.90
947.52	226.91
947.82	226.94
948.11	226.92
948.41	226.91
948.71	226.87
949.01	226.89
949.31	226.91
949.60	226.89
949.90	226.91
950.20	226.91
950.50	226.92
950.79	226.93
951.09	226.92
951.39	226.97
951.69	226.94
951.98	226.97
952.28	227.01
952.58	226.99
952.87	227.03
953.17	227.05
953.47	227.05
953.76	227.06
954.06	227.06
954.36	227.04
954.66	227.03
954.95	227.08
955.25	227.09
955.55	227.09
955.84	227.08
956.14	227.09
956.44	227.10
956.73	227.09
957.03	227.11
957.32	227.10
957.62	227.08
957.92	227.07
958.21	227.06
958.51	227.11
958.81	227.15
959.10	227.12
959.40	227.13
959.69	227.15
959.99	227.16
960.29	227.16
960.58	227.16
960.88	227.20
961.17	227.19
961.47	227.17
961.76	227.14
962.06	227.16
962.36	227.12
962.65	227.12
962.95	227.12
963.24	227.09
963.54	227.08
963.83	227.08
964.13	227.07
964.42	227.04
964.72	226.93
965.01	226.91
965.31	226.91
965.60	226.86
965.90	226.93
966.19	226.86
966.49	226.85
966.78	226.86
967.08	226.82
967.37	226.77
967.67	226.74
967.96	226.77
968.26	226.76
968.55	226.76
968.85	226.78
969.14	226.76
969.43	226.72
969.73	226.75
970.02	226.71
970.32	226.74
970.61	226.73
970.91	226.72
971.20	226.70
971.49	226.68
971.79	226.68
972.08	226.59
972.38	226.62
972.67	226.61
972.96	226.59
973.26	226.57
973.55	226.62
973.85	226.66
974.14	226.66
974.43	226.64
974.73	226.63
975.02	226.61
975.31	226.59
975.61	226.62
975.90	226.59
976.19	226.58
976.49	226.57
976.78	226.60
977.07	226.60
977.37	226.60
977.66	226.60
977.95	226.58
978.24	226.59
978.54	226.60
978.83	226.61
979.12	226.61
979.42	226.61
979.71	226.56
980.00	226.52
980.29	226.53
980.59	226.58
980.88	226.60
981.17	226.60
981.46	226.66
981.76	226.64
982.05	226.68
982.34	226.69
982.63	226.69
982.93	226.66
983.22	226.73
983.51	226.72
983.80	226.74
984.09	226.79
984.39	226.78
984.68	226.77
984.97	226.78
985.26	226.75
985.55	226.76
985.85	226.75
986.14	226.83
986.43	226.81
986.72	226.80
987.01	226.76
987.30	226.76
987.59	226.74
987.89	226.77
988.18	226.72
988.47	226.73
988.76	226.70
989.05	226.72
989.34	226.70
989.63	226.74
989.92	226.76
990.22	226.75
990.51	226.78
990.80	226.79
991.09	226.80
991.38	226.85
991.67	226.89
991.96	226.91
992.25	226.88
992.54	226.85
992.83	226.84
993.12	226.87
993.41	226.91
993.70	226.92
993.99	226.94
994.28	226.94
994.58	226.95
994.87	226.93
995.16	226.92
995.45	226.90
995.74	226.87
996.03	226.87
996.32	226.85
996.61	226.84
996.90	226.82
997.19	226.82
997.48	226.84
997.77	226.81
998.06	226.81
998.34	226.77
998.63	226.79
998.92	226.78
999.21	226.81
999.50	226.79
999.79	226.79
1000.08	226.77
1000.37	226.78
1000.66	226.78
1000.95	226.85
1001.24	226.85
1001.53	226.87
1001.82	226.88
1002.11	226.84
1002.40	226.86
1002.68	226.92
1002.97	226.98
1003.26	226.94
1003.55	226.89
1003.84	226.87
1004.13	226.93
1004.42	226.91
1004.71	226.91
1004.99	226.89
1005.28	226.88
1005.57	226.89
1005.86	226.85
1006.15	226.90
1006.44	226.89
1006.72	226.88
1007.01	226.82
1007.30	226.81
1007.59	226.79
1007.88	226.76
1008.17	226.74
1008.45	226.72
1008.74	226.65
1009.03	226.59
1009.32	226.57
1009.60	226.56
1009.89	226.56
1010.18	226.49
1010.47	226.52
1010.76	226.50
1011.04	226.49
1011.33	226.48
1011.62	226.51
1011.91	226.49
1012.19	226.46
1012.48	226.49
1012.77	226.51
1013.05	226.57
1013.34	226.60
1013.63	226.59
1013.92	226.59
1014.20	226.56
1014.49	226.54
1014.78	226.55
1015.06	226.53
1015.35	226.56
1015.64	226.58
1015.92	226.61
1016.21	226.63
1016.50	226.58
1016.78	226.63
1017.07	226.67
1017.36	226.65
1017.64	226.58
1017.93	226.60
1018.22	226.59
1018.50	226.56
1018.79	226.55
1019.08	226.50
1019.36	226.47
1019.65	226.48
1019.93	226.53
1020.22	226.60
1020.51	226.66
1020.79	226.66
1021.08	226.38
1021.36	226.55
1021.65	226.68
1021.94	226.54
1022.22	226.25
1022.51	226.59
1022.79	227.42
1023.08	227.14
1023.36	227.49
1023.65	226.60
>>>>>End Processed Spectral Data<<<<<
