SpectraSuite Data File
++++++++++++++++++++++++++++++++++++
Date: Fri Feb 01 17:06:08 EST 2013
User: group
Dark Spectrum Present: No
Reference Spectrum Present: No
Number of Sampled Component Spectra: 1
Spectrometers: USB2E7196
Integration Time (usec): 35000 (USB2E7196)
Spectra Averaged: 100 (USB2E7196)
Boxcar Smoothing: 10 (USB2E7196)
Correct for Electrical Dark: No (USB2E7196)
Strobe/Lamp Enabled: No (USB2E7196)
Correct for Detector Non-linearity: No (USB2E7196)
Correct for Stray Light: No (USB2E7196)
Number of Pixels in Processed Spectrum: 2048
>>>>>Begin Processed Spectral Data<<<<<
339.09	0.00
339.48	212.93
339.86	214.20
340.24	215.32
340.63	217.47
341.01	219.87
341.39	220.10
341.78	221.31
342.16	222.69
342.54	223.17
342.93	211.41
343.31	222.10
343.69	222.66
344.07	223.14
344.46	223.59
344.84	223.96
345.22	224.20
345.60	224.46
345.99	224.65
346.37	224.78
346.75	224.89
347.13	224.94
347.52	225.05
347.90	225.15
348.28	225.19
348.66	225.23
349.05	225.25
349.43	225.28
349.81	225.35
350.19	225.41
350.57	225.47
350.96	225.53
351.34	225.63
351.72	225.67
352.10	225.76
352.48	225.83
352.87	225.91
353.25	225.97
353.63	226.04
354.01	226.08
354.39	226.15
354.77	226.22
355.15	226.36
355.54	226.37
355.92	226.39
356.30	226.46
356.68	226.61
357.06	226.68
357.44	226.73
357.82	226.79
358.20	226.86
358.58	226.95
358.97	227.02
359.35	227.09
359.73	227.20
360.11	227.26
360.49	227.34
360.87	227.36
361.25	227.45
361.63	227.52
362.01	227.62
362.39	227.66
362.77	227.70
363.15	227.71
363.53	227.74
363.91	227.77
364.29	227.77
364.67	227.71
365.05	227.74
365.43	227.78
365.81	227.79
366.19	227.84
366.57	227.87
366.95	227.89
367.33	227.86
367.71	227.85
368.09	227.88
368.47	227.89
368.85	227.90
369.23	227.87
369.61	227.82
369.99	227.81
370.37	227.79
370.75	227.78
371.13	227.73
371.51	227.70
371.89	227.68
372.27	227.68
372.65	227.62
373.03	227.57
373.41	227.47
373.78	227.44
374.16	227.35
374.54	227.26
374.92	227.18
375.30	227.13
375.68	227.07
376.06	226.97
376.44	226.87
376.82	226.81
377.19	226.77
377.57	226.70
377.95	226.59
378.33	226.52
378.71	226.41
379.09	226.36
379.47	226.29
379.84	226.20
380.22	226.13
380.60	226.05
380.98	225.99
381.36	225.92
381.73	225.84
382.11	225.81
382.49	225.75
382.87	225.69
383.25	225.63
383.62	225.67
384.00	225.60
384.38	225.55
384.76	225.52
385.13	225.48
385.51	225.45
385.89	225.42
386.27	225.39
386.64	225.38
387.02	225.31
387.40	225.29
387.78	225.27
388.15	225.20
388.53	225.18
388.91	225.15
389.29	225.14
389.66	225.10
390.04	225.05
390.42	225.04
390.79	225.02
391.17	225.01
391.55	224.89
391.92	224.90
392.30	224.89
392.68	224.88
393.05	224.87
393.43	224.84
393.81	224.85
394.18	224.83
394.56	224.84
394.94	224.89
395.31	224.89
395.69	224.93
396.06	224.99
396.44	225.00
396.82	225.04
397.19	225.13
397.57	225.16
397.95	225.21
398.32	225.24
398.70	225.30
399.07	225.37
399.45	225.39
399.82	225.41
400.20	225.47
400.58	225.50
400.95	225.53
401.33	225.64
401.70	225.75
402.08	225.83
402.45	225.89
402.83	225.97
403.20	226.06
403.58	226.15
403.95	226.28
404.33	226.39
404.71	226.49
405.08	226.64
405.46	226.78
405.83	226.91
406.21	227.03
406.58	227.19
406.96	227.35
407.33	227.54
407.70	227.74
408.08	228.00
408.45	228.22
408.83	228.43
409.20	228.62
409.58	228.80
409.95	229.06
410.33	229.34
410.70	229.60
411.08	229.91
411.45	230.20
411.82	230.48
412.20	230.83
412.57	231.24
412.95	231.52
413.32	231.94
413.69	232.34
414.07	232.78
414.44	233.24
414.82	233.70
415.19	234.26
415.56	234.80
415.94	235.36
416.31	236.02
416.68	236.61
417.06	237.32
417.43	238.00
417.81	238.75
418.18	239.49
418.55	240.32
418.93	241.15
419.30	242.02
419.67	242.95
420.04	243.92
420.42	244.89
420.79	246.05
421.16	247.16
421.54	248.31
421.91	249.50
422.28	250.72
422.66	252.02
423.03	253.33
423.40	254.70
423.77	256.10
424.15	257.48
424.52	258.99
424.89	260.59
425.26	262.16
425.64	263.62
426.01	265.24
426.38	266.89
426.75	268.56
427.13	270.32
427.50	272.12
427.87	273.94
428.24	275.81
428.61	277.57
428.99	279.50
429.36	281.59
429.73	283.64
430.10	285.65
430.47	287.70
430.85	289.75
431.22	291.97
431.59	294.31
431.96	296.55
432.33	299.00
432.70	301.38
433.08	304.14
433.45	306.74
433.82	309.26
434.19	312.10
434.56	314.87
434.93	317.47
435.30	320.05
435.68	322.95
436.05	325.76
436.42	328.50
436.79	331.00
437.16	333.68
437.53	336.45
437.90	339.26
438.27	341.97
438.64	344.76
439.01	347.30
439.38	349.48
439.75	351.61
440.13	354.11
440.50	356.37
440.87	358.21
441.24	360.13
441.61	362.31
441.98	363.77
442.35	365.60
442.72	367.50
443.09	369.35
443.46	370.33
443.83	370.92
444.20	371.48
444.57	372.33
444.94	372.62
445.31	373.00
445.68	373.36
446.05	373.49
446.42	373.17
446.79	372.78
447.16	372.35
447.53	372.09
447.90	370.93
448.27	369.85
448.64	368.28
449.01	367.20
449.37	365.26
449.74	363.40
450.11	361.20
450.48	358.71
450.85	356.21
451.22	354.13
451.59	352.13
451.96	350.20
452.33	347.62
452.70	345.35
453.07	342.56
453.43	339.68
453.80	336.92
454.17	334.29
454.54	331.79
454.91	329.15
455.28	326.45
455.65	324.01
456.02	321.58
456.38	319.49
456.75	316.82
457.12	314.57
457.49	312.39
457.86	310.20
458.23	308.39
458.59	306.34
458.96	304.28
459.33	302.44
459.70	300.57
460.07	299.10
460.43	297.39
460.80	295.77
461.17	294.37
461.54	292.88
461.91	291.45
462.27	290.00
462.64	288.73
463.01	287.44
463.38	286.14
463.74	284.77
464.11	283.55
464.48	282.57
464.85	281.51
465.21	280.66
465.58	279.77
465.95	278.64
466.32	277.74
466.68	276.84
467.05	275.94
467.42	275.08
467.78	274.14
468.15	273.25
468.52	272.60
468.88	271.74
469.25	270.98
469.62	270.37
469.98	269.69
470.35	269.08
470.72	268.47
471.08	267.83
471.45	267.34
471.82	266.84
472.18	266.26
472.55	265.81
472.92	265.30
473.28	264.87
473.65	264.45
474.02	263.98
474.38	263.62
474.75	263.30
475.11	262.97
475.48	262.76
475.85	262.52
476.21	262.31
476.58	262.12
476.94	262.00
477.31	261.84
477.67	261.72
478.04	261.62
478.41	261.59
478.77	261.64
479.14	261.56
479.50	261.61
479.87	261.63
480.23	261.74
480.60	261.76
480.96	261.80
481.33	262.01
481.69	262.23
482.06	262.43
482.42	262.64
482.79	262.90
483.15	263.19
483.52	263.55
483.88	263.95
484.25	264.34
484.61	264.75
484.98	265.15
485.34	265.75
485.71	266.32
486.07	266.91
486.44	267.44
486.80	268.13
487.17	268.82
487.53	269.67
487.90	270.50
488.26	271.45
488.62	272.48
488.99	273.44
489.35	274.48
489.72	275.59
490.08	276.81
490.44	278.05
490.81	279.35
491.17	280.68
491.54	282.10
491.90	283.65
492.26	285.26
492.63	287.05
492.99	288.82
493.36	290.68
493.72	292.70
494.08	294.80
494.45	297.01
494.81	299.38
495.17	301.81
495.54	304.36
495.90	307.03
496.26	309.79
496.63	312.79
496.99	315.91
497.35	319.17
497.72	322.53
498.08	326.03
498.44	329.73
498.80	333.67
499.17	337.73
499.53	341.86
499.89	346.21
500.26	350.74
500.62	355.37
500.98	360.34
501.34	365.40
501.71	370.74
502.07	376.19
502.43	381.74
502.79	387.48
503.16	393.52
503.52	399.79
503.88	406.18
504.24	412.71
504.60	419.55
504.97	426.62
505.33	433.89
505.69	441.54
506.05	449.22
506.41	457.02
506.78	465.15
507.14	473.51
507.50	482.16
507.86	491.09
508.22	500.18
508.59	509.32
508.95	518.80
509.31	528.44
509.67	538.41
510.03	548.58
510.39	559.03
510.75	569.65
511.12	580.38
511.48	591.51
511.84	602.88
512.20	614.18
512.56	625.89
512.92	637.88
513.28	650.08
513.64	662.39
514.00	674.95
514.37	687.56
514.73	700.40
515.09	713.20
515.45	726.13
515.81	739.45
516.17	753.13
516.53	766.98
516.89	780.96
517.25	794.82
517.61	809.00
517.97	823.19
518.33	837.38
518.69	851.87
519.05	866.63
519.41	881.51
519.77	896.80
520.13	911.98
520.49	927.05
520.85	942.07
521.21	957.44
521.57	973.32
521.93	988.77
522.29	1004.73
522.65	1020.73
523.01	1036.70
523.37	1052.45
523.73	1068.28
524.09	1084.01
524.45	1099.90
524.81	1116.29
525.17	1132.60
525.53	1149.09
525.89	1165.50
526.25	1182.06
526.61	1197.98
526.97	1214.24
527.33	1230.20
527.68	1246.43
528.04	1262.55
528.40	1278.67
528.76	1295.33
529.12	1311.59
529.48	1328.12
529.84	1343.85
530.20	1360.02
530.56	1376.54
530.91	1393.52
531.27	1409.87
531.63	1425.90
531.99	1442.05
532.35	1457.62
532.71	1473.22
533.07	1489.05
533.42	1504.75
533.78	1520.34
534.14	1536.12
534.50	1551.10
534.86	1566.74
535.21	1581.66
535.57	1597.07
535.93	1612.29
536.29	1626.62
536.65	1641.10
537.00	1655.41
537.36	1670.33
537.72	1684.39
538.08	1698.43
538.44	1711.73
538.79	1725.24
539.15	1738.39
539.51	1751.64
539.87	1765.57
540.22	1778.81
540.58	1792.02
540.94	1804.71
541.29	1817.17
541.65	1829.49
542.01	1842.23
542.37	1854.16
542.72	1866.05
543.08	1877.57
543.44	1889.55
543.79	1900.59
544.15	1911.28
544.51	1922.75
544.87	1933.45
545.22	1944.18
545.58	1954.18
545.94	1963.88
546.29	1973.66
546.65	1983.56
547.01	1992.89
547.36	2001.41
547.72	2009.81
548.07	2017.94
548.43	2026.06
548.79	2033.89
549.14	2041.58
549.50	2048.81
549.86	2056.24
550.21	2063.57
550.57	2070.71
550.92	2077.31
551.28	2084.31
551.64	2091.35
551.99	2097.66
552.35	2103.75
552.70	2109.75
553.06	2115.79
553.41	2122.05
553.77	2127.95
554.13	2133.90
554.48	2140.03
554.84	2145.58
555.19	2150.67
555.55	2155.76
555.90	2160.49
556.26	2165.50
556.61	2170.09
556.97	2174.68
557.32	2178.93
557.68	2183.11
558.03	2187.31
558.39	2190.86
558.74	2195.44
559.10	2199.47
559.45	2203.19
559.81	2207.45
560.16	2211.49
560.52	2214.74
560.87	2218.35
561.23	2221.13
561.58	2224.14
561.94	2226.76
562.29	2229.12
562.64	2232.17
563.00	2234.88
563.35	2238.31
563.71	2241.51
564.06	2244.78
564.42	2247.74
564.77	2250.40
565.12	2252.96
565.48	2255.13
565.83	2257.33
566.19	2258.95
566.54	2259.85
566.89	2261.28
567.25	2262.31
567.60	2263.72
567.96	2265.75
568.31	2266.53
568.66	2267.84
569.02	2268.77
569.37	2269.35
569.72	2270.48
570.08	2270.93
570.43	2270.94
570.78	2270.73
571.14	2269.50
571.49	2268.32
571.84	2268.00
572.20	2267.26
572.55	2266.32
572.90	2264.89
573.26	2263.72
573.61	2262.15
573.96	2260.87
574.31	2258.12
574.67	2255.17
575.02	2251.70
575.37	2248.33
575.72	2244.96
576.08	2241.68
576.43	2238.47
576.78	2234.96
577.13	2231.85
577.49	2228.81
577.84	2225.71
578.19	2221.98
578.54	2218.62
578.90	2214.67
579.25	2209.41
579.60	2204.72
579.95	2200.04
580.30	2195.20
580.66	2190.32
581.01	2185.54
581.36	2180.73
581.71	2176.72
582.06	2172.72
582.42	2168.57
582.77	2163.69
583.12	2159.36
583.47	2154.91
583.82	2150.30
584.17	2145.12
584.53	2139.86
584.88	2134.38
585.23	2128.90
585.58	2123.63
585.93	2118.29
586.28	2113.68
586.63	2108.93
586.98	2103.84
587.34	2099.21
587.69	2094.70
588.04	2089.61
588.39	2084.28
588.74	2077.84
589.09	2071.79
589.44	2065.13
589.79	2059.04
590.14	2053.45
590.49	2047.13
590.84	2040.84
591.19	2034.79
591.54	2028.64
591.89	2021.71
592.25	2015.29
592.60	2008.20
592.95	2000.99
593.30	1993.86
593.65	1986.64
594.00	1979.67
594.35	1972.75
594.70	1964.77
595.05	1957.85
595.40	1950.66
595.75	1943.37
596.10	1937.61
596.45	1931.28
596.80	1925.24
597.15	1919.06
597.50	1912.48
597.85	1906.02
598.19	1899.66
598.54	1892.92
598.89	1886.46
599.24	1880.52
599.59	1874.10
599.94	1868.10
600.29	1861.86
600.64	1855.32
600.99	1848.08
601.34	1841.58
601.69	1834.58
602.04	1828.03
602.39	1820.72
602.74	1814.18
603.08	1807.50
603.43	1800.80
603.78	1793.55
604.13	1786.44
604.48	1779.34
604.83	1772.53
605.18	1765.83
605.53	1758.06
605.87	1750.09
606.22	1742.93
606.57	1735.06
606.92	1727.59
607.27	1720.50
607.62	1713.79
607.96	1706.74
608.31	1700.19
608.66	1692.57
609.01	1685.25
609.36	1677.75
609.70	1669.74
610.05	1661.75
610.40	1654.08
610.75	1645.78
611.10	1638.21
611.44	1629.95
611.79	1621.96
612.14	1613.21
612.49	1604.05
612.83	1595.62
613.18	1587.51
613.53	1579.44
613.88	1571.07
614.22	1562.87
614.57	1554.21
614.92	1546.22
615.27	1538.82
615.61	1530.54
615.96	1522.78
616.31	1515.20
616.65	1508.01
617.00	1500.68
617.35	1493.15
617.70	1485.09
618.04	1476.78
618.39	1468.72
618.74	1461.15
619.08	1452.88
619.43	1445.32
619.78	1438.48
620.12	1431.47
620.47	1424.08
620.82	1416.02
621.16	1408.72
621.51	1401.17
621.85	1393.69
622.20	1385.34
622.55	1376.94
622.89	1369.22
623.24	1361.48
623.59	1354.01
623.93	1346.40
624.28	1339.18
624.62	1331.73
624.97	1324.55
625.32	1317.79
625.66	1310.72
626.01	1303.62
626.35	1296.27
626.70	1288.62
627.04	1280.89
627.39	1273.19
627.73	1265.78
628.08	1258.92
628.43	1251.68
628.77	1244.48
629.12	1236.97
629.46	1229.73
629.81	1222.24
630.15	1214.98
630.50	1207.58
630.84	1199.60
631.19	1191.66
631.53	1184.11
631.88	1176.45
632.22	1168.83
632.57	1161.45
632.91	1153.91
633.26	1146.50
633.60	1139.14
633.95	1131.97
634.29	1124.94
634.64	1118.21
634.98	1111.00
635.32	1104.00
635.67	1097.35
636.01	1090.71
636.36	1083.99
636.70	1077.44
637.05	1071.05
637.39	1064.57
637.73	1058.19
638.08	1052.27
638.42	1046.33
638.77	1039.98
639.11	1033.57
639.45	1027.20
639.80	1020.68
640.14	1014.34
640.49	1007.79
640.83	1001.53
641.17	995.49
641.52	989.31
641.86	982.89
642.20	977.00
642.55	970.51
642.89	964.13
643.23	957.57
643.58	951.86
643.92	945.73
644.26	939.78
644.61	933.81
644.95	927.83
645.29	921.33
645.64	914.63
645.98	908.36
646.32	902.37
646.66	896.35
647.01	890.58
647.35	884.88
647.69	879.11
648.04	873.60
648.38	867.85
648.72	861.91
649.06	855.86
649.41	849.91
649.75	844.18
650.09	838.28
650.43	832.61
650.78	826.44
651.12	820.48
651.46	814.69
651.80	809.08
652.14	803.65
652.49	798.30
652.83	793.19
653.17	787.55
653.51	781.99
653.85	776.68
654.20	771.11
654.54	765.14
654.88	759.51
655.22	753.63
655.56	747.88
655.90	742.47
656.25	737.35
656.59	732.13
656.93	727.03
657.27	721.89
657.61	716.46
657.95	711.39
658.29	706.39
658.64	701.17
658.98	695.79
659.32	690.38
659.66	685.15
660.00	679.95
660.34	675.03
660.68	670.12
661.02	665.06
661.36	660.33
661.70	655.90
662.05	651.51
662.39	647.27
662.73	642.92
663.07	638.53
663.41	634.11
663.75	629.69
664.09	625.13
664.43	620.81
664.77	616.72
665.11	612.52
665.45	608.40
665.79	604.33
666.13	600.22
666.47	596.14
666.81	592.09
667.15	587.95
667.49	584.02
667.83	580.13
668.17	576.30
668.51	572.31
668.85	568.22
669.19	564.38
669.53	560.53
669.87	556.68
670.21	552.99
670.55	549.33
670.89	545.87
671.23	542.44
671.57	538.90
671.91	535.40
672.25	531.88
672.58	528.41
672.92	525.00
673.26	521.94
673.60	518.81
673.94	515.69
674.28	512.79
674.62	509.86
674.96	506.83
675.30	504.01
675.64	501.11
675.97	498.34
676.31	495.46
676.65	492.55
676.99	489.80
677.33	486.97
677.67	484.19
678.01	481.15
678.34	478.22
678.68	475.36
679.02	472.54
679.36	469.77
679.70	467.04
680.04	464.38
680.37	461.52
680.71	458.72
681.05	456.12
681.39	453.41
681.73	450.77
682.06	448.28
682.40	445.63
682.74	443.10
683.08	440.57
683.42	437.97
683.75	435.44
684.09	432.86
684.43	430.37
684.77	427.87
685.10	425.51
685.44	423.17
685.78	420.91
686.12	418.67
686.45	416.41
686.79	414.13
687.13	411.87
687.46	409.67
687.80	407.55
688.14	405.32
688.48	403.35
688.81	401.10
689.15	398.92
689.49	396.76
689.82	394.67
690.16	392.59
690.50	390.67
690.83	388.79
691.17	386.85
691.51	384.95
691.84	383.14
692.18	381.28
692.52	379.33
692.85	377.32
693.19	375.47
693.52	373.63
693.86	371.81
694.20	370.08
694.53	368.31
694.87	366.43
695.21	364.68
695.54	362.75
695.88	361.04
696.21	359.34
696.55	357.75
696.88	356.07
697.22	354.44
697.56	352.79
697.89	351.13
698.23	349.55
698.56	347.99
698.90	346.43
699.23	344.82
699.57	343.22
699.90	341.70
700.24	340.13
700.58	338.64
700.91	337.18
701.25	335.72
701.58	334.32
701.92	332.97
702.25	331.61
702.59	330.27
702.92	328.96
703.26	327.64
703.59	326.30
703.93	325.13
704.26	323.92
704.60	322.62
704.93	321.38
705.26	320.12
705.60	318.93
705.93	317.78
706.27	316.69
706.60	315.66
706.94	314.59
707.27	313.45
707.61	312.32
707.94	311.26
708.27	310.15
708.61	309.06
708.94	308.05
709.28	307.01
709.61	306.07
709.94	305.11
710.28	304.08
710.61	303.14
710.95	302.06
711.28	301.10
711.61	300.18
711.95	299.26
712.28	298.30
712.61	297.29
712.95	296.33
713.28	295.44
713.61	294.57
713.95	293.74
714.28	292.93
714.61	292.09
714.95	291.27
715.28	290.40
715.61	289.56
715.95	288.70
716.28	287.84
716.61	286.99
716.95	286.15
717.28	285.43
717.61	284.64
717.94	283.93
718.28	283.11
718.61	282.37
718.94	281.65
719.27	280.99
719.61	280.37
719.94	279.69
720.27	278.98
720.60	278.32
720.94	277.66
721.27	277.05
721.60	276.49
721.93	275.87
722.27	275.33
722.60	274.76
722.93	274.19
723.26	273.68
723.59	273.14
723.93	272.61
724.26	272.02
724.59	271.42
724.92	270.86
725.25	270.38
725.59	269.85
725.92	269.34
726.25	268.86
726.58	268.34
726.91	267.86
727.24	267.40
727.57	266.90
727.91	266.37
728.24	265.87
728.57	265.35
728.90	264.89
729.23	264.40
729.56	264.01
729.89	263.56
730.22	263.08
730.55	262.66
730.89	262.22
731.22	261.79
731.55	261.37
731.88	260.93
732.21	260.49
732.54	260.07
732.87	259.67
733.20	259.25
733.53	258.87
733.86	258.47
734.19	258.06
734.52	257.68
734.85	257.39
735.18	256.99
735.51	256.64
735.84	256.31
736.17	255.96
736.50	255.54
736.83	255.30
737.16	254.97
737.49	254.59
737.82	254.24
738.15	253.94
738.48	253.60
738.81	253.33
739.14	253.00
739.47	252.69
739.80	252.36
740.13	252.09
740.46	251.77
740.79	251.47
741.12	251.17
741.45	250.88
741.78	250.54
742.11	250.30
742.44	249.96
742.77	249.65
743.10	249.35
743.43	249.06
743.75	248.69
744.08	248.54
744.41	248.27
744.74	248.03
745.07	247.75
745.40	247.51
745.73	247.23
746.06	246.99
746.39	246.73
746.71	246.48
747.04	246.21
747.37	245.95
747.70	245.69
748.03	245.44
748.36	245.22
748.68	244.97
749.01	244.70
749.34	244.49
749.67	244.26
750.00	244.06
750.33	243.90
750.65	243.67
750.98	243.31
751.31	243.10
751.64	242.85
751.97	242.67
752.29	242.47
752.62	242.25
752.95	242.04
753.28	241.82
753.60	241.59
753.93	241.39
754.26	241.20
754.59	240.96
754.91	240.74
755.24	240.51
755.57	240.33
755.90	240.15
756.22	239.94
756.55	239.74
756.88	239.52
757.20	239.29
757.53	239.10
757.86	238.93
758.19	238.78
758.51	238.66
758.84	238.46
759.17	238.31
759.49	238.14
759.82	238.05
760.15	237.88
760.47	237.74
760.80	237.57
761.13	237.46
761.45	237.33
761.78	237.21
762.11	237.08
762.43	236.92
762.76	236.79
763.08	236.67
763.41	236.54
763.74	236.44
764.06	236.30
764.39	236.16
764.71	236.03
765.04	235.87
765.37	235.72
765.69	235.58
766.02	235.44
766.34	235.29
766.67	235.09
767.00	235.03
767.32	234.96
767.65	234.89
767.97	234.74
768.30	234.62
768.62	234.53
768.95	234.42
769.27	234.33
769.60	234.23
769.92	234.11
770.25	234.03
770.57	233.92
770.90	233.80
771.22	233.68
771.55	233.60
771.87	233.51
772.20	233.41
772.52	233.41
772.85	233.47
773.17	233.38
773.50	233.29
773.82	233.17
774.15	233.04
774.47	232.90
774.80	232.80
775.12	232.72
775.45	232.62
775.77	232.56
776.09	232.51
776.42	232.42
776.74	232.36
777.07	232.25
777.39	232.17
777.72	232.10
778.04	232.06
778.36	231.97
778.69	231.93
779.01	231.87
779.33	231.73
779.66	231.51
779.98	231.43
780.31	231.39
780.63	231.37
780.95	231.33
781.28	231.27
781.60	231.22
781.92	231.17
782.25	231.11
782.57	231.02
782.89	230.95
783.22	230.89
783.54	230.83
783.86	230.76
784.19	230.68
784.51	230.66
784.83	230.58
785.16	230.54
785.48	230.48
785.80	230.42
786.12	230.34
786.45	230.28
786.77	230.25
787.09	230.16
787.42	230.08
787.74	229.99
788.06	229.94
788.38	229.90
788.71	229.86
789.03	229.80
789.35	229.75
789.67	229.68
789.99	229.64
790.32	229.60
790.64	229.58
790.96	229.60
791.28	229.52
791.61	229.47
791.93	229.43
792.25	229.34
792.57	229.36
792.89	229.33
793.21	229.29
793.54	229.25
793.86	229.23
794.18	229.17
794.50	229.13
794.82	229.08
795.14	229.03
795.47	229.00
795.79	228.99
796.11	228.94
796.43	228.90
796.75	228.83
797.07	228.79
797.39	228.76
797.71	228.66
798.04	228.63
798.36	228.57
798.68	228.54
799.00	228.54
799.32	228.47
799.64	228.44
799.96	228.39
800.28	228.36
800.60	228.31
800.92	228.29
801.24	228.25
801.56	228.22
801.89	228.15
802.21	228.10
802.53	228.01
802.85	227.98
803.17	227.98
803.49	227.95
803.81	227.87
804.13	227.81
804.45	227.77
804.77	227.74
805.09	227.71
805.41	227.63
805.73	227.58
806.05	227.54
806.37	227.49
806.69	227.45
807.01	227.43
807.33	227.40
807.65	227.35
807.97	227.40
808.28	227.39
808.60	227.40
808.92	227.36
809.24	227.41
809.56	227.40
809.88	227.37
810.20	227.35
810.52	227.37
810.84	227.33
811.16	227.29
811.48	227.28
811.80	227.34
812.12	227.34
812.43	227.36
812.75	227.33
813.07	227.33
813.39	227.33
813.71	227.27
814.03	227.29
814.35	227.29
814.67	227.20
814.98	227.16
815.30	227.14
815.62	227.15
815.94	227.09
816.26	227.12
816.58	227.07
816.89	227.06
817.21	227.05
817.53	227.08
817.85	227.09
818.17	227.03
818.48	226.96
818.80	226.99
819.12	226.93
819.44	226.90
819.76	226.90
820.07	226.89
820.39	226.88
820.71	226.86
821.03	226.83
821.34	226.81
821.66	226.80
821.98	226.81
822.30	226.76
822.61	226.81
822.93	226.75
823.25	226.74
823.57	226.75
823.88	226.70
824.20	226.67
824.52	226.68
824.83	226.68
825.15	226.67
825.47	226.63
825.79	226.64
826.10	226.61
826.42	226.57
826.74	226.57
827.05	226.57
827.37	226.54
827.69	226.53
828.00	226.54
828.32	226.55
828.64	226.50
828.95	226.56
829.27	226.51
829.58	226.48
829.90	226.48
830.22	226.45
830.53	226.46
830.85	226.46
831.17	226.43
831.48	226.45
831.80	226.44
832.11	226.45
832.43	226.40
832.75	226.43
833.06	226.46
833.38	226.40
833.69	226.38
834.01	226.40
834.32	226.40
834.64	226.42
834.96	226.38
835.27	226.36
835.59	226.30
835.90	226.25
836.22	226.25
836.53	226.23
836.85	226.19
837.16	226.24
837.48	226.24
837.79	226.24
838.11	226.24
838.42	226.21
838.74	226.20
839.05	226.21
839.37	226.16
839.68	226.12
840.00	226.10
840.31	226.13
840.63	226.08
840.94	226.04
841.26	226.00
841.57	225.99
841.88	226.01
842.20	225.99
842.51	225.99
842.83	225.99
843.14	226.09
843.46	226.14
843.77	226.10
844.08	226.09
844.40	226.05
844.71	226.06
845.03	226.04
845.34	226.04
845.65	226.04
845.97	226.04
846.28	226.06
846.60	226.06
846.91	226.04
847.22	226.04
847.54	226.07
847.85	226.07
848.16	226.06
848.48	226.05
848.79	226.09
849.10	226.10
849.42	226.09
849.73	225.97
850.04	225.93
850.36	225.88
850.67	225.88
850.98	225.88
851.30	225.84
851.61	225.85
851.92	225.84
852.23	225.87
852.55	225.89
852.86	225.88
853.17	225.89
853.49	225.88
853.80	225.92
854.11	225.91
854.42	225.92
854.74	225.89
855.05	225.88
855.36	225.83
855.67	225.82
855.99	225.82
856.30	225.94
856.61	225.93
856.92	225.94
857.23	225.96
857.55	225.94
857.86	225.94
858.17	225.97
858.48	225.93
858.79	225.90
859.11	225.94
859.42	225.93
859.73	225.92
860.04	225.93
860.35	225.89
860.66	225.86
860.98	225.84
861.29	225.88
861.60	225.87
861.91	225.89
862.22	225.90
862.53	225.88
862.84	225.76
863.16	225.79
863.47	225.79
863.78	225.76
864.09	225.78
864.40	225.77
864.71	225.76
865.02	225.80
865.33	225.79
865.64	225.75
865.95	225.72
866.27	225.76
866.58	225.74
866.89	225.75
867.20	225.76
867.51	225.75
867.82	225.73
868.13	225.78
868.44	225.75
868.75	225.76
869.06	225.77
869.37	225.78
869.68	225.75
869.99	225.74
870.30	225.76
870.61	225.74
870.92	225.76
871.23	225.73
871.54	225.72
871.85	225.73
872.16	225.74
872.47	225.73
872.78	225.70
873.09	225.70
873.40	225.70
873.71	225.70
874.02	225.73
874.33	225.74
874.64	225.71
874.95	225.75
875.26	225.71
875.56	225.72
875.87	225.71
876.18	225.71
876.49	225.79
876.80	225.78
877.11	225.79
877.42	225.78
877.73	225.78
878.04	225.79
878.35	225.79
878.66	225.79
878.96	225.79
879.27	225.78
879.58	225.76
879.89	225.76
880.20	225.77
880.51	225.75
880.82	225.69
881.12	225.69
881.43	225.67
881.74	225.68
882.05	225.66
882.36	225.66
882.67	225.67
882.97	225.59
883.28	225.58
883.59	225.56
883.90	225.58
884.21	225.61
884.51	225.57
884.82	225.56
885.13	225.56
885.44	225.56
885.74	225.55
886.05	225.56
886.36	225.53
886.67	225.46
886.98	225.51
887.28	225.58
887.59	225.55
887.90	225.56
888.20	225.53
888.51	225.56
888.82	225.52
889.13	225.49
889.43	225.56
889.74	225.58
890.05	225.59
890.35	225.56
890.66	225.55
890.97	225.55
891.28	225.55
891.58	225.53
891.89	225.54
892.20	225.52
892.50	225.54
892.81	225.58
893.12	225.61
893.42	225.55
893.73	225.53
894.04	225.55
894.34	225.57
894.65	225.59
894.95	225.57
895.26	225.60
895.57	225.67
895.87	225.56
896.18	225.54
896.48	225.53
896.79	225.52
897.10	225.49
897.40	225.51
897.71	225.53
898.01	225.54
898.32	225.55
898.63	225.57
898.93	225.56
899.24	225.53
899.54	225.52
899.85	225.54
900.15	225.55
900.46	225.54
900.76	225.53
901.07	225.53
901.38	225.52
901.68	225.50
901.99	225.44
902.29	225.46
902.60	225.45
902.90	225.45
903.21	225.47
903.51	225.48
903.82	225.48
904.12	225.48
904.43	225.48
904.73	225.45
905.03	225.42
905.34	225.52
905.64	225.51
905.95	225.54
906.25	225.52
906.56	225.52
906.86	225.51
907.17	225.47
907.47	225.46
907.77	225.46
908.08	225.47
908.38	225.46
908.69	225.46
908.99	225.49
909.30	225.50
909.60	225.50
909.90	225.50
910.21	225.48
910.51	225.47
910.81	225.50
911.12	225.52
911.42	225.53
911.73	225.40
912.03	225.42
912.33	225.43
912.64	225.40
912.94	225.37
913.24	225.36
913.55	225.37
913.85	225.37
914.15	225.38
914.46	225.39
914.76	225.41
915.06	225.42
915.37	225.39
915.67	225.39
915.97	225.36
916.27	225.32
916.58	225.30
916.88	225.27
917.18	225.21
917.49	225.25
917.79	225.25
918.09	225.28
918.39	225.31
918.70	225.32
919.00	225.32
919.30	225.39
919.60	225.39
919.91	225.36
920.21	225.39
920.51	225.39
920.81	225.40
921.12	225.41
921.42	225.38
921.72	225.41
922.02	225.39
922.32	225.41
922.63	225.40
922.93	225.44
923.23	225.46
923.53	225.49
923.83	225.44
924.13	225.42
924.44	225.39
924.74	225.37
925.04	225.35
925.34	225.39
925.64	225.33
925.94	225.30
926.24	225.37
926.55	225.33
926.85	225.32
927.15	225.30
927.45	225.28
927.75	225.26
928.05	225.25
928.35	225.27
928.65	225.31
928.95	225.35
929.26	225.34
929.56	225.36
929.86	225.34
930.16	225.34
930.46	225.36
930.76	225.38
931.06	225.34
931.36	225.34
931.66	225.31
931.96	225.32
932.26	225.37
932.56	225.32
932.86	225.30
933.16	225.34
933.46	225.36
933.76	225.34
934.06	225.37
934.36	225.41
934.66	225.38
934.96	225.36
935.26	225.38
935.56	225.37
935.86	225.36
936.16	225.35
936.46	225.34
936.76	225.31
937.06	225.31
937.36	225.36
937.66	225.34
937.96	225.40
938.26	225.40
938.56	225.37
938.86	225.39
939.16	225.44
939.46	225.46
939.76	225.45
940.06	225.44
940.35	225.43
940.65	225.36
940.95	225.38
941.25	225.36
941.55	225.36
941.85	225.35
942.15	225.34
942.45	225.39
942.75	225.41
943.04	225.45
943.34	225.43
943.64	225.42
943.94	225.42
944.24	225.39
944.54	225.41
944.84	225.39
945.13	225.40
945.43	225.41
945.73	225.39
946.03	225.40
946.33	225.43
946.62	225.43
946.92	225.46
947.22	225.47
947.52	225.47
947.82	225.48
948.11	225.48
948.41	225.48
948.71	225.43
949.01	225.42
949.31	225.44
949.60	225.44
949.90	225.43
950.20	225.43
950.50	225.43
950.79	225.41
951.09	225.44
951.39	225.39
951.69	225.36
951.98	225.37
952.28	225.36
952.58	225.37
952.87	225.36
953.17	225.36
953.47	225.32
953.76	225.32
954.06	225.30
954.36	225.27
954.66	225.26
954.95	225.28
955.25	225.28
955.55	225.24
955.84	225.22
956.14	225.21
956.44	225.22
956.73	225.19
957.03	225.20
957.32	225.19
957.62	225.19
957.92	225.18
958.21	225.17
958.51	225.27
958.81	225.27
959.10	225.28
959.40	225.33
959.69	225.32
959.99	225.34
960.29	225.32
960.58	225.32
960.88	225.36
961.17	225.36
961.47	225.36
961.76	225.37
962.06	225.41
962.36	225.42
962.65	225.46
962.95	225.43
963.24	225.41
963.54	225.40
963.83	225.40
964.13	225.40
964.42	225.38
964.72	225.30
965.01	225.27
965.31	225.25
965.60	225.16
965.90	225.27
966.19	225.28
966.49	225.29
966.78	225.27
967.08	225.24
967.37	225.25
967.67	225.24
967.96	225.29
968.26	225.27
968.55	225.28
968.85	225.25
969.14	225.29
969.43	225.29
969.73	225.32
970.02	225.32
970.32	225.34
970.61	225.35
970.91	225.32
971.20	225.33
971.49	225.33
971.79	225.39
972.08	225.30
972.38	225.29
972.67	225.27
972.96	225.33
973.26	225.34
973.55	225.38
973.85	225.40
974.14	225.36
974.43	225.37
974.73	225.34
975.02	225.34
975.31	225.31
975.61	225.30
975.90	225.28
976.19	225.30
976.49	225.29
976.78	225.29
977.07	225.29
977.37	225.27
977.66	225.29
977.95	225.27
978.24	225.29
978.54	225.30
978.83	225.32
979.12	225.29
979.42	225.28
979.71	225.25
980.00	225.23
980.29	225.27
980.59	225.27
980.88	225.31
981.17	225.31
981.46	225.32
981.76	225.34
982.05	225.37
982.34	225.38
982.63	225.39
982.93	225.39
983.22	225.41
983.51	225.44
983.80	225.45
984.09	225.47
984.39	225.46
984.68	225.43
984.97	225.42
985.26	225.43
985.55	225.42
985.85	225.39
986.14	225.41
986.43	225.39
986.72	225.35
987.01	225.32
987.30	225.35
987.59	225.35
987.89	225.37
988.18	225.35
988.47	225.32
988.76	225.32
989.05	225.31
989.34	225.31
989.63	225.34
989.92	225.29
990.22	225.29
990.51	225.27
990.80	225.29
991.09	225.28
991.38	225.28
991.67	225.28
991.96	225.30
992.25	225.25
992.54	225.21
992.83	225.23
993.12	225.21
993.41	225.19
993.70	225.25
993.99	225.23
994.28	225.23
994.58	225.23
994.87	225.16
995.16	225.13
995.45	225.09
995.74	225.03
996.03	225.05
996.32	225.04
996.61	225.07
996.90	225.07
997.19	225.04
997.48	225.04
997.77	225.03
998.06	225.04
998.34	225.04
998.63	225.05
998.92	225.03
999.21	225.03
999.50	225.00
999.79	224.97
1000.08	224.98
1000.37	224.92
1000.66	224.91
1000.95	224.94
1001.24	224.95
1001.53	224.94
1001.82	224.92
1002.11	224.88
1002.40	224.88
1002.68	224.89
1002.97	224.94
1003.26	224.96
1003.55	224.93
1003.84	224.92
1004.13	224.92
1004.42	224.94
1004.71	224.97
1004.99	224.99
1005.28	225.06
1005.57	225.09
1005.86	225.07
1006.15	225.05
1006.44	225.07
1006.72	225.10
1007.01	225.14
1007.30	225.15
1007.59	225.18
1007.88	225.17
1008.17	225.20
1008.45	225.21
1008.74	225.16
1009.03	225.11
1009.32	225.10
1009.60	225.13
1009.89	225.12
1010.18	225.08
1010.47	225.07
1010.76	225.07
1011.04	225.08
1011.33	225.06
1011.62	225.06
1011.91	225.06
1012.19	225.08
1012.48	225.12
1012.77	225.13
1013.05	225.15
1013.34	225.17
1013.63	225.17
1013.92	225.22
1014.20	225.23
1014.49	225.22
1014.78	225.24
1015.06	225.24
1015.35	225.25
1015.64	225.25
1015.92	225.30
1016.21	225.30
1016.50	225.32
1016.78	225.33
1017.07	225.30
1017.36	225.25
1017.64	225.25
1017.93	225.28
1018.22	225.26
1018.50	225.25
1018.79	225.28
1019.08	225.21
1019.36	225.24
1019.65	225.23
1019.93	225.23
1020.22	225.22
1020.51	225.24
1020.79	225.25
1021.08	225.15
1021.36	225.51
1021.65	225.87
1021.94	224.40
1022.22	225.94
1022.51	224.82
1022.79	225.42
1023.08	225.01
1023.36	225.90
1023.65	225.07
>>>>>End Processed Spectral Data<<<<<
