SpectraSuite Data File
++++++++++++++++++++++++++++++++++++
Date: Fri Feb 01 15:39:34 EST 2013
User: group
Dark Spectrum Present: No
Reference Spectrum Present: No
Number of Sampled Component Spectra: 1
Spectrometers: USB2E7196
Integration Time (usec): 35000 (USB2E7196)
Spectra Averaged: 100 (USB2E7196)
Boxcar Smoothing: 10 (USB2E7196)
Correct for Electrical Dark: No (USB2E7196)
Strobe/Lamp Enabled: No (USB2E7196)
Correct for Detector Non-linearity: No (USB2E7196)
Correct for Stray Light: No (USB2E7196)
Number of Pixels in Processed Spectrum: 2048
>>>>>Begin Processed Spectral Data<<<<<
339.09	0.00
339.48	214.68
339.86	216.97
340.24	218.20
340.63	219.25
341.01	221.76
341.39	222.32
341.78	223.61
342.16	224.69
342.54	225.46
342.93	213.47
343.31	224.24
343.69	224.78
344.07	225.22
344.46	225.61
344.84	225.99
345.22	226.24
345.60	226.47
345.99	226.63
346.37	226.76
346.75	226.83
347.13	226.91
347.52	226.98
347.90	227.06
348.28	227.05
348.66	227.07
349.05	227.09
349.43	227.09
349.81	227.10
350.19	227.15
350.57	227.20
350.96	227.28
351.34	227.35
351.72	227.44
352.10	227.54
352.48	227.62
352.87	227.67
353.25	227.73
353.63	227.78
354.01	227.81
354.39	227.89
354.77	227.98
355.15	228.06
355.54	228.08
355.92	228.08
356.30	228.14
356.68	228.28
357.06	228.32
357.44	228.39
357.82	228.45
358.20	228.55
358.58	228.61
358.97	228.66
359.35	228.75
359.73	228.84
360.11	228.91
360.49	228.97
360.87	229.02
361.25	229.05
361.63	229.12
362.01	229.25
362.39	229.30
362.77	229.31
363.15	229.33
363.53	229.37
363.91	229.40
364.29	229.44
364.67	229.35
365.05	229.36
365.43	229.37
365.81	229.42
366.19	229.43
366.57	229.46
366.95	229.44
367.33	229.41
367.71	229.36
368.09	229.31
368.47	229.29
368.85	229.29
369.23	229.30
369.61	229.24
369.99	229.19
370.37	229.12
370.75	229.14
371.13	229.07
371.51	229.00
371.89	228.98
372.27	228.93
372.65	228.88
373.03	228.84
373.41	228.78
373.78	228.71
374.16	228.59
374.54	228.52
374.92	228.44
375.30	228.39
375.68	228.32
376.06	228.29
376.44	228.21
376.82	228.11
377.19	228.04
377.57	227.98
377.95	227.87
378.33	227.78
378.71	227.63
379.09	227.60
379.47	227.54
379.84	227.44
380.22	227.35
380.60	227.28
380.98	227.21
381.36	227.12
381.73	227.02
382.11	226.98
382.49	226.92
382.87	226.87
383.25	226.80
383.62	226.83
384.00	226.76
384.38	226.73
384.76	226.72
385.13	226.69
385.51	226.65
385.89	226.61
386.27	226.62
386.64	226.60
387.02	226.55
387.40	226.54
387.78	226.52
388.15	226.52
388.53	226.48
388.91	226.47
389.29	226.44
389.66	226.45
390.04	226.44
390.42	226.42
390.79	226.40
391.17	226.40
391.55	226.32
391.92	226.27
392.30	226.27
392.68	226.26
393.05	226.24
393.43	226.26
393.81	226.28
394.18	226.29
394.56	226.33
394.94	226.37
395.31	226.37
395.69	226.44
396.06	226.51
396.44	226.56
396.82	226.60
397.19	226.71
397.57	226.76
397.95	226.83
398.32	226.87
398.70	226.92
399.07	226.99
399.45	227.07
399.82	227.13
400.20	227.21
400.58	227.26
400.95	227.30
401.33	227.40
401.70	227.57
402.08	227.63
402.45	227.72
402.83	227.81
403.20	227.94
403.58	228.03
403.95	228.16
404.33	228.31
404.71	228.43
405.08	228.60
405.46	228.72
405.83	228.88
406.21	229.02
406.58	229.25
406.96	229.36
407.33	229.58
407.70	229.82
408.08	230.08
408.45	230.29
408.83	230.57
409.20	230.77
409.58	230.93
409.95	231.22
410.33	231.50
410.70	231.78
411.08	232.09
411.45	232.36
411.82	232.64
412.20	232.95
412.57	233.37
412.95	233.66
413.32	234.07
413.69	234.46
414.07	234.91
414.44	235.32
414.82	235.84
415.19	236.35
415.56	236.88
415.94	237.40
416.31	238.07
416.68	238.67
417.06	239.39
417.43	240.05
417.81	240.79
418.18	241.58
418.55	242.40
418.93	243.27
419.30	244.18
419.67	245.10
420.04	246.05
420.42	247.04
420.79	248.23
421.16	249.38
421.54	250.60
421.91	251.80
422.28	253.09
422.66	254.41
423.03	255.70
423.40	257.02
423.77	258.46
424.15	259.86
424.52	261.35
424.89	262.96
425.26	264.54
425.64	266.00
426.01	267.59
426.38	269.24
426.75	270.86
427.13	272.59
427.50	274.38
427.87	276.27
428.24	278.12
428.61	279.84
428.99	281.75
429.36	283.84
429.73	285.87
430.10	287.85
430.47	289.89
430.85	292.01
431.22	294.25
431.59	296.64
431.96	298.85
432.33	301.33
432.70	303.69
433.08	306.51
433.45	309.17
433.82	311.77
434.19	314.64
434.56	317.50
434.93	320.15
435.30	322.79
435.68	325.70
436.05	328.57
436.42	331.42
436.79	333.98
437.16	336.66
437.53	339.55
437.90	342.39
438.27	345.17
438.64	347.97
439.01	350.56
439.38	352.77
439.75	354.95
440.13	357.43
440.50	359.78
440.87	361.61
441.24	363.54
441.61	365.69
441.98	367.25
442.35	369.06
442.72	370.96
443.09	372.78
443.46	373.80
443.83	374.33
444.20	374.82
444.57	375.69
444.94	375.99
445.31	376.25
445.68	376.59
446.05	376.64
446.42	376.30
446.79	375.92
447.16	375.48
447.53	375.14
447.90	374.03
448.27	372.87
448.64	371.29
449.01	370.13
449.37	368.19
449.74	366.27
450.11	364.00
450.48	361.49
450.85	358.94
451.22	356.77
451.59	354.74
451.96	352.76
452.33	350.11
452.70	347.76
453.07	344.96
453.43	342.04
453.80	339.26
454.17	336.55
454.54	333.97
454.91	331.24
455.28	328.60
455.65	326.09
456.02	323.63
456.38	321.46
456.75	318.81
457.12	316.56
457.49	314.32
457.86	312.15
458.23	310.30
458.59	308.26
458.96	306.17
459.33	304.35
459.70	302.57
460.07	301.05
460.43	299.32
460.80	297.75
461.17	296.32
461.54	294.86
461.91	293.44
462.27	292.00
462.64	290.77
463.01	289.40
463.38	288.08
463.74	286.71
464.11	285.56
464.48	284.52
464.85	283.37
465.21	282.48
465.58	281.55
465.95	280.45
466.32	279.54
466.68	278.64
467.05	277.73
467.42	276.78
467.78	275.85
468.15	274.95
468.52	274.24
468.88	273.42
469.25	272.66
469.62	272.05
469.98	271.41
470.35	270.78
470.72	270.17
471.08	269.52
471.45	268.99
471.82	268.43
472.18	267.81
472.55	267.37
472.92	266.88
473.28	266.42
473.65	265.97
474.02	265.51
474.38	265.13
474.75	264.82
475.11	264.46
475.48	264.19
475.85	264.00
476.21	263.77
476.58	263.54
476.94	263.38
477.31	263.19
477.67	263.00
478.04	262.88
478.41	262.83
478.77	262.90
479.14	262.87
479.50	262.86
479.87	262.93
480.23	263.01
480.60	263.08
480.96	263.16
481.33	263.34
481.69	263.55
482.06	263.78
482.42	263.99
482.79	264.26
483.15	264.58
483.52	264.95
483.88	265.31
484.25	265.75
484.61	266.18
484.98	266.63
485.34	267.18
485.71	267.78
486.07	268.38
486.44	268.94
486.80	269.59
487.17	270.35
487.53	271.18
487.90	272.06
488.26	272.98
488.62	273.97
488.99	274.95
489.35	275.98
489.72	277.11
490.08	278.33
490.44	279.56
490.81	280.93
491.17	282.26
491.54	283.69
491.90	285.21
492.26	286.82
492.63	288.56
492.99	290.34
493.36	292.20
493.72	294.26
494.08	296.36
494.45	298.65
494.81	300.98
495.17	303.39
495.54	305.93
495.90	308.61
496.26	311.39
496.63	314.39
496.99	317.51
497.35	320.72
497.72	324.13
498.08	327.65
498.44	331.32
498.80	335.24
499.17	339.31
499.53	343.51
499.89	347.87
500.26	352.37
500.62	357.04
500.98	362.04
501.34	367.06
501.71	372.36
502.07	377.84
502.43	383.50
502.79	389.33
503.16	395.46
503.52	401.80
503.88	408.21
504.24	414.83
504.60	421.72
504.97	428.91
505.33	436.25
505.69	443.96
506.05	451.73
506.41	459.65
506.78	467.79
507.14	476.20
507.50	484.97
507.86	494.01
508.22	503.24
508.59	512.43
508.95	522.06
509.31	531.89
509.67	541.95
510.03	552.20
510.39	562.81
510.75	573.48
511.12	584.33
511.48	595.70
511.84	607.13
512.20	618.66
512.56	630.61
512.92	642.75
513.28	655.05
513.64	667.51
514.00	680.24
514.37	693.12
514.73	706.26
515.09	719.31
515.45	732.63
515.81	746.22
516.17	760.25
516.53	774.28
516.89	788.40
517.25	802.63
517.61	817.14
517.97	831.55
518.33	846.17
518.69	861.00
519.05	876.03
519.41	891.17
519.77	906.84
520.13	922.20
520.49	937.58
520.85	953.10
521.21	968.93
521.57	985.15
521.93	1001.00
522.29	1017.39
522.65	1033.54
523.01	1049.77
523.37	1065.88
523.73	1082.05
524.09	1098.27
524.45	1114.75
524.81	1131.35
525.17	1148.13
525.53	1165.10
525.89	1181.83
526.25	1198.64
526.61	1214.91
526.97	1231.69
527.33	1248.08
527.68	1264.77
528.04	1281.31
528.40	1297.87
528.76	1314.88
529.12	1331.48
529.48	1348.28
529.84	1364.36
530.20	1381.13
530.56	1398.21
530.91	1415.53
531.27	1432.29
531.63	1448.78
531.99	1465.29
532.35	1481.28
532.71	1497.22
533.07	1513.49
533.42	1529.49
533.78	1545.47
534.14	1561.76
534.50	1577.29
534.86	1593.20
535.21	1608.40
535.57	1624.37
535.93	1639.93
536.29	1654.73
536.65	1669.76
537.00	1684.67
537.36	1699.89
537.72	1714.35
538.08	1728.70
538.44	1742.56
538.79	1756.44
539.15	1770.05
539.51	1783.82
539.87	1798.13
540.22	1812.00
540.58	1825.84
540.94	1839.25
541.29	1852.29
541.65	1865.14
542.01	1878.35
542.37	1890.65
542.72	1903.11
543.08	1914.79
543.44	1927.31
543.79	1938.55
544.15	1949.59
544.51	1961.14
544.87	1972.24
545.22	1983.03
545.58	1993.32
545.94	2003.07
546.29	2012.96
546.65	2022.82
547.01	2032.08
547.36	2040.86
547.72	2049.19
548.07	2056.98
548.43	2065.13
548.79	2073.22
549.14	2080.55
549.50	2087.82
549.86	2095.65
550.21	2102.98
550.57	2110.31
550.92	2116.73
551.28	2123.76
551.64	2130.96
551.99	2137.48
552.35	2143.56
552.70	2149.76
553.06	2155.70
553.41	2162.10
553.77	2168.17
554.13	2174.34
554.48	2180.46
554.84	2185.89
555.19	2191.15
555.55	2196.21
555.90	2200.57
556.26	2205.45
556.61	2210.27
556.97	2214.49
557.32	2218.60
557.68	2222.59
558.03	2226.67
558.39	2230.36
558.74	2235.04
559.10	2238.81
559.45	2242.57
559.81	2246.91
560.16	2250.77
560.52	2254.04
560.87	2257.45
561.23	2260.17
561.58	2263.11
561.94	2265.65
562.29	2268.13
562.64	2270.82
563.00	2273.56
563.35	2277.10
563.71	2280.16
564.06	2283.28
564.42	2286.25
564.77	2288.67
565.12	2291.07
565.48	2293.02
565.83	2294.88
566.19	2296.02
566.54	2296.90
566.89	2297.86
567.25	2298.38
567.60	2299.66
567.96	2301.23
568.31	2301.89
568.66	2302.87
569.02	2303.37
569.37	2303.67
569.72	2304.38
570.08	2304.50
570.43	2304.45
570.78	2303.87
571.14	2302.34
571.49	2301.12
571.84	2300.82
572.20	2299.58
572.55	2298.49
572.90	2297.11
573.26	2295.72
573.61	2294.02
573.96	2292.29
574.31	2289.38
574.67	2286.29
575.02	2282.76
575.37	2279.39
575.72	2275.71
576.08	2272.43
576.43	2269.07
576.78	2265.33
577.13	2262.27
577.49	2259.15
577.84	2255.49
578.19	2251.74
578.54	2247.92
578.90	2243.59
579.25	2237.91
579.60	2232.94
579.95	2227.87
580.30	2222.66
580.66	2217.53
581.01	2212.65
581.36	2207.68
581.71	2203.36
582.06	2198.85
582.42	2194.27
582.77	2189.01
583.12	2184.41
583.47	2179.56
583.82	2174.54
584.17	2169.09
584.53	2163.48
584.88	2157.86
585.23	2152.16
585.58	2146.63
585.93	2141.35
586.28	2136.58
586.63	2131.49
586.98	2126.40
587.34	2121.65
587.69	2116.79
588.04	2111.42
588.39	2105.67
588.74	2099.20
589.09	2093.18
589.44	2086.30
589.79	2080.37
590.14	2074.74
590.49	2068.03
590.84	2061.67
591.19	2055.57
591.54	2049.26
591.89	2041.81
592.25	2034.86
592.60	2027.45
592.95	2019.91
593.30	2012.43
593.65	2004.82
594.00	1997.73
594.35	1990.43
594.70	1982.43
595.05	1975.14
595.40	1967.89
595.75	1960.34
596.10	1953.96
596.45	1947.08
596.80	1941.03
597.15	1934.16
597.50	1926.83
597.85	1920.61
598.19	1913.93
598.54	1906.75
598.89	1900.11
599.24	1894.16
599.59	1887.51
599.94	1881.53
600.29	1875.07
600.64	1868.52
600.99	1860.92
601.34	1853.98
601.69	1847.09
602.04	1840.17
602.39	1832.77
602.74	1825.82
603.08	1819.14
603.43	1812.47
603.78	1805.15
604.13	1797.97
604.48	1790.57
604.83	1783.88
605.18	1776.79
605.53	1768.71
605.87	1760.70
606.22	1753.46
606.57	1745.56
606.92	1738.22
607.27	1730.85
607.62	1723.89
607.96	1716.54
608.31	1710.10
608.66	1702.55
609.01	1694.94
609.36	1687.34
609.70	1679.24
610.05	1671.22
610.40	1663.44
610.75	1655.02
611.10	1647.33
611.44	1638.84
611.79	1631.01
612.14	1622.30
612.49	1613.07
612.83	1604.83
613.18	1596.83
613.53	1588.71
613.88	1580.15
614.22	1571.81
614.57	1563.32
614.92	1555.35
615.27	1547.66
615.61	1539.22
615.96	1531.18
616.31	1523.55
616.65	1516.19
617.00	1508.67
617.35	1500.92
617.70	1492.60
618.04	1484.10
618.39	1475.88
618.74	1468.31
619.08	1460.03
619.43	1452.45
619.78	1445.65
620.12	1438.38
620.47	1430.77
620.82	1422.66
621.16	1415.31
621.51	1407.78
621.85	1400.23
622.20	1391.70
622.55	1383.46
622.89	1375.59
623.24	1367.92
623.59	1360.51
623.93	1352.97
624.28	1345.77
624.62	1338.29
624.97	1331.13
625.32	1324.41
625.66	1317.42
626.01	1310.27
626.35	1302.77
626.70	1295.00
627.04	1287.16
627.39	1279.43
627.73	1272.17
628.08	1265.19
628.43	1257.87
628.77	1250.38
629.12	1242.66
629.46	1235.51
629.81	1228.18
630.15	1221.01
630.50	1213.69
630.84	1205.45
631.19	1197.57
631.53	1190.07
631.88	1182.54
632.22	1174.85
632.57	1167.61
632.91	1160.07
633.26	1152.66
633.60	1145.33
633.95	1138.37
634.29	1131.36
634.64	1124.60
634.98	1117.15
635.32	1109.97
635.67	1103.37
636.01	1096.76
636.36	1090.06
636.70	1083.51
637.05	1076.83
637.39	1070.35
637.73	1063.81
638.08	1057.98
638.42	1051.98
638.77	1045.48
639.11	1038.85
639.45	1032.66
639.80	1025.94
640.14	1019.46
640.49	1012.94
640.83	1006.49
641.17	1000.13
641.52	993.78
641.86	987.32
642.20	981.43
642.55	975.17
642.89	968.75
643.23	962.30
643.58	956.43
643.92	950.29
644.26	944.19
644.61	938.22
644.95	932.15
645.29	925.51
645.64	918.78
645.98	912.50
646.32	906.67
646.66	900.51
647.01	894.74
647.35	888.99
647.69	883.08
648.04	877.70
648.38	871.87
648.72	865.78
649.06	859.78
649.41	853.94
649.75	847.98
650.09	841.94
650.43	836.15
650.78	830.07
651.12	824.10
651.46	818.40
651.80	812.63
652.14	807.28
652.49	801.93
652.83	796.77
653.17	791.05
653.51	785.30
653.85	780.04
654.20	774.42
654.54	768.53
654.88	762.84
655.22	756.85
655.56	751.16
655.90	745.76
656.25	740.47
656.59	735.11
656.93	729.98
657.27	724.88
657.61	719.38
657.95	714.31
658.29	709.23
658.64	703.93
658.98	698.64
659.32	693.15
659.66	687.93
660.00	682.61
660.34	677.66
660.68	672.83
661.02	667.70
661.36	662.96
661.70	658.45
662.05	654.04
662.39	649.81
662.73	645.40
663.07	641.08
663.41	636.66
663.75	632.13
664.09	627.61
664.43	623.16
664.77	619.10
665.11	614.85
665.45	610.66
665.79	606.65
666.13	602.50
666.47	598.45
666.81	594.26
667.15	590.13
667.49	586.27
667.83	582.43
668.17	578.53
668.51	574.44
668.85	570.44
669.19	566.64
669.53	562.74
669.87	558.82
670.21	555.14
670.55	551.51
670.89	548.10
671.23	544.64
671.57	541.16
671.91	537.58
672.25	534.01
672.58	530.48
672.92	527.09
673.26	523.90
673.60	520.72
673.94	517.60
674.28	514.75
674.62	511.80
674.96	508.65
675.30	505.70
675.64	502.76
675.97	499.97
676.31	497.07
676.65	494.14
676.99	491.51
677.33	488.60
677.67	485.76
678.01	482.72
678.34	479.75
678.68	476.83
679.02	473.98
679.36	471.25
679.70	468.61
680.04	465.80
680.37	462.92
680.71	460.13
681.05	457.54
681.39	454.75
681.73	452.08
682.06	449.54
682.40	447.03
682.74	444.51
683.08	442.01
683.42	439.40
683.75	436.95
684.09	434.32
684.43	431.89
684.77	429.46
685.10	427.13
685.44	424.88
685.78	422.63
686.12	420.43
686.45	418.17
686.79	415.86
687.13	413.68
687.46	411.58
687.80	409.43
688.14	407.21
688.48	405.16
688.81	402.90
689.15	400.80
689.49	398.61
689.82	396.54
690.16	394.39
690.50	392.48
690.83	390.49
691.17	388.53
691.51	386.66
691.84	384.76
692.18	382.85
692.52	380.85
692.85	378.91
693.19	377.04
693.52	375.21
693.86	373.38
694.20	371.65
694.53	369.88
694.87	368.08
695.21	366.29
695.54	364.51
695.88	362.83
696.21	361.10
696.55	359.47
696.88	357.80
697.22	356.19
697.56	354.58
697.89	352.93
698.23	351.35
698.56	349.70
698.90	348.09
699.23	346.44
699.57	344.89
699.90	343.37
700.24	341.85
700.58	340.32
700.91	338.84
701.25	337.39
701.58	335.98
701.92	334.62
702.25	333.27
702.59	331.89
702.92	330.56
703.26	329.30
703.59	328.00
703.93	326.83
704.26	325.54
704.60	324.22
704.93	322.98
705.26	321.76
705.60	320.62
705.93	319.53
706.27	318.48
706.60	317.40
706.94	316.30
707.27	315.15
707.61	314.05
707.94	313.02
708.27	311.90
708.61	310.81
708.94	309.79
709.28	308.80
709.61	307.84
709.94	306.87
710.28	305.81
710.61	304.85
710.95	303.72
711.28	302.84
711.61	301.88
711.95	300.91
712.28	299.92
712.61	298.86
712.95	297.89
713.28	296.99
713.61	296.10
713.95	295.20
714.28	294.36
714.61	293.55
714.95	292.70
715.28	291.86
715.61	291.00
715.95	290.13
716.28	289.24
716.61	288.44
716.95	287.64
717.28	286.88
717.61	286.07
717.94	285.36
718.28	284.51
718.61	283.84
718.94	283.13
719.27	282.48
719.61	281.86
719.94	281.19
720.27	280.49
720.60	279.79
720.94	279.17
721.27	278.55
721.60	277.95
721.93	277.35
722.27	276.81
722.60	276.26
722.93	275.67
723.26	275.14
723.59	274.55
723.93	273.97
724.26	273.43
724.59	272.89
724.92	272.37
725.25	271.92
725.59	271.36
725.92	270.85
726.25	270.34
726.58	269.83
726.91	269.36
727.24	268.92
727.57	268.47
727.91	267.94
728.24	267.50
728.57	266.97
728.90	266.50
729.23	266.00
729.56	265.58
729.89	265.13
730.22	264.71
730.55	264.26
730.89	263.85
731.22	263.40
731.55	262.98
731.88	262.58
732.21	262.14
732.54	261.72
732.87	261.34
733.20	260.99
733.53	260.67
733.86	260.30
734.19	259.89
734.52	259.53
734.85	259.28
735.18	258.86
735.51	258.53
735.84	258.19
736.17	257.90
736.50	257.53
736.83	257.31
737.16	256.96
737.49	256.63
737.82	256.29
738.15	255.96
738.48	255.65
738.81	255.31
739.14	255.02
739.47	254.74
739.80	254.44
740.13	254.11
740.46	253.76
740.79	253.41
741.12	253.14
741.45	252.85
741.78	252.49
742.11	252.23
742.44	251.92
742.77	251.66
743.10	251.30
743.43	250.99
743.75	250.58
744.08	250.40
744.41	250.18
744.74	249.92
745.07	249.68
745.40	249.40
745.73	249.16
746.06	248.86
746.39	248.56
746.71	248.28
747.04	248.04
747.37	247.78
747.70	247.54
748.03	247.27
748.36	247.01
748.68	246.78
749.01	246.53
749.34	246.30
749.67	246.03
750.00	245.83
750.33	245.69
750.65	245.48
750.98	245.14
751.31	244.88
751.64	244.65
751.97	244.46
752.29	244.23
752.62	244.00
752.95	243.82
753.28	243.65
753.60	243.41
753.93	243.23
754.26	243.01
754.59	242.78
754.91	242.57
755.24	242.36
755.57	242.15
755.90	241.92
756.22	241.71
756.55	241.51
756.88	241.30
757.20	241.07
757.53	240.87
757.86	240.67
758.19	240.55
758.51	240.35
758.84	240.15
759.17	239.96
759.49	239.80
759.82	239.65
760.15	239.48
760.47	239.35
760.80	239.15
761.13	239.00
761.45	238.86
761.78	238.70
762.11	238.55
762.43	238.39
762.76	238.26
763.08	238.09
763.41	237.95
763.74	237.79
764.06	237.61
764.39	237.45
764.71	237.28
765.04	237.11
765.37	236.97
765.69	236.82
766.02	236.68
766.34	236.51
766.67	236.38
767.00	236.26
767.32	236.17
767.65	236.07
767.97	235.95
768.30	235.83
768.62	235.71
768.95	235.61
769.27	235.48
769.60	235.37
769.92	235.28
770.25	235.15
770.57	235.03
770.90	234.94
771.22	234.83
771.55	234.77
771.87	234.70
772.20	234.62
772.52	234.62
772.85	234.65
773.17	234.61
773.50	234.49
773.82	234.40
774.15	234.30
774.47	234.19
774.80	234.08
775.12	234.00
775.45	233.92
775.77	233.84
776.09	233.81
776.42	233.76
776.74	233.72
777.07	233.66
777.39	233.66
777.72	233.58
778.04	233.60
778.36	233.56
778.69	233.49
779.01	233.46
779.33	233.34
779.66	233.22
779.98	233.16
780.31	233.12
780.63	233.09
780.95	233.06
781.28	233.01
781.60	233.00
781.92	232.95
782.25	232.94
782.57	232.91
782.89	232.85
783.22	232.79
783.54	232.74
783.86	232.72
784.19	232.65
784.51	232.65
784.83	232.55
785.16	232.51
785.48	232.45
785.80	232.41
786.12	232.35
786.45	232.30
786.77	232.24
787.09	232.17
787.42	232.11
787.74	232.07
788.06	232.02
788.38	231.97
788.71	231.93
789.03	231.90
789.35	231.88
789.67	231.83
789.99	231.77
790.32	231.70
790.64	231.64
790.96	231.67
791.28	231.56
791.61	231.53
791.93	231.49
792.25	231.45
792.57	231.46
792.89	231.39
793.21	231.33
793.54	231.28
793.86	231.24
794.18	231.20
794.50	231.16
794.82	231.08
795.14	231.00
795.47	230.95
795.79	230.90
796.11	230.78
796.43	230.71
796.75	230.70
797.07	230.62
797.39	230.60
797.71	230.47
798.04	230.44
798.36	230.38
798.68	230.29
799.00	230.21
799.32	230.13
799.64	230.10
799.96	230.06
800.28	230.02
800.60	229.97
800.92	229.89
801.24	229.87
801.56	229.86
801.89	229.82
802.21	229.80
802.53	229.73
802.85	229.74
803.17	229.76
803.49	229.65
803.81	229.64
804.13	229.59
804.45	229.53
804.77	229.48
805.09	229.47
805.41	229.44
805.73	229.40
806.05	229.31
806.37	229.29
806.69	229.23
807.01	229.16
807.33	229.11
807.65	229.06
807.97	229.05
808.28	229.00
808.60	228.98
808.92	228.94
809.24	228.96
809.56	228.91
809.88	228.85
810.20	228.87
810.52	228.86
810.84	228.81
811.16	228.77
811.48	228.75
811.80	228.75
812.12	228.71
812.43	228.73
812.75	228.71
813.07	228.66
813.39	228.67
813.71	228.66
814.03	228.65
814.35	228.63
814.67	228.56
814.98	228.57
815.30	228.53
815.62	228.51
815.94	228.45
816.26	228.48
816.58	228.44
816.89	228.43
817.21	228.39
817.53	228.39
817.85	228.41
818.17	228.41
818.48	228.34
818.80	228.38
819.12	228.35
819.44	228.34
819.76	228.35
820.07	228.32
820.39	228.34
820.71	228.32
821.03	228.35
821.34	228.33
821.66	228.35
821.98	228.35
822.30	228.34
822.61	228.37
822.93	228.33
823.25	228.33
823.57	228.30
823.88	228.32
824.20	228.31
824.52	228.31
824.83	228.34
825.15	228.35
825.47	228.36
825.79	228.33
826.10	228.34
826.42	228.32
826.74	228.34
827.05	228.33
827.37	228.34
827.69	228.32
828.00	228.34
828.32	228.30
828.64	228.31
828.95	228.38
829.27	228.37
829.58	228.37
829.90	228.41
830.22	228.43
830.53	228.40
830.85	228.39
831.17	228.37
831.48	228.33
831.80	228.32
832.11	228.29
832.43	228.30
832.75	228.30
833.06	228.35
833.38	228.30
833.69	228.28
834.01	228.27
834.32	228.26
834.64	228.22
834.96	228.22
835.27	228.23
835.59	228.15
835.90	228.09
836.22	228.07
836.53	228.02
836.85	227.99
837.16	228.08
837.48	228.08
837.79	228.11
838.11	228.12
838.42	228.13
838.74	228.14
839.05	228.10
839.37	228.07
839.68	228.03
840.00	228.05
840.31	228.08
840.63	228.04
840.94	228.04
841.26	228.01
841.57	227.98
841.88	227.93
842.20	227.90
842.51	227.91
842.83	227.88
843.14	227.94
843.46	227.93
843.77	227.86
844.08	227.82
844.40	227.77
844.71	227.72
845.03	227.70
845.34	227.66
845.65	227.66
845.97	227.65
846.28	227.63
846.60	227.59
846.91	227.53
847.22	227.55
847.54	227.57
847.85	227.58
848.16	227.56
848.48	227.55
848.79	227.61
849.10	227.61
849.42	227.60
849.73	227.51
850.04	227.50
850.36	227.45
850.67	227.46
850.98	227.45
851.30	227.44
851.61	227.43
851.92	227.44
852.23	227.48
852.55	227.49
852.86	227.48
853.17	227.50
853.49	227.53
853.80	227.53
854.11	227.50
854.42	227.50
854.74	227.51
855.05	227.50
855.36	227.42
855.67	227.44
855.99	227.47
856.30	227.57
856.61	227.57
856.92	227.60
857.23	227.59
857.55	227.58
857.86	227.60
858.17	227.60
858.48	227.60
858.79	227.55
859.11	227.55
859.42	227.56
859.73	227.56
860.04	227.59
860.35	227.56
860.66	227.52
860.98	227.54
861.29	227.55
861.60	227.56
861.91	227.61
862.22	227.57
862.53	227.56
862.84	227.46
863.16	227.50
863.47	227.47
863.78	227.49
864.09	227.52
864.40	227.54
864.71	227.54
865.02	227.56
865.33	227.57
865.64	227.55
865.95	227.52
866.27	227.58
866.58	227.56
866.89	227.61
867.20	227.62
867.51	227.59
867.82	227.60
868.13	227.64
868.44	227.61
868.75	227.63
869.06	227.65
869.37	227.68
869.68	227.65
869.99	227.67
870.30	227.65
870.61	227.65
870.92	227.60
871.23	227.58
871.54	227.61
871.85	227.65
872.16	227.65
872.47	227.65
872.78	227.60
873.09	227.60
873.40	227.53
873.71	227.55
874.02	227.53
874.33	227.51
874.64	227.46
874.95	227.48
875.26	227.43
875.56	227.40
875.87	227.40
876.18	227.40
876.49	227.53
876.80	227.51
877.11	227.50
877.42	227.52
877.73	227.52
878.04	227.46
878.35	227.42
878.66	227.41
878.96	227.36
879.27	227.34
879.58	227.30
879.89	227.31
880.20	227.34
880.51	227.34
880.82	227.32
881.12	227.33
881.43	227.28
881.74	227.28
882.05	227.26
882.36	227.22
882.67	227.19
882.97	227.02
883.28	227.01
883.59	226.99
883.90	226.97
884.21	226.98
884.51	226.99
884.82	226.94
885.13	226.96
885.44	227.02
885.74	226.98
886.05	226.98
886.36	226.96
886.67	226.89
886.98	226.92
887.28	226.95
887.59	226.95
887.90	226.97
888.20	226.97
888.51	226.99
888.82	226.97
889.13	226.97
889.43	227.10
889.74	227.12
890.05	227.10
890.35	227.12
890.66	227.08
890.97	227.08
891.28	227.12
891.58	227.14
891.89	227.12
892.20	227.14
892.50	227.16
892.81	227.15
893.12	227.18
893.42	227.15
893.73	227.14
894.04	227.14
894.34	227.14
894.65	227.13
894.95	227.14
895.26	227.16
895.57	227.24
895.87	227.15
896.18	227.16
896.48	227.19
896.79	227.19
897.10	227.23
897.40	227.20
897.71	227.20
898.01	227.15
898.32	227.15
898.63	227.14
898.93	227.11
899.24	227.14
899.54	227.14
899.85	227.12
900.15	227.13
900.46	227.16
900.76	227.17
901.07	227.17
901.38	227.17
901.68	227.18
901.99	227.10
902.29	227.09
902.60	227.09
902.90	227.10
903.21	227.09
903.51	227.09
903.82	227.12
904.12	227.12
904.43	227.14
904.73	227.13
905.03	227.15
905.34	227.26
905.64	227.22
905.95	227.23
906.25	227.28
906.56	227.27
906.86	227.26
907.17	227.29
907.47	227.31
907.77	227.30
908.08	227.27
908.38	227.29
908.69	227.29
908.99	227.29
909.30	227.27
909.60	227.27
909.90	227.28
910.21	227.26
910.51	227.26
910.81	227.26
911.12	227.29
911.42	227.32
911.73	227.21
912.03	227.23
912.33	227.24
912.64	227.23
912.94	227.21
913.24	227.20
913.55	227.15
913.85	227.13
914.15	227.16
914.46	227.17
914.76	227.17
915.06	227.18
915.37	227.17
915.67	227.16
915.97	227.20
916.27	227.17
916.58	227.15
916.88	227.14
917.18	227.13
917.49	227.20
917.79	227.15
918.09	227.18
918.39	227.20
918.70	227.21
919.00	227.16
919.30	227.21
919.60	227.18
919.91	227.17
920.21	227.14
920.51	227.12
920.81	227.09
921.12	227.08
921.42	227.08
921.72	227.07
922.02	227.09
922.32	227.07
922.63	227.05
922.93	227.10
923.23	227.12
923.53	227.09
923.83	227.00
924.13	227.01
924.44	227.00
924.74	227.00
925.04	226.99
925.34	227.02
925.64	226.98
925.94	226.99
926.24	227.07
926.55	227.08
926.85	227.07
927.15	227.08
927.45	227.06
927.75	227.03
928.05	227.05
928.35	227.05
928.65	227.04
928.95	227.05
929.26	227.00
929.56	226.98
929.86	227.02
930.16	227.03
930.46	227.05
930.76	227.04
931.06	226.99
931.36	226.97
931.66	226.99
931.96	227.03
932.26	227.06
932.56	226.98
932.86	226.97
933.16	226.97
933.46	226.98
933.76	226.99
934.06	227.01
934.36	227.03
934.66	227.05
934.96	227.03
935.26	227.05
935.56	227.10
935.86	227.09
936.16	227.05
936.46	227.03
936.76	227.01
937.06	227.00
937.36	227.04
937.66	227.06
937.96	227.03
938.26	226.99
938.56	226.98
938.86	227.00
939.16	227.03
939.46	227.04
939.76	227.04
940.06	227.05
940.35	227.04
940.65	227.00
940.95	226.97
941.25	226.96
941.55	226.91
941.85	226.88
942.15	226.91
942.45	226.91
942.75	226.93
943.04	226.91
943.34	226.91
943.64	226.90
943.94	226.89
944.24	226.90
944.54	226.88
944.84	226.88
945.13	226.83
945.43	226.82
945.73	226.83
946.03	226.81
946.33	226.80
946.62	226.76
946.92	226.74
947.22	226.78
947.52	226.78
947.82	226.79
948.11	226.77
948.41	226.75
948.71	226.77
949.01	226.76
949.31	226.76
949.60	226.75
949.90	226.77
950.20	226.76
950.50	226.71
950.79	226.69
951.09	226.67
951.39	226.71
951.69	226.69
951.98	226.70
952.28	226.71
952.58	226.72
952.87	226.71
953.17	226.71
953.47	226.67
953.76	226.67
954.06	226.65
954.36	226.63
954.66	226.60
954.95	226.60
955.25	226.59
955.55	226.57
955.84	226.56
956.14	226.55
956.44	226.51
956.73	226.53
957.03	226.56
957.32	226.57
957.62	226.53
957.92	226.55
958.21	226.52
958.51	226.63
958.81	226.62
959.10	226.66
959.40	226.72
959.69	226.73
959.99	226.73
960.29	226.73
960.58	226.73
960.88	226.79
961.17	226.80
961.47	226.81
961.76	226.85
962.06	226.87
962.36	226.82
962.65	226.85
962.95	226.85
963.24	226.84
963.54	226.86
963.83	226.89
964.13	226.86
964.42	226.87
964.72	226.81
965.01	226.82
965.31	226.78
965.60	226.77
965.90	226.84
966.19	226.87
966.49	226.89
966.78	226.92
967.08	226.91
967.37	226.94
967.67	226.91
967.96	226.94
968.26	226.98
968.55	227.05
968.85	227.07
969.14	227.12
969.43	227.13
969.73	227.11
970.02	227.11
970.32	227.16
970.61	227.17
970.91	227.15
971.20	227.14
971.49	227.20
971.79	227.23
972.08	227.15
972.38	227.14
972.67	227.17
972.96	227.21
973.26	227.21
973.55	227.23
973.85	227.26
974.14	227.23
974.43	227.23
974.73	227.21
975.02	227.20
975.31	227.20
975.61	227.20
975.90	227.22
976.19	227.23
976.49	227.22
976.78	227.21
977.07	227.20
977.37	227.21
977.66	227.18
977.95	227.16
978.24	227.16
978.54	227.19
978.83	227.20
979.12	227.15
979.42	227.16
979.71	227.11
980.00	227.11
980.29	227.12
980.59	227.11
980.88	227.15
981.17	227.16
981.46	227.12
981.76	227.09
982.05	227.10
982.34	227.09
982.63	227.07
982.93	227.09
983.22	227.10
983.51	227.09
983.80	227.09
984.09	227.10
984.39	227.09
984.68	227.05
984.97	227.01
985.26	227.04
985.55	227.03
985.85	227.03
986.14	227.02
986.43	227.01
986.72	226.96
987.01	226.89
987.30	226.86
987.59	226.87
987.89	226.87
988.18	226.84
988.47	226.82
988.76	226.80
989.05	226.77
989.34	226.75
989.63	226.75
989.92	226.72
990.22	226.68
990.51	226.64
990.80	226.64
991.09	226.66
991.38	226.63
991.67	226.59
991.96	226.57
992.25	226.59
992.54	226.56
992.83	226.56
993.12	226.58
993.41	226.57
993.70	226.61
993.99	226.63
994.28	226.64
994.58	226.63
994.87	226.64
995.16	226.64
995.45	226.61
995.74	226.60
996.03	226.64
996.32	226.64
996.61	226.67
996.90	226.67
997.19	226.68
997.48	226.67
997.77	226.67
998.06	226.65
998.34	226.59
998.63	226.57
998.92	226.59
999.21	226.60
999.50	226.63
999.79	226.59
1000.08	226.60
1000.37	226.61
1000.66	226.62
1000.95	226.61
1001.24	226.61
1001.53	226.65
1001.82	226.65
1002.11	226.62
1002.40	226.65
1002.68	226.71
1002.97	226.76
1003.26	226.72
1003.55	226.71
1003.84	226.73
1004.13	226.76
1004.42	226.79
1004.71	226.83
1004.99	226.86
1005.28	226.88
1005.57	226.85
1005.86	226.82
1006.15	226.80
1006.44	226.77
1006.72	226.79
1007.01	226.78
1007.30	226.80
1007.59	226.80
1007.88	226.81
1008.17	226.84
1008.45	226.78
1008.74	226.73
1009.03	226.67
1009.32	226.66
1009.60	226.70
1009.89	226.71
1010.18	226.70
1010.47	226.69
1010.76	226.66
1011.04	226.62
1011.33	226.61
1011.62	226.64
1011.91	226.67
1012.19	226.69
1012.48	226.70
1012.77	226.67
1013.05	226.75
1013.34	226.77
1013.63	226.74
1013.92	226.77
1014.20	226.74
1014.49	226.79
1014.78	226.80
1015.06	226.81
1015.35	226.84
1015.64	226.82
1015.92	226.83
1016.21	226.85
1016.50	226.85
1016.78	226.90
1017.07	226.91
1017.36	226.88
1017.64	226.86
1017.93	226.86
1018.22	226.85
1018.50	226.85
1018.79	226.88
1019.08	226.81
1019.36	226.77
1019.65	226.79
1019.93	226.81
1020.22	226.81
1020.51	226.81
1020.79	226.78
1021.08	226.78
1021.36	226.80
1021.65	226.88
1021.94	226.63
1022.22	226.45
1022.51	226.96
1022.79	227.77
1023.08	226.47
1023.36	227.06
1023.65	226.45
>>>>>End Processed Spectral Data<<<<<
