SpectraSuite Data File
++++++++++++++++++++++++++++++++++++
Date: Fri Feb 01 16:06:05 EST 2013
User: group
Dark Spectrum Present: No
Reference Spectrum Present: No
Number of Sampled Component Spectra: 1
Spectrometers: USB2E7196
Integration Time (usec): 35000 (USB2E7196)
Spectra Averaged: 100 (USB2E7196)
Boxcar Smoothing: 10 (USB2E7196)
Correct for Electrical Dark: No (USB2E7196)
Strobe/Lamp Enabled: No (USB2E7196)
Correct for Detector Non-linearity: No (USB2E7196)
Correct for Stray Light: No (USB2E7196)
Number of Pixels in Processed Spectrum: 2048
>>>>>Begin Processed Spectral Data<<<<<
339.09	0.00
339.48	214.83
339.86	216.19
340.24	217.92
340.63	218.80
341.01	221.19
341.39	221.37
341.78	222.84
342.16	224.04
342.54	224.35
342.93	212.98
343.31	223.75
343.69	224.26
344.07	224.73
344.46	225.14
344.84	225.54
345.22	225.80
345.60	226.05
345.99	226.24
346.37	226.39
346.75	226.49
347.13	226.54
347.52	226.59
347.90	226.68
348.28	226.70
348.66	226.73
349.05	226.72
349.43	226.72
349.81	226.75
350.19	226.81
350.57	226.86
350.96	226.93
351.34	227.01
351.72	227.10
352.10	227.19
352.48	227.25
352.87	227.29
353.25	227.34
353.63	227.42
354.01	227.47
354.39	227.56
354.77	227.62
355.15	227.76
355.54	227.80
355.92	227.81
356.30	227.87
356.68	228.02
357.06	228.10
357.44	228.17
357.82	228.23
358.20	228.31
358.58	228.38
358.97	228.42
359.35	228.52
359.73	228.59
360.11	228.62
360.49	228.69
360.87	228.72
361.25	228.79
361.63	228.85
362.01	228.90
362.39	228.89
362.77	228.99
363.15	228.98
363.53	229.02
363.91	229.09
364.29	229.13
364.67	229.11
365.05	229.14
365.43	229.17
365.81	229.21
366.19	229.22
366.57	229.25
366.95	229.27
367.33	229.24
367.71	229.22
368.09	229.25
368.47	229.24
368.85	229.22
369.23	229.19
369.61	229.14
369.99	229.15
370.37	229.14
370.75	229.14
371.13	229.10
371.51	229.08
371.89	229.05
372.27	229.00
372.65	228.96
373.03	228.92
373.41	228.86
373.78	228.80
374.16	228.72
374.54	228.64
374.92	228.58
375.30	228.52
375.68	228.47
376.06	228.42
376.44	228.34
376.82	228.31
377.19	228.27
377.57	228.19
377.95	228.12
378.33	228.07
378.71	227.93
379.09	227.90
379.47	227.83
379.84	227.72
380.22	227.64
380.60	227.54
380.98	227.43
381.36	227.35
381.73	227.27
382.11	227.25
382.49	227.19
382.87	227.10
383.25	227.03
383.62	227.09
384.00	226.97
384.38	226.91
384.76	226.87
385.13	226.82
385.51	226.76
385.89	226.67
386.27	226.62
386.64	226.58
387.02	226.50
387.40	226.42
387.78	226.38
388.15	226.32
388.53	226.31
388.91	226.28
389.29	226.25
389.66	226.25
390.04	226.21
390.42	226.18
390.79	226.17
391.17	226.16
391.55	226.02
391.92	226.05
392.30	226.00
392.68	225.97
393.05	225.95
393.43	225.94
393.81	225.96
394.18	225.93
394.56	225.94
394.94	225.97
395.31	225.99
395.69	226.05
396.06	226.08
396.44	226.09
396.82	226.10
397.19	226.18
397.57	226.17
397.95	226.19
398.32	226.24
398.70	226.27
399.07	226.32
399.45	226.37
399.82	226.41
400.20	226.52
400.58	226.59
400.95	226.59
401.33	226.69
401.70	226.81
402.08	226.90
402.45	226.99
402.83	227.12
403.20	227.24
403.58	227.31
403.95	227.45
404.33	227.55
404.71	227.68
405.08	227.84
405.46	227.99
405.83	228.12
406.21	228.23
406.58	228.42
406.96	228.59
407.33	228.80
407.70	229.01
408.08	229.25
408.45	229.47
408.83	229.76
409.20	229.98
409.58	230.15
409.95	230.41
410.33	230.66
410.70	230.91
411.08	231.23
411.45	231.53
411.82	231.85
412.20	232.21
412.57	232.60
412.95	232.93
413.32	233.33
413.69	233.71
414.07	234.17
414.44	234.61
414.82	235.06
415.19	235.60
415.56	236.14
415.94	236.69
416.31	237.33
416.68	237.94
417.06	238.64
417.43	239.40
417.81	240.17
418.18	240.97
418.55	241.79
418.93	242.66
419.30	243.56
419.67	244.49
420.04	245.47
420.42	246.48
420.79	247.63
421.16	248.84
421.54	250.05
421.91	251.27
422.28	252.54
422.66	253.91
423.03	255.22
423.40	256.57
423.77	257.99
424.15	259.40
424.52	260.93
424.89	262.55
425.26	264.10
425.64	265.57
426.01	267.16
426.38	268.85
426.75	270.50
427.13	272.21
427.50	274.04
427.87	275.90
428.24	277.75
428.61	279.54
428.99	281.47
429.36	283.57
429.73	285.65
430.10	287.66
430.47	289.68
430.85	291.79
431.22	294.02
431.59	296.41
431.96	298.69
432.33	301.13
432.70	303.52
433.08	306.33
433.45	308.95
433.82	311.53
434.19	314.40
434.56	317.22
434.93	319.86
435.30	322.48
435.68	325.37
436.05	328.24
436.42	331.00
436.79	333.54
437.16	336.26
437.53	339.14
437.90	341.97
438.27	344.75
438.64	347.61
439.01	350.16
439.38	352.41
439.75	354.57
440.13	357.07
440.50	359.42
440.87	361.22
441.24	363.19
441.61	365.35
441.98	366.77
442.35	368.52
442.72	370.36
443.09	372.12
443.46	373.11
443.83	373.70
444.20	374.18
444.57	374.98
444.94	375.25
445.31	375.52
445.68	375.86
446.05	375.90
446.42	375.53
446.79	375.10
447.16	374.61
447.53	374.26
447.90	373.04
448.27	371.83
448.64	370.25
449.01	369.08
449.37	367.09
449.74	365.20
450.11	362.98
450.48	360.51
450.85	357.99
451.22	355.84
451.59	353.79
451.96	351.83
452.33	349.21
452.70	346.81
453.07	343.96
453.43	341.03
453.80	338.26
454.17	335.51
454.54	332.98
454.91	330.26
455.28	327.61
455.65	325.14
456.02	322.70
456.38	320.56
456.75	317.89
457.12	315.68
457.49	313.51
457.86	311.35
458.23	309.51
458.59	307.46
458.96	305.38
459.33	303.53
459.70	301.69
460.07	300.17
460.43	298.46
460.80	296.85
461.17	295.47
461.54	294.00
461.91	292.60
462.27	291.16
462.64	289.92
463.01	288.55
463.38	287.31
463.74	285.95
464.11	284.81
464.48	283.79
464.85	282.67
465.21	281.82
465.58	280.87
465.95	279.77
466.32	278.88
466.68	278.00
467.05	277.11
467.42	276.26
467.78	275.40
468.15	274.53
468.52	273.90
468.88	273.01
469.25	272.24
469.62	271.66
469.98	271.01
470.35	270.43
470.72	269.82
471.08	269.18
471.45	268.62
471.82	268.10
472.18	267.49
472.55	267.05
472.92	266.52
473.28	266.11
473.65	265.70
474.02	265.26
474.38	264.91
474.75	264.61
475.11	264.24
475.48	263.99
475.85	263.80
476.21	263.55
476.58	263.38
476.94	263.24
477.31	263.05
477.67	262.87
478.04	262.76
478.41	262.72
478.77	262.74
479.14	262.69
479.50	262.73
479.87	262.84
480.23	262.94
480.60	263.07
480.96	263.15
481.33	263.37
481.69	263.59
482.06	263.79
482.42	263.99
482.79	264.24
483.15	264.51
483.52	264.89
483.88	265.21
484.25	265.59
484.61	266.04
484.98	266.51
485.34	267.08
485.71	267.63
486.07	268.26
486.44	268.85
486.80	269.55
487.17	270.24
487.53	271.05
487.90	271.93
488.26	272.84
488.62	273.86
488.99	274.84
489.35	275.88
489.72	277.02
490.08	278.21
490.44	279.48
490.81	280.80
491.17	282.15
491.54	283.65
491.90	285.25
492.26	286.87
492.63	288.60
492.99	290.36
493.36	292.26
493.72	294.29
494.08	296.40
494.45	298.64
494.81	300.98
495.17	303.43
495.54	305.94
495.90	308.62
496.26	311.39
496.63	314.34
496.99	317.50
497.35	320.75
497.72	324.15
498.08	327.66
498.44	331.36
498.80	335.32
499.17	339.40
499.53	343.52
499.89	347.86
500.26	352.37
500.62	357.11
500.98	362.08
501.34	367.16
501.71	372.47
502.07	377.95
502.43	383.59
502.79	389.43
503.16	395.59
503.52	401.85
503.88	408.26
504.24	414.93
504.60	421.79
504.97	428.91
505.33	436.23
505.69	443.98
506.05	451.81
506.41	459.70
506.78	467.80
507.14	476.29
507.50	485.06
507.86	494.12
508.22	503.29
508.59	512.53
508.95	522.11
509.31	531.95
509.67	542.04
510.03	552.31
510.39	562.85
510.75	573.68
511.12	584.67
511.48	595.96
511.84	607.38
512.20	618.85
512.56	630.79
512.92	642.96
513.28	655.28
513.64	667.79
514.00	680.51
514.37	693.48
514.73	706.50
515.09	719.48
515.45	732.69
515.81	746.36
516.17	760.32
516.53	774.44
516.89	788.58
517.25	802.80
517.61	817.16
517.97	831.50
518.33	845.78
518.69	860.59
519.05	875.52
519.41	890.75
519.77	906.39
520.13	921.87
520.49	937.21
520.85	952.68
521.21	968.41
521.57	984.61
521.93	1000.35
522.29	1016.77
522.65	1032.97
523.01	1049.24
523.37	1065.16
523.73	1081.39
524.09	1097.39
524.45	1113.68
524.81	1130.19
525.17	1147.01
525.53	1163.98
525.89	1180.93
526.25	1197.63
526.61	1214.05
526.97	1230.71
527.33	1247.21
527.68	1263.77
528.04	1280.36
528.40	1296.88
528.76	1313.76
529.12	1330.33
529.48	1347.14
529.84	1363.11
530.20	1379.74
530.56	1396.69
530.91	1414.03
531.27	1430.72
531.63	1447.19
531.99	1463.76
532.35	1479.84
532.71	1495.74
533.07	1511.99
533.42	1527.91
533.78	1543.94
534.14	1560.17
534.50	1575.45
534.86	1591.07
535.21	1606.30
535.57	1622.07
535.93	1637.51
536.29	1652.32
536.65	1667.24
537.00	1682.01
537.36	1697.33
537.72	1711.80
538.08	1726.17
538.44	1739.90
538.79	1753.81
539.15	1767.38
539.51	1781.09
539.87	1795.32
540.22	1808.94
540.58	1822.56
540.94	1835.72
541.29	1848.59
541.65	1861.23
542.01	1874.39
542.37	1886.79
542.72	1899.12
543.08	1910.92
543.44	1923.29
543.79	1934.57
544.15	1945.66
544.51	1957.17
544.87	1967.99
545.22	1978.76
545.58	1989.06
545.94	1998.71
546.29	2008.44
546.65	2018.31
547.01	2027.47
547.36	2036.05
547.72	2044.60
548.07	2052.48
548.43	2060.67
548.79	2068.65
549.14	2076.28
549.50	2083.53
549.86	2091.15
550.21	2098.50
550.57	2105.70
550.92	2112.13
551.28	2119.10
551.64	2126.08
551.99	2132.67
552.35	2138.95
552.70	2145.24
553.06	2150.97
553.41	2157.44
553.77	2163.53
554.13	2169.58
554.48	2175.77
554.84	2181.34
555.19	2186.64
555.55	2191.64
555.90	2196.01
556.26	2200.87
556.61	2205.44
556.97	2209.75
557.32	2213.89
557.68	2217.82
558.03	2222.07
558.39	2225.87
558.74	2230.63
559.10	2234.55
559.45	2238.12
559.81	2242.22
560.16	2245.90
560.52	2249.30
560.87	2252.69
561.23	2255.35
561.58	2258.28
561.94	2260.70
562.29	2263.05
562.64	2265.70
563.00	2268.51
563.35	2272.10
563.71	2275.25
564.06	2278.46
564.42	2281.38
564.77	2283.95
565.12	2286.31
565.48	2288.26
565.83	2290.13
566.19	2291.26
566.54	2292.18
566.89	2293.37
567.25	2294.16
567.60	2295.49
567.96	2297.23
568.31	2298.14
568.66	2299.28
569.02	2299.94
569.37	2300.27
569.72	2301.21
570.08	2301.34
570.43	2301.43
570.78	2300.82
571.14	2299.27
571.49	2298.04
571.84	2297.65
572.20	2296.54
572.55	2295.52
572.90	2293.95
573.26	2292.55
573.61	2290.92
573.96	2289.19
574.31	2286.16
574.67	2283.06
575.02	2279.46
575.37	2276.00
575.72	2272.19
576.08	2268.79
576.43	2265.44
576.78	2261.94
577.13	2258.65
577.49	2255.66
577.84	2252.15
578.19	2248.39
578.54	2244.80
578.90	2240.55
579.25	2235.17
579.60	2230.15
579.95	2225.24
580.30	2220.27
580.66	2215.17
581.01	2210.22
581.36	2205.35
581.71	2201.24
582.06	2196.82
582.42	2192.38
582.77	2187.26
583.12	2182.71
583.47	2178.03
583.82	2173.17
584.17	2167.86
584.53	2162.56
584.88	2156.83
585.23	2151.01
585.58	2145.70
585.93	2140.25
586.28	2135.52
586.63	2130.46
586.98	2125.44
587.34	2120.73
587.69	2115.86
588.04	2110.47
588.39	2104.87
588.74	2098.31
589.09	2092.20
589.44	2085.46
589.79	2079.46
590.14	2073.91
590.49	2067.28
590.84	2060.89
591.19	2054.84
591.54	2048.34
591.89	2040.85
592.25	2034.13
592.60	2027.01
592.95	2019.36
593.30	2011.99
593.65	2004.38
594.00	1997.35
594.35	1990.22
594.70	1982.11
595.05	1974.98
595.40	1967.82
595.75	1960.25
596.10	1954.15
596.45	1947.44
596.80	1941.32
597.15	1934.75
597.50	1927.55
597.85	1921.26
598.19	1914.58
598.54	1907.46
598.89	1900.95
599.24	1895.18
599.59	1888.44
599.94	1882.23
600.29	1875.84
600.64	1869.18
600.99	1861.79
601.34	1855.07
601.69	1848.11
602.04	1841.33
602.39	1833.83
602.74	1827.09
603.08	1820.43
603.43	1813.75
603.78	1806.48
604.13	1799.23
604.48	1791.91
604.83	1785.09
605.18	1778.11
605.53	1770.15
605.87	1762.09
606.22	1754.79
606.57	1746.74
606.92	1739.48
607.27	1732.20
607.62	1725.39
607.96	1718.28
608.31	1711.77
608.66	1704.01
609.01	1696.46
609.36	1688.91
609.70	1680.97
610.05	1672.84
610.40	1665.16
610.75	1656.71
611.10	1649.02
611.44	1640.64
611.79	1632.65
612.14	1623.94
612.49	1614.82
612.83	1606.48
613.18	1598.41
613.53	1590.31
613.88	1581.83
614.22	1573.52
614.57	1565.06
614.92	1557.08
615.27	1549.52
615.61	1541.03
615.96	1532.94
616.31	1525.08
616.65	1517.70
617.00	1510.05
617.35	1502.46
617.70	1494.11
618.04	1485.54
618.39	1477.33
618.74	1469.69
619.08	1461.50
619.43	1453.94
619.78	1446.96
620.12	1439.81
620.47	1432.30
620.82	1424.19
621.16	1416.71
621.51	1409.07
621.85	1401.37
622.20	1392.83
622.55	1384.50
622.89	1376.69
623.24	1369.18
623.59	1361.94
623.93	1354.35
624.28	1347.17
624.62	1339.64
624.97	1332.50
625.32	1325.87
625.66	1318.82
626.01	1311.69
626.35	1304.17
626.70	1296.40
627.04	1288.67
627.39	1280.84
627.73	1273.35
628.08	1266.48
628.43	1259.22
628.77	1251.81
629.12	1244.23
629.46	1237.06
629.81	1229.54
630.15	1222.31
630.50	1214.81
630.84	1206.55
631.19	1198.59
631.53	1191.12
631.88	1183.50
632.22	1175.79
632.57	1168.40
632.91	1160.81
633.26	1153.37
633.60	1145.93
633.95	1138.83
634.29	1131.74
634.64	1125.09
634.98	1117.72
635.32	1110.45
635.67	1103.90
636.01	1097.30
636.36	1090.52
636.70	1083.91
637.05	1077.41
637.39	1070.95
637.73	1064.46
638.08	1058.61
638.42	1052.58
638.77	1046.06
639.11	1039.42
639.45	1033.05
639.80	1026.34
640.14	1019.91
640.49	1013.32
640.83	1007.00
641.17	1000.74
641.52	994.37
641.86	987.84
642.20	982.05
642.55	975.71
642.89	969.13
643.23	962.61
643.58	956.88
643.92	950.67
644.26	944.57
644.61	938.50
644.95	932.47
645.29	925.90
645.64	919.23
645.98	912.88
646.32	907.09
646.66	901.02
647.01	895.23
647.35	889.44
647.69	883.63
648.04	878.09
648.38	872.28
648.72	866.28
649.06	860.21
649.41	854.32
649.75	848.32
650.09	842.43
650.43	836.56
650.78	830.40
651.12	824.46
651.46	818.72
651.80	813.03
652.14	807.69
652.49	802.32
652.83	797.21
653.17	791.52
653.51	785.78
653.85	780.41
654.20	774.74
654.54	768.82
654.88	763.08
655.22	757.21
655.56	751.60
655.90	746.22
656.25	741.05
656.59	735.67
656.93	730.67
657.27	725.49
657.61	720.15
657.95	715.05
658.29	709.95
658.64	704.69
658.98	699.35
659.32	693.87
659.66	688.65
660.00	683.23
660.34	678.37
660.68	673.45
661.02	668.42
661.36	663.76
661.70	659.27
662.05	654.91
662.39	650.68
662.73	646.15
663.07	641.73
663.41	637.30
663.75	632.83
664.09	628.25
664.43	623.85
664.77	619.70
665.11	615.39
665.45	611.25
665.79	607.16
666.13	603.00
666.47	598.89
666.81	594.72
667.15	590.64
667.49	586.71
667.83	582.90
668.17	578.97
668.51	574.93
668.85	570.88
669.19	567.00
669.53	563.07
669.87	559.19
670.21	555.46
670.55	551.81
670.89	548.35
671.23	544.89
671.57	541.37
671.91	537.88
672.25	534.34
672.58	530.84
672.92	527.48
673.26	524.31
673.60	521.12
673.94	517.99
674.28	515.03
674.62	512.03
674.96	508.85
675.30	505.95
675.64	502.98
675.97	500.21
676.31	497.38
676.65	494.45
676.99	491.74
677.33	488.87
677.67	486.01
678.01	482.95
678.34	479.96
678.68	476.98
679.02	474.12
679.36	471.39
679.70	468.68
680.04	465.87
680.37	463.02
680.71	460.22
681.05	457.60
681.39	454.88
681.73	452.24
682.06	449.72
682.40	447.17
682.74	444.69
683.08	442.14
683.42	439.54
683.75	437.06
684.09	434.49
684.43	432.07
684.77	429.61
685.10	427.25
685.44	424.95
685.78	422.74
686.12	420.51
686.45	418.17
686.79	415.81
687.13	413.66
687.46	411.50
687.80	409.37
688.14	407.15
688.48	405.14
688.81	402.86
689.15	400.69
689.49	398.48
689.82	396.38
690.16	394.27
690.50	392.29
690.83	390.30
691.17	388.33
691.51	386.38
691.84	384.53
692.18	382.63
692.52	380.65
692.85	378.69
693.19	376.74
693.52	374.95
693.86	373.14
694.20	371.34
694.53	369.52
694.87	367.60
695.21	365.83
695.54	363.98
695.88	362.29
696.21	360.63
696.55	358.98
696.88	357.27
697.22	355.64
697.56	354.05
697.89	352.40
698.23	350.82
698.56	349.22
698.90	347.64
699.23	346.02
699.57	344.48
699.90	342.98
700.24	341.48
700.58	339.93
700.91	338.48
701.25	337.04
701.58	335.69
701.92	334.37
702.25	333.00
702.59	331.63
702.92	330.30
703.26	328.99
703.59	327.72
703.93	326.55
704.26	325.31
704.60	323.97
704.93	322.74
705.26	321.51
705.60	320.33
705.93	319.18
706.27	318.10
706.60	317.03
706.94	315.95
707.27	314.80
707.61	313.78
707.94	312.76
708.27	311.64
708.61	310.57
708.94	309.55
709.28	308.57
709.61	307.60
709.94	306.64
710.28	305.62
710.61	304.66
710.95	303.60
711.28	302.69
711.61	301.73
711.95	300.79
712.28	299.82
712.61	298.84
712.95	297.92
713.28	297.07
713.61	296.17
713.95	295.27
714.28	294.46
714.61	293.55
714.95	292.69
715.28	291.85
715.61	290.92
715.95	290.06
716.28	289.19
716.61	288.35
716.95	287.54
717.28	286.82
717.61	286.04
717.94	285.31
718.28	284.47
718.61	283.77
718.94	283.08
719.27	282.45
719.61	281.84
719.94	281.15
720.27	280.42
720.60	279.76
720.94	279.10
721.27	278.49
721.60	277.95
721.93	277.37
722.27	276.84
722.60	276.30
722.93	275.70
723.26	275.13
723.59	274.52
723.93	273.97
724.26	273.42
724.59	272.86
724.92	272.30
725.25	271.79
725.59	271.26
725.92	270.74
726.25	270.20
726.58	269.68
726.91	269.15
727.24	268.68
727.57	268.20
727.91	267.73
728.24	267.27
728.57	266.77
728.90	266.34
729.23	265.85
729.56	265.42
729.89	264.99
730.22	264.54
730.55	264.11
730.89	263.68
731.22	263.19
731.55	262.75
731.88	262.37
732.21	261.93
732.54	261.53
732.87	261.12
733.20	260.71
733.53	260.29
733.86	259.93
734.19	259.58
734.52	259.22
734.85	258.88
735.18	258.51
735.51	258.14
735.84	257.73
736.17	257.37
736.50	256.98
736.83	256.74
737.16	256.42
737.49	256.10
737.82	255.71
738.15	255.40
738.48	255.05
738.81	254.67
739.14	254.38
739.47	254.03
739.80	253.74
740.13	253.47
740.46	253.16
740.79	252.82
741.12	252.47
741.45	252.17
741.78	251.86
742.11	251.55
742.44	251.22
742.77	250.92
743.10	250.63
743.43	250.37
743.75	249.99
744.08	249.84
744.41	249.56
744.74	249.36
745.07	249.08
745.40	248.84
745.73	248.62
746.06	248.36
746.39	248.10
746.71	247.78
747.04	247.50
747.37	247.24
747.70	247.01
748.03	246.77
748.36	246.57
748.68	246.34
749.01	246.08
749.34	245.85
749.67	245.64
750.00	245.39
750.33	245.23
750.65	245.01
750.98	244.67
751.31	244.49
751.64	244.26
751.97	244.10
752.29	243.87
752.62	243.62
752.95	243.41
753.28	243.18
753.60	243.04
753.93	242.87
754.26	242.68
754.59	242.48
754.91	242.30
755.24	242.09
755.57	241.90
755.90	241.74
756.22	241.56
756.55	241.34
756.88	241.20
757.20	240.97
757.53	240.77
757.86	240.62
758.19	240.45
758.51	240.28
758.84	240.06
759.17	239.89
759.49	239.75
759.82	239.64
760.15	239.50
760.47	239.36
760.80	239.19
761.13	239.08
761.45	238.89
761.78	238.73
762.11	238.58
762.43	238.43
762.76	238.25
763.08	238.14
763.41	238.04
763.74	237.88
764.06	237.76
764.39	237.62
764.71	237.43
765.04	237.28
765.37	237.11
765.69	236.99
766.02	236.91
766.34	236.74
766.67	236.57
767.00	236.48
767.32	236.36
767.65	236.27
767.97	236.15
768.30	236.05
768.62	235.91
768.95	235.81
769.27	235.66
769.60	235.59
769.92	235.46
770.25	235.34
770.57	235.23
770.90	235.11
771.22	235.01
771.55	234.93
771.87	234.82
772.20	234.72
772.52	234.71
772.85	234.65
773.17	234.58
773.50	234.48
773.82	234.38
774.15	234.24
774.47	234.12
774.80	234.01
775.12	233.92
775.45	233.86
775.77	233.75
776.09	233.70
776.42	233.60
776.74	233.53
777.07	233.41
777.39	233.31
777.72	233.21
778.04	233.14
778.36	233.06
778.69	233.00
779.01	232.94
779.33	232.76
779.66	232.58
779.98	232.52
780.31	232.46
780.63	232.43
780.95	232.37
781.28	232.28
781.60	232.21
781.92	232.14
782.25	232.07
782.57	232.00
782.89	231.90
783.22	231.82
783.54	231.73
783.86	231.71
784.19	231.66
784.51	231.64
784.83	231.57
785.16	231.51
785.48	231.45
785.80	231.40
786.12	231.38
786.45	231.35
786.77	231.31
787.09	231.28
787.42	231.19
787.74	231.16
788.06	231.12
788.38	231.04
788.71	230.99
789.03	230.96
789.35	230.94
789.67	230.93
789.99	230.87
790.32	230.85
790.64	230.81
790.96	230.84
791.28	230.78
791.61	230.77
791.93	230.76
792.25	230.75
792.57	230.80
792.89	230.72
793.21	230.71
793.54	230.65
793.86	230.57
794.18	230.54
794.50	230.49
794.82	230.45
795.14	230.44
795.47	230.42
795.79	230.39
796.11	230.35
796.43	230.30
796.75	230.30
797.07	230.29
797.39	230.26
797.71	230.19
798.04	230.18
798.36	230.17
798.68	230.14
799.00	230.11
799.32	230.02
799.64	230.02
799.96	229.99
800.28	230.00
800.60	229.97
800.92	229.94
801.24	229.93
801.56	229.92
801.89	229.90
802.21	229.89
802.53	229.83
802.85	229.86
803.17	229.89
803.49	229.84
803.81	229.81
804.13	229.75
804.45	229.70
804.77	229.67
805.09	229.65
805.41	229.58
805.73	229.55
806.05	229.52
806.37	229.48
806.69	229.46
807.01	229.40
807.33	229.39
807.65	229.34
807.97	229.35
808.28	229.35
808.60	229.35
808.92	229.31
809.24	229.33
809.56	229.27
809.88	229.22
810.20	229.18
810.52	229.14
810.84	229.16
811.16	229.10
811.48	229.07
811.80	229.08
812.12	229.06
812.43	229.03
812.75	229.01
813.07	228.98
813.39	228.95
813.71	228.92
814.03	228.91
814.35	228.87
814.67	228.80
814.98	228.70
815.30	228.66
815.62	228.64
815.94	228.57
816.26	228.55
816.58	228.49
816.89	228.43
817.21	228.42
817.53	228.39
817.85	228.36
818.17	228.32
818.48	228.24
818.80	228.23
819.12	228.18
819.44	228.13
819.76	228.11
820.07	228.07
820.39	228.03
820.71	227.99
821.03	227.96
821.34	227.90
821.66	227.94
821.98	227.93
822.30	227.87
822.61	227.90
822.93	227.85
823.25	227.85
823.57	227.84
823.88	227.83
824.20	227.80
824.52	227.80
824.83	227.80
825.15	227.78
825.47	227.77
825.79	227.76
826.10	227.74
826.42	227.70
826.74	227.69
827.05	227.69
827.37	227.67
827.69	227.66
828.00	227.69
828.32	227.63
828.64	227.61
828.95	227.67
829.27	227.64
829.58	227.64
829.90	227.66
830.22	227.68
830.53	227.67
830.85	227.65
831.17	227.65
831.48	227.64
831.80	227.65
832.11	227.65
832.43	227.64
832.75	227.66
833.06	227.73
833.38	227.72
833.69	227.72
834.01	227.74
834.32	227.76
834.64	227.75
834.96	227.75
835.27	227.75
835.59	227.74
835.90	227.71
836.22	227.70
836.53	227.69
836.85	227.67
837.16	227.73
837.48	227.73
837.79	227.77
838.11	227.75
838.42	227.75
838.74	227.76
839.05	227.78
839.37	227.75
839.68	227.72
840.00	227.71
840.31	227.72
840.63	227.75
840.94	227.74
841.26	227.71
841.57	227.74
841.88	227.73
842.20	227.72
842.51	227.71
842.83	227.74
843.14	227.81
843.46	227.85
843.77	227.80
844.08	227.79
844.40	227.76
844.71	227.75
845.03	227.73
845.34	227.72
845.65	227.72
845.97	227.71
846.28	227.68
846.60	227.68
846.91	227.69
847.22	227.65
847.54	227.65
847.85	227.66
848.16	227.65
848.48	227.65
848.79	227.64
849.10	227.64
849.42	227.59
849.73	227.52
850.04	227.50
850.36	227.46
850.67	227.51
850.98	227.48
851.30	227.51
851.61	227.47
851.92	227.44
852.23	227.42
852.55	227.41
852.86	227.41
853.17	227.39
853.49	227.39
853.80	227.41
854.11	227.42
854.42	227.41
854.74	227.37
855.05	227.36
855.36	227.33
855.67	227.32
855.99	227.34
856.30	227.43
856.61	227.40
856.92	227.43
857.23	227.39
857.55	227.41
857.86	227.38
858.17	227.40
858.48	227.38
858.79	227.39
859.11	227.45
859.42	227.47
859.73	227.45
860.04	227.45
860.35	227.39
860.66	227.35
860.98	227.34
861.29	227.35
861.60	227.33
861.91	227.36
862.22	227.36
862.53	227.34
862.84	227.22
863.16	227.24
863.47	227.18
863.78	227.19
864.09	227.13
864.40	227.14
864.71	227.13
865.02	227.13
865.33	227.09
865.64	227.04
865.95	227.03
866.27	227.12
866.58	227.07
866.89	227.08
867.20	227.11
867.51	227.12
867.82	227.11
868.13	227.15
868.44	227.11
868.75	227.11
869.06	227.12
869.37	227.14
869.68	227.12
869.99	227.13
870.30	227.10
870.61	227.18
870.92	227.16
871.23	227.14
871.54	227.15
871.85	227.17
872.16	227.19
872.47	227.16
872.78	227.07
873.09	227.12
873.40	227.11
873.71	227.09
874.02	227.09
874.33	227.07
874.64	227.03
874.95	227.04
875.26	227.02
875.56	227.02
875.87	227.02
876.18	227.00
876.49	227.10
876.80	227.08
877.11	227.02
877.42	227.00
877.73	227.03
878.04	227.05
878.35	227.05
878.66	227.03
878.96	227.02
879.27	227.01
879.58	227.01
879.89	226.99
880.20	227.04
880.51	227.03
880.82	227.03
881.12	227.03
881.43	227.03
881.74	227.02
882.05	227.03
882.36	227.03
882.67	227.02
882.97	226.92
883.28	226.94
883.59	226.96
883.90	227.01
884.21	227.02
884.51	227.01
884.82	226.98
885.13	227.01
885.44	227.01
885.74	227.05
886.05	227.05
886.36	227.07
886.67	227.03
886.98	227.09
887.28	227.09
887.59	227.10
887.90	227.08
888.20	227.08
888.51	227.08
888.82	227.04
889.13	227.04
889.43	227.13
889.74	227.10
890.05	227.07
890.35	227.03
890.66	227.01
890.97	226.98
891.28	227.00
891.58	226.96
891.89	226.96
892.20	226.91
892.50	226.88
892.81	226.87
893.12	226.84
893.42	226.77
893.73	226.79
894.04	226.79
894.34	226.81
894.65	226.82
894.95	226.80
895.26	226.82
895.57	226.89
895.87	226.79
896.18	226.84
896.48	226.87
896.79	226.87
897.10	226.86
897.40	226.84
897.71	226.85
898.01	226.83
898.32	226.83
898.63	226.82
898.93	226.83
899.24	226.82
899.54	226.83
899.85	226.82
900.15	226.81
900.46	226.78
900.76	226.77
901.07	226.75
901.38	226.74
901.68	226.73
901.99	226.64
902.29	226.65
902.60	226.61
902.90	226.58
903.21	226.58
903.51	226.58
903.82	226.58
904.12	226.56
904.43	226.56
904.73	226.53
905.03	226.56
905.34	226.64
905.64	226.62
905.95	226.62
906.25	226.63
906.56	226.60
906.86	226.60
907.17	226.60
907.47	226.64
907.77	226.65
908.08	226.63
908.38	226.64
908.69	226.65
908.99	226.67
909.30	226.67
909.60	226.66
909.90	226.69
910.21	226.67
910.51	226.65
910.81	226.69
911.12	226.71
911.42	226.71
911.73	226.60
912.03	226.63
912.33	226.67
912.64	226.67
912.94	226.67
913.24	226.67
913.55	226.63
913.85	226.61
914.15	226.62
914.46	226.68
914.76	226.68
915.06	226.67
915.37	226.65
915.67	226.66
915.97	226.66
916.27	226.64
916.58	226.68
916.88	226.71
917.18	226.70
917.49	226.77
917.79	226.77
918.09	226.79
918.39	226.85
918.70	226.85
919.00	226.83
919.30	226.90
919.60	226.92
919.91	226.93
920.21	226.95
920.51	226.93
920.81	226.92
921.12	226.95
921.42	226.97
921.72	227.00
922.02	227.00
922.32	227.02
922.63	227.03
922.93	227.04
923.23	227.04
923.53	227.00
923.83	226.95
924.13	227.00
924.44	226.99
924.74	227.00
925.04	227.00
925.34	226.98
925.64	226.94
925.94	226.94
926.24	227.00
926.55	226.96
926.85	226.96
927.15	226.92
927.45	226.90
927.75	226.88
928.05	226.85
928.35	226.86
928.65	226.90
928.95	226.88
929.26	226.85
929.56	226.87
929.86	226.94
930.16	226.90
930.46	226.87
930.76	226.86
931.06	226.79
931.36	226.75
931.66	226.81
931.96	226.82
932.26	226.81
932.56	226.78
932.86	226.81
933.16	226.81
933.46	226.78
933.76	226.76
934.06	226.76
934.36	226.80
934.66	226.78
934.96	226.74
935.26	226.74
935.56	226.75
935.86	226.72
936.16	226.67
936.46	226.65
936.76	226.63
937.06	226.59
937.36	226.61
937.66	226.58
937.96	226.52
938.26	226.49
938.56	226.48
938.86	226.49
939.16	226.48
939.46	226.52
939.76	226.57
940.06	226.55
940.35	226.54
940.65	226.47
940.95	226.52
941.25	226.47
941.55	226.49
941.85	226.50
942.15	226.51
942.45	226.54
942.75	226.54
943.04	226.53
943.34	226.59
943.64	226.53
943.94	226.56
944.24	226.57
944.54	226.59
944.84	226.60
945.13	226.56
945.43	226.54
945.73	226.47
946.03	226.42
946.33	226.44
946.62	226.42
946.92	226.41
947.22	226.38
947.52	226.35
947.82	226.33
948.11	226.30
948.41	226.29
948.71	226.25
949.01	226.29
949.31	226.26
949.60	226.26
949.90	226.29
950.20	226.26
950.50	226.23
950.79	226.25
951.09	226.29
951.39	226.28
951.69	226.28
951.98	226.32
952.28	226.34
952.58	226.33
952.87	226.36
953.17	226.37
953.47	226.36
953.76	226.41
954.06	226.41
954.36	226.41
954.66	226.39
954.95	226.40
955.25	226.39
955.55	226.43
955.84	226.40
956.14	226.44
956.44	226.49
956.73	226.50
957.03	226.47
957.32	226.44
957.62	226.44
957.92	226.49
958.21	226.48
958.51	226.58
958.81	226.59
959.10	226.61
959.40	226.64
959.69	226.64
959.99	226.66
960.29	226.69
960.58	226.68
960.88	226.74
961.17	226.76
961.47	226.80
961.76	226.80
962.06	226.84
962.36	226.80
962.65	226.79
962.95	226.81
963.24	226.82
963.54	226.81
963.83	226.83
964.13	226.79
964.42	226.76
964.72	226.70
965.01	226.73
965.31	226.69
965.60	226.70
965.90	226.77
966.19	226.74
966.49	226.72
966.78	226.75
967.08	226.74
967.37	226.74
967.67	226.72
967.96	226.76
968.26	226.75
968.55	226.78
968.85	226.79
969.14	226.77
969.43	226.77
969.73	226.79
970.02	226.81
970.32	226.79
970.61	226.82
970.91	226.78
971.20	226.77
971.49	226.77
971.79	226.77
972.08	226.73
972.38	226.73
972.67	226.72
972.96	226.74
973.26	226.74
973.55	226.77
973.85	226.78
974.14	226.74
974.43	226.73
974.73	226.69
975.02	226.66
975.31	226.65
975.61	226.66
975.90	226.67
976.19	226.64
976.49	226.67
976.78	226.67
977.07	226.65
977.37	226.65
977.66	226.66
977.95	226.62
978.24	226.63
978.54	226.62
978.83	226.63
979.12	226.61
979.42	226.57
979.71	226.51
980.00	226.51
980.29	226.50
980.59	226.47
980.88	226.52
981.17	226.52
981.46	226.54
981.76	226.51
982.05	226.52
982.34	226.52
982.63	226.48
982.93	226.49
983.22	226.53
983.51	226.52
983.80	226.53
984.09	226.53
984.39	226.51
984.68	226.52
984.97	226.51
985.26	226.47
985.55	226.49
985.85	226.46
986.14	226.45
986.43	226.49
986.72	226.47
987.01	226.42
987.30	226.40
987.59	226.39
987.89	226.43
988.18	226.42
988.47	226.41
988.76	226.41
989.05	226.38
989.34	226.36
989.63	226.40
989.92	226.40
990.22	226.38
990.51	226.40
990.80	226.39
991.09	226.42
991.38	226.44
991.67	226.44
991.96	226.47
992.25	226.47
992.54	226.43
992.83	226.42
993.12	226.42
993.41	226.48
993.70	226.51
993.99	226.50
994.28	226.50
994.58	226.53
994.87	226.53
995.16	226.55
995.45	226.57
995.74	226.54
996.03	226.57
996.32	226.60
996.61	226.64
996.90	226.65
997.19	226.64
997.48	226.62
997.77	226.61
998.06	226.63
998.34	226.62
998.63	226.65
998.92	226.70
999.21	226.73
999.50	226.71
999.79	226.69
1000.08	226.67
1000.37	226.66
1000.66	226.66
1000.95	226.70
1001.24	226.66
1001.53	226.68
1001.82	226.70
1002.11	226.67
1002.40	226.71
1002.68	226.70
1002.97	226.78
1003.26	226.77
1003.55	226.79
1003.84	226.80
1004.13	226.84
1004.42	226.84
1004.71	226.81
1004.99	226.78
1005.28	226.82
1005.57	226.80
1005.86	226.78
1006.15	226.79
1006.44	226.80
1006.72	226.78
1007.01	226.76
1007.30	226.79
1007.59	226.76
1007.88	226.75
1008.17	226.76
1008.45	226.72
1008.74	226.71
1009.03	226.63
1009.32	226.64
1009.60	226.62
1009.89	226.62
1010.18	226.57
1010.47	226.55
1010.76	226.56
1011.04	226.54
1011.33	226.55
1011.62	226.56
1011.91	226.58
1012.19	226.58
1012.48	226.55
1012.77	226.54
1013.05	226.54
1013.34	226.52
1013.63	226.51
1013.92	226.50
1014.20	226.47
1014.49	226.45
1014.78	226.42
1015.06	226.37
1015.35	226.33
1015.64	226.30
1015.92	226.33
1016.21	226.32
1016.50	226.32
1016.78	226.32
1017.07	226.34
1017.36	226.31
1017.64	226.29
1017.93	226.29
1018.22	226.27
1018.50	226.27
1018.79	226.27
1019.08	226.27
1019.36	226.28
1019.65	226.25
1019.93	226.26
1020.22	226.30
1020.51	226.35
1020.79	226.34
1021.08	226.00
1021.36	226.31
1021.65	226.17
1021.94	226.33
1022.22	226.50
1022.51	225.66
1022.79	226.53
1023.08	226.90
1023.36	227.37
1023.65	226.01
>>>>>End Processed Spectral Data<<<<<
