SpectraSuite Data File
++++++++++++++++++++++++++++++++++++
Date: Fri Feb 01 18:15:07 EST 2013
User: group
Dark Spectrum Present: No
Reference Spectrum Present: No
Number of Sampled Component Spectra: 1
Spectrometers: USB2E7196
Integration Time (usec): 35000 (USB2E7196)
Spectra Averaged: 100 (USB2E7196)
Boxcar Smoothing: 10 (USB2E7196)
Correct for Electrical Dark: No (USB2E7196)
Strobe/Lamp Enabled: No (USB2E7196)
Correct for Detector Non-linearity: No (USB2E7196)
Correct for Stray Light: No (USB2E7196)
Number of Pixels in Processed Spectrum: 2048
>>>>>Begin Processed Spectral Data<<<<<
339.09	0.00
339.48	212.57
339.86	215.21
340.24	215.84
340.63	216.91
341.01	220.37
341.39	220.01
341.78	221.21
342.16	222.57
342.54	222.19
342.93	211.45
343.31	222.16
343.69	222.72
344.07	223.18
344.46	223.58
344.84	223.98
345.22	224.19
345.60	224.45
345.99	224.64
346.37	224.76
346.75	224.91
347.13	225.01
347.52	225.05
347.90	225.11
348.28	225.18
348.66	225.22
349.05	225.25
349.43	225.31
349.81	225.34
350.19	225.45
350.57	225.48
350.96	225.58
351.34	225.66
351.72	225.75
352.10	225.85
352.48	225.95
352.87	226.02
353.25	226.12
353.63	226.19
354.01	226.29
354.39	226.38
354.77	226.45
355.15	226.52
355.54	226.59
355.92	226.58
356.30	226.64
356.68	226.79
357.06	226.85
357.44	226.90
357.82	226.97
358.20	227.03
358.58	227.15
358.97	227.18
359.35	227.24
359.73	227.35
360.11	227.38
360.49	227.40
360.87	227.44
361.25	227.49
361.63	227.57
362.01	227.61
362.39	227.65
362.77	227.67
363.15	227.69
363.53	227.73
363.91	227.80
364.29	227.80
364.67	227.72
365.05	227.74
365.43	227.75
365.81	227.77
366.19	227.79
366.57	227.79
366.95	227.80
367.33	227.78
367.71	227.72
368.09	227.72
368.47	227.73
368.85	227.73
369.23	227.72
369.61	227.64
369.99	227.62
370.37	227.59
370.75	227.66
371.13	227.64
371.51	227.61
371.89	227.56
372.27	227.54
372.65	227.51
373.03	227.42
373.41	227.41
373.78	227.35
374.16	227.26
374.54	227.22
374.92	227.16
375.30	227.11
375.68	227.05
376.06	226.98
376.44	226.96
376.82	226.88
377.19	226.81
377.57	226.75
377.95	226.69
378.33	226.60
378.71	226.43
379.09	226.39
379.47	226.34
379.84	226.30
380.22	226.24
380.60	226.15
380.98	226.11
381.36	226.01
381.73	225.93
382.11	225.90
382.49	225.83
382.87	225.76
383.25	225.70
383.62	225.75
384.00	225.73
384.38	225.67
384.76	225.65
385.13	225.67
385.51	225.61
385.89	225.54
386.27	225.50
386.64	225.49
387.02	225.41
387.40	225.38
387.78	225.34
388.15	225.30
388.53	225.27
388.91	225.24
389.29	225.24
389.66	225.25
390.04	225.18
390.42	225.17
390.79	225.16
391.17	225.13
391.55	225.02
391.92	224.97
392.30	224.94
392.68	224.93
393.05	224.92
393.43	224.95
393.81	224.97
394.18	224.98
394.56	225.01
394.94	225.01
395.31	225.01
395.69	225.05
396.06	225.08
396.44	225.12
396.82	225.13
397.19	225.21
397.57	225.21
397.95	225.29
398.32	225.29
398.70	225.34
399.07	225.44
399.45	225.51
399.82	225.60
400.20	225.67
400.58	225.74
400.95	225.72
401.33	225.81
401.70	225.98
402.08	226.09
402.45	226.14
402.83	226.29
403.20	226.42
403.58	226.52
403.95	226.67
404.33	226.83
404.71	226.97
405.08	227.16
405.46	227.30
405.83	227.47
406.21	227.68
406.58	227.89
406.96	228.06
407.33	228.26
407.70	228.50
408.08	228.83
408.45	229.08
408.83	229.44
409.20	229.70
409.58	229.92
409.95	230.25
410.33	230.64
410.70	230.95
411.08	231.33
411.45	231.74
411.82	232.13
412.20	232.57
412.57	233.13
412.95	233.54
413.32	234.09
413.69	234.65
414.07	235.24
414.44	235.87
414.82	236.51
415.19	237.26
415.56	238.00
415.94	238.73
416.31	239.62
416.68	240.42
417.06	241.42
417.43	242.35
417.81	243.39
418.18	244.46
418.55	245.64
418.93	246.86
419.30	248.15
419.67	249.46
420.04	250.83
420.42	252.21
420.79	253.89
421.16	255.52
421.54	257.15
421.91	258.87
422.28	260.66
422.66	262.52
423.03	264.30
423.40	266.18
423.77	268.14
424.15	270.16
424.52	272.30
424.89	274.57
425.26	276.76
425.64	278.83
426.01	281.05
426.38	283.40
426.75	285.75
427.13	288.15
427.50	290.74
427.87	293.38
428.24	296.03
428.61	298.48
428.99	301.22
429.36	304.21
429.73	307.11
430.10	309.95
430.47	312.89
430.85	315.95
431.22	319.15
431.59	322.54
431.96	325.69
432.33	329.17
432.70	332.52
433.08	336.48
433.45	340.23
433.82	343.92
434.19	347.96
434.56	351.89
434.93	355.65
435.30	359.31
435.68	363.44
436.05	367.43
436.42	371.34
436.79	374.89
437.16	378.72
437.53	382.70
437.90	386.62
438.27	390.45
438.64	394.46
439.01	398.06
439.38	401.23
439.75	404.28
440.13	407.80
440.50	411.10
440.87	413.68
441.24	416.37
441.61	419.47
441.98	421.61
442.35	424.20
442.72	426.88
443.09	429.41
443.46	430.76
443.83	431.57
444.20	432.32
444.57	433.50
444.94	433.91
445.31	434.38
445.68	434.86
446.05	435.02
446.42	434.47
446.79	433.89
447.16	433.29
447.53	432.87
447.90	431.26
448.27	429.63
448.64	427.44
449.01	425.86
449.37	423.06
449.74	420.38
450.11	417.16
450.48	413.62
450.85	410.09
451.22	407.09
451.59	404.22
451.96	401.46
452.33	397.82
452.70	394.50
453.07	390.53
453.43	386.48
453.80	382.56
454.17	378.77
454.54	375.21
454.91	371.34
455.28	367.56
455.65	364.05
456.02	360.54
456.38	357.47
456.75	353.73
457.12	350.54
457.49	347.33
457.86	344.29
458.23	341.64
458.59	338.72
458.96	335.75
459.33	333.14
459.70	330.49
460.07	328.33
460.43	325.88
460.80	323.56
461.17	321.52
461.54	319.37
461.91	317.30
462.27	315.21
462.64	313.42
463.01	311.44
463.38	309.58
463.74	307.69
464.11	305.99
464.48	304.49
464.85	302.93
465.21	301.72
465.58	300.38
465.95	298.82
466.32	297.53
466.68	296.22
467.05	294.96
467.42	293.68
467.78	292.39
468.15	291.13
468.52	290.17
468.88	288.91
469.25	287.83
469.62	286.95
469.98	286.01
470.35	285.08
470.72	284.24
471.08	283.31
471.45	282.50
471.82	281.74
472.18	280.90
472.55	280.23
472.92	279.44
473.28	278.78
473.65	278.11
474.02	277.46
474.38	276.91
474.75	276.37
475.11	275.87
475.48	275.45
475.85	275.08
476.21	274.72
476.58	274.43
476.94	274.14
477.31	273.86
477.67	273.58
478.04	273.38
478.41	273.20
478.77	273.15
479.14	272.99
479.50	272.93
479.87	272.94
480.23	272.96
480.60	272.98
480.96	273.00
481.33	273.16
481.69	273.34
482.06	273.49
482.42	273.64
482.79	273.84
483.15	274.08
483.52	274.46
483.88	274.78
484.25	275.15
484.61	275.56
484.98	275.98
485.34	276.56
485.71	277.14
486.07	277.77
486.44	278.34
486.80	279.06
487.17	279.83
487.53	280.64
487.90	281.50
488.26	282.48
488.62	283.53
488.99	284.54
489.35	285.61
489.72	286.81
490.08	288.06
490.44	289.37
490.81	290.79
491.17	292.16
491.54	293.71
491.90	295.33
492.26	297.10
492.63	298.98
492.99	300.88
493.36	302.90
493.72	305.08
494.08	307.34
494.45	309.75
494.81	312.24
495.17	314.88
495.54	317.66
495.90	320.54
496.26	323.50
496.63	326.71
496.99	330.09
497.35	333.62
497.72	337.28
498.08	341.04
498.44	344.98
498.80	349.26
499.17	353.61
499.53	358.09
499.89	362.76
500.26	367.58
500.62	372.57
500.98	377.95
501.34	383.42
501.71	389.13
502.07	394.98
502.43	401.03
502.79	407.27
503.16	413.80
503.52	420.52
503.88	427.40
504.24	434.50
504.60	441.85
504.97	449.50
505.33	457.38
505.69	465.69
506.05	474.15
506.41	482.61
506.78	491.38
507.14	500.47
507.50	509.90
507.86	519.68
508.22	529.61
508.59	539.53
508.95	549.91
509.31	560.53
509.67	571.49
510.03	582.67
510.39	594.12
510.75	605.74
511.12	617.59
511.48	629.84
511.84	642.35
512.20	654.93
512.56	667.94
512.92	681.19
513.28	694.72
513.64	708.27
514.00	722.20
514.37	736.37
514.73	750.66
515.09	764.92
515.45	779.45
515.81	794.36
516.17	809.67
516.53	825.21
516.89	840.80
517.25	856.40
517.61	872.22
517.97	888.13
518.33	904.06
518.69	920.40
519.05	937.02
519.41	953.74
519.77	970.90
520.13	988.01
520.49	1005.14
520.85	1022.09
521.21	1039.41
521.57	1057.47
521.93	1075.07
522.29	1093.25
522.65	1111.34
523.01	1129.32
523.37	1147.26
523.73	1165.41
524.09	1183.38
524.45	1201.58
524.81	1220.17
525.17	1239.01
525.53	1257.81
525.89	1276.85
526.25	1295.80
526.61	1314.22
526.97	1333.14
527.33	1351.74
527.68	1370.33
528.04	1388.94
528.40	1407.73
528.76	1427.17
529.12	1446.02
529.48	1465.20
529.84	1483.55
530.20	1502.57
530.56	1522.07
530.91	1541.89
531.27	1561.05
531.63	1579.94
531.99	1598.83
532.35	1617.32
532.71	1635.59
533.07	1654.41
533.42	1672.80
533.78	1691.49
534.14	1710.37
534.50	1728.14
534.86	1746.58
535.21	1764.55
535.57	1783.04
535.93	1801.12
536.29	1818.48
536.65	1836.08
537.00	1853.28
537.36	1871.24
537.72	1888.34
538.08	1905.31
538.44	1921.69
538.79	1938.12
539.15	1954.09
539.51	1970.44
539.87	1987.43
540.22	2003.77
540.58	2020.22
540.94	2036.06
541.29	2051.43
541.65	2066.66
542.01	2082.52
542.37	2097.51
542.72	2112.39
543.08	2126.88
543.44	2142.04
543.79	2155.87
544.15	2169.37
544.51	2183.82
544.87	2197.19
545.22	2210.61
545.58	2223.48
545.94	2235.68
546.29	2248.18
546.65	2260.88
547.01	2272.75
547.36	2283.95
547.72	2295.01
548.07	2305.30
548.43	2315.90
548.79	2326.12
549.14	2336.07
549.50	2345.69
549.86	2355.52
550.21	2365.09
550.57	2374.43
550.92	2383.31
551.28	2392.61
551.64	2401.97
551.99	2410.52
552.35	2419.03
552.70	2427.35
553.06	2435.43
553.41	2444.03
553.77	2452.00
554.13	2460.07
554.48	2468.40
554.84	2475.87
555.19	2483.04
555.55	2490.33
555.90	2496.82
556.26	2503.92
556.61	2510.62
556.97	2517.01
557.32	2523.10
557.68	2529.12
558.03	2535.35
558.39	2540.79
558.74	2547.23
559.10	2552.85
559.45	2558.13
559.81	2564.09
560.16	2569.60
560.52	2574.55
560.87	2579.48
561.23	2583.67
561.58	2587.97
561.94	2591.95
562.29	2595.71
562.64	2599.97
563.00	2603.98
563.35	2608.99
563.71	2613.59
564.06	2618.19
564.42	2622.48
564.77	2626.57
565.12	2630.39
565.48	2633.54
565.83	2636.66
566.19	2639.36
566.54	2641.33
566.89	2643.83
567.25	2645.70
567.60	2648.14
567.96	2651.09
568.31	2653.16
568.66	2655.56
569.02	2657.37
569.37	2658.70
569.72	2660.62
570.08	2661.73
570.43	2662.51
570.78	2662.71
571.14	2661.72
571.49	2660.99
571.84	2661.30
572.20	2660.66
572.55	2660.20
572.90	2659.08
573.26	2658.34
573.61	2656.93
573.96	2655.79
574.31	2653.03
574.67	2650.14
575.02	2646.68
575.37	2643.24
575.72	2639.45
576.08	2636.02
576.43	2632.62
576.78	2628.91
577.13	2625.81
577.49	2622.59
577.84	2619.13
578.19	2615.26
578.54	2611.51
578.90	2607.34
579.25	2601.39
579.60	2596.15
579.95	2590.78
580.30	2585.41
580.66	2579.74
581.01	2574.36
581.36	2568.96
581.71	2564.47
582.06	2559.82
582.42	2554.97
582.77	2549.26
583.12	2544.28
583.47	2539.21
583.82	2534.02
584.17	2528.32
584.53	2522.37
584.88	2516.22
585.23	2509.89
585.58	2503.86
585.93	2497.78
586.28	2492.22
586.63	2486.83
586.98	2481.23
587.34	2475.91
587.69	2470.44
588.04	2464.47
588.39	2458.20
588.74	2450.69
589.09	2443.68
589.44	2435.84
589.79	2428.86
590.14	2422.44
590.49	2414.85
590.84	2407.40
591.19	2400.34
591.54	2392.87
591.89	2384.30
592.25	2376.64
592.60	2368.29
592.95	2359.59
593.30	2351.19
593.65	2342.34
594.00	2333.92
594.35	2325.28
594.70	2315.76
595.05	2307.59
595.40	2299.13
595.75	2290.23
596.10	2283.16
596.45	2275.36
596.80	2268.28
597.15	2260.58
597.50	2252.40
597.85	2244.80
598.19	2237.17
598.54	2228.99
598.89	2221.26
599.24	2214.30
599.59	2206.34
599.94	2198.96
600.29	2191.41
600.64	2183.53
600.99	2174.94
601.34	2166.99
601.69	2158.81
602.04	2150.98
602.39	2142.20
602.74	2134.13
603.08	2126.25
603.43	2118.15
603.78	2109.38
604.13	2100.67
604.48	2092.07
604.83	2083.84
605.18	2075.68
605.53	2066.03
605.87	2056.37
606.22	2047.55
606.57	2037.95
606.92	2028.94
607.27	2020.44
607.62	2012.16
607.96	2003.57
608.31	1995.66
608.66	1986.38
609.01	1977.44
609.36	1968.27
609.70	1958.70
610.05	1948.95
610.40	1939.68
610.75	1929.74
611.10	1920.71
611.44	1910.56
611.79	1900.89
612.14	1890.41
612.49	1879.28
612.83	1869.25
613.18	1859.55
613.53	1849.99
613.88	1839.74
614.22	1829.95
614.57	1819.43
614.92	1809.86
615.27	1800.82
615.61	1790.91
615.96	1781.34
616.31	1772.08
616.65	1763.23
617.00	1754.11
617.35	1744.93
617.70	1734.99
618.04	1724.88
618.39	1714.94
618.74	1705.94
619.08	1696.01
619.43	1686.93
619.78	1678.62
620.12	1670.09
620.47	1661.03
620.82	1651.04
621.16	1642.06
621.51	1632.78
621.85	1623.55
622.20	1613.26
622.55	1603.19
622.89	1593.61
623.24	1584.26
623.59	1575.26
623.93	1566.06
624.28	1557.29
624.62	1548.24
624.97	1539.53
625.32	1531.33
625.66	1522.77
626.01	1513.87
626.35	1504.93
626.70	1495.52
627.04	1486.27
627.39	1476.79
627.73	1467.83
628.08	1459.63
628.43	1450.94
628.77	1442.17
629.12	1433.17
629.46	1424.48
629.81	1415.42
630.15	1406.63
630.50	1397.78
630.84	1387.95
631.19	1378.30
631.53	1369.27
631.88	1360.17
632.22	1351.01
632.57	1342.07
632.91	1332.98
633.26	1324.21
633.60	1315.18
633.95	1306.60
634.29	1298.01
634.64	1289.89
634.98	1281.03
635.32	1272.38
635.67	1264.34
636.01	1256.34
636.36	1248.27
636.70	1240.33
637.05	1232.37
637.39	1224.57
637.73	1216.74
638.08	1209.67
638.42	1202.51
638.77	1194.76
639.11	1186.93
639.45	1179.19
639.80	1171.31
640.14	1163.69
640.49	1155.93
640.83	1148.49
641.17	1141.12
641.52	1133.63
641.86	1125.93
642.20	1118.93
642.55	1111.22
642.89	1103.60
643.23	1095.81
643.58	1088.95
643.92	1081.67
644.26	1074.58
644.61	1067.39
644.95	1060.29
645.29	1052.54
645.64	1044.60
645.98	1037.02
646.32	1029.97
646.66	1022.88
647.01	1016.00
647.35	1009.19
647.69	1002.14
648.04	995.55
648.38	988.68
648.72	981.69
649.06	974.61
649.41	967.58
649.75	960.67
650.09	953.66
650.43	946.85
650.78	939.49
651.12	932.46
651.46	925.68
651.80	918.97
652.14	912.52
652.49	906.19
652.83	900.03
653.17	893.37
653.51	886.65
653.85	880.13
654.20	873.47
654.54	866.28
654.88	859.47
655.22	852.45
655.56	845.72
655.90	839.19
656.25	832.99
656.59	826.65
656.93	820.59
657.27	814.50
657.61	808.07
657.95	802.06
658.29	796.02
658.64	789.71
658.98	783.28
659.32	776.88
659.66	770.70
660.00	764.48
660.34	758.63
660.68	752.77
661.02	746.87
661.36	741.30
661.70	736.07
662.05	730.97
662.39	725.95
662.73	720.57
663.07	715.35
663.41	710.08
663.75	704.79
664.09	699.32
664.43	694.06
664.77	689.15
665.11	684.13
665.45	679.23
665.79	674.46
666.13	669.74
666.47	664.91
666.81	660.00
667.15	655.20
667.49	650.58
667.83	646.10
668.17	641.48
668.51	636.71
668.85	631.88
669.19	627.28
669.53	622.78
669.87	618.31
670.21	613.96
670.55	609.63
670.89	605.59
671.23	601.65
671.57	597.51
671.91	593.36
672.25	589.17
672.58	585.00
672.92	580.94
673.26	577.13
673.60	573.35
673.94	569.65
674.28	566.11
674.62	562.60
674.96	558.95
675.30	555.53
675.64	552.06
675.97	548.81
676.31	545.48
676.65	542.02
676.99	538.78
677.33	535.36
677.67	532.08
678.01	528.52
678.34	525.00
678.68	521.58
679.02	518.25
679.36	514.94
679.70	511.71
680.04	508.49
680.37	505.17
680.71	501.91
681.05	498.82
681.39	495.72
681.73	492.60
682.06	489.60
682.40	486.61
682.74	483.61
683.08	480.61
683.42	477.55
683.75	474.55
684.09	471.55
684.43	468.70
684.77	465.77
685.10	462.93
685.44	460.20
685.78	457.48
686.12	454.82
686.45	452.18
686.79	449.51
687.13	446.88
687.46	444.24
687.80	441.63
688.14	438.97
688.48	436.46
688.81	433.81
689.15	431.25
689.49	428.66
689.82	426.14
690.16	423.62
690.50	421.26
690.83	418.98
691.17	416.63
691.51	414.30
691.84	412.10
692.18	409.88
692.52	407.50
692.85	405.22
693.19	403.00
693.52	400.79
693.86	398.60
694.20	396.47
694.53	394.39
694.87	392.24
695.21	390.16
695.54	388.00
695.88	385.91
696.21	383.88
696.55	381.91
696.88	379.97
697.22	378.02
697.56	376.09
697.89	374.11
698.23	372.19
698.56	370.30
698.90	368.46
699.23	366.54
699.57	364.74
699.90	362.93
700.24	361.08
700.58	359.30
700.91	357.55
701.25	355.85
701.58	354.22
701.92	352.62
702.25	350.99
702.59	349.41
702.92	347.89
703.26	346.35
703.59	344.87
703.93	343.48
704.26	342.00
704.60	340.52
704.93	339.03
705.26	337.58
705.60	336.18
705.93	334.78
706.27	333.54
706.60	332.27
706.94	330.99
707.27	329.70
707.61	328.41
707.94	327.24
708.27	325.94
708.61	324.67
708.94	323.47
709.28	322.30
709.61	321.12
709.94	320.00
710.28	318.73
710.61	317.51
710.95	316.23
711.28	315.14
711.61	314.01
711.95	312.95
712.28	311.84
712.61	310.69
712.95	309.58
713.28	308.50
713.61	307.44
713.95	306.38
714.28	305.34
714.61	304.31
714.95	303.24
715.28	302.28
715.61	301.20
715.95	300.21
716.28	299.20
716.61	298.18
716.95	297.21
717.28	296.40
717.61	295.52
717.94	294.64
718.28	293.72
718.61	292.83
718.94	292.00
719.27	291.23
719.61	290.46
719.94	289.72
720.27	288.86
720.60	288.07
720.94	287.34
721.27	286.68
721.60	286.03
721.93	285.36
722.27	284.70
722.60	284.08
722.93	283.40
723.26	282.74
723.59	282.13
723.93	281.43
724.26	280.76
724.59	280.11
724.92	279.46
725.25	278.85
725.59	278.24
725.92	277.63
726.25	276.99
726.58	276.40
726.91	275.79
727.24	275.23
727.57	274.66
727.91	274.02
728.24	273.44
728.57	272.83
728.90	272.25
729.23	271.63
729.56	271.07
729.89	270.47
730.22	269.90
730.55	269.32
730.89	268.80
731.22	268.24
731.55	267.73
731.88	267.22
732.21	266.68
732.54	266.17
732.87	265.66
733.20	265.16
733.53	264.66
733.86	264.21
734.19	263.74
734.52	263.26
734.85	262.90
735.18	262.41
735.51	261.98
735.84	261.54
736.17	261.13
736.50	260.62
736.83	260.34
737.16	259.97
737.49	259.59
737.82	259.18
738.15	258.77
738.48	258.35
738.81	257.98
739.14	257.59
739.47	257.21
739.80	256.84
740.13	256.51
740.46	256.16
740.79	255.75
741.12	255.37
741.45	255.03
741.78	254.58
742.11	254.23
742.44	253.84
742.77	253.49
743.10	253.15
743.43	252.84
743.75	252.41
744.08	252.22
744.41	251.83
744.74	251.54
745.07	251.20
745.40	250.92
745.73	250.61
746.06	250.34
746.39	250.00
746.71	249.66
747.04	249.33
747.37	249.03
747.70	248.74
748.03	248.47
748.36	248.20
748.68	247.93
749.01	247.65
749.34	247.40
749.67	247.16
750.00	246.92
750.33	246.71
750.65	246.46
750.98	246.03
751.31	245.82
751.64	245.54
751.97	245.36
752.29	245.10
752.62	244.82
752.95	244.55
753.28	244.31
753.60	244.10
753.93	243.87
754.26	243.65
754.59	243.39
754.91	243.16
755.24	242.92
755.57	242.70
755.90	242.46
756.22	242.22
756.55	241.94
756.88	241.66
757.20	241.43
757.53	241.20
757.86	241.02
758.19	240.81
758.51	240.65
758.84	240.44
759.17	240.21
759.49	240.08
759.82	239.91
760.15	239.74
760.47	239.57
760.80	239.38
761.13	239.19
761.45	239.01
761.78	238.80
762.11	238.63
762.43	238.44
762.76	238.26
763.08	238.11
763.41	237.98
763.74	237.83
764.06	237.62
764.39	237.46
764.71	237.34
765.04	237.16
765.37	236.98
765.69	236.83
766.02	236.74
766.34	236.56
766.67	236.40
767.00	236.29
767.32	236.21
767.65	236.18
767.97	236.08
768.30	235.95
768.62	235.84
768.95	235.72
769.27	235.60
769.60	235.52
769.92	235.39
770.25	235.28
770.57	235.17
770.90	235.08
771.22	234.99
771.55	234.87
771.87	234.83
772.20	234.71
772.52	234.66
772.85	234.64
773.17	234.50
773.50	234.42
773.82	234.30
774.15	234.13
774.47	233.94
774.80	233.79
775.12	233.73
775.45	233.65
775.77	233.56
776.09	233.48
776.42	233.38
776.74	233.33
777.07	233.21
777.39	233.10
777.72	233.01
778.04	232.93
778.36	232.83
778.69	232.71
779.01	232.66
779.33	232.49
779.66	232.31
779.98	232.24
780.31	232.18
780.63	232.13
780.95	232.07
781.28	231.97
781.60	231.90
781.92	231.82
782.25	231.72
782.57	231.65
782.89	231.57
783.22	231.51
783.54	231.40
783.86	231.39
784.19	231.37
784.51	231.29
784.83	231.20
785.16	231.09
785.48	231.08
785.80	231.02
786.12	230.97
786.45	230.90
786.77	230.88
787.09	230.79
787.42	230.69
787.74	230.65
788.06	230.61
788.38	230.57
788.71	230.51
789.03	230.51
789.35	230.44
789.67	230.38
789.99	230.33
790.32	230.26
790.64	230.17
790.96	230.15
791.28	230.10
791.61	230.05
791.93	230.01
792.25	229.92
792.57	229.91
792.89	229.83
793.21	229.77
793.54	229.71
793.86	229.66
794.18	229.63
794.50	229.57
794.82	229.52
795.14	229.49
795.47	229.44
795.79	229.40
796.11	229.34
796.43	229.30
796.75	229.26
797.07	229.22
797.39	229.19
797.71	229.09
798.04	229.04
798.36	229.04
798.68	229.00
799.00	228.96
799.32	228.92
799.64	228.89
799.96	228.88
800.28	228.84
800.60	228.79
800.92	228.73
801.24	228.66
801.56	228.59
801.89	228.54
802.21	228.48
802.53	228.39
802.85	228.38
803.17	228.38
803.49	228.33
803.81	228.29
804.13	228.23
804.45	228.17
804.77	228.18
805.09	228.10
805.41	228.05
805.73	228.02
806.05	227.95
806.37	227.91
806.69	227.86
807.01	227.83
807.33	227.79
807.65	227.75
807.97	227.75
808.28	227.76
808.60	227.73
808.92	227.71
809.24	227.75
809.56	227.72
809.88	227.68
810.20	227.65
810.52	227.67
810.84	227.63
811.16	227.59
811.48	227.49
811.80	227.49
812.12	227.50
812.43	227.47
812.75	227.46
813.07	227.41
813.39	227.35
813.71	227.32
814.03	227.31
814.35	227.26
814.67	227.20
814.98	227.15
815.30	227.13
815.62	227.10
815.94	227.01
816.26	227.04
816.58	226.96
816.89	226.96
817.21	226.90
817.53	226.88
817.85	226.90
818.17	226.90
818.48	226.86
818.80	226.81
819.12	226.76
819.44	226.70
819.76	226.71
820.07	226.74
820.39	226.71
820.71	226.71
821.03	226.69
821.34	226.65
821.66	226.70
821.98	226.67
822.30	226.67
822.61	226.75
822.93	226.64
823.25	226.66
823.57	226.60
823.88	226.64
824.20	226.63
824.52	226.61
824.83	226.60
825.15	226.57
825.47	226.55
825.79	226.55
826.10	226.52
826.42	226.51
826.74	226.48
827.05	226.45
827.37	226.43
827.69	226.45
828.00	226.47
828.32	226.44
828.64	226.43
828.95	226.44
829.27	226.37
829.58	226.40
829.90	226.37
830.22	226.37
830.53	226.33
830.85	226.31
831.17	226.25
831.48	226.25
831.80	226.25
832.11	226.24
832.43	226.22
832.75	226.20
833.06	226.22
833.38	226.20
833.69	226.22
834.01	226.23
834.32	226.21
834.64	226.17
834.96	226.13
835.27	226.09
835.59	226.06
835.90	226.04
836.22	226.01
836.53	226.00
836.85	225.98
837.16	226.05
837.48	226.05
837.79	226.10
838.11	226.08
838.42	226.10
838.74	226.13
839.05	226.13
839.37	226.15
839.68	226.11
840.00	226.10
840.31	226.11
840.63	226.06
840.94	226.06
841.26	226.04
841.57	226.07
841.88	226.09
842.20	226.08
842.51	226.06
842.83	226.08
843.14	226.16
843.46	226.17
843.77	226.10
844.08	226.09
844.40	226.06
844.71	226.07
845.03	226.08
845.34	226.07
845.65	226.06
845.97	226.04
846.28	226.03
846.60	226.05
846.91	226.03
847.22	226.01
847.54	226.01
847.85	226.01
848.16	225.99
848.48	225.96
848.79	225.99
849.10	225.97
849.42	225.97
849.73	225.85
850.04	225.82
850.36	225.79
850.67	225.79
850.98	225.78
851.30	225.75
851.61	225.74
851.92	225.73
852.23	225.76
852.55	225.77
852.86	225.76
853.17	225.73
853.49	225.74
853.80	225.75
854.11	225.74
854.42	225.75
854.74	225.71
855.05	225.69
855.36	225.64
855.67	225.63
855.99	225.59
856.30	225.71
856.61	225.72
856.92	225.71
857.23	225.70
857.55	225.70
857.86	225.72
858.17	225.72
858.48	225.67
858.79	225.62
859.11	225.63
859.42	225.65
859.73	225.65
860.04	225.63
860.35	225.61
860.66	225.58
860.98	225.58
861.29	225.60
861.60	225.62
861.91	225.62
862.22	225.62
862.53	225.63
862.84	225.51
863.16	225.52
863.47	225.49
863.78	225.51
864.09	225.50
864.40	225.49
864.71	225.45
865.02	225.48
865.33	225.47
865.64	225.43
865.95	225.40
866.27	225.45
866.58	225.44
866.89	225.46
867.20	225.45
867.51	225.45
867.82	225.43
868.13	225.43
868.44	225.43
868.75	225.45
869.06	225.47
869.37	225.49
869.68	225.47
869.99	225.51
870.30	225.51
870.61	225.53
870.92	225.54
871.23	225.54
871.54	225.54
871.85	225.55
872.16	225.58
872.47	225.58
872.78	225.51
873.09	225.52
873.40	225.51
873.71	225.49
874.02	225.50
874.33	225.50
874.64	225.51
874.95	225.50
875.26	225.50
875.56	225.44
875.87	225.46
876.18	225.45
876.49	225.54
876.80	225.55
877.11	225.52
877.42	225.51
877.73	225.53
878.04	225.52
878.35	225.52
878.66	225.51
878.96	225.51
879.27	225.55
879.58	225.53
879.89	225.51
880.20	225.58
880.51	225.57
880.82	225.55
881.12	225.51
881.43	225.53
881.74	225.51
882.05	225.52
882.36	225.51
882.67	225.54
882.97	225.43
883.28	225.39
883.59	225.39
883.90	225.38
884.21	225.38
884.51	225.37
884.82	225.35
885.13	225.36
885.44	225.32
885.74	225.27
886.05	225.26
886.36	225.27
886.67	225.19
886.98	225.22
887.28	225.24
887.59	225.24
887.90	225.19
888.20	225.16
888.51	225.17
888.82	225.14
889.13	225.14
889.43	225.19
889.74	225.18
890.05	225.14
890.35	225.10
890.66	225.08
890.97	225.07
891.28	225.05
891.58	225.01
891.89	225.06
892.20	225.03
892.50	225.00
892.81	225.01
893.12	225.03
893.42	224.98
893.73	224.97
894.04	224.95
894.34	224.99
894.65	224.97
894.95	224.93
895.26	224.94
895.57	224.98
895.87	224.88
896.18	224.90
896.48	224.91
896.79	224.94
897.10	224.94
897.40	224.90
897.71	224.93
898.01	224.95
898.32	224.94
898.63	224.92
898.93	224.97
899.24	224.95
899.54	224.96
899.85	224.95
900.15	224.93
900.46	224.98
900.76	225.01
901.07	225.06
901.38	225.06
901.68	225.08
901.99	225.02
902.29	225.03
902.60	224.99
902.90	225.01
903.21	225.01
903.51	225.01
903.82	225.05
904.12	225.04
904.43	225.06
904.73	225.04
905.03	225.11
905.34	225.17
905.64	225.15
905.95	225.16
906.25	225.21
906.56	225.26
906.86	225.25
907.17	225.21
907.47	225.22
907.77	225.27
908.08	225.27
908.38	225.28
908.69	225.34
908.99	225.40
909.30	225.38
909.60	225.37
909.90	225.36
910.21	225.38
910.51	225.39
910.81	225.38
911.12	225.40
911.42	225.40
911.73	225.31
912.03	225.35
912.33	225.36
912.64	225.33
912.94	225.33
913.24	225.31
913.55	225.28
913.85	225.28
914.15	225.30
914.46	225.30
914.76	225.29
915.06	225.25
915.37	225.23
915.67	225.25
915.97	225.27
916.27	225.30
916.58	225.30
916.88	225.30
917.18	225.29
917.49	225.38
917.79	225.37
918.09	225.40
918.39	225.44
918.70	225.43
919.00	225.43
919.30	225.47
919.60	225.45
919.91	225.44
920.21	225.43
920.51	225.39
920.81	225.38
921.12	225.40
921.42	225.42
921.72	225.40
922.02	225.40
922.32	225.40
922.63	225.37
922.93	225.41
923.23	225.40
923.53	225.38
923.83	225.29
924.13	225.29
924.44	225.28
924.74	225.25
925.04	225.29
925.34	225.27
925.64	225.22
925.94	225.22
926.24	225.27
926.55	225.25
926.85	225.27
927.15	225.19
927.45	225.19
927.75	225.15
928.05	225.15
928.35	225.13
928.65	225.12
928.95	225.11
929.26	225.04
929.56	225.06
929.86	225.05
930.16	225.06
930.46	225.01
930.76	224.98
931.06	224.93
931.36	224.87
931.66	224.90
931.96	224.88
932.26	224.89
932.56	224.87
932.86	224.86
933.16	224.84
933.46	224.87
933.76	224.84
934.06	224.87
934.36	224.91
934.66	224.92
934.96	224.92
935.26	224.92
935.56	224.96
935.86	224.94
936.16	224.94
936.46	224.91
936.76	224.94
937.06	224.95
937.36	225.00
937.66	225.04
937.96	225.04
938.26	225.03
938.56	225.03
938.86	225.03
939.16	225.06
939.46	225.09
939.76	225.12
940.06	225.13
940.35	225.12
940.65	225.04
940.95	225.06
941.25	225.05
941.55	225.04
941.85	225.02
942.15	225.02
942.45	225.04
942.75	225.06
943.04	225.04
943.34	225.08
943.64	225.06
943.94	225.02
944.24	225.04
944.54	225.06
944.84	225.05
945.13	225.05
945.43	225.05
945.73	225.03
946.03	225.03
946.33	225.02
946.62	225.01
946.92	225.05
947.22	225.05
947.52	225.04
947.82	225.06
948.11	225.06
948.41	225.06
948.71	225.02
949.01	225.03
949.31	225.03
949.60	225.01
949.90	225.02
950.20	225.00
950.50	224.97
950.79	224.94
951.09	224.98
951.39	224.97
951.69	224.96
951.98	224.99
952.28	224.95
952.58	224.96
952.87	224.98
953.17	224.99
953.47	224.97
953.76	225.00
954.06	224.99
954.36	224.97
954.66	224.96
954.95	225.02
955.25	225.03
955.55	225.07
955.84	225.07
956.14	225.04
956.44	225.05
956.73	225.07
957.03	225.07
957.32	225.01
957.62	225.05
957.92	225.08
958.21	225.05
958.51	225.16
958.81	225.15
959.10	225.15
959.40	225.18
959.69	225.19
959.99	225.19
960.29	225.19
960.58	225.21
960.88	225.23
961.17	225.18
961.47	225.20
961.76	225.17
962.06	225.17
962.36	225.18
962.65	225.22
962.95	225.18
963.24	225.21
963.54	225.26
963.83	225.27
964.13	225.26
964.42	225.25
964.72	225.16
965.01	225.17
965.31	225.17
965.60	225.14
965.90	225.22
966.19	225.16
966.49	225.18
966.78	225.18
967.08	225.20
967.37	225.21
967.67	225.17
967.96	225.20
968.26	225.21
968.55	225.23
968.85	225.19
969.14	225.20
969.43	225.15
969.73	225.12
970.02	225.08
970.32	225.05
970.61	225.05
970.91	225.04
971.20	225.02
971.49	224.98
971.79	224.98
972.08	224.87
972.38	224.91
972.67	224.89
972.96	224.88
973.26	224.82
973.55	224.86
973.85	224.83
974.14	224.80
974.43	224.78
974.73	224.76
975.02	224.76
975.31	224.78
975.61	224.80
975.90	224.79
976.19	224.78
976.49	224.76
976.78	224.77
977.07	224.75
977.37	224.77
977.66	224.80
977.95	224.79
978.24	224.81
978.54	224.81
978.83	224.84
979.12	224.85
979.42	224.88
979.71	224.86
980.00	224.88
980.29	224.89
980.59	224.92
980.88	224.94
981.17	224.93
981.46	224.92
981.76	224.92
982.05	224.97
982.34	224.99
982.63	225.01
982.93	225.02
983.22	225.06
983.51	225.07
983.80	225.08
984.09	225.06
984.39	225.08
984.68	225.04
984.97	225.03
985.26	225.00
985.55	225.01
985.85	224.97
986.14	224.98
986.43	224.97
986.72	224.95
987.01	224.94
987.30	224.95
987.59	224.95
987.89	224.96
988.18	224.93
988.47	224.93
988.76	224.96
989.05	224.95
989.34	224.94
989.63	224.97
989.92	224.99
990.22	225.00
990.51	224.99
990.80	225.00
991.09	225.01
991.38	225.05
991.67	225.04
991.96	225.07
992.25	225.09
992.54	225.06
992.83	225.06
993.12	225.02
993.41	225.02
993.70	225.06
993.99	225.04
994.28	225.05
994.58	225.04
994.87	225.00
995.16	224.99
995.45	224.96
995.74	224.94
996.03	224.91
996.32	224.93
996.61	224.96
996.90	224.98
997.19	224.99
997.48	224.98
997.77	224.96
998.06	224.99
998.34	224.96
998.63	224.99
998.92	225.01
999.21	225.01
999.50	225.02
999.79	224.97
1000.08	225.01
1000.37	225.00
1000.66	224.97
1000.95	225.00
1001.24	225.01
1001.53	225.08
1001.82	225.09
1002.11	225.05
1002.40	225.05
1002.68	225.08
1002.97	225.15
1003.26	225.11
1003.55	225.06
1003.84	225.04
1004.13	225.07
1004.42	225.06
1004.71	225.06
1004.99	225.00
1005.28	225.04
1005.57	225.01
1005.86	225.04
1006.15	225.00
1006.44	224.96
1006.72	224.97
1007.01	224.97
1007.30	224.99
1007.59	224.92
1007.88	224.91
1008.17	224.97
1008.45	224.95
1008.74	224.87
1009.03	224.81
1009.32	224.83
1009.60	224.86
1009.89	224.90
1010.18	224.82
1010.47	224.82
1010.76	224.81
1011.04	224.84
1011.33	224.84
1011.62	224.85
1011.91	224.85
1012.19	224.88
1012.48	224.90
1012.77	224.92
1013.05	224.96
1013.34	224.92
1013.63	224.93
1013.92	224.90
1014.20	224.86
1014.49	224.87
1014.78	224.88
1015.06	224.83
1015.35	224.80
1015.64	224.80
1015.92	224.78
1016.21	224.84
1016.50	224.83
1016.78	224.83
1017.07	224.84
1017.36	224.84
1017.64	224.84
1017.93	224.83
1018.22	224.79
1018.50	224.77
1018.79	224.74
1019.08	224.69
1019.36	224.70
1019.65	224.69
1019.93	224.72
1020.22	224.72
1020.51	224.79
1020.79	224.78
1021.08	224.19
1021.36	224.13
1021.65	224.36
1021.94	224.93
1022.22	224.73
1022.51	224.62
1022.79	225.11
1023.08	224.56
1023.36	226.58
1023.65	224.19
>>>>>End Processed Spectral Data<<<<<
