SpectraSuite Data File
++++++++++++++++++++++++++++++++++++
Date: Fri Feb 01 16:16:39 EST 2013
User: group
Dark Spectrum Present: No
Reference Spectrum Present: No
Number of Sampled Component Spectra: 1
Spectrometers: USB2E7196
Integration Time (usec): 35000 (USB2E7196)
Spectra Averaged: 100 (USB2E7196)
Boxcar Smoothing: 10 (USB2E7196)
Correct for Electrical Dark: No (USB2E7196)
Strobe/Lamp Enabled: No (USB2E7196)
Correct for Detector Non-linearity: No (USB2E7196)
Correct for Stray Light: No (USB2E7196)
Number of Pixels in Processed Spectrum: 2048
>>>>>Begin Processed Spectral Data<<<<<
339.09	0.00
339.48	213.77
339.86	215.26
340.24	216.32
340.63	218.20
341.01	220.68
341.39	220.60
341.78	221.99
342.16	223.01
342.54	223.47
342.93	212.17
343.31	222.91
343.69	223.45
344.07	223.90
344.46	224.36
344.84	224.73
345.22	224.98
345.60	225.25
345.99	225.45
346.37	225.60
346.75	225.72
347.13	225.82
347.52	225.89
347.90	225.93
348.28	225.95
348.66	226.00
349.05	225.99
349.43	226.08
349.81	226.10
350.19	226.17
350.57	226.24
350.96	226.36
351.34	226.44
351.72	226.57
352.10	226.69
352.48	226.77
352.87	226.85
353.25	226.92
353.63	227.03
354.01	227.09
354.39	227.17
354.77	227.26
355.15	227.36
355.54	227.44
355.92	227.53
356.30	227.59
356.68	227.69
357.06	227.79
357.44	227.81
357.82	227.87
358.20	227.96
358.58	227.98
358.97	228.02
359.35	228.10
359.73	228.11
360.11	228.17
360.49	228.22
360.87	228.24
361.25	228.31
361.63	228.31
362.01	228.36
362.39	228.38
362.77	228.42
363.15	228.45
363.53	228.44
363.91	228.41
364.29	228.42
364.67	228.39
365.05	228.37
365.43	228.42
365.81	228.44
366.19	228.46
366.57	228.49
366.95	228.51
367.33	228.50
367.71	228.50
368.09	228.50
368.47	228.48
368.85	228.48
369.23	228.46
369.61	228.43
369.99	228.42
370.37	228.42
370.75	228.42
371.13	228.38
371.51	228.33
371.89	228.31
372.27	228.30
372.65	228.25
373.03	228.22
373.41	228.15
373.78	228.07
374.16	228.00
374.54	227.91
374.92	227.84
375.30	227.76
375.68	227.69
376.06	227.64
376.44	227.56
376.82	227.49
377.19	227.41
377.57	227.36
377.95	227.28
378.33	227.20
378.71	227.07
379.09	227.02
379.47	226.98
379.84	226.92
380.22	226.86
380.60	226.78
380.98	226.74
381.36	226.65
381.73	226.60
382.11	226.56
382.49	226.53
382.87	226.47
383.25	226.42
383.62	226.48
384.00	226.39
384.38	226.35
384.76	226.33
385.13	226.32
385.51	226.29
385.89	226.25
386.27	226.21
386.64	226.20
387.02	226.13
387.40	226.08
387.78	226.06
388.15	226.07
388.53	226.03
388.91	226.00
389.29	226.00
389.66	226.01
390.04	225.97
390.42	225.97
390.79	225.97
391.17	225.93
391.55	225.84
391.92	225.88
392.30	225.89
392.68	225.87
393.05	225.87
393.43	225.84
393.81	225.85
394.18	225.83
394.56	225.87
394.94	225.93
395.31	225.93
395.69	226.01
396.06	226.01
396.44	226.04
396.82	226.05
397.19	226.14
397.57	226.16
397.95	226.22
398.32	226.24
398.70	226.31
399.07	226.42
399.45	226.48
399.82	226.53
400.20	226.56
400.58	226.60
400.95	226.65
401.33	226.74
401.70	226.90
402.08	227.02
402.45	227.08
402.83	227.17
403.20	227.29
403.58	227.34
403.95	227.44
404.33	227.57
404.71	227.73
405.08	227.90
405.46	228.02
405.83	228.14
406.21	228.26
406.58	228.40
406.96	228.53
407.33	228.68
407.70	228.85
408.08	229.16
408.45	229.42
408.83	229.63
409.20	229.85
409.58	229.97
409.95	230.23
410.33	230.51
410.70	230.74
411.08	231.02
411.45	231.31
411.82	231.61
412.20	231.95
412.57	232.32
412.95	232.57
413.32	232.97
413.69	233.39
414.07	233.83
414.44	234.29
414.82	234.74
415.19	235.26
415.56	235.80
415.94	236.33
416.31	236.96
416.68	237.58
417.06	238.29
417.43	239.00
417.81	239.73
418.18	240.50
418.55	241.35
418.93	242.21
419.30	243.11
419.67	244.04
420.04	245.01
420.42	245.96
420.79	247.15
421.16	248.28
421.54	249.46
421.91	250.69
422.28	251.95
422.66	253.28
423.03	254.59
423.40	255.91
423.77	257.27
424.15	258.66
424.52	260.15
424.89	261.78
425.26	263.32
425.64	264.80
426.01	266.36
426.38	268.01
426.75	269.69
427.13	271.44
427.50	273.28
427.87	275.14
428.24	277.02
428.61	278.80
428.99	280.74
429.36	282.82
429.73	284.88
430.10	286.88
430.47	288.94
430.85	291.05
431.22	293.32
431.59	295.72
431.96	297.97
432.33	300.45
432.70	302.80
433.08	305.59
433.45	308.24
433.82	310.88
434.19	313.78
434.56	316.61
434.93	319.25
435.30	321.86
435.68	324.76
436.05	327.65
436.42	330.40
436.79	332.96
437.16	335.68
437.53	338.53
437.90	341.35
438.27	344.14
438.64	347.00
439.01	349.59
439.38	351.83
439.75	353.99
440.13	356.50
440.50	358.82
440.87	360.72
441.24	362.66
441.61	364.79
441.98	366.28
442.35	368.05
442.72	369.86
443.09	371.69
443.46	372.67
443.83	373.22
444.20	373.75
444.57	374.55
444.94	374.82
445.31	375.20
445.68	375.58
446.05	375.65
446.42	375.26
446.79	374.80
447.16	374.34
447.53	374.01
447.90	372.80
448.27	371.62
448.64	369.99
449.01	368.83
449.37	366.89
449.74	365.00
450.11	362.74
450.48	360.27
450.85	357.70
451.22	355.59
451.59	353.58
451.96	351.66
452.33	349.05
452.70	346.74
453.07	343.86
453.43	340.93
453.80	338.15
454.17	335.47
454.54	332.96
454.91	330.24
455.28	327.57
455.65	325.09
456.02	322.65
456.38	320.47
456.75	317.82
457.12	315.54
457.49	313.30
457.86	311.16
458.23	309.33
458.59	307.30
458.96	305.19
459.33	303.31
459.70	301.39
460.07	299.90
460.43	298.16
460.80	296.53
461.17	295.07
461.54	293.51
461.91	292.06
462.27	290.62
462.64	289.38
463.01	288.05
463.38	286.82
463.74	285.48
464.11	284.35
464.48	283.38
464.85	282.25
465.21	281.36
465.58	280.46
465.95	279.33
466.32	278.44
466.68	277.51
467.05	276.64
467.42	275.78
467.78	274.86
468.15	273.99
468.52	273.31
468.88	272.51
469.25	271.80
469.62	271.20
469.98	270.53
470.35	269.92
470.72	269.33
471.08	268.64
471.45	268.11
471.82	267.58
472.18	266.94
472.55	266.53
472.92	266.05
473.28	265.59
473.65	265.15
474.02	264.71
474.38	264.35
474.75	264.03
475.11	263.69
475.48	263.44
475.85	263.20
476.21	262.99
476.58	262.80
476.94	262.68
477.31	262.53
477.67	262.37
478.04	262.25
478.41	262.17
478.77	262.26
479.14	262.24
479.50	262.26
479.87	262.35
480.23	262.45
480.60	262.53
480.96	262.65
481.33	262.91
481.69	263.16
482.06	263.37
482.42	263.57
482.79	263.86
483.15	264.21
483.52	264.56
483.88	264.93
484.25	265.36
484.61	265.77
484.98	266.17
485.34	266.75
485.71	267.35
486.07	267.96
486.44	268.50
486.80	269.18
487.17	269.91
487.53	270.76
487.90	271.61
488.26	272.56
488.62	273.53
488.99	274.48
489.35	275.50
489.72	276.65
490.08	277.84
490.44	279.07
490.81	280.39
491.17	281.78
491.54	283.29
491.90	284.77
492.26	286.40
492.63	288.19
492.99	289.96
493.36	291.85
493.72	293.90
494.08	296.05
494.45	298.28
494.81	300.60
495.17	303.00
495.54	305.62
495.90	308.29
496.26	311.07
496.63	314.08
496.99	317.16
497.35	320.43
497.72	323.86
498.08	327.41
498.44	331.09
498.80	334.98
499.17	338.99
499.53	343.24
499.89	347.65
500.26	352.17
500.62	356.89
500.98	361.89
501.34	366.97
501.71	372.25
502.07	377.72
502.43	383.40
502.79	389.23
503.16	395.28
503.52	401.60
503.88	408.03
504.24	414.67
504.60	421.57
504.97	428.73
505.33	436.07
505.69	443.80
506.05	451.57
506.41	459.57
506.78	467.74
507.14	476.16
507.50	484.84
507.86	493.84
508.22	503.06
508.59	512.22
508.95	521.79
509.31	531.70
509.67	541.78
510.03	552.08
510.39	562.64
510.75	573.44
511.12	584.35
511.48	595.70
511.84	607.09
512.20	618.55
512.56	630.49
512.92	642.69
513.28	654.99
513.64	667.48
514.00	680.13
514.37	693.08
514.73	706.19
515.09	719.28
515.45	732.61
515.81	746.13
516.17	760.11
516.53	774.23
516.89	788.31
517.25	802.49
517.61	816.99
517.97	831.43
518.33	845.83
518.69	860.46
519.05	875.37
519.41	890.54
519.77	906.16
520.13	921.57
520.49	936.91
520.85	952.33
521.21	967.99
521.57	984.16
521.93	999.94
522.29	1016.19
522.65	1032.39
523.01	1048.46
523.37	1064.54
523.73	1080.80
524.09	1096.84
524.45	1113.11
524.81	1129.68
525.17	1146.31
525.53	1163.26
525.89	1180.14
526.25	1197.07
526.61	1213.48
526.97	1230.25
527.33	1246.58
527.68	1263.18
528.04	1279.64
528.40	1296.06
528.76	1313.12
529.12	1329.67
529.48	1346.42
529.84	1362.52
530.20	1379.23
530.56	1396.21
530.91	1413.49
531.27	1430.06
531.63	1446.44
531.99	1462.91
532.35	1478.87
532.71	1494.64
533.07	1510.74
533.42	1526.52
533.78	1542.51
534.14	1558.77
534.50	1573.97
534.86	1589.87
535.21	1604.94
535.57	1620.78
535.93	1636.33
536.29	1650.95
536.65	1665.91
537.00	1680.68
537.36	1695.96
537.72	1710.34
538.08	1724.76
538.44	1738.39
538.79	1752.27
539.15	1765.85
539.51	1779.54
539.87	1793.97
540.22	1807.81
540.58	1821.52
540.94	1834.84
541.29	1847.67
541.65	1860.29
542.01	1873.53
542.37	1885.82
542.72	1898.18
543.08	1909.85
543.44	1922.13
543.79	1933.46
544.15	1944.33
544.51	1955.75
544.87	1966.58
545.22	1977.33
545.58	1987.46
545.94	1997.31
546.29	2007.14
546.65	2016.97
547.01	2026.19
547.36	2034.73
547.72	2043.19
548.07	2050.99
548.43	2059.15
548.79	2067.05
549.14	2074.41
549.50	2081.56
549.86	2089.24
550.21	2096.57
550.57	2103.74
550.92	2110.30
551.28	2117.31
551.64	2124.41
551.99	2131.02
552.35	2137.14
552.70	2143.18
553.06	2149.12
553.41	2155.48
553.77	2161.46
554.13	2167.45
554.48	2173.66
554.84	2179.16
555.19	2184.25
555.55	2189.43
555.90	2193.84
556.26	2198.72
556.61	2203.52
556.97	2207.80
557.32	2211.78
557.68	2215.92
558.03	2220.24
558.39	2224.03
558.74	2228.60
559.10	2232.47
559.45	2236.06
559.81	2240.31
560.16	2244.27
560.52	2247.44
560.87	2250.77
561.23	2253.41
561.58	2256.46
561.94	2258.88
562.29	2261.14
562.64	2263.88
563.00	2266.44
563.35	2269.90
563.71	2273.08
564.06	2276.30
564.42	2279.25
564.77	2281.77
565.12	2284.03
565.48	2285.89
565.83	2287.82
566.19	2289.18
566.54	2290.09
566.89	2291.26
567.25	2291.90
567.60	2293.08
567.96	2294.98
568.31	2295.87
568.66	2297.05
569.02	2297.78
569.37	2298.09
569.72	2299.08
570.08	2299.27
570.43	2299.38
570.78	2298.82
571.14	2297.30
571.49	2295.91
571.84	2295.66
572.20	2294.76
572.55	2293.75
572.90	2292.24
573.26	2290.71
573.61	2289.05
573.96	2287.28
574.31	2284.46
574.67	2281.61
575.02	2278.04
575.37	2274.55
575.72	2270.90
576.08	2267.58
576.43	2264.19
576.78	2260.68
577.13	2257.49
577.49	2254.42
577.84	2250.82
578.19	2247.21
578.54	2243.65
578.90	2239.55
579.25	2233.96
579.60	2228.97
579.95	2223.98
580.30	2218.97
580.66	2213.84
581.01	2209.04
581.36	2204.50
581.71	2200.19
582.06	2195.65
582.42	2191.30
582.77	2186.26
583.12	2181.73
583.47	2177.08
583.82	2172.15
584.17	2166.93
584.53	2161.50
584.88	2155.91
585.23	2150.39
585.58	2144.89
585.93	2139.51
586.28	2134.76
586.63	2129.79
586.98	2124.83
587.34	2120.16
587.69	2115.40
588.04	2110.19
588.39	2104.45
588.74	2097.87
589.09	2091.82
589.44	2085.12
589.79	2079.05
590.14	2073.35
590.49	2066.65
590.84	2060.30
591.19	2054.32
591.54	2047.90
591.89	2040.53
592.25	2033.77
592.60	2026.56
592.95	2019.12
593.30	2011.73
593.65	2004.11
594.00	1997.06
594.35	1989.85
594.70	1981.86
595.05	1974.72
595.40	1967.49
595.75	1959.89
596.10	1953.72
596.45	1947.08
596.80	1940.97
597.15	1934.53
597.50	1927.59
597.85	1921.21
598.19	1914.64
598.54	1907.52
598.89	1900.95
599.24	1895.14
599.59	1888.55
599.94	1882.26
600.29	1876.03
600.64	1869.47
600.99	1862.25
601.34	1855.53
601.69	1848.43
602.04	1841.49
602.39	1834.12
602.74	1827.33
603.08	1820.62
603.43	1813.87
603.78	1806.52
604.13	1799.20
604.48	1791.87
604.83	1784.97
605.18	1778.10
605.53	1770.05
605.87	1762.04
606.22	1754.77
606.57	1746.79
606.92	1739.42
607.27	1732.33
607.62	1725.21
607.96	1718.05
608.31	1711.34
608.66	1703.65
609.01	1696.12
609.36	1688.64
609.70	1680.63
610.05	1672.61
610.40	1665.00
610.75	1656.60
611.10	1648.88
611.44	1640.51
611.79	1632.43
612.14	1623.75
612.49	1614.46
612.83	1606.09
613.18	1598.02
613.53	1589.92
613.88	1581.34
614.22	1573.07
614.57	1564.35
614.92	1556.33
615.27	1548.73
615.61	1540.38
615.96	1532.39
616.31	1524.78
616.65	1517.46
617.00	1509.79
617.35	1502.03
617.70	1493.66
618.04	1485.18
618.39	1477.02
618.74	1469.38
619.08	1461.10
619.43	1453.45
619.78	1446.63
620.12	1439.45
620.47	1431.96
620.82	1423.77
621.16	1416.36
621.51	1408.81
621.85	1401.28
622.20	1392.80
622.55	1384.39
622.89	1376.52
623.24	1368.91
623.59	1361.53
623.93	1353.94
624.28	1346.80
624.62	1339.37
624.97	1332.14
625.32	1325.35
625.66	1318.44
626.01	1311.37
626.35	1303.98
626.70	1296.16
627.04	1288.41
627.39	1280.64
627.73	1273.19
628.08	1266.29
628.43	1259.11
628.77	1251.66
629.12	1244.13
629.46	1237.04
629.81	1229.61
630.15	1222.40
630.50	1214.91
630.84	1206.65
631.19	1198.68
631.53	1191.22
631.88	1183.61
632.22	1176.04
632.57	1168.78
632.91	1161.13
633.26	1153.55
633.60	1146.12
633.95	1139.02
634.29	1131.91
634.64	1125.17
634.98	1117.72
635.32	1110.47
635.67	1103.82
636.01	1097.22
636.36	1090.27
636.70	1083.62
637.05	1077.03
637.39	1070.50
637.73	1064.05
638.08	1058.20
638.42	1052.21
638.77	1045.72
639.11	1039.11
639.45	1032.76
639.80	1025.99
640.14	1019.55
640.49	1013.13
640.83	1006.82
641.17	1000.57
641.52	994.24
641.86	987.78
642.20	982.03
642.55	975.70
642.89	969.21
643.23	962.59
643.58	956.96
643.92	950.83
644.26	944.71
644.61	938.68
644.95	932.67
645.29	926.01
645.64	919.25
645.98	912.80
646.32	906.95
646.66	900.91
647.01	895.25
647.35	889.50
647.69	883.56
648.04	878.03
648.38	872.27
648.72	866.28
649.06	860.16
649.41	854.24
649.75	848.31
650.09	842.32
650.43	836.50
650.78	830.23
651.12	824.23
651.46	818.55
651.80	812.79
652.14	807.24
652.49	801.94
652.83	796.85
653.17	791.23
653.51	785.50
653.85	780.14
654.20	774.43
654.54	768.40
654.88	762.69
655.22	756.68
655.56	750.98
655.90	745.54
656.25	740.33
656.59	734.91
656.93	729.82
657.27	724.67
657.61	719.31
657.95	714.21
658.29	709.12
658.64	703.82
658.98	698.51
659.32	693.14
659.66	687.91
660.00	682.50
660.34	677.61
660.68	672.71
661.02	667.59
661.36	662.81
661.70	658.35
662.05	654.03
662.39	649.77
662.73	645.34
663.07	640.98
663.41	636.56
663.75	632.07
664.09	627.46
664.43	623.05
664.77	618.88
665.11	614.69
665.45	610.56
665.79	606.62
666.13	602.46
666.47	598.37
666.81	594.16
667.15	590.10
667.49	586.15
667.83	582.33
668.17	578.43
668.51	574.37
668.85	570.34
669.19	566.46
669.53	562.64
669.87	558.81
670.21	555.05
670.55	551.39
670.89	548.00
671.23	544.59
671.57	541.09
671.91	537.59
672.25	534.05
672.58	530.50
672.92	527.03
673.26	523.90
673.60	520.72
673.94	517.61
674.28	514.68
674.62	511.75
674.96	508.58
675.30	505.65
675.64	502.70
675.97	499.92
676.31	497.06
676.65	494.13
676.99	491.38
677.33	488.57
677.67	485.77
678.01	482.72
678.34	479.79
678.68	476.90
679.02	474.04
679.36	471.24
679.70	468.53
680.04	465.76
680.37	462.96
680.71	460.18
681.05	457.61
681.39	454.86
681.73	452.18
682.06	449.71
682.40	447.14
682.74	444.61
683.08	442.06
683.42	439.47
683.75	437.00
684.09	434.43
684.43	431.95
684.77	429.45
685.10	427.10
685.44	424.76
685.78	422.46
686.12	420.26
686.45	417.99
686.79	415.69
687.13	413.49
687.46	411.32
687.80	409.17
688.14	406.96
688.48	404.92
688.81	402.68
689.15	400.56
689.49	398.44
689.82	396.38
690.16	394.32
690.50	392.34
690.83	390.38
691.17	388.37
691.51	386.41
691.84	384.60
692.18	382.68
692.52	380.71
692.85	378.79
693.19	376.86
693.52	375.03
693.86	373.21
694.20	371.43
694.53	369.57
694.87	367.69
695.21	365.89
695.54	364.06
695.88	362.33
696.21	360.60
696.55	358.95
696.88	357.28
697.22	355.58
697.56	353.99
697.89	352.31
698.23	350.74
698.56	349.17
698.90	347.58
699.23	345.94
699.57	344.40
699.90	342.86
700.24	341.34
700.58	339.82
700.91	338.32
701.25	336.86
701.58	335.53
701.92	334.22
702.25	332.80
702.59	331.38
702.92	330.02
703.26	328.71
703.59	327.39
703.93	326.23
704.26	325.00
704.60	323.68
704.93	322.44
705.26	321.17
705.60	319.97
705.93	318.81
706.27	317.80
706.60	316.76
706.94	315.66
707.27	314.52
707.61	313.45
707.94	312.41
708.27	311.29
708.61	310.18
708.94	309.14
709.28	308.17
709.61	307.21
709.94	306.27
710.28	305.25
710.61	304.27
710.95	303.13
711.28	302.23
711.61	301.28
711.95	300.38
712.28	299.47
712.61	298.52
712.95	297.59
713.28	296.67
713.61	295.72
713.95	294.86
714.28	294.00
714.61	293.15
714.95	292.30
715.28	291.46
715.61	290.57
715.95	289.71
716.28	288.86
716.61	288.05
716.95	287.24
717.28	286.49
717.61	285.72
717.94	285.02
718.28	284.21
718.61	283.46
718.94	282.71
719.27	282.05
719.61	281.39
719.94	280.74
720.27	280.03
720.60	279.40
720.94	278.76
721.27	278.20
721.60	277.58
721.93	277.00
722.27	276.45
722.60	275.89
722.93	275.33
723.26	274.77
723.59	274.20
723.93	273.65
724.26	273.08
724.59	272.49
724.92	271.97
725.25	271.49
725.59	271.00
725.92	270.48
726.25	269.96
726.58	269.44
726.91	268.95
727.24	268.46
727.57	267.95
727.91	267.40
728.24	266.90
728.57	266.43
728.90	266.01
729.23	265.50
729.56	265.10
729.89	264.63
730.22	264.15
730.55	263.68
730.89	263.24
731.22	262.82
731.55	262.41
731.88	261.97
732.21	261.52
732.54	261.07
732.87	260.65
733.20	260.22
733.53	259.85
733.86	259.46
734.19	259.07
734.52	258.69
734.85	258.41
735.18	258.02
735.51	257.67
735.84	257.29
736.17	256.95
736.50	256.53
736.83	256.30
737.16	255.95
737.49	255.64
737.82	255.27
738.15	254.95
738.48	254.64
738.81	254.30
739.14	253.94
739.47	253.63
739.80	253.34
740.13	253.03
740.46	252.69
740.79	252.35
741.12	252.04
741.45	251.73
741.78	251.38
742.11	251.10
742.44	250.76
742.77	250.44
743.10	250.12
743.43	249.83
743.75	249.43
744.08	249.32
744.41	249.04
744.74	248.77
745.07	248.46
745.40	248.18
745.73	247.92
746.06	247.65
746.39	247.38
746.71	247.11
747.04	246.83
747.37	246.58
747.70	246.34
748.03	246.09
748.36	245.85
748.68	245.61
749.01	245.34
749.34	245.13
749.67	244.93
750.00	244.71
750.33	244.55
750.65	244.36
750.98	243.99
751.31	243.74
751.64	243.54
751.97	243.41
752.29	243.21
752.62	242.99
752.95	242.78
753.28	242.57
753.60	242.38
753.93	242.22
754.26	242.02
754.59	241.80
754.91	241.59
755.24	241.39
755.57	241.18
755.90	241.01
756.22	240.82
756.55	240.59
756.88	240.42
757.20	240.18
757.53	239.99
757.86	239.80
758.19	239.63
758.51	239.43
758.84	239.20
759.17	239.03
759.49	238.86
759.82	238.76
760.15	238.62
760.47	238.43
760.80	238.28
761.13	238.16
761.45	237.99
761.78	237.84
762.11	237.72
762.43	237.60
762.76	237.45
763.08	237.32
763.41	237.20
763.74	237.11
764.06	236.95
764.39	236.81
764.71	236.70
765.04	236.58
765.37	236.46
765.69	236.32
766.02	236.17
766.34	236.06
766.67	235.88
767.00	235.76
767.32	235.72
767.65	235.67
767.97	235.57
768.30	235.47
768.62	235.35
768.95	235.22
769.27	235.10
769.60	235.02
769.92	234.92
770.25	234.79
770.57	234.63
770.90	234.55
771.22	234.44
771.55	234.37
771.87	234.29
772.20	234.24
772.52	234.25
772.85	234.29
773.17	234.20
773.50	234.12
773.82	234.05
774.15	233.93
774.47	233.78
774.80	233.67
775.12	233.59
775.45	233.54
775.77	233.47
776.09	233.40
776.42	233.32
776.74	233.27
777.07	233.18
777.39	233.08
777.72	233.01
778.04	232.96
778.36	232.89
778.69	232.83
779.01	232.73
779.33	232.58
779.66	232.44
779.98	232.38
780.31	232.34
780.63	232.30
780.95	232.23
781.28	232.18
781.60	232.10
781.92	232.04
782.25	231.97
782.57	231.94
782.89	231.87
783.22	231.81
783.54	231.74
783.86	231.70
784.19	231.66
784.51	231.64
784.83	231.57
785.16	231.47
785.48	231.44
785.80	231.36
786.12	231.34
786.45	231.24
786.77	231.20
787.09	231.14
787.42	231.04
787.74	231.00
788.06	230.93
788.38	230.90
788.71	230.83
789.03	230.78
789.35	230.74
789.67	230.67
789.99	230.62
790.32	230.52
790.64	230.50
790.96	230.55
791.28	230.46
791.61	230.39
791.93	230.37
792.25	230.31
792.57	230.38
792.89	230.27
793.21	230.22
793.54	230.15
793.86	230.08
794.18	230.03
794.50	229.95
794.82	229.94
795.14	229.88
795.47	229.84
795.79	229.79
796.11	229.71
796.43	229.66
796.75	229.60
797.07	229.58
797.39	229.52
797.71	229.41
798.04	229.37
798.36	229.36
798.68	229.34
799.00	229.28
799.32	229.19
799.64	229.20
799.96	229.16
800.28	229.17
800.60	229.13
800.92	229.11
801.24	229.10
801.56	229.04
801.89	228.99
802.21	229.01
802.53	228.98
802.85	228.99
803.17	229.00
803.49	228.98
803.81	228.93
804.13	228.91
804.45	228.88
804.77	228.86
805.09	228.84
805.41	228.79
805.73	228.76
806.05	228.69
806.37	228.63
806.69	228.61
807.01	228.56
807.33	228.59
807.65	228.52
807.97	228.53
808.28	228.49
808.60	228.48
808.92	228.39
809.24	228.40
809.56	228.35
809.88	228.29
810.20	228.29
810.52	228.29
810.84	228.27
811.16	228.23
811.48	228.19
811.80	228.19
812.12	228.15
812.43	228.16
812.75	228.16
813.07	228.13
813.39	228.10
813.71	228.11
814.03	228.06
814.35	228.10
814.67	228.02
814.98	228.01
815.30	228.01
815.62	228.00
815.94	227.95
816.26	228.00
816.58	227.97
816.89	227.98
817.21	227.94
817.53	227.95
817.85	227.94
818.17	227.93
818.48	227.90
818.80	227.91
819.12	227.87
819.44	227.81
819.76	227.80
820.07	227.81
820.39	227.79
820.71	227.80
821.03	227.74
821.34	227.73
821.66	227.74
821.98	227.74
822.30	227.73
822.61	227.78
822.93	227.71
823.25	227.71
823.57	227.68
823.88	227.73
824.20	227.72
824.52	227.71
824.83	227.70
825.15	227.68
825.47	227.66
825.79	227.67
826.10	227.70
826.42	227.71
826.74	227.68
827.05	227.65
827.37	227.59
827.69	227.60
828.00	227.61
828.32	227.60
828.64	227.58
828.95	227.61
829.27	227.59
829.58	227.60
829.90	227.61
830.22	227.61
830.53	227.55
830.85	227.48
831.17	227.44
831.48	227.40
831.80	227.37
832.11	227.40
832.43	227.38
832.75	227.37
833.06	227.38
833.38	227.38
833.69	227.35
834.01	227.38
834.32	227.37
834.64	227.33
834.96	227.33
835.27	227.32
835.59	227.29
835.90	227.24
836.22	227.20
836.53	227.19
836.85	227.14
837.16	227.22
837.48	227.23
837.79	227.27
838.11	227.28
838.42	227.29
838.74	227.22
839.05	227.23
839.37	227.21
839.68	227.15
840.00	227.15
840.31	227.17
840.63	227.14
840.94	227.11
841.26	227.12
841.57	227.10
841.88	227.08
842.20	227.07
842.51	227.05
842.83	227.06
843.14	227.12
843.46	227.12
843.77	227.05
844.08	227.02
844.40	226.99
844.71	226.99
845.03	226.97
845.34	226.99
845.65	226.95
845.97	226.93
846.28	226.94
846.60	226.93
846.91	226.90
847.22	226.86
847.54	226.87
847.85	226.87
848.16	226.83
848.48	226.81
848.79	226.83
849.10	226.83
849.42	226.82
849.73	226.72
850.04	226.71
850.36	226.67
850.67	226.71
850.98	226.71
851.30	226.72
851.61	226.71
851.92	226.67
852.23	226.71
852.55	226.74
852.86	226.74
853.17	226.75
853.49	226.78
853.80	226.80
854.11	226.82
854.42	226.81
854.74	226.81
855.05	226.80
855.36	226.77
855.67	226.78
855.99	226.79
856.30	226.93
856.61	226.93
856.92	226.94
857.23	226.90
857.55	226.87
857.86	226.82
858.17	226.84
858.48	226.82
858.79	226.79
859.11	226.79
859.42	226.77
859.73	226.73
860.04	226.73
860.35	226.73
860.66	226.70
860.98	226.70
861.29	226.73
861.60	226.71
861.91	226.74
862.22	226.71
862.53	226.68
862.84	226.51
863.16	226.53
863.47	226.55
863.78	226.55
864.09	226.59
864.40	226.63
864.71	226.61
865.02	226.67
865.33	226.65
865.64	226.63
865.95	226.63
866.27	226.71
866.58	226.66
866.89	226.66
867.20	226.62
867.51	226.61
867.82	226.61
868.13	226.61
868.44	226.56
868.75	226.55
869.06	226.55
869.37	226.57
869.68	226.53
869.99	226.52
870.30	226.54
870.61	226.52
870.92	226.48
871.23	226.47
871.54	226.46
871.85	226.48
872.16	226.50
872.47	226.48
872.78	226.44
873.09	226.45
873.40	226.45
873.71	226.47
874.02	226.48
874.33	226.46
874.64	226.48
874.95	226.49
875.26	226.49
875.56	226.50
875.87	226.50
876.18	226.51
876.49	226.59
876.80	226.58
877.11	226.60
877.42	226.60
877.73	226.62
878.04	226.61
878.35	226.61
878.66	226.59
878.96	226.61
879.27	226.58
879.58	226.61
879.89	226.60
880.20	226.64
880.51	226.59
880.82	226.58
881.12	226.59
881.43	226.57
881.74	226.54
882.05	226.54
882.36	226.53
882.67	226.56
882.97	226.46
883.28	226.45
883.59	226.44
883.90	226.43
884.21	226.46
884.51	226.44
884.82	226.44
885.13	226.41
885.44	226.38
885.74	226.41
886.05	226.39
886.36	226.40
886.67	226.35
886.98	226.46
887.28	226.50
887.59	226.47
887.90	226.51
888.20	226.53
888.51	226.56
888.82	226.55
889.13	226.49
889.43	226.56
889.74	226.57
890.05	226.55
890.35	226.57
890.66	226.53
890.97	226.52
891.28	226.50
891.58	226.53
891.89	226.52
892.20	226.51
892.50	226.49
892.81	226.44
893.12	226.48
893.42	226.38
893.73	226.35
894.04	226.39
894.34	226.35
894.65	226.35
894.95	226.31
895.26	226.31
895.57	226.38
895.87	226.29
896.18	226.29
896.48	226.30
896.79	226.26
897.10	226.27
897.40	226.29
897.71	226.32
898.01	226.30
898.32	226.33
898.63	226.32
898.93	226.34
899.24	226.36
899.54	226.31
899.85	226.32
900.15	226.34
900.46	226.28
900.76	226.31
901.07	226.35
901.38	226.37
901.68	226.41
901.99	226.35
902.29	226.38
902.60	226.38
902.90	226.36
903.21	226.39
903.51	226.40
903.82	226.42
904.12	226.41
904.43	226.42
904.73	226.38
905.03	226.38
905.34	226.46
905.64	226.47
905.95	226.47
906.25	226.48
906.56	226.48
906.86	226.52
907.17	226.51
907.47	226.50
907.77	226.47
908.08	226.46
908.38	226.47
908.69	226.46
908.99	226.46
909.30	226.49
909.60	226.48
909.90	226.46
910.21	226.40
910.51	226.41
910.81	226.40
911.12	226.44
911.42	226.47
911.73	226.39
912.03	226.36
912.33	226.37
912.64	226.34
912.94	226.30
913.24	226.27
913.55	226.28
913.85	226.26
914.15	226.27
914.46	226.27
914.76	226.26
915.06	226.26
915.37	226.24
915.67	226.23
915.97	226.24
916.27	226.21
916.58	226.22
916.88	226.20
917.18	226.18
917.49	226.24
917.79	226.20
918.09	226.20
918.39	226.24
918.70	226.25
919.00	226.26
919.30	226.35
919.60	226.33
919.91	226.31
920.21	226.31
920.51	226.30
920.81	226.33
921.12	226.33
921.42	226.35
921.72	226.34
922.02	226.33
922.32	226.33
922.63	226.34
922.93	226.39
923.23	226.41
923.53	226.42
923.83	226.35
924.13	226.39
924.44	226.38
924.74	226.40
925.04	226.42
925.34	226.38
925.64	226.32
925.94	226.32
926.24	226.37
926.55	226.37
926.85	226.38
927.15	226.37
927.45	226.36
927.75	226.33
928.05	226.33
928.35	226.34
928.65	226.35
928.95	226.37
929.26	226.34
929.56	226.35
929.86	226.32
930.16	226.31
930.46	226.28
930.76	226.29
931.06	226.28
931.36	226.26
931.66	226.33
931.96	226.33
932.26	226.35
932.56	226.28
932.86	226.28
933.16	226.28
933.46	226.24
933.76	226.20
934.06	226.24
934.36	226.29
934.66	226.28
934.96	226.25
935.26	226.26
935.56	226.26
935.86	226.23
936.16	226.25
936.46	226.25
936.76	226.25
937.06	226.21
937.36	226.22
937.66	226.22
937.96	226.18
938.26	226.18
938.56	226.16
938.86	226.21
939.16	226.23
939.46	226.25
939.76	226.30
940.06	226.34
940.35	226.35
940.65	226.28
940.95	226.30
941.25	226.31
941.55	226.27
941.85	226.26
942.15	226.29
942.45	226.32
942.75	226.32
943.04	226.32
943.34	226.37
943.64	226.32
943.94	226.31
944.24	226.34
944.54	226.36
944.84	226.35
945.13	226.33
945.43	226.30
945.73	226.29
946.03	226.23
946.33	226.21
946.62	226.15
946.92	226.18
947.22	226.16
947.52	226.16
947.82	226.20
948.11	226.18
948.41	226.18
948.71	226.16
949.01	226.16
949.31	226.16
949.60	226.15
949.90	226.19
950.20	226.17
950.50	226.14
950.79	226.09
951.09	226.11
951.39	226.10
951.69	226.09
951.98	226.05
952.28	226.06
952.58	226.06
952.87	226.08
953.17	226.06
953.47	226.07
953.76	226.05
954.06	226.01
954.36	226.01
954.66	225.97
954.95	225.97
955.25	225.96
955.55	225.96
955.84	225.96
956.14	225.94
956.44	225.99
956.73	225.94
957.03	225.97
957.32	225.98
957.62	225.99
957.92	226.01
958.21	226.04
958.51	226.15
958.81	226.15
959.10	226.17
959.40	226.17
959.69	226.18
959.99	226.20
960.29	226.21
960.58	226.18
960.88	226.23
961.17	226.23
961.47	226.25
961.76	226.23
962.06	226.23
962.36	226.20
962.65	226.16
962.95	226.20
963.24	226.21
963.54	226.18
963.83	226.20
964.13	226.19
964.42	226.15
964.72	226.11
965.01	226.10
965.31	226.06
965.60	226.05
965.90	226.12
966.19	226.08
966.49	226.12
966.78	226.17
967.08	226.13
967.37	226.12
967.67	226.10
967.96	226.14
968.26	226.10
968.55	226.12
968.85	226.14
969.14	226.14
969.43	226.13
969.73	226.14
970.02	226.13
970.32	226.13
970.61	226.11
970.91	226.05
971.20	226.08
971.49	226.08
971.79	226.11
972.08	226.06
972.38	226.09
972.67	226.07
972.96	226.10
973.26	226.11
973.55	226.14
973.85	226.12
974.14	226.11
974.43	226.17
974.73	226.14
975.02	226.14
975.31	226.15
975.61	226.13
975.90	226.13
976.19	226.14
976.49	226.16
976.78	226.20
977.07	226.22
977.37	226.22
977.66	226.24
977.95	226.23
978.24	226.21
978.54	226.22
978.83	226.23
979.12	226.22
979.42	226.24
979.71	226.22
980.00	226.22
980.29	226.25
980.59	226.21
980.88	226.28
981.17	226.28
981.46	226.28
981.76	226.31
982.05	226.28
982.34	226.26
982.63	226.24
982.93	226.24
983.22	226.27
983.51	226.26
983.80	226.28
984.09	226.27
984.39	226.27
984.68	226.24
984.97	226.23
985.26	226.19
985.55	226.14
985.85	226.16
986.14	226.17
986.43	226.15
986.72	226.14
987.01	226.08
987.30	226.08
987.59	226.07
987.89	226.06
988.18	226.07
988.47	226.06
988.76	226.07
989.05	226.04
989.34	226.01
989.63	226.01
989.92	225.99
990.22	225.98
990.51	225.98
990.80	226.00
991.09	225.99
991.38	226.00
991.67	226.03
991.96	225.98
992.25	225.96
992.54	225.92
992.83	225.91
993.12	225.90
993.41	225.92
993.70	225.97
993.99	226.00
994.28	226.01
994.58	226.03
994.87	226.03
995.16	226.04
995.45	226.04
995.74	226.03
996.03	226.03
996.32	226.02
996.61	226.05
996.90	226.06
997.19	226.08
997.48	226.09
997.77	226.09
998.06	226.11
998.34	226.11
998.63	226.14
998.92	226.16
999.21	226.19
999.50	226.15
999.79	226.08
1000.08	226.07
1000.37	226.07
1000.66	226.04
1000.95	226.03
1001.24	226.03
1001.53	226.03
1001.82	226.04
1002.11	226.03
1002.40	226.03
1002.68	226.04
1002.97	226.09
1003.26	226.08
1003.55	226.04
1003.84	226.02
1004.13	226.03
1004.42	226.03
1004.71	226.03
1004.99	226.01
1005.28	226.02
1005.57	226.05
1005.86	226.06
1006.15	226.07
1006.44	226.03
1006.72	226.04
1007.01	226.04
1007.30	226.03
1007.59	226.05
1007.88	226.01
1008.17	226.01
1008.45	226.03
1008.74	225.99
1009.03	225.93
1009.32	225.92
1009.60	225.93
1009.89	225.93
1010.18	225.90
1010.47	225.93
1010.76	225.92
1011.04	225.93
1011.33	225.95
1011.62	225.93
1011.91	225.96
1012.19	225.97
1012.48	226.01
1012.77	226.02
1013.05	226.07
1013.34	226.09
1013.63	226.07
1013.92	226.10
1014.20	226.11
1014.49	226.08
1014.78	226.08
1015.06	226.05
1015.35	226.08
1015.64	226.11
1015.92	226.15
1016.21	226.17
1016.50	226.16
1016.78	226.19
1017.07	226.21
1017.36	226.18
1017.64	226.18
1017.93	226.14
1018.22	226.11
1018.50	226.12
1018.79	226.14
1019.08	226.09
1019.36	226.09
1019.65	226.10
1019.93	226.14
1020.22	226.16
1020.51	226.23
1020.79	226.21
1021.08	225.82
1021.36	226.16
1021.65	226.46
1021.94	226.00
1022.22	226.14
1022.51	226.27
1022.79	226.78
1023.08	226.47
1023.36	227.24
1023.65	225.82
>>>>>End Processed Spectral Data<<<<<
