SpectraSuite Data File
++++++++++++++++++++++++++++++++++++
Date: Fri Feb 01 16:19:03 EST 2013
User: group
Dark Spectrum Present: No
Reference Spectrum Present: No
Number of Sampled Component Spectra: 1
Spectrometers: USB2E7196
Integration Time (usec): 35000 (USB2E7196)
Spectra Averaged: 100 (USB2E7196)
Boxcar Smoothing: 10 (USB2E7196)
Correct for Electrical Dark: No (USB2E7196)
Strobe/Lamp Enabled: No (USB2E7196)
Correct for Detector Non-linearity: No (USB2E7196)
Correct for Stray Light: No (USB2E7196)
Number of Pixels in Processed Spectrum: 2048
>>>>>Begin Processed Spectral Data<<<<<
339.09	0.00
339.48	213.60
339.86	215.61
340.24	216.32
340.63	218.77
341.01	221.04
341.39	220.83
341.78	221.74
342.16	222.99
342.54	223.88
342.93	212.28
343.31	222.97
343.69	223.53
344.07	223.97
344.46	224.44
344.84	224.77
345.22	225.00
345.60	225.24
345.99	225.43
346.37	225.58
346.75	225.66
347.13	225.75
347.52	225.81
347.90	225.90
348.28	225.91
348.66	225.98
349.05	225.98
349.43	226.02
349.81	226.05
350.19	226.09
350.57	226.18
350.96	226.24
351.34	226.35
351.72	226.44
352.10	226.57
352.48	226.62
352.87	226.70
353.25	226.80
353.63	226.88
354.01	226.96
354.39	227.07
354.77	227.15
355.15	227.24
355.54	227.30
355.92	227.34
356.30	227.42
356.68	227.57
357.06	227.65
357.44	227.71
357.82	227.79
358.20	227.88
358.58	227.94
358.97	228.01
359.35	228.10
359.73	228.16
360.11	228.18
360.49	228.23
360.87	228.29
361.25	228.31
361.63	228.38
362.01	228.43
362.39	228.42
362.77	228.48
363.15	228.51
363.53	228.52
363.91	228.53
364.29	228.54
364.67	228.45
365.05	228.47
365.43	228.49
365.81	228.50
366.19	228.55
366.57	228.57
366.95	228.58
367.33	228.52
367.71	228.50
368.09	228.52
368.47	228.51
368.85	228.47
369.23	228.47
369.61	228.43
369.99	228.43
370.37	228.41
370.75	228.40
371.13	228.35
371.51	228.32
371.89	228.28
372.27	228.25
372.65	228.21
373.03	228.14
373.41	228.09
373.78	228.04
374.16	227.93
374.54	227.83
374.92	227.73
375.30	227.69
375.68	227.61
376.06	227.57
376.44	227.51
376.82	227.42
377.19	227.35
377.57	227.26
377.95	227.17
378.33	227.14
378.71	227.02
379.09	226.96
379.47	226.90
379.84	226.84
380.22	226.78
380.60	226.71
380.98	226.65
381.36	226.60
381.73	226.51
382.11	226.46
382.49	226.43
382.87	226.34
383.25	226.29
383.62	226.36
384.00	226.26
384.38	226.20
384.76	226.20
385.13	226.18
385.51	226.14
385.89	226.10
386.27	226.04
386.64	225.99
387.02	225.93
387.40	225.88
387.78	225.85
388.15	225.81
388.53	225.75
388.91	225.74
389.29	225.68
389.66	225.66
390.04	225.62
390.42	225.62
390.79	225.62
391.17	225.60
391.55	225.51
391.92	225.51
392.30	225.50
392.68	225.46
393.05	225.46
393.43	225.46
393.81	225.44
394.18	225.43
394.56	225.42
394.94	225.46
395.31	225.45
395.69	225.47
396.06	225.48
396.44	225.52
396.82	225.53
397.19	225.61
397.57	225.64
397.95	225.72
398.32	225.74
398.70	225.81
399.07	225.86
399.45	225.91
399.82	225.96
400.20	226.02
400.58	226.10
400.95	226.15
401.33	226.26
401.70	226.41
402.08	226.53
402.45	226.66
402.83	226.79
403.20	226.90
403.58	226.98
403.95	227.11
404.33	227.26
404.71	227.37
405.08	227.58
405.46	227.70
405.83	227.82
406.21	227.99
406.58	228.14
406.96	228.31
407.33	228.47
407.70	228.69
408.08	228.96
408.45	229.18
408.83	229.42
409.20	229.63
409.58	229.80
409.95	230.06
410.33	230.31
410.70	230.58
411.08	230.90
411.45	231.25
411.82	231.56
412.20	231.97
412.57	232.40
412.95	232.67
413.32	233.10
413.69	233.52
414.07	233.94
414.44	234.44
414.82	234.92
415.19	235.49
415.56	236.04
415.94	236.61
416.31	237.26
416.68	237.88
417.06	238.58
417.43	239.26
417.81	240.03
418.18	240.83
418.55	241.65
418.93	242.54
419.30	243.47
419.67	244.44
420.04	245.35
420.42	246.34
420.79	247.53
421.16	248.70
421.54	249.92
421.91	251.13
422.28	252.37
422.66	253.70
423.03	255.01
423.40	256.35
423.77	257.75
424.15	259.17
424.52	260.66
424.89	262.27
425.26	263.84
425.64	265.28
426.01	266.87
426.38	268.51
426.75	270.20
427.13	271.88
427.50	273.65
427.87	275.50
428.24	277.38
428.61	279.12
428.99	281.04
429.36	283.10
429.73	285.17
430.10	287.22
430.47	289.24
430.85	291.34
431.22	293.55
431.59	295.90
431.96	298.12
432.33	300.61
432.70	303.02
433.08	305.83
433.45	308.44
433.82	311.05
434.19	313.93
434.56	316.68
434.93	319.32
435.30	321.91
435.68	324.80
436.05	327.62
436.42	330.39
436.79	332.86
437.16	335.58
437.53	338.38
437.90	341.16
438.27	343.89
438.64	346.71
439.01	349.33
439.38	351.54
439.75	353.71
440.13	356.17
440.50	358.41
440.87	360.19
441.24	362.16
441.61	364.30
441.98	365.80
442.35	367.57
442.72	369.42
443.09	371.27
443.46	372.19
443.83	372.74
444.20	373.22
444.57	374.09
444.94	374.34
445.31	374.68
445.68	375.00
446.05	375.06
446.42	374.62
446.79	374.13
447.16	373.67
447.53	373.33
447.90	372.14
448.27	371.01
448.64	369.49
449.01	368.34
449.37	366.32
449.74	364.40
450.11	362.17
450.48	359.72
450.85	357.14
451.22	355.03
451.59	353.01
451.96	351.04
452.33	348.39
452.70	346.01
453.07	343.19
453.43	340.32
453.80	337.58
454.17	334.92
454.54	332.42
454.91	329.71
455.28	327.07
455.65	324.60
456.02	322.13
456.38	319.97
456.75	317.29
457.12	315.08
457.49	312.88
457.86	310.74
458.23	308.87
458.59	306.84
458.96	304.78
459.33	302.93
459.70	301.15
460.07	299.69
460.43	298.00
460.80	296.37
461.17	294.96
461.54	293.51
461.91	292.09
462.27	290.65
462.64	289.43
463.01	288.04
463.38	286.75
463.74	285.41
464.11	284.24
464.48	283.26
464.85	282.15
465.21	281.29
465.58	280.36
465.95	279.26
466.32	278.36
466.68	277.47
467.05	276.61
467.42	275.71
467.78	274.76
468.15	273.91
468.52	273.28
468.88	272.42
469.25	271.68
469.62	271.07
469.98	270.44
470.35	269.79
470.72	269.24
471.08	268.58
471.45	268.04
471.82	267.50
472.18	266.87
472.55	266.43
472.92	265.91
473.28	265.46
473.65	265.03
474.02	264.59
474.38	264.21
474.75	263.89
475.11	263.53
475.48	263.30
475.85	263.06
476.21	262.81
476.58	262.63
476.94	262.42
477.31	262.25
477.67	262.06
478.04	261.98
478.41	261.92
478.77	261.98
479.14	261.92
479.50	261.94
479.87	262.04
480.23	262.16
480.60	262.22
480.96	262.33
481.33	262.53
481.69	262.74
482.06	262.97
482.42	263.14
482.79	263.43
483.15	263.73
483.52	264.11
483.88	264.47
484.25	264.85
484.61	265.28
484.98	265.77
485.34	266.34
485.71	266.93
486.07	267.53
486.44	268.11
486.80	268.85
487.17	269.63
487.53	270.46
487.90	271.32
488.26	272.26
488.62	273.24
488.99	274.24
489.35	275.27
489.72	276.37
490.08	277.55
490.44	278.80
490.81	280.15
491.17	281.46
491.54	282.95
491.90	284.48
492.26	286.13
492.63	287.87
492.99	289.66
493.36	291.56
493.72	293.61
494.08	295.74
494.45	297.96
494.81	300.30
495.17	302.74
495.54	305.30
495.90	307.98
496.26	310.77
496.63	313.72
496.99	316.87
497.35	320.17
497.72	323.61
498.08	327.15
498.44	330.83
498.80	334.81
499.17	338.82
499.53	343.06
499.89	347.48
500.26	351.99
500.62	356.70
500.98	361.71
501.34	366.81
501.71	372.16
502.07	377.65
502.43	383.31
502.79	389.10
503.16	395.18
503.52	401.50
503.88	407.96
504.24	414.62
504.60	421.55
504.97	428.67
505.33	435.98
505.69	443.69
506.05	451.43
506.41	459.33
506.78	467.57
507.14	475.98
507.50	484.69
507.86	493.73
508.22	502.93
508.59	512.16
508.95	521.77
509.31	531.59
509.67	541.65
510.03	551.88
510.39	562.49
510.75	573.30
511.12	584.21
511.48	595.49
511.84	606.96
512.20	618.47
512.56	630.37
512.92	642.58
513.28	654.96
513.64	667.49
514.00	680.18
514.37	693.07
514.73	706.15
515.09	719.21
515.45	732.51
515.81	746.04
516.17	760.06
516.53	774.18
516.89	788.36
517.25	802.50
517.61	816.93
517.97	831.32
518.33	845.73
518.69	860.49
519.05	875.50
519.41	890.68
519.77	906.17
520.13	921.70
520.49	937.00
520.85	952.35
521.21	968.08
521.57	984.31
521.93	1000.14
522.29	1016.58
522.65	1032.85
523.01	1048.97
523.37	1065.08
523.73	1081.10
524.09	1097.10
524.45	1113.38
524.81	1130.02
525.17	1146.84
525.53	1163.81
525.89	1180.63
526.25	1197.48
526.61	1213.75
526.97	1230.51
527.33	1246.91
527.68	1263.47
528.04	1279.98
528.40	1296.57
528.76	1313.62
529.12	1330.17
529.48	1346.97
529.84	1362.75
530.20	1379.32
530.56	1396.32
530.91	1413.57
531.27	1430.32
531.63	1446.80
531.99	1463.36
532.35	1479.21
532.71	1495.11
533.07	1511.15
533.42	1526.98
533.78	1543.01
534.14	1559.27
534.50	1574.50
534.86	1590.30
535.21	1605.36
535.57	1621.26
535.93	1636.69
536.29	1651.32
536.65	1666.21
537.00	1680.78
537.36	1696.14
537.72	1710.41
538.08	1724.72
538.44	1738.49
538.79	1752.38
539.15	1766.00
539.51	1779.58
539.87	1793.89
540.22	1807.58
540.58	1821.29
540.94	1834.65
541.29	1847.44
541.65	1860.05
542.01	1873.22
542.37	1885.47
542.72	1897.80
543.08	1909.44
543.44	1921.70
543.79	1932.97
544.15	1943.93
544.51	1955.55
544.87	1966.47
545.22	1977.43
545.58	1987.57
545.94	1997.33
546.29	2006.98
546.65	2016.81
547.01	2026.14
547.36	2034.80
547.72	2043.11
548.07	2050.95
548.43	2058.94
548.79	2066.90
549.14	2074.49
549.50	2081.75
549.86	2089.43
550.21	2096.94
550.57	2104.05
550.92	2110.56
551.28	2117.53
551.64	2124.65
551.99	2131.12
552.35	2137.16
552.70	2143.25
553.06	2149.26
553.41	2155.56
553.77	2161.61
554.13	2167.65
554.48	2173.73
554.84	2179.24
555.19	2184.60
555.55	2189.81
555.90	2194.34
556.26	2199.20
556.61	2203.83
556.97	2208.18
557.32	2212.30
557.68	2216.30
558.03	2220.64
558.39	2224.43
558.74	2229.10
559.10	2232.95
559.45	2236.52
559.81	2240.88
560.16	2244.77
560.52	2248.07
560.87	2251.56
561.23	2254.25
561.58	2257.09
561.94	2259.48
562.29	2261.77
562.64	2264.41
563.00	2266.99
563.35	2270.59
563.71	2273.70
564.06	2276.97
564.42	2279.76
564.77	2282.48
565.12	2284.71
565.48	2286.74
565.83	2288.63
566.19	2289.89
566.54	2290.76
566.89	2292.12
567.25	2292.73
567.60	2294.01
567.96	2295.62
568.31	2296.32
568.66	2297.46
569.02	2298.06
569.37	2298.59
569.72	2299.64
570.08	2299.71
570.43	2299.68
570.78	2299.13
571.14	2297.56
571.49	2296.21
571.84	2295.99
572.20	2294.78
572.55	2293.84
572.90	2292.30
573.26	2291.02
573.61	2289.43
573.96	2287.78
574.31	2284.79
574.67	2281.85
575.02	2278.27
575.37	2274.93
575.72	2271.28
576.08	2267.88
576.43	2264.60
576.78	2260.88
577.13	2257.54
577.49	2254.61
577.84	2251.26
578.19	2247.50
578.54	2244.07
578.90	2239.92
579.25	2234.34
579.60	2229.43
579.95	2224.41
580.30	2219.38
580.66	2214.28
581.01	2209.34
581.36	2204.51
581.71	2200.39
582.06	2196.07
582.42	2191.69
582.77	2186.64
583.12	2182.27
583.47	2177.76
583.82	2172.88
584.17	2167.67
584.53	2162.37
584.88	2156.80
585.23	2151.14
585.58	2145.61
585.93	2140.18
586.28	2135.62
586.63	2130.70
586.98	2125.62
587.34	2120.93
587.69	2116.12
588.04	2110.70
588.39	2105.10
588.74	2098.57
589.09	2092.45
589.44	2085.63
589.79	2079.65
590.14	2074.03
590.49	2067.36
590.84	2061.02
591.19	2055.04
591.54	2048.61
591.89	2041.24
592.25	2034.48
592.60	2027.21
592.95	2019.78
593.30	2012.39
593.65	2004.63
594.00	1997.54
594.35	1990.36
594.70	1982.42
595.05	1975.27
595.40	1968.17
595.75	1960.67
596.10	1954.53
596.45	1947.95
596.80	1941.81
597.15	1935.25
597.50	1928.21
597.85	1921.83
598.19	1915.12
598.54	1907.94
598.89	1901.25
599.24	1895.39
599.59	1888.65
599.94	1882.55
600.29	1876.32
600.64	1869.84
600.99	1862.40
601.34	1855.66
601.69	1848.77
602.04	1841.93
602.39	1834.48
602.74	1827.59
603.08	1820.93
603.43	1814.21
603.78	1806.80
604.13	1799.62
604.48	1792.32
604.83	1785.38
605.18	1778.38
605.53	1770.43
605.87	1762.57
606.22	1755.44
606.57	1747.54
606.92	1740.33
607.27	1733.14
607.62	1726.15
607.96	1718.85
608.31	1712.36
608.66	1704.67
609.01	1697.04
609.36	1689.49
609.70	1681.63
610.05	1673.65
610.40	1665.87
610.75	1657.50
611.10	1649.84
611.44	1641.41
611.79	1633.26
612.14	1624.65
612.49	1615.52
612.83	1607.19
613.18	1599.04
613.53	1590.98
613.88	1582.27
614.22	1574.06
614.57	1565.42
614.92	1557.44
615.27	1549.87
615.61	1541.54
615.96	1533.56
616.31	1526.03
616.65	1518.68
617.00	1511.08
617.35	1503.27
617.70	1494.98
618.04	1486.56
618.39	1478.39
618.74	1470.81
619.08	1462.60
619.43	1454.91
619.78	1447.95
620.12	1440.72
620.47	1433.15
620.82	1425.06
621.16	1417.89
621.51	1410.20
621.85	1402.56
622.20	1393.94
622.55	1385.59
622.89	1377.70
623.24	1370.07
623.59	1362.62
623.93	1354.93
624.28	1347.68
624.62	1340.33
624.97	1333.06
625.32	1326.26
625.66	1319.09
626.01	1311.98
626.35	1304.47
626.70	1296.80
627.04	1289.08
627.39	1281.33
627.73	1273.97
628.08	1266.97
628.43	1259.46
628.77	1252.03
629.12	1244.49
629.46	1237.35
629.81	1229.83
630.15	1222.58
630.50	1215.12
630.84	1206.89
631.19	1199.01
631.53	1191.42
631.88	1183.77
632.22	1176.13
632.57	1168.80
632.91	1161.28
633.26	1153.75
633.60	1146.39
633.95	1139.23
634.29	1132.19
634.64	1125.44
634.98	1117.96
635.32	1110.75
635.67	1104.17
636.01	1097.56
636.36	1090.71
636.70	1084.16
637.05	1077.65
637.39	1071.10
637.73	1064.61
638.08	1058.69
638.42	1052.68
638.77	1046.20
639.11	1039.64
639.45	1033.31
639.80	1026.68
640.14	1020.26
640.49	1013.70
640.83	1007.41
641.17	1001.14
641.52	994.66
641.86	988.24
642.20	982.47
642.55	976.10
642.89	969.62
643.23	963.11
643.58	957.37
643.92	951.22
644.26	945.11
644.61	939.09
644.95	932.87
645.29	926.26
645.64	919.58
645.98	913.27
646.32	907.37
646.66	901.29
647.01	895.53
647.35	889.89
647.69	884.03
648.04	878.50
648.38	872.68
648.72	866.79
649.06	860.67
649.41	854.75
649.75	848.90
650.09	842.99
650.43	837.13
650.78	830.91
651.12	824.97
651.46	819.20
651.80	813.48
652.14	808.27
652.49	802.90
652.83	797.66
653.17	791.94
653.51	786.16
653.85	780.78
654.20	774.99
654.54	768.94
654.88	763.26
655.22	757.33
655.56	751.69
655.90	746.26
656.25	741.10
656.59	735.77
656.93	730.60
657.27	725.40
657.61	719.95
657.95	714.90
658.29	709.80
658.64	704.58
658.98	699.27
659.32	693.76
659.66	688.55
660.00	683.18
660.34	678.31
660.68	673.48
661.02	668.42
661.36	663.73
661.70	659.21
662.05	654.75
662.39	650.41
662.73	645.96
663.07	641.52
663.41	636.95
663.75	632.38
664.09	627.84
664.43	623.44
664.77	619.34
665.11	615.07
665.45	610.84
665.79	606.78
666.13	602.65
666.47	598.58
666.81	594.45
667.15	590.37
667.49	586.40
667.83	582.55
668.17	578.62
668.51	574.58
668.85	570.54
669.19	566.73
669.53	562.89
669.87	558.94
670.21	555.25
670.55	551.68
670.89	548.29
671.23	544.78
671.57	541.27
671.91	537.67
672.25	534.11
672.58	530.66
672.92	527.20
673.26	524.04
673.60	520.86
673.94	517.72
674.28	514.81
674.62	511.88
674.96	508.81
675.30	505.86
675.64	502.88
675.97	500.11
676.31	497.20
676.65	494.23
676.99	491.54
677.33	488.64
677.67	485.77
678.01	482.70
678.34	479.69
678.68	476.82
679.02	474.03
679.36	471.31
679.70	468.50
680.04	465.79
680.37	462.91
680.71	460.08
681.05	457.44
681.39	454.70
681.73	452.00
682.06	449.42
682.40	446.93
682.74	444.42
683.08	441.83
683.42	439.29
683.75	436.76
684.09	434.21
684.43	431.77
684.77	429.32
685.10	426.96
685.44	424.72
685.78	422.42
686.12	420.13
686.45	417.82
686.79	415.56
687.13	413.30
687.46	411.13
687.80	409.00
688.14	406.74
688.48	404.69
688.81	402.46
689.15	400.27
689.49	398.12
689.82	396.03
690.16	393.93
690.50	391.94
690.83	390.04
691.17	388.00
691.51	386.11
691.84	384.29
692.18	382.34
692.52	380.34
692.85	378.43
693.19	376.58
693.52	374.75
693.86	372.91
694.20	371.12
694.53	369.30
694.87	367.44
695.21	365.69
695.54	363.86
695.88	362.18
696.21	360.50
696.55	358.77
696.88	357.02
697.22	355.39
697.56	353.79
697.89	352.13
698.23	350.52
698.56	348.84
698.90	347.24
699.23	345.62
699.57	344.09
699.90	342.52
700.24	340.99
700.58	339.47
700.91	337.97
701.25	336.56
701.58	335.23
701.92	333.83
702.25	332.45
702.59	331.08
702.92	329.64
703.26	328.35
703.59	327.09
703.93	325.93
704.26	324.65
704.60	323.35
704.93	322.11
705.26	320.89
705.60	319.73
705.93	318.54
706.27	317.48
706.60	316.39
706.94	315.30
707.27	314.14
707.61	313.05
707.94	312.02
708.27	310.88
708.61	309.74
708.94	308.77
709.28	307.80
709.61	306.88
709.94	305.99
710.28	304.95
710.61	303.94
710.95	302.88
711.28	301.99
711.61	301.03
711.95	300.11
712.28	299.17
712.61	298.18
712.95	297.28
713.28	296.41
713.61	295.54
713.95	294.66
714.28	293.82
714.61	292.95
714.95	292.15
715.28	291.33
715.61	290.46
715.95	289.57
716.28	288.70
716.61	287.82
716.95	287.00
717.28	286.25
717.61	285.49
717.94	284.74
718.28	283.91
718.61	283.17
718.94	282.50
719.27	281.82
719.61	281.19
719.94	280.50
720.27	279.76
720.60	279.13
720.94	278.49
721.27	277.88
721.60	277.30
721.93	276.65
722.27	276.07
722.60	275.54
722.93	274.98
723.26	274.46
723.59	273.88
723.93	273.28
724.26	272.72
724.59	272.19
724.92	271.69
725.25	271.23
725.59	270.71
725.92	270.18
726.25	269.68
726.58	269.20
726.91	268.73
727.24	268.27
727.57	267.73
727.91	267.23
728.24	266.80
728.57	266.28
728.90	265.86
729.23	265.36
729.56	264.89
729.89	264.42
730.22	263.94
730.55	263.46
730.89	263.06
731.22	262.58
731.55	262.13
731.88	261.71
732.21	261.26
732.54	260.83
732.87	260.42
733.20	260.03
733.53	259.60
733.86	259.19
734.19	258.76
734.52	258.39
734.85	258.09
735.18	257.62
735.51	257.26
735.84	256.87
736.17	256.54
736.50	256.13
736.83	255.91
737.16	255.57
737.49	255.26
737.82	254.94
738.15	254.61
738.48	254.24
738.81	253.89
739.14	253.56
739.47	253.24
739.80	252.91
740.13	252.58
740.46	252.25
740.79	251.93
741.12	251.63
741.45	251.35
741.78	250.98
742.11	250.74
742.44	250.43
742.77	250.15
743.10	249.84
743.43	249.58
743.75	249.19
744.08	249.05
744.41	248.78
744.74	248.48
745.07	248.22
745.40	248.00
745.73	247.78
746.06	247.52
746.39	247.28
746.71	247.03
747.04	246.77
747.37	246.52
747.70	246.26
748.03	246.01
748.36	245.76
748.68	245.55
749.01	245.31
749.34	245.10
749.67	244.85
750.00	244.65
750.33	244.48
750.65	244.28
750.98	243.90
751.31	243.68
751.64	243.45
751.97	243.30
752.29	243.09
752.62	242.83
752.95	242.62
753.28	242.39
753.60	242.16
753.93	241.97
754.26	241.79
754.59	241.60
754.91	241.41
755.24	241.18
755.57	240.95
755.90	240.75
756.22	240.57
756.55	240.37
756.88	240.16
757.20	239.94
757.53	239.74
757.86	239.61
758.19	239.47
758.51	239.33
758.84	239.10
759.17	238.92
759.49	238.76
759.82	238.63
760.15	238.48
760.47	238.35
760.80	238.21
761.13	238.07
761.45	237.90
761.78	237.78
762.11	237.67
762.43	237.52
762.76	237.38
763.08	237.24
763.41	237.11
763.74	236.99
764.06	236.83
764.39	236.70
764.71	236.56
765.04	236.40
765.37	236.26
765.69	236.14
766.02	236.02
766.34	235.88
766.67	235.74
767.00	235.64
767.32	235.60
767.65	235.53
767.97	235.39
768.30	235.28
768.62	235.18
768.95	235.06
769.27	234.96
769.60	234.85
769.92	234.73
770.25	234.60
770.57	234.50
770.90	234.42
771.22	234.32
771.55	234.21
771.87	234.12
772.20	234.03
772.52	234.02
772.85	234.05
773.17	233.97
773.50	233.85
773.82	233.74
774.15	233.62
774.47	233.48
774.80	233.39
775.12	233.33
775.45	233.25
775.77	233.16
776.09	233.13
776.42	233.05
776.74	233.03
777.07	232.95
777.39	232.90
777.72	232.81
778.04	232.76
778.36	232.70
778.69	232.65
779.01	232.60
779.33	232.46
779.66	232.24
779.98	232.17
780.31	232.15
780.63	232.13
780.95	232.07
781.28	232.01
781.60	231.96
781.92	231.88
782.25	231.79
782.57	231.74
782.89	231.69
783.22	231.62
783.54	231.53
783.86	231.50
784.19	231.42
784.51	231.41
784.83	231.32
785.16	231.25
785.48	231.19
785.80	231.16
786.12	231.13
786.45	231.13
786.77	231.10
787.09	231.04
787.42	230.98
787.74	230.91
788.06	230.89
788.38	230.82
788.71	230.79
789.03	230.76
789.35	230.76
789.67	230.68
789.99	230.65
790.32	230.57
790.64	230.54
790.96	230.56
791.28	230.47
791.61	230.43
791.93	230.39
792.25	230.34
792.57	230.33
792.89	230.24
793.21	230.18
793.54	230.11
793.86	230.07
794.18	230.01
794.50	229.98
794.82	229.90
795.14	229.90
795.47	229.86
795.79	229.86
796.11	229.77
796.43	229.74
796.75	229.72
797.07	229.69
797.39	229.64
797.71	229.55
798.04	229.54
798.36	229.49
798.68	229.45
799.00	229.44
799.32	229.38
799.64	229.40
799.96	229.39
800.28	229.36
800.60	229.33
800.92	229.29
801.24	229.23
801.56	229.24
801.89	229.20
802.21	229.18
802.53	229.09
802.85	229.08
803.17	229.07
803.49	229.00
803.81	228.94
804.13	228.90
804.45	228.86
804.77	228.80
805.09	228.79
805.41	228.77
805.73	228.74
806.05	228.68
806.37	228.63
806.69	228.57
807.01	228.54
807.33	228.53
807.65	228.45
807.97	228.51
808.28	228.43
808.60	228.41
808.92	228.36
809.24	228.42
809.56	228.39
809.88	228.35
810.20	228.37
810.52	228.37
810.84	228.33
811.16	228.30
811.48	228.30
811.80	228.32
812.12	228.29
812.43	228.23
812.75	228.20
813.07	228.19
813.39	228.22
813.71	228.19
814.03	228.16
814.35	228.14
814.67	228.07
814.98	228.02
815.30	227.98
815.62	227.96
815.94	227.86
816.26	227.84
816.58	227.80
816.89	227.76
817.21	227.72
817.53	227.71
817.85	227.69
818.17	227.64
818.48	227.58
818.80	227.59
819.12	227.57
819.44	227.55
819.76	227.50
820.07	227.45
820.39	227.41
820.71	227.37
821.03	227.37
821.34	227.34
821.66	227.36
821.98	227.34
822.30	227.32
822.61	227.37
822.93	227.31
823.25	227.28
823.57	227.26
823.88	227.27
824.20	227.27
824.52	227.29
824.83	227.30
825.15	227.29
825.47	227.28
825.79	227.31
826.10	227.25
826.42	227.25
826.74	227.26
827.05	227.26
827.37	227.27
827.69	227.27
828.00	227.26
828.32	227.27
828.64	227.23
828.95	227.28
829.27	227.25
829.58	227.28
829.90	227.30
830.22	227.28
830.53	227.27
830.85	227.28
831.17	227.25
831.48	227.25
831.80	227.21
832.11	227.18
832.43	227.18
832.75	227.23
833.06	227.28
833.38	227.21
833.69	227.22
834.01	227.19
834.32	227.21
834.64	227.20
834.96	227.20
835.27	227.27
835.59	227.20
835.90	227.18
836.22	227.16
836.53	227.15
836.85	227.16
837.16	227.23
837.48	227.17
837.79	227.20
838.11	227.18
838.42	227.23
838.74	227.26
839.05	227.24
839.37	227.20
839.68	227.14
840.00	227.16
840.31	227.18
840.63	227.19
840.94	227.17
841.26	227.15
841.57	227.13
841.88	227.09
842.20	227.09
842.51	227.06
842.83	227.07
843.14	227.15
843.46	227.16
843.77	227.07
844.08	227.08
844.40	227.08
844.71	227.04
845.03	227.01
845.34	226.99
845.65	226.95
845.97	226.97
846.28	226.95
846.60	226.94
846.91	226.91
847.22	226.88
847.54	226.89
847.85	226.90
848.16	226.89
848.48	226.88
848.79	226.92
849.10	226.91
849.42	226.90
849.73	226.81
850.04	226.78
850.36	226.75
850.67	226.76
850.98	226.71
851.30	226.73
851.61	226.70
851.92	226.68
852.23	226.70
852.55	226.68
852.86	226.68
853.17	226.71
853.49	226.75
853.80	226.76
854.11	226.74
854.42	226.76
854.74	226.73
855.05	226.69
855.36	226.61
855.67	226.59
855.99	226.57
856.30	226.64
856.61	226.64
856.92	226.64
857.23	226.65
857.55	226.65
857.86	226.63
858.17	226.67
858.48	226.64
858.79	226.61
859.11	226.60
859.42	226.58
859.73	226.52
860.04	226.48
860.35	226.43
860.66	226.41
860.98	226.37
861.29	226.40
861.60	226.41
861.91	226.46
862.22	226.45
862.53	226.44
862.84	226.32
863.16	226.31
863.47	226.31
863.78	226.26
864.09	226.23
864.40	226.21
864.71	226.19
865.02	226.21
865.33	226.18
865.64	226.15
865.95	226.12
866.27	226.19
866.58	226.15
866.89	226.17
867.20	226.16
867.51	226.15
867.82	226.12
868.13	226.15
868.44	226.14
868.75	226.17
869.06	226.15
869.37	226.18
869.68	226.16
869.99	226.16
870.30	226.18
870.61	226.26
870.92	226.26
871.23	226.27
871.54	226.29
871.85	226.36
872.16	226.38
872.47	226.41
872.78	226.37
873.09	226.42
873.40	226.41
873.71	226.40
874.02	226.42
874.33	226.44
874.64	226.44
874.95	226.41
875.26	226.43
875.56	226.44
875.87	226.43
876.18	226.45
876.49	226.55
876.80	226.53
877.11	226.49
877.42	226.52
877.73	226.53
878.04	226.50
878.35	226.49
878.66	226.49
878.96	226.45
879.27	226.45
879.58	226.44
879.89	226.47
880.20	226.50
880.51	226.51
880.82	226.52
881.12	226.51
881.43	226.55
881.74	226.55
882.05	226.52
882.36	226.52
882.67	226.54
882.97	226.44
883.28	226.43
883.59	226.46
883.90	226.46
884.21	226.47
884.51	226.51
884.82	226.50
885.13	226.49
885.44	226.49
885.74	226.49
886.05	226.49
886.36	226.46
886.67	226.43
886.98	226.48
887.28	226.48
887.59	226.49
887.90	226.46
888.20	226.40
888.51	226.47
888.82	226.45
889.13	226.46
889.43	226.53
889.74	226.54
890.05	226.51
890.35	226.49
890.66	226.48
890.97	226.46
891.28	226.42
891.58	226.45
891.89	226.51
892.20	226.51
892.50	226.47
892.81	226.48
893.12	226.48
893.42	226.38
893.73	226.37
894.04	226.34
894.34	226.35
894.65	226.35
894.95	226.31
895.26	226.34
895.57	226.38
895.87	226.30
896.18	226.29
896.48	226.31
896.79	226.30
897.10	226.29
897.40	226.28
897.71	226.28
898.01	226.26
898.32	226.22
898.63	226.21
898.93	226.20
899.24	226.21
899.54	226.21
899.85	226.23
900.15	226.21
900.46	226.23
900.76	226.21
901.07	226.18
901.38	226.16
901.68	226.12
901.99	226.06
902.29	226.04
902.60	226.02
902.90	225.98
903.21	225.98
903.51	225.98
903.82	226.00
904.12	225.97
904.43	225.95
904.73	225.97
905.03	225.98
905.34	226.05
905.64	225.98
905.95	226.02
906.25	226.02
906.56	226.01
906.86	225.99
907.17	226.01
907.47	226.04
907.77	226.05
908.08	226.05
908.38	226.05
908.69	226.08
908.99	226.08
909.30	226.09
909.60	226.08
909.90	226.09
910.21	226.07
910.51	226.10
910.81	226.13
911.12	226.12
911.42	226.13
911.73	226.11
912.03	226.19
912.33	226.17
912.64	226.16
912.94	226.20
913.24	226.15
913.55	226.15
913.85	226.16
914.15	226.20
914.46	226.21
914.76	226.20
915.06	226.21
915.37	226.21
915.67	226.26
915.97	226.26
916.27	226.23
916.58	226.24
916.88	226.22
917.18	226.22
917.49	226.33
917.79	226.31
918.09	226.30
918.39	226.32
918.70	226.35
919.00	226.37
919.30	226.38
919.60	226.42
919.91	226.39
920.21	226.39
920.51	226.38
920.81	226.41
921.12	226.46
921.42	226.44
921.72	226.49
922.02	226.47
922.32	226.46
922.63	226.48
922.93	226.52
923.23	226.53
923.53	226.52
923.83	226.40
924.13	226.42
924.44	226.44
924.74	226.46
925.04	226.44
925.34	226.44
925.64	226.41
925.94	226.38
926.24	226.48
926.55	226.46
926.85	226.46
927.15	226.45
927.45	226.43
927.75	226.42
928.05	226.40
928.35	226.36
928.65	226.40
928.95	226.40
929.26	226.37
929.56	226.40
929.86	226.39
930.16	226.42
930.46	226.41
930.76	226.38
931.06	226.32
931.36	226.34
931.66	226.34
931.96	226.36
932.26	226.37
932.56	226.30
932.86	226.30
933.16	226.32
933.46	226.30
933.76	226.28
934.06	226.31
934.36	226.34
934.66	226.35
934.96	226.36
935.26	226.34
935.56	226.33
935.86	226.30
936.16	226.28
936.46	226.24
936.76	226.24
937.06	226.19
937.36	226.18
937.66	226.15
937.96	226.14
938.26	226.08
938.56	226.08
938.86	226.07
939.16	226.09
939.46	226.05
939.76	226.04
940.06	226.04
940.35	225.99
940.65	225.93
940.95	225.90
941.25	225.83
941.55	225.80
941.85	225.78
942.15	225.78
942.45	225.76
942.75	225.74
943.04	225.71
943.34	225.74
943.64	225.73
943.94	225.68
944.24	225.69
944.54	225.70
944.84	225.71
945.13	225.70
945.43	225.64
945.73	225.64
946.03	225.64
946.33	225.62
946.62	225.66
946.92	225.64
947.22	225.66
947.52	225.68
947.82	225.73
948.11	225.72
948.41	225.72
948.71	225.76
949.01	225.79
949.31	225.81
949.60	225.83
949.90	225.87
950.20	225.91
950.50	225.93
950.79	225.93
951.09	225.93
951.39	225.95
951.69	225.98
951.98	226.03
952.28	226.04
952.58	226.04
952.87	226.04
953.17	226.09
953.47	226.10
953.76	226.11
954.06	226.08
954.36	226.09
954.66	226.08
954.95	226.12
955.25	226.14
955.55	226.14
955.84	226.15
956.14	226.14
956.44	226.15
956.73	226.14
957.03	226.15
957.32	226.16
957.62	226.21
957.92	226.24
958.21	226.22
958.51	226.32
958.81	226.38
959.10	226.38
959.40	226.40
959.69	226.40
959.99	226.43
960.29	226.46
960.58	226.49
960.88	226.55
961.17	226.52
961.47	226.53
961.76	226.54
962.06	226.56
962.36	226.56
962.65	226.56
962.95	226.56
963.24	226.56
963.54	226.55
963.83	226.53
964.13	226.52
964.42	226.47
964.72	226.39
965.01	226.37
965.31	226.38
965.60	226.35
965.90	226.39
966.19	226.33
966.49	226.30
966.78	226.28
967.08	226.22
967.37	226.20
967.67	226.18
967.96	226.20
968.26	226.15
968.55	226.12
968.85	226.10
969.14	226.08
969.43	226.07
969.73	226.04
970.02	226.02
970.32	225.97
970.61	225.98
970.91	225.93
971.20	225.90
971.49	225.88
971.79	225.88
972.08	225.80
972.38	225.79
972.67	225.75
972.96	225.73
973.26	225.72
973.55	225.75
973.85	225.70
974.14	225.66
974.43	225.68
974.73	225.64
975.02	225.66
975.31	225.63
975.61	225.64
975.90	225.62
976.19	225.58
976.49	225.59
976.78	225.58
977.07	225.55
977.37	225.55
977.66	225.54
977.95	225.50
978.24	225.48
978.54	225.50
978.83	225.55
979.12	225.55
979.42	225.53
979.71	225.48
980.00	225.47
980.29	225.48
980.59	225.46
980.88	225.49
981.17	225.42
981.46	225.41
981.76	225.36
982.05	225.41
982.34	225.42
982.63	225.41
982.93	225.40
983.22	225.41
983.51	225.41
983.80	225.43
984.09	225.47
984.39	225.48
984.68	225.46
984.97	225.43
985.26	225.42
985.55	225.44
985.85	225.44
986.14	225.48
986.43	225.48
986.72	225.45
987.01	225.45
987.30	225.49
987.59	225.50
987.89	225.52
988.18	225.47
988.47	225.46
988.76	225.49
989.05	225.48
989.34	225.50
989.63	225.54
989.92	225.51
990.22	225.51
990.51	225.54
990.80	225.54
991.09	225.59
991.38	225.63
991.67	225.62
991.96	225.63
992.25	225.64
992.54	225.64
992.83	225.66
993.12	225.64
993.41	225.70
993.70	225.75
993.99	225.81
994.28	225.84
994.58	225.88
994.87	225.87
995.16	225.91
995.45	225.96
995.74	225.96
996.03	225.99
996.32	226.01
996.61	226.05
996.90	226.08
997.19	226.09
997.48	226.11
997.77	226.13
998.06	226.16
998.34	226.14
998.63	226.15
998.92	226.17
999.21	226.22
999.50	226.21
999.79	226.20
1000.08	226.20
1000.37	226.24
1000.66	226.21
1000.95	226.23
1001.24	226.26
1001.53	226.24
1001.82	226.22
1002.11	226.19
1002.40	226.23
1002.68	226.23
1002.97	226.29
1003.26	226.25
1003.55	226.24
1003.84	226.25
1004.13	226.28
1004.42	226.31
1004.71	226.30
1004.99	226.30
1005.28	226.31
1005.57	226.28
1005.86	226.27
1006.15	226.26
1006.44	226.22
1006.72	226.24
1007.01	226.25
1007.30	226.19
1007.59	226.19
1007.88	226.17
1008.17	226.17
1008.45	226.11
1008.74	226.06
1009.03	226.00
1009.32	226.05
1009.60	226.04
1009.89	226.02
1010.18	225.95
1010.47	225.89
1010.76	225.89
1011.04	225.85
1011.33	225.85
1011.62	225.86
1011.91	225.85
1012.19	225.80
1012.48	225.80
1012.77	225.80
1013.05	225.80
1013.34	225.82
1013.63	225.78
1013.92	225.79
1014.20	225.75
1014.49	225.72
1014.78	225.72
1015.06	225.67
1015.35	225.60
1015.64	225.57
1015.92	225.54
1016.21	225.52
1016.50	225.54
1016.78	225.55
1017.07	225.56
1017.36	225.51
1017.64	225.46
1017.93	225.44
1018.22	225.44
1018.50	225.44
1018.79	225.42
1019.08	225.38
1019.36	225.39
1019.65	225.37
1019.93	225.41
1020.22	225.43
1020.51	225.51
1020.79	225.50
1021.08	225.27
1021.36	225.52
1021.65	225.90
1021.94	225.11
1022.22	225.97
1022.51	225.23
1022.79	226.38
1023.08	225.35
1023.36	226.74
1023.65	225.15
>>>>>End Processed Spectral Data<<<<<
