SpectraSuite Data File
++++++++++++++++++++++++++++++++++++
Date: Fri Feb 01 18:06:24 EST 2013
User: group
Dark Spectrum Present: No
Reference Spectrum Present: No
Number of Sampled Component Spectra: 1
Spectrometers: USB2E7196
Integration Time (usec): 35000 (USB2E7196)
Spectra Averaged: 100 (USB2E7196)
Boxcar Smoothing: 10 (USB2E7196)
Correct for Electrical Dark: No (USB2E7196)
Strobe/Lamp Enabled: No (USB2E7196)
Correct for Detector Non-linearity: No (USB2E7196)
Correct for Stray Light: No (USB2E7196)
Number of Pixels in Processed Spectrum: 2048
>>>>>Begin Processed Spectral Data<<<<<
339.09	0.00
339.48	212.74
339.86	214.59
340.24	215.71
340.63	216.74
341.01	220.26
341.39	220.03
341.78	221.18
342.16	222.73
342.54	222.70
342.93	211.34
343.31	222.03
343.69	222.58
344.07	223.03
344.46	223.46
344.84	223.86
345.22	224.10
345.60	224.39
345.99	224.62
346.37	224.73
346.75	224.85
347.13	224.92
347.52	224.99
347.90	225.03
348.28	225.07
348.66	225.18
349.05	225.20
349.43	225.24
349.81	225.32
350.19	225.34
350.57	225.40
350.96	225.47
351.34	225.53
351.72	225.61
352.10	225.72
352.48	225.77
352.87	225.84
353.25	225.89
353.63	225.90
354.01	225.91
354.39	225.97
354.77	226.04
355.15	226.10
355.54	226.13
355.92	226.19
356.30	226.24
356.68	226.33
357.06	226.42
357.44	226.46
357.82	226.51
358.20	226.61
358.58	226.69
358.97	226.75
359.35	226.85
359.73	226.93
360.11	226.95
360.49	227.06
360.87	227.10
361.25	227.17
361.63	227.30
362.01	227.38
362.39	227.43
362.77	227.47
363.15	227.51
363.53	227.57
363.91	227.61
364.29	227.68
364.67	227.62
365.05	227.60
365.43	227.63
365.81	227.65
366.19	227.71
366.57	227.75
366.95	227.76
367.33	227.77
367.71	227.76
368.09	227.82
368.47	227.78
368.85	227.77
369.23	227.73
369.61	227.67
369.99	227.64
370.37	227.64
370.75	227.66
371.13	227.60
371.51	227.54
371.89	227.50
372.27	227.46
372.65	227.41
373.03	227.41
373.41	227.40
373.78	227.32
374.16	227.23
374.54	227.18
374.92	227.09
375.30	227.03
375.68	226.95
376.06	226.92
376.44	226.86
376.82	226.80
377.19	226.75
377.57	226.66
377.95	226.61
378.33	226.53
378.71	226.40
379.09	226.39
379.47	226.36
379.84	226.28
380.22	226.21
380.60	226.14
380.98	226.08
381.36	225.99
381.73	225.92
382.11	225.88
382.49	225.80
382.87	225.75
383.25	225.66
383.62	225.70
384.00	225.56
384.38	225.53
384.76	225.53
385.13	225.52
385.51	225.49
385.89	225.41
386.27	225.39
386.64	225.38
387.02	225.32
387.40	225.29
387.78	225.26
388.15	225.23
388.53	225.19
388.91	225.13
389.29	225.07
389.66	225.10
390.04	225.05
390.42	225.06
390.79	225.09
391.17	225.12
391.55	225.01
391.92	225.03
392.30	225.04
392.68	224.99
393.05	224.95
393.43	224.96
393.81	224.98
394.18	224.96
394.56	224.97
394.94	225.01
395.31	225.02
395.69	225.08
396.06	225.11
396.44	225.14
396.82	225.18
397.19	225.31
397.57	225.34
397.95	225.41
398.32	225.43
398.70	225.49
399.07	225.58
399.45	225.66
399.82	225.74
400.20	225.78
400.58	225.87
400.95	225.95
401.33	226.04
401.70	226.21
402.08	226.29
402.45	226.38
402.83	226.51
403.20	226.59
403.58	226.68
403.95	226.83
404.33	226.99
404.71	227.12
405.08	227.32
405.46	227.47
405.83	227.63
406.21	227.78
406.58	227.93
406.96	228.11
407.33	228.31
407.70	228.53
408.08	228.85
408.45	229.11
408.83	229.42
409.20	229.70
409.58	229.91
409.95	230.26
410.33	230.62
410.70	230.95
411.08	231.36
411.45	231.76
411.82	232.15
412.20	232.60
412.57	233.15
412.95	233.55
413.32	234.08
413.69	234.63
414.07	235.23
414.44	235.89
414.82	236.52
415.19	237.21
415.56	237.92
415.94	238.67
416.31	239.53
416.68	240.31
417.06	241.25
417.43	242.15
417.81	243.17
418.18	244.22
418.55	245.38
418.93	246.56
419.30	247.79
419.67	249.05
420.04	250.32
420.42	251.66
420.79	253.22
421.16	254.81
421.54	256.41
421.91	258.03
422.28	259.73
422.66	261.51
423.03	263.26
423.40	265.10
423.77	267.00
424.15	268.93
424.52	270.99
424.89	273.19
425.26	275.31
425.64	277.30
426.01	279.48
426.38	281.70
426.75	283.95
427.13	286.28
427.50	288.75
427.87	291.33
428.24	293.83
428.61	296.23
428.99	298.84
429.36	301.72
429.73	304.53
430.10	307.28
430.47	310.08
430.85	313.03
431.22	316.06
431.59	319.24
431.96	322.34
432.33	325.73
432.70	328.96
433.08	332.81
433.45	336.37
433.82	339.90
434.19	343.83
434.56	347.66
434.93	351.27
435.30	354.82
435.68	358.70
436.05	362.57
436.42	366.38
436.79	369.81
437.16	373.44
437.53	377.33
437.90	381.13
438.27	384.89
438.64	388.75
439.01	392.27
439.38	395.36
439.75	398.27
440.13	401.63
440.50	404.85
440.87	407.34
441.24	410.01
441.61	412.94
441.98	414.96
442.35	417.43
442.72	419.94
443.09	422.41
443.46	423.80
443.83	424.65
444.20	425.33
444.57	426.51
444.94	426.97
445.31	427.40
445.68	427.84
446.05	427.93
446.42	427.41
446.79	426.87
447.16	426.27
447.53	425.86
447.90	424.31
448.27	422.69
448.64	420.53
449.01	418.97
449.37	416.25
449.74	413.69
450.11	410.55
450.48	407.21
450.85	403.78
451.22	400.86
451.59	398.05
451.96	395.43
452.33	391.85
452.70	388.60
453.07	384.76
453.43	380.85
453.80	377.07
454.17	373.40
454.54	369.92
454.91	366.23
455.28	362.54
455.65	359.11
456.02	355.70
456.38	352.80
456.75	349.17
457.12	346.15
457.49	343.08
457.86	340.17
458.23	337.60
458.59	334.79
458.96	331.93
459.33	329.41
459.70	326.83
460.07	324.75
460.43	322.39
460.80	320.13
461.17	318.13
461.54	316.05
461.91	314.10
462.27	312.11
462.64	310.38
463.01	308.52
463.38	306.74
463.74	304.92
464.11	303.29
464.48	301.86
464.85	300.33
465.21	299.13
465.58	297.83
465.95	296.39
466.32	295.17
466.68	293.93
467.05	292.69
467.42	291.46
467.78	290.20
468.15	289.01
468.52	288.10
468.88	286.97
469.25	285.92
469.62	285.04
469.98	284.10
470.35	283.17
470.72	282.38
471.08	281.50
471.45	280.73
471.82	280.01
472.18	279.18
472.55	278.55
472.92	277.86
473.28	277.27
473.65	276.57
474.02	275.92
474.38	275.40
474.75	274.92
475.11	274.44
475.48	274.06
475.85	273.67
476.21	273.30
476.58	272.98
476.94	272.75
477.31	272.47
477.67	272.22
478.04	272.02
478.41	271.83
478.77	271.77
479.14	271.64
479.50	271.57
479.87	271.59
480.23	271.64
480.60	271.63
480.96	271.62
481.33	271.85
481.69	272.02
482.06	272.12
482.42	272.27
482.79	272.46
483.15	272.75
483.52	273.11
483.88	273.44
484.25	273.76
484.61	274.12
484.98	274.57
485.34	275.15
485.71	275.75
486.07	276.35
486.44	276.93
486.80	277.64
487.17	278.35
487.53	279.20
487.90	280.04
488.26	281.02
488.62	281.99
488.99	282.96
489.35	284.01
489.72	285.21
490.08	286.46
490.44	287.79
490.81	289.14
491.17	290.52
491.54	292.09
491.90	293.71
492.26	295.47
492.63	297.27
492.99	299.11
493.36	301.12
493.72	303.28
494.08	305.49
494.45	307.87
494.81	310.36
495.17	312.87
495.54	315.56
495.90	318.39
496.26	321.40
496.63	324.52
496.99	327.84
497.35	331.26
497.72	334.85
498.08	338.56
498.44	342.47
498.80	346.68
499.17	350.95
499.53	355.37
499.89	360.06
500.26	364.82
500.62	369.77
500.98	375.03
501.34	380.43
501.71	386.04
502.07	391.84
502.43	397.82
502.79	404.02
503.16	410.44
503.52	417.11
503.88	423.95
504.24	431.03
504.60	438.36
504.97	445.99
505.33	453.80
505.69	462.03
506.05	470.33
506.41	478.69
506.78	487.36
507.14	496.45
507.50	505.71
507.86	515.36
508.22	525.22
508.59	535.02
508.95	545.25
509.31	555.84
509.67	566.60
510.03	577.63
510.39	589.02
510.75	600.69
511.12	612.44
511.48	624.60
511.84	636.90
512.20	649.27
512.56	662.14
512.92	675.18
513.28	688.50
513.64	701.99
514.00	715.73
514.37	729.68
514.73	743.89
515.09	757.93
515.45	772.27
515.81	786.99
516.17	802.12
516.53	817.53
516.89	832.84
517.25	848.29
517.61	863.96
517.97	879.69
518.33	895.22
518.69	911.24
519.05	927.47
519.41	943.99
519.77	960.89
520.13	977.71
520.49	994.67
520.85	1011.42
521.21	1028.52
521.57	1046.37
521.93	1063.64
522.29	1081.41
522.65	1099.34
523.01	1117.16
523.37	1134.84
523.73	1152.62
524.09	1170.30
524.45	1188.33
524.81	1206.61
525.17	1225.10
525.53	1243.75
525.89	1262.55
526.25	1281.31
526.61	1299.53
526.97	1318.14
527.33	1336.57
527.68	1355.00
528.04	1373.27
528.40	1391.76
528.76	1410.76
529.12	1429.28
529.48	1448.22
529.84	1466.09
530.20	1484.67
530.56	1503.81
530.91	1523.25
531.27	1542.16
531.63	1560.57
531.99	1579.27
532.35	1597.38
532.71	1615.43
533.07	1633.80
533.42	1651.91
533.78	1669.96
534.14	1688.42
534.50	1705.89
534.86	1723.82
535.21	1741.29
535.57	1759.47
535.93	1777.23
536.29	1794.12
536.65	1811.25
537.00	1828.14
537.36	1845.86
537.72	1862.54
538.08	1879.08
538.44	1895.06
538.79	1911.09
539.15	1926.95
539.51	1942.71
539.87	1959.30
540.22	1975.19
540.58	1991.20
540.94	2006.66
541.29	2021.77
541.65	2036.62
542.01	2052.16
542.37	2066.84
542.72	2081.53
543.08	2095.66
543.44	2110.41
543.79	2124.14
544.15	2137.31
544.51	2151.33
544.87	2164.71
545.22	2177.96
545.58	2190.45
545.94	2202.41
546.29	2214.54
546.65	2226.82
547.01	2238.43
547.36	2249.37
547.72	2260.06
548.07	2270.03
548.43	2280.43
548.79	2290.65
549.14	2300.51
549.50	2309.85
549.86	2319.55
550.21	2328.78
550.57	2337.93
550.92	2346.50
551.28	2355.56
551.64	2364.77
551.99	2373.14
552.35	2381.20
552.70	2389.26
553.06	2397.20
553.41	2405.52
553.77	2413.46
554.13	2421.44
554.48	2429.59
554.84	2437.14
555.19	2444.23
555.55	2451.28
555.90	2457.56
556.26	2464.40
556.61	2470.73
556.97	2476.83
557.32	2482.75
557.68	2488.59
558.03	2494.58
558.39	2499.86
558.74	2506.22
559.10	2511.93
559.45	2517.33
559.81	2523.08
560.16	2528.48
560.52	2533.37
560.87	2538.34
561.23	2542.46
561.58	2546.79
561.94	2550.61
562.29	2554.08
562.64	2558.34
563.00	2562.18
563.35	2567.17
563.71	2571.51
564.06	2576.17
564.42	2580.45
564.77	2584.26
565.12	2587.92
565.48	2591.12
565.83	2594.29
566.19	2596.79
566.54	2598.50
566.89	2600.78
567.25	2602.38
567.60	2604.77
567.96	2607.68
568.31	2609.55
568.66	2611.75
569.02	2613.26
569.37	2614.44
569.72	2616.27
570.08	2617.11
570.43	2618.14
570.78	2618.06
571.14	2617.07
571.49	2616.20
571.84	2616.55
572.20	2616.15
572.55	2615.70
572.90	2614.50
573.26	2613.69
573.61	2612.30
573.96	2611.10
574.31	2608.27
574.67	2605.74
575.02	2602.23
575.37	2598.74
575.72	2595.17
576.08	2591.81
576.43	2588.59
576.78	2585.12
577.13	2581.92
577.49	2578.75
577.84	2575.28
578.19	2571.62
578.54	2568.12
578.90	2563.96
579.25	2558.02
579.60	2552.68
579.95	2547.41
580.30	2542.20
580.66	2536.54
581.01	2531.26
581.36	2526.02
581.71	2521.79
582.06	2516.97
582.42	2512.14
582.77	2506.61
583.12	2501.59
583.47	2496.67
583.82	2491.38
584.17	2485.64
584.53	2479.74
584.88	2473.82
585.23	2467.43
585.58	2461.45
585.93	2455.33
586.28	2449.91
586.63	2444.46
586.98	2438.89
587.34	2433.54
587.69	2428.09
588.04	2422.53
588.39	2416.30
588.74	2409.16
589.09	2402.09
589.44	2394.48
589.79	2387.71
590.14	2381.34
590.49	2373.91
590.84	2366.55
591.19	2359.60
591.54	2352.27
591.89	2344.18
592.25	2336.48
592.60	2328.37
592.95	2319.85
593.30	2311.63
593.65	2303.15
594.00	2295.09
594.35	2286.67
594.70	2277.58
595.05	2269.57
595.40	2261.09
595.75	2252.48
596.10	2245.34
596.45	2237.70
596.80	2230.74
597.15	2223.29
597.50	2215.41
597.85	2207.94
598.19	2200.40
598.54	2192.35
598.89	2184.80
599.24	2177.88
599.59	2170.30
599.94	2163.06
600.29	2155.79
600.64	2148.12
600.99	2139.49
601.34	2131.55
601.69	2123.46
602.04	2115.65
602.39	2107.09
602.74	2099.14
603.08	2091.27
603.43	2083.34
603.78	2074.93
604.13	2066.32
604.48	2057.78
604.83	2049.64
605.18	2041.73
605.53	2032.42
605.87	2023.05
606.22	2014.62
606.57	2005.06
606.92	1996.26
607.27	1987.91
607.62	1979.66
607.96	1971.14
608.31	1963.36
608.66	1954.37
609.01	1945.59
609.36	1936.64
609.70	1927.14
610.05	1917.73
610.40	1908.65
610.75	1898.91
611.10	1889.86
611.44	1879.99
611.79	1870.69
612.14	1860.45
612.49	1849.50
612.83	1839.56
613.18	1830.04
613.53	1820.49
613.88	1810.66
614.22	1800.94
614.57	1790.70
614.92	1781.24
615.27	1772.40
615.61	1762.70
615.96	1753.28
616.31	1744.20
616.65	1735.46
617.00	1726.50
617.35	1717.45
617.70	1707.76
618.04	1697.74
618.39	1688.03
618.74	1679.11
619.08	1669.26
619.43	1660.29
619.78	1652.04
620.12	1643.62
620.47	1634.68
620.82	1624.88
621.16	1615.92
621.51	1606.84
621.85	1597.78
622.20	1587.79
622.55	1577.89
622.89	1568.59
623.24	1559.51
623.59	1550.89
623.93	1541.90
624.28	1533.37
624.62	1524.48
624.97	1515.89
625.32	1507.85
625.66	1499.47
626.01	1491.11
626.35	1482.34
626.70	1473.20
627.04	1464.10
627.39	1454.81
627.73	1446.07
628.08	1437.96
628.43	1429.59
628.77	1421.01
629.12	1412.10
629.46	1403.58
629.81	1394.65
630.15	1386.02
630.50	1377.32
630.84	1367.63
631.19	1358.34
631.53	1349.38
631.88	1340.36
632.22	1331.40
632.57	1322.84
632.91	1313.90
633.26	1305.03
633.60	1296.16
633.95	1287.71
634.29	1279.45
634.64	1271.60
634.98	1263.00
635.32	1254.55
635.67	1246.62
636.01	1238.85
636.36	1230.97
636.70	1223.26
637.05	1215.60
637.39	1208.03
637.73	1200.42
638.08	1193.52
638.42	1186.43
638.77	1178.87
639.11	1171.25
639.45	1163.74
639.80	1155.92
640.14	1148.45
640.49	1140.84
640.83	1133.53
641.17	1126.20
641.52	1118.76
641.86	1111.22
642.20	1104.22
642.55	1096.82
642.89	1089.30
643.23	1081.60
643.58	1074.81
643.92	1067.53
644.26	1060.40
644.61	1053.14
644.95	1046.07
645.29	1038.38
645.64	1030.51
645.98	1023.08
646.32	1016.09
646.66	1009.04
647.01	1002.26
647.35	995.60
647.69	988.76
648.04	982.25
648.38	975.58
648.72	968.63
649.06	961.54
649.41	954.70
649.75	947.83
650.09	940.84
650.43	934.10
650.78	926.91
651.12	920.05
651.46	913.50
651.80	906.98
652.14	900.69
652.49	894.37
652.83	888.35
653.17	881.86
653.51	875.33
653.85	869.02
654.20	862.48
654.54	855.53
654.88	848.69
655.22	841.83
655.56	835.18
655.90	828.81
656.25	822.76
656.59	816.51
656.93	810.53
657.27	804.65
657.61	798.26
657.95	792.33
658.29	786.42
658.64	780.19
658.98	773.94
659.32	767.59
659.66	761.61
660.00	755.49
660.34	749.67
660.68	743.94
661.02	738.09
661.36	732.59
661.70	727.32
662.05	722.42
662.39	717.39
662.73	712.17
663.07	707.10
663.41	701.91
663.75	696.69
664.09	691.45
664.43	686.29
664.77	681.53
665.11	676.65
665.45	671.85
665.79	667.20
666.13	662.45
666.47	657.73
666.81	652.97
667.15	648.15
667.49	643.63
667.83	639.15
668.17	634.66
668.51	629.90
668.85	625.28
669.19	620.77
669.53	616.35
669.87	611.90
670.21	607.57
670.55	603.40
670.89	599.45
671.23	595.46
671.57	591.39
671.91	587.31
672.25	583.22
672.58	579.13
672.92	575.16
673.26	571.47
673.60	567.77
673.94	564.08
674.28	560.76
674.62	557.33
674.96	553.76
675.30	550.37
675.64	547.01
675.97	543.71
676.31	540.40
676.65	537.05
676.99	533.95
677.33	530.63
677.67	527.39
678.01	523.93
678.34	520.46
678.68	517.11
679.02	513.85
679.36	510.64
679.70	507.49
680.04	504.35
680.37	501.04
680.71	497.83
681.05	494.85
681.39	491.67
681.73	488.62
682.06	485.73
682.40	482.75
682.74	479.83
683.08	476.87
683.42	473.83
683.75	470.95
684.09	467.94
684.43	465.12
684.77	462.20
685.10	459.42
685.44	456.75
685.78	454.10
686.12	451.45
686.45	448.77
686.79	446.09
687.13	443.44
687.46	440.96
687.80	438.47
688.14	435.80
688.48	433.36
688.81	430.74
689.15	428.21
689.49	425.69
689.82	423.24
690.16	420.83
690.50	418.59
690.83	416.30
691.17	413.94
691.51	411.72
691.84	409.58
692.18	407.36
692.52	405.06
692.85	402.81
693.19	400.62
693.52	398.49
693.86	396.34
694.20	394.26
694.53	392.14
694.87	389.93
695.21	387.86
695.54	385.77
695.88	383.75
696.21	381.72
696.55	379.73
696.88	377.71
697.22	375.77
697.56	373.86
697.89	371.95
698.23	370.12
698.56	368.24
698.90	366.40
699.23	364.50
699.57	362.67
699.90	360.84
700.24	359.05
700.58	357.26
700.91	355.55
701.25	353.88
701.58	352.22
701.92	350.70
702.25	349.17
702.59	347.60
702.92	346.09
703.26	344.59
703.59	343.15
703.93	341.77
704.26	340.34
704.60	338.82
704.93	337.33
705.26	335.85
705.60	334.45
705.93	333.11
706.27	331.85
706.60	330.62
706.94	329.34
707.27	328.02
707.61	326.79
707.94	325.59
708.27	324.30
708.61	323.08
708.94	321.84
709.28	320.64
709.61	319.47
709.94	318.33
710.28	317.12
710.61	315.94
710.95	314.71
711.28	313.60
711.61	312.46
711.95	311.35
712.28	310.28
712.61	309.12
712.95	308.00
713.28	307.00
713.61	305.95
713.95	304.95
714.28	303.97
714.61	302.95
714.95	301.97
715.28	301.00
715.61	300.00
715.95	299.00
716.28	297.98
716.61	296.97
716.95	295.98
717.28	295.08
717.61	294.17
717.94	293.31
718.28	292.37
718.61	291.52
718.94	290.73
719.27	289.92
719.61	289.17
719.94	288.37
720.27	287.49
720.60	286.71
720.94	285.96
721.27	285.26
721.60	284.57
721.93	283.86
722.27	283.21
722.60	282.53
722.93	281.85
723.26	281.22
723.59	280.57
723.93	279.92
724.26	279.28
724.59	278.64
724.92	278.00
725.25	277.43
725.59	276.85
725.92	276.24
726.25	275.66
726.58	275.09
726.91	274.55
727.24	274.00
727.57	273.45
727.91	272.86
728.24	272.30
728.57	271.68
728.90	271.15
729.23	270.55
729.56	270.03
729.89	269.48
730.22	268.91
730.55	268.38
730.89	267.85
731.22	267.35
731.55	266.86
731.88	266.39
732.21	265.89
732.54	265.37
732.87	264.89
733.20	264.39
733.53	263.89
733.86	263.43
734.19	262.99
734.52	262.53
734.85	262.13
735.18	261.70
735.51	261.29
735.84	260.86
736.17	260.45
736.50	260.00
736.83	259.77
737.16	259.41
737.49	259.04
737.82	258.65
738.15	258.23
738.48	257.86
738.81	257.48
739.14	257.09
739.47	256.73
739.80	256.36
740.13	256.03
740.46	255.69
740.79	255.33
741.12	254.97
741.45	254.60
741.78	254.22
742.11	253.86
742.44	253.48
742.77	253.15
743.10	252.83
743.43	252.48
743.75	252.06
744.08	251.86
744.41	251.53
744.74	251.23
745.07	250.93
745.40	250.63
745.73	250.36
746.06	250.02
746.39	249.72
746.71	249.41
747.04	249.11
747.37	248.78
747.70	248.48
748.03	248.17
748.36	247.93
748.68	247.70
749.01	247.41
749.34	247.17
749.67	246.90
750.00	246.63
750.33	246.46
750.65	246.17
750.98	245.79
751.31	245.57
751.64	245.32
751.97	245.12
752.29	244.87
752.62	244.56
752.95	244.34
753.28	244.09
753.60	243.85
753.93	243.68
754.26	243.44
754.59	243.18
754.91	242.96
755.24	242.70
755.57	242.44
755.90	242.20
756.22	241.96
756.55	241.70
756.88	241.46
757.20	241.19
757.53	240.98
757.86	240.78
758.19	240.57
758.51	240.38
758.84	240.11
759.17	239.89
759.49	239.71
759.82	239.56
760.15	239.37
760.47	239.20
760.80	238.97
761.13	238.83
761.45	238.66
761.78	238.48
762.11	238.33
762.43	238.15
762.76	238.02
763.08	237.86
763.41	237.71
763.74	237.56
764.06	237.38
764.39	237.20
764.71	237.03
765.04	236.83
765.37	236.63
765.69	236.51
766.02	236.38
766.34	236.23
766.67	236.05
767.00	235.92
767.32	235.84
767.65	235.75
767.97	235.57
768.30	235.42
768.62	235.32
768.95	235.17
769.27	235.04
769.60	234.89
769.92	234.78
770.25	234.67
770.57	234.54
770.90	234.42
771.22	234.29
771.55	234.20
771.87	234.15
772.20	234.06
772.52	234.02
772.85	234.04
773.17	233.94
773.50	233.82
773.82	233.68
774.15	233.53
774.47	233.37
774.80	233.28
775.12	233.21
775.45	233.11
775.77	233.01
776.09	232.94
776.42	232.86
776.74	232.78
777.07	232.69
777.39	232.60
777.72	232.51
778.04	232.46
778.36	232.35
778.69	232.22
779.01	232.15
779.33	232.00
779.66	231.78
779.98	231.67
780.31	231.62
780.63	231.61
780.95	231.54
781.28	231.47
781.60	231.41
781.92	231.34
782.25	231.27
782.57	231.21
782.89	231.12
783.22	231.03
783.54	230.95
783.86	230.92
784.19	230.84
784.51	230.82
784.83	230.76
785.16	230.74
785.48	230.72
785.80	230.66
786.12	230.64
786.45	230.62
786.77	230.56
787.09	230.51
787.42	230.43
787.74	230.37
788.06	230.32
788.38	230.26
788.71	230.19
789.03	230.14
789.35	230.07
789.67	230.03
789.99	230.01
790.32	229.95
790.64	229.85
790.96	229.90
791.28	229.82
791.61	229.76
791.93	229.68
792.25	229.64
792.57	229.66
792.89	229.58
793.21	229.52
793.54	229.52
793.86	229.47
794.18	229.45
794.50	229.38
794.82	229.37
795.14	229.33
795.47	229.29
795.79	229.24
796.11	229.19
796.43	229.17
796.75	229.12
797.07	229.08
797.39	229.06
797.71	228.94
798.04	228.89
798.36	228.82
798.68	228.79
799.00	228.75
799.32	228.67
799.64	228.65
799.96	228.62
800.28	228.57
800.60	228.52
800.92	228.47
801.24	228.46
801.56	228.43
801.89	228.41
802.21	228.39
802.53	228.34
802.85	228.34
803.17	228.32
803.49	228.26
803.81	228.22
804.13	228.18
804.45	228.13
804.77	228.14
805.09	228.11
805.41	228.06
805.73	227.97
806.05	227.91
806.37	227.85
806.69	227.84
807.01	227.84
807.33	227.84
807.65	227.77
807.97	227.78
808.28	227.70
808.60	227.68
808.92	227.67
809.24	227.71
809.56	227.68
809.88	227.62
810.20	227.64
810.52	227.67
810.84	227.66
811.16	227.66
811.48	227.62
811.80	227.67
812.12	227.69
812.43	227.73
812.75	227.74
813.07	227.75
813.39	227.68
813.71	227.68
814.03	227.60
814.35	227.59
814.67	227.53
814.98	227.55
815.30	227.53
815.62	227.47
815.94	227.36
816.26	227.40
816.58	227.38
816.89	227.38
817.21	227.33
817.53	227.34
817.85	227.33
818.17	227.28
818.48	227.20
818.80	227.19
819.12	227.16
819.44	227.12
819.76	227.07
820.07	227.07
820.39	227.00
820.71	227.03
821.03	227.02
821.34	227.02
821.66	226.97
821.98	226.94
822.30	226.94
822.61	226.98
822.93	226.93
823.25	226.86
823.57	226.81
823.88	226.81
824.20	226.73
824.52	226.72
824.83	226.70
825.15	226.67
825.47	226.64
825.79	226.61
826.10	226.60
826.42	226.58
826.74	226.58
827.05	226.57
827.37	226.50
827.69	226.49
828.00	226.46
828.32	226.46
828.64	226.41
828.95	226.42
829.27	226.39
829.58	226.36
829.90	226.39
830.22	226.39
830.53	226.32
830.85	226.30
831.17	226.27
831.48	226.24
831.80	226.20
832.11	226.15
832.43	226.14
832.75	226.11
833.06	226.16
833.38	226.08
833.69	226.06
834.01	226.05
834.32	226.05
834.64	226.04
834.96	226.01
835.27	226.03
835.59	225.96
835.90	225.94
836.22	225.93
836.53	225.90
836.85	225.85
837.16	226.00
837.48	226.01
837.79	226.02
838.11	226.05
838.42	226.08
838.74	226.12
839.05	226.11
839.37	226.09
839.68	226.03
840.00	226.05
840.31	226.05
840.63	226.06
840.94	226.02
841.26	226.01
841.57	226.05
841.88	226.06
842.20	226.08
842.51	226.04
842.83	226.07
843.14	226.18
843.46	226.22
843.77	226.16
844.08	226.16
844.40	226.14
844.71	226.17
845.03	226.19
845.34	226.18
845.65	226.20
845.97	226.20
846.28	226.19
846.60	226.22
846.91	226.21
847.22	226.20
847.54	226.24
847.85	226.25
848.16	226.24
848.48	226.20
848.79	226.25
849.10	226.27
849.42	226.27
849.73	226.16
850.04	226.14
850.36	226.10
850.67	226.12
850.98	226.13
851.30	226.11
851.61	226.08
851.92	226.08
852.23	226.09
852.55	226.11
852.86	226.12
853.17	226.10
853.49	226.15
853.80	226.21
854.11	226.20
854.42	226.21
854.74	226.19
855.05	226.20
855.36	226.15
855.67	226.13
855.99	226.11
856.30	226.24
856.61	226.22
856.92	226.20
857.23	226.17
857.55	226.17
857.86	226.15
858.17	226.20
858.48	226.15
858.79	226.15
859.11	226.14
859.42	226.17
859.73	226.15
860.04	226.11
860.35	226.05
860.66	226.00
860.98	226.01
861.29	226.02
861.60	225.99
861.91	226.00
862.22	226.01
862.53	225.98
862.84	225.85
863.16	225.88
863.47	225.84
863.78	225.85
864.09	225.84
864.40	225.81
864.71	225.78
865.02	225.82
865.33	225.80
865.64	225.77
865.95	225.75
866.27	225.83
866.58	225.81
866.89	225.84
867.20	225.85
867.51	225.78
867.82	225.77
868.13	225.80
868.44	225.77
868.75	225.76
869.06	225.75
869.37	225.75
869.68	225.69
869.99	225.70
870.30	225.69
870.61	225.71
870.92	225.71
871.23	225.68
871.54	225.68
871.85	225.66
872.16	225.68
872.47	225.63
872.78	225.56
873.09	225.55
873.40	225.52
873.71	225.52
874.02	225.51
874.33	225.48
874.64	225.42
874.95	225.44
875.26	225.42
875.56	225.39
875.87	225.38
876.18	225.37
876.49	225.47
876.80	225.48
877.11	225.46
877.42	225.46
877.73	225.46
878.04	225.40
878.35	225.39
878.66	225.38
878.96	225.39
879.27	225.38
879.58	225.39
879.89	225.40
880.20	225.41
880.51	225.41
880.82	225.42
881.12	225.45
881.43	225.41
881.74	225.41
882.05	225.44
882.36	225.45
882.67	225.45
882.97	225.34
883.28	225.34
883.59	225.32
883.90	225.33
884.21	225.35
884.51	225.38
884.82	225.38
885.13	225.36
885.44	225.35
885.74	225.35
886.05	225.36
886.36	225.35
886.67	225.32
886.98	225.39
887.28	225.40
887.59	225.40
887.90	225.43
888.20	225.43
888.51	225.43
888.82	225.43
889.13	225.48
889.43	225.55
889.74	225.55
890.05	225.55
890.35	225.52
890.66	225.50
890.97	225.48
891.28	225.47
891.58	225.50
891.89	225.48
892.20	225.46
892.50	225.43
892.81	225.43
893.12	225.40
893.42	225.33
893.73	225.31
894.04	225.31
894.34	225.31
894.65	225.32
894.95	225.29
895.26	225.28
895.57	225.30
895.87	225.20
896.18	225.19
896.48	225.19
896.79	225.21
897.10	225.23
897.40	225.21
897.71	225.20
898.01	225.16
898.32	225.19
898.63	225.20
898.93	225.19
899.24	225.17
899.54	225.19
899.85	225.20
900.15	225.19
900.46	225.18
900.76	225.16
901.07	225.15
901.38	225.15
901.68	225.17
901.99	225.12
902.29	225.11
902.60	225.10
902.90	225.07
903.21	225.03
903.51	225.02
903.82	225.04
904.12	225.01
904.43	225.03
904.73	224.99
905.03	224.99
905.34	225.08
905.64	225.06
905.95	225.02
906.25	225.02
906.56	225.01
906.86	224.99
907.17	224.98
907.47	224.92
907.77	224.92
908.08	224.85
908.38	224.83
908.69	224.84
908.99	224.86
909.30	224.86
909.60	224.90
909.90	224.88
910.21	224.87
910.51	224.90
910.81	224.89
911.12	224.89
911.42	224.87
911.73	224.77
912.03	224.77
912.33	224.82
912.64	224.79
912.94	224.80
913.24	224.79
913.55	224.76
913.85	224.80
914.15	224.80
914.46	224.86
914.76	224.87
915.06	224.85
915.37	224.79
915.67	224.79
915.97	224.79
916.27	224.80
916.58	224.79
916.88	224.78
917.18	224.77
917.49	224.83
917.79	224.86
918.09	224.89
918.39	224.92
918.70	224.90
919.00	224.90
919.30	224.97
919.60	224.99
919.91	225.02
920.21	225.02
920.51	224.99
920.81	224.98
921.12	224.97
921.42	224.97
921.72	225.02
922.02	225.03
922.32	225.02
922.63	225.01
922.93	225.07
923.23	225.07
923.53	225.07
923.83	225.04
924.13	225.01
924.44	225.02
924.74	225.07
925.04	225.08
925.34	225.13
925.64	225.07
925.94	225.07
926.24	225.13
926.55	225.12
926.85	225.18
927.15	225.18
927.45	225.23
927.75	225.26
928.05	225.26
928.35	225.26
928.65	225.30
928.95	225.34
929.26	225.32
929.56	225.34
929.86	225.38
930.16	225.40
930.46	225.43
930.76	225.44
931.06	225.37
931.36	225.37
931.66	225.37
931.96	225.39
932.26	225.37
932.56	225.31
932.86	225.33
933.16	225.35
933.46	225.34
933.76	225.29
934.06	225.30
934.36	225.33
934.66	225.33
934.96	225.29
935.26	225.27
935.56	225.26
935.86	225.24
936.16	225.18
936.46	225.16
936.76	225.15
937.06	225.11
937.36	225.16
937.66	225.17
937.96	225.14
938.26	225.10
938.56	225.10
938.86	225.15
939.16	225.18
939.46	225.14
939.76	225.16
940.06	225.18
940.35	225.14
940.65	225.09
940.95	225.09
941.25	225.08
941.55	225.09
941.85	225.07
942.15	225.08
942.45	225.14
942.75	225.11
943.04	225.15
943.34	225.17
943.64	225.12
943.94	225.08
944.24	225.07
944.54	225.09
944.84	225.09
945.13	225.03
945.43	224.96
945.73	224.96
946.03	224.93
946.33	224.90
946.62	224.92
946.92	224.93
947.22	224.91
947.52	224.93
947.82	224.93
948.11	224.91
948.41	224.92
948.71	224.89
949.01	224.91
949.31	224.86
949.60	224.86
949.90	224.91
950.20	224.90
950.50	224.91
950.79	224.87
951.09	224.89
951.39	224.91
951.69	224.95
951.98	224.98
952.28	224.98
952.58	224.99
952.87	225.01
953.17	225.02
953.47	225.00
953.76	225.00
954.06	224.98
954.36	224.97
954.66	224.94
954.95	224.97
955.25	225.00
955.55	225.04
955.84	225.01
956.14	224.99
956.44	225.03
956.73	225.01
957.03	225.02
957.32	225.02
957.62	225.02
957.92	225.03
958.21	225.01
958.51	225.10
958.81	225.11
959.10	225.10
959.40	225.12
959.69	225.15
959.99	225.15
960.29	225.16
960.58	225.18
960.88	225.25
961.17	225.23
961.47	225.23
961.76	225.21
962.06	225.22
962.36	225.23
962.65	225.21
962.95	225.22
963.24	225.22
963.54	225.19
963.83	225.21
964.13	225.20
964.42	225.19
964.72	225.14
965.01	225.13
965.31	225.12
965.60	225.10
965.90	225.14
966.19	225.12
966.49	225.11
966.78	225.07
967.08	225.07
967.37	225.06
967.67	225.03
967.96	225.03
968.26	225.03
968.55	225.05
968.85	225.05
969.14	225.08
969.43	225.10
969.73	225.14
970.02	225.13
970.32	225.10
970.61	225.07
970.91	225.07
971.20	225.09
971.49	225.06
971.79	225.03
972.08	224.98
972.38	224.99
972.67	225.03
972.96	225.07
973.26	225.04
973.55	225.04
973.85	225.04
974.14	225.07
974.43	225.08
974.73	225.07
975.02	225.05
975.31	225.04
975.61	225.05
975.90	225.02
976.19	225.00
976.49	225.04
976.78	225.05
977.07	225.00
977.37	225.01
977.66	225.04
977.95	225.05
978.24	225.05
978.54	225.07
978.83	225.03
979.12	225.01
979.42	224.98
979.71	224.95
980.00	224.93
980.29	224.90
980.59	224.85
980.88	224.85
981.17	224.83
981.46	224.81
981.76	224.78
982.05	224.81
982.34	224.79
982.63	224.80
982.93	224.78
983.22	224.79
983.51	224.76
983.80	224.76
984.09	224.76
984.39	224.75
984.68	224.66
984.97	224.64
985.26	224.64
985.55	224.68
985.85	224.68
986.14	224.72
986.43	224.75
986.72	224.74
987.01	224.73
987.30	224.75
987.59	224.75
987.89	224.75
988.18	224.68
988.47	224.68
988.76	224.65
989.05	224.66
989.34	224.68
989.63	224.69
989.92	224.66
990.22	224.69
990.51	224.69
990.80	224.72
991.09	224.77
991.38	224.79
991.67	224.72
991.96	224.72
992.25	224.69
992.54	224.66
992.83	224.65
993.12	224.65
993.41	224.66
993.70	224.67
993.99	224.72
994.28	224.77
994.58	224.77
994.87	224.79
995.16	224.78
995.45	224.73
995.74	224.72
996.03	224.75
996.32	224.74
996.61	224.74
996.90	224.77
997.19	224.75
997.48	224.76
997.77	224.77
998.06	224.76
998.34	224.78
998.63	224.76
998.92	224.75
999.21	224.78
999.50	224.76
999.79	224.78
1000.08	224.76
1000.37	224.74
1000.66	224.73
1000.95	224.73
1001.24	224.73
1001.53	224.77
1001.82	224.77
1002.11	224.74
1002.40	224.74
1002.68	224.78
1002.97	224.80
1003.26	224.79
1003.55	224.75
1003.84	224.77
1004.13	224.84
1004.42	224.82
1004.71	224.85
1004.99	224.88
1005.28	224.87
1005.57	224.91
1005.86	224.88
1006.15	224.87
1006.44	224.88
1006.72	224.91
1007.01	224.92
1007.30	224.93
1007.59	224.93
1007.88	224.92
1008.17	224.91
1008.45	224.91
1008.74	224.85
1009.03	224.84
1009.32	224.82
1009.60	224.82
1009.89	224.79
1010.18	224.72
1010.47	224.73
1010.76	224.72
1011.04	224.69
1011.33	224.71
1011.62	224.68
1011.91	224.69
1012.19	224.72
1012.48	224.69
1012.77	224.66
1013.05	224.66
1013.34	224.65
1013.63	224.63
1013.92	224.65
1014.20	224.65
1014.49	224.63
1014.78	224.66
1015.06	224.60
1015.35	224.60
1015.64	224.61
1015.92	224.65
1016.21	224.66
1016.50	224.63
1016.78	224.64
1017.07	224.68
1017.36	224.66
1017.64	224.62
1017.93	224.64
1018.22	224.59
1018.50	224.61
1018.79	224.63
1019.08	224.60
1019.36	224.62
1019.65	224.57
1019.93	224.58
1020.22	224.63
1020.51	224.67
1020.79	224.66
1021.08	223.89
1021.36	224.89
1021.65	224.67
1021.94	224.69
1022.22	224.74
1022.51	223.59
1022.79	225.00
1023.08	225.31
1023.36	225.69
1023.65	224.51
>>>>>End Processed Spectral Data<<<<<
