SpectraSuite Data File
++++++++++++++++++++++++++++++++++++
Date: Fri Feb 01 16:04:41 EST 2013
User: group
Dark Spectrum Present: No
Reference Spectrum Present: No
Number of Sampled Component Spectra: 1
Spectrometers: USB2E7196
Integration Time (usec): 35000 (USB2E7196)
Spectra Averaged: 100 (USB2E7196)
Boxcar Smoothing: 10 (USB2E7196)
Correct for Electrical Dark: No (USB2E7196)
Strobe/Lamp Enabled: No (USB2E7196)
Correct for Detector Non-linearity: No (USB2E7196)
Correct for Stray Light: No (USB2E7196)
Number of Pixels in Processed Spectrum: 2048
>>>>>Begin Processed Spectral Data<<<<<
339.09	0.00
339.48	215.06
339.86	215.78
340.24	217.26
340.63	218.74
341.01	221.27
341.39	222.19
341.78	222.68
342.16	224.19
342.54	224.84
342.93	213.03
343.31	223.82
343.69	224.34
344.07	224.85
344.46	225.31
344.84	225.73
345.22	225.97
345.60	226.18
345.99	226.36
346.37	226.49
346.75	226.57
347.13	226.63
347.52	226.66
347.90	226.76
348.28	226.80
348.66	226.83
349.05	226.79
349.43	226.84
349.81	226.88
350.19	226.91
350.57	226.94
350.96	227.02
351.34	227.07
351.72	227.16
352.10	227.22
352.48	227.28
352.87	227.30
353.25	227.37
353.63	227.44
354.01	227.52
354.39	227.60
354.77	227.70
355.15	227.77
355.54	227.82
355.92	227.83
356.30	227.88
356.68	227.97
357.06	228.05
357.44	228.09
357.82	228.17
358.20	228.25
358.58	228.32
358.97	228.39
359.35	228.46
359.73	228.52
360.11	228.57
360.49	228.62
360.87	228.64
361.25	228.69
361.63	228.77
362.01	228.81
362.39	228.85
362.77	228.84
363.15	228.85
363.53	228.87
363.91	228.88
364.29	228.95
364.67	228.87
365.05	228.88
365.43	228.88
365.81	228.89
366.19	228.94
366.57	228.95
366.95	228.92
367.33	228.91
367.71	228.89
368.09	228.89
368.47	228.88
368.85	228.87
369.23	228.86
369.61	228.79
369.99	228.77
370.37	228.74
370.75	228.80
371.13	228.76
371.51	228.72
371.89	228.69
372.27	228.66
372.65	228.62
373.03	228.58
373.41	228.53
373.78	228.46
374.16	228.35
374.54	228.31
374.92	228.28
375.30	228.21
375.68	228.14
376.06	228.08
376.44	227.98
376.82	227.89
377.19	227.82
377.57	227.72
377.95	227.66
378.33	227.58
378.71	227.47
379.09	227.42
379.47	227.40
379.84	227.35
380.22	227.24
380.60	227.22
380.98	227.17
381.36	227.09
381.73	227.05
382.11	227.01
382.49	226.93
382.87	226.85
383.25	226.81
383.62	226.89
384.00	226.83
384.38	226.81
384.76	226.82
385.13	226.86
385.51	226.83
385.89	226.77
386.27	226.74
386.64	226.69
387.02	226.66
387.40	226.59
387.78	226.59
388.15	226.59
388.53	226.53
388.91	226.47
389.29	226.45
389.66	226.45
390.04	226.44
390.42	226.45
390.79	226.45
391.17	226.44
391.55	226.32
391.92	226.31
392.30	226.31
392.68	226.27
393.05	226.22
393.43	226.24
393.81	226.27
394.18	226.28
394.56	226.27
394.94	226.27
395.31	226.29
395.69	226.29
396.06	226.31
396.44	226.33
396.82	226.37
397.19	226.46
397.57	226.45
397.95	226.46
398.32	226.46
398.70	226.47
399.07	226.48
399.45	226.51
399.82	226.58
400.20	226.65
400.58	226.69
400.95	226.71
401.33	226.83
401.70	226.97
402.08	227.05
402.45	227.16
402.83	227.27
403.20	227.38
403.58	227.47
403.95	227.58
404.33	227.71
404.71	227.84
405.08	228.03
405.46	228.18
405.83	228.32
406.21	228.49
406.58	228.67
406.96	228.86
407.33	229.04
407.70	229.19
408.08	229.42
408.45	229.65
408.83	229.89
409.20	230.06
409.58	230.23
409.95	230.48
410.33	230.75
410.70	231.02
411.08	231.28
411.45	231.57
411.82	231.87
412.20	232.23
412.57	232.63
412.95	232.90
413.32	233.31
413.69	233.71
414.07	234.12
414.44	234.61
414.82	235.12
415.19	235.66
415.56	236.25
415.94	236.79
416.31	237.45
416.68	238.09
417.06	238.81
417.43	239.48
417.81	240.26
418.18	241.03
418.55	241.88
418.93	242.78
419.30	243.68
419.67	244.61
420.04	245.56
420.42	246.56
420.79	247.77
421.16	248.92
421.54	250.13
421.91	251.36
422.28	252.61
422.66	253.92
423.03	255.24
423.40	256.60
423.77	258.05
424.15	259.47
424.52	260.96
424.89	262.62
425.26	264.19
425.64	265.61
426.01	267.22
426.38	268.89
426.75	270.56
427.13	272.32
427.50	274.14
427.87	276.07
428.24	277.98
428.61	279.76
428.99	281.68
429.36	283.79
429.73	285.87
430.10	287.92
430.47	289.98
430.85	292.09
431.22	294.33
431.59	296.71
431.96	298.97
432.33	301.45
432.70	303.79
433.08	306.57
433.45	309.24
433.82	311.83
434.19	314.67
434.56	317.52
434.93	320.18
435.30	322.83
435.68	325.65
436.05	328.48
436.42	331.25
436.79	333.80
437.16	336.49
437.53	339.35
437.90	342.13
438.27	344.86
438.64	347.70
439.01	350.26
439.38	352.49
439.75	354.65
440.13	357.17
440.50	359.51
440.87	361.41
441.24	363.33
441.61	365.46
441.98	366.94
442.35	368.72
442.72	370.55
443.09	372.36
443.46	373.34
443.83	373.89
444.20	374.35
444.57	375.16
444.94	375.52
445.31	375.78
445.68	376.12
446.05	376.18
446.42	375.81
446.79	375.36
447.16	374.89
447.53	374.54
447.90	373.34
448.27	372.15
448.64	370.55
449.01	369.38
449.37	367.41
449.74	365.51
450.11	363.24
450.48	360.74
450.85	358.17
451.22	356.07
451.59	354.00
451.96	352.08
452.33	349.45
452.70	346.98
453.07	344.15
453.43	341.25
453.80	338.46
454.17	335.76
454.54	333.19
454.91	330.44
455.28	327.76
455.65	325.25
456.02	322.80
456.38	320.63
456.75	317.97
457.12	315.73
457.49	313.51
457.86	311.34
458.23	309.47
458.59	307.42
458.96	305.29
459.33	303.44
459.70	301.58
460.07	300.10
460.43	298.40
460.80	296.79
461.17	295.34
461.54	293.86
461.91	292.39
462.27	290.97
462.64	289.76
463.01	288.43
463.38	287.14
463.74	285.76
464.11	284.57
464.48	283.56
464.85	282.45
465.21	281.59
465.58	280.68
465.95	279.64
466.32	278.75
466.68	277.86
467.05	276.98
467.42	276.07
467.78	275.14
468.15	274.28
468.52	273.62
468.88	272.80
469.25	272.06
469.62	271.52
469.98	270.87
470.35	270.23
470.72	269.67
471.08	269.04
471.45	268.53
471.82	268.02
472.18	267.45
472.55	267.04
472.92	266.53
473.28	266.08
473.65	265.63
474.02	265.18
474.38	264.84
474.75	264.54
475.11	264.23
475.48	263.99
475.85	263.79
476.21	263.55
476.58	263.37
476.94	263.25
477.31	263.07
477.67	262.92
478.04	262.83
478.41	262.74
478.77	262.80
479.14	262.75
479.50	262.76
479.87	262.84
480.23	262.90
480.60	263.00
480.96	263.10
481.33	263.27
481.69	263.49
482.06	263.69
482.42	263.90
482.79	264.15
483.15	264.43
483.52	264.76
483.88	265.13
484.25	265.50
484.61	265.90
484.98	266.32
485.34	266.88
485.71	267.45
486.07	268.05
486.44	268.57
486.80	269.28
487.17	269.98
487.53	270.75
487.90	271.55
488.26	272.50
488.62	273.47
488.99	274.47
489.35	275.50
489.72	276.60
490.08	277.77
490.44	279.02
490.81	280.35
491.17	281.75
491.54	283.22
491.90	284.78
492.26	286.41
492.63	288.14
492.99	289.91
493.36	291.81
493.72	293.82
494.08	295.95
494.45	298.23
494.81	300.61
495.17	303.09
495.54	305.69
495.90	308.36
496.26	311.18
496.63	314.15
496.99	317.26
497.35	320.54
497.72	323.92
498.08	327.45
498.44	331.17
498.80	335.09
499.17	339.16
499.53	343.36
499.89	347.77
500.26	352.29
500.62	356.99
500.98	361.95
501.34	367.06
501.71	372.40
502.07	377.84
502.43	383.48
502.79	389.34
503.16	395.47
503.52	401.80
503.88	408.21
504.24	414.90
504.60	421.81
504.97	428.97
505.33	436.36
505.69	444.12
506.05	451.89
506.41	459.81
506.78	467.97
507.14	476.45
507.50	485.17
507.86	494.20
508.22	503.42
508.59	512.68
508.95	522.29
509.31	532.19
509.67	542.30
510.03	552.63
510.39	563.22
510.75	573.96
511.12	584.83
511.48	596.13
511.84	607.58
512.20	619.11
512.56	631.05
512.92	643.25
513.28	655.57
513.64	668.02
514.00	680.71
514.37	693.69
514.73	706.79
515.09	719.73
515.45	733.03
515.81	746.61
516.17	760.58
516.53	774.78
516.89	788.92
517.25	803.12
517.61	817.51
517.97	832.04
518.33	846.56
518.69	861.43
519.05	876.40
519.41	891.54
519.77	907.12
520.13	922.54
520.49	937.84
520.85	953.25
521.21	968.91
521.57	985.10
521.93	1000.84
522.29	1017.16
522.65	1033.57
523.01	1049.89
523.37	1066.04
523.73	1082.24
524.09	1098.27
524.45	1114.53
524.81	1131.20
525.17	1147.99
525.53	1164.70
525.89	1181.53
526.25	1198.33
526.61	1214.83
526.97	1231.66
527.33	1248.13
527.68	1264.83
528.04	1281.37
528.40	1297.89
528.76	1315.04
529.12	1331.74
529.48	1348.54
529.84	1364.51
530.20	1381.05
530.56	1397.94
530.91	1415.17
531.27	1431.81
531.63	1448.31
531.99	1464.77
532.35	1480.63
532.71	1496.54
533.07	1512.93
533.42	1528.78
533.78	1544.77
534.14	1560.92
534.50	1576.15
534.86	1592.03
535.21	1607.10
535.57	1622.94
535.93	1638.32
536.29	1653.06
536.65	1667.91
537.00	1682.70
537.36	1697.89
537.72	1712.33
538.08	1726.67
538.44	1740.31
538.79	1754.10
539.15	1767.42
539.51	1781.03
539.87	1795.25
540.22	1808.71
540.58	1822.15
540.94	1835.20
541.29	1847.88
541.65	1860.34
542.01	1873.38
542.37	1885.51
542.72	1897.84
543.08	1909.50
543.44	1921.84
543.79	1932.97
544.15	1943.85
544.51	1955.28
544.87	1966.29
545.22	1977.13
545.58	1987.31
545.94	1997.19
546.29	2007.05
546.65	2017.05
547.01	2026.46
547.36	2035.19
547.72	2043.81
548.07	2051.83
548.43	2060.12
548.79	2068.20
549.14	2075.94
549.50	2083.28
549.86	2091.09
550.21	2098.37
550.57	2105.63
550.92	2112.24
551.28	2119.26
551.64	2126.45
551.99	2133.00
552.35	2139.17
552.70	2145.36
553.06	2151.31
553.41	2157.53
553.77	2163.58
554.13	2169.79
554.48	2175.97
554.84	2181.39
555.19	2186.74
555.55	2191.92
555.90	2196.48
556.26	2201.36
556.61	2206.14
556.97	2210.66
557.32	2214.68
557.68	2218.88
558.03	2223.29
558.39	2227.09
558.74	2231.77
559.10	2235.66
559.45	2239.34
559.81	2243.61
560.16	2247.44
560.52	2250.81
560.87	2254.45
561.23	2257.22
561.58	2260.06
561.94	2262.51
562.29	2265.00
562.64	2267.66
563.00	2270.29
563.35	2273.88
563.71	2277.10
564.06	2280.24
564.42	2282.96
564.77	2285.52
565.12	2287.83
565.48	2289.64
565.83	2291.57
566.19	2292.89
566.54	2293.78
566.89	2295.05
567.25	2295.62
567.60	2296.88
567.96	2298.52
568.31	2299.25
568.66	2300.32
569.02	2301.04
569.37	2301.40
569.72	2302.30
570.08	2302.45
570.43	2302.48
570.78	2301.91
571.14	2300.41
571.49	2299.16
571.84	2298.86
572.20	2297.65
572.55	2296.61
572.90	2295.05
573.26	2293.51
573.61	2291.80
573.96	2290.13
574.31	2287.17
574.67	2284.24
575.02	2280.64
575.37	2277.26
575.72	2273.58
576.08	2270.30
576.43	2266.96
576.78	2263.31
577.13	2260.06
577.49	2256.99
577.84	2253.49
578.19	2249.64
578.54	2246.00
578.90	2241.69
579.25	2236.11
579.60	2231.31
579.95	2226.25
580.30	2221.24
580.66	2216.09
581.01	2211.16
581.36	2206.10
581.71	2202.01
582.06	2197.64
582.42	2193.18
582.77	2187.92
583.12	2183.25
583.47	2178.51
583.82	2173.42
584.17	2168.08
584.53	2162.65
584.88	2157.01
585.23	2151.23
585.58	2145.76
585.93	2140.19
586.28	2135.36
586.63	2130.45
586.98	2125.33
587.34	2120.69
587.69	2115.78
588.04	2110.73
588.39	2105.15
588.74	2098.73
589.09	2092.46
589.44	2085.66
589.79	2079.65
590.14	2074.08
590.49	2067.51
590.84	2061.07
591.19	2055.07
591.54	2048.82
591.89	2041.50
592.25	2034.64
592.60	2027.50
592.95	2020.00
593.30	2012.80
593.65	2005.30
594.00	1998.11
594.35	1990.88
594.70	1982.78
595.05	1975.60
595.40	1968.22
595.75	1960.59
596.10	1954.47
596.45	1947.86
596.80	1941.75
597.15	1935.24
597.50	1928.21
597.85	1921.82
598.19	1915.32
598.54	1908.23
598.89	1901.55
599.24	1895.55
599.59	1888.97
599.94	1882.76
600.29	1876.46
600.64	1869.86
600.99	1862.36
601.34	1855.56
601.69	1848.55
602.04	1841.74
602.39	1834.48
602.74	1827.66
603.08	1821.07
603.43	1814.25
603.78	1806.79
604.13	1799.49
604.48	1792.09
604.83	1785.24
605.18	1778.28
605.53	1770.15
605.87	1762.10
606.22	1754.68
606.57	1746.64
606.92	1739.26
607.27	1731.94
607.62	1724.92
607.96	1717.49
608.31	1710.77
608.66	1703.17
609.01	1695.67
609.36	1688.14
609.70	1679.97
610.05	1671.96
610.40	1664.13
610.75	1655.89
611.10	1648.21
611.44	1639.84
611.79	1631.72
612.14	1622.93
612.49	1613.74
612.83	1605.42
613.18	1597.26
613.53	1589.24
613.88	1580.79
614.22	1572.45
614.57	1563.94
614.92	1556.12
615.27	1548.76
615.61	1540.59
615.96	1532.65
616.31	1525.02
616.65	1517.69
617.00	1510.20
617.35	1502.49
617.70	1494.21
618.04	1485.64
618.39	1477.47
618.74	1469.83
619.08	1461.72
619.43	1454.20
619.78	1447.28
620.12	1440.08
620.47	1432.67
620.82	1424.51
621.16	1417.11
621.51	1409.63
621.85	1401.95
622.20	1393.30
622.55	1384.92
622.89	1377.05
623.24	1369.30
623.59	1361.82
623.93	1354.17
624.28	1346.93
624.62	1339.52
624.97	1332.36
625.32	1325.51
625.66	1318.38
626.01	1311.25
626.35	1303.58
626.70	1295.78
627.04	1287.98
627.39	1280.13
627.73	1272.71
628.08	1265.83
628.43	1258.53
628.77	1251.17
629.12	1243.60
629.46	1236.44
629.81	1229.05
630.15	1221.80
630.50	1214.40
630.84	1206.26
631.19	1198.26
631.53	1190.77
631.88	1183.08
632.22	1175.44
632.57	1168.27
632.91	1160.87
633.26	1153.45
633.60	1146.23
633.95	1139.13
634.29	1132.13
634.64	1125.46
634.98	1118.09
635.32	1110.91
635.67	1104.25
636.01	1097.60
636.36	1090.80
636.70	1084.15
637.05	1077.43
637.39	1070.94
637.73	1064.46
638.08	1058.57
638.42	1052.66
638.77	1046.21
639.11	1039.68
639.45	1033.40
639.80	1026.68
640.14	1020.18
640.49	1013.55
640.83	1007.23
641.17	1001.00
641.52	994.66
641.86	988.28
642.20	982.38
642.55	976.05
642.89	969.62
643.23	963.05
643.58	957.35
643.92	951.27
644.26	945.23
644.61	939.25
644.95	933.27
645.29	926.70
645.64	920.01
645.98	913.66
646.32	907.81
646.66	901.66
647.01	895.84
647.35	890.13
647.69	884.24
648.04	878.68
648.38	872.92
648.72	866.96
649.06	860.85
649.41	854.97
649.75	849.01
650.09	843.07
650.43	837.24
650.78	831.10
651.12	825.10
651.46	819.44
651.80	813.65
652.14	808.25
652.49	802.86
652.83	797.68
653.17	792.06
653.51	786.27
653.85	780.90
654.20	775.32
654.54	769.33
654.88	763.69
655.22	757.82
655.56	752.05
655.90	746.52
656.25	741.28
656.59	735.96
656.93	730.89
657.27	725.72
657.61	720.33
657.95	715.16
658.29	710.06
658.64	704.80
658.98	699.52
659.32	693.99
659.66	688.75
660.00	683.41
660.34	678.42
660.68	673.51
661.02	668.48
661.36	663.72
661.70	659.21
662.05	654.84
662.39	650.48
662.73	645.98
663.07	641.72
663.41	637.25
663.75	632.71
664.09	628.15
664.43	623.79
664.77	619.58
665.11	615.33
665.45	611.18
665.79	607.11
666.13	602.95
666.47	598.84
666.81	594.65
667.15	590.54
667.49	586.61
667.83	582.74
668.17	578.78
668.51	574.71
668.85	570.69
669.19	566.75
669.53	562.91
669.87	559.10
670.21	555.29
670.55	551.66
670.89	548.27
671.23	544.80
671.57	541.24
671.91	537.73
672.25	534.23
672.58	530.73
672.92	527.24
673.26	524.07
673.60	520.95
673.94	517.88
674.28	514.89
674.62	511.89
674.96	508.85
675.30	505.94
675.64	502.99
675.97	500.20
676.31	497.38
676.65	494.44
676.99	491.72
677.33	488.88
677.67	486.06
678.01	483.02
678.34	480.07
678.68	477.20
679.02	474.39
679.36	471.61
679.70	468.88
680.04	466.18
680.37	463.30
680.71	460.49
681.05	457.87
681.39	455.17
681.73	452.51
682.06	450.00
682.40	447.47
682.74	444.93
683.08	442.35
683.42	439.74
683.75	437.27
684.09	434.74
684.43	432.25
684.77	429.78
685.10	427.34
685.44	425.03
685.78	422.74
686.12	420.49
686.45	418.25
686.79	415.94
687.13	413.72
687.46	411.57
687.80	409.43
688.14	407.18
688.48	405.17
688.81	402.98
689.15	400.82
689.49	398.65
689.82	396.59
690.16	394.48
690.50	392.52
690.83	390.56
691.17	388.54
691.51	386.71
691.84	384.83
692.18	382.96
692.52	381.01
692.85	379.03
693.19	377.12
693.52	375.28
693.86	373.45
694.20	371.67
694.53	369.88
694.87	368.03
695.21	366.26
695.54	364.39
695.88	362.67
696.21	360.92
696.55	359.26
696.88	357.55
697.22	355.95
697.56	354.34
697.89	352.67
698.23	351.09
698.56	349.45
698.90	347.91
699.23	346.31
699.57	344.76
699.90	343.26
700.24	341.71
700.58	340.17
700.91	338.73
701.25	337.28
701.58	335.93
701.92	334.57
702.25	333.15
702.59	331.79
702.92	330.46
703.26	329.18
703.59	327.88
703.93	326.72
704.26	325.49
704.60	324.18
704.93	322.90
705.26	321.65
705.60	320.44
705.93	319.20
706.27	318.12
706.60	317.04
706.94	315.95
707.27	314.84
707.61	313.79
707.94	312.75
708.27	311.64
708.61	310.52
708.94	309.50
709.28	308.56
709.61	307.56
709.94	306.58
710.28	305.57
710.61	304.59
710.95	303.45
711.28	302.51
711.61	301.53
711.95	300.64
712.28	299.65
712.61	298.66
712.95	297.74
713.28	296.81
713.61	295.91
713.95	295.00
714.28	294.14
714.61	293.27
714.95	292.35
715.28	291.48
715.61	290.57
715.95	289.71
716.28	288.84
716.61	288.02
716.95	287.17
717.28	286.41
717.61	285.63
717.94	284.92
718.28	284.14
718.61	283.45
718.94	282.72
719.27	282.06
719.61	281.40
719.94	280.75
720.27	280.09
720.60	279.41
720.94	278.79
721.27	278.21
721.60	277.60
721.93	277.05
722.27	276.50
722.60	276.01
722.93	275.46
723.26	274.92
723.59	274.38
723.93	273.86
724.26	273.26
724.59	272.73
724.92	272.19
725.25	271.67
725.59	271.17
725.92	270.66
726.25	270.19
726.58	269.73
726.91	269.21
727.24	268.72
727.57	268.26
727.91	267.78
728.24	267.32
728.57	266.86
728.90	266.39
729.23	265.88
729.56	265.42
729.89	264.94
730.22	264.48
730.55	264.03
730.89	263.62
731.22	263.18
731.55	262.77
731.88	262.37
732.21	261.94
732.54	261.49
732.87	261.06
733.20	260.66
733.53	260.28
733.86	259.92
734.19	259.53
734.52	259.18
734.85	258.90
735.18	258.50
735.51	258.16
735.84	257.80
736.17	257.48
736.50	257.07
736.83	256.86
737.16	256.52
737.49	256.20
737.82	255.84
738.15	255.51
738.48	255.15
738.81	254.83
739.14	254.54
739.47	254.26
739.80	253.98
740.13	253.69
740.46	253.34
740.79	253.02
741.12	252.73
741.45	252.41
741.78	252.04
742.11	251.77
742.44	251.45
742.77	251.16
743.10	250.86
743.43	250.57
743.75	250.17
744.08	250.01
744.41	249.70
744.74	249.44
745.07	249.18
745.40	248.93
745.73	248.69
746.06	248.37
746.39	248.08
746.71	247.81
747.04	247.52
747.37	247.29
747.70	247.09
748.03	246.86
748.36	246.62
748.68	246.39
749.01	246.12
749.34	245.88
749.67	245.65
750.00	245.39
750.33	245.25
750.65	245.04
750.98	244.69
751.31	244.45
751.64	244.22
751.97	244.04
752.29	243.82
752.62	243.52
752.95	243.32
753.28	243.11
753.60	242.88
753.93	242.71
754.26	242.47
754.59	242.21
754.91	241.96
755.24	241.76
755.57	241.51
755.90	241.31
756.22	241.10
756.55	240.90
756.88	240.67
757.20	240.43
757.53	240.22
757.86	240.07
758.19	239.90
758.51	239.74
758.84	239.51
759.17	239.30
759.49	239.18
759.82	239.06
760.15	238.89
760.47	238.75
760.80	238.56
761.13	238.46
761.45	238.28
761.78	238.12
762.11	237.99
762.43	237.86
762.76	237.74
763.08	237.60
763.41	237.45
763.74	237.35
764.06	237.20
764.39	237.05
764.71	236.91
765.04	236.80
765.37	236.67
765.69	236.57
766.02	236.45
766.34	236.34
766.67	236.21
767.00	236.12
767.32	236.06
767.65	236.03
767.97	235.89
768.30	235.82
768.62	235.74
768.95	235.58
769.27	235.49
769.60	235.40
769.92	235.34
770.25	235.24
770.57	235.13
770.90	235.04
771.22	234.97
771.55	234.89
771.87	234.80
772.20	234.70
772.52	234.71
772.85	234.78
773.17	234.68
773.50	234.58
773.82	234.47
774.15	234.33
774.47	234.18
774.80	234.12
775.12	234.05
775.45	233.97
775.77	233.92
776.09	233.86
776.42	233.76
776.74	233.70
777.07	233.61
777.39	233.56
777.72	233.48
778.04	233.41
778.36	233.33
778.69	233.26
779.01	233.23
779.33	233.07
779.66	232.88
779.98	232.85
780.31	232.80
780.63	232.78
780.95	232.76
781.28	232.71
781.60	232.64
781.92	232.56
782.25	232.52
782.57	232.43
782.89	232.36
783.22	232.29
783.54	232.23
783.86	232.19
784.19	232.15
784.51	232.10
784.83	232.05
785.16	231.98
785.48	231.94
785.80	231.91
786.12	231.87
786.45	231.81
786.77	231.74
787.09	231.70
787.42	231.64
787.74	231.58
788.06	231.50
788.38	231.44
788.71	231.43
789.03	231.38
789.35	231.38
789.67	231.32
789.99	231.31
790.32	231.24
790.64	231.22
790.96	231.25
791.28	231.17
791.61	231.12
791.93	231.09
792.25	230.99
792.57	230.96
792.89	230.87
793.21	230.80
793.54	230.71
793.86	230.61
794.18	230.57
794.50	230.47
794.82	230.41
795.14	230.36
795.47	230.30
795.79	230.23
796.11	230.15
796.43	230.11
796.75	230.05
797.07	230.03
797.39	229.93
797.71	229.79
798.04	229.77
798.36	229.75
798.68	229.70
799.00	229.68
799.32	229.62
799.64	229.62
799.96	229.61
800.28	229.62
800.60	229.60
800.92	229.57
801.24	229.55
801.56	229.55
801.89	229.53
802.21	229.50
802.53	229.44
802.85	229.45
803.17	229.46
803.49	229.41
803.81	229.34
804.13	229.34
804.45	229.33
804.77	229.31
805.09	229.31
805.41	229.29
805.73	229.27
806.05	229.23
806.37	229.23
806.69	229.19
807.01	229.19
807.33	229.17
807.65	229.09
807.97	229.13
808.28	229.11
808.60	229.09
808.92	229.05
809.24	229.10
809.56	229.05
809.88	229.02
810.20	229.05
810.52	229.08
810.84	229.07
811.16	229.03
811.48	229.01
811.80	229.00
812.12	228.99
812.43	229.00
812.75	228.99
813.07	228.95
813.39	228.95
813.71	228.93
814.03	228.94
814.35	228.95
814.67	228.89
814.98	228.87
815.30	228.85
815.62	228.85
815.94	228.77
816.26	228.82
816.58	228.76
816.89	228.72
817.21	228.67
817.53	228.64
817.85	228.63
818.17	228.63
818.48	228.60
818.80	228.59
819.12	228.58
819.44	228.53
819.76	228.51
820.07	228.49
820.39	228.46
820.71	228.44
821.03	228.43
821.34	228.44
821.66	228.43
821.98	228.44
822.30	228.42
822.61	228.48
822.93	228.41
823.25	228.41
823.57	228.38
823.88	228.38
824.20	228.36
824.52	228.37
824.83	228.35
825.15	228.31
825.47	228.29
825.79	228.28
826.10	228.27
826.42	228.22
826.74	228.21
827.05	228.19
827.37	228.17
827.69	228.16
828.00	228.14
828.32	228.14
828.64	228.09
828.95	228.13
829.27	228.08
829.58	228.02
829.90	228.01
830.22	228.02
830.53	228.03
830.85	228.02
831.17	227.93
831.48	227.93
831.80	227.92
832.11	227.88
832.43	227.85
832.75	227.84
833.06	227.89
833.38	227.85
833.69	227.83
834.01	227.82
834.32	227.78
834.64	227.76
834.96	227.73
835.27	227.72
835.59	227.68
835.90	227.67
836.22	227.66
836.53	227.64
836.85	227.59
837.16	227.63
837.48	227.63
837.79	227.66
838.11	227.66
838.42	227.65
838.74	227.68
839.05	227.65
839.37	227.64
839.68	227.57
840.00	227.58
840.31	227.58
840.63	227.56
840.94	227.57
841.26	227.52
841.57	227.54
841.88	227.53
842.20	227.47
842.51	227.44
842.83	227.45
843.14	227.54
843.46	227.53
843.77	227.52
844.08	227.50
844.40	227.49
844.71	227.48
845.03	227.44
845.34	227.43
845.65	227.43
845.97	227.42
846.28	227.43
846.60	227.41
846.91	227.38
847.22	227.37
847.54	227.35
847.85	227.36
848.16	227.34
848.48	227.32
848.79	227.37
849.10	227.40
849.42	227.40
849.73	227.32
850.04	227.33
850.36	227.26
850.67	227.32
850.98	227.31
851.30	227.30
851.61	227.30
851.92	227.30
852.23	227.33
852.55	227.35
852.86	227.34
853.17	227.34
853.49	227.35
853.80	227.39
854.11	227.44
854.42	227.45
854.74	227.44
855.05	227.44
855.36	227.42
855.67	227.40
855.99	227.42
856.30	227.55
856.61	227.54
856.92	227.54
857.23	227.50
857.55	227.45
857.86	227.43
858.17	227.47
858.48	227.45
858.79	227.43
859.11	227.42
859.42	227.43
859.73	227.44
860.04	227.46
860.35	227.39
860.66	227.35
860.98	227.34
861.29	227.34
861.60	227.33
861.91	227.33
862.22	227.29
862.53	227.24
862.84	227.11
863.16	227.13
863.47	227.12
863.78	227.10
864.09	227.13
864.40	227.16
864.71	227.14
865.02	227.14
865.33	227.14
865.64	227.13
865.95	227.11
866.27	227.15
866.58	227.15
866.89	227.17
867.20	227.17
867.51	227.16
867.82	227.12
868.13	227.15
868.44	227.14
868.75	227.18
869.06	227.18
869.37	227.17
869.68	227.11
869.99	227.10
870.30	227.14
870.61	227.11
870.92	227.07
871.23	227.04
871.54	227.05
871.85	227.03
872.16	227.02
872.47	227.06
872.78	227.01
873.09	226.99
873.40	226.96
873.71	226.96
874.02	226.97
874.33	226.97
874.64	226.93
874.95	226.94
875.26	226.88
875.56	226.88
875.87	226.90
876.18	226.91
876.49	227.00
876.80	226.96
877.11	226.97
877.42	226.97
877.73	226.95
878.04	226.94
878.35	226.95
878.66	226.96
878.96	226.91
879.27	226.88
879.58	226.89
879.89	226.88
880.20	226.88
880.51	226.83
880.82	226.85
881.12	226.88
881.43	226.86
881.74	226.88
882.05	226.85
882.36	226.84
882.67	226.83
882.97	226.72
883.28	226.70
883.59	226.72
883.90	226.72
884.21	226.75
884.51	226.74
884.82	226.73
885.13	226.71
885.44	226.70
885.74	226.69
886.05	226.69
886.36	226.68
886.67	226.68
886.98	226.75
887.28	226.76
887.59	226.77
887.90	226.78
888.20	226.76
888.51	226.82
888.82	226.81
889.13	226.83
889.43	226.93
889.74	226.95
890.05	226.93
890.35	226.95
890.66	226.95
890.97	226.92
891.28	226.90
891.58	226.93
891.89	226.95
892.20	226.97
892.50	226.92
892.81	226.93
893.12	226.91
893.42	226.86
893.73	226.87
894.04	226.88
894.34	226.89
894.65	226.90
894.95	226.87
895.26	226.86
895.57	226.89
895.87	226.77
896.18	226.78
896.48	226.74
896.79	226.74
897.10	226.74
897.40	226.76
897.71	226.76
898.01	226.72
898.32	226.72
898.63	226.70
898.93	226.73
899.24	226.76
899.54	226.77
899.85	226.78
900.15	226.78
900.46	226.71
900.76	226.71
901.07	226.73
901.38	226.73
901.68	226.72
901.99	226.68
902.29	226.69
902.60	226.68
902.90	226.69
903.21	226.67
903.51	226.68
903.82	226.70
904.12	226.73
904.43	226.76
904.73	226.76
905.03	226.79
905.34	226.90
905.64	226.86
905.95	226.85
906.25	226.82
906.56	226.82
906.86	226.85
907.17	226.83
907.47	226.83
907.77	226.83
908.08	226.81
908.38	226.83
908.69	226.85
908.99	226.87
909.30	226.89
909.60	226.90
909.90	226.88
910.21	226.87
910.51	226.82
910.81	226.83
911.12	226.84
911.42	226.83
911.73	226.71
912.03	226.74
912.33	226.76
912.64	226.77
912.94	226.74
913.24	226.72
913.55	226.70
913.85	226.70
914.15	226.71
914.46	226.75
914.76	226.75
915.06	226.74
915.37	226.70
915.67	226.71
915.97	226.72
916.27	226.66
916.58	226.64
916.88	226.63
917.18	226.60
917.49	226.65
917.79	226.64
918.09	226.66
918.39	226.67
918.70	226.68
919.00	226.68
919.30	226.70
919.60	226.69
919.91	226.73
920.21	226.73
920.51	226.70
920.81	226.66
921.12	226.63
921.42	226.64
921.72	226.66
922.02	226.64
922.32	226.65
922.63	226.70
922.93	226.73
923.23	226.75
923.53	226.71
923.83	226.65
924.13	226.64
924.44	226.64
924.74	226.66
925.04	226.69
925.34	226.68
925.64	226.67
925.94	226.69
926.24	226.71
926.55	226.70
926.85	226.72
927.15	226.72
927.45	226.76
927.75	226.77
928.05	226.77
928.35	226.77
928.65	226.81
928.95	226.81
929.26	226.81
929.56	226.84
929.86	226.91
930.16	226.92
930.46	226.95
930.76	226.96
931.06	226.90
931.36	226.85
931.66	226.87
931.96	226.86
932.26	226.86
932.56	226.83
932.86	226.84
933.16	226.84
933.46	226.86
933.76	226.83
934.06	226.81
934.36	226.85
934.66	226.89
934.96	226.86
935.26	226.87
935.56	226.84
935.86	226.82
936.16	226.77
936.46	226.73
936.76	226.72
937.06	226.70
937.36	226.72
937.66	226.73
937.96	226.75
938.26	226.75
938.56	226.72
938.86	226.73
939.16	226.72
939.46	226.73
939.76	226.71
940.06	226.74
940.35	226.74
940.65	226.69
940.95	226.67
941.25	226.66
941.55	226.67
941.85	226.70
942.15	226.74
942.45	226.76
942.75	226.81
943.04	226.81
943.34	226.85
943.64	226.84
943.94	226.82
944.24	226.81
944.54	226.82
944.84	226.81
945.13	226.79
945.43	226.79
945.73	226.77
946.03	226.77
946.33	226.71
946.62	226.71
946.92	226.68
947.22	226.69
947.52	226.69
947.82	226.70
948.11	226.67
948.41	226.61
948.71	226.61
949.01	226.59
949.31	226.55
949.60	226.55
949.90	226.58
950.20	226.58
950.50	226.57
950.79	226.53
951.09	226.57
951.39	226.58
951.69	226.56
951.98	226.60
952.28	226.62
952.58	226.63
952.87	226.64
953.17	226.66
953.47	226.64
953.76	226.63
954.06	226.58
954.36	226.57
954.66	226.59
954.95	226.60
955.25	226.57
955.55	226.60
955.84	226.57
956.14	226.57
956.44	226.58
956.73	226.54
957.03	226.54
957.32	226.54
957.62	226.52
957.92	226.55
958.21	226.51
958.51	226.62
958.81	226.62
959.10	226.64
959.40	226.65
959.69	226.64
959.99	226.66
960.29	226.66
960.58	226.66
960.88	226.71
961.17	226.71
961.47	226.77
961.76	226.78
962.06	226.78
962.36	226.78
962.65	226.77
962.95	226.80
963.24	226.85
963.54	226.86
963.83	226.84
964.13	226.80
964.42	226.79
964.72	226.69
965.01	226.72
965.31	226.72
965.60	226.73
965.90	226.80
966.19	226.78
966.49	226.81
966.78	226.81
967.08	226.79
967.37	226.78
967.67	226.76
967.96	226.76
968.26	226.75
968.55	226.74
968.85	226.77
969.14	226.77
969.43	226.73
969.73	226.73
970.02	226.76
970.32	226.79
970.61	226.80
970.91	226.78
971.20	226.78
971.49	226.76
971.79	226.76
972.08	226.71
972.38	226.72
972.67	226.69
972.96	226.69
973.26	226.67
973.55	226.68
973.85	226.66
974.14	226.68
974.43	226.69
974.73	226.68
975.02	226.64
975.31	226.65
975.61	226.69
975.90	226.67
976.19	226.66
976.49	226.64
976.78	226.64
977.07	226.64
977.37	226.62
977.66	226.63
977.95	226.63
978.24	226.63
978.54	226.62
978.83	226.64
979.12	226.64
979.42	226.65
979.71	226.61
980.00	226.58
980.29	226.56
980.59	226.54
980.88	226.55
981.17	226.54
981.46	226.54
981.76	226.51
982.05	226.51
982.34	226.51
982.63	226.51
982.93	226.51
983.22	226.50
983.51	226.50
983.80	226.49
984.09	226.49
984.39	226.48
984.68	226.47
984.97	226.46
985.26	226.45
985.55	226.46
985.85	226.47
986.14	226.51
986.43	226.53
986.72	226.51
987.01	226.49
987.30	226.50
987.59	226.49
987.89	226.48
988.18	226.45
988.47	226.42
988.76	226.44
989.05	226.43
989.34	226.42
989.63	226.43
989.92	226.40
990.22	226.39
990.51	226.38
990.80	226.38
991.09	226.39
991.38	226.39
991.67	226.34
991.96	226.33
992.25	226.33
992.54	226.29
992.83	226.30
993.12	226.30
993.41	226.32
993.70	226.34
993.99	226.37
994.28	226.42
994.58	226.44
994.87	226.41
995.16	226.41
995.45	226.39
995.74	226.38
996.03	226.39
996.32	226.40
996.61	226.42
996.90	226.43
997.19	226.40
997.48	226.47
997.77	226.52
998.06	226.51
998.34	226.51
998.63	226.53
998.92	226.52
999.21	226.54
999.50	226.56
999.79	226.51
1000.08	226.54
1000.37	226.53
1000.66	226.52
1000.95	226.56
1001.24	226.55
1001.53	226.59
1001.82	226.59
1002.11	226.56
1002.40	226.56
1002.68	226.57
1002.97	226.66
1003.26	226.69
1003.55	226.63
1003.84	226.62
1004.13	226.69
1004.42	226.67
1004.71	226.69
1004.99	226.67
1005.28	226.66
1005.57	226.66
1005.86	226.70
1006.15	226.66
1006.44	226.64
1006.72	226.65
1007.01	226.63
1007.30	226.66
1007.59	226.65
1007.88	226.65
1008.17	226.69
1008.45	226.70
1008.74	226.67
1009.03	226.61
1009.32	226.61
1009.60	226.62
1009.89	226.60
1010.18	226.52
1010.47	226.51
1010.76	226.47
1011.04	226.49
1011.33	226.51
1011.62	226.50
1011.91	226.45
1012.19	226.46
1012.48	226.50
1012.77	226.50
1013.05	226.57
1013.34	226.57
1013.63	226.60
1013.92	226.62
1014.20	226.58
1014.49	226.60
1014.78	226.59
1015.06	226.57
1015.35	226.56
1015.64	226.56
1015.92	226.57
1016.21	226.59
1016.50	226.59
1016.78	226.60
1017.07	226.61
1017.36	226.59
1017.64	226.58
1017.93	226.62
1018.22	226.63
1018.50	226.63
1018.79	226.63
1019.08	226.54
1019.36	226.54
1019.65	226.49
1019.93	226.51
1020.22	226.56
1020.51	226.60
1020.79	226.59
1021.08	226.86
1021.36	226.92
1021.65	226.34
1021.94	226.10
1022.22	226.95
1022.51	226.00
1022.79	227.17
1023.08	227.14
1023.36	227.91
1023.65	226.24
>>>>>End Processed Spectral Data<<<<<
