SpectraSuite Data File
++++++++++++++++++++++++++++++++++++
Date: Fri Feb 01 15:58:16 EST 2013
User: group
Dark Spectrum Present: No
Reference Spectrum Present: No
Number of Sampled Component Spectra: 1
Spectrometers: USB2E7196
Integration Time (usec): 35000 (USB2E7196)
Spectra Averaged: 100 (USB2E7196)
Boxcar Smoothing: 10 (USB2E7196)
Correct for Electrical Dark: No (USB2E7196)
Strobe/Lamp Enabled: No (USB2E7196)
Correct for Detector Non-linearity: No (USB2E7196)
Correct for Stray Light: No (USB2E7196)
Number of Pixels in Processed Spectrum: 2048
>>>>>Begin Processed Spectral Data<<<<<
339.09	0.00
339.48	214.99
339.86	215.72
340.24	217.60
340.63	218.71
341.01	222.17
341.39	221.41
341.78	223.18
342.16	224.29
342.54	224.77
342.93	213.07
343.31	223.86
343.69	224.40
344.07	224.89
344.46	225.30
344.84	225.67
345.22	225.90
345.60	226.17
345.99	226.38
346.37	226.50
346.75	226.60
347.13	226.71
347.52	226.78
347.90	226.87
348.28	226.89
348.66	226.91
349.05	226.91
349.43	226.95
349.81	226.99
350.19	227.04
350.57	227.13
350.96	227.18
351.34	227.24
351.72	227.32
352.10	227.39
352.48	227.49
352.87	227.60
353.25	227.65
353.63	227.68
354.01	227.72
354.39	227.80
354.77	227.88
355.15	227.95
355.54	228.02
355.92	228.04
356.30	228.12
356.68	228.27
357.06	228.33
357.44	228.38
357.82	228.43
358.20	228.52
358.58	228.58
358.97	228.62
359.35	228.71
359.73	228.79
360.11	228.83
360.49	228.90
360.87	228.92
361.25	228.97
361.63	229.05
362.01	229.08
362.39	229.11
362.77	229.14
363.15	229.15
363.53	229.19
363.91	229.22
364.29	229.24
364.67	229.15
365.05	229.19
365.43	229.23
365.81	229.23
366.19	229.27
366.57	229.30
366.95	229.31
367.33	229.25
367.71	229.23
368.09	229.26
368.47	229.23
368.85	229.20
369.23	229.22
369.61	229.14
369.99	229.17
370.37	229.12
370.75	229.13
371.13	229.06
371.51	228.98
371.89	228.92
372.27	228.87
372.65	228.84
373.03	228.75
373.41	228.69
373.78	228.60
374.16	228.48
374.54	228.41
374.92	228.35
375.30	228.29
375.68	228.20
376.06	228.12
376.44	228.01
376.82	227.94
377.19	227.84
377.57	227.82
377.95	227.69
378.33	227.67
378.71	227.55
379.09	227.52
379.47	227.47
379.84	227.38
380.22	227.31
380.60	227.21
380.98	227.14
381.36	227.07
381.73	227.04
382.11	226.99
382.49	226.91
382.87	226.82
383.25	226.78
383.62	226.85
384.00	226.78
384.38	226.72
384.76	226.72
385.13	226.73
385.51	226.60
385.89	226.55
386.27	226.49
386.64	226.44
387.02	226.36
387.40	226.31
387.78	226.33
388.15	226.29
388.53	226.24
388.91	226.23
389.29	226.20
389.66	226.16
390.04	226.12
390.42	226.14
390.79	226.14
391.17	226.11
391.55	225.98
391.92	225.97
392.30	226.01
392.68	225.96
393.05	225.93
393.43	226.00
393.81	226.01
394.18	226.00
394.56	226.02
394.94	226.08
395.31	226.09
395.69	226.14
396.06	226.17
396.44	226.25
396.82	226.28
397.19	226.38
397.57	226.38
397.95	226.48
398.32	226.48
398.70	226.52
399.07	226.59
399.45	226.65
399.82	226.71
400.20	226.78
400.58	226.87
400.95	226.91
401.33	227.01
401.70	227.14
402.08	227.24
402.45	227.34
402.83	227.45
403.20	227.57
403.58	227.64
403.95	227.77
404.33	227.90
404.71	228.00
405.08	228.14
405.46	228.32
405.83	228.47
406.21	228.63
406.58	228.79
406.96	228.97
407.33	229.18
407.70	229.38
408.08	229.61
408.45	229.83
408.83	230.08
409.20	230.28
409.58	230.50
409.95	230.74
410.33	231.04
410.70	231.27
411.08	231.58
411.45	231.87
411.82	232.19
412.20	232.55
412.57	232.99
412.95	233.32
413.32	233.73
413.69	234.17
414.07	234.62
414.44	235.11
414.82	235.60
415.19	236.12
415.56	236.65
415.94	237.19
416.31	237.86
416.68	238.48
417.06	239.22
417.43	239.87
417.81	240.66
418.18	241.41
418.55	242.25
418.93	243.13
419.30	244.01
419.67	244.96
420.04	245.91
420.42	246.90
420.79	248.04
421.16	249.22
421.54	250.37
421.91	251.58
422.28	252.83
422.66	254.15
423.03	255.48
423.40	256.84
423.77	258.25
424.15	259.65
424.52	261.13
424.89	262.75
425.26	264.30
425.64	265.75
426.01	267.35
426.38	269.04
426.75	270.67
427.13	272.43
427.50	274.23
427.87	276.10
428.24	277.94
428.61	279.72
428.99	281.65
429.36	283.76
429.73	285.85
430.10	287.86
430.47	289.95
430.85	292.08
431.22	294.31
431.59	296.68
431.96	298.90
432.33	301.37
432.70	303.73
433.08	306.57
433.45	309.19
433.82	311.83
434.19	314.68
434.56	317.50
434.93	320.11
435.30	322.72
435.68	325.64
436.05	328.52
436.42	331.32
436.79	333.80
437.16	336.53
437.53	339.33
437.90	342.12
438.27	344.89
438.64	347.66
439.01	350.27
439.38	352.53
439.75	354.73
440.13	357.22
440.50	359.55
440.87	361.35
441.24	363.32
441.61	365.44
441.98	366.92
442.35	368.71
442.72	370.59
443.09	372.42
443.46	373.39
443.83	373.98
444.20	374.48
444.57	375.31
444.94	375.54
445.31	375.87
445.68	376.23
446.05	376.23
446.42	375.85
446.79	375.43
447.16	374.98
447.53	374.65
447.90	373.51
448.27	372.36
448.64	370.81
449.01	369.65
449.37	367.68
449.74	365.79
450.11	363.56
450.48	361.06
450.85	358.49
451.22	356.32
451.59	354.28
451.96	352.32
452.33	349.72
452.70	347.34
453.07	344.55
453.43	341.65
453.80	338.92
454.17	336.26
454.54	333.72
454.91	330.96
455.28	328.23
455.65	325.71
456.02	323.23
456.38	321.10
456.75	318.44
457.12	316.20
457.49	314.00
457.86	311.83
458.23	310.03
458.59	308.02
458.96	305.96
459.33	304.09
459.70	302.22
460.07	300.66
460.43	298.96
460.80	297.30
461.17	295.84
461.54	294.28
461.91	292.84
462.27	291.38
462.64	290.17
463.01	288.87
463.38	287.62
463.74	286.27
464.11	285.09
464.48	284.07
464.85	282.98
465.21	282.12
465.58	281.21
465.95	280.10
466.32	279.18
466.68	278.26
467.05	277.38
467.42	276.49
467.78	275.60
468.15	274.74
468.52	274.08
468.88	273.24
469.25	272.53
469.62	271.92
469.98	271.27
470.35	270.62
470.72	270.02
471.08	269.34
471.45	268.80
471.82	268.25
472.18	267.64
472.55	267.14
472.92	266.59
473.28	266.15
473.65	265.71
474.02	265.27
474.38	264.95
474.75	264.62
475.11	264.29
475.48	264.04
475.85	263.83
476.21	263.62
476.58	263.48
476.94	263.32
477.31	263.17
477.67	263.04
478.04	262.95
478.41	262.87
478.77	262.92
479.14	262.90
479.50	262.91
479.87	262.97
480.23	263.10
480.60	263.20
480.96	263.28
481.33	263.50
481.69	263.68
482.06	263.84
482.42	264.04
482.79	264.29
483.15	264.58
483.52	264.96
483.88	265.32
484.25	265.71
484.61	266.13
484.98	266.57
485.34	267.11
485.71	267.67
486.07	268.27
486.44	268.81
486.80	269.50
487.17	270.21
487.53	271.05
487.90	271.86
488.26	272.79
488.62	273.76
488.99	274.70
489.35	275.76
489.72	276.89
490.08	278.10
490.44	279.33
490.81	280.69
491.17	282.00
491.54	283.47
491.90	284.98
492.26	286.66
492.63	288.39
492.99	290.19
493.36	292.10
493.72	294.15
494.08	296.27
494.45	298.50
494.81	300.90
495.17	303.31
495.54	305.90
495.90	308.60
496.26	311.42
496.63	314.38
496.99	317.53
497.35	320.79
497.72	324.18
498.08	327.68
498.44	331.39
498.80	335.38
499.17	339.43
499.53	343.62
499.89	347.99
500.26	352.50
500.62	357.19
500.98	362.17
501.34	367.30
501.71	372.63
502.07	378.03
502.43	383.61
502.79	389.44
503.16	395.49
503.52	401.74
503.88	408.15
504.24	414.80
504.60	421.65
504.97	428.82
505.33	436.20
505.69	443.93
506.05	451.68
506.41	459.53
506.78	467.65
507.14	476.08
507.50	484.78
507.86	493.79
508.22	502.96
508.59	512.17
508.95	521.72
509.31	531.52
509.67	541.68
510.03	552.03
510.39	562.62
510.75	573.45
511.12	584.38
511.48	595.73
511.84	607.22
512.20	618.75
512.56	630.69
512.92	642.87
513.28	655.23
513.64	667.66
514.00	680.35
514.37	693.27
514.73	706.39
515.09	719.42
515.45	732.69
515.81	746.27
516.17	760.28
516.53	774.43
516.89	788.62
517.25	802.88
517.61	817.32
517.97	831.71
518.33	846.17
518.69	860.93
519.05	875.86
519.41	890.93
519.77	906.44
520.13	921.91
520.49	937.26
520.85	952.55
521.21	968.25
521.57	984.43
521.93	1000.18
522.29	1016.52
522.65	1032.74
523.01	1049.01
523.37	1065.04
523.73	1081.15
524.09	1097.21
524.45	1113.50
524.81	1129.98
525.17	1146.73
525.53	1163.61
525.89	1180.39
526.25	1197.24
526.61	1213.58
526.97	1230.40
527.33	1246.81
527.68	1263.31
528.04	1279.77
528.40	1296.45
528.76	1313.51
529.12	1330.09
529.48	1347.02
529.84	1362.95
530.20	1379.58
530.56	1396.59
530.91	1413.92
531.27	1430.60
531.63	1446.89
531.99	1463.37
532.35	1479.30
532.71	1495.07
533.07	1511.35
533.42	1527.27
533.78	1543.27
534.14	1559.49
534.50	1574.69
534.86	1590.68
535.21	1605.86
535.57	1621.70
535.93	1637.22
536.29	1652.04
536.65	1666.99
537.00	1681.74
537.36	1697.11
537.72	1711.58
538.08	1725.88
538.44	1739.64
538.79	1753.60
539.15	1767.40
539.51	1781.19
539.87	1795.48
540.22	1809.25
540.58	1822.88
540.94	1836.13
541.29	1849.04
541.65	1861.71
542.01	1874.96
542.37	1887.13
542.72	1899.51
543.08	1911.33
543.44	1923.52
543.79	1934.62
544.15	1945.75
544.51	1957.17
544.87	1968.13
545.22	1978.99
545.58	1989.13
545.94	1998.88
546.29	2008.54
546.65	2018.30
547.01	2027.59
547.36	2036.53
547.72	2045.07
548.07	2052.92
548.43	2061.20
548.79	2069.21
549.14	2076.73
549.50	2083.95
549.86	2091.58
550.21	2099.01
550.57	2106.00
550.92	2112.60
551.28	2119.76
551.64	2126.75
551.99	2133.35
552.35	2139.30
552.70	2145.39
553.06	2151.33
553.41	2157.60
553.77	2163.61
554.13	2169.72
554.48	2175.84
554.84	2181.02
555.19	2186.20
555.55	2191.41
555.90	2195.61
556.26	2200.48
556.61	2205.32
556.97	2209.59
557.32	2213.66
557.68	2217.69
558.03	2222.07
558.39	2225.91
558.74	2230.41
559.10	2234.22
559.45	2237.83
559.81	2242.19
560.16	2245.99
560.52	2249.42
560.87	2252.94
561.23	2255.77
561.58	2258.72
561.94	2261.15
562.29	2263.58
562.64	2266.31
563.00	2268.82
563.35	2272.55
563.71	2275.57
564.06	2278.58
564.42	2281.40
564.77	2283.98
565.12	2286.17
565.48	2288.07
565.83	2289.91
566.19	2291.23
566.54	2292.08
566.89	2293.28
567.25	2293.87
567.60	2295.13
567.96	2296.57
568.31	2297.51
568.66	2298.51
569.02	2299.01
569.37	2299.13
569.72	2300.03
570.08	2300.02
570.43	2300.19
570.78	2299.54
571.14	2297.99
571.49	2296.75
571.84	2296.54
572.20	2295.45
572.55	2294.47
572.90	2292.95
573.26	2291.58
573.61	2289.93
573.96	2288.37
574.31	2285.38
574.67	2282.55
575.02	2278.89
575.37	2275.73
575.72	2271.85
576.08	2268.59
576.43	2265.35
576.78	2261.85
577.13	2258.84
577.49	2255.76
577.84	2252.15
578.19	2248.43
578.54	2244.94
578.90	2240.67
579.25	2235.16
579.60	2230.09
579.95	2225.09
580.30	2220.02
580.66	2214.81
581.01	2209.89
581.36	2204.95
581.71	2200.80
582.06	2196.19
582.42	2191.81
582.77	2186.60
583.12	2182.06
583.47	2177.37
583.82	2172.36
584.17	2167.14
584.53	2161.55
584.88	2155.93
585.23	2150.23
585.58	2144.81
585.93	2139.35
586.28	2134.77
586.63	2129.64
586.98	2124.65
587.34	2119.99
587.69	2115.16
588.04	2109.87
588.39	2104.20
588.74	2097.71
589.09	2091.53
589.44	2084.74
589.79	2078.87
590.14	2073.21
590.49	2066.62
590.84	2060.17
591.19	2054.18
591.54	2047.74
591.89	2040.25
592.25	2033.51
592.60	2026.28
592.95	2018.59
593.30	2011.18
593.65	2003.43
594.00	1996.48
594.35	1989.26
594.70	1981.05
595.05	1973.93
595.40	1966.68
595.75	1959.21
596.10	1953.01
596.45	1946.22
596.80	1940.04
597.15	1933.31
597.50	1926.02
597.85	1919.47
598.19	1912.92
598.54	1905.64
598.89	1899.02
599.24	1893.24
599.59	1886.57
599.94	1880.44
600.29	1874.22
600.64	1867.74
600.99	1860.37
601.34	1853.51
601.69	1846.64
602.04	1839.91
602.39	1832.50
602.74	1825.57
603.08	1818.77
603.43	1811.99
603.78	1804.76
604.13	1797.65
604.48	1790.30
604.83	1783.52
605.18	1776.68
605.53	1768.57
605.87	1760.64
606.22	1753.50
606.57	1745.51
606.92	1738.13
607.27	1730.94
607.62	1723.94
607.96	1716.57
608.31	1709.91
608.66	1702.28
609.01	1694.63
609.36	1686.96
609.70	1678.90
610.05	1670.96
610.40	1663.26
610.75	1655.05
611.10	1647.26
611.44	1638.79
611.79	1630.85
612.14	1622.11
612.49	1612.86
612.83	1604.59
613.18	1596.62
613.53	1588.45
613.88	1579.91
614.22	1571.66
614.57	1563.10
614.92	1555.06
615.27	1547.46
615.61	1539.17
615.96	1531.05
616.31	1523.40
616.65	1516.11
617.00	1508.63
617.35	1501.00
617.70	1492.71
618.04	1484.11
618.39	1475.97
618.74	1468.43
619.08	1460.12
619.43	1452.65
619.78	1445.78
620.12	1438.53
620.47	1430.92
620.82	1422.80
621.16	1415.51
621.51	1407.94
621.85	1400.27
622.20	1391.82
622.55	1383.56
622.89	1375.74
623.24	1368.19
623.59	1360.89
623.93	1353.37
624.28	1346.14
624.62	1338.49
624.97	1331.33
625.32	1324.68
625.66	1317.67
626.01	1310.46
626.35	1303.14
626.70	1295.41
627.04	1287.72
627.39	1280.00
627.73	1272.63
628.08	1265.70
628.43	1258.33
628.77	1250.89
629.12	1243.32
629.46	1236.06
629.81	1228.64
630.15	1221.35
630.50	1213.96
630.84	1205.64
631.19	1197.71
631.53	1190.15
631.88	1182.63
632.22	1175.06
632.57	1167.64
632.91	1160.12
633.26	1152.72
633.60	1145.27
633.95	1138.15
634.29	1131.13
634.64	1124.45
634.98	1117.04
635.32	1109.80
635.67	1103.15
636.01	1096.48
636.36	1089.64
636.70	1083.15
637.05	1076.51
637.39	1070.09
637.73	1063.55
638.08	1057.67
638.42	1051.67
638.77	1045.21
639.11	1038.62
639.45	1032.23
639.80	1025.58
640.14	1019.18
640.49	1012.56
640.83	1006.19
641.17	999.87
641.52	993.51
641.86	986.99
642.20	981.09
642.55	974.85
642.89	968.38
643.23	961.87
643.58	956.16
643.92	949.93
644.26	943.87
644.61	937.85
644.95	931.79
645.29	925.21
645.64	918.46
645.98	912.15
646.32	906.31
646.66	900.19
647.01	894.39
647.35	888.67
647.69	882.93
648.04	877.40
648.38	871.64
648.72	865.55
649.06	859.51
649.41	853.69
649.75	847.71
650.09	841.79
650.43	836.11
650.78	829.92
651.12	824.03
651.46	818.32
651.80	812.49
652.14	807.13
652.49	801.80
652.83	796.65
653.17	790.88
653.51	785.15
653.85	779.91
654.20	774.28
654.54	768.28
654.88	762.50
655.22	756.59
655.56	750.99
655.90	745.63
656.25	740.40
656.59	735.02
656.93	729.97
657.27	724.81
657.61	719.30
657.95	714.23
658.29	709.12
658.64	703.87
658.98	698.61
659.32	693.21
659.66	688.00
660.00	682.67
660.34	677.79
660.68	672.86
661.02	667.70
661.36	662.94
661.70	658.48
662.05	654.09
662.39	649.86
662.73	645.41
663.07	641.04
663.41	636.59
663.75	632.08
664.09	627.44
664.43	623.01
664.77	618.94
665.11	614.65
665.45	610.56
665.79	606.40
666.13	602.31
666.47	598.20
666.81	594.04
667.15	589.93
667.49	586.06
667.83	582.31
668.17	578.45
668.51	574.34
668.85	570.31
669.19	566.55
669.53	562.67
669.87	558.78
670.21	555.11
670.55	551.48
670.89	548.09
671.23	544.72
671.57	541.22
671.91	537.68
672.25	534.18
672.58	530.65
672.92	527.32
673.26	524.14
673.60	520.97
673.94	517.90
674.28	514.98
674.62	512.00
674.96	508.85
675.30	505.94
675.64	503.03
675.97	500.21
676.31	497.28
676.65	494.36
676.99	491.64
677.33	488.77
677.67	485.94
678.01	482.92
678.34	479.93
678.68	477.05
679.02	474.23
679.36	471.54
679.70	468.84
680.04	466.06
680.37	463.17
680.71	460.39
681.05	457.73
681.39	455.03
681.73	452.38
682.06	449.87
682.40	447.26
682.74	444.73
683.08	442.19
683.42	439.61
683.75	437.08
684.09	434.49
684.43	431.99
684.77	429.51
685.10	427.14
685.44	424.78
685.78	422.46
686.12	420.17
686.45	417.79
686.79	415.50
687.13	413.32
687.46	411.14
687.80	409.03
688.14	406.85
688.48	404.79
688.81	402.53
689.15	400.34
689.49	398.26
689.82	396.22
690.16	394.14
690.50	392.15
690.83	390.21
691.17	388.25
691.51	386.33
691.84	384.49
692.18	382.57
692.52	380.65
692.85	378.72
693.19	376.87
693.52	375.05
693.86	373.20
694.20	371.44
694.53	369.70
694.87	367.79
695.21	365.97
695.54	364.17
695.88	362.43
696.21	360.73
696.55	359.00
696.88	357.31
697.22	355.66
697.56	354.07
697.89	352.44
698.23	350.86
698.56	349.22
698.90	347.62
699.23	345.96
699.57	344.42
699.90	342.94
700.24	341.40
700.58	339.93
700.91	338.42
701.25	336.99
701.58	335.55
701.92	334.22
702.25	332.82
702.59	331.45
702.92	330.17
703.26	328.85
703.59	327.62
703.93	326.44
704.26	325.21
704.60	323.94
704.93	322.66
705.26	321.38
705.60	320.26
705.93	319.11
706.27	318.07
706.60	317.00
706.94	315.91
707.27	314.81
707.61	313.73
707.94	312.70
708.27	311.59
708.61	310.52
708.94	309.53
709.28	308.59
709.61	307.61
709.94	306.69
710.28	305.68
710.61	304.69
710.95	303.61
711.28	302.68
711.61	301.70
711.95	300.80
712.28	299.88
712.61	298.88
712.95	297.96
713.28	297.13
713.61	296.23
713.95	295.35
714.28	294.51
714.61	293.65
714.95	292.83
715.28	292.01
715.61	291.17
715.95	290.29
716.28	289.42
716.61	288.60
716.95	287.75
717.28	287.02
717.61	286.24
717.94	285.51
718.28	284.70
718.61	283.97
718.94	283.26
719.27	282.60
719.61	281.94
719.94	281.32
720.27	280.57
720.60	279.88
720.94	279.27
721.27	278.67
721.60	278.12
721.93	277.53
722.27	276.98
722.60	276.40
722.93	275.85
723.26	275.35
723.59	274.79
723.93	274.22
724.26	273.68
724.59	273.14
724.92	272.62
725.25	272.14
725.59	271.63
725.92	271.14
726.25	270.62
726.58	270.15
726.91	269.62
727.24	269.17
727.57	268.73
727.91	268.19
728.24	267.71
728.57	267.18
728.90	266.72
729.23	266.20
729.56	265.83
729.89	265.34
730.22	264.86
730.55	264.39
730.89	263.99
731.22	263.52
731.55	263.07
731.88	262.65
732.21	262.22
732.54	261.79
732.87	261.34
733.20	260.94
733.53	260.54
733.86	260.17
734.19	259.75
734.52	259.35
734.85	259.08
735.18	258.69
735.51	258.32
735.84	257.94
736.17	257.58
736.50	257.17
736.83	256.96
737.16	256.59
737.49	256.26
737.82	255.91
738.15	255.59
738.48	255.29
738.81	254.97
739.14	254.68
739.47	254.32
739.80	254.05
740.13	253.73
740.46	253.39
740.79	253.05
741.12	252.76
741.45	252.43
741.78	252.04
742.11	251.75
742.44	251.42
742.77	251.14
743.10	250.87
743.43	250.55
743.75	250.15
744.08	249.99
744.41	249.72
744.74	249.44
745.07	249.14
745.40	248.88
745.73	248.63
746.06	248.33
746.39	248.08
746.71	247.77
747.04	247.50
747.37	247.24
747.70	247.00
748.03	246.71
748.36	246.53
748.68	246.29
749.01	246.03
749.34	245.82
749.67	245.57
750.00	245.32
750.33	245.15
750.65	244.92
750.98	244.59
751.31	244.38
751.64	244.20
751.97	244.03
752.29	243.80
752.62	243.55
752.95	243.32
753.28	243.10
753.60	242.89
753.93	242.73
754.26	242.56
754.59	242.32
754.91	242.10
755.24	241.90
755.57	241.71
755.90	241.53
756.22	241.35
756.55	241.19
756.88	240.98
757.20	240.75
757.53	240.55
757.86	240.39
758.19	240.22
758.51	240.03
758.84	239.82
759.17	239.65
759.49	239.49
759.82	239.41
760.15	239.29
760.47	239.16
760.80	238.96
761.13	238.83
761.45	238.72
761.78	238.63
762.11	238.49
762.43	238.37
762.76	238.23
763.08	238.08
763.41	237.92
763.74	237.81
764.06	237.68
764.39	237.55
764.71	237.38
765.04	237.23
765.37	237.09
765.69	236.99
766.02	236.88
766.34	236.76
766.67	236.58
767.00	236.43
767.32	236.33
767.65	236.29
767.97	236.14
768.30	236.02
768.62	235.87
768.95	235.74
769.27	235.60
769.60	235.48
769.92	235.36
770.25	235.22
770.57	235.12
770.90	235.01
771.22	234.93
771.55	234.86
771.87	234.76
772.20	234.65
772.52	234.60
772.85	234.60
773.17	234.52
773.50	234.40
773.82	234.32
774.15	234.23
774.47	234.07
774.80	233.98
775.12	233.90
775.45	233.83
775.77	233.75
776.09	233.65
776.42	233.61
776.74	233.56
777.07	233.50
777.39	233.45
777.72	233.39
778.04	233.32
778.36	233.27
778.69	233.20
779.01	233.12
779.33	233.04
779.66	232.85
779.98	232.78
780.31	232.74
780.63	232.74
780.95	232.67
781.28	232.63
781.60	232.57
781.92	232.51
782.25	232.42
782.57	232.33
782.89	232.30
783.22	232.22
783.54	232.18
783.86	232.15
784.19	232.07
784.51	232.04
784.83	231.96
785.16	231.88
785.48	231.81
785.80	231.78
786.12	231.72
786.45	231.68
786.77	231.64
787.09	231.63
787.42	231.54
787.74	231.52
788.06	231.45
788.38	231.41
788.71	231.31
789.03	231.27
789.35	231.27
789.67	231.23
789.99	231.18
790.32	231.11
790.64	231.09
790.96	231.13
791.28	231.07
791.61	231.03
791.93	230.98
792.25	230.98
792.57	230.99
792.89	230.93
793.21	230.90
793.54	230.84
793.86	230.76
794.18	230.72
794.50	230.67
794.82	230.62
795.14	230.59
795.47	230.60
795.79	230.58
796.11	230.54
796.43	230.48
796.75	230.46
797.07	230.44
797.39	230.37
797.71	230.26
798.04	230.20
798.36	230.14
798.68	230.12
799.00	230.08
799.32	229.98
799.64	229.96
799.96	229.94
800.28	229.92
800.60	229.91
800.92	229.91
801.24	229.86
801.56	229.85
801.89	229.81
802.21	229.77
802.53	229.73
802.85	229.70
803.17	229.76
803.49	229.72
803.81	229.66
804.13	229.68
804.45	229.64
804.77	229.63
805.09	229.62
805.41	229.60
805.73	229.58
806.05	229.56
806.37	229.52
806.69	229.47
807.01	229.43
807.33	229.41
807.65	229.34
807.97	229.35
808.28	229.33
808.60	229.33
808.92	229.31
809.24	229.37
809.56	229.30
809.88	229.22
810.20	229.18
810.52	229.19
810.84	229.13
811.16	229.13
811.48	229.11
811.80	229.13
812.12	229.09
812.43	229.04
812.75	229.01
813.07	229.00
813.39	228.97
813.71	228.97
814.03	228.93
814.35	228.91
814.67	228.86
814.98	228.83
815.30	228.75
815.62	228.71
815.94	228.60
816.26	228.66
816.58	228.58
816.89	228.58
817.21	228.54
817.53	228.53
817.85	228.48
818.17	228.44
818.48	228.38
818.80	228.39
819.12	228.39
819.44	228.37
819.76	228.37
820.07	228.38
820.39	228.35
820.71	228.32
821.03	228.30
821.34	228.24
821.66	228.26
821.98	228.28
822.30	228.27
822.61	228.33
822.93	228.27
823.25	228.30
823.57	228.31
823.88	228.34
824.20	228.35
824.52	228.34
824.83	228.32
825.15	228.31
825.47	228.29
825.79	228.29
826.10	228.28
826.42	228.24
826.74	228.23
827.05	228.19
827.37	228.21
827.69	228.20
828.00	228.25
828.32	228.21
828.64	228.16
828.95	228.20
829.27	228.16
829.58	228.13
829.90	228.15
830.22	228.11
830.53	228.07
830.85	228.06
831.17	228.03
831.48	228.02
831.80	228.03
832.11	227.96
832.43	227.93
832.75	227.92
833.06	227.98
833.38	227.93
833.69	227.91
834.01	227.91
834.32	227.89
834.64	227.86
834.96	227.87
835.27	227.87
835.59	227.83
835.90	227.78
836.22	227.78
836.53	227.75
836.85	227.73
837.16	227.82
837.48	227.77
837.79	227.80
838.11	227.81
838.42	227.80
838.74	227.83
839.05	227.80
839.37	227.82
839.68	227.72
840.00	227.72
840.31	227.76
840.63	227.71
840.94	227.69
841.26	227.67
841.57	227.62
841.88	227.64
842.20	227.60
842.51	227.58
842.83	227.58
843.14	227.62
843.46	227.63
843.77	227.53
844.08	227.52
844.40	227.48
844.71	227.46
845.03	227.47
845.34	227.45
845.65	227.46
845.97	227.42
846.28	227.46
846.60	227.45
846.91	227.42
847.22	227.43
847.54	227.46
847.85	227.48
848.16	227.50
848.48	227.48
848.79	227.51
849.10	227.52
849.42	227.53
849.73	227.48
850.04	227.47
850.36	227.44
850.67	227.49
850.98	227.49
851.30	227.51
851.61	227.46
851.92	227.47
852.23	227.47
852.55	227.47
852.86	227.44
853.17	227.47
853.49	227.50
853.80	227.49
854.11	227.50
854.42	227.46
854.74	227.44
855.05	227.45
855.36	227.40
855.67	227.39
855.99	227.38
856.30	227.48
856.61	227.47
856.92	227.47
857.23	227.46
857.55	227.45
857.86	227.44
858.17	227.44
858.48	227.41
858.79	227.40
859.11	227.39
859.42	227.40
859.73	227.38
860.04	227.36
860.35	227.33
860.66	227.30
860.98	227.31
861.29	227.35
861.60	227.29
861.91	227.31
862.22	227.29
862.53	227.26
862.84	227.16
863.16	227.18
863.47	227.17
863.78	227.14
864.09	227.13
864.40	227.13
864.71	227.15
865.02	227.16
865.33	227.16
865.64	227.17
865.95	227.17
866.27	227.23
866.58	227.21
866.89	227.24
867.20	227.23
867.51	227.21
867.82	227.17
868.13	227.24
868.44	227.23
868.75	227.24
869.06	227.23
869.37	227.22
869.68	227.19
869.99	227.21
870.30	227.22
870.61	227.23
870.92	227.21
871.23	227.20
871.54	227.22
871.85	227.25
872.16	227.25
872.47	227.25
872.78	227.19
873.09	227.19
873.40	227.18
873.71	227.18
874.02	227.19
874.33	227.21
874.64	227.19
874.95	227.20
875.26	227.18
875.56	227.17
875.87	227.16
876.18	227.16
876.49	227.22
876.80	227.21
877.11	227.19
877.42	227.18
877.73	227.16
878.04	227.11
878.35	227.10
878.66	227.08
878.96	227.04
879.27	227.03
879.58	227.01
879.89	227.01
880.20	227.06
880.51	227.04
880.82	227.06
881.12	227.03
881.43	227.01
881.74	227.01
882.05	227.03
882.36	227.04
882.67	227.01
882.97	226.92
883.28	226.92
883.59	226.92
883.90	226.95
884.21	226.98
884.51	227.00
884.82	226.98
885.13	227.02
885.44	227.02
885.74	227.01
886.05	227.02
886.36	227.01
886.67	226.93
886.98	226.99
887.28	226.99
887.59	226.99
887.90	227.01
888.20	227.00
888.51	227.02
888.82	227.01
889.13	227.05
889.43	227.08
889.74	227.08
890.05	227.10
890.35	227.05
890.66	227.03
890.97	227.04
891.28	227.01
891.58	227.02
891.89	227.02
892.20	227.03
892.50	227.00
892.81	226.98
893.12	226.97
893.42	226.91
893.73	226.90
894.04	226.92
894.34	226.92
894.65	226.91
894.95	226.89
895.26	226.91
895.57	226.95
895.87	226.88
896.18	226.85
896.48	226.87
896.79	226.88
897.10	226.91
897.40	226.88
897.71	226.92
898.01	226.87
898.32	226.88
898.63	226.88
898.93	226.88
899.24	226.93
899.54	226.92
899.85	226.92
900.15	226.92
900.46	226.88
900.76	226.87
901.07	226.87
901.38	226.88
901.68	226.89
901.99	226.85
902.29	226.87
902.60	226.88
902.90	226.85
903.21	226.85
903.51	226.82
903.82	226.87
904.12	226.85
904.43	226.86
904.73	226.88
905.03	226.91
905.34	227.04
905.64	227.04
905.95	227.08
906.25	227.09
906.56	227.08
906.86	227.11
907.17	227.12
907.47	227.12
907.77	227.08
908.08	227.06
908.38	227.06
908.69	227.07
908.99	227.09
909.30	227.06
909.60	227.07
909.90	227.08
910.21	227.05
910.51	227.05
910.81	227.06
911.12	227.04
911.42	227.00
911.73	226.87
912.03	226.84
912.33	226.85
912.64	226.82
912.94	226.83
913.24	226.81
913.55	226.80
913.85	226.83
914.15	226.86
914.46	226.85
914.76	226.86
915.06	226.84
915.37	226.84
915.67	226.85
915.97	226.87
916.27	226.87
916.58	226.88
916.88	226.89
917.18	226.90
917.49	226.97
917.79	226.97
918.09	227.00
918.39	227.02
918.70	226.99
919.00	226.99
919.30	227.04
919.60	227.05
919.91	227.02
920.21	227.02
920.51	227.00
920.81	226.97
921.12	227.03
921.42	227.00
921.72	226.99
922.02	227.01
922.32	227.01
922.63	227.00
922.93	227.01
923.23	226.98
923.53	226.92
923.83	226.83
924.13	226.85
924.44	226.85
924.74	226.88
925.04	226.94
925.34	226.95
925.64	226.89
925.94	226.88
926.24	226.94
926.55	226.90
926.85	226.93
927.15	226.92
927.45	226.86
927.75	226.91
928.05	226.90
928.35	226.86
928.65	226.88
928.95	226.90
929.26	226.85
929.56	226.87
929.86	226.93
930.16	226.95
930.46	226.91
930.76	226.86
931.06	226.79
931.36	226.76
931.66	226.77
931.96	226.76
932.26	226.77
932.56	226.75
932.86	226.77
933.16	226.78
933.46	226.81
933.76	226.80
934.06	226.79
934.36	226.86
934.66	226.89
934.96	226.90
935.26	226.87
935.56	226.92
935.86	226.90
936.16	226.90
936.46	226.89
936.76	226.90
937.06	226.95
937.36	226.98
937.66	226.96
937.96	226.95
938.26	226.94
938.56	226.94
938.86	226.92
939.16	226.97
939.46	226.97
939.76	226.99
940.06	226.98
940.35	226.94
940.65	226.88
940.95	226.86
941.25	226.83
941.55	226.82
941.85	226.82
942.15	226.82
942.45	226.83
942.75	226.80
943.04	226.80
943.34	226.79
943.64	226.77
943.94	226.78
944.24	226.79
944.54	226.79
944.84	226.80
945.13	226.78
945.43	226.73
945.73	226.71
946.03	226.66
946.33	226.67
946.62	226.66
946.92	226.65
947.22	226.68
947.52	226.66
947.82	226.67
948.11	226.62
948.41	226.63
948.71	226.59
949.01	226.59
949.31	226.63
949.60	226.62
949.90	226.64
950.20	226.62
950.50	226.63
950.79	226.62
951.09	226.62
951.39	226.62
951.69	226.60
951.98	226.59
952.28	226.61
952.58	226.61
952.87	226.62
953.17	226.67
953.47	226.65
953.76	226.65
954.06	226.64
954.36	226.66
954.66	226.64
954.95	226.64
955.25	226.66
955.55	226.62
955.84	226.58
956.14	226.56
956.44	226.59
956.73	226.60
957.03	226.59
957.32	226.57
957.62	226.57
957.92	226.62
958.21	226.63
958.51	226.75
958.81	226.75
959.10	226.77
959.40	226.79
959.69	226.80
959.99	226.81
960.29	226.83
960.58	226.85
960.88	226.90
961.17	226.93
961.47	226.95
961.76	226.93
962.06	226.98
962.36	226.99
962.65	227.00
962.95	226.96
963.24	226.97
963.54	226.98
963.83	226.96
964.13	226.92
964.42	226.88
964.72	226.77
965.01	226.78
965.31	226.77
965.60	226.75
965.90	226.80
966.19	226.79
966.49	226.78
966.78	226.74
967.08	226.72
967.37	226.70
967.67	226.69
967.96	226.75
968.26	226.73
968.55	226.72
968.85	226.72
969.14	226.73
969.43	226.74
969.73	226.72
970.02	226.75
970.32	226.73
970.61	226.73
970.91	226.72
971.20	226.68
971.49	226.65
971.79	226.64
972.08	226.55
972.38	226.54
972.67	226.53
972.96	226.55
973.26	226.54
973.55	226.57
973.85	226.56
974.14	226.53
974.43	226.54
974.73	226.55
975.02	226.52
975.31	226.52
975.61	226.54
975.90	226.55
976.19	226.53
976.49	226.57
976.78	226.57
977.07	226.58
977.37	226.62
977.66	226.67
977.95	226.66
978.24	226.71
978.54	226.74
978.83	226.73
979.12	226.72
979.42	226.77
979.71	226.75
980.00	226.74
980.29	226.73
980.59	226.71
980.88	226.70
981.17	226.71
981.46	226.71
981.76	226.69
982.05	226.73
982.34	226.72
982.63	226.72
982.93	226.73
983.22	226.74
983.51	226.71
983.80	226.72
984.09	226.74
984.39	226.70
984.68	226.71
984.97	226.73
985.26	226.72
985.55	226.68
985.85	226.66
986.14	226.68
986.43	226.68
986.72	226.70
987.01	226.69
987.30	226.65
987.59	226.63
987.89	226.60
988.18	226.55
988.47	226.55
988.76	226.54
989.05	226.50
989.34	226.51
989.63	226.56
989.92	226.50
990.22	226.48
990.51	226.50
990.80	226.47
991.09	226.43
991.38	226.47
991.67	226.46
991.96	226.45
992.25	226.46
992.54	226.44
992.83	226.39
993.12	226.37
993.41	226.40
993.70	226.47
993.99	226.53
994.28	226.55
994.58	226.59
994.87	226.60
995.16	226.62
995.45	226.61
995.74	226.56
996.03	226.59
996.32	226.62
996.61	226.62
996.90	226.63
997.19	226.67
997.48	226.66
997.77	226.69
998.06	226.70
998.34	226.67
998.63	226.70
998.92	226.76
999.21	226.76
999.50	226.79
999.79	226.72
1000.08	226.71
1000.37	226.71
1000.66	226.70
1000.95	226.73
1001.24	226.77
1001.53	226.79
1001.82	226.80
1002.11	226.77
1002.40	226.76
1002.68	226.80
1002.97	226.86
1003.26	226.85
1003.55	226.83
1003.84	226.81
1004.13	226.86
1004.42	226.85
1004.71	226.85
1004.99	226.81
1005.28	226.88
1005.57	226.86
1005.86	226.89
1006.15	226.83
1006.44	226.81
1006.72	226.82
1007.01	226.79
1007.30	226.80
1007.59	226.78
1007.88	226.78
1008.17	226.81
1008.45	226.79
1008.74	226.73
1009.03	226.70
1009.32	226.73
1009.60	226.74
1009.89	226.74
1010.18	226.70
1010.47	226.71
1010.76	226.68
1011.04	226.70
1011.33	226.68
1011.62	226.71
1011.91	226.70
1012.19	226.74
1012.48	226.76
1012.77	226.74
1013.05	226.77
1013.34	226.75
1013.63	226.76
1013.92	226.74
1014.20	226.73
1014.49	226.74
1014.78	226.75
1015.06	226.67
1015.35	226.62
1015.64	226.61
1015.92	226.59
1016.21	226.57
1016.50	226.57
1016.78	226.60
1017.07	226.60
1017.36	226.59
1017.64	226.58
1017.93	226.61
1018.22	226.58
1018.50	226.53
1018.79	226.53
1019.08	226.51
1019.36	226.53
1019.65	226.52
1019.93	226.54
1020.22	226.56
1020.51	226.60
1020.79	226.59
1021.08	226.14
1021.36	225.99
1021.65	226.64
1021.94	226.89
1022.22	226.83
1022.51	226.61
1022.79	226.85
1023.08	226.86
1023.36	227.86
1023.65	226.39
>>>>>End Processed Spectral Data<<<<<
