SpectraSuite Data File
++++++++++++++++++++++++++++++++++++
Date: Fri Feb 01 15:57:29 EST 2013
User: group
Dark Spectrum Present: No
Reference Spectrum Present: No
Number of Sampled Component Spectra: 1
Spectrometers: USB2E7196
Integration Time (usec): 35000 (USB2E7196)
Spectra Averaged: 100 (USB2E7196)
Boxcar Smoothing: 10 (USB2E7196)
Correct for Electrical Dark: No (USB2E7196)
Strobe/Lamp Enabled: No (USB2E7196)
Correct for Detector Non-linearity: No (USB2E7196)
Correct for Stray Light: No (USB2E7196)
Number of Pixels in Processed Spectrum: 2048
>>>>>Begin Processed Spectral Data<<<<<
339.09	0.00
339.48	215.22
339.86	216.21
340.24	218.19
340.63	219.14
341.01	222.11
341.39	221.50
341.78	223.39
342.16	224.53
342.54	224.80
342.93	213.23
343.31	223.99
343.69	224.51
344.07	224.99
344.46	225.40
344.84	225.76
345.22	225.98
345.60	226.25
345.99	226.43
346.37	226.55
346.75	226.66
347.13	226.72
347.52	226.80
347.90	226.85
348.28	226.85
348.66	226.90
349.05	226.90
349.43	226.94
349.81	227.00
350.19	227.06
350.57	227.15
350.96	227.22
351.34	227.33
351.72	227.43
352.10	227.49
352.48	227.58
352.87	227.66
353.25	227.69
353.63	227.74
354.01	227.80
354.39	227.88
354.77	227.95
355.15	228.06
355.54	228.10
355.92	228.17
356.30	228.25
356.68	228.41
357.06	228.44
357.44	228.49
357.82	228.56
358.20	228.60
358.58	228.64
358.97	228.71
359.35	228.75
359.73	228.83
360.11	228.92
360.49	228.95
360.87	229.00
361.25	229.09
361.63	229.16
362.01	229.22
362.39	229.23
362.77	229.26
363.15	229.27
363.53	229.30
363.91	229.31
364.29	229.34
364.67	229.25
365.05	229.29
365.43	229.31
365.81	229.30
366.19	229.35
366.57	229.37
366.95	229.36
367.33	229.33
367.71	229.32
368.09	229.29
368.47	229.24
368.85	229.22
369.23	229.21
369.61	229.17
369.99	229.15
370.37	229.14
370.75	229.13
371.13	229.09
371.51	229.00
371.89	228.94
372.27	228.87
372.65	228.84
373.03	228.80
373.41	228.74
373.78	228.67
374.16	228.57
374.54	228.47
374.92	228.43
375.30	228.39
375.68	228.29
376.06	228.22
376.44	228.14
376.82	228.09
377.19	227.98
377.57	227.91
377.95	227.80
378.33	227.71
378.71	227.59
379.09	227.54
379.47	227.52
379.84	227.42
380.22	227.38
380.60	227.27
380.98	227.18
381.36	227.12
381.73	227.04
382.11	226.96
382.49	226.91
382.87	226.81
383.25	226.73
383.62	226.78
384.00	226.70
384.38	226.65
384.76	226.58
385.13	226.59
385.51	226.52
385.89	226.46
386.27	226.42
386.64	226.37
387.02	226.31
387.40	226.24
387.78	226.23
388.15	226.18
388.53	226.16
388.91	226.13
389.29	226.09
389.66	226.08
390.04	226.06
390.42	226.06
390.79	226.01
391.17	225.97
391.55	225.83
391.92	225.87
392.30	225.91
392.68	225.92
393.05	225.90
393.43	225.91
393.81	225.93
394.18	225.90
394.56	225.97
394.94	225.98
395.31	226.05
395.69	226.08
396.06	226.14
396.44	226.18
396.82	226.20
397.19	226.26
397.57	226.29
397.95	226.35
398.32	226.38
398.70	226.47
399.07	226.58
399.45	226.62
399.82	226.64
400.20	226.66
400.58	226.73
400.95	226.78
401.33	226.87
401.70	227.01
402.08	227.17
402.45	227.27
402.83	227.41
403.20	227.49
403.58	227.60
403.95	227.73
404.33	227.87
404.71	228.02
405.08	228.22
405.46	228.38
405.83	228.55
406.21	228.68
406.58	228.84
406.96	229.03
407.33	229.24
407.70	229.48
408.08	229.82
408.45	230.05
408.83	230.29
409.20	230.52
409.58	230.73
409.95	230.93
410.33	231.18
410.70	231.39
411.08	231.66
411.45	231.97
411.82	232.27
412.20	232.64
412.57	233.01
412.95	233.30
413.32	233.74
413.69	234.16
414.07	234.63
414.44	235.12
414.82	235.56
415.19	236.12
415.56	236.62
415.94	237.12
416.31	237.71
416.68	238.34
417.06	239.06
417.43	239.76
417.81	240.56
418.18	241.33
418.55	242.21
418.93	243.11
419.30	244.05
419.67	244.99
420.04	245.93
420.42	246.94
420.79	248.14
421.16	249.26
421.54	250.47
421.91	251.68
422.28	252.94
422.66	254.30
423.03	255.60
423.40	256.98
423.77	258.37
424.15	259.83
424.52	261.31
424.89	262.94
425.26	264.43
425.64	265.86
426.01	267.47
426.38	269.12
426.75	270.76
427.13	272.46
427.50	274.24
427.87	276.11
428.24	277.97
428.61	279.70
428.99	281.63
429.36	283.73
429.73	285.80
430.10	287.78
430.47	289.81
430.85	291.91
431.22	294.12
431.59	296.54
431.96	298.75
432.33	301.20
432.70	303.58
433.08	306.43
433.45	309.06
433.82	311.65
434.19	314.53
434.56	317.32
434.93	319.99
435.30	322.64
435.68	325.48
436.05	328.32
436.42	331.10
436.79	333.59
437.16	336.26
437.53	339.08
437.90	341.94
438.27	344.67
438.64	347.49
439.01	350.05
439.38	352.26
439.75	354.44
440.13	356.96
440.50	359.26
440.87	361.06
441.24	363.03
441.61	365.18
441.98	366.65
442.35	368.47
442.72	370.27
443.09	372.05
443.46	373.05
443.83	373.59
444.20	374.10
444.57	374.96
444.94	375.24
445.31	375.56
445.68	375.83
446.05	375.87
446.42	375.50
446.79	375.08
447.16	374.63
447.53	374.34
447.90	373.18
448.27	372.05
448.64	370.50
449.01	369.33
449.37	367.35
449.74	365.46
450.11	363.20
450.48	360.76
450.85	358.22
451.22	356.10
451.59	354.08
451.96	352.15
452.33	349.53
452.70	347.21
453.07	344.37
453.43	341.54
453.80	338.82
454.17	336.14
454.54	333.64
454.91	330.96
455.28	328.26
455.65	325.80
456.02	323.36
456.38	321.21
456.75	318.58
457.12	316.37
457.49	314.14
457.86	312.02
458.23	310.19
458.59	308.16
458.96	306.10
459.33	304.29
459.70	302.44
460.07	300.97
460.43	299.25
460.80	297.66
461.17	296.19
461.54	294.72
461.91	293.32
462.27	291.89
462.64	290.61
463.01	289.27
463.38	287.97
463.74	286.56
464.11	285.43
464.48	284.41
464.85	283.29
465.21	282.46
465.58	281.55
465.95	280.47
466.32	279.58
466.68	278.70
467.05	277.81
467.42	276.90
467.78	275.99
468.15	275.15
468.52	274.54
468.88	273.70
469.25	272.93
469.62	272.31
469.98	271.62
470.35	271.01
470.72	270.42
471.08	269.74
471.45	269.22
471.82	268.65
472.18	268.08
472.55	267.63
472.92	267.11
473.28	266.62
473.65	266.15
474.02	265.68
474.38	265.30
474.75	264.99
475.11	264.65
475.48	264.37
475.85	264.08
476.21	263.79
476.58	263.60
476.94	263.46
477.31	263.29
477.67	263.14
478.04	263.04
478.41	262.95
478.77	263.03
479.14	262.99
479.50	263.01
479.87	263.07
480.23	263.16
480.60	263.22
480.96	263.32
481.33	263.54
481.69	263.71
482.06	263.91
482.42	264.10
482.79	264.35
483.15	264.63
483.52	265.05
483.88	265.42
484.25	265.77
484.61	266.18
484.98	266.62
485.34	267.18
485.71	267.74
486.07	268.38
486.44	268.94
486.80	269.62
487.17	270.31
487.53	271.11
487.90	271.98
488.26	272.93
488.62	273.92
488.99	274.85
489.35	275.90
489.72	277.01
490.08	278.22
490.44	279.47
490.81	280.82
491.17	282.14
491.54	283.59
491.90	285.15
492.26	286.83
492.63	288.57
492.99	290.36
493.36	292.29
493.72	294.29
494.08	296.36
494.45	298.63
494.81	300.99
495.17	303.42
495.54	305.98
495.90	308.66
496.26	311.45
496.63	314.49
496.99	317.62
497.35	320.92
497.72	324.28
498.08	327.83
498.44	331.52
498.80	335.49
499.17	339.56
499.53	343.73
499.89	348.07
500.26	352.60
500.62	357.31
500.98	362.29
501.34	367.37
501.71	372.75
502.07	378.20
502.43	383.87
502.79	389.75
503.16	395.85
503.52	402.12
503.88	408.57
504.24	415.27
504.60	422.15
504.97	429.26
505.33	436.67
505.69	444.35
506.05	452.11
506.41	459.97
506.78	468.13
507.14	476.62
507.50	485.42
507.86	494.44
508.22	503.61
508.59	512.82
508.95	522.50
509.31	532.30
509.67	542.38
510.03	552.64
510.39	563.17
510.75	573.93
511.12	584.94
511.48	596.24
511.84	607.60
512.20	619.15
512.56	631.10
512.92	643.26
513.28	655.63
513.64	668.11
514.00	680.81
514.37	693.78
514.73	706.83
515.09	719.80
515.45	733.05
515.81	746.65
516.17	760.65
516.53	774.72
516.89	788.87
517.25	803.07
517.61	817.44
517.97	831.88
518.33	846.32
518.69	861.09
519.05	875.98
519.41	891.15
519.77	906.68
520.13	922.11
520.49	937.51
520.85	952.84
521.21	968.55
521.57	984.78
521.93	1000.51
522.29	1016.89
522.65	1033.13
523.01	1049.29
523.37	1065.28
523.73	1081.39
524.09	1097.32
524.45	1113.62
524.81	1130.23
525.17	1147.10
525.53	1163.97
525.89	1180.85
526.25	1197.54
526.61	1213.98
526.97	1230.72
527.33	1247.20
527.68	1263.80
528.04	1280.16
528.40	1296.77
528.76	1313.72
529.12	1330.19
529.48	1346.98
529.84	1362.90
530.20	1379.44
530.56	1396.51
530.91	1413.85
531.27	1430.46
531.63	1447.02
531.99	1463.47
532.35	1479.44
532.71	1495.21
533.07	1511.33
533.42	1527.21
533.78	1543.31
534.14	1559.38
534.50	1574.71
534.86	1590.58
535.21	1605.68
535.57	1621.48
535.93	1636.96
536.29	1651.81
536.65	1666.87
537.00	1681.67
537.36	1696.98
537.72	1711.48
538.08	1725.89
538.44	1739.68
538.79	1753.63
539.15	1767.19
539.51	1780.96
539.87	1795.33
540.22	1808.99
540.58	1822.80
540.94	1836.05
541.29	1848.84
541.65	1861.60
542.01	1874.71
542.37	1887.00
542.72	1899.48
543.08	1911.32
543.44	1923.63
543.79	1934.80
544.15	1945.78
544.51	1957.35
544.87	1968.38
545.22	1979.32
545.58	1989.45
545.94	1999.23
546.29	2009.02
546.65	2018.85
547.01	2028.08
547.36	2036.76
547.72	2045.20
548.07	2052.96
548.43	2061.11
548.79	2069.29
549.14	2076.94
549.50	2084.26
549.86	2091.78
550.21	2099.10
550.57	2106.24
550.92	2112.88
551.28	2119.93
551.64	2127.09
551.99	2133.43
552.35	2139.50
552.70	2145.47
553.06	2151.51
553.41	2157.80
553.77	2163.86
554.13	2169.94
554.48	2176.05
554.84	2181.42
555.19	2186.74
555.55	2192.00
555.90	2196.52
556.26	2201.14
556.61	2205.93
556.97	2210.17
557.32	2214.30
557.68	2218.46
558.03	2222.81
558.39	2226.57
558.74	2231.21
559.10	2234.95
559.45	2238.76
559.81	2243.02
560.16	2246.97
560.52	2250.06
560.87	2253.51
561.23	2256.35
561.58	2259.40
561.94	2261.95
562.29	2264.30
562.64	2266.98
563.00	2269.55
563.35	2273.03
563.71	2276.22
564.06	2279.29
564.42	2282.09
564.77	2284.68
565.12	2286.76
565.48	2288.59
565.83	2290.34
566.19	2291.61
566.54	2292.54
566.89	2293.47
567.25	2294.13
567.60	2295.28
567.96	2296.99
568.31	2297.85
568.66	2298.68
569.02	2299.12
569.37	2299.46
569.72	2300.37
570.08	2300.60
570.43	2300.62
570.78	2300.03
571.14	2298.44
571.49	2297.19
571.84	2297.00
572.20	2295.88
572.55	2295.03
572.90	2293.56
573.26	2292.16
573.61	2290.51
573.96	2288.86
574.31	2286.01
574.67	2282.93
575.02	2279.51
575.37	2276.14
575.72	2272.19
576.08	2268.95
576.43	2265.77
576.78	2261.99
577.13	2258.90
577.49	2255.85
577.84	2252.37
578.19	2248.69
578.54	2245.17
578.90	2240.78
579.25	2235.18
579.60	2230.08
579.95	2225.00
580.30	2219.95
580.66	2214.78
581.01	2209.83
581.36	2204.85
581.71	2200.68
582.06	2196.25
582.42	2191.72
582.77	2186.52
583.12	2182.13
583.47	2177.44
583.82	2172.37
584.17	2167.19
584.53	2161.61
584.88	2155.80
585.23	2149.98
585.58	2144.47
585.93	2138.95
586.28	2134.28
586.63	2129.28
586.98	2124.28
587.34	2119.57
587.69	2114.78
588.04	2109.51
588.39	2103.89
588.74	2097.47
589.09	2091.31
589.44	2084.49
589.79	2078.47
590.14	2072.81
590.49	2066.21
590.84	2059.74
591.19	2053.76
591.54	2047.29
591.89	2039.86
592.25	2033.14
592.60	2025.96
592.95	2018.27
593.30	2011.02
593.65	2003.50
594.00	1996.38
594.35	1989.20
594.70	1981.27
595.05	1973.95
595.40	1966.79
595.75	1959.32
596.10	1953.18
596.45	1946.50
596.80	1940.39
597.15	1933.70
597.50	1926.73
597.85	1920.35
598.19	1913.84
598.54	1906.68
598.89	1900.03
599.24	1894.18
599.59	1887.47
599.94	1881.32
600.29	1875.21
600.64	1868.66
600.99	1861.14
601.34	1854.34
601.69	1847.40
602.04	1840.49
602.39	1833.31
602.74	1826.36
603.08	1819.46
603.43	1812.67
603.78	1805.32
604.13	1798.18
604.48	1790.86
604.83	1783.98
605.18	1776.89
605.53	1768.84
605.87	1760.87
606.22	1753.76
606.57	1745.78
606.92	1738.54
607.27	1731.41
607.62	1724.36
607.96	1717.04
608.31	1710.40
608.66	1702.92
609.01	1695.32
609.36	1687.67
609.70	1679.57
610.05	1671.57
610.40	1663.92
610.75	1655.56
611.10	1647.88
611.44	1639.32
611.79	1631.35
612.14	1622.66
612.49	1613.61
612.83	1605.19
613.18	1597.13
613.53	1588.89
613.88	1580.35
614.22	1571.99
614.57	1563.29
614.92	1555.21
615.27	1547.72
615.61	1539.44
615.96	1531.33
616.31	1523.76
616.65	1516.37
617.00	1508.78
617.35	1501.08
617.70	1492.81
618.04	1484.30
618.39	1475.98
618.74	1468.48
619.08	1460.17
619.43	1452.53
619.78	1445.63
620.12	1438.43
620.47	1430.78
620.82	1422.76
621.16	1415.38
621.51	1407.89
621.85	1400.23
622.20	1391.80
622.55	1383.29
622.89	1375.40
623.24	1367.67
623.59	1360.28
623.93	1352.73
624.28	1345.44
624.62	1337.92
624.97	1330.71
625.32	1323.97
625.66	1317.15
626.01	1309.88
626.35	1302.42
626.70	1294.67
627.04	1286.91
627.39	1279.19
627.73	1271.75
628.08	1264.74
628.43	1257.45
628.77	1250.07
629.12	1242.58
629.46	1235.43
629.81	1228.03
630.15	1220.72
630.50	1213.37
630.84	1205.09
631.19	1197.21
631.53	1189.73
631.88	1182.19
632.22	1174.58
632.57	1167.27
632.91	1159.66
633.26	1152.29
633.60	1144.94
633.95	1137.91
634.29	1130.88
634.64	1124.27
634.98	1117.06
635.32	1109.95
635.67	1103.41
636.01	1096.73
636.36	1089.81
636.70	1083.23
637.05	1076.70
637.39	1070.23
637.73	1063.69
638.08	1057.88
638.42	1051.84
638.77	1045.40
639.11	1038.76
639.45	1032.41
639.80	1025.74
640.14	1019.25
640.49	1012.71
640.83	1006.40
641.17	1000.11
641.52	993.70
641.86	987.14
642.20	981.20
642.55	974.91
642.89	968.33
643.23	961.77
643.58	956.14
643.92	949.94
644.26	943.85
644.61	937.86
644.95	931.85
645.29	925.28
645.64	918.60
645.98	912.26
646.32	906.44
646.66	900.35
647.01	894.60
647.35	888.99
647.69	883.26
648.04	877.80
648.38	872.03
648.72	866.03
649.06	860.01
649.41	854.20
649.75	848.32
650.09	842.47
650.43	836.70
650.78	830.55
651.12	824.58
651.46	818.85
651.80	813.11
652.14	807.72
652.49	802.37
652.83	797.14
653.17	791.44
653.51	785.80
653.85	780.45
654.20	774.80
654.54	768.74
654.88	762.96
655.22	757.02
655.56	751.34
655.90	746.00
656.25	740.73
656.59	735.32
656.93	730.09
657.27	724.94
657.61	719.56
657.95	714.48
658.29	709.39
658.64	704.24
658.98	698.95
659.32	693.48
659.66	688.24
660.00	682.98
660.34	678.07
660.68	673.17
661.02	668.13
661.36	663.44
661.70	658.91
662.05	654.57
662.39	650.31
662.73	645.90
663.07	641.49
663.41	637.06
663.75	632.55
664.09	628.03
664.43	623.55
664.77	619.37
665.11	615.08
665.45	611.00
665.79	606.83
666.13	602.73
666.47	598.65
666.81	594.48
667.15	590.39
667.49	586.49
667.83	582.62
668.17	578.65
668.51	574.55
668.85	570.58
669.19	566.69
669.53	562.80
669.87	558.91
670.21	555.21
670.55	551.58
670.89	548.19
671.23	544.72
671.57	541.29
671.91	537.73
672.25	534.24
672.58	530.67
672.92	527.25
673.26	524.07
673.60	520.91
673.94	517.76
674.28	514.85
674.62	511.86
674.96	508.81
675.30	505.91
675.64	502.95
675.97	500.19
676.31	497.28
676.65	494.35
676.99	491.59
677.33	488.71
677.67	485.86
678.01	482.80
678.34	479.84
678.68	476.89
679.02	474.07
679.36	471.32
679.70	468.64
680.04	465.92
680.37	463.03
680.71	460.20
681.05	457.59
681.39	454.82
681.73	452.17
682.06	449.60
682.40	447.04
682.74	444.52
683.08	441.90
683.42	439.38
683.75	436.91
684.09	434.38
684.43	431.91
684.77	429.48
685.10	427.18
685.44	424.87
685.78	422.62
686.12	420.36
686.45	418.07
686.79	415.74
687.13	413.57
687.46	411.44
687.80	409.33
688.14	407.15
688.48	405.09
688.81	402.83
689.15	400.67
689.49	398.50
689.82	396.44
690.16	394.44
690.50	392.49
690.83	390.52
691.17	388.54
691.51	386.63
691.84	384.78
692.18	382.81
692.52	380.87
692.85	378.98
693.19	377.17
693.52	375.36
693.86	373.59
694.20	371.78
694.53	369.99
694.87	368.15
695.21	366.36
695.54	364.57
695.88	362.89
696.21	361.20
696.55	359.58
696.88	357.88
697.22	356.18
697.56	354.56
697.89	352.88
698.23	351.30
698.56	349.70
698.90	348.11
699.23	346.49
699.57	344.89
699.90	343.32
700.24	341.72
700.58	340.22
700.91	338.70
701.25	337.26
701.58	335.89
701.92	334.53
702.25	333.17
702.59	331.82
702.92	330.53
703.26	329.23
703.59	327.91
703.93	326.71
704.26	325.50
704.60	324.17
704.93	322.92
705.26	321.63
705.60	320.46
705.93	319.28
706.27	318.27
706.60	317.21
706.94	316.09
707.27	314.94
707.61	313.84
707.94	312.79
708.27	311.70
708.61	310.65
708.94	309.65
709.28	308.66
709.61	307.65
709.94	306.67
710.28	305.63
710.61	304.66
710.95	303.59
711.28	302.67
711.61	301.72
711.95	300.78
712.28	299.85
712.61	298.84
712.95	297.90
713.28	296.98
713.61	296.09
713.95	295.21
714.28	294.42
714.61	293.54
714.95	292.72
715.28	291.87
715.61	290.96
715.95	290.10
716.28	289.24
716.61	288.44
716.95	287.60
717.28	286.86
717.61	286.08
717.94	285.36
718.28	284.57
718.61	283.87
718.94	283.17
719.27	282.52
719.61	281.88
719.94	281.26
720.27	280.57
720.60	279.88
720.94	279.28
721.27	278.65
721.60	278.11
721.93	277.50
722.27	276.97
722.60	276.41
722.93	275.87
723.26	275.36
723.59	274.76
723.93	274.21
724.26	273.66
724.59	273.16
724.92	272.60
725.25	272.12
725.59	271.60
725.92	271.10
726.25	270.57
726.58	270.05
726.91	269.53
727.24	269.09
727.57	268.68
727.91	268.19
728.24	267.74
728.57	267.24
728.90	266.83
729.23	266.34
729.56	265.91
729.89	265.42
730.22	264.93
730.55	264.51
730.89	264.12
731.22	263.70
731.55	263.26
731.88	262.87
732.21	262.44
732.54	262.01
732.87	261.59
733.20	261.27
733.53	260.93
733.86	260.57
734.19	260.15
734.52	259.75
734.85	259.42
735.18	259.00
735.51	258.64
735.84	258.27
736.17	257.91
736.50	257.53
736.83	257.32
737.16	257.00
737.49	256.65
737.82	256.27
738.15	255.94
738.48	255.59
738.81	255.25
739.14	254.92
739.47	254.59
739.80	254.31
740.13	253.95
740.46	253.61
740.79	253.28
741.12	252.98
741.45	252.67
741.78	252.35
742.11	252.08
742.44	251.76
742.77	251.45
743.10	251.15
743.43	250.82
743.75	250.37
744.08	250.23
744.41	249.96
744.74	249.71
745.07	249.38
745.40	249.13
745.73	248.89
746.06	248.59
746.39	248.35
746.71	248.04
747.04	247.76
747.37	247.49
747.70	247.23
748.03	246.97
748.36	246.73
748.68	246.49
749.01	246.22
749.34	245.99
749.67	245.80
750.00	245.55
750.33	245.41
750.65	245.24
750.98	244.87
751.31	244.64
751.64	244.41
751.97	244.26
752.29	244.03
752.62	243.79
752.95	243.57
753.28	243.33
753.60	243.10
753.93	242.91
754.26	242.70
754.59	242.46
754.91	242.24
755.24	242.04
755.57	241.80
755.90	241.60
756.22	241.42
756.55	241.16
756.88	240.97
757.20	240.73
757.53	240.51
757.86	240.33
758.19	240.16
758.51	240.01
758.84	239.80
759.17	239.60
759.49	239.41
759.82	239.29
760.15	239.16
760.47	239.06
760.80	238.91
761.13	238.78
761.45	238.58
761.78	238.46
762.11	238.32
762.43	238.20
762.76	238.08
763.08	237.94
763.41	237.84
763.74	237.73
764.06	237.59
764.39	237.47
764.71	237.33
765.04	237.23
765.37	237.09
765.69	236.96
766.02	236.88
766.34	236.78
766.67	236.65
767.00	236.56
767.32	236.49
767.65	236.46
767.97	236.36
768.30	236.34
768.62	236.22
768.95	236.10
769.27	235.98
769.60	235.89
769.92	235.79
770.25	235.68
770.57	235.57
770.90	235.47
771.22	235.35
771.55	235.29
771.87	235.20
772.20	235.08
772.52	235.04
772.85	235.08
773.17	235.00
773.50	234.88
773.82	234.75
774.15	234.60
774.47	234.42
774.80	234.32
775.12	234.23
775.45	234.16
775.77	234.09
776.09	234.04
776.42	233.96
776.74	233.89
777.07	233.80
777.39	233.77
777.72	233.68
778.04	233.59
778.36	233.53
778.69	233.47
779.01	233.43
779.33	233.30
779.66	233.08
779.98	233.01
780.31	232.96
780.63	232.97
780.95	232.94
781.28	232.89
781.60	232.81
781.92	232.72
782.25	232.65
782.57	232.59
782.89	232.52
783.22	232.48
783.54	232.42
783.86	232.37
784.19	232.27
784.51	232.26
784.83	232.21
785.16	232.15
785.48	232.08
785.80	232.06
786.12	232.01
786.45	231.97
786.77	231.93
787.09	231.86
787.42	231.74
787.74	231.67
788.06	231.64
788.38	231.64
788.71	231.58
789.03	231.55
789.35	231.56
789.67	231.49
789.99	231.42
790.32	231.35
790.64	231.32
790.96	231.33
791.28	231.24
791.61	231.18
791.93	231.10
792.25	231.05
792.57	231.03
792.89	230.99
793.21	230.98
793.54	230.93
793.86	230.89
794.18	230.90
794.50	230.83
794.82	230.76
795.14	230.73
795.47	230.71
795.79	230.64
796.11	230.51
796.43	230.47
796.75	230.44
797.07	230.39
797.39	230.34
797.71	230.24
798.04	230.23
798.36	230.20
798.68	230.17
799.00	230.13
799.32	230.07
799.64	230.02
799.96	229.97
800.28	229.93
800.60	229.91
800.92	229.85
801.24	229.85
801.56	229.84
801.89	229.75
802.21	229.73
802.53	229.70
802.85	229.73
803.17	229.78
803.49	229.73
803.81	229.72
804.13	229.67
804.45	229.65
804.77	229.64
805.09	229.61
805.41	229.58
805.73	229.56
806.05	229.50
806.37	229.50
806.69	229.46
807.01	229.45
807.33	229.44
807.65	229.39
807.97	229.39
808.28	229.39
808.60	229.39
808.92	229.36
809.24	229.39
809.56	229.34
809.88	229.22
810.20	229.21
810.52	229.22
810.84	229.21
811.16	229.19
811.48	229.14
811.80	229.20
812.12	229.17
812.43	229.17
812.75	229.14
813.07	229.13
813.39	229.12
813.71	229.11
814.03	229.07
814.35	229.05
814.67	229.04
814.98	229.00
815.30	229.01
815.62	228.98
815.94	228.93
816.26	228.98
816.58	228.96
816.89	228.96
817.21	228.91
817.53	228.91
817.85	228.87
818.17	228.91
818.48	228.85
818.80	228.84
819.12	228.83
819.44	228.84
819.76	228.80
820.07	228.80
820.39	228.76
820.71	228.76
821.03	228.76
821.34	228.73
821.66	228.69
821.98	228.68
822.30	228.67
822.61	228.70
822.93	228.62
823.25	228.63
823.57	228.61
823.88	228.61
824.20	228.59
824.52	228.62
824.83	228.54
825.15	228.50
825.47	228.51
825.79	228.47
826.10	228.44
826.42	228.41
826.74	228.40
827.05	228.36
827.37	228.34
827.69	228.32
828.00	228.30
828.32	228.28
828.64	228.22
828.95	228.24
829.27	228.18
829.58	228.14
829.90	228.15
830.22	228.14
830.53	228.15
830.85	228.12
831.17	228.09
831.48	228.09
831.80	228.08
832.11	228.05
832.43	228.02
832.75	227.99
833.06	228.05
833.38	228.00
833.69	228.00
834.01	227.97
834.32	227.95
834.64	227.90
834.96	227.90
835.27	227.91
835.59	227.87
835.90	227.83
836.22	227.84
836.53	227.80
836.85	227.76
837.16	227.82
837.48	227.83
837.79	227.85
838.11	227.83
838.42	227.82
838.74	227.80
839.05	227.76
839.37	227.75
839.68	227.70
840.00	227.69
840.31	227.71
840.63	227.74
840.94	227.72
841.26	227.72
841.57	227.71
841.88	227.70
842.20	227.68
842.51	227.66
842.83	227.65
843.14	227.74
843.46	227.72
843.77	227.64
844.08	227.63
844.40	227.59
844.71	227.58
845.03	227.58
845.34	227.57
845.65	227.63
845.97	227.62
846.28	227.62
846.60	227.66
846.91	227.61
847.22	227.59
847.54	227.65
847.85	227.61
848.16	227.62
848.48	227.59
848.79	227.64
849.10	227.67
849.42	227.69
849.73	227.57
850.04	227.59
850.36	227.58
850.67	227.58
850.98	227.58
851.30	227.58
851.61	227.57
851.92	227.56
852.23	227.55
852.55	227.58
852.86	227.56
853.17	227.52
853.49	227.57
853.80	227.60
854.11	227.57
854.42	227.62
854.74	227.60
855.05	227.61
855.36	227.54
855.67	227.56
855.99	227.54
856.30	227.66
856.61	227.64
856.92	227.64
857.23	227.58
857.55	227.57
857.86	227.56
858.17	227.60
858.48	227.60
858.79	227.57
859.11	227.58
859.42	227.60
859.73	227.60
860.04	227.59
860.35	227.53
860.66	227.47
860.98	227.47
861.29	227.48
861.60	227.49
861.91	227.51
862.22	227.48
862.53	227.46
862.84	227.36
863.16	227.36
863.47	227.33
863.78	227.35
864.09	227.35
864.40	227.37
864.71	227.35
865.02	227.35
865.33	227.31
865.64	227.30
865.95	227.29
866.27	227.33
866.58	227.27
866.89	227.32
867.20	227.34
867.51	227.31
867.82	227.30
868.13	227.31
868.44	227.29
868.75	227.28
869.06	227.26
869.37	227.27
869.68	227.27
869.99	227.30
870.30	227.32
870.61	227.33
870.92	227.27
871.23	227.25
871.54	227.28
871.85	227.33
872.16	227.29
872.47	227.28
872.78	227.21
873.09	227.25
873.40	227.23
873.71	227.26
874.02	227.28
874.33	227.32
874.64	227.28
874.95	227.30
875.26	227.28
875.56	227.33
875.87	227.31
876.18	227.28
876.49	227.36
876.80	227.35
877.11	227.35
877.42	227.39
877.73	227.43
878.04	227.42
878.35	227.44
878.66	227.45
878.96	227.45
879.27	227.47
879.58	227.43
879.89	227.42
880.20	227.45
880.51	227.43
880.82	227.38
881.12	227.41
881.43	227.42
881.74	227.42
882.05	227.42
882.36	227.44
882.67	227.49
882.97	227.37
883.28	227.38
883.59	227.34
883.90	227.36
884.21	227.36
884.51	227.38
884.82	227.36
885.13	227.38
885.44	227.38
885.74	227.40
886.05	227.42
886.36	227.44
886.67	227.36
886.98	227.41
887.28	227.46
887.59	227.45
887.90	227.42
888.20	227.40
888.51	227.40
888.82	227.35
889.13	227.31
889.43	227.41
889.74	227.40
890.05	227.40
890.35	227.38
890.66	227.34
890.97	227.31
891.28	227.28
891.58	227.27
891.89	227.26
892.20	227.20
892.50	227.18
892.81	227.14
893.12	227.15
893.42	227.10
893.73	227.07
894.04	227.06
894.34	227.09
894.65	227.08
894.95	227.07
895.26	227.09
895.57	227.15
895.87	227.03
896.18	227.02
896.48	227.03
896.79	227.02
897.10	227.02
897.40	227.00
897.71	226.98
898.01	226.98
898.32	226.99
898.63	227.00
898.93	227.03
899.24	227.03
899.54	227.04
899.85	227.02
900.15	227.01
900.46	226.99
900.76	226.98
901.07	227.00
901.38	227.02
901.68	227.01
901.99	226.98
902.29	227.02
902.60	227.01
902.90	227.01
903.21	227.02
903.51	226.99
903.82	227.03
904.12	227.05
904.43	227.02
904.73	226.99
905.03	227.02
905.34	227.08
905.64	227.08
905.95	227.08
906.25	227.07
906.56	227.09
906.86	227.08
907.17	227.06
907.47	227.08
907.77	227.03
908.08	227.03
908.38	227.02
908.69	227.01
908.99	227.04
909.30	227.02
909.60	227.01
909.90	227.02
910.21	226.98
910.51	226.92
910.81	226.96
911.12	226.97
911.42	226.95
911.73	226.86
912.03	226.84
912.33	226.87
912.64	226.91
912.94	226.88
913.24	226.89
913.55	226.91
913.85	226.88
914.15	226.91
914.46	226.92
914.76	226.88
915.06	226.88
915.37	226.84
915.67	226.85
915.97	226.88
916.27	226.86
916.58	226.85
916.88	226.89
917.18	226.87
917.49	226.93
917.79	226.93
918.09	226.95
918.39	226.98
918.70	226.95
919.00	226.94
919.30	226.98
919.60	226.98
919.91	226.94
920.21	226.94
920.51	226.94
920.81	226.93
921.12	226.99
921.42	226.95
921.72	226.96
922.02	226.99
922.32	226.96
922.63	226.98
922.93	227.03
923.23	227.02
923.53	226.99
923.83	226.92
924.13	226.91
924.44	226.92
924.74	226.94
925.04	226.98
925.34	226.95
925.64	226.90
925.94	226.89
926.24	226.96
926.55	226.97
926.85	226.95
927.15	226.95
927.45	226.91
927.75	226.96
928.05	226.96
928.35	226.93
928.65	226.95
928.95	226.94
929.26	226.90
929.56	226.92
929.86	226.93
930.16	226.93
930.46	226.95
930.76	226.95
931.06	226.92
931.36	226.88
931.66	226.90
931.96	226.91
932.26	226.91
932.56	226.88
932.86	226.86
933.16	226.89
933.46	226.89
933.76	226.91
934.06	226.92
934.36	226.97
934.66	226.96
934.96	226.95
935.26	226.97
935.56	227.00
935.86	226.99
936.16	226.98
936.46	227.00
936.76	227.00
937.06	226.98
937.36	226.96
937.66	226.95
937.96	226.97
938.26	226.94
938.56	226.93
938.86	226.91
939.16	226.97
939.46	226.96
939.76	226.97
940.06	226.97
940.35	226.92
940.65	226.82
940.95	226.82
941.25	226.81
941.55	226.82
941.85	226.80
942.15	226.85
942.45	226.91
942.75	226.90
943.04	226.92
943.34	226.92
943.64	226.92
943.94	226.89
944.24	226.89
944.54	226.93
944.84	226.93
945.13	226.95
945.43	226.94
945.73	226.91
946.03	226.89
946.33	226.86
946.62	226.85
946.92	226.89
947.22	226.92
947.52	226.92
947.82	226.92
948.11	226.91
948.41	226.85
948.71	226.82
949.01	226.80
949.31	226.76
949.60	226.79
949.90	226.80
950.20	226.82
950.50	226.79
950.79	226.76
951.09	226.78
951.39	226.77
951.69	226.75
951.98	226.78
952.28	226.78
952.58	226.80
952.87	226.83
953.17	226.86
953.47	226.83
953.76	226.83
954.06	226.78
954.36	226.79
954.66	226.78
954.95	226.78
955.25	226.79
955.55	226.79
955.84	226.75
956.14	226.76
956.44	226.80
956.73	226.78
957.03	226.78
957.32	226.77
957.62	226.75
957.92	226.75
958.21	226.73
958.51	226.87
958.81	226.83
959.10	226.82
959.40	226.82
959.69	226.83
959.99	226.85
960.29	226.85
960.58	226.82
960.88	226.84
961.17	226.82
961.47	226.82
961.76	226.83
962.06	226.83
962.36	226.81
962.65	226.79
962.95	226.79
963.24	226.80
963.54	226.80
963.83	226.81
964.13	226.82
964.42	226.81
964.72	226.71
965.01	226.73
965.31	226.72
965.60	226.65
965.90	226.71
966.19	226.67
966.49	226.71
966.78	226.73
967.08	226.73
967.37	226.73
967.67	226.75
967.96	226.75
968.26	226.78
968.55	226.82
968.85	226.83
969.14	226.80
969.43	226.77
969.73	226.75
970.02	226.73
970.32	226.71
970.61	226.70
970.91	226.64
971.20	226.66
971.49	226.64
971.79	226.68
972.08	226.62
972.38	226.64
972.67	226.61
972.96	226.60
973.26	226.61
973.55	226.65
973.85	226.63
974.14	226.65
974.43	226.65
974.73	226.60
975.02	226.58
975.31	226.63
975.61	226.64
975.90	226.63
976.19	226.66
976.49	226.70
976.78	226.71
977.07	226.76
977.37	226.75
977.66	226.79
977.95	226.79
978.24	226.79
978.54	226.81
978.83	226.83
979.12	226.84
979.42	226.83
979.71	226.80
980.00	226.80
980.29	226.75
980.59	226.72
980.88	226.73
981.17	226.74
981.46	226.75
981.76	226.76
982.05	226.80
982.34	226.77
982.63	226.77
982.93	226.74
983.22	226.77
983.51	226.77
983.80	226.76
984.09	226.73
984.39	226.72
984.68	226.70
984.97	226.70
985.26	226.70
985.55	226.72
985.85	226.71
986.14	226.74
986.43	226.76
986.72	226.78
987.01	226.76
987.30	226.76
987.59	226.76
987.89	226.76
988.18	226.71
988.47	226.71
988.76	226.71
989.05	226.71
989.34	226.69
989.63	226.72
989.92	226.72
990.22	226.73
990.51	226.72
990.80	226.74
991.09	226.73
991.38	226.75
991.67	226.72
991.96	226.72
992.25	226.67
992.54	226.68
992.83	226.68
993.12	226.66
993.41	226.66
993.70	226.68
993.99	226.71
994.28	226.74
994.58	226.77
994.87	226.75
995.16	226.73
995.45	226.68
995.74	226.65
996.03	226.65
996.32	226.65
996.61	226.65
996.90	226.64
997.19	226.62
997.48	226.60
997.77	226.57
998.06	226.57
998.34	226.58
998.63	226.59
998.92	226.58
999.21	226.63
999.50	226.64
999.79	226.60
1000.08	226.60
1000.37	226.62
1000.66	226.62
1000.95	226.66
1001.24	226.69
1001.53	226.74
1001.82	226.73
1002.11	226.73
1002.40	226.73
1002.68	226.76
1002.97	226.81
1003.26	226.82
1003.55	226.83
1003.84	226.86
1004.13	226.89
1004.42	226.89
1004.71	226.86
1004.99	226.87
1005.28	226.86
1005.57	226.83
1005.86	226.83
1006.15	226.80
1006.44	226.77
1006.72	226.76
1007.01	226.70
1007.30	226.70
1007.59	226.71
1007.88	226.68
1008.17	226.68
1008.45	226.66
1008.74	226.66
1009.03	226.61
1009.32	226.59
1009.60	226.60
1009.89	226.58
1010.18	226.55
1010.47	226.55
1010.76	226.57
1011.04	226.54
1011.33	226.55
1011.62	226.56
1011.91	226.56
1012.19	226.58
1012.48	226.59
1012.77	226.61
1013.05	226.64
1013.34	226.65
1013.63	226.64
1013.92	226.66
1014.20	226.64
1014.49	226.67
1014.78	226.66
1015.06	226.66
1015.35	226.67
1015.64	226.64
1015.92	226.67
1016.21	226.68
1016.50	226.64
1016.78	226.61
1017.07	226.61
1017.36	226.60
1017.64	226.59
1017.93	226.62
1018.22	226.60
1018.50	226.58
1018.79	226.60
1019.08	226.55
1019.36	226.56
1019.65	226.52
1019.93	226.53
1020.22	226.55
1020.51	226.57
1020.79	226.56
1021.08	226.72
1021.36	226.40
1021.65	227.27
1021.94	226.20
1022.22	226.90
1022.51	226.12
1022.79	226.52
1023.08	226.76
1023.36	227.34
1023.65	226.29
>>>>>End Processed Spectral Data<<<<<
