SpectraSuite Data File
++++++++++++++++++++++++++++++++++++
Date: Fri Feb 01 16:17:16 EST 2013
User: group
Dark Spectrum Present: No
Reference Spectrum Present: No
Number of Sampled Component Spectra: 1
Spectrometers: USB2E7196
Integration Time (usec): 35000 (USB2E7196)
Spectra Averaged: 100 (USB2E7196)
Boxcar Smoothing: 10 (USB2E7196)
Correct for Electrical Dark: No (USB2E7196)
Strobe/Lamp Enabled: No (USB2E7196)
Correct for Detector Non-linearity: No (USB2E7196)
Correct for Stray Light: No (USB2E7196)
Number of Pixels in Processed Spectrum: 2048
>>>>>Begin Processed Spectral Data<<<<<
339.09	0.00
339.48	213.85
339.86	215.99
340.24	216.87
340.63	218.51
341.01	221.32
341.39	221.19
341.78	222.18
342.16	223.57
342.54	223.95
342.93	212.37
343.31	223.14
343.69	223.68
344.07	224.11
344.46	224.53
344.84	224.89
345.22	225.11
345.60	225.32
345.99	225.49
346.37	225.58
346.75	225.65
347.13	225.68
347.52	225.73
347.90	225.80
348.28	225.85
348.66	225.85
349.05	225.87
349.43	225.88
349.81	225.91
350.19	225.97
350.57	226.05
350.96	226.11
351.34	226.17
351.72	226.26
352.10	226.39
352.48	226.43
352.87	226.49
353.25	226.54
353.63	226.62
354.01	226.73
354.39	226.83
354.77	226.94
355.15	227.04
355.54	227.10
355.92	227.13
356.30	227.16
356.68	227.32
357.06	227.39
357.44	227.47
357.82	227.52
358.20	227.59
358.58	227.65
358.97	227.71
359.35	227.79
359.73	227.88
360.11	227.88
360.49	227.98
360.87	228.03
361.25	228.09
361.63	228.13
362.01	228.17
362.39	228.20
362.77	228.24
363.15	228.30
363.53	228.35
363.91	228.38
364.29	228.43
364.67	228.34
365.05	228.38
365.43	228.42
365.81	228.47
366.19	228.55
366.57	228.60
366.95	228.62
367.33	228.56
367.71	228.57
368.09	228.64
368.47	228.62
368.85	228.60
369.23	228.62
369.61	228.59
369.99	228.59
370.37	228.54
370.75	228.56
371.13	228.49
371.51	228.43
371.89	228.39
372.27	228.36
372.65	228.35
373.03	228.28
373.41	228.23
373.78	228.15
374.16	228.02
374.54	227.92
374.92	227.87
375.30	227.83
375.68	227.69
376.06	227.62
376.44	227.57
376.82	227.52
377.19	227.45
377.57	227.38
377.95	227.25
378.33	227.20
378.71	227.10
379.09	227.04
379.47	227.03
379.84	226.94
380.22	226.88
380.60	226.78
380.98	226.73
381.36	226.66
381.73	226.59
382.11	226.56
382.49	226.51
382.87	226.41
383.25	226.32
383.62	226.39
384.00	226.29
384.38	226.22
384.76	226.20
385.13	226.18
385.51	226.11
385.89	226.07
386.27	226.03
386.64	225.98
387.02	225.93
387.40	225.86
387.78	225.82
388.15	225.79
388.53	225.75
388.91	225.73
389.29	225.69
389.66	225.69
390.04	225.67
390.42	225.65
390.79	225.64
391.17	225.63
391.55	225.51
391.92	225.50
392.30	225.52
392.68	225.46
393.05	225.43
393.43	225.47
393.81	225.49
394.18	225.49
394.56	225.50
394.94	225.54
395.31	225.54
395.69	225.63
396.06	225.67
396.44	225.73
396.82	225.74
397.19	225.81
397.57	225.85
397.95	225.84
398.32	225.84
398.70	225.93
399.07	226.01
399.45	226.10
399.82	226.16
400.20	226.16
400.58	226.22
400.95	226.28
401.33	226.37
401.70	226.51
402.08	226.58
402.45	226.62
402.83	226.70
403.20	226.77
403.58	226.84
403.95	226.93
404.33	227.04
404.71	227.15
405.08	227.35
405.46	227.45
405.83	227.63
406.21	227.79
406.58	227.94
406.96	228.10
407.33	228.25
407.70	228.45
408.08	228.74
408.45	228.98
408.83	229.21
409.20	229.39
409.58	229.53
409.95	229.81
410.33	230.13
410.70	230.41
411.08	230.70
411.45	231.02
411.82	231.37
412.20	231.69
412.57	232.11
412.95	232.37
413.32	232.77
413.69	233.20
414.07	233.64
414.44	234.09
414.82	234.56
415.19	235.09
415.56	235.63
415.94	236.19
416.31	236.78
416.68	237.39
417.06	238.11
417.43	238.84
417.81	239.58
418.18	240.36
418.55	241.19
418.93	242.08
419.30	242.95
419.67	243.87
420.04	244.88
420.42	245.90
420.79	247.09
421.16	248.26
421.54	249.44
421.91	250.65
422.28	251.90
422.66	253.22
423.03	254.57
423.40	255.90
423.77	257.28
424.15	258.74
424.52	260.26
424.89	261.89
425.26	263.46
425.64	264.92
426.01	266.50
426.38	268.18
426.75	269.83
427.13	271.61
427.50	273.42
427.87	275.31
428.24	277.16
428.61	278.87
428.99	280.82
429.36	282.87
429.73	284.95
430.10	287.02
430.47	289.08
430.85	291.14
431.22	293.40
431.59	295.80
431.96	298.06
432.33	300.51
432.70	302.86
433.08	305.67
433.45	308.32
433.82	310.93
434.19	313.79
434.56	316.64
434.93	319.23
435.30	321.83
435.68	324.70
436.05	327.51
436.42	330.31
436.79	332.83
437.16	335.53
437.53	338.35
437.90	341.12
438.27	343.85
438.64	346.66
439.01	349.25
439.38	351.45
439.75	353.58
440.13	356.09
440.50	358.44
440.87	360.24
441.24	362.13
441.61	364.29
441.98	365.76
442.35	367.47
442.72	369.34
443.09	371.13
443.46	372.10
443.83	372.71
444.20	373.22
444.57	373.99
444.94	374.28
445.31	374.61
445.68	374.93
446.05	375.04
446.42	374.69
446.79	374.26
447.16	373.85
447.53	373.53
447.90	372.34
448.27	371.14
448.64	369.59
449.01	368.47
449.37	366.47
449.74	364.59
450.11	362.38
450.48	359.90
450.85	357.39
451.22	355.21
451.59	353.17
451.96	351.24
452.33	348.65
452.70	346.30
453.07	343.50
453.43	340.60
453.80	337.79
454.17	335.10
454.54	332.56
454.91	329.82
455.28	327.14
455.65	324.67
456.02	322.25
456.38	320.08
456.75	317.42
457.12	315.18
457.49	312.96
457.86	310.78
458.23	308.96
458.59	306.89
458.96	304.83
459.33	302.97
459.70	301.12
460.07	299.67
460.43	297.99
460.80	296.38
461.17	295.01
461.54	293.53
461.91	292.10
462.27	290.65
462.64	289.40
463.01	288.06
463.38	286.76
463.74	285.38
464.11	284.19
464.48	283.20
464.85	282.10
465.21	281.25
465.58	280.34
465.95	279.23
466.32	278.35
466.68	277.47
467.05	276.59
467.42	275.70
467.78	274.79
468.15	273.93
468.52	273.25
468.88	272.37
469.25	271.61
469.62	271.05
469.98	270.41
470.35	269.84
470.72	269.28
471.08	268.64
471.45	268.11
471.82	267.61
472.18	267.04
472.55	266.63
472.92	266.13
473.28	265.71
473.65	265.28
474.02	264.87
474.38	264.50
474.75	264.18
475.11	263.84
475.48	263.56
475.85	263.34
476.21	263.11
476.58	262.91
476.94	262.80
477.31	262.61
477.67	262.44
478.04	262.36
478.41	262.30
478.77	262.35
479.14	262.30
479.50	262.31
479.87	262.39
480.23	262.50
480.60	262.58
480.96	262.65
481.33	262.87
481.69	263.08
482.06	263.29
482.42	263.52
482.79	263.76
483.15	264.10
483.52	264.48
483.88	264.84
484.25	265.25
484.61	265.69
484.98	266.17
485.34	266.72
485.71	267.29
486.07	267.91
486.44	268.49
486.80	269.21
487.17	269.95
487.53	270.79
487.90	271.64
488.26	272.58
488.62	273.63
488.99	274.58
489.35	275.62
489.72	276.77
490.08	277.94
490.44	279.19
490.81	280.52
491.17	281.83
491.54	283.28
491.90	284.81
492.26	286.44
492.63	288.13
492.99	289.95
493.36	291.83
493.72	293.88
494.08	295.97
494.45	298.20
494.81	300.54
495.17	302.90
495.54	305.46
495.90	308.13
496.26	310.92
496.63	313.88
496.99	316.99
497.35	320.20
497.72	323.60
498.08	327.16
498.44	330.86
498.80	334.85
499.17	338.87
499.53	343.04
499.89	347.47
500.26	352.00
500.62	356.63
500.98	361.58
501.34	366.63
501.71	372.01
502.07	377.48
502.43	383.14
502.79	388.97
503.16	395.05
503.52	401.32
503.88	407.70
504.24	414.37
504.60	421.21
504.97	428.33
505.33	435.68
505.69	443.35
506.05	451.10
506.41	459.00
506.78	467.20
507.14	475.65
507.50	484.36
507.86	493.37
508.22	502.62
508.59	511.87
508.95	521.46
509.31	531.27
509.67	541.35
510.03	551.62
510.39	562.23
510.75	573.00
511.12	583.97
511.48	595.25
511.84	606.60
512.20	618.22
512.56	630.18
512.92	642.32
513.28	654.72
513.64	667.26
514.00	679.97
514.37	692.95
514.73	705.97
515.09	718.96
515.45	732.35
515.81	745.94
516.17	759.89
516.53	774.05
516.89	788.23
517.25	802.37
517.61	816.86
517.97	831.24
518.33	845.74
518.69	860.57
519.05	875.55
519.41	890.84
519.77	906.32
520.13	921.75
520.49	937.11
520.85	952.43
521.21	968.05
521.57	984.23
521.93	1000.01
522.29	1016.42
522.65	1032.69
523.01	1048.77
523.37	1064.85
523.73	1080.96
524.09	1097.01
524.45	1113.30
524.81	1130.00
525.17	1146.60
525.53	1163.48
525.89	1180.31
526.25	1197.00
526.61	1213.31
526.97	1229.98
527.33	1246.34
527.68	1262.91
528.04	1279.41
528.40	1295.94
528.76	1312.92
529.12	1329.46
529.48	1346.34
529.84	1362.27
530.20	1378.79
530.56	1395.76
530.91	1412.96
531.27	1429.60
531.63	1446.02
531.99	1462.47
532.35	1478.20
532.71	1494.07
533.07	1510.27
533.42	1526.16
533.78	1542.13
534.14	1558.42
534.50	1573.68
534.86	1589.46
535.21	1604.58
535.57	1620.44
535.93	1635.92
536.29	1650.67
536.65	1665.61
537.00	1680.16
537.36	1695.46
537.72	1709.83
538.08	1724.24
538.44	1737.90
538.79	1751.75
539.15	1765.29
539.51	1778.99
539.87	1793.46
540.22	1807.22
540.58	1820.92
540.94	1834.01
541.29	1846.86
541.65	1859.47
542.01	1872.73
542.37	1885.04
542.72	1897.37
543.08	1908.96
543.44	1921.32
543.79	1932.51
544.15	1943.45
544.51	1954.99
544.87	1965.84
545.22	1976.68
545.58	1986.69
545.94	1996.51
546.29	2006.34
546.65	2016.13
547.01	2025.33
547.36	2033.89
547.72	2042.16
548.07	2049.86
548.43	2058.05
548.79	2066.04
549.14	2073.64
549.50	2080.74
549.86	2088.43
550.21	2095.79
550.57	2103.00
550.92	2109.47
551.28	2116.28
551.64	2123.26
551.99	2129.85
552.35	2136.12
552.70	2142.32
553.06	2148.44
553.41	2154.76
553.77	2160.69
554.13	2166.54
554.48	2172.67
554.84	2178.18
555.19	2183.62
555.55	2188.97
555.90	2193.50
556.26	2198.38
556.61	2203.05
556.97	2207.33
557.32	2211.46
557.68	2215.53
558.03	2219.90
558.39	2223.49
558.74	2228.35
559.10	2232.27
559.45	2235.74
559.81	2239.77
560.16	2243.49
560.52	2246.72
560.87	2250.09
561.23	2252.87
561.58	2256.17
561.94	2258.68
562.29	2261.00
562.64	2263.55
563.00	2265.98
563.35	2269.48
563.71	2272.58
564.06	2275.56
564.42	2278.56
564.77	2281.09
565.12	2283.55
565.48	2285.40
565.83	2287.42
566.19	2288.71
566.54	2289.58
566.89	2290.91
567.25	2291.68
567.60	2293.17
567.96	2294.88
568.31	2295.82
568.66	2297.02
569.02	2297.57
569.37	2297.94
569.72	2298.85
570.08	2299.02
570.43	2299.12
570.78	2298.56
571.14	2297.15
571.49	2296.01
571.84	2295.70
572.20	2294.71
572.55	2293.58
572.90	2292.06
573.26	2290.81
573.61	2289.31
573.96	2287.80
574.31	2284.84
574.67	2281.97
575.02	2278.28
575.37	2274.88
575.72	2271.07
576.08	2267.68
576.43	2264.35
576.78	2260.77
577.13	2257.55
577.49	2254.58
577.84	2251.08
578.19	2247.30
578.54	2243.66
578.90	2239.50
579.25	2233.98
579.60	2229.01
579.95	2224.06
580.30	2219.08
580.66	2213.86
581.01	2208.84
581.36	2203.85
581.71	2199.60
582.06	2195.08
582.42	2190.66
582.77	2185.47
583.12	2180.97
583.47	2176.33
583.82	2171.34
584.17	2166.13
584.53	2160.90
584.88	2155.36
585.23	2149.69
585.58	2144.32
585.93	2138.82
586.28	2133.96
586.63	2129.02
586.98	2123.96
587.34	2119.32
587.69	2114.45
588.04	2109.11
588.39	2103.54
588.74	2097.10
589.09	2091.08
589.44	2084.21
589.79	2078.25
590.14	2072.77
590.49	2066.18
590.84	2059.79
591.19	2053.84
591.54	2047.42
591.89	2039.96
592.25	2033.18
592.60	2026.11
592.95	2018.56
593.30	2011.14
593.65	2003.69
594.00	1996.57
594.35	1989.32
594.70	1981.23
595.05	1974.26
595.40	1967.13
595.75	1959.50
596.10	1953.30
596.45	1946.60
596.80	1940.68
597.15	1934.07
597.50	1926.96
597.85	1920.66
598.19	1914.09
598.54	1906.93
598.89	1900.27
599.24	1894.39
599.59	1887.61
599.94	1881.38
600.29	1875.00
600.64	1868.55
600.99	1861.15
601.34	1854.42
601.69	1847.54
602.04	1840.65
602.39	1833.15
602.74	1826.34
603.08	1819.68
603.43	1812.99
603.78	1805.76
604.13	1798.45
604.48	1791.18
604.83	1784.24
605.18	1777.32
605.53	1769.38
605.87	1761.32
606.22	1754.14
606.57	1746.10
606.92	1738.86
607.27	1731.73
607.62	1724.96
607.96	1717.80
608.31	1711.21
608.66	1703.63
609.01	1695.95
609.36	1688.41
609.70	1680.40
610.05	1672.46
610.40	1664.79
610.75	1656.42
611.10	1648.72
611.44	1640.25
611.79	1632.33
612.14	1623.68
612.49	1614.48
612.83	1606.05
613.18	1598.04
613.53	1589.92
613.88	1581.50
614.22	1573.26
614.57	1564.68
614.92	1556.55
615.27	1548.91
615.61	1540.61
615.96	1532.43
616.31	1524.86
616.65	1517.51
617.00	1509.95
617.35	1502.10
617.70	1493.75
618.04	1485.22
618.39	1476.98
618.74	1469.53
619.08	1461.18
619.43	1453.65
619.78	1446.66
620.12	1439.42
620.47	1431.92
620.82	1423.77
621.16	1416.31
621.51	1408.72
621.85	1400.95
622.20	1392.47
622.55	1384.07
622.89	1376.20
623.24	1368.79
623.59	1361.41
623.93	1353.85
624.28	1346.69
624.62	1339.25
624.97	1332.16
625.32	1325.45
625.66	1318.40
626.01	1311.26
626.35	1303.88
626.70	1296.09
627.04	1288.40
627.39	1280.65
627.73	1273.22
628.08	1266.36
628.43	1259.06
628.77	1251.65
629.12	1244.17
629.46	1236.99
629.81	1229.54
630.15	1222.24
630.50	1214.70
630.84	1206.43
631.19	1198.57
631.53	1191.02
631.88	1183.44
632.22	1175.82
632.57	1168.56
632.91	1161.02
633.26	1153.48
633.60	1146.01
633.95	1138.89
634.29	1131.81
634.64	1125.14
634.98	1117.84
635.32	1110.53
635.67	1103.96
636.01	1097.38
636.36	1090.52
636.70	1083.99
637.05	1077.56
637.39	1071.04
637.73	1064.51
638.08	1058.74
638.42	1052.72
638.77	1046.23
639.11	1039.61
639.45	1033.16
639.80	1026.44
640.14	1020.13
640.49	1013.65
640.83	1007.37
641.17	1001.11
641.52	994.71
641.86	988.26
642.20	982.35
642.55	976.10
642.89	969.60
643.23	962.96
643.58	957.23
643.92	951.10
644.26	945.03
644.61	939.01
644.95	932.99
645.29	926.35
645.64	919.51
645.98	913.14
646.32	907.26
646.66	901.19
647.01	895.39
647.35	889.57
647.69	883.63
648.04	878.00
648.38	872.15
648.72	866.19
649.06	860.05
649.41	854.17
649.75	848.23
650.09	842.23
650.43	836.45
650.78	830.28
651.12	824.21
651.46	818.47
651.80	812.72
652.14	807.32
652.49	801.94
652.83	796.90
653.17	791.23
653.51	785.55
653.85	780.16
654.20	774.47
654.54	768.43
654.88	762.71
655.22	756.83
655.56	751.12
655.90	745.71
656.25	740.50
656.59	735.14
656.93	730.07
657.27	724.93
657.61	719.48
657.95	714.37
658.29	709.27
658.64	703.99
658.98	698.68
659.32	693.18
659.66	688.02
660.00	682.68
660.34	677.72
660.68	672.83
661.02	667.81
661.36	663.17
661.70	658.68
662.05	654.33
662.39	650.03
662.73	645.58
663.07	641.13
663.41	636.69
663.75	632.20
664.09	627.61
664.43	623.23
664.77	619.10
665.11	614.91
665.45	610.81
665.79	606.73
666.13	602.58
666.47	598.56
666.81	594.33
667.15	590.16
667.49	586.32
667.83	582.51
668.17	578.58
668.51	574.50
668.85	570.47
669.19	566.66
669.53	562.82
669.87	558.98
670.21	555.36
670.55	551.69
670.89	548.26
671.23	544.84
671.57	541.29
671.91	537.75
672.25	534.20
672.58	530.69
672.92	527.29
673.26	524.16
673.60	520.92
673.94	517.82
674.28	514.92
674.62	511.94
674.96	508.78
675.30	505.88
675.64	502.94
675.97	500.17
676.31	497.28
676.65	494.33
676.99	491.61
677.33	488.71
677.67	485.92
678.01	482.82
678.34	479.82
678.68	476.96
679.02	474.16
679.36	471.39
679.70	468.68
680.04	465.88
680.37	463.05
680.71	460.24
681.05	457.61
681.39	454.88
681.73	452.21
682.06	449.69
682.40	447.07
682.74	444.52
683.08	441.95
683.42	439.33
683.75	436.84
684.09	434.29
684.43	431.82
684.77	429.34
685.10	427.06
685.44	424.75
685.78	422.44
686.12	420.17
686.45	417.85
686.79	415.49
687.13	413.34
687.46	411.13
687.80	409.01
688.14	406.79
688.48	404.71
688.81	402.45
689.15	400.30
689.49	398.17
689.82	396.08
690.16	394.00
690.50	392.01
690.83	390.05
691.17	388.05
691.51	386.14
691.84	384.27
692.18	382.27
692.52	380.27
692.85	378.37
693.19	376.51
693.52	374.69
693.86	372.86
694.20	371.00
694.53	369.19
694.87	367.34
695.21	365.53
695.54	363.70
695.88	361.95
696.21	360.20
696.55	358.49
696.88	356.80
697.22	355.17
697.56	353.55
697.89	351.92
698.23	350.36
698.56	348.71
698.90	347.11
699.23	345.48
699.57	343.94
699.90	342.34
700.24	340.77
700.58	339.26
700.91	337.80
701.25	336.33
701.58	335.00
701.92	333.62
702.25	332.26
702.59	330.90
702.92	329.58
703.26	328.30
703.59	327.04
703.93	325.87
704.26	324.59
704.60	323.34
704.93	322.05
705.26	320.78
705.60	319.63
705.93	318.48
706.27	317.49
706.60	316.44
706.94	315.43
707.27	314.34
707.61	313.27
707.94	312.24
708.27	311.19
708.61	310.07
708.94	309.08
709.28	308.10
709.61	307.18
709.94	306.27
710.28	305.29
710.61	304.33
710.95	303.22
711.28	302.32
711.61	301.39
711.95	300.42
712.28	299.51
712.61	298.54
712.95	297.64
713.28	296.74
713.61	295.82
713.95	294.92
714.28	294.06
714.61	293.17
714.95	292.33
715.28	291.47
715.61	290.58
715.95	289.72
716.28	288.89
716.61	288.05
716.95	287.20
717.28	286.42
717.61	285.65
717.94	284.98
718.28	284.21
718.61	283.50
718.94	282.84
719.27	282.16
719.61	281.51
719.94	280.82
720.27	280.10
720.60	279.46
720.94	278.84
721.27	278.24
721.60	277.70
721.93	277.08
722.27	276.51
722.60	275.98
722.93	275.42
723.26	274.89
723.59	274.30
723.93	273.74
724.26	273.18
724.59	272.61
724.92	272.05
725.25	271.51
725.59	270.97
725.92	270.50
726.25	269.98
726.58	269.47
726.91	268.98
727.24	268.49
727.57	268.04
727.91	267.50
728.24	267.05
728.57	266.57
728.90	266.14
729.23	265.68
729.56	265.25
729.89	264.74
730.22	264.25
730.55	263.80
730.89	263.36
731.22	262.89
731.55	262.47
731.88	262.00
732.21	261.53
732.54	261.04
732.87	260.59
733.20	260.18
733.53	259.80
733.86	259.42
734.19	259.00
734.52	258.59
734.85	258.29
735.18	257.85
735.51	257.45
735.84	257.07
736.17	256.72
736.50	256.29
736.83	256.07
737.16	255.71
737.49	255.39
737.82	255.05
738.15	254.72
738.48	254.37
738.81	254.08
739.14	253.78
739.47	253.47
739.80	253.12
740.13	252.82
740.46	252.47
740.79	252.12
741.12	251.80
741.45	251.45
741.78	251.10
742.11	250.82
742.44	250.50
742.77	250.18
743.10	249.86
743.43	249.57
743.75	249.19
744.08	249.05
744.41	248.74
744.74	248.48
745.07	248.18
745.40	247.95
745.73	247.68
746.06	247.41
746.39	247.15
746.71	246.91
747.04	246.64
747.37	246.38
747.70	246.13
748.03	245.92
748.36	245.72
748.68	245.49
749.01	245.26
749.34	245.04
749.67	244.81
750.00	244.58
750.33	244.45
750.65	244.27
750.98	243.93
751.31	243.71
751.64	243.50
751.97	243.38
752.29	243.14
752.62	242.87
752.95	242.69
753.28	242.46
753.60	242.25
753.93	242.07
754.26	241.91
754.59	241.73
754.91	241.51
755.24	241.31
755.57	241.12
755.90	240.90
756.22	240.70
756.55	240.53
756.88	240.37
757.20	240.14
757.53	239.90
757.86	239.71
758.19	239.58
758.51	239.41
758.84	239.21
759.17	239.04
759.49	238.91
759.82	238.82
760.15	238.73
760.47	238.59
760.80	238.42
761.13	238.29
761.45	238.11
761.78	237.98
762.11	237.86
762.43	237.71
762.76	237.62
763.08	237.49
763.41	237.36
763.74	237.21
764.06	237.07
764.39	236.98
764.71	236.86
765.04	236.75
765.37	236.61
765.69	236.45
766.02	236.33
766.34	236.22
766.67	236.04
767.00	235.91
767.32	235.85
767.65	235.81
767.97	235.69
768.30	235.61
768.62	235.49
768.95	235.37
769.27	235.26
769.60	235.14
769.92	235.06
770.25	234.92
770.57	234.79
770.90	234.66
771.22	234.53
771.55	234.43
771.87	234.30
772.20	234.20
772.52	234.20
772.85	234.23
773.17	234.12
773.50	234.03
773.82	233.94
774.15	233.77
774.47	233.63
774.80	233.52
775.12	233.44
775.45	233.37
775.77	233.28
776.09	233.21
776.42	233.11
776.74	233.02
777.07	232.93
777.39	232.88
777.72	232.82
778.04	232.75
778.36	232.67
778.69	232.61
779.01	232.55
779.33	232.39
779.66	232.21
779.98	232.14
780.31	232.05
780.63	231.99
780.95	231.95
781.28	231.84
781.60	231.75
781.92	231.66
782.25	231.56
782.57	231.50
782.89	231.41
783.22	231.34
783.54	231.26
783.86	231.25
784.19	231.20
784.51	231.16
784.83	231.10
785.16	231.03
785.48	230.99
785.80	230.94
786.12	230.89
786.45	230.84
786.77	230.79
787.09	230.74
787.42	230.65
787.74	230.61
788.06	230.57
788.38	230.54
788.71	230.49
789.03	230.46
789.35	230.45
789.67	230.43
789.99	230.41
790.32	230.35
790.64	230.29
790.96	230.31
791.28	230.24
791.61	230.19
791.93	230.18
792.25	230.13
792.57	230.15
792.89	230.08
793.21	230.06
793.54	229.98
793.86	229.92
794.18	229.90
794.50	229.87
794.82	229.84
795.14	229.82
795.47	229.82
795.79	229.76
796.11	229.68
796.43	229.64
796.75	229.56
797.07	229.57
797.39	229.54
797.71	229.44
798.04	229.42
798.36	229.42
798.68	229.37
799.00	229.32
799.32	229.25
799.64	229.29
799.96	229.25
800.28	229.29
800.60	229.30
800.92	229.30
801.24	229.26
801.56	229.27
801.89	229.24
802.21	229.20
802.53	229.16
802.85	229.20
803.17	229.22
803.49	229.21
803.81	229.16
804.13	229.11
804.45	229.05
804.77	229.06
805.09	229.03
805.41	229.04
805.73	229.02
806.05	228.96
806.37	228.91
806.69	228.91
807.01	228.88
807.33	228.84
807.65	228.78
807.97	228.81
808.28	228.75
808.60	228.73
808.92	228.68
809.24	228.75
809.56	228.69
809.88	228.65
810.20	228.63
810.52	228.65
810.84	228.66
811.16	228.64
811.48	228.61
811.80	228.60
812.12	228.55
812.43	228.56
812.75	228.51
813.07	228.44
813.39	228.39
813.71	228.36
814.03	228.30
814.35	228.28
814.67	228.19
814.98	228.18
815.30	228.18
815.62	228.14
815.94	228.07
816.26	228.09
816.58	228.05
816.89	228.02
817.21	227.96
817.53	227.94
817.85	227.92
818.17	227.86
818.48	227.80
818.80	227.79
819.12	227.74
819.44	227.76
819.76	227.76
820.07	227.74
820.39	227.72
820.71	227.73
821.03	227.73
821.34	227.72
821.66	227.68
821.98	227.65
822.30	227.66
822.61	227.69
822.93	227.62
823.25	227.61
823.57	227.60
823.88	227.61
824.20	227.59
824.52	227.61
824.83	227.61
825.15	227.59
825.47	227.57
825.79	227.56
826.10	227.52
826.42	227.47
826.74	227.49
827.05	227.45
827.37	227.43
827.69	227.38
828.00	227.37
828.32	227.35
828.64	227.33
828.95	227.35
829.27	227.30
829.58	227.28
829.90	227.25
830.22	227.24
830.53	227.20
830.85	227.17
831.17	227.09
831.48	227.07
831.80	227.07
832.11	227.07
832.43	227.04
832.75	227.02
833.06	227.08
833.38	227.02
833.69	227.02
834.01	227.01
834.32	227.01
834.64	227.00
834.96	227.02
835.27	226.99
835.59	226.94
835.90	226.91
836.22	226.91
836.53	226.89
836.85	226.84
837.16	226.93
837.48	226.94
837.79	226.99
838.11	227.00
838.42	226.99
838.74	226.97
839.05	226.97
839.37	226.95
839.68	226.89
840.00	226.88
840.31	226.93
840.63	226.89
840.94	226.87
841.26	226.83
841.57	226.80
841.88	226.81
842.20	226.82
842.51	226.83
842.83	226.84
843.14	226.91
843.46	226.98
843.77	226.90
844.08	226.88
844.40	226.80
844.71	226.79
845.03	226.76
845.34	226.76
845.65	226.74
845.97	226.76
846.28	226.75
846.60	226.77
846.91	226.73
847.22	226.73
847.54	226.78
847.85	226.82
848.16	226.83
848.48	226.80
848.79	226.82
849.10	226.80
849.42	226.75
849.73	226.70
850.04	226.67
850.36	226.62
850.67	226.66
850.98	226.68
851.30	226.70
851.61	226.70
851.92	226.72
852.23	226.77
852.55	226.75
852.86	226.77
853.17	226.75
853.49	226.77
853.80	226.81
854.11	226.80
854.42	226.80
854.74	226.78
855.05	226.81
855.36	226.73
855.67	226.74
855.99	226.76
856.30	226.83
856.61	226.80
856.92	226.83
857.23	226.79
857.55	226.79
857.86	226.74
858.17	226.76
858.48	226.74
858.79	226.66
859.11	226.68
859.42	226.67
859.73	226.67
860.04	226.64
860.35	226.61
860.66	226.58
860.98	226.54
861.29	226.55
861.60	226.53
861.91	226.52
862.22	226.51
862.53	226.50
862.84	226.41
863.16	226.44
863.47	226.42
863.78	226.43
864.09	226.42
864.40	226.43
864.71	226.43
865.02	226.41
865.33	226.43
865.64	226.41
865.95	226.42
866.27	226.48
866.58	226.47
866.89	226.49
867.20	226.48
867.51	226.45
867.82	226.43
868.13	226.44
868.44	226.46
868.75	226.47
869.06	226.45
869.37	226.44
869.68	226.42
869.99	226.43
870.30	226.42
870.61	226.42
870.92	226.38
871.23	226.34
871.54	226.36
871.85	226.37
872.16	226.38
872.47	226.35
872.78	226.25
873.09	226.23
873.40	226.19
873.71	226.20
874.02	226.23
874.33	226.24
874.64	226.23
874.95	226.22
875.26	226.21
875.56	226.21
875.87	226.17
876.18	226.17
876.49	226.24
876.80	226.22
877.11	226.23
877.42	226.25
877.73	226.27
878.04	226.25
878.35	226.23
878.66	226.21
878.96	226.17
879.27	226.17
879.58	226.20
879.89	226.20
880.20	226.22
880.51	226.22
880.82	226.22
881.12	226.21
881.43	226.20
881.74	226.19
882.05	226.19
882.36	226.20
882.67	226.20
882.97	226.12
883.28	226.12
883.59	226.09
883.90	226.11
884.21	226.13
884.51	226.14
884.82	226.16
885.13	226.17
885.44	226.23
885.74	226.27
886.05	226.26
886.36	226.27
886.67	226.23
886.98	226.26
887.28	226.28
887.59	226.29
887.90	226.29
888.20	226.27
888.51	226.27
888.82	226.26
889.13	226.26
889.43	226.33
889.74	226.32
890.05	226.35
890.35	226.34
890.66	226.33
890.97	226.33
891.28	226.31
891.58	226.30
891.89	226.29
892.20	226.23
892.50	226.23
892.81	226.23
893.12	226.23
893.42	226.19
893.73	226.17
894.04	226.17
894.34	226.21
894.65	226.22
894.95	226.21
895.26	226.24
895.57	226.26
895.87	226.19
896.18	226.21
896.48	226.21
896.79	226.20
897.10	226.19
897.40	226.19
897.71	226.18
898.01	226.19
898.32	226.17
898.63	226.22
898.93	226.24
899.24	226.24
899.54	226.25
899.85	226.28
900.15	226.26
900.46	226.25
900.76	226.22
901.07	226.21
901.38	226.22
901.68	226.21
901.99	226.21
902.29	226.20
902.60	226.19
902.90	226.18
903.21	226.18
903.51	226.19
903.82	226.21
904.12	226.24
904.43	226.24
904.73	226.24
905.03	226.22
905.34	226.30
905.64	226.30
905.95	226.29
906.25	226.29
906.56	226.32
906.86	226.31
907.17	226.36
907.47	226.40
907.77	226.35
908.08	226.34
908.38	226.32
908.69	226.34
908.99	226.34
909.30	226.34
909.60	226.32
909.90	226.32
910.21	226.26
910.51	226.22
910.81	226.22
911.12	226.25
911.42	226.23
911.73	226.10
912.03	226.07
912.33	226.09
912.64	226.06
912.94	226.05
913.24	226.06
913.55	226.01
913.85	225.98
914.15	226.05
914.46	226.06
914.76	226.06
915.06	226.05
915.37	226.04
915.67	226.05
915.97	226.08
916.27	226.04
916.58	226.06
916.88	226.08
917.18	226.04
917.49	226.10
917.79	226.15
918.09	226.18
918.39	226.23
918.70	226.21
919.00	226.18
919.30	226.23
919.60	226.23
919.91	226.20
920.21	226.18
920.51	226.14
920.81	226.14
921.12	226.15
921.42	226.15
921.72	226.19
922.02	226.20
922.32	226.20
922.63	226.20
922.93	226.27
923.23	226.28
923.53	226.31
923.83	226.24
924.13	226.23
924.44	226.23
924.74	226.24
925.04	226.26
925.34	226.27
925.64	226.22
925.94	226.22
926.24	226.33
926.55	226.34
926.85	226.36
927.15	226.36
927.45	226.34
927.75	226.34
928.05	226.32
928.35	226.31
928.65	226.36
928.95	226.38
929.26	226.35
929.56	226.37
929.86	226.38
930.16	226.38
930.46	226.36
930.76	226.38
931.06	226.30
931.36	226.28
931.66	226.34
931.96	226.35
932.26	226.33
932.56	226.25
932.86	226.25
933.16	226.25
933.46	226.25
933.76	226.26
934.06	226.30
934.36	226.34
934.66	226.31
934.96	226.30
935.26	226.32
935.56	226.31
935.86	226.30
936.16	226.28
936.46	226.27
936.76	226.28
937.06	226.27
937.36	226.28
937.66	226.29
937.96	226.27
938.26	226.26
938.56	226.29
938.86	226.30
939.16	226.31
939.46	226.32
939.76	226.33
940.06	226.31
940.35	226.26
940.65	226.19
940.95	226.23
941.25	226.15
941.55	226.12
941.85	226.09
942.15	226.11
942.45	226.14
942.75	226.13
943.04	226.11
943.34	226.14
943.64	226.14
943.94	226.11
944.24	226.08
944.54	226.09
944.84	226.07
945.13	226.03
945.43	226.01
945.73	226.02
946.03	225.97
946.33	225.99
946.62	225.97
946.92	225.99
947.22	225.95
947.52	225.98
947.82	225.98
948.11	225.98
948.41	225.93
948.71	225.88
949.01	225.88
949.31	225.85
949.60	225.82
949.90	225.84
950.20	225.83
950.50	225.85
950.79	225.83
951.09	225.84
951.39	225.86
951.69	225.84
951.98	225.88
952.28	225.86
952.58	225.83
952.87	225.81
953.17	225.81
953.47	225.76
953.76	225.74
954.06	225.75
954.36	225.70
954.66	225.70
954.95	225.73
955.25	225.74
955.55	225.74
955.84	225.72
956.14	225.71
956.44	225.74
956.73	225.74
957.03	225.75
957.32	225.75
957.62	225.75
957.92	225.81
958.21	225.76
958.51	225.91
958.81	225.91
959.10	225.94
959.40	225.94
959.69	225.98
959.99	226.02
960.29	226.02
960.58	226.04
960.88	226.08
961.17	226.07
961.47	226.08
961.76	226.09
962.06	226.10
962.36	226.09
962.65	226.08
962.95	226.07
963.24	226.09
963.54	226.08
963.83	226.08
964.13	226.07
964.42	226.05
964.72	225.96
965.01	225.97
965.31	225.98
965.60	225.99
965.90	226.08
966.19	226.06
966.49	226.06
966.78	226.09
967.08	226.09
967.37	226.10
967.67	226.08
967.96	226.09
968.26	226.10
968.55	226.09
968.85	226.09
969.14	226.07
969.43	226.05
969.73	226.05
970.02	226.03
970.32	226.01
970.61	226.03
970.91	226.02
971.20	226.01
971.49	226.01
971.79	226.01
972.08	225.94
972.38	225.94
972.67	225.94
972.96	225.94
973.26	225.92
973.55	225.96
973.85	225.98
974.14	225.99
974.43	226.02
974.73	226.05
975.02	226.04
975.31	226.06
975.61	226.04
975.90	226.04
976.19	226.05
976.49	226.03
976.78	226.06
977.07	226.05
977.37	226.05
977.66	226.02
977.95	226.03
978.24	226.03
978.54	226.05
978.83	226.02
979.12	226.00
979.42	226.01
979.71	225.98
980.00	225.96
980.29	225.96
980.59	225.90
980.88	225.91
981.17	225.92
981.46	225.91
981.76	225.91
982.05	225.94
982.34	225.98
982.63	225.98
982.93	225.94
983.22	225.95
983.51	225.95
983.80	225.97
984.09	225.97
984.39	225.98
984.68	225.94
984.97	225.93
985.26	225.90
985.55	225.91
985.85	225.87
986.14	225.88
986.43	225.87
986.72	225.88
987.01	225.85
987.30	225.81
987.59	225.81
987.89	225.81
988.18	225.78
988.47	225.74
988.76	225.75
989.05	225.75
989.34	225.73
989.63	225.76
989.92	225.78
990.22	225.76
990.51	225.73
990.80	225.73
991.09	225.75
991.38	225.78
991.67	225.78
991.96	225.75
992.25	225.78
992.54	225.77
992.83	225.82
993.12	225.81
993.41	225.87
993.70	225.90
993.99	225.93
994.28	225.96
994.58	225.98
994.87	225.96
995.16	225.94
995.45	225.95
995.74	225.91
996.03	225.90
996.32	225.92
996.61	225.95
996.90	225.97
997.19	225.97
997.48	225.98
997.77	225.97
998.06	225.99
998.34	225.96
998.63	225.95
998.92	225.94
999.21	225.96
999.50	225.94
999.79	225.92
1000.08	225.93
1000.37	225.93
1000.66	225.89
1000.95	225.93
1001.24	225.95
1001.53	226.03
1001.82	226.04
1002.11	226.02
1002.40	226.07
1002.68	226.09
1002.97	226.15
1003.26	226.14
1003.55	226.10
1003.84	226.10
1004.13	226.14
1004.42	226.15
1004.71	226.16
1004.99	226.16
1005.28	226.21
1005.57	226.19
1005.86	226.19
1006.15	226.20
1006.44	226.18
1006.72	226.25
1007.01	226.23
1007.30	226.22
1007.59	226.18
1007.88	226.14
1008.17	226.16
1008.45	226.11
1008.74	226.07
1009.03	226.01
1009.32	226.00
1009.60	226.00
1009.89	226.05
1010.18	226.00
1010.47	225.99
1010.76	226.00
1011.04	225.99
1011.33	225.97
1011.62	225.96
1011.91	225.96
1012.19	225.92
1012.48	225.92
1012.77	225.87
1013.05	225.91
1013.34	225.91
1013.63	225.90
1013.92	225.92
1014.20	225.90
1014.49	225.88
1014.78	225.90
1015.06	225.88
1015.35	225.88
1015.64	225.90
1015.92	225.88
1016.21	225.91
1016.50	225.92
1016.78	225.93
1017.07	225.93
1017.36	225.90
1017.64	225.90
1017.93	225.90
1018.22	225.90
1018.50	225.89
1018.79	225.90
1019.08	225.84
1019.36	225.83
1019.65	225.83
1019.93	225.87
1020.22	225.89
1020.51	225.94
1020.79	225.88
1021.08	225.69
1021.36	225.59
1021.65	225.79
1021.94	225.49
1022.22	225.66
1022.51	225.89
1022.79	226.63
1023.08	226.01
1023.36	226.97
1023.65	224.80
>>>>>End Processed Spectral Data<<<<<
