SpectraSuite Data File
++++++++++++++++++++++++++++++++++++
Date: Fri Feb 01 15:11:27 EST 2013
User: group
Dark Spectrum Present: No
Reference Spectrum Present: No
Number of Sampled Component Spectra: 1
Spectrometers: USB2E7196
Integration Time (usec): 35000 (USB2E7196)
Spectra Averaged: 100 (USB2E7196)
Boxcar Smoothing: 10 (USB2E7196)
Correct for Electrical Dark: No (USB2E7196)
Strobe/Lamp Enabled: No (USB2E7196)
Correct for Detector Non-linearity: No (USB2E7196)
Correct for Stray Light: No (USB2E7196)
Number of Pixels in Processed Spectrum: 2048
>>>>>Begin Processed Spectral Data<<<<<
339.09	0.00
339.48	215.46
339.86	216.35
340.24	218.00
340.63	219.30
341.01	222.28
341.39	221.81
341.78	223.56
342.16	224.62
342.54	225.20
342.93	213.50
343.31	224.27
343.69	224.81
344.07	225.28
344.46	225.71
344.84	226.10
345.22	226.35
345.60	226.62
345.99	226.81
346.37	226.93
346.75	227.03
347.13	227.09
347.52	227.14
347.90	227.20
348.28	227.25
348.66	227.31
349.05	227.31
349.43	227.37
349.81	227.46
350.19	227.47
350.57	227.57
350.96	227.63
351.34	227.72
351.72	227.81
352.10	227.94
352.48	227.98
352.87	228.07
353.25	228.14
353.63	228.23
354.01	228.28
354.39	228.36
354.77	228.46
355.15	228.51
355.54	228.59
355.92	228.64
356.30	228.72
356.68	228.83
357.06	228.92
357.44	228.97
357.82	229.00
358.20	229.08
358.58	229.12
358.97	229.21
359.35	229.32
359.73	229.38
360.11	229.41
360.49	229.49
360.87	229.52
361.25	229.57
361.63	229.61
362.01	229.68
362.39	229.72
362.77	229.75
363.15	229.80
363.53	229.81
363.91	229.83
364.29	229.83
364.67	229.74
365.05	229.73
365.43	229.76
365.81	229.79
366.19	229.83
366.57	229.91
366.95	229.85
367.33	229.76
367.71	229.74
368.09	229.73
368.47	229.70
368.85	229.68
369.23	229.65
369.61	229.58
369.99	229.58
370.37	229.53
370.75	229.51
371.13	229.45
371.51	229.41
371.89	229.38
372.27	229.37
372.65	229.30
373.03	229.25
373.41	229.19
373.78	229.11
374.16	228.98
374.54	228.85
374.92	228.79
375.30	228.71
375.68	228.64
376.06	228.55
376.44	228.49
376.82	228.40
377.19	228.32
377.57	228.23
377.95	228.08
378.33	227.99
378.71	227.87
379.09	227.78
379.47	227.71
379.84	227.61
380.22	227.49
380.60	227.44
380.98	227.32
381.36	227.24
381.73	227.15
382.11	227.12
382.49	227.04
382.87	226.98
383.25	226.93
383.62	226.93
384.00	226.86
384.38	226.79
384.76	226.76
385.13	226.71
385.51	226.65
385.89	226.61
386.27	226.60
386.64	226.54
387.02	226.50
387.40	226.42
387.78	226.38
388.15	226.34
388.53	226.29
388.91	226.30
389.29	226.25
389.66	226.23
390.04	226.19
390.42	226.21
390.79	226.22
391.17	226.19
391.55	226.11
391.92	226.15
392.30	226.15
392.68	226.11
393.05	226.11
393.43	226.14
393.81	226.14
394.18	226.11
394.56	226.17
394.94	226.21
395.31	226.25
395.69	226.31
396.06	226.35
396.44	226.40
396.82	226.42
397.19	226.51
397.57	226.57
397.95	226.61
398.32	226.64
398.70	226.70
399.07	226.80
399.45	226.87
399.82	226.93
400.20	227.00
400.58	227.10
400.95	227.18
401.33	227.29
401.70	227.46
402.08	227.56
402.45	227.67
402.83	227.80
403.20	227.90
403.58	228.01
403.95	228.15
404.33	228.28
404.71	228.40
405.08	228.60
405.46	228.75
405.83	228.95
406.21	229.06
406.58	229.25
406.96	229.42
407.33	229.58
407.70	229.81
408.08	230.07
408.45	230.31
408.83	230.54
409.20	230.74
409.58	230.94
409.95	231.22
410.33	231.50
410.70	231.77
411.08	232.09
411.45	232.41
411.82	232.71
412.20	233.12
412.57	233.55
412.95	233.79
413.32	234.18
413.69	234.55
414.07	234.99
414.44	235.43
414.82	235.87
415.19	236.43
415.56	236.96
415.94	237.50
416.31	238.12
416.68	238.75
417.06	239.47
417.43	240.15
417.81	240.93
418.18	241.66
418.55	242.52
418.93	243.38
419.30	244.27
419.67	245.21
420.04	246.16
420.42	247.15
420.79	248.37
421.16	249.55
421.54	250.76
421.91	252.04
422.28	253.30
422.66	254.67
423.03	256.00
423.40	257.29
423.77	258.67
424.15	260.13
424.52	261.66
424.89	263.30
425.26	264.85
425.64	266.29
426.01	267.88
426.38	269.51
426.75	271.20
427.13	272.94
427.50	274.82
427.87	276.66
428.24	278.51
428.61	280.25
428.99	282.16
429.36	284.26
429.73	286.33
430.10	288.36
430.47	290.42
430.85	292.50
431.22	294.81
431.59	297.23
431.96	299.47
432.33	301.91
432.70	304.23
433.08	307.06
433.45	309.73
433.82	312.40
434.19	315.32
434.56	318.15
434.93	320.81
435.30	323.42
435.68	326.34
436.05	329.19
436.42	332.04
436.79	334.62
437.16	337.34
437.53	340.18
437.90	343.02
438.27	345.77
438.64	348.64
439.01	351.24
439.38	353.45
439.75	355.66
440.13	358.17
440.50	360.57
440.87	362.40
441.24	364.35
441.61	366.50
441.98	367.99
442.35	369.79
442.72	371.68
443.09	373.47
443.46	374.49
443.83	375.08
444.20	375.58
444.57	376.40
444.94	376.67
445.31	376.99
445.68	377.31
446.05	377.39
446.42	377.01
446.79	376.65
447.16	376.24
447.53	375.89
447.90	374.78
448.27	373.60
448.64	372.03
449.01	370.90
449.37	368.91
449.74	367.01
450.11	364.74
450.48	362.24
450.85	359.66
451.22	357.49
451.59	355.48
451.96	353.52
452.33	350.92
452.70	348.61
453.07	345.76
453.43	342.85
453.80	340.12
454.17	337.44
454.54	334.81
454.91	332.09
455.28	329.39
455.65	326.89
456.02	324.41
456.38	322.26
456.75	319.59
457.12	317.35
457.49	315.13
457.86	312.97
458.23	311.10
458.59	309.07
458.96	306.98
459.33	305.09
459.70	303.19
460.07	301.67
460.43	299.91
460.80	298.32
461.17	296.86
461.54	295.32
461.91	293.86
462.27	292.39
462.64	291.15
463.01	289.82
463.38	288.50
463.74	287.11
464.11	285.94
464.48	284.90
464.85	283.73
465.21	282.86
465.58	281.89
465.95	280.77
466.32	279.84
466.68	278.91
467.05	278.03
467.42	277.13
467.78	276.19
468.15	275.31
468.52	274.59
468.88	273.73
469.25	272.94
469.62	272.29
469.98	271.64
470.35	270.96
470.72	270.30
471.08	269.60
471.45	269.07
471.82	268.49
472.18	267.87
472.55	267.44
472.92	266.86
473.28	266.39
473.65	265.97
474.02	265.53
474.38	265.16
474.75	264.81
475.11	264.48
475.48	264.19
475.85	263.94
476.21	263.69
476.58	263.50
476.94	263.36
477.31	263.21
477.67	263.01
478.04	262.88
478.41	262.83
478.77	262.88
479.14	262.81
479.50	262.82
479.87	262.90
480.23	262.97
480.60	263.06
480.96	263.18
481.33	263.36
481.69	263.53
482.06	263.72
482.42	263.90
482.79	264.15
483.15	264.49
483.52	264.87
483.88	265.28
484.25	265.70
484.61	266.10
484.98	266.53
485.34	267.12
485.71	267.75
486.07	268.40
486.44	268.96
486.80	269.65
487.17	270.38
487.53	271.19
487.90	272.04
488.26	272.95
488.62	273.95
488.99	274.91
489.35	276.00
489.72	277.14
490.08	278.40
490.44	279.63
490.81	280.95
491.17	282.32
491.54	283.76
491.90	285.27
492.26	286.94
492.63	288.65
492.99	290.44
493.36	292.29
493.72	294.29
494.08	296.40
494.45	298.67
494.81	301.03
495.17	303.44
495.54	305.97
495.90	308.64
496.26	311.44
496.63	314.42
496.99	317.53
497.35	320.80
497.72	324.12
498.08	327.66
498.44	331.29
498.80	335.18
499.17	339.19
499.53	343.34
499.89	347.70
500.26	352.26
500.62	356.90
500.98	361.87
501.34	366.93
501.71	372.23
502.07	377.67
502.43	383.23
502.79	389.04
503.16	395.16
503.52	401.39
503.88	407.75
504.24	414.39
504.60	421.25
504.97	428.29
505.33	435.63
505.69	443.34
506.05	451.13
506.41	458.97
506.78	467.08
507.14	475.55
507.50	484.25
507.86	493.22
508.22	502.37
508.59	511.53
508.95	521.09
509.31	530.90
509.67	541.00
510.03	551.28
510.39	561.81
510.75	572.59
511.12	583.55
511.48	594.85
511.84	606.30
512.20	617.76
512.56	629.68
512.92	641.86
513.28	654.19
513.64	666.65
514.00	679.36
514.37	692.40
514.73	705.43
515.09	718.44
515.45	731.75
515.81	745.46
516.17	759.48
516.53	773.56
516.89	787.75
517.25	801.97
517.61	816.43
517.97	830.95
518.33	845.46
518.69	860.22
519.05	875.28
519.41	890.42
519.77	906.01
520.13	921.57
520.49	936.99
520.85	952.36
521.21	968.12
521.57	984.45
521.93	1000.22
522.29	1016.67
522.65	1032.95
523.01	1049.24
523.37	1065.26
523.73	1081.54
524.09	1097.71
524.45	1114.07
524.81	1130.74
525.17	1147.59
525.53	1164.51
525.89	1181.31
526.25	1198.21
526.61	1214.67
526.97	1231.44
527.33	1247.97
527.68	1264.71
528.04	1281.17
528.40	1297.91
528.76	1315.02
529.12	1331.67
529.48	1348.68
529.84	1364.80
530.20	1381.52
530.56	1398.73
530.91	1416.19
531.27	1433.02
531.63	1449.68
531.99	1466.35
532.35	1482.39
532.71	1498.42
533.07	1514.88
533.42	1530.95
533.78	1547.10
534.14	1563.39
534.50	1578.83
534.86	1594.78
535.21	1609.95
535.57	1626.12
535.93	1641.71
536.29	1656.62
536.65	1671.93
537.00	1686.69
537.36	1702.08
537.72	1716.78
538.08	1731.09
538.44	1745.02
538.79	1758.94
539.15	1772.73
539.51	1786.57
539.87	1801.09
540.22	1814.86
540.58	1828.68
540.94	1842.13
541.29	1855.18
541.65	1867.97
542.01	1881.34
542.37	1893.73
542.72	1906.31
543.08	1918.13
543.44	1930.54
543.79	1941.78
544.15	1952.66
544.51	1964.31
544.87	1975.37
545.22	1985.98
545.58	1996.20
545.94	2006.06
546.29	2015.97
546.65	2025.76
547.01	2035.02
547.36	2043.76
547.72	2052.16
548.07	2059.89
548.43	2068.12
548.79	2076.18
549.14	2083.71
549.50	2091.13
549.86	2098.92
550.21	2106.30
550.57	2113.39
550.92	2120.06
551.28	2127.23
551.64	2134.31
551.99	2140.96
552.35	2147.12
552.70	2153.48
553.06	2159.55
553.41	2165.83
553.77	2171.87
554.13	2177.99
554.48	2184.12
554.84	2189.36
555.19	2194.87
555.55	2200.01
555.90	2204.35
556.26	2209.13
556.61	2213.94
556.97	2218.06
557.32	2222.18
557.68	2226.34
558.03	2230.61
558.39	2234.30
558.74	2238.91
559.10	2242.74
559.45	2246.22
559.81	2250.56
560.16	2254.26
560.52	2257.47
560.87	2260.87
561.23	2263.45
561.58	2266.40
561.94	2268.78
562.29	2271.28
562.64	2273.89
563.00	2276.46
563.35	2279.99
563.71	2283.05
564.06	2286.18
564.42	2288.91
564.77	2291.28
565.12	2293.25
565.48	2295.17
565.83	2296.81
566.19	2297.91
566.54	2298.87
566.89	2300.02
567.25	2300.39
567.60	2301.72
567.96	2303.30
568.31	2304.16
568.66	2305.29
569.02	2305.77
569.37	2306.17
569.72	2306.91
570.08	2306.79
570.43	2306.69
570.78	2305.86
571.14	2304.33
571.49	2302.95
571.84	2302.71
572.20	2301.51
572.55	2300.51
572.90	2298.92
573.26	2297.59
573.61	2295.91
573.96	2293.92
574.31	2290.77
574.67	2287.71
575.02	2284.03
575.37	2280.52
575.72	2276.53
576.08	2273.00
576.43	2269.53
576.78	2265.68
577.13	2262.31
577.49	2259.32
577.84	2255.83
578.19	2252.09
578.54	2248.19
578.90	2243.78
579.25	2238.14
579.60	2233.14
579.95	2227.95
580.30	2222.71
580.66	2217.40
581.01	2212.36
581.36	2207.28
581.71	2203.03
582.06	2198.39
582.42	2193.70
582.77	2188.37
583.12	2183.62
583.47	2178.78
583.82	2173.66
584.17	2168.38
584.53	2162.81
584.88	2156.93
585.23	2150.98
585.58	2145.51
585.93	2139.95
586.28	2135.06
586.63	2129.81
586.98	2124.65
587.34	2119.89
587.69	2115.05
588.04	2109.73
588.39	2103.90
588.74	2097.48
589.09	2091.32
589.44	2084.41
589.79	2078.41
590.14	2072.78
590.49	2066.18
590.84	2059.70
591.19	2053.61
591.54	2047.03
591.89	2039.53
592.25	2032.74
592.60	2025.59
592.95	2017.88
593.30	2010.45
593.65	2002.83
594.00	1995.78
594.35	1988.27
594.70	1980.05
595.05	1972.66
595.40	1965.25
595.75	1957.76
596.10	1951.29
596.45	1944.27
596.80	1938.09
597.15	1931.26
597.50	1924.05
597.85	1917.58
598.19	1910.87
598.54	1903.67
598.89	1897.00
599.24	1891.00
599.59	1884.13
599.94	1877.92
600.29	1871.62
600.64	1865.07
600.99	1857.53
601.34	1850.47
601.69	1843.54
602.04	1836.65
602.39	1829.22
602.74	1822.16
603.08	1815.31
603.43	1808.62
603.78	1801.52
604.13	1794.32
604.48	1786.94
604.83	1780.12
605.18	1772.90
605.53	1764.73
605.87	1756.78
606.22	1749.55
606.57	1741.74
606.92	1734.50
607.27	1727.09
607.62	1720.05
607.96	1712.67
608.31	1705.98
608.66	1698.42
609.01	1690.90
609.36	1683.44
609.70	1675.48
610.05	1667.52
610.40	1659.94
610.75	1651.69
611.10	1643.95
611.44	1635.67
611.79	1627.84
612.14	1619.07
612.49	1610.12
612.83	1601.90
613.18	1593.75
613.53	1585.56
613.88	1576.98
614.22	1568.71
614.57	1560.27
614.92	1552.26
615.27	1544.63
615.61	1536.42
615.96	1528.54
616.31	1520.98
616.65	1513.48
617.00	1505.92
617.35	1498.41
617.70	1489.94
618.04	1481.26
618.39	1472.95
618.74	1465.25
619.08	1456.90
619.43	1449.36
619.78	1442.41
620.12	1435.17
620.47	1427.60
620.82	1419.60
621.16	1412.27
621.51	1404.75
621.85	1397.10
622.20	1388.55
622.55	1380.36
622.89	1372.50
623.24	1364.82
623.59	1357.38
623.93	1349.92
624.28	1342.71
624.62	1335.13
624.97	1327.98
625.32	1321.36
625.66	1314.38
626.01	1307.14
626.35	1299.72
626.70	1291.95
627.04	1284.10
627.39	1276.44
627.73	1269.06
628.08	1262.07
628.43	1254.69
628.77	1247.23
629.12	1239.68
629.46	1232.52
629.81	1225.14
630.15	1217.88
630.50	1210.59
630.84	1202.36
631.19	1194.57
631.53	1187.04
631.88	1179.48
632.22	1171.88
632.57	1164.63
632.91	1157.13
633.26	1149.84
633.60	1142.57
633.95	1135.54
634.29	1128.65
634.64	1121.99
634.98	1114.64
635.32	1107.45
635.67	1100.95
636.01	1094.27
636.36	1087.40
636.70	1081.03
637.05	1074.43
637.39	1068.05
637.73	1061.49
638.08	1055.73
638.42	1049.67
638.77	1043.27
639.11	1036.66
639.45	1030.31
639.80	1023.60
640.14	1017.18
640.49	1010.58
640.83	1004.24
641.17	997.95
641.52	991.67
641.86	985.27
642.20	979.54
642.55	973.35
642.89	966.79
643.23	960.41
643.58	954.66
643.92	948.42
644.26	942.33
644.61	936.38
644.95	930.34
645.29	923.72
645.64	917.00
645.98	910.71
646.32	904.97
646.66	899.06
647.01	893.33
647.35	887.69
647.69	881.91
648.04	876.47
648.38	870.79
648.72	864.77
649.06	858.68
649.41	852.67
649.75	846.61
650.09	840.71
650.43	834.90
650.78	828.81
651.12	822.79
651.46	817.09
651.80	811.25
652.14	805.85
652.49	800.55
652.83	795.33
653.17	789.60
653.51	783.85
653.85	778.47
654.20	772.82
654.54	766.76
654.88	761.05
655.22	755.09
655.56	749.39
655.90	743.88
656.25	738.59
656.59	733.34
656.93	728.23
657.27	723.00
657.61	717.47
657.95	712.39
658.29	707.36
658.64	702.18
658.98	696.92
659.32	691.49
659.66	686.25
660.00	680.92
660.34	676.07
660.68	671.16
661.02	666.09
661.36	661.36
661.70	656.90
662.05	652.54
662.39	648.18
662.73	643.69
663.07	639.39
663.41	635.03
663.75	630.48
664.09	626.00
664.43	621.72
664.77	617.72
665.11	613.48
665.45	609.40
665.79	605.34
666.13	601.22
666.47	597.11
666.81	592.96
667.15	588.90
667.49	584.98
667.83	581.25
668.17	577.31
668.51	573.28
668.85	569.27
669.19	565.44
669.53	561.69
669.87	557.84
670.21	554.15
670.55	550.49
670.89	547.15
671.23	543.69
671.57	540.20
671.91	536.63
672.25	533.11
672.58	529.56
672.92	526.16
673.26	523.03
673.60	519.93
673.94	516.81
674.28	513.94
674.62	510.99
674.96	507.81
675.30	504.95
675.64	501.99
675.97	499.25
676.31	496.40
676.65	493.52
676.99	490.77
677.33	487.95
677.67	485.14
678.01	482.10
678.34	479.17
678.68	476.33
679.02	473.54
679.36	470.86
679.70	468.17
680.04	465.40
680.37	462.56
680.71	459.82
681.05	457.19
681.39	454.48
681.73	451.86
682.06	449.37
682.40	446.78
682.74	444.31
683.08	441.80
683.42	439.23
683.75	436.71
684.09	434.20
684.43	431.77
684.77	429.34
685.10	427.06
685.44	424.75
685.78	422.44
686.12	420.26
686.45	417.96
686.79	415.70
687.13	413.51
687.46	411.36
687.80	409.18
688.14	407.00
688.48	404.95
688.81	402.70
689.15	400.54
689.49	398.43
689.82	396.34
690.16	394.25
690.50	392.27
690.83	390.34
691.17	388.46
691.51	386.54
691.84	384.71
692.18	382.75
692.52	380.80
692.85	378.91
693.19	376.99
693.52	375.19
693.86	373.41
694.20	371.67
694.53	369.82
694.87	367.99
695.21	366.20
695.54	364.42
695.88	362.67
696.21	360.96
696.55	359.28
696.88	357.62
697.22	355.98
697.56	354.40
697.89	352.73
698.23	351.11
698.56	349.46
698.90	347.84
699.23	346.21
699.57	344.68
699.90	343.17
700.24	341.61
700.58	340.07
700.91	338.58
701.25	337.12
701.58	335.78
701.92	334.44
702.25	333.08
702.59	331.68
702.92	330.40
703.26	329.12
703.59	327.88
703.93	326.69
704.26	325.47
704.60	324.15
704.93	322.91
705.26	321.66
705.60	320.51
705.93	319.37
706.27	318.36
706.60	317.31
706.94	316.23
707.27	315.12
707.61	314.06
707.94	313.01
708.27	311.89
708.61	310.81
708.94	309.82
709.28	308.84
709.61	307.87
709.94	306.89
710.28	305.90
710.61	304.93
710.95	303.84
711.28	302.88
711.61	301.97
711.95	301.05
712.28	300.13
712.61	299.14
712.95	298.23
713.28	297.29
713.61	296.34
713.95	295.49
714.28	294.65
714.61	293.77
714.95	292.95
715.28	292.11
715.61	291.24
715.95	290.37
716.28	289.58
716.61	288.77
716.95	288.00
717.28	287.28
717.61	286.50
717.94	285.77
718.28	285.04
718.61	284.30
718.94	283.58
719.27	282.92
719.61	282.32
719.94	281.70
720.27	281.01
720.60	280.36
720.94	279.69
721.27	279.07
721.60	278.53
721.93	277.91
722.27	277.39
722.60	276.84
722.93	276.28
723.26	275.74
723.59	275.18
723.93	274.61
724.26	274.01
724.59	273.46
724.92	272.97
725.25	272.46
725.59	271.93
725.92	271.44
726.25	270.93
726.58	270.40
726.91	269.87
727.24	269.42
727.57	268.98
727.91	268.48
728.24	268.05
728.57	267.55
728.90	267.08
729.23	266.59
729.56	266.16
729.89	265.69
730.22	265.14
730.55	264.67
730.89	264.25
731.22	263.82
731.55	263.34
731.88	262.89
732.21	262.46
732.54	262.04
732.87	261.59
733.20	261.16
733.53	260.80
733.86	260.43
734.19	260.02
734.52	259.64
734.85	259.33
735.18	258.89
735.51	258.54
735.84	258.18
736.17	257.81
736.50	257.39
736.83	257.15
737.16	256.84
737.49	256.50
737.82	256.15
738.15	255.83
738.48	255.53
738.81	255.21
739.14	254.86
739.47	254.52
739.80	254.23
740.13	253.92
740.46	253.56
740.79	253.23
741.12	252.93
741.45	252.61
741.78	252.27
742.11	251.98
742.44	251.64
742.77	251.35
743.10	251.04
743.43	250.77
743.75	250.39
744.08	250.26
744.41	250.00
744.74	249.69
745.07	249.40
745.40	249.11
745.73	248.89
746.06	248.64
746.39	248.37
746.71	248.11
747.04	247.87
747.37	247.63
747.70	247.38
748.03	247.13
748.36	246.88
748.68	246.64
749.01	246.40
749.34	246.22
749.67	245.99
750.00	245.78
750.33	245.61
750.65	245.39
750.98	245.05
751.31	244.83
751.64	244.67
751.97	244.52
752.29	244.32
752.62	244.07
752.95	243.85
753.28	243.64
753.60	243.44
753.93	243.24
754.26	243.06
754.59	242.81
754.91	242.63
755.24	242.45
755.57	242.27
755.90	242.09
756.22	241.87
756.55	241.66
756.88	241.50
757.20	241.29
757.53	241.09
757.86	240.92
758.19	240.77
758.51	240.59
758.84	240.40
759.17	240.25
759.49	240.08
759.82	239.99
760.15	239.84
760.47	239.69
760.80	239.51
761.13	239.39
761.45	239.23
761.78	239.07
762.11	238.93
762.43	238.75
762.76	238.62
763.08	238.50
763.41	238.40
763.74	238.25
764.06	238.08
764.39	237.96
764.71	237.82
765.04	237.68
765.37	237.53
765.69	237.42
766.02	237.28
766.34	237.17
766.67	236.99
767.00	236.89
767.32	236.82
767.65	236.78
767.97	236.64
768.30	236.56
768.62	236.45
768.95	236.30
769.27	236.18
769.60	236.08
769.92	235.96
770.25	235.82
770.57	235.68
770.90	235.60
771.22	235.49
771.55	235.40
771.87	235.29
772.20	235.17
772.52	235.14
772.85	235.16
773.17	235.07
773.50	234.99
773.82	234.87
774.15	234.73
774.47	234.57
774.80	234.48
775.12	234.39
775.45	234.29
775.77	234.23
776.09	234.15
776.42	234.06
776.74	233.99
777.07	233.91
777.39	233.87
777.72	233.76
778.04	233.71
778.36	233.64
778.69	233.58
779.01	233.54
779.33	233.37
779.66	233.19
779.98	233.09
780.31	233.00
780.63	232.99
780.95	232.95
781.28	232.89
781.60	232.82
781.92	232.73
782.25	232.68
782.57	232.63
782.89	232.61
783.22	232.54
783.54	232.45
783.86	232.40
784.19	232.32
784.51	232.30
784.83	232.21
785.16	232.15
785.48	232.11
785.80	232.05
786.12	232.01
786.45	231.98
786.77	231.96
787.09	231.96
787.42	231.88
787.74	231.82
788.06	231.78
788.38	231.76
788.71	231.75
789.03	231.69
789.35	231.67
789.67	231.63
789.99	231.61
790.32	231.56
790.64	231.57
790.96	231.63
791.28	231.59
791.61	231.55
791.93	231.51
792.25	231.47
792.57	231.48
792.89	231.44
793.21	231.35
793.54	231.29
793.86	231.22
794.18	231.19
794.50	231.16
794.82	231.13
795.14	231.10
795.47	231.07
795.79	231.05
796.11	230.99
796.43	230.93
796.75	230.88
797.07	230.85
797.39	230.78
797.71	230.65
798.04	230.60
798.36	230.58
798.68	230.54
799.00	230.50
799.32	230.44
799.64	230.42
799.96	230.38
800.28	230.37
800.60	230.34
800.92	230.31
801.24	230.25
801.56	230.20
801.89	230.14
802.21	230.13
802.53	230.09
802.85	230.06
803.17	230.07
803.49	230.02
803.81	230.00
804.13	229.97
804.45	229.95
804.77	229.93
805.09	229.89
805.41	229.87
805.73	229.85
806.05	229.82
806.37	229.79
806.69	229.81
807.01	229.77
807.33	229.73
807.65	229.65
807.97	229.64
808.28	229.62
808.60	229.61
808.92	229.54
809.24	229.58
809.56	229.52
809.88	229.45
810.20	229.41
810.52	229.42
810.84	229.36
811.16	229.30
811.48	229.26
811.80	229.25
812.12	229.20
812.43	229.16
812.75	229.11
813.07	229.08
813.39	229.05
813.71	229.01
814.03	228.98
814.35	228.97
814.67	228.93
814.98	228.88
815.30	228.85
815.62	228.80
815.94	228.68
816.26	228.74
816.58	228.74
816.89	228.75
817.21	228.69
817.53	228.68
817.85	228.68
818.17	228.67
818.48	228.64
818.80	228.65
819.12	228.63
819.44	228.62
819.76	228.54
820.07	228.50
820.39	228.49
820.71	228.50
821.03	228.52
821.34	228.51
821.66	228.51
821.98	228.50
822.30	228.48
822.61	228.53
822.93	228.44
823.25	228.41
823.57	228.41
823.88	228.45
824.20	228.45
824.52	228.46
824.83	228.41
825.15	228.38
825.47	228.36
825.79	228.37
826.10	228.34
826.42	228.37
826.74	228.41
827.05	228.40
827.37	228.37
827.69	228.33
828.00	228.34
828.32	228.33
828.64	228.32
828.95	228.40
829.27	228.36
829.58	228.39
829.90	228.40
830.22	228.41
830.53	228.33
830.85	228.32
831.17	228.28
831.48	228.32
831.80	228.32
832.11	228.32
832.43	228.29
832.75	228.28
833.06	228.34
833.38	228.29
833.69	228.33
834.01	228.34
834.32	228.36
834.64	228.34
834.96	228.34
835.27	228.35
835.59	228.28
835.90	228.28
836.22	228.27
836.53	228.27
836.85	228.21
837.16	228.33
837.48	228.30
837.79	228.32
838.11	228.30
838.42	228.27
838.74	228.29
839.05	228.27
839.37	228.26
839.68	228.20
840.00	228.18
840.31	228.15
840.63	228.13
840.94	228.08
841.26	228.04
841.57	228.03
841.88	228.02
842.20	228.06
842.51	228.03
842.83	228.01
843.14	228.04
843.46	228.03
843.77	227.96
844.08	228.00
844.40	227.97
844.71	227.99
845.03	227.99
845.34	227.92
845.65	227.93
845.97	227.93
846.28	227.89
846.60	227.92
846.91	227.89
847.22	227.89
847.54	227.89
847.85	227.90
848.16	227.89
848.48	227.84
848.79	227.83
849.10	227.83
849.42	227.82
849.73	227.73
850.04	227.73
850.36	227.69
850.67	227.65
850.98	227.66
851.30	227.62
851.61	227.61
851.92	227.65
852.23	227.63
852.55	227.61
852.86	227.61
853.17	227.57
853.49	227.60
853.80	227.57
854.11	227.55
854.42	227.56
854.74	227.54
855.05	227.51
855.36	227.41
855.67	227.36
855.99	227.37
856.30	227.50
856.61	227.49
856.92	227.47
857.23	227.46
857.55	227.42
857.86	227.41
858.17	227.40
858.48	227.37
858.79	227.40
859.11	227.40
859.42	227.42
859.73	227.40
860.04	227.40
860.35	227.42
860.66	227.43
860.98	227.41
861.29	227.41
861.60	227.44
861.91	227.48
862.22	227.52
862.53	227.50
862.84	227.38
863.16	227.41
863.47	227.43
863.78	227.41
864.09	227.46
864.40	227.45
864.71	227.45
865.02	227.45
865.33	227.43
865.64	227.42
865.95	227.41
866.27	227.47
866.58	227.46
866.89	227.44
867.20	227.44
867.51	227.42
867.82	227.44
868.13	227.46
868.44	227.45
868.75	227.45
869.06	227.45
869.37	227.47
869.68	227.44
869.99	227.44
870.30	227.46
870.61	227.46
870.92	227.44
871.23	227.47
871.54	227.50
871.85	227.54
872.16	227.58
872.47	227.61
872.78	227.56
873.09	227.55
873.40	227.55
873.71	227.56
874.02	227.59
874.33	227.57
874.64	227.58
874.95	227.59
875.26	227.58
875.56	227.56
875.87	227.54
876.18	227.56
876.49	227.66
876.80	227.65
877.11	227.63
877.42	227.68
877.73	227.69
878.04	227.69
878.35	227.69
878.66	227.69
878.96	227.67
879.27	227.65
879.58	227.69
879.89	227.72
880.20	227.73
880.51	227.69
880.82	227.70
881.12	227.67
881.43	227.68
881.74	227.67
882.05	227.72
882.36	227.72
882.67	227.71
882.97	227.61
883.28	227.60
883.59	227.61
883.90	227.55
884.21	227.57
884.51	227.56
884.82	227.49
885.13	227.48
885.44	227.46
885.74	227.49
886.05	227.45
886.36	227.42
886.67	227.41
886.98	227.47
887.28	227.49
887.59	227.52
887.90	227.50
888.20	227.51
888.51	227.49
888.82	227.49
889.13	227.50
889.43	227.56
889.74	227.57
890.05	227.54
890.35	227.58
890.66	227.52
890.97	227.49
891.28	227.52
891.58	227.50
891.89	227.51
892.20	227.46
892.50	227.41
892.81	227.40
893.12	227.38
893.42	227.34
893.73	227.32
894.04	227.32
894.34	227.30
894.65	227.28
894.95	227.25
895.26	227.23
895.57	227.25
895.87	227.12
896.18	227.10
896.48	227.10
896.79	227.04
897.10	227.05
897.40	227.04
897.71	227.04
898.01	227.02
898.32	227.00
898.63	227.01
898.93	227.06
899.24	227.04
899.54	227.03
899.85	227.01
900.15	226.98
900.46	226.96
900.76	226.96
901.07	226.96
901.38	226.93
901.68	226.94
901.99	226.89
902.29	226.93
902.60	226.92
902.90	226.94
903.21	226.96
903.51	226.97
903.82	226.99
904.12	227.00
904.43	227.02
904.73	227.00
905.03	227.00
905.34	227.07
905.64	227.05
905.95	227.08
906.25	227.08
906.56	227.12
906.86	227.12
907.17	227.12
907.47	227.15
907.77	227.18
908.08	227.16
908.38	227.19
908.69	227.22
908.99	227.26
909.30	227.25
909.60	227.26
909.90	227.25
910.21	227.25
910.51	227.22
910.81	227.23
911.12	227.26
911.42	227.28
911.73	227.16
912.03	227.23
912.33	227.24
912.64	227.26
912.94	227.25
913.24	227.23
913.55	227.26
913.85	227.25
914.15	227.27
914.46	227.29
914.76	227.28
915.06	227.24
915.37	227.24
915.67	227.25
915.97	227.28
916.27	227.33
916.58	227.35
916.88	227.34
917.18	227.34
917.49	227.37
917.79	227.40
918.09	227.45
918.39	227.47
918.70	227.48
919.00	227.46
919.30	227.53
919.60	227.54
919.91	227.53
920.21	227.54
920.51	227.51
920.81	227.52
921.12	227.54
921.42	227.55
921.72	227.58
922.02	227.59
922.32	227.59
922.63	227.57
922.93	227.57
923.23	227.58
923.53	227.58
923.83	227.57
924.13	227.57
924.44	227.55
924.74	227.56
925.04	227.57
925.34	227.58
925.64	227.51
925.94	227.50
926.24	227.52
926.55	227.51
926.85	227.51
927.15	227.47
927.45	227.44
927.75	227.47
928.05	227.44
928.35	227.40
928.65	227.39
928.95	227.41
929.26	227.37
929.56	227.39
929.86	227.33
930.16	227.29
930.46	227.26
930.76	227.24
931.06	227.18
931.36	227.16
931.66	227.15
931.96	227.12
932.26	227.12
932.56	227.10
932.86	227.11
933.16	227.12
933.46	227.14
933.76	227.13
934.06	227.08
934.36	227.08
934.66	227.07
934.96	227.06
935.26	227.02
935.56	227.01
935.86	226.98
936.16	227.01
936.46	227.00
936.76	226.98
937.06	226.96
937.36	226.95
937.66	226.94
937.96	226.91
938.26	226.93
938.56	226.92
938.86	226.93
939.16	226.93
939.46	226.94
939.76	226.94
940.06	226.91
940.35	226.91
940.65	226.87
940.95	226.86
941.25	226.84
941.55	226.81
941.85	226.85
942.15	226.87
942.45	226.91
942.75	226.89
943.04	226.92
943.34	226.97
943.64	226.97
943.94	226.96
944.24	226.99
944.54	226.99
944.84	226.98
945.13	226.98
945.43	226.95
945.73	226.90
946.03	226.91
946.33	226.94
946.62	226.94
946.92	226.95
947.22	227.03
947.52	227.05
947.82	227.08
948.11	227.07
948.41	227.06
948.71	227.04
949.01	227.10
949.31	227.08
949.60	227.07
949.90	227.06
950.20	227.06
950.50	227.04
950.79	227.05
951.09	227.12
951.39	227.09
951.69	227.13
951.98	227.19
952.28	227.21
952.58	227.22
952.87	227.25
953.17	227.29
953.47	227.26
953.76	227.26
954.06	227.25
954.36	227.24
954.66	227.24
954.95	227.30
955.25	227.30
955.55	227.35
955.84	227.36
956.14	227.40
956.44	227.44
956.73	227.44
957.03	227.45
957.32	227.40
957.62	227.40
957.92	227.41
958.21	227.41
958.51	227.52
958.81	227.53
959.10	227.53
959.40	227.50
959.69	227.50
959.99	227.54
960.29	227.59
960.58	227.56
960.88	227.59
961.17	227.57
961.47	227.60
961.76	227.57
962.06	227.58
962.36	227.55
962.65	227.55
962.95	227.57
963.24	227.55
963.54	227.59
963.83	227.62
964.13	227.61
964.42	227.57
964.72	227.48
965.01	227.47
965.31	227.45
965.60	227.47
965.90	227.55
966.19	227.49
966.49	227.45
966.78	227.45
967.08	227.43
967.37	227.40
967.67	227.34
967.96	227.33
968.26	227.30
968.55	227.31
968.85	227.30
969.14	227.29
969.43	227.27
969.73	227.22
970.02	227.22
970.32	227.20
970.61	227.20
970.91	227.18
971.20	227.15
971.49	227.12
971.79	227.10
972.08	227.02
972.38	227.03
972.67	227.03
972.96	227.01
973.26	226.97
973.55	226.98
973.85	227.00
974.14	226.98
974.43	227.00
974.73	226.98
975.02	226.97
975.31	226.94
975.61	226.94
975.90	226.94
976.19	226.91
976.49	226.91
976.78	226.90
977.07	226.88
977.37	226.89
977.66	226.92
977.95	226.87
978.24	226.88
978.54	226.87
978.83	226.84
979.12	226.85
979.42	226.87
979.71	226.88
980.00	226.85
980.29	226.85
980.59	226.80
980.88	226.84
981.17	226.82
981.46	226.85
981.76	226.85
982.05	226.90
982.34	226.87
982.63	226.88
982.93	226.87
983.22	226.92
983.51	226.92
983.80	226.97
984.09	227.03
984.39	227.02
984.68	227.05
984.97	227.05
985.26	227.08
985.55	227.08
985.85	227.05
986.14	227.07
986.43	227.10
986.72	227.16
987.01	227.12
987.30	227.15
987.59	227.13
987.89	227.10
988.18	227.05
988.47	227.08
988.76	227.07
989.05	227.09
989.34	227.07
989.63	227.09
989.92	227.06
990.22	227.00
990.51	227.01
990.80	226.99
991.09	227.03
991.38	227.04
991.67	227.06
991.96	227.07
992.25	227.08
992.54	227.06
992.83	227.03
993.12	227.03
993.41	227.04
993.70	227.08
993.99	227.16
994.28	227.18
994.58	227.20
994.87	227.18
995.16	227.17
995.45	227.17
995.74	227.17
996.03	227.20
996.32	227.24
996.61	227.23
996.90	227.25
997.19	227.23
997.48	227.22
997.77	227.19
998.06	227.20
998.34	227.18
998.63	227.20
998.92	227.20
999.21	227.22
999.50	227.23
999.79	227.20
1000.08	227.13
1000.37	227.13
1000.66	227.10
1000.95	227.15
1001.24	227.14
1001.53	227.15
1001.82	227.08
1002.11	227.06
1002.40	227.06
1002.68	227.09
1002.97	227.11
1003.26	227.11
1003.55	227.07
1003.84	227.09
1004.13	227.09
1004.42	227.08
1004.71	227.05
1004.99	227.04
1005.28	227.05
1005.57	227.04
1005.86	227.00
1006.15	227.01
1006.44	227.00
1006.72	227.00
1007.01	227.00
1007.30	227.01
1007.59	226.99
1007.88	227.02
1008.17	227.00
1008.45	226.98
1008.74	226.92
1009.03	226.89
1009.32	226.90
1009.60	226.94
1009.89	226.94
1010.18	226.90
1010.47	226.91
1010.76	226.92
1011.04	226.91
1011.33	226.89
1011.62	226.90
1011.91	226.93
1012.19	226.96
1012.48	226.97
1012.77	227.00
1013.05	227.02
1013.34	227.01
1013.63	227.00
1013.92	227.00
1014.20	227.01
1014.49	226.99
1014.78	227.01
1015.06	226.97
1015.35	226.95
1015.64	226.92
1015.92	226.90
1016.21	226.94
1016.50	226.93
1016.78	226.93
1017.07	226.95
1017.36	226.91
1017.64	226.91
1017.93	226.93
1018.22	226.91
1018.50	226.91
1018.79	226.89
1019.08	226.86
1019.36	226.86
1019.65	226.84
1019.93	226.86
1020.22	226.85
1020.51	226.92
1020.79	226.92
1021.08	227.11
1021.36	227.04
1021.65	226.98
1021.94	227.23
1022.22	226.82
1022.51	226.40
1022.79	227.09
1023.08	226.70
1023.36	228.21
1023.65	226.85
>>>>>End Processed Spectral Data<<<<<
