SpectraSuite Data File
++++++++++++++++++++++++++++++++++++
Date: Fri Feb 01 15:33:27 EST 2013
User: group
Dark Spectrum Present: No
Reference Spectrum Present: No
Number of Sampled Component Spectra: 1
Spectrometers: USB2E7196
Integration Time (usec): 35000 (USB2E7196)
Spectra Averaged: 100 (USB2E7196)
Boxcar Smoothing: 10 (USB2E7196)
Correct for Electrical Dark: No (USB2E7196)
Strobe/Lamp Enabled: No (USB2E7196)
Correct for Detector Non-linearity: No (USB2E7196)
Correct for Stray Light: No (USB2E7196)
Number of Pixels in Processed Spectrum: 2048
>>>>>Begin Processed Spectral Data<<<<<
339.09	0.00
339.48	214.73
339.86	216.34
340.24	217.72
340.63	219.01
341.01	222.53
341.39	221.83
341.78	223.38
342.16	223.92
342.54	224.82
342.93	213.18
343.31	223.96
343.69	224.50
344.07	224.98
344.46	225.41
344.84	225.78
345.22	225.99
345.60	226.23
345.99	226.39
346.37	226.53
346.75	226.64
347.13	226.71
347.52	226.77
347.90	226.87
348.28	226.87
348.66	226.96
349.05	226.99
349.43	227.02
349.81	227.07
350.19	227.12
350.57	227.19
350.96	227.24
351.34	227.30
351.72	227.39
352.10	227.47
352.48	227.56
352.87	227.63
353.25	227.72
353.63	227.79
354.01	227.87
354.39	227.98
354.77	228.06
355.15	228.16
355.54	228.22
355.92	228.25
356.30	228.35
356.68	228.47
357.06	228.56
357.44	228.63
357.82	228.69
358.20	228.77
358.58	228.83
358.97	228.88
359.35	228.95
359.73	229.08
360.11	229.12
360.49	229.18
360.87	229.24
361.25	229.30
361.63	229.37
362.01	229.43
362.39	229.46
362.77	229.47
363.15	229.51
363.53	229.54
363.91	229.57
364.29	229.62
364.67	229.55
365.05	229.55
365.43	229.56
365.81	229.59
366.19	229.61
366.57	229.66
366.95	229.65
367.33	229.65
367.71	229.59
368.09	229.61
368.47	229.57
368.85	229.52
369.23	229.52
369.61	229.46
369.99	229.45
370.37	229.42
370.75	229.43
371.13	229.40
371.51	229.35
371.89	229.32
372.27	229.26
372.65	229.20
373.03	229.16
373.41	229.08
373.78	229.01
374.16	228.93
374.54	228.84
374.92	228.77
375.30	228.66
375.68	228.60
376.06	228.54
376.44	228.47
376.82	228.41
377.19	228.31
377.57	228.25
377.95	228.15
378.33	228.07
378.71	227.96
379.09	227.87
379.47	227.82
379.84	227.72
380.22	227.65
380.60	227.57
380.98	227.47
381.36	227.40
381.73	227.31
382.11	227.25
382.49	227.18
382.87	227.12
383.25	227.08
383.62	227.10
384.00	226.99
384.38	226.91
384.76	226.88
385.13	226.85
385.51	226.78
385.89	226.68
386.27	226.63
386.64	226.57
387.02	226.52
387.40	226.47
387.78	226.42
388.15	226.39
388.53	226.34
388.91	226.28
389.29	226.26
389.66	226.25
390.04	226.23
390.42	226.21
390.79	226.18
391.17	226.18
391.55	226.09
391.92	226.13
392.30	226.16
392.68	226.12
393.05	226.11
393.43	226.11
393.81	226.15
394.18	226.16
394.56	226.18
394.94	226.19
395.31	226.17
395.69	226.27
396.06	226.29
396.44	226.35
396.82	226.40
397.19	226.45
397.57	226.56
397.95	226.60
398.32	226.63
398.70	226.72
399.07	226.79
399.45	226.85
399.82	226.91
400.20	226.94
400.58	227.03
400.95	227.08
401.33	227.21
401.70	227.37
402.08	227.47
402.45	227.56
402.83	227.73
403.20	227.90
403.58	227.98
403.95	228.13
404.33	228.26
404.71	228.40
405.08	228.63
405.46	228.70
405.83	228.87
406.21	229.06
406.58	229.21
406.96	229.37
407.33	229.55
407.70	229.76
408.08	230.05
408.45	230.27
408.83	230.54
409.20	230.78
409.58	230.96
409.95	231.22
410.33	231.51
410.70	231.72
411.08	231.99
411.45	232.28
411.82	232.60
412.20	232.96
412.57	233.38
412.95	233.65
413.32	234.05
413.69	234.47
414.07	234.89
414.44	235.35
414.82	235.84
415.19	236.37
415.56	236.91
415.94	237.46
416.31	238.11
416.68	238.70
417.06	239.42
417.43	240.09
417.81	240.87
418.18	241.66
418.55	242.54
418.93	243.43
419.30	244.35
419.67	245.26
420.04	246.19
420.42	247.19
420.79	248.40
421.16	249.55
421.54	250.73
421.91	251.96
422.28	253.26
422.66	254.60
423.03	255.93
423.40	257.24
423.77	258.65
424.15	260.04
424.52	261.53
424.89	263.12
425.26	264.68
425.64	266.10
426.01	267.71
426.38	269.36
426.75	271.04
427.13	272.76
427.50	274.60
427.87	276.50
428.24	278.37
428.61	280.09
428.99	282.08
429.36	284.18
429.73	286.25
430.10	288.21
430.47	290.24
430.85	292.32
431.22	294.62
431.59	297.01
431.96	299.29
432.33	301.76
432.70	304.14
433.08	306.96
433.45	309.59
433.82	312.20
434.19	315.10
434.56	317.89
434.93	320.56
435.30	323.12
435.68	325.99
436.05	328.79
436.42	331.61
436.79	334.09
437.16	336.82
437.53	339.67
437.90	342.53
438.27	345.30
438.64	348.21
439.01	350.81
439.38	353.01
439.75	355.18
440.13	357.71
440.50	360.06
440.87	361.92
441.24	363.88
441.61	366.02
441.98	367.51
442.35	369.31
442.72	371.18
443.09	373.00
443.46	374.01
443.83	374.60
444.20	375.13
444.57	375.99
444.94	376.28
445.31	376.57
445.68	376.91
446.05	376.96
446.42	376.52
446.79	376.06
447.16	375.64
447.53	375.28
447.90	374.09
448.27	372.91
448.64	371.32
449.01	370.20
449.37	368.24
449.74	366.33
450.11	364.08
450.48	361.56
450.85	359.04
451.22	356.90
451.59	354.90
451.96	352.93
452.33	350.30
452.70	347.89
453.07	345.03
453.43	342.13
453.80	339.41
454.17	336.71
454.54	334.15
454.91	331.43
455.28	328.75
455.65	326.29
456.02	323.86
456.38	321.72
456.75	319.04
457.12	316.79
457.49	314.60
457.86	312.43
458.23	310.58
458.59	308.54
458.96	306.45
459.33	304.57
459.70	302.71
460.07	301.23
460.43	299.52
460.80	297.96
461.17	296.50
461.54	294.97
461.91	293.55
462.27	292.12
462.64	290.82
463.01	289.49
463.38	288.19
463.74	286.81
464.11	285.62
464.48	284.55
464.85	283.41
465.21	282.52
465.58	281.59
465.95	280.51
466.32	279.63
466.68	278.78
467.05	277.88
467.42	276.96
467.78	276.05
468.15	275.17
468.52	274.46
468.88	273.59
469.25	272.81
469.62	272.19
469.98	271.53
470.35	270.92
470.72	270.33
471.08	269.65
471.45	269.13
471.82	268.59
472.18	268.01
472.55	267.56
472.92	267.00
473.28	266.54
473.65	266.07
474.02	265.61
474.38	265.20
474.75	264.88
475.11	264.55
475.48	264.26
475.85	264.01
476.21	263.78
476.58	263.65
476.94	263.51
477.31	263.36
477.67	263.19
478.04	263.09
478.41	263.01
478.77	263.06
479.14	262.96
479.50	262.95
479.87	263.02
480.23	263.12
480.60	263.22
480.96	263.30
481.33	263.51
481.69	263.70
482.06	263.88
482.42	264.05
482.79	264.31
483.15	264.60
483.52	264.98
483.88	265.31
484.25	265.66
484.61	266.12
484.98	266.57
485.34	267.15
485.71	267.73
486.07	268.31
486.44	268.85
486.80	269.55
487.17	270.28
487.53	271.11
487.90	271.97
488.26	272.90
488.62	273.93
488.99	274.94
489.35	275.98
489.72	277.14
490.08	278.36
490.44	279.60
490.81	280.95
491.17	282.35
491.54	283.86
491.90	285.42
492.26	287.04
492.63	288.79
492.99	290.56
493.36	292.49
493.72	294.58
494.08	296.68
494.45	298.95
494.81	301.31
495.17	303.75
495.54	306.31
495.90	308.99
496.26	311.73
496.63	314.67
496.99	317.74
497.35	321.01
497.72	324.39
498.08	327.90
498.44	331.53
498.80	335.40
499.17	339.41
499.53	343.54
499.89	347.87
500.26	352.34
500.62	356.99
500.98	361.94
501.34	367.01
501.71	372.32
502.07	377.78
502.43	383.41
502.79	389.25
503.16	395.35
503.52	401.60
503.88	408.02
504.24	414.71
504.60	421.60
504.97	428.76
505.33	436.07
505.69	443.77
506.05	451.62
506.41	459.48
506.78	467.67
507.14	476.21
507.50	484.99
507.86	494.08
508.22	503.35
508.59	512.55
508.95	522.14
509.31	531.96
509.67	542.05
510.03	552.38
510.39	562.92
510.75	573.70
511.12	584.62
511.48	595.97
511.84	607.36
512.20	618.91
512.56	630.84
512.92	643.09
513.28	655.37
513.64	667.82
514.00	680.63
514.37	693.57
514.73	706.59
515.09	719.63
515.45	732.87
515.81	746.39
516.17	760.41
516.53	774.55
516.89	788.79
517.25	802.99
517.61	817.37
517.97	831.86
518.33	846.25
518.69	861.17
519.05	876.20
519.41	891.39
519.77	906.92
520.13	922.31
520.49	937.66
520.85	953.25
521.21	968.99
521.57	985.19
521.93	1001.02
522.29	1017.45
522.65	1033.70
523.01	1049.96
523.37	1066.07
523.73	1082.34
524.09	1098.49
524.45	1114.80
524.81	1131.51
525.17	1148.50
525.53	1165.41
525.89	1182.31
526.25	1199.11
526.61	1215.49
526.97	1232.21
527.33	1248.79
527.68	1265.55
528.04	1282.09
528.40	1298.65
528.76	1315.80
529.12	1332.48
529.48	1349.41
529.84	1365.46
530.20	1382.11
530.56	1399.20
530.91	1416.54
531.27	1433.26
531.63	1449.75
531.99	1466.40
532.35	1482.36
532.71	1498.24
533.07	1514.58
533.42	1530.51
533.78	1546.56
534.14	1562.89
534.50	1578.36
534.86	1594.20
535.21	1609.50
535.57	1625.48
535.93	1641.06
536.29	1655.73
536.65	1670.80
537.00	1685.54
537.36	1700.89
537.72	1715.56
538.08	1730.00
538.44	1743.88
538.79	1757.79
539.15	1771.45
539.51	1785.23
539.87	1799.68
540.22	1813.41
540.58	1827.23
540.94	1840.70
541.29	1853.69
541.65	1866.46
542.01	1879.82
542.37	1892.26
542.72	1904.68
543.08	1916.52
543.44	1928.80
543.79	1940.14
544.15	1951.19
544.51	1962.88
544.87	1973.75
545.22	1984.43
545.58	1994.73
545.94	2004.58
546.29	2014.44
546.65	2024.44
547.01	2033.61
547.36	2042.32
547.72	2050.91
548.07	2058.83
548.43	2067.02
548.79	2075.03
549.14	2082.54
549.50	2089.88
549.86	2097.59
550.21	2104.89
550.57	2112.06
550.92	2118.83
551.28	2126.03
551.64	2133.07
551.99	2139.50
552.35	2145.86
552.70	2152.06
553.06	2158.05
553.41	2164.31
553.77	2170.43
554.13	2176.45
554.48	2182.60
554.84	2187.97
555.19	2193.28
555.55	2198.49
555.90	2202.87
556.26	2207.75
556.61	2212.56
556.97	2216.68
557.32	2220.72
557.68	2224.81
558.03	2229.14
558.39	2232.80
558.74	2237.49
559.10	2241.33
559.45	2245.12
559.81	2249.37
560.16	2253.24
560.52	2256.45
560.87	2260.01
561.23	2262.76
561.58	2265.77
561.94	2268.42
562.29	2270.92
562.64	2273.55
563.00	2276.08
563.35	2279.62
563.71	2282.77
564.06	2285.93
564.42	2288.89
564.77	2291.46
565.12	2293.66
565.48	2295.40
565.83	2297.21
566.19	2298.32
566.54	2299.24
566.89	2300.32
567.25	2300.86
567.60	2302.14
567.96	2303.87
568.31	2304.54
568.66	2305.50
569.02	2306.11
569.37	2306.27
569.72	2307.19
570.08	2307.21
570.43	2307.11
570.78	2306.57
571.14	2305.02
571.49	2303.64
571.84	2303.25
572.20	2301.90
572.55	2300.91
572.90	2299.41
573.26	2298.13
573.61	2296.28
573.96	2294.53
574.31	2291.46
574.67	2288.44
575.02	2284.76
575.37	2281.27
575.72	2277.50
576.08	2274.05
576.43	2270.64
576.78	2267.01
577.13	2263.71
577.49	2260.65
577.84	2257.16
578.19	2253.32
578.54	2249.60
578.90	2245.29
579.25	2239.67
579.60	2234.74
579.95	2229.57
580.30	2224.53
580.66	2219.22
581.01	2214.45
581.36	2209.48
581.71	2205.28
582.06	2200.83
582.42	2196.35
582.77	2191.03
583.12	2186.29
583.47	2181.58
583.82	2176.38
584.17	2171.18
584.53	2165.44
584.88	2159.71
585.23	2153.68
585.58	2148.10
585.93	2142.55
586.28	2137.85
586.63	2132.85
586.98	2127.66
587.34	2123.09
587.69	2118.12
588.04	2112.71
588.39	2106.94
588.74	2100.36
589.09	2094.05
589.44	2087.08
589.79	2080.99
590.14	2075.25
590.49	2068.80
590.84	2062.35
591.19	2056.37
591.54	2049.68
591.89	2042.20
592.25	2035.30
592.60	2028.27
592.95	2020.69
593.30	2013.35
593.65	2005.53
594.00	1998.24
594.35	1991.13
594.70	1983.00
595.05	1975.72
595.40	1968.42
595.75	1960.96
596.10	1954.76
596.45	1947.99
596.80	1941.91
597.15	1935.23
597.50	1928.13
597.85	1921.74
598.19	1915.01
598.54	1907.84
598.89	1901.26
599.24	1895.42
599.59	1888.66
599.94	1882.46
600.29	1876.14
600.64	1869.46
600.99	1861.98
601.34	1855.22
601.69	1848.16
602.04	1841.03
602.39	1833.72
602.74	1826.88
603.08	1820.00
603.43	1813.29
603.78	1806.12
604.13	1798.78
604.48	1791.56
604.83	1784.70
605.18	1777.54
605.53	1769.49
605.87	1761.33
606.22	1754.08
606.57	1746.16
606.92	1738.84
607.27	1731.60
607.62	1724.65
607.96	1717.30
608.31	1710.81
608.66	1703.06
609.01	1695.48
609.36	1688.05
609.70	1679.96
610.05	1671.81
610.40	1664.01
610.75	1655.58
611.10	1647.72
611.44	1639.34
611.79	1631.35
612.14	1622.62
612.49	1613.51
612.83	1605.21
613.18	1597.22
613.53	1589.12
613.88	1580.61
614.22	1572.36
614.57	1563.72
614.92	1555.65
615.27	1548.10
615.61	1539.61
615.96	1531.62
616.31	1523.88
616.65	1516.40
617.00	1508.82
617.35	1501.21
617.70	1492.86
618.04	1484.31
618.39	1476.09
618.74	1468.38
619.08	1460.05
619.43	1452.45
619.78	1445.55
620.12	1438.29
620.47	1430.75
620.82	1422.50
621.16	1415.09
621.51	1407.49
621.85	1399.80
622.20	1391.11
622.55	1382.73
622.89	1374.81
623.24	1367.31
623.59	1360.06
623.93	1352.56
624.28	1345.37
624.62	1337.87
624.97	1330.73
625.32	1324.08
625.66	1317.14
626.01	1310.02
626.35	1302.46
626.70	1294.73
627.04	1286.82
627.39	1279.27
627.73	1271.79
628.08	1264.89
628.43	1257.55
628.77	1250.03
629.12	1242.52
629.46	1235.44
629.81	1228.05
630.15	1220.83
630.50	1213.35
630.84	1205.08
631.19	1197.24
631.53	1189.79
631.88	1182.08
632.22	1174.51
632.57	1167.14
632.91	1159.49
633.26	1152.12
633.60	1144.82
633.95	1137.75
634.29	1130.82
634.64	1123.99
634.98	1116.69
635.32	1109.60
635.67	1103.09
636.01	1096.57
636.36	1089.78
636.70	1083.29
637.05	1076.75
637.39	1070.42
637.73	1063.87
638.08	1058.09
638.42	1052.06
638.77	1045.51
639.11	1039.08
639.45	1032.69
639.80	1026.07
640.14	1019.78
640.49	1013.12
640.83	1006.73
641.17	1000.49
641.52	994.16
641.86	987.71
642.20	981.90
642.55	975.69
642.89	969.09
643.23	962.58
643.58	956.77
643.92	950.62
644.26	944.49
644.61	938.40
644.95	932.42
645.29	925.80
645.64	919.06
645.98	912.81
646.32	907.02
646.66	900.98
647.01	895.06
647.35	889.26
647.69	883.53
648.04	878.05
648.38	872.16
648.72	866.12
649.06	860.04
649.41	854.12
649.75	848.02
650.09	842.03
650.43	836.23
650.78	830.11
651.12	824.06
651.46	818.35
651.80	812.64
652.14	807.28
652.49	801.84
652.83	796.65
653.17	790.92
653.51	785.09
653.85	779.69
654.20	774.11
654.54	768.14
654.88	762.48
655.22	756.61
655.56	751.06
655.90	745.66
656.25	740.42
656.59	735.09
656.93	729.98
657.27	724.91
657.61	719.47
657.95	714.33
658.29	709.23
658.64	704.05
658.98	698.74
659.32	693.21
659.66	688.06
660.00	682.70
660.34	677.75
660.68	672.85
661.02	667.85
661.36	663.15
661.70	658.63
662.05	654.19
662.39	649.85
662.73	645.33
663.07	640.95
663.41	636.50
663.75	631.92
664.09	627.38
664.43	622.97
664.77	618.81
665.11	614.53
665.45	610.45
665.79	606.36
666.13	602.24
666.47	598.16
666.81	593.96
667.15	589.93
667.49	586.01
667.83	582.25
668.17	578.28
668.51	574.20
668.85	570.21
669.19	566.41
669.53	562.53
669.87	558.63
670.21	554.90
670.55	551.20
670.89	547.80
671.23	544.36
671.57	540.89
671.91	537.39
672.25	533.98
672.58	530.50
672.92	527.11
673.26	523.92
673.60	520.75
673.94	517.66
674.28	514.70
674.62	511.82
674.96	508.71
675.30	505.82
675.64	502.89
675.97	500.14
676.31	497.28
676.65	494.35
676.99	491.66
677.33	488.80
677.67	486.00
678.01	483.00
678.34	480.05
678.68	477.16
679.02	474.32
679.36	471.56
679.70	468.83
680.04	466.07
680.37	463.17
680.71	460.41
681.05	457.78
681.39	455.11
681.73	452.41
682.06	449.87
682.40	447.31
682.74	444.80
683.08	442.25
683.42	439.63
683.75	437.13
684.09	434.59
684.43	432.15
684.77	429.68
685.10	427.35
685.44	425.03
685.78	422.73
686.12	420.52
686.45	418.21
686.79	415.95
687.13	413.79
687.46	411.65
687.80	409.54
688.14	407.31
688.48	405.27
688.81	402.99
689.15	400.84
689.49	398.70
689.82	396.62
690.16	394.53
690.50	392.57
690.83	390.61
691.17	388.62
691.51	386.68
691.84	384.83
692.18	382.85
692.52	380.87
692.85	378.95
693.19	377.09
693.52	375.26
693.86	373.42
694.20	371.56
694.53	369.76
694.87	367.87
695.21	366.13
695.54	364.29
695.88	362.63
696.21	360.89
696.55	359.27
696.88	357.57
697.22	355.92
697.56	354.31
697.89	352.67
698.23	351.06
698.56	349.47
698.90	347.89
699.23	346.28
699.57	344.72
699.90	343.20
700.24	341.60
700.58	340.10
700.91	338.61
701.25	337.20
701.58	335.84
701.92	334.51
702.25	333.13
702.59	331.78
702.92	330.42
703.26	329.14
703.59	327.81
703.93	326.67
704.26	325.42
704.60	324.14
704.93	322.86
705.26	321.61
705.60	320.47
705.93	319.31
706.27	318.27
706.60	317.22
706.94	316.16
707.27	315.07
707.61	314.02
707.94	313.03
708.27	311.95
708.61	310.91
708.94	309.91
709.28	308.93
709.61	307.97
709.94	307.05
710.28	306.03
710.61	305.05
710.95	303.97
711.28	303.07
711.61	302.14
711.95	301.24
712.28	300.34
712.61	299.31
712.95	298.41
713.28	297.54
713.61	296.66
713.95	295.73
714.28	294.88
714.61	293.97
714.95	293.10
715.28	292.23
715.61	291.36
715.95	290.48
716.28	289.62
716.61	288.80
716.95	287.96
717.28	287.21
717.61	286.43
717.94	285.69
718.28	284.86
718.61	284.11
718.94	283.44
719.27	282.73
719.61	282.12
719.94	281.44
720.27	280.70
720.60	280.02
720.94	279.39
721.27	278.79
721.60	278.22
721.93	277.61
722.27	277.07
722.60	276.50
722.93	275.92
723.26	275.38
723.59	274.76
723.93	274.22
724.26	273.66
724.59	273.11
724.92	272.56
725.25	272.07
725.59	271.53
725.92	270.99
726.25	270.51
726.58	269.99
726.91	269.48
727.24	268.99
727.57	268.51
727.91	268.01
728.24	267.57
728.57	267.03
728.90	266.58
729.23	266.06
729.56	265.64
729.89	265.15
730.22	264.63
730.55	264.20
730.89	263.74
731.22	263.33
731.55	262.91
731.88	262.49
732.21	262.05
732.54	261.65
732.87	261.19
733.20	260.79
733.53	260.41
733.86	260.05
734.19	259.67
734.52	259.27
734.85	258.96
735.18	258.52
735.51	258.18
735.84	257.77
736.17	257.45
736.50	257.03
736.83	256.82
737.16	256.51
737.49	256.16
737.82	255.83
738.15	255.47
738.48	255.11
738.81	254.79
739.14	254.46
739.47	254.10
739.80	253.84
740.13	253.55
740.46	253.20
740.79	252.87
741.12	252.58
741.45	252.26
741.78	251.89
742.11	251.60
742.44	251.31
742.77	251.05
743.10	250.75
743.43	250.45
743.75	250.07
744.08	249.97
744.41	249.70
744.74	249.43
745.07	249.14
745.40	248.95
745.73	248.70
746.06	248.44
746.39	248.23
746.71	247.93
747.04	247.62
747.37	247.39
747.70	247.17
748.03	246.89
748.36	246.73
748.68	246.53
749.01	246.29
749.34	246.07
749.67	245.87
750.00	245.66
750.33	245.54
750.65	245.36
750.98	245.01
751.31	244.80
751.64	244.59
751.97	244.46
752.29	244.23
752.62	243.99
752.95	243.81
753.28	243.60
753.60	243.44
753.93	243.31
754.26	243.13
754.59	242.91
754.91	242.71
755.24	242.48
755.57	242.30
755.90	242.12
756.22	241.92
756.55	241.70
756.88	241.47
757.20	241.21
757.53	241.01
757.86	240.83
758.19	240.70
758.51	240.56
758.84	240.34
759.17	240.14
759.49	240.01
759.82	239.89
760.15	239.75
760.47	239.58
760.80	239.41
761.13	239.25
761.45	239.11
761.78	238.99
762.11	238.85
762.43	238.70
762.76	238.54
763.08	238.43
763.41	238.30
763.74	238.17
764.06	238.06
764.39	237.90
764.71	237.76
765.04	237.59
765.37	237.44
765.69	237.33
766.02	237.23
766.34	237.09
766.67	236.95
767.00	236.84
767.32	236.77
767.65	236.70
767.97	236.60
768.30	236.49
768.62	236.34
768.95	236.26
769.27	236.15
769.60	236.07
769.92	235.95
770.25	235.81
770.57	235.74
770.90	235.61
771.22	235.53
771.55	235.44
771.87	235.32
772.20	235.20
772.52	235.17
772.85	235.20
773.17	235.10
773.50	234.97
773.82	234.85
774.15	234.71
774.47	234.56
774.80	234.50
775.12	234.40
775.45	234.31
775.77	234.24
776.09	234.14
776.42	234.03
776.74	233.96
777.07	233.92
777.39	233.83
777.72	233.77
778.04	233.67
778.36	233.58
778.69	233.53
779.01	233.47
779.33	233.32
779.66	233.09
779.98	233.01
780.31	232.95
780.63	232.91
780.95	232.87
781.28	232.81
781.60	232.65
781.92	232.59
782.25	232.53
782.57	232.44
782.89	232.39
783.22	232.33
783.54	232.27
783.86	232.19
784.19	232.12
784.51	232.06
784.83	232.02
785.16	231.96
785.48	231.89
785.80	231.82
786.12	231.76
786.45	231.72
786.77	231.68
787.09	231.63
787.42	231.54
787.74	231.49
788.06	231.45
788.38	231.47
788.71	231.42
789.03	231.39
789.35	231.34
789.67	231.29
789.99	231.24
790.32	231.17
790.64	231.17
790.96	231.24
791.28	231.16
791.61	231.11
791.93	231.07
792.25	231.04
792.57	231.09
792.89	231.05
793.21	231.06
793.54	231.02
793.86	230.97
794.18	230.96
794.50	230.91
794.82	230.84
795.14	230.78
795.47	230.76
795.79	230.69
796.11	230.67
796.43	230.62
796.75	230.60
797.07	230.57
797.39	230.51
797.71	230.39
798.04	230.40
798.36	230.38
798.68	230.37
799.00	230.37
799.32	230.30
799.64	230.28
799.96	230.23
800.28	230.21
800.60	230.17
800.92	230.14
801.24	230.11
801.56	230.12
801.89	230.11
802.21	230.12
802.53	230.11
802.85	230.08
803.17	230.07
803.49	230.02
803.81	229.98
804.13	229.96
804.45	229.94
804.77	229.91
805.09	229.85
805.41	229.79
805.73	229.72
806.05	229.66
806.37	229.62
806.69	229.55
807.01	229.52
807.33	229.52
807.65	229.47
807.97	229.51
808.28	229.46
808.60	229.40
808.92	229.35
809.24	229.40
809.56	229.38
809.88	229.34
810.20	229.34
810.52	229.36
810.84	229.33
811.16	229.27
811.48	229.23
811.80	229.29
812.12	229.26
812.43	229.24
812.75	229.24
813.07	229.22
813.39	229.26
813.71	229.23
814.03	229.18
814.35	229.19
814.67	229.13
814.98	229.12
815.30	229.12
815.62	229.05
815.94	228.96
816.26	228.97
816.58	228.95
816.89	228.92
817.21	228.89
817.53	228.86
817.85	228.85
818.17	228.81
818.48	228.74
818.80	228.74
819.12	228.74
819.44	228.70
819.76	228.66
820.07	228.59
820.39	228.58
820.71	228.57
821.03	228.51
821.34	228.47
821.66	228.47
821.98	228.45
822.30	228.45
822.61	228.49
822.93	228.47
823.25	228.43
823.57	228.40
823.88	228.40
824.20	228.39
824.52	228.41
824.83	228.42
825.15	228.40
825.47	228.38
825.79	228.33
826.10	228.32
826.42	228.34
826.74	228.36
827.05	228.32
827.37	228.32
827.69	228.32
828.00	228.33
828.32	228.32
828.64	228.30
828.95	228.36
829.27	228.31
829.58	228.29
829.90	228.31
830.22	228.31
830.53	228.28
830.85	228.23
831.17	228.19
831.48	228.15
831.80	228.19
832.11	228.19
832.43	228.23
832.75	228.25
833.06	228.25
833.38	228.22
833.69	228.23
834.01	228.24
834.32	228.22
834.64	228.20
834.96	228.19
835.27	228.22
835.59	228.14
835.90	228.10
836.22	228.05
836.53	228.03
836.85	228.03
837.16	228.12
837.48	228.14
837.79	228.17
838.11	228.20
838.42	228.13
838.74	228.11
839.05	228.09
839.37	228.03
839.68	227.99
840.00	227.98
840.31	227.97
840.63	227.95
840.94	227.97
841.26	227.97
841.57	227.97
841.88	227.95
842.20	227.96
842.51	227.95
842.83	228.00
843.14	228.09
843.46	228.09
843.77	228.04
844.08	228.00
844.40	227.95
844.71	227.94
845.03	227.97
845.34	227.97
845.65	227.96
845.97	227.98
846.28	227.96
846.60	227.95
846.91	227.94
847.22	227.96
847.54	227.96
847.85	227.93
848.16	227.89
848.48	227.87
848.79	227.89
849.10	227.90
849.42	227.89
849.73	227.76
850.04	227.73
850.36	227.66
850.67	227.69
850.98	227.67
851.30	227.65
851.61	227.60
851.92	227.57
852.23	227.62
852.55	227.60
852.86	227.63
853.17	227.61
853.49	227.63
853.80	227.60
854.11	227.57
854.42	227.59
854.74	227.56
855.05	227.53
855.36	227.46
855.67	227.46
855.99	227.43
856.30	227.54
856.61	227.50
856.92	227.52
857.23	227.48
857.55	227.48
857.86	227.49
858.17	227.49
858.48	227.48
858.79	227.44
859.11	227.47
859.42	227.42
859.73	227.41
860.04	227.36
860.35	227.32
860.66	227.30
860.98	227.27
861.29	227.27
861.60	227.27
861.91	227.29
862.22	227.29
862.53	227.26
862.84	227.11
863.16	227.17
863.47	227.17
863.78	227.16
864.09	227.18
864.40	227.19
864.71	227.20
865.02	227.23
865.33	227.21
865.64	227.19
865.95	227.19
866.27	227.25
866.58	227.26
866.89	227.29
867.20	227.29
867.51	227.28
867.82	227.30
868.13	227.34
868.44	227.36
868.75	227.36
869.06	227.36
869.37	227.39
869.68	227.36
869.99	227.38
870.30	227.39
870.61	227.41
870.92	227.36
871.23	227.36
871.54	227.35
871.85	227.36
872.16	227.36
872.47	227.36
872.78	227.31
873.09	227.32
873.40	227.35
873.71	227.36
874.02	227.39
874.33	227.39
874.64	227.38
874.95	227.34
875.26	227.31
875.56	227.34
875.87	227.34
876.18	227.32
876.49	227.40
876.80	227.39
877.11	227.36
877.42	227.39
877.73	227.40
878.04	227.39
878.35	227.39
878.66	227.39
878.96	227.39
879.27	227.37
879.58	227.38
879.89	227.32
880.20	227.34
880.51	227.32
880.82	227.30
881.12	227.26
881.43	227.28
881.74	227.27
882.05	227.24
882.36	227.25
882.67	227.26
882.97	227.17
883.28	227.16
883.59	227.16
883.90	227.17
884.21	227.15
884.51	227.16
884.82	227.16
885.13	227.13
885.44	227.15
885.74	227.17
886.05	227.16
886.36	227.17
886.67	227.09
886.98	227.14
887.28	227.15
887.59	227.19
887.90	227.16
888.20	227.18
888.51	227.24
888.82	227.22
889.13	227.22
889.43	227.30
889.74	227.27
890.05	227.28
890.35	227.27
890.66	227.23
890.97	227.20
891.28	227.18
891.58	227.20
891.89	227.19
892.20	227.16
892.50	227.16
892.81	227.16
893.12	227.20
893.42	227.14
893.73	227.13
894.04	227.13
894.34	227.14
894.65	227.13
894.95	227.09
895.26	227.10
895.57	227.14
895.87	227.02
896.18	227.03
896.48	227.01
896.79	226.99
897.10	227.02
897.40	227.00
897.71	226.98
898.01	226.96
898.32	226.93
898.63	226.96
898.93	226.95
899.24	226.96
899.54	226.96
899.85	226.94
900.15	226.95
900.46	226.92
900.76	226.91
901.07	226.91
901.38	226.92
901.68	226.93
901.99	226.90
902.29	226.93
902.60	226.95
902.90	226.99
903.21	226.97
903.51	226.96
903.82	227.03
904.12	227.09
904.43	227.10
904.73	227.12
905.03	227.09
905.34	227.20
905.64	227.19
905.95	227.19
906.25	227.23
906.56	227.25
906.86	227.26
907.17	227.25
907.47	227.28
907.77	227.25
908.08	227.23
908.38	227.21
908.69	227.23
908.99	227.22
909.30	227.23
909.60	227.25
909.90	227.28
910.21	227.22
910.51	227.20
910.81	227.22
911.12	227.23
911.42	227.26
911.73	227.17
912.03	227.17
912.33	227.16
912.64	227.17
912.94	227.14
913.24	227.12
913.55	227.14
913.85	227.16
914.15	227.20
914.46	227.24
914.76	227.22
915.06	227.19
915.37	227.24
915.67	227.19
915.97	227.18
916.27	227.16
916.58	227.17
916.88	227.13
917.18	227.13
917.49	227.19
917.79	227.17
918.09	227.15
918.39	227.18
918.70	227.19
919.00	227.19
919.30	227.21
919.60	227.23
919.91	227.20
920.21	227.15
920.51	227.14
920.81	227.11
921.12	227.13
921.42	227.12
921.72	227.09
922.02	227.12
922.32	227.15
922.63	227.15
922.93	227.19
923.23	227.22
923.53	227.23
923.83	227.13
924.13	227.13
924.44	227.14
924.74	227.17
925.04	227.18
925.34	227.16
925.64	227.14
925.94	227.11
926.24	227.16
926.55	227.16
926.85	227.14
927.15	227.15
927.45	227.16
927.75	227.15
928.05	227.14
928.35	227.12
928.65	227.12
928.95	227.12
929.26	227.08
929.56	227.08
929.86	227.06
930.16	227.07
930.46	227.03
930.76	227.00
931.06	226.96
931.36	226.94
931.66	226.96
931.96	226.96
932.26	226.95
932.56	226.93
932.86	226.95
933.16	226.97
933.46	226.93
933.76	226.92
934.06	226.93
934.36	226.96
934.66	226.97
934.96	226.96
935.26	226.97
935.56	226.98
935.86	226.94
936.16	226.92
936.46	226.91
936.76	226.93
937.06	226.94
937.36	226.91
937.66	226.93
937.96	226.91
938.26	226.90
938.56	226.92
938.86	226.90
939.16	226.92
939.46	226.90
939.76	226.93
940.06	226.92
940.35	226.96
940.65	226.92
940.95	226.89
941.25	226.87
941.55	226.85
941.85	226.83
942.15	226.86
942.45	226.89
942.75	226.89
943.04	226.89
943.34	226.92
943.64	226.93
943.94	226.91
944.24	226.93
944.54	226.91
944.84	226.93
945.13	226.93
945.43	226.90
945.73	226.90
946.03	226.90
946.33	226.86
946.62	226.84
946.92	226.84
947.22	226.89
947.52	226.90
947.82	226.93
948.11	226.96
948.41	226.96
948.71	226.92
949.01	226.93
949.31	226.95
949.60	226.93
949.90	226.96
950.20	226.94
950.50	226.92
950.79	226.93
951.09	226.94
951.39	226.96
951.69	226.95
951.98	226.99
952.28	226.99
952.58	226.99
952.87	226.98
953.17	226.99
953.47	226.97
953.76	226.97
954.06	226.94
954.36	226.89
954.66	226.88
954.95	226.95
955.25	226.99
955.55	227.03
955.84	227.02
956.14	227.02
956.44	227.05
956.73	227.03
957.03	227.05
957.32	227.02
957.62	227.02
957.92	227.04
958.21	227.05
958.51	227.16
958.81	227.18
959.10	227.20
959.40	227.20
959.69	227.21
959.99	227.22
960.29	227.23
960.58	227.25
960.88	227.30
961.17	227.23
961.47	227.18
961.76	227.13
962.06	227.14
962.36	227.14
962.65	227.13
962.95	227.17
963.24	227.16
963.54	227.16
963.83	227.14
964.13	227.12
964.42	227.06
964.72	226.95
965.01	226.95
965.31	226.91
965.60	226.89
965.90	226.93
966.19	226.90
966.49	226.88
966.78	226.84
967.08	226.81
967.37	226.80
967.67	226.80
967.96	226.83
968.26	226.79
968.55	226.77
968.85	226.73
969.14	226.69
969.43	226.67
969.73	226.68
970.02	226.67
970.32	226.65
970.61	226.63
970.91	226.60
971.20	226.58
971.49	226.60
971.79	226.60
972.08	226.51
972.38	226.50
972.67	226.51
972.96	226.51
973.26	226.50
973.55	226.56
973.85	226.54
974.14	226.54
974.43	226.57
974.73	226.57
975.02	226.59
975.31	226.61
975.61	226.61
975.90	226.58
976.19	226.58
976.49	226.60
976.78	226.64
977.07	226.64
977.37	226.65
977.66	226.64
977.95	226.66
978.24	226.70
978.54	226.73
978.83	226.72
979.12	226.73
979.42	226.73
979.71	226.69
980.00	226.72
980.29	226.72
980.59	226.69
980.88	226.72
981.17	226.77
981.46	226.76
981.76	226.80
982.05	226.82
982.34	226.84
982.63	226.85
982.93	226.84
983.22	226.89
983.51	226.91
983.80	226.94
984.09	226.95
984.39	226.93
984.68	226.97
984.97	226.99
985.26	226.98
985.55	226.99
985.85	226.97
986.14	226.99
986.43	227.00
986.72	227.04
987.01	227.01
987.30	226.98
987.59	226.98
987.89	227.00
988.18	227.00
988.47	227.00
988.76	227.02
989.05	227.02
989.34	227.02
989.63	227.02
989.92	227.01
990.22	227.00
990.51	227.00
990.80	226.98
991.09	226.98
991.38	227.01
991.67	227.00
991.96	227.02
992.25	226.99
992.54	226.96
992.83	226.93
993.12	226.94
993.41	226.95
993.70	226.99
993.99	226.99
994.28	226.99
994.58	227.02
994.87	226.98
995.16	226.97
995.45	226.96
995.74	226.93
996.03	226.93
996.32	226.91
996.61	226.95
996.90	226.95
997.19	226.96
997.48	226.96
997.77	226.96
998.06	226.94
998.34	226.93
998.63	226.93
998.92	226.95
999.21	226.92
999.50	226.92
999.79	226.90
1000.08	226.85
1000.37	226.84
1000.66	226.80
1000.95	226.85
1001.24	226.87
1001.53	226.88
1001.82	226.88
1002.11	226.88
1002.40	226.92
1002.68	226.93
1002.97	226.97
1003.26	226.93
1003.55	226.90
1003.84	226.91
1004.13	226.95
1004.42	226.97
1004.71	227.00
1004.99	226.98
1005.28	227.01
1005.57	227.03
1005.86	226.98
1006.15	226.99
1006.44	226.99
1006.72	227.00
1007.01	226.97
1007.30	226.94
1007.59	226.95
1007.88	226.96
1008.17	226.92
1008.45	226.88
1008.74	226.82
1009.03	226.78
1009.32	226.81
1009.60	226.82
1009.89	226.80
1010.18	226.77
1010.47	226.76
1010.76	226.74
1011.04	226.75
1011.33	226.76
1011.62	226.74
1011.91	226.75
1012.19	226.77
1012.48	226.77
1012.77	226.77
1013.05	226.82
1013.34	226.83
1013.63	226.81
1013.92	226.83
1014.20	226.86
1014.49	226.87
1014.78	226.88
1015.06	226.88
1015.35	226.88
1015.64	226.93
1015.92	226.95
1016.21	226.95
1016.50	226.97
1016.78	226.98
1017.07	226.99
1017.36	226.95
1017.64	226.93
1017.93	227.00
1018.22	226.96
1018.50	226.97
1018.79	226.96
1019.08	226.92
1019.36	226.92
1019.65	226.90
1019.93	226.92
1020.22	226.93
1020.51	226.96
1020.79	226.96
1021.08	226.26
1021.36	226.78
1021.65	226.87
1021.94	226.91
1022.22	226.66
1022.51	226.77
1022.79	227.51
1023.08	227.10
1023.36	227.45
1023.65	226.94
>>>>>End Processed Spectral Data<<<<<
