SpectraSuite Data File
++++++++++++++++++++++++++++++++++++
Date: Fri Feb 01 15:54:20 EST 2013
User: group
Dark Spectrum Present: No
Reference Spectrum Present: No
Number of Sampled Component Spectra: 1
Spectrometers: USB2E7196
Integration Time (usec): 35000 (USB2E7196)
Spectra Averaged: 100 (USB2E7196)
Boxcar Smoothing: 10 (USB2E7196)
Correct for Electrical Dark: No (USB2E7196)
Strobe/Lamp Enabled: No (USB2E7196)
Correct for Detector Non-linearity: No (USB2E7196)
Correct for Stray Light: No (USB2E7196)
Number of Pixels in Processed Spectrum: 2048
>>>>>Begin Processed Spectral Data<<<<<
339.09	0.00
339.48	215.00
339.86	216.94
340.24	217.65
340.63	219.10
341.01	222.01
341.39	221.75
341.78	222.96
342.16	223.95
342.54	224.75
342.93	213.19
343.31	223.96
343.69	224.48
344.07	224.93
344.46	225.36
344.84	225.75
345.22	225.97
345.60	226.21
345.99	226.41
346.37	226.58
346.75	226.66
347.13	226.73
347.52	226.80
347.90	226.85
348.28	226.89
348.66	226.88
349.05	226.86
349.43	226.94
349.81	226.97
350.19	227.02
350.57	227.04
350.96	227.11
351.34	227.19
351.72	227.26
352.10	227.34
352.48	227.43
352.87	227.49
353.25	227.54
353.63	227.62
354.01	227.67
354.39	227.72
354.77	227.81
355.15	227.90
355.54	227.94
355.92	227.98
356.30	228.03
356.68	228.21
357.06	228.30
357.44	228.32
357.82	228.38
358.20	228.44
358.58	228.52
358.97	228.60
359.35	228.67
359.73	228.76
360.11	228.82
360.49	228.85
360.87	228.91
361.25	228.98
361.63	229.04
362.01	229.11
362.39	229.12
362.77	229.15
363.15	229.14
363.53	229.18
363.91	229.21
364.29	229.27
364.67	229.19
365.05	229.20
365.43	229.24
365.81	229.27
366.19	229.31
366.57	229.33
366.95	229.31
367.33	229.27
367.71	229.25
368.09	229.24
368.47	229.22
368.85	229.16
369.23	229.15
369.61	229.08
369.99	229.08
370.37	229.07
370.75	229.06
371.13	229.03
371.51	228.96
371.89	228.96
372.27	228.90
372.65	228.85
373.03	228.79
373.41	228.73
373.78	228.64
374.16	228.51
374.54	228.43
374.92	228.37
375.30	228.33
375.68	228.26
376.06	228.20
376.44	228.13
376.82	228.08
377.19	228.03
377.57	227.97
377.95	227.86
378.33	227.79
378.71	227.67
379.09	227.62
379.47	227.59
379.84	227.47
380.22	227.39
380.60	227.32
380.98	227.24
381.36	227.14
381.73	227.08
382.11	227.07
382.49	227.01
382.87	226.94
383.25	226.85
383.62	226.91
384.00	226.85
384.38	226.77
384.76	226.74
385.13	226.69
385.51	226.66
385.89	226.59
386.27	226.54
386.64	226.52
387.02	226.47
387.40	226.40
387.78	226.39
388.15	226.34
388.53	226.31
388.91	226.32
389.29	226.32
389.66	226.32
390.04	226.24
390.42	226.24
390.79	226.23
391.17	226.27
391.55	226.14
391.92	226.08
392.30	226.12
392.68	226.10
393.05	226.09
393.43	226.10
393.81	226.11
394.18	226.13
394.56	226.14
394.94	226.18
395.31	226.20
395.69	226.26
396.06	226.29
396.44	226.31
396.82	226.31
397.19	226.37
397.57	226.41
397.95	226.51
398.32	226.55
398.70	226.61
399.07	226.67
399.45	226.72
399.82	226.80
400.20	226.85
400.58	226.89
400.95	226.91
401.33	227.01
401.70	227.16
402.08	227.21
402.45	227.28
402.83	227.39
403.20	227.49
403.58	227.56
403.95	227.67
404.33	227.83
404.71	227.95
405.08	228.16
405.46	228.27
405.83	228.42
406.21	228.55
406.58	228.72
406.96	228.87
407.33	229.04
407.70	229.26
408.08	229.53
408.45	229.78
408.83	230.02
409.20	230.22
409.58	230.40
409.95	230.68
410.33	230.96
410.70	231.18
411.08	231.51
411.45	231.82
411.82	232.17
412.20	232.51
412.57	232.92
412.95	233.23
413.32	233.63
413.69	234.03
414.07	234.47
414.44	234.93
414.82	235.42
415.19	235.96
415.56	236.51
415.94	237.06
416.31	237.71
416.68	238.33
417.06	239.08
417.43	239.75
417.81	240.54
418.18	241.33
418.55	242.20
418.93	243.05
419.30	243.96
419.67	244.87
420.04	245.84
420.42	246.85
420.79	248.03
421.16	249.20
421.54	250.42
421.91	251.62
422.28	252.88
422.66	254.22
423.03	255.54
423.40	256.91
423.77	258.34
424.15	259.75
424.52	261.27
424.89	262.84
425.26	264.41
425.64	265.87
426.01	267.47
426.38	269.13
426.75	270.80
427.13	272.52
427.50	274.33
427.87	276.23
428.24	278.10
428.61	279.83
428.99	281.77
429.36	283.86
429.73	285.94
430.10	287.93
430.47	289.98
430.85	292.09
431.22	294.33
431.59	296.70
431.96	298.93
432.33	301.38
432.70	303.78
433.08	306.59
433.45	309.21
433.82	311.81
434.19	314.69
434.56	317.53
434.93	320.20
435.30	322.84
435.68	325.70
436.05	328.52
436.42	331.33
436.79	333.84
437.16	336.50
437.53	339.30
437.90	342.12
438.27	344.87
438.64	347.69
439.01	350.25
439.38	352.45
439.75	354.62
440.13	357.15
440.50	359.47
440.87	361.28
441.24	363.24
441.61	365.40
441.98	366.90
442.35	368.68
442.72	370.52
443.09	372.29
443.46	373.27
443.83	373.85
444.20	374.31
444.57	375.14
444.94	375.45
445.31	375.86
445.68	376.25
446.05	376.32
446.42	375.92
446.79	375.50
447.16	375.06
447.53	374.73
447.90	373.57
448.27	372.42
448.64	370.88
449.01	369.73
449.37	367.73
449.74	365.82
450.11	363.57
450.48	361.07
450.85	358.55
451.22	356.44
451.59	354.43
451.96	352.49
452.33	349.91
452.70	347.56
453.07	344.69
453.43	341.79
453.80	339.05
454.17	336.39
454.54	333.87
454.91	331.15
455.28	328.45
455.65	325.94
456.02	323.49
456.38	321.32
456.75	318.63
457.12	316.38
457.49	314.18
457.86	312.01
458.23	310.19
458.59	308.15
458.96	306.09
459.33	304.25
459.70	302.41
460.07	300.90
460.43	299.17
460.80	297.53
461.17	296.08
461.54	294.58
461.91	293.16
462.27	291.71
462.64	290.47
463.01	289.14
463.38	287.83
463.74	286.47
464.11	285.31
464.48	284.30
464.85	283.22
465.21	282.32
465.58	281.40
465.95	280.28
466.32	279.35
466.68	278.41
467.05	277.46
467.42	276.58
467.78	275.62
468.15	274.73
468.52	274.05
468.88	273.18
469.25	272.39
469.62	271.75
469.98	271.05
470.35	270.41
470.72	269.83
471.08	269.16
471.45	268.61
471.82	268.10
472.18	267.48
472.55	267.05
472.92	266.56
473.28	266.11
473.65	265.68
474.02	265.29
474.38	264.90
474.75	264.60
475.11	264.27
475.48	264.05
475.85	263.82
476.21	263.59
476.58	263.41
476.94	263.26
477.31	263.10
477.67	262.96
478.04	262.84
478.41	262.75
478.77	262.81
479.14	262.74
479.50	262.72
479.87	262.82
480.23	262.88
480.60	262.90
480.96	262.99
481.33	263.20
481.69	263.36
482.06	263.57
482.42	263.77
482.79	264.01
483.15	264.31
483.52	264.71
483.88	265.08
484.25	265.46
484.61	265.89
484.98	266.36
485.34	266.90
485.71	267.54
486.07	268.15
486.44	268.73
486.80	269.48
487.17	270.22
487.53	271.01
487.90	271.91
488.26	272.87
488.62	273.86
488.99	274.84
489.35	275.94
489.72	277.08
490.08	278.30
490.44	279.52
490.81	280.84
491.17	282.14
491.54	283.62
491.90	285.20
492.26	286.85
492.63	288.57
492.99	290.41
493.36	292.27
493.72	294.31
494.08	296.38
494.45	298.60
494.81	301.00
495.17	303.44
495.54	305.96
495.90	308.65
496.26	311.46
496.63	314.40
496.99	317.48
497.35	320.73
497.72	324.09
498.08	327.66
498.44	331.32
498.80	335.32
499.17	339.34
499.53	343.48
499.89	347.89
500.26	352.41
500.62	357.08
500.98	362.06
501.34	367.13
501.71	372.50
502.07	377.97
502.43	383.56
502.79	389.36
503.16	395.44
503.52	401.66
503.88	408.06
504.24	414.71
504.60	421.59
504.97	428.68
505.33	436.07
505.69	443.76
506.05	451.57
506.41	459.45
506.78	467.63
507.14	476.10
507.50	484.78
507.86	493.78
508.22	502.96
508.59	512.13
508.95	521.68
509.31	531.52
509.67	541.55
510.03	551.82
510.39	562.44
510.75	573.20
511.12	584.20
511.48	595.52
511.84	606.95
512.20	618.53
512.56	630.56
512.92	642.66
513.28	655.04
513.64	667.54
514.00	680.27
514.37	693.19
514.73	706.23
515.09	719.25
515.45	732.56
515.81	746.09
516.17	760.18
516.53	774.40
516.89	788.52
517.25	802.73
517.61	817.09
517.97	831.53
518.33	845.93
518.69	860.63
519.05	875.61
519.41	890.76
519.77	906.24
520.13	921.72
520.49	937.07
520.85	952.41
521.21	968.00
521.57	984.19
521.93	999.99
522.29	1016.39
522.65	1032.67
523.01	1048.90
523.37	1064.95
523.73	1081.02
524.09	1097.00
524.45	1113.34
524.81	1129.93
525.17	1146.85
525.53	1163.75
525.89	1180.72
526.25	1197.48
526.61	1213.86
526.97	1230.62
527.33	1246.98
527.68	1263.47
528.04	1279.96
528.40	1296.53
528.76	1313.63
529.12	1330.13
529.48	1346.96
529.84	1363.02
530.20	1379.65
530.56	1396.65
530.91	1414.12
531.27	1430.88
531.63	1447.35
531.99	1463.89
532.35	1479.79
532.71	1495.58
533.07	1511.76
533.42	1527.52
533.78	1543.63
534.14	1559.79
534.50	1575.11
534.86	1591.03
535.21	1606.21
535.57	1622.13
535.93	1637.63
536.29	1652.39
536.65	1667.56
537.00	1682.41
537.36	1697.55
537.72	1712.03
538.08	1726.37
538.44	1740.11
538.79	1753.95
539.15	1767.73
539.51	1781.34
539.87	1795.69
540.22	1809.42
540.58	1823.09
540.94	1836.48
541.29	1849.30
541.65	1862.02
542.01	1875.25
542.37	1887.56
542.72	1899.97
543.08	1911.72
543.44	1924.10
543.79	1935.40
544.15	1946.29
544.51	1957.71
544.87	1968.68
545.22	1979.47
545.58	1989.66
545.94	1999.32
546.29	2009.09
546.65	2018.93
547.01	2028.35
547.36	2037.05
547.72	2045.44
548.07	2053.31
548.43	2061.47
548.79	2069.54
549.14	2077.07
549.50	2084.33
549.86	2092.03
550.21	2099.29
550.57	2106.42
550.92	2112.87
551.28	2119.81
551.64	2126.86
551.99	2133.42
552.35	2139.53
552.70	2145.70
553.06	2151.63
553.41	2158.05
553.77	2164.09
554.13	2170.06
554.48	2176.25
554.84	2181.78
555.19	2187.16
555.55	2192.30
555.90	2196.80
556.26	2201.59
556.61	2206.30
556.97	2210.53
557.32	2214.62
557.68	2218.88
558.03	2223.26
558.39	2227.02
558.74	2231.77
559.10	2235.68
559.45	2239.34
559.81	2243.65
560.16	2247.46
560.52	2250.65
560.87	2254.12
561.23	2256.75
561.58	2259.77
561.94	2262.13
562.29	2264.44
562.64	2267.04
563.00	2269.74
563.35	2273.19
563.71	2276.39
564.06	2279.56
564.42	2282.43
564.77	2284.90
565.12	2286.86
565.48	2288.68
565.83	2290.65
566.19	2291.91
566.54	2292.73
566.89	2293.83
567.25	2294.45
567.60	2295.82
567.96	2297.50
568.31	2298.15
568.66	2299.37
569.02	2299.83
569.37	2300.16
569.72	2301.09
570.08	2301.32
570.43	2301.32
570.78	2300.79
571.14	2299.18
571.49	2297.99
571.84	2297.69
572.20	2296.62
572.55	2295.83
572.90	2294.36
573.26	2292.89
573.61	2291.12
573.96	2289.33
574.31	2286.50
574.67	2283.49
575.02	2279.70
575.37	2276.47
575.72	2272.86
576.08	2269.58
576.43	2266.24
576.78	2262.58
577.13	2259.30
577.49	2256.20
577.84	2252.72
578.19	2248.93
578.54	2245.30
578.90	2241.06
579.25	2235.60
579.60	2230.50
579.95	2225.39
580.30	2220.30
580.66	2215.09
581.01	2210.19
581.36	2205.27
581.71	2200.95
582.06	2196.50
582.42	2192.06
582.77	2186.78
583.12	2182.31
583.47	2177.42
583.82	2172.45
584.17	2167.21
584.53	2161.78
584.88	2156.03
585.23	2150.24
585.58	2144.76
585.93	2139.46
586.28	2134.61
586.63	2129.43
586.98	2124.50
587.34	2119.81
587.69	2114.99
588.04	2109.74
588.39	2104.18
588.74	2097.73
589.09	2091.59
589.44	2084.91
589.79	2078.86
590.14	2073.36
590.49	2066.61
590.84	2060.37
591.19	2054.45
591.54	2047.91
591.89	2040.55
592.25	2033.92
592.60	2026.72
592.95	2019.14
593.30	2011.75
593.65	2004.17
594.00	1997.18
594.35	1989.96
594.70	1982.06
595.05	1974.77
595.40	1967.57
595.75	1959.96
596.10	1953.77
596.45	1947.08
596.80	1940.89
597.15	1934.16
597.50	1926.94
597.85	1920.49
598.19	1913.90
598.54	1906.68
598.89	1900.03
599.24	1894.13
599.59	1887.28
599.94	1881.20
600.29	1874.95
600.64	1868.39
600.99	1860.97
601.34	1854.19
601.69	1847.17
602.04	1840.22
602.39	1832.93
602.74	1826.00
603.08	1819.22
603.43	1812.39
603.78	1804.98
604.13	1797.76
604.48	1790.49
604.83	1783.54
605.18	1776.58
605.53	1768.44
605.87	1760.55
606.22	1753.29
606.57	1745.32
606.92	1738.09
607.27	1730.69
607.62	1723.78
607.96	1716.44
608.31	1709.73
608.66	1702.16
609.01	1694.51
609.36	1686.91
609.70	1678.82
610.05	1670.75
610.40	1663.12
610.75	1654.90
611.10	1647.30
611.44	1638.82
611.79	1630.97
612.14	1622.30
612.49	1613.16
612.83	1604.73
613.18	1596.52
613.53	1588.46
613.88	1579.90
614.22	1571.60
614.57	1563.13
614.92	1554.95
615.27	1547.35
615.61	1539.00
615.96	1530.91
616.31	1523.31
616.65	1515.90
617.00	1508.34
617.35	1500.76
617.70	1492.40
618.04	1483.87
618.39	1475.54
618.74	1467.89
619.08	1459.59
619.43	1451.99
619.78	1445.12
620.12	1437.88
620.47	1430.34
620.82	1422.22
621.16	1414.98
621.51	1407.39
621.85	1399.68
622.20	1391.15
622.55	1382.87
622.89	1374.94
623.24	1367.30
623.59	1359.98
623.93	1352.46
624.28	1345.28
624.62	1337.79
624.97	1330.62
625.32	1323.90
625.66	1317.00
626.01	1309.80
626.35	1302.37
626.70	1294.73
627.04	1287.02
627.39	1279.36
627.73	1271.97
628.08	1265.07
628.43	1257.69
628.77	1250.28
629.12	1242.84
629.46	1235.79
629.81	1228.42
630.15	1221.35
630.50	1213.97
630.84	1205.69
631.19	1197.85
631.53	1190.31
631.88	1182.72
632.22	1175.12
632.57	1167.84
632.91	1160.24
633.26	1152.89
633.60	1145.55
633.95	1138.51
634.29	1131.46
634.64	1124.80
634.98	1117.42
635.32	1110.23
635.67	1103.57
636.01	1096.91
636.36	1090.08
636.70	1083.43
637.05	1076.70
637.39	1070.24
637.73	1063.64
638.08	1057.88
638.42	1051.82
638.77	1045.44
639.11	1038.78
639.45	1032.36
639.80	1025.66
640.14	1019.26
640.49	1012.79
640.83	1006.42
641.17	1000.03
641.52	993.67
641.86	987.20
642.20	981.37
642.55	975.13
642.89	968.68
643.23	962.22
643.58	956.38
643.92	950.25
644.26	944.32
644.61	938.27
644.95	932.22
645.29	925.65
645.64	918.88
645.98	912.55
646.32	906.78
646.66	900.73
647.01	894.95
647.35	889.27
647.69	883.45
648.04	877.95
648.38	872.20
648.72	866.14
649.06	860.09
649.41	854.21
649.75	848.19
650.09	842.25
650.43	836.42
650.78	830.28
651.12	824.30
651.46	818.48
651.80	812.78
652.14	807.42
652.49	802.05
652.83	796.97
653.17	791.18
653.51	785.36
653.85	779.98
654.20	774.37
654.54	768.27
654.88	762.54
655.22	756.63
655.56	750.94
655.90	745.56
656.25	740.32
656.59	734.93
656.93	729.86
657.27	724.62
657.61	719.15
657.95	714.01
658.29	708.97
658.64	703.75
658.98	698.38
659.32	692.97
659.66	687.75
660.00	682.35
660.34	677.50
660.68	672.61
661.02	667.58
661.36	662.77
661.70	658.39
662.05	654.00
662.39	649.71
662.73	645.26
663.07	640.80
663.41	636.32
663.75	631.80
664.09	627.23
664.43	622.89
664.77	618.74
665.11	614.56
665.45	610.43
665.79	606.32
666.13	602.24
666.47	598.09
666.81	593.91
667.15	589.78
667.49	585.83
667.83	582.07
668.17	578.14
668.51	574.09
668.85	570.03
669.19	566.19
669.53	562.32
669.87	558.42
670.21	554.77
670.55	551.20
670.89	547.82
671.23	544.33
671.57	540.82
671.91	537.37
672.25	533.88
672.58	530.34
672.92	526.96
673.26	523.73
673.60	520.62
673.94	517.47
674.28	514.61
674.62	511.66
674.96	508.55
675.30	505.69
675.64	502.85
675.97	500.07
676.31	497.20
676.65	494.27
676.99	491.58
677.33	488.71
677.67	485.86
678.01	482.81
678.34	479.89
678.68	477.01
679.02	474.17
679.36	471.39
679.70	468.68
680.04	465.90
680.37	463.06
680.71	460.28
681.05	457.73
681.39	455.06
681.73	452.43
682.06	449.93
682.40	447.34
682.74	444.75
683.08	442.22
683.42	439.61
683.75	437.13
684.09	434.58
684.43	432.11
684.77	429.67
685.10	427.34
685.44	425.01
685.78	422.73
686.12	420.51
686.45	418.25
686.79	415.97
687.13	413.78
687.46	411.64
687.80	409.49
688.14	407.27
688.48	405.18
688.81	402.94
689.15	400.77
689.49	398.62
689.82	396.53
690.16	394.44
690.50	392.49
690.83	390.52
691.17	388.57
691.51	386.69
691.84	384.84
692.18	382.94
692.52	380.97
692.85	379.01
693.19	377.11
693.52	375.27
693.86	373.44
694.20	371.69
694.53	369.86
694.87	368.01
695.21	366.23
695.54	364.39
695.88	362.69
696.21	360.97
696.55	359.31
696.88	357.62
697.22	355.93
697.56	354.29
697.89	352.68
698.23	351.04
698.56	349.46
698.90	347.86
699.23	346.14
699.57	344.61
699.90	343.11
700.24	341.59
700.58	340.04
700.91	338.57
701.25	337.12
701.58	335.77
701.92	334.39
702.25	332.99
702.59	331.59
702.92	330.25
703.26	328.90
703.59	327.61
703.93	326.46
704.26	325.24
704.60	323.94
704.93	322.65
705.26	321.39
705.60	320.21
705.93	319.02
706.27	318.02
706.60	316.94
706.94	315.86
707.27	314.72
707.61	313.66
707.94	312.62
708.27	311.51
708.61	310.42
708.94	309.41
709.28	308.47
709.61	307.54
709.94	306.61
710.28	305.64
710.61	304.69
710.95	303.59
711.28	302.66
711.61	301.74
711.95	300.85
712.28	299.92
712.61	298.91
712.95	297.99
713.28	297.15
713.61	296.23
713.95	295.32
714.28	294.48
714.61	293.66
714.95	292.85
715.28	292.00
715.61	291.16
715.95	290.30
716.28	289.39
716.61	288.56
716.95	287.74
717.28	286.98
717.61	286.19
717.94	285.44
718.28	284.65
718.61	283.92
718.94	283.21
719.27	282.54
719.61	281.90
719.94	281.19
720.27	280.45
720.60	279.80
720.94	279.18
721.27	278.59
721.60	277.94
721.93	277.31
722.27	276.74
722.60	276.18
722.93	275.64
723.26	275.13
723.59	274.58
723.93	274.01
724.26	273.47
724.59	272.93
724.92	272.45
725.25	271.94
725.59	271.42
725.92	270.91
726.25	270.40
726.58	269.92
726.91	269.47
727.24	269.04
727.57	268.60
727.91	268.08
728.24	267.61
728.57	267.14
728.90	266.71
729.23	266.23
729.56	265.82
729.89	265.34
730.22	264.87
730.55	264.41
730.89	263.97
731.22	263.49
731.55	263.05
731.88	262.61
732.21	262.20
732.54	261.80
732.87	261.36
733.20	260.99
733.53	260.60
733.86	260.22
734.19	259.79
734.52	259.43
734.85	259.15
735.18	258.75
735.51	258.40
735.84	258.05
736.17	257.72
736.50	257.32
736.83	257.08
737.16	256.74
737.49	256.43
737.82	256.11
738.15	255.80
738.48	255.51
738.81	255.20
739.14	254.88
739.47	254.56
739.80	254.30
740.13	254.01
740.46	253.65
740.79	253.33
741.12	253.01
741.45	252.65
741.78	252.29
742.11	251.98
742.44	251.65
742.77	251.34
743.10	251.01
743.43	250.68
743.75	250.26
744.08	250.10
744.41	249.80
744.74	249.53
745.07	249.23
745.40	248.92
745.73	248.67
746.06	248.37
746.39	248.06
746.71	247.71
747.04	247.43
747.37	247.21
747.70	246.96
748.03	246.67
748.36	246.48
748.68	246.22
749.01	245.96
749.34	245.72
749.67	245.49
750.00	245.27
750.33	245.14
750.65	244.96
750.98	244.63
751.31	244.41
751.64	244.20
751.97	244.02
752.29	243.80
752.62	243.55
752.95	243.36
753.28	243.21
753.60	243.08
753.93	242.89
754.26	242.63
754.59	242.40
754.91	242.20
755.24	241.98
755.57	241.79
755.90	241.61
756.22	241.43
756.55	241.22
756.88	241.04
757.20	240.76
757.53	240.55
757.86	240.40
758.19	240.24
758.51	240.04
758.84	239.84
759.17	239.68
759.49	239.53
759.82	239.38
760.15	239.18
760.47	239.01
760.80	238.79
761.13	238.71
761.45	238.56
761.78	238.45
762.11	238.33
762.43	238.16
762.76	238.01
763.08	237.85
763.41	237.73
763.74	237.59
764.06	237.47
764.39	237.32
764.71	237.18
765.04	237.03
765.37	236.90
765.69	236.77
766.02	236.61
766.34	236.46
766.67	236.34
767.00	236.24
767.32	236.16
767.65	236.13
767.97	235.97
768.30	235.86
768.62	235.76
768.95	235.63
769.27	235.56
769.60	235.49
769.92	235.39
770.25	235.26
770.57	235.16
770.90	235.07
771.22	234.99
771.55	234.86
771.87	234.76
772.20	234.67
772.52	234.72
772.85	234.79
773.17	234.72
773.50	234.61
773.82	234.52
774.15	234.41
774.47	234.29
774.80	234.19
775.12	234.08
775.45	234.00
775.77	233.90
776.09	233.81
776.42	233.69
776.74	233.66
777.07	233.60
777.39	233.53
777.72	233.43
778.04	233.39
778.36	233.33
778.69	233.30
779.01	233.22
779.33	233.01
779.66	232.81
779.98	232.71
780.31	232.66
780.63	232.62
780.95	232.59
781.28	232.51
781.60	232.47
781.92	232.45
782.25	232.37
782.57	232.35
782.89	232.30
783.22	232.23
783.54	232.14
783.86	232.08
784.19	232.03
784.51	232.02
784.83	231.94
785.16	231.91
785.48	231.86
785.80	231.83
786.12	231.83
786.45	231.77
786.77	231.74
787.09	231.71
787.42	231.65
787.74	231.60
788.06	231.57
788.38	231.50
788.71	231.43
789.03	231.42
789.35	231.38
789.67	231.35
789.99	231.35
790.32	231.29
790.64	231.26
790.96	231.31
791.28	231.25
791.61	231.19
791.93	231.13
792.25	231.07
792.57	231.09
792.89	231.03
793.21	231.03
793.54	230.96
793.86	230.88
794.18	230.84
794.50	230.77
794.82	230.76
795.14	230.75
795.47	230.73
795.79	230.70
796.11	230.63
796.43	230.61
796.75	230.56
797.07	230.54
797.39	230.52
797.71	230.37
798.04	230.33
798.36	230.30
798.68	230.27
799.00	230.23
799.32	230.18
799.64	230.17
799.96	230.12
800.28	230.13
800.60	230.09
800.92	230.04
801.24	230.00
801.56	229.95
801.89	229.90
802.21	229.88
802.53	229.81
802.85	229.80
803.17	229.76
803.49	229.69
803.81	229.64
804.13	229.57
804.45	229.55
804.77	229.55
805.09	229.54
805.41	229.47
805.73	229.43
806.05	229.33
806.37	229.29
806.69	229.23
807.01	229.17
807.33	229.15
807.65	229.09
807.97	229.11
808.28	229.07
808.60	229.03
808.92	228.97
809.24	228.97
809.56	228.92
809.88	228.86
810.20	228.83
810.52	228.81
810.84	228.77
811.16	228.70
811.48	228.66
811.80	228.68
812.12	228.68
812.43	228.68
812.75	228.66
813.07	228.62
813.39	228.61
813.71	228.62
814.03	228.57
814.35	228.57
814.67	228.46
814.98	228.40
815.30	228.37
815.62	228.36
815.94	228.30
816.26	228.32
816.58	228.31
816.89	228.31
817.21	228.29
817.53	228.27
817.85	228.27
818.17	228.25
818.48	228.15
818.80	228.17
819.12	228.15
819.44	228.12
819.76	228.11
820.07	228.12
820.39	228.06
820.71	228.07
821.03	228.08
821.34	228.11
821.66	228.11
821.98	228.14
822.30	228.13
822.61	228.17
822.93	228.11
823.25	228.08
823.57	228.05
823.88	228.08
824.20	228.10
824.52	228.14
824.83	228.12
825.15	228.13
825.47	228.09
825.79	228.10
826.10	228.11
826.42	228.10
826.74	228.10
827.05	228.13
827.37	228.16
827.69	228.15
828.00	228.15
828.32	228.14
828.64	228.13
828.95	228.14
829.27	228.12
829.58	228.17
829.90	228.17
830.22	228.23
830.53	228.20
830.85	228.19
831.17	228.14
831.48	228.15
831.80	228.13
832.11	228.11
832.43	228.08
832.75	228.07
833.06	228.12
833.38	228.06
833.69	228.04
834.01	228.00
834.32	227.99
834.64	227.97
834.96	228.01
835.27	227.99
835.59	227.98
835.90	227.95
836.22	227.91
836.53	227.92
836.85	227.87
837.16	227.98
837.48	227.94
837.79	227.96
838.11	227.97
838.42	228.00
838.74	228.03
839.05	228.01
839.37	228.03
839.68	227.96
840.00	227.95
840.31	227.94
840.63	227.96
840.94	227.92
841.26	227.90
841.57	227.87
841.88	227.89
842.20	227.88
842.51	227.86
842.83	227.87
843.14	227.95
843.46	227.94
843.77	227.87
844.08	227.87
844.40	227.83
844.71	227.79
845.03	227.78
845.34	227.71
845.65	227.69
845.97	227.64
846.28	227.61
846.60	227.62
846.91	227.61
847.22	227.55
847.54	227.60
847.85	227.58
848.16	227.53
848.48	227.48
848.79	227.49
849.10	227.51
849.42	227.49
849.73	227.37
850.04	227.37
850.36	227.31
850.67	227.31
850.98	227.34
851.30	227.31
851.61	227.30
851.92	227.33
852.23	227.39
852.55	227.35
852.86	227.37
853.17	227.34
853.49	227.35
853.80	227.38
854.11	227.34
854.42	227.34
854.74	227.35
855.05	227.34
855.36	227.26
855.67	227.24
855.99	227.23
856.30	227.35
856.61	227.35
856.92	227.35
857.23	227.35
857.55	227.27
857.86	227.28
858.17	227.27
858.48	227.28
858.79	227.21
859.11	227.25
859.42	227.26
859.73	227.28
860.04	227.28
860.35	227.27
860.66	227.25
860.98	227.25
861.29	227.25
861.60	227.27
861.91	227.30
862.22	227.30
862.53	227.29
862.84	227.17
863.16	227.17
863.47	227.18
863.78	227.18
864.09	227.22
864.40	227.23
864.71	227.23
865.02	227.23
865.33	227.25
865.64	227.24
865.95	227.22
866.27	227.28
866.58	227.26
866.89	227.26
867.20	227.27
867.51	227.26
867.82	227.27
868.13	227.31
868.44	227.32
868.75	227.33
869.06	227.33
869.37	227.33
869.68	227.35
869.99	227.37
870.30	227.37
870.61	227.38
870.92	227.37
871.23	227.39
871.54	227.38
871.85	227.39
872.16	227.39
872.47	227.42
872.78	227.36
873.09	227.36
873.40	227.36
873.71	227.35
874.02	227.39
874.33	227.36
874.64	227.32
874.95	227.34
875.26	227.32
875.56	227.32
875.87	227.31
876.18	227.25
876.49	227.31
876.80	227.32
877.11	227.31
877.42	227.32
877.73	227.32
878.04	227.32
878.35	227.31
878.66	227.28
878.96	227.28
879.27	227.27
879.58	227.26
879.89	227.22
880.20	227.25
880.51	227.25
880.82	227.28
881.12	227.28
881.43	227.24
881.74	227.25
882.05	227.24
882.36	227.24
882.67	227.26
882.97	227.16
883.28	227.14
883.59	227.14
883.90	227.12
884.21	227.11
884.51	227.06
884.82	227.07
885.13	227.07
885.44	227.05
885.74	227.04
886.05	227.04
886.36	227.04
886.67	227.01
886.98	227.02
887.28	227.00
887.59	226.98
887.90	226.98
888.20	226.96
888.51	226.97
888.82	226.99
889.13	227.01
889.43	227.05
889.74	227.01
890.05	226.98
890.35	227.00
890.66	226.98
890.97	226.98
891.28	226.95
891.58	226.98
891.89	226.96
892.20	226.95
892.50	226.91
892.81	226.87
893.12	226.87
893.42	226.83
893.73	226.86
894.04	226.86
894.34	226.85
894.65	226.86
894.95	226.84
895.26	226.82
895.57	226.83
895.87	226.77
896.18	226.81
896.48	226.84
896.79	226.79
897.10	226.81
897.40	226.84
897.71	226.85
898.01	226.83
898.32	226.87
898.63	226.86
898.93	226.91
899.24	226.94
899.54	226.95
899.85	226.94
900.15	226.92
900.46	226.95
900.76	226.97
901.07	226.95
901.38	226.99
901.68	227.00
901.99	226.95
902.29	226.98
902.60	226.98
902.90	226.98
903.21	227.02
903.51	227.02
903.82	227.03
904.12	227.03
904.43	227.05
904.73	227.05
905.03	227.06
905.34	227.15
905.64	227.16
905.95	227.16
906.25	227.18
906.56	227.19
906.86	227.14
907.17	227.13
907.47	227.15
907.77	227.11
908.08	227.10
908.38	227.11
908.69	227.11
908.99	227.10
909.30	227.08
909.60	227.10
909.90	227.11
910.21	227.08
910.51	227.10
910.81	227.08
911.12	227.07
911.42	227.07
911.73	226.91
912.03	226.93
912.33	226.93
912.64	226.93
912.94	226.92
913.24	226.93
913.55	226.95
913.85	226.94
914.15	226.93
914.46	226.92
914.76	226.90
915.06	226.87
915.37	226.84
915.67	226.82
915.97	226.81
916.27	226.76
916.58	226.76
916.88	226.71
917.18	226.69
917.49	226.73
917.79	226.72
918.09	226.75
918.39	226.74
918.70	226.75
919.00	226.74
919.30	226.78
919.60	226.78
919.91	226.75
920.21	226.77
920.51	226.79
920.81	226.80
921.12	226.83
921.42	226.82
921.72	226.85
922.02	226.87
922.32	226.86
922.63	226.84
922.93	226.87
923.23	226.90
923.53	226.91
923.83	226.84
924.13	226.88
924.44	226.89
924.74	226.93
925.04	226.94
925.34	226.95
925.64	226.90
925.94	226.91
926.24	226.92
926.55	226.89
926.85	226.90
927.15	226.90
927.45	226.92
927.75	226.86
928.05	226.85
928.35	226.87
928.65	226.88
928.95	226.92
929.26	226.87
929.56	226.89
929.86	226.87
930.16	226.88
930.46	226.86
930.76	226.86
931.06	226.79
931.36	226.77
931.66	226.77
931.96	226.80
932.26	226.79
932.56	226.79
932.86	226.80
933.16	226.78
933.46	226.78
933.76	226.74
934.06	226.81
934.36	226.85
934.66	226.82
934.96	226.79
935.26	226.81
935.56	226.86
935.86	226.84
936.16	226.84
936.46	226.83
936.76	226.85
937.06	226.83
937.36	226.84
937.66	226.84
937.96	226.81
938.26	226.76
938.56	226.77
938.86	226.78
939.16	226.82
939.46	226.84
939.76	226.82
940.06	226.83
940.35	226.83
940.65	226.78
940.95	226.80
941.25	226.82
941.55	226.79
941.85	226.78
942.15	226.81
942.45	226.82
942.75	226.84
943.04	226.80
943.34	226.84
943.64	226.86
943.94	226.86
944.24	226.86
944.54	226.85
944.84	226.83
945.13	226.82
945.43	226.76
945.73	226.77
946.03	226.76
946.33	226.77
946.62	226.77
946.92	226.77
947.22	226.75
947.52	226.76
947.82	226.79
948.11	226.76
948.41	226.73
948.71	226.72
949.01	226.72
949.31	226.72
949.60	226.68
949.90	226.65
950.20	226.61
950.50	226.62
950.79	226.61
951.09	226.63
951.39	226.62
951.69	226.63
951.98	226.64
952.28	226.63
952.58	226.61
952.87	226.57
953.17	226.56
953.47	226.56
953.76	226.55
954.06	226.49
954.36	226.47
954.66	226.47
954.95	226.48
955.25	226.49
955.55	226.52
955.84	226.51
956.14	226.57
956.44	226.61
956.73	226.59
957.03	226.61
957.32	226.62
957.62	226.59
957.92	226.60
958.21	226.59
958.51	226.73
958.81	226.73
959.10	226.76
959.40	226.78
959.69	226.77
959.99	226.79
960.29	226.82
960.58	226.83
960.88	226.88
961.17	226.86
961.47	226.85
961.76	226.84
962.06	226.87
962.36	226.83
962.65	226.80
962.95	226.87
963.24	226.83
963.54	226.80
963.83	226.85
964.13	226.86
964.42	226.85
964.72	226.77
965.01	226.80
965.31	226.79
965.60	226.79
965.90	226.86
966.19	226.82
966.49	226.84
966.78	226.83
967.08	226.78
967.37	226.79
967.67	226.78
967.96	226.81
968.26	226.81
968.55	226.81
968.85	226.83
969.14	226.78
969.43	226.79
969.73	226.84
970.02	226.82
970.32	226.79
970.61	226.77
970.91	226.69
971.20	226.67
971.49	226.63
971.79	226.65
972.08	226.60
972.38	226.60
972.67	226.58
972.96	226.63
973.26	226.66
973.55	226.67
973.85	226.64
974.14	226.63
974.43	226.62
974.73	226.61
975.02	226.63
975.31	226.67
975.61	226.68
975.90	226.63
976.19	226.63
976.49	226.66
976.78	226.69
977.07	226.72
977.37	226.74
977.66	226.78
977.95	226.77
978.24	226.81
978.54	226.83
978.83	226.83
979.12	226.81
979.42	226.80
979.71	226.79
980.00	226.81
980.29	226.81
980.59	226.81
980.88	226.86
981.17	226.83
981.46	226.80
981.76	226.80
982.05	226.82
982.34	226.82
982.63	226.79
982.93	226.79
983.22	226.84
983.51	226.82
983.80	226.85
984.09	226.86
984.39	226.81
984.68	226.81
984.97	226.85
985.26	226.83
985.55	226.83
985.85	226.85
986.14	226.86
986.43	226.86
986.72	226.87
987.01	226.84
987.30	226.83
987.59	226.83
987.89	226.83
988.18	226.83
988.47	226.83
988.76	226.82
989.05	226.83
989.34	226.79
989.63	226.85
989.92	226.83
990.22	226.81
990.51	226.83
990.80	226.82
991.09	226.79
991.38	226.79
991.67	226.77
991.96	226.74
992.25	226.73
992.54	226.71
992.83	226.67
993.12	226.67
993.41	226.70
993.70	226.73
993.99	226.75
994.28	226.76
994.58	226.76
994.87	226.74
995.16	226.72
995.45	226.73
995.74	226.69
996.03	226.70
996.32	226.70
996.61	226.69
996.90	226.68
997.19	226.64
997.48	226.65
997.77	226.64
998.06	226.65
998.34	226.63
998.63	226.63
998.92	226.66
999.21	226.64
999.50	226.63
999.79	226.60
1000.08	226.62
1000.37	226.62
1000.66	226.62
1000.95	226.66
1001.24	226.64
1001.53	226.62
1001.82	226.62
1002.11	226.57
1002.40	226.61
1002.68	226.62
1002.97	226.70
1003.26	226.73
1003.55	226.72
1003.84	226.73
1004.13	226.76
1004.42	226.79
1004.71	226.80
1004.99	226.79
1005.28	226.81
1005.57	226.81
1005.86	226.77
1006.15	226.76
1006.44	226.74
1006.72	226.76
1007.01	226.75
1007.30	226.76
1007.59	226.78
1007.88	226.77
1008.17	226.81
1008.45	226.76
1008.74	226.73
1009.03	226.69
1009.32	226.71
1009.60	226.71
1009.89	226.72
1010.18	226.68
1010.47	226.66
1010.76	226.65
1011.04	226.66
1011.33	226.66
1011.62	226.68
1011.91	226.71
1012.19	226.69
1012.48	226.69
1012.77	226.68
1013.05	226.73
1013.34	226.75
1013.63	226.70
1013.92	226.67
1014.20	226.63
1014.49	226.63
1014.78	226.65
1015.06	226.61
1015.35	226.57
1015.64	226.59
1015.92	226.61
1016.21	226.61
1016.50	226.59
1016.78	226.61
1017.07	226.58
1017.36	226.55
1017.64	226.52
1017.93	226.52
1018.22	226.53
1018.50	226.51
1018.79	226.51
1019.08	226.43
1019.36	226.40
1019.65	226.44
1019.93	226.50
1020.22	226.55
1020.51	226.63
1020.79	226.61
1021.08	226.58
1021.36	226.31
1021.65	226.63
1021.94	225.89
1022.22	226.37
1022.51	226.90
1022.79	227.04
1023.08	227.19
1023.36	228.16
1023.65	226.30
>>>>>End Processed Spectral Data<<<<<
