SpectraSuite Data File
++++++++++++++++++++++++++++++++++++
Date: Fri Feb 01 16:31:43 EST 2013
User: group
Dark Spectrum Present: No
Reference Spectrum Present: No
Number of Sampled Component Spectra: 1
Spectrometers: USB2E7196
Integration Time (usec): 35000 (USB2E7196)
Spectra Averaged: 100 (USB2E7196)
Boxcar Smoothing: 10 (USB2E7196)
Correct for Electrical Dark: No (USB2E7196)
Strobe/Lamp Enabled: No (USB2E7196)
Correct for Detector Non-linearity: No (USB2E7196)
Correct for Stray Light: No (USB2E7196)
Number of Pixels in Processed Spectrum: 2048
>>>>>Begin Processed Spectral Data<<<<<
339.09	0.00
339.48	213.66
339.86	215.32
340.24	216.71
340.63	218.11
341.01	221.01
341.39	220.75
341.78	222.21
342.16	223.50
342.54	224.20
342.93	212.33
343.31	223.04
343.69	223.61
344.07	224.06
344.46	224.49
344.84	224.89
345.22	225.13
345.60	225.40
345.99	225.58
346.37	225.73
346.75	225.81
347.13	225.86
347.52	225.92
347.90	225.99
348.28	226.01
348.66	226.06
349.05	226.05
349.43	226.11
349.81	226.14
350.19	226.17
350.57	226.25
350.96	226.32
351.34	226.39
351.72	226.50
352.10	226.59
352.48	226.67
352.87	226.67
353.25	226.73
353.63	226.77
354.01	226.82
354.39	226.88
354.77	226.98
355.15	227.12
355.54	227.15
355.92	227.21
356.30	227.29
356.68	227.43
357.06	227.51
357.44	227.57
357.82	227.69
358.20	227.79
358.58	227.83
358.97	227.92
359.35	228.03
359.73	228.07
360.11	228.17
360.49	228.26
360.87	228.36
361.25	228.43
361.63	228.53
362.01	228.64
362.39	228.67
362.77	228.71
363.15	228.76
363.53	228.82
363.91	228.83
364.29	228.87
364.67	228.78
365.05	228.83
365.43	228.85
365.81	228.84
366.19	228.87
366.57	228.93
366.95	228.92
367.33	228.88
367.71	228.87
368.09	228.83
368.47	228.81
368.85	228.79
369.23	228.78
369.61	228.72
369.99	228.71
370.37	228.68
370.75	228.70
371.13	228.62
371.51	228.56
371.89	228.54
372.27	228.49
372.65	228.43
373.03	228.36
373.41	228.29
373.78	228.25
374.16	228.14
374.54	228.05
374.92	227.97
375.30	227.92
375.68	227.85
376.06	227.79
376.44	227.69
376.82	227.62
377.19	227.56
377.57	227.48
377.95	227.36
378.33	227.32
378.71	227.16
379.09	227.08
379.47	227.01
379.84	226.91
380.22	226.84
380.60	226.76
380.98	226.69
381.36	226.62
381.73	226.51
382.11	226.48
382.49	226.38
382.87	226.29
383.25	226.25
383.62	226.28
384.00	226.21
384.38	226.19
384.76	226.17
385.13	226.16
385.51	226.11
385.89	226.02
386.27	225.95
386.64	225.89
387.02	225.83
387.40	225.81
387.78	225.82
388.15	225.76
388.53	225.72
388.91	225.69
389.29	225.67
389.66	225.68
390.04	225.64
390.42	225.66
390.79	225.66
391.17	225.61
391.55	225.50
391.92	225.50
392.30	225.49
392.68	225.46
393.05	225.38
393.43	225.37
393.81	225.41
394.18	225.39
394.56	225.44
394.94	225.50
395.31	225.49
395.69	225.54
396.06	225.59
396.44	225.64
396.82	225.65
397.19	225.73
397.57	225.76
397.95	225.80
398.32	225.81
398.70	225.87
399.07	225.94
399.45	226.01
399.82	226.07
400.20	226.13
400.58	226.22
400.95	226.29
401.33	226.40
401.70	226.55
402.08	226.67
402.45	226.78
402.83	226.90
403.20	227.00
403.58	227.10
403.95	227.21
404.33	227.33
404.71	227.46
405.08	227.60
405.46	227.74
405.83	227.91
406.21	228.08
406.58	228.25
406.96	228.41
407.33	228.59
407.70	228.79
408.08	229.02
408.45	229.24
408.83	229.46
409.20	229.62
409.58	229.83
409.95	230.07
410.33	230.31
410.70	230.49
411.08	230.79
411.45	231.07
411.82	231.37
412.20	231.73
412.57	232.16
412.95	232.47
413.32	232.87
413.69	233.27
414.07	233.70
414.44	234.13
414.82	234.62
415.19	235.18
415.56	235.68
415.94	236.25
416.31	236.88
416.68	237.53
417.06	238.28
417.43	238.93
417.81	239.68
418.18	240.49
418.55	241.36
418.93	242.23
419.30	243.12
419.67	244.06
420.04	245.03
420.42	246.04
420.79	247.19
421.16	248.34
421.54	249.52
421.91	250.73
422.28	252.00
422.66	253.30
423.03	254.59
423.40	255.94
423.77	257.33
424.15	258.70
424.52	260.21
424.89	261.80
425.26	263.33
425.64	264.79
426.01	266.36
426.38	268.00
426.75	269.67
427.13	271.41
427.50	273.22
427.87	275.04
428.24	276.87
428.61	278.62
428.99	280.56
429.36	282.65
429.73	284.67
430.10	286.69
430.47	288.74
430.85	290.82
431.22	293.05
431.59	295.36
431.96	297.63
432.33	300.03
432.70	302.41
433.08	305.22
433.45	307.86
433.82	310.45
434.19	313.29
434.56	316.11
434.93	318.74
435.30	321.34
435.68	324.23
436.05	327.02
436.42	329.72
436.79	332.21
437.16	334.88
437.53	337.71
437.90	340.51
438.27	343.24
438.64	346.05
439.01	348.61
439.38	350.85
439.75	352.97
440.13	355.51
440.50	357.83
440.87	359.63
441.24	361.52
441.61	363.65
441.98	365.16
442.35	366.90
442.72	368.73
443.09	370.50
443.46	371.49
443.83	372.09
444.20	372.66
444.57	373.47
444.94	373.77
445.31	374.08
445.68	374.43
446.05	374.50
446.42	374.10
446.79	373.68
447.16	373.26
447.53	373.00
447.90	371.80
448.27	370.68
448.64	369.13
449.01	368.00
449.37	366.03
449.74	364.12
450.11	361.91
450.48	359.47
450.85	356.97
451.22	354.81
451.59	352.81
451.96	350.90
452.33	348.32
452.70	345.93
453.07	343.14
453.43	340.26
453.80	337.53
454.17	334.89
454.54	332.40
454.91	329.70
455.28	327.03
455.65	324.54
456.02	322.04
456.38	319.86
456.75	317.26
457.12	315.07
457.49	312.88
457.86	310.74
458.23	308.90
458.59	306.89
458.96	304.86
459.33	303.04
459.70	301.19
460.07	299.73
460.43	298.07
460.80	296.47
461.17	295.08
461.54	293.59
461.91	292.22
462.27	290.80
462.64	289.57
463.01	288.23
463.38	286.95
463.74	285.60
464.11	284.49
464.48	283.48
464.85	282.33
465.21	281.48
465.58	280.57
465.95	279.53
466.32	278.62
466.68	277.75
467.05	276.85
467.42	275.96
467.78	275.06
468.15	274.17
468.52	273.54
468.88	272.66
469.25	271.91
469.62	271.26
469.98	270.56
470.35	269.95
470.72	269.36
471.08	268.71
471.45	268.22
471.82	267.70
472.18	267.12
472.55	266.73
472.92	266.23
473.28	265.80
473.65	265.31
474.02	264.87
474.38	264.48
474.75	264.17
475.11	263.84
475.48	263.55
475.85	263.31
476.21	263.04
476.58	262.88
476.94	262.74
477.31	262.59
477.67	262.43
478.04	262.30
478.41	262.24
478.77	262.31
479.14	262.23
479.50	262.25
479.87	262.28
480.23	262.32
480.60	262.35
480.96	262.42
481.33	262.63
481.69	262.82
482.06	263.03
482.42	263.20
482.79	263.45
483.15	263.75
483.52	264.15
483.88	264.52
484.25	264.91
484.61	265.33
484.98	265.80
485.34	266.35
485.71	266.96
486.07	267.57
486.44	268.13
486.80	268.84
487.17	269.56
487.53	270.40
487.90	271.30
488.26	272.28
488.62	273.28
488.99	274.26
489.35	275.30
489.72	276.41
490.08	277.63
490.44	278.87
490.81	280.22
491.17	281.58
491.54	283.04
491.90	284.55
492.26	286.19
492.63	287.88
492.99	289.67
493.36	291.55
493.72	293.61
494.08	295.72
494.45	298.01
494.81	300.38
495.17	302.83
495.54	305.42
495.90	308.13
496.26	310.91
496.63	313.85
496.99	316.99
497.35	320.28
497.72	323.70
498.08	327.24
498.44	330.93
498.80	334.84
499.17	338.92
499.53	343.12
499.89	347.50
500.26	352.01
500.62	356.71
500.98	361.67
501.34	366.77
501.71	372.13
502.07	377.62
502.43	383.19
502.79	389.05
503.16	395.17
503.52	401.41
503.88	407.85
504.24	414.58
504.60	421.45
504.97	428.57
505.33	435.94
505.69	443.64
506.05	451.42
506.41	459.34
506.78	467.48
507.14	475.98
507.50	484.69
507.86	493.75
508.22	502.99
508.59	512.21
508.95	521.86
509.31	531.64
509.67	541.75
510.03	552.08
510.39	562.62
510.75	573.35
511.12	584.25
511.48	595.57
511.84	607.00
512.20	618.47
512.56	630.39
512.92	642.55
513.28	654.93
513.64	667.40
514.00	680.00
514.37	692.96
514.73	705.96
515.09	719.00
515.45	732.26
515.81	745.78
516.17	759.78
516.53	773.83
516.89	788.01
517.25	802.10
517.61	816.44
517.97	830.89
518.33	845.26
518.69	860.03
519.05	874.81
519.41	889.98
519.77	905.61
520.13	921.05
520.49	936.40
520.85	951.77
521.21	967.39
521.57	983.58
521.93	999.30
522.29	1015.52
522.65	1031.75
523.01	1047.82
523.37	1063.74
523.73	1079.81
524.09	1095.69
524.45	1111.92
524.81	1128.41
525.17	1145.22
525.53	1161.95
525.89	1178.77
526.25	1195.49
526.61	1212.01
526.97	1228.57
527.33	1244.90
527.68	1261.32
528.04	1277.60
528.40	1293.96
528.76	1310.99
529.12	1327.57
529.48	1344.31
529.84	1360.30
530.20	1376.81
530.56	1393.78
530.91	1411.10
531.27	1427.66
531.63	1444.08
531.99	1460.46
532.35	1476.31
532.71	1492.10
533.07	1508.27
533.42	1524.06
533.78	1539.96
534.14	1556.07
534.50	1571.35
534.86	1587.10
535.21	1602.28
535.57	1618.19
535.93	1633.65
536.29	1648.30
536.65	1663.17
537.00	1677.83
537.36	1692.93
537.72	1707.28
538.08	1721.58
538.44	1735.27
538.79	1749.11
539.15	1762.65
539.51	1776.35
539.87	1790.57
540.22	1804.15
540.58	1817.85
540.94	1831.06
541.29	1843.82
541.65	1856.33
542.01	1869.41
542.37	1881.55
542.72	1893.82
543.08	1905.54
543.44	1917.86
543.79	1928.99
544.15	1939.92
544.51	1951.31
544.87	1962.41
545.22	1973.20
545.58	1983.40
545.94	1993.07
546.29	2002.96
546.65	2012.85
547.01	2022.00
547.36	2030.70
547.72	2039.12
548.07	2046.89
548.43	2055.11
548.79	2063.15
549.14	2070.80
549.50	2078.02
549.86	2085.63
550.21	2092.98
550.57	2100.02
550.92	2106.62
551.28	2113.68
551.64	2120.75
551.99	2127.35
552.35	2133.41
552.70	2139.55
553.06	2145.54
553.41	2151.89
553.77	2157.94
554.13	2163.86
554.48	2170.07
554.84	2175.40
555.19	2180.63
555.55	2185.72
555.90	2190.05
556.26	2194.92
556.61	2199.60
556.97	2203.93
557.32	2208.25
557.68	2212.38
558.03	2216.71
558.39	2220.31
558.74	2224.90
559.10	2228.74
559.45	2232.45
559.81	2236.63
560.16	2240.55
560.52	2243.73
560.87	2247.19
561.23	2249.80
561.58	2252.79
561.94	2255.22
562.29	2257.74
562.64	2260.41
563.00	2262.98
563.35	2266.55
563.71	2269.67
564.06	2272.68
564.42	2275.70
564.77	2278.09
565.12	2280.34
565.48	2282.36
565.83	2284.31
566.19	2285.66
566.54	2286.48
566.89	2287.52
567.25	2288.17
567.60	2289.27
567.96	2291.06
568.31	2291.94
568.66	2293.14
569.02	2293.66
569.37	2293.98
569.72	2294.98
570.08	2295.23
570.43	2295.52
570.78	2294.91
571.14	2293.40
571.49	2292.27
571.84	2291.97
572.20	2291.11
572.55	2290.12
572.90	2288.51
573.26	2287.15
573.61	2285.61
573.96	2284.25
574.31	2281.54
574.67	2278.66
575.02	2275.26
575.37	2271.84
575.72	2268.08
576.08	2264.70
576.43	2261.68
576.78	2258.15
577.13	2254.99
577.49	2251.95
577.84	2248.38
578.19	2244.76
578.54	2241.35
578.90	2237.14
579.25	2231.55
579.60	2226.50
579.95	2221.59
580.30	2216.69
580.66	2211.59
581.01	2206.54
581.36	2201.51
581.71	2197.44
582.06	2193.07
582.42	2188.62
582.77	2183.58
583.12	2179.25
583.47	2174.62
583.82	2169.59
584.17	2164.49
584.53	2159.07
584.88	2153.51
585.23	2147.86
585.58	2142.45
585.93	2136.87
586.28	2132.18
586.63	2127.10
586.98	2122.14
587.34	2117.42
587.69	2112.50
588.04	2107.28
588.39	2101.78
588.74	2095.43
589.09	2089.19
589.44	2082.43
589.79	2076.57
590.14	2070.87
590.49	2064.19
590.84	2057.96
591.19	2052.03
591.54	2045.60
591.89	2038.25
592.25	2031.48
592.60	2024.36
592.95	2016.92
593.30	2009.73
593.65	2002.26
594.00	1995.40
594.35	1988.22
594.70	1980.31
595.05	1973.18
595.40	1966.01
595.75	1958.43
596.10	1952.28
596.45	1945.55
596.80	1939.53
597.15	1932.87
597.50	1925.90
597.85	1919.55
598.19	1912.89
598.54	1905.85
598.89	1899.22
599.24	1893.29
599.59	1886.73
599.94	1880.62
600.29	1874.25
600.64	1867.82
600.99	1860.37
601.34	1853.56
601.69	1846.65
602.04	1839.93
602.39	1832.75
602.74	1825.93
603.08	1819.36
603.43	1812.63
603.78	1805.41
604.13	1798.06
604.48	1790.82
604.83	1783.95
605.18	1776.99
605.53	1769.06
605.87	1761.04
606.22	1753.89
606.57	1746.04
606.92	1738.59
607.27	1731.46
607.62	1724.64
607.96	1717.26
608.31	1710.69
608.66	1703.15
609.01	1695.64
609.36	1687.93
609.70	1679.90
610.05	1671.80
610.40	1664.05
610.75	1655.72
611.10	1648.10
611.44	1639.84
611.79	1631.87
612.14	1623.22
612.49	1614.05
612.83	1605.58
613.18	1597.36
613.53	1589.26
613.88	1580.70
614.22	1572.49
614.57	1563.80
614.92	1555.75
615.27	1548.26
615.61	1539.83
615.96	1531.76
616.31	1524.09
616.65	1516.83
617.00	1509.09
617.35	1501.45
617.70	1493.19
618.04	1484.76
618.39	1476.49
618.74	1468.83
619.08	1460.46
619.43	1452.87
619.78	1445.99
620.12	1438.81
620.47	1431.37
620.82	1423.21
621.16	1415.87
621.51	1408.34
621.85	1400.71
622.20	1392.22
622.55	1383.79
622.89	1375.99
623.24	1368.39
623.59	1360.83
623.93	1353.20
624.28	1346.12
624.62	1338.65
624.97	1331.42
625.32	1324.57
625.66	1317.54
626.01	1310.43
626.35	1303.10
626.70	1295.37
627.04	1287.59
627.39	1279.86
627.73	1272.53
628.08	1265.64
628.43	1258.32
628.77	1250.84
629.12	1243.23
629.46	1236.07
629.81	1228.57
630.15	1221.31
630.50	1213.87
630.84	1205.79
631.19	1197.94
631.53	1190.44
631.88	1182.91
632.22	1175.35
632.57	1168.05
632.91	1160.49
633.26	1153.01
633.60	1145.49
633.95	1138.35
634.29	1131.33
634.64	1124.68
634.98	1117.31
635.32	1110.08
635.67	1103.33
636.01	1096.80
636.36	1090.06
636.70	1083.51
637.05	1077.04
637.39	1070.70
637.73	1064.17
638.08	1058.25
638.42	1052.13
638.77	1045.67
639.11	1038.98
639.45	1032.59
639.80	1025.90
640.14	1019.48
640.49	1012.99
640.83	1006.80
641.17	1000.45
641.52	994.07
641.86	987.50
642.20	981.65
642.55	975.37
642.89	968.97
643.23	962.40
643.58	956.56
643.92	950.34
644.26	944.27
644.61	938.15
644.95	932.13
645.29	925.56
645.64	918.87
645.98	912.48
646.32	906.71
646.66	900.58
647.01	894.77
647.35	889.03
647.69	883.15
648.04	877.62
648.38	872.00
648.72	866.04
649.06	860.06
649.41	854.10
649.75	848.10
650.09	842.18
650.43	836.42
650.78	830.30
651.12	824.35
651.46	818.59
651.80	812.91
652.14	807.60
652.49	802.18
652.83	797.07
653.17	791.42
653.51	785.64
653.85	780.28
654.20	774.66
654.54	768.66
654.88	762.88
655.22	756.92
655.56	751.17
655.90	745.78
656.25	740.53
656.59	735.17
656.93	730.10
657.27	724.97
657.61	719.54
657.95	714.45
658.29	709.38
658.64	704.19
658.98	698.85
659.32	693.34
659.66	688.17
660.00	682.80
660.34	677.85
660.68	673.02
661.02	668.01
661.36	663.30
661.70	658.84
662.05	654.55
662.39	650.26
662.73	645.83
663.07	641.31
663.41	636.78
663.75	632.27
664.09	627.74
664.43	623.37
664.77	619.20
665.11	614.92
665.45	610.74
665.79	606.61
666.13	602.51
666.47	598.44
666.81	594.24
667.15	590.14
667.49	586.24
667.83	582.41
668.17	578.49
668.51	574.39
668.85	570.32
669.19	566.46
669.53	562.60
669.87	558.70
670.21	555.04
670.55	551.36
670.89	547.94
671.23	544.45
671.57	540.92
671.91	537.41
672.25	533.88
672.58	530.34
672.92	526.93
673.26	523.72
673.60	520.54
673.94	517.41
674.28	514.51
674.62	511.53
674.96	508.35
675.30	505.47
675.64	502.55
675.97	499.83
676.31	496.89
676.65	493.93
676.99	491.21
677.33	488.35
677.67	485.61
678.01	482.62
678.34	479.67
678.68	476.77
679.02	473.96
679.36	471.19
679.70	468.49
680.04	465.74
680.37	462.87
680.71	460.06
681.05	457.45
681.39	454.70
681.73	452.04
682.06	449.52
682.40	446.92
682.74	444.35
683.08	441.79
683.42	439.23
683.75	436.72
684.09	434.20
684.43	431.77
684.77	429.32
685.10	426.98
685.44	424.64
685.78	422.34
686.12	420.03
686.45	417.78
686.79	415.44
687.13	413.24
687.46	411.01
687.80	408.82
688.14	406.62
688.48	404.58
688.81	402.36
689.15	400.22
689.49	398.04
689.82	396.01
690.16	393.93
690.50	391.97
690.83	390.06
691.17	388.06
691.51	386.13
691.84	384.25
692.18	382.28
692.52	380.33
692.85	378.39
693.19	376.57
693.52	374.73
693.86	372.91
694.20	371.19
694.53	369.43
694.87	367.63
695.21	365.84
695.54	364.03
695.88	362.27
696.21	360.56
696.55	358.87
696.88	357.18
697.22	355.55
697.56	353.92
697.89	352.28
698.23	350.69
698.56	349.06
698.90	347.47
699.23	345.81
699.57	344.22
699.90	342.68
700.24	341.12
700.58	339.59
700.91	338.14
701.25	336.64
701.58	335.27
701.92	333.88
702.25	332.50
702.59	331.13
702.92	329.79
703.26	328.51
703.59	327.25
703.93	326.05
704.26	324.77
704.60	323.45
704.93	322.19
705.26	320.93
705.60	319.75
705.93	318.59
706.27	317.57
706.60	316.54
706.94	315.48
707.27	314.32
707.61	313.28
707.94	312.29
708.27	311.19
708.61	310.11
708.94	309.10
709.28	308.16
709.61	307.19
709.94	306.23
710.28	305.20
710.61	304.23
710.95	303.14
711.28	302.26
711.61	301.32
711.95	300.39
712.28	299.44
712.61	298.47
712.95	297.54
713.28	296.68
713.61	295.77
713.95	294.89
714.28	294.06
714.61	293.16
714.95	292.28
715.28	291.42
715.61	290.56
715.95	289.66
716.28	288.77
716.61	287.95
716.95	287.13
717.28	286.37
717.61	285.59
717.94	284.89
718.28	284.07
718.61	283.33
718.94	282.60
719.27	281.95
719.61	281.31
719.94	280.63
720.27	279.91
720.60	279.24
720.94	278.56
721.27	277.95
721.60	277.34
721.93	276.75
722.27	276.21
722.60	275.65
722.93	275.09
723.26	274.58
723.59	273.99
723.93	273.46
724.26	272.90
724.59	272.33
724.92	271.82
725.25	271.35
725.59	270.86
725.92	270.37
726.25	269.87
726.58	269.34
726.91	268.84
727.24	268.36
727.57	267.89
727.91	267.40
728.24	266.96
728.57	266.50
728.90	266.01
729.23	265.51
729.56	265.08
729.89	264.61
730.22	264.07
730.55	263.61
730.89	263.14
731.22	262.69
731.55	262.26
731.88	261.79
732.21	261.35
732.54	260.91
732.87	260.50
733.20	260.08
733.53	259.71
733.86	259.36
734.19	258.95
734.52	258.55
734.85	258.24
735.18	257.83
735.51	257.49
735.84	257.14
736.17	256.79
736.50	256.37
736.83	256.16
737.16	255.89
737.49	255.58
737.82	255.26
738.15	254.92
738.48	254.57
738.81	254.24
739.14	253.91
739.47	253.56
739.80	253.24
740.13	252.95
740.46	252.64
740.79	252.27
741.12	251.97
741.45	251.69
741.78	251.32
742.11	251.01
742.44	250.66
742.77	250.37
743.10	250.07
743.43	249.79
743.75	249.41
744.08	249.24
744.41	248.97
744.74	248.68
745.07	248.41
745.40	248.16
745.73	247.95
746.06	247.67
746.39	247.43
746.71	247.15
747.04	246.85
747.37	246.58
747.70	246.35
748.03	246.11
748.36	245.84
748.68	245.59
749.01	245.35
749.34	245.12
749.67	244.89
750.00	244.67
750.33	244.55
750.65	244.29
750.98	243.92
751.31	243.66
751.64	243.49
751.97	243.34
752.29	243.13
752.62	242.86
752.95	242.64
753.28	242.43
753.60	242.22
753.93	242.09
754.26	241.92
754.59	241.72
754.91	241.51
755.24	241.33
755.57	241.16
755.90	240.98
756.22	240.79
756.55	240.58
756.88	240.38
757.20	240.13
757.53	239.95
757.86	239.80
758.19	239.68
758.51	239.47
758.84	239.24
759.17	239.08
759.49	238.90
759.82	238.80
760.15	238.66
760.47	238.50
760.80	238.29
761.13	238.14
761.45	237.95
761.78	237.81
762.11	237.65
762.43	237.50
762.76	237.36
763.08	237.24
763.41	237.15
763.74	236.98
764.06	236.83
764.39	236.71
764.71	236.57
765.04	236.42
765.37	236.26
765.69	236.12
766.02	235.98
766.34	235.87
766.67	235.69
767.00	235.58
767.32	235.52
767.65	235.48
767.97	235.34
768.30	235.26
768.62	235.12
768.95	235.00
769.27	234.86
769.60	234.75
769.92	234.64
770.25	234.50
770.57	234.41
770.90	234.32
771.22	234.18
771.55	234.09
771.87	233.99
772.20	233.91
772.52	233.93
772.85	233.94
773.17	233.87
773.50	233.77
773.82	233.66
774.15	233.50
774.47	233.33
774.80	233.22
775.12	233.11
775.45	233.03
775.77	232.94
776.09	232.86
776.42	232.79
776.74	232.68
777.07	232.62
777.39	232.58
777.72	232.49
778.04	232.44
778.36	232.39
778.69	232.30
779.01	232.23
779.33	232.06
779.66	231.89
779.98	231.80
780.31	231.74
780.63	231.71
780.95	231.71
781.28	231.65
781.60	231.61
781.92	231.55
782.25	231.49
782.57	231.45
782.89	231.43
783.22	231.37
783.54	231.31
783.86	231.26
784.19	231.16
784.51	231.09
784.83	231.03
785.16	230.96
785.48	230.92
785.80	230.90
786.12	230.87
786.45	230.81
786.77	230.78
787.09	230.72
787.42	230.64
787.74	230.57
788.06	230.56
788.38	230.49
788.71	230.49
789.03	230.47
789.35	230.46
789.67	230.37
789.99	230.33
790.32	230.29
790.64	230.25
790.96	230.29
791.28	230.25
791.61	230.26
791.93	230.21
792.25	230.16
792.57	230.15
792.89	230.09
793.21	230.10
793.54	230.05
793.86	230.00
794.18	229.95
794.50	229.92
794.82	229.87
795.14	229.84
795.47	229.80
795.79	229.77
796.11	229.69
796.43	229.67
796.75	229.65
797.07	229.63
797.39	229.59
797.71	229.50
798.04	229.48
798.36	229.40
798.68	229.38
799.00	229.38
799.32	229.31
799.64	229.30
799.96	229.25
800.28	229.23
800.60	229.23
800.92	229.21
801.24	229.18
801.56	229.18
801.89	229.12
802.21	229.08
802.53	229.00
802.85	229.00
803.17	229.04
803.49	228.96
803.81	228.92
804.13	228.88
804.45	228.83
804.77	228.81
805.09	228.80
805.41	228.75
805.73	228.69
806.05	228.67
806.37	228.62
806.69	228.57
807.01	228.52
807.33	228.48
807.65	228.45
807.97	228.42
808.28	228.38
808.60	228.39
808.92	228.35
809.24	228.39
809.56	228.35
809.88	228.26
810.20	228.24
810.52	228.24
810.84	228.21
811.16	228.16
811.48	228.11
811.80	228.11
812.12	228.10
812.43	228.11
812.75	228.08
813.07	228.08
813.39	228.05
813.71	228.04
814.03	228.02
814.35	228.00
814.67	227.97
814.98	227.94
815.30	227.88
815.62	227.84
815.94	227.78
816.26	227.78
816.58	227.73
816.89	227.72
817.21	227.66
817.53	227.65
817.85	227.66
818.17	227.67
818.48	227.64
818.80	227.59
819.12	227.55
819.44	227.51
819.76	227.48
820.07	227.47
820.39	227.46
820.71	227.48
821.03	227.45
821.34	227.40
821.66	227.41
821.98	227.44
822.30	227.48
822.61	227.50
822.93	227.47
823.25	227.48
823.57	227.47
823.88	227.49
824.20	227.47
824.52	227.49
824.83	227.47
825.15	227.41
825.47	227.42
825.79	227.42
826.10	227.39
826.42	227.35
826.74	227.36
827.05	227.33
827.37	227.30
827.69	227.28
828.00	227.31
828.32	227.28
828.64	227.27
828.95	227.29
829.27	227.26
829.58	227.22
829.90	227.26
830.22	227.26
830.53	227.24
830.85	227.24
831.17	227.21
831.48	227.20
831.80	227.20
832.11	227.19
832.43	227.14
832.75	227.18
833.06	227.24
833.38	227.19
833.69	227.20
834.01	227.17
834.32	227.17
834.64	227.17
834.96	227.15
835.27	227.11
835.59	227.05
835.90	227.01
836.22	227.02
836.53	226.97
836.85	226.95
837.16	227.02
837.48	227.00
837.79	227.01
838.11	226.97
838.42	226.96
838.74	226.95
839.05	226.96
839.37	226.90
839.68	226.84
840.00	226.84
840.31	226.83
840.63	226.84
840.94	226.81
841.26	226.79
841.57	226.78
841.88	226.82
842.20	226.81
842.51	226.81
842.83	226.80
843.14	226.89
843.46	226.86
843.77	226.81
844.08	226.81
844.40	226.76
844.71	226.79
845.03	226.78
845.34	226.77
845.65	226.76
845.97	226.79
846.28	226.79
846.60	226.76
846.91	226.72
847.22	226.73
847.54	226.75
847.85	226.76
848.16	226.74
848.48	226.73
848.79	226.75
849.10	226.73
849.42	226.73
849.73	226.62
850.04	226.64
850.36	226.59
850.67	226.60
850.98	226.60
851.30	226.57
851.61	226.60
851.92	226.59
852.23	226.61
852.55	226.61
852.86	226.61
853.17	226.63
853.49	226.66
853.80	226.68
854.11	226.67
854.42	226.66
854.74	226.65
855.05	226.67
855.36	226.60
855.67	226.61
855.99	226.62
856.30	226.76
856.61	226.76
856.92	226.77
857.23	226.79
857.55	226.77
857.86	226.77
858.17	226.76
858.48	226.76
858.79	226.74
859.11	226.79
859.42	226.75
859.73	226.76
860.04	226.74
860.35	226.70
860.66	226.68
860.98	226.65
861.29	226.66
861.60	226.61
861.91	226.67
862.22	226.69
862.53	226.66
862.84	226.52
863.16	226.56
863.47	226.58
863.78	226.55
864.09	226.58
864.40	226.61
864.71	226.62
865.02	226.65
865.33	226.67
865.64	226.64
865.95	226.66
866.27	226.73
866.58	226.72
866.89	226.72
867.20	226.69
867.51	226.70
867.82	226.71
868.13	226.74
868.44	226.72
868.75	226.68
869.06	226.71
869.37	226.72
869.68	226.65
869.99	226.64
870.30	226.64
870.61	226.64
870.92	226.59
871.23	226.58
871.54	226.62
871.85	226.62
872.16	226.62
872.47	226.59
872.78	226.51
873.09	226.56
873.40	226.58
873.71	226.62
874.02	226.62
874.33	226.61
874.64	226.59
874.95	226.59
875.26	226.60
875.56	226.58
875.87	226.55
876.18	226.54
876.49	226.60
876.80	226.61
877.11	226.61
877.42	226.63
877.73	226.62
878.04	226.56
878.35	226.54
878.66	226.52
878.96	226.55
879.27	226.54
879.58	226.48
879.89	226.44
880.20	226.44
880.51	226.43
880.82	226.43
881.12	226.42
881.43	226.37
881.74	226.34
882.05	226.34
882.36	226.33
882.67	226.34
882.97	226.23
883.28	226.20
883.59	226.19
883.90	226.16
884.21	226.18
884.51	226.14
884.82	226.13
885.13	226.13
885.44	226.10
885.74	226.11
886.05	226.07
886.36	226.09
886.67	226.06
886.98	226.09
887.28	226.07
887.59	226.07
887.90	226.09
888.20	226.07
888.51	226.07
888.82	226.09
889.13	226.11
889.43	226.18
889.74	226.17
890.05	226.16
890.35	226.18
890.66	226.16
890.97	226.17
891.28	226.15
891.58	226.14
891.89	226.16
892.20	226.12
892.50	226.15
892.81	226.12
893.12	226.13
893.42	226.09
893.73	226.12
894.04	226.13
894.34	226.15
894.65	226.17
894.95	226.13
895.26	226.09
895.57	226.11
895.87	226.03
896.18	226.04
896.48	226.02
896.79	226.00
897.10	225.99
897.40	226.00
897.71	226.01
898.01	225.99
898.32	225.98
898.63	226.00
898.93	226.00
899.24	226.00
899.54	225.97
899.85	225.96
900.15	225.93
900.46	225.89
900.76	225.88
901.07	225.88
901.38	225.92
901.68	225.94
901.99	225.88
902.29	225.91
902.60	225.90
902.90	225.90
903.21	225.91
903.51	225.94
903.82	225.96
904.12	225.97
904.43	225.98
904.73	225.99
905.03	226.00
905.34	226.08
905.64	226.09
905.95	226.11
906.25	226.10
906.56	226.11
906.86	226.13
907.17	226.15
907.47	226.16
907.77	226.15
908.08	226.14
908.38	226.19
908.69	226.20
908.99	226.24
909.30	226.23
909.60	226.23
909.90	226.20
910.21	226.16
910.51	226.15
910.81	226.15
911.12	226.14
911.42	226.10
911.73	225.99
912.03	226.02
912.33	226.05
912.64	226.08
912.94	226.08
913.24	226.04
913.55	226.01
913.85	225.99
914.15	226.00
914.46	226.02
914.76	226.00
915.06	225.98
915.37	225.94
915.67	225.96
915.97	225.97
916.27	225.96
916.58	225.95
916.88	225.97
917.18	225.98
917.49	226.05
917.79	226.07
918.09	226.11
918.39	226.09
918.70	226.06
919.00	226.08
919.30	226.11
919.60	226.12
919.91	226.10
920.21	226.11
920.51	226.07
920.81	226.06
921.12	226.09
921.42	226.08
921.72	226.09
922.02	226.05
922.32	226.02
922.63	226.02
922.93	226.07
923.23	226.06
923.53	226.04
923.83	225.97
924.13	225.97
924.44	225.97
924.74	225.98
925.04	226.02
925.34	225.97
925.64	225.92
925.94	225.92
926.24	226.00
926.55	225.98
926.85	226.01
927.15	226.01
927.45	225.97
927.75	225.99
928.05	225.99
928.35	226.02
928.65	226.03
928.95	226.03
929.26	226.00
929.56	225.97
929.86	225.97
930.16	225.96
930.46	225.96
930.76	225.97
931.06	225.93
931.36	225.89
931.66	225.94
931.96	225.96
932.26	225.98
932.56	225.98
932.86	226.04
933.16	226.05
933.46	226.03
933.76	226.03
934.06	226.05
934.36	226.09
934.66	226.08
934.96	226.09
935.26	226.09
935.56	226.12
935.86	226.13
936.16	226.14
936.46	226.12
936.76	226.13
937.06	226.11
937.36	226.13
937.66	226.14
937.96	226.13
938.26	226.14
938.56	226.12
938.86	226.10
939.16	226.09
939.46	226.08
939.76	226.12
940.06	226.14
940.35	226.12
940.65	226.04
940.95	226.08
941.25	226.04
941.55	226.03
941.85	226.03
942.15	226.05
942.45	226.08
942.75	226.07
943.04	226.09
943.34	226.13
943.64	226.14
943.94	226.15
944.24	226.15
944.54	226.17
944.84	226.18
945.13	226.19
945.43	226.15
945.73	226.18
946.03	226.16
946.33	226.13
946.62	226.13
946.92	226.15
947.22	226.13
947.52	226.15
947.82	226.17
948.11	226.15
948.41	226.11
948.71	226.09
949.01	226.12
949.31	226.12
949.60	226.09
949.90	226.08
950.20	226.07
950.50	226.06
950.79	226.01
951.09	226.03
951.39	226.01
951.69	226.03
951.98	226.04
952.28	226.03
952.58	226.03
952.87	226.01
953.17	226.03
953.47	226.02
953.76	226.03
954.06	226.02
954.36	225.99
954.66	226.01
954.95	226.04
955.25	226.03
955.55	226.00
955.84	225.99
956.14	226.00
956.44	225.99
956.73	225.94
957.03	225.92
957.32	225.91
957.62	225.88
957.92	225.87
958.21	225.85
958.51	225.95
958.81	225.97
959.10	225.98
959.40	226.00
959.69	226.01
959.99	225.99
960.29	225.97
960.58	226.00
960.88	226.03
961.17	226.00
961.47	226.03
961.76	226.01
962.06	225.98
962.36	225.99
962.65	226.00
962.95	226.04
963.24	226.07
963.54	226.05
963.83	226.08
964.13	226.08
964.42	226.04
964.72	225.93
965.01	225.93
965.31	225.93
965.60	225.92
965.90	225.96
966.19	225.94
966.49	225.99
966.78	225.97
967.08	225.97
967.37	225.97
967.67	225.93
967.96	225.97
968.26	225.97
968.55	225.97
968.85	225.97
969.14	225.95
969.43	225.94
969.73	225.91
970.02	225.90
970.32	225.86
970.61	225.88
970.91	225.87
971.20	225.86
971.49	225.85
971.79	225.86
972.08	225.79
972.38	225.83
972.67	225.82
972.96	225.84
973.26	225.80
973.55	225.83
973.85	225.86
974.14	225.87
974.43	225.87
974.73	225.89
975.02	225.86
975.31	225.87
975.61	225.88
975.90	225.91
976.19	225.90
976.49	225.94
976.78	225.96
977.07	225.97
977.37	226.01
977.66	226.02
977.95	226.01
978.24	226.03
978.54	226.02
978.83	226.04
979.12	226.04
979.42	226.05
979.71	226.03
980.00	226.02
980.29	226.01
980.59	226.03
980.88	226.07
981.17	226.08
981.46	226.08
981.76	226.07
982.05	226.10
982.34	226.14
982.63	226.16
982.93	226.14
983.22	226.18
983.51	226.16
983.80	226.18
984.09	226.15
984.39	226.15
984.68	226.11
984.97	226.07
985.26	226.09
985.55	226.09
985.85	226.06
986.14	226.08
986.43	226.11
986.72	226.09
987.01	226.03
987.30	226.05
987.59	226.08
987.89	226.11
988.18	226.09
988.47	226.08
988.76	226.09
989.05	226.08
989.34	226.05
989.63	226.07
989.92	226.05
990.22	226.08
990.51	226.08
990.80	226.09
991.09	226.13
991.38	226.14
991.67	226.13
991.96	226.11
992.25	226.09
992.54	226.05
992.83	226.04
993.12	226.04
993.41	226.03
993.70	226.07
993.99	226.04
994.28	226.06
994.58	226.05
994.87	226.00
995.16	225.98
995.45	225.98
995.74	225.93
996.03	225.94
996.32	225.95
996.61	225.92
996.90	225.92
997.19	225.91
997.48	225.85
997.77	225.84
998.06	225.88
998.34	225.90
998.63	225.90
998.92	225.90
999.21	225.89
999.50	225.85
999.79	225.79
1000.08	225.77
1000.37	225.72
1000.66	225.71
1000.95	225.74
1001.24	225.75
1001.53	225.75
1001.82	225.75
1002.11	225.71
1002.40	225.69
1002.68	225.73
1002.97	225.79
1003.26	225.76
1003.55	225.78
1003.84	225.80
1004.13	225.79
1004.42	225.76
1004.71	225.74
1004.99	225.74
1005.28	225.77
1005.57	225.79
1005.86	225.78
1006.15	225.77
1006.44	225.78
1006.72	225.76
1007.01	225.77
1007.30	225.76
1007.59	225.75
1007.88	225.77
1008.17	225.79
1008.45	225.78
1008.74	225.77
1009.03	225.71
1009.32	225.74
1009.60	225.75
1009.89	225.72
1010.18	225.69
1010.47	225.68
1010.76	225.70
1011.04	225.71
1011.33	225.73
1011.62	225.74
1011.91	225.77
1012.19	225.79
1012.48	225.79
1012.77	225.81
1013.05	225.86
1013.34	225.87
1013.63	225.90
1013.92	225.88
1014.20	225.88
1014.49	225.87
1014.78	225.88
1015.06	225.88
1015.35	225.85
1015.64	225.86
1015.92	225.89
1016.21	225.92
1016.50	225.96
1016.78	225.98
1017.07	225.98
1017.36	225.96
1017.64	225.98
1017.93	225.99
1018.22	225.99
1018.50	225.99
1018.79	225.99
1019.08	225.93
1019.36	225.96
1019.65	225.92
1019.93	226.02
1020.22	226.02
1020.51	226.07
1020.79	226.08
1021.08	226.01
1021.36	225.84
1021.65	226.02
1021.94	225.80
1022.22	226.39
1022.51	225.52
1022.79	227.11
1023.08	225.85
1023.36	226.88
1023.65	226.33
>>>>>End Processed Spectral Data<<<<<
