SpectraSuite Data File
++++++++++++++++++++++++++++++++++++
Date: Fri Feb 01 15:50:02 EST 2013
User: group
Dark Spectrum Present: No
Reference Spectrum Present: No
Number of Sampled Component Spectra: 1
Spectrometers: USB2E7196
Integration Time (usec): 35000 (USB2E7196)
Spectra Averaged: 100 (USB2E7196)
Boxcar Smoothing: 10 (USB2E7196)
Correct for Electrical Dark: No (USB2E7196)
Strobe/Lamp Enabled: No (USB2E7196)
Correct for Detector Non-linearity: No (USB2E7196)
Correct for Stray Light: No (USB2E7196)
Number of Pixels in Processed Spectrum: 2048
>>>>>Begin Processed Spectral Data<<<<<
339.09	0.00
339.48	215.11
339.86	216.13
340.24	217.87
340.63	219.22
341.01	222.16
341.39	222.07
341.78	222.97
342.16	224.40
342.54	224.50
342.93	213.37
343.31	224.13
343.69	224.67
344.07	225.16
344.46	225.60
344.84	225.99
345.22	226.21
345.60	226.44
345.99	226.63
346.37	226.78
346.75	226.88
347.13	226.95
347.52	227.02
347.90	227.08
348.28	227.08
348.66	227.11
349.05	227.08
349.43	227.12
349.81	227.18
350.19	227.21
350.57	227.26
350.96	227.27
351.34	227.34
351.72	227.44
352.10	227.49
352.48	227.53
352.87	227.57
353.25	227.65
353.63	227.69
354.01	227.72
354.39	227.77
354.77	227.84
355.15	227.93
355.54	227.99
355.92	228.01
356.30	228.08
356.68	228.20
357.06	228.28
357.44	228.30
357.82	228.37
358.20	228.44
358.58	228.47
358.97	228.58
359.35	228.67
359.73	228.70
360.11	228.76
360.49	228.81
360.87	228.86
361.25	228.88
361.63	228.99
362.01	229.08
362.39	229.10
362.77	229.16
363.15	229.18
363.53	229.20
363.91	229.23
364.29	229.25
364.67	229.16
365.05	229.19
365.43	229.23
365.81	229.23
366.19	229.27
366.57	229.30
366.95	229.26
367.33	229.22
367.71	229.20
368.09	229.23
368.47	229.22
368.85	229.17
369.23	229.22
369.61	229.16
369.99	229.15
370.37	229.11
370.75	229.12
371.13	229.05
371.51	228.99
371.89	228.96
372.27	228.91
372.65	228.89
373.03	228.83
373.41	228.76
373.78	228.68
374.16	228.58
374.54	228.52
374.92	228.45
375.30	228.39
375.68	228.32
376.06	228.24
376.44	228.19
376.82	228.19
377.19	228.12
377.57	228.00
377.95	227.92
378.33	227.90
378.71	227.76
379.09	227.74
379.47	227.68
379.84	227.60
380.22	227.52
380.60	227.44
380.98	227.37
381.36	227.33
381.73	227.27
382.11	227.23
382.49	227.18
382.87	227.10
383.25	227.10
383.62	227.15
384.00	227.07
384.38	226.99
384.76	226.92
385.13	226.87
385.51	226.84
385.89	226.79
386.27	226.69
386.64	226.66
387.02	226.61
387.40	226.55
387.78	226.52
388.15	226.51
388.53	226.47
388.91	226.44
389.29	226.43
389.66	226.40
390.04	226.37
390.42	226.38
390.79	226.38
391.17	226.33
391.55	226.21
391.92	226.22
392.30	226.25
392.68	226.23
393.05	226.24
393.43	226.27
393.81	226.29
394.18	226.30
394.56	226.33
394.94	226.35
395.31	226.39
395.69	226.44
396.06	226.46
396.44	226.48
396.82	226.53
397.19	226.58
397.57	226.64
397.95	226.68
398.32	226.67
398.70	226.74
399.07	226.83
399.45	226.88
399.82	226.94
400.20	226.97
400.58	227.05
400.95	227.07
401.33	227.15
401.70	227.31
402.08	227.40
402.45	227.51
402.83	227.64
403.20	227.73
403.58	227.83
403.95	227.99
404.33	228.13
404.71	228.25
405.08	228.45
405.46	228.56
405.83	228.68
406.21	228.85
406.58	229.04
406.96	229.19
407.33	229.38
407.70	229.58
408.08	229.85
408.45	230.06
408.83	230.32
409.20	230.51
409.58	230.65
409.95	230.93
410.33	231.16
410.70	231.40
411.08	231.70
411.45	231.99
411.82	232.27
412.20	232.60
412.57	233.00
412.95	233.26
413.32	233.68
413.69	234.10
414.07	234.55
414.44	235.01
414.82	235.46
415.19	236.03
415.56	236.59
415.94	237.12
416.31	237.76
416.68	238.37
417.06	239.10
417.43	239.79
417.81	240.53
418.18	241.33
418.55	242.15
418.93	243.02
419.30	243.90
419.67	244.84
420.04	245.80
420.42	246.81
420.79	248.02
421.16	249.14
421.54	250.33
421.91	251.52
422.28	252.77
422.66	254.12
423.03	255.39
423.40	256.72
423.77	258.17
424.15	259.62
424.52	261.13
424.89	262.76
425.26	264.33
425.64	265.78
426.01	267.37
426.38	269.02
426.75	270.71
427.13	272.46
427.50	274.27
427.87	276.17
428.24	278.03
428.61	279.75
428.99	281.72
429.36	283.87
429.73	285.96
430.10	287.98
430.47	290.05
430.85	292.22
431.22	294.47
431.59	296.86
431.96	299.07
432.33	301.57
432.70	303.93
433.08	306.71
433.45	309.35
433.82	311.98
434.19	314.84
434.56	317.68
434.93	320.31
435.30	322.94
435.68	325.88
436.05	328.70
436.42	331.50
436.79	334.00
437.16	336.72
437.53	339.54
437.90	342.36
438.27	345.09
438.64	347.87
439.01	350.46
439.38	352.72
439.75	354.94
440.13	357.40
440.50	359.74
440.87	361.63
441.24	363.59
441.61	365.74
441.98	367.27
442.35	369.05
442.72	370.91
443.09	372.72
443.46	373.67
443.83	374.25
444.20	374.77
444.57	375.64
444.94	375.90
445.31	376.24
445.68	376.54
446.05	376.64
446.42	376.25
446.79	375.78
447.16	375.31
447.53	374.93
447.90	373.75
448.27	372.58
448.64	370.95
449.01	369.83
449.37	367.85
449.74	365.92
450.11	363.66
450.48	361.19
450.85	358.64
451.22	356.49
451.59	354.47
451.96	352.51
452.33	349.90
452.70	347.56
453.07	344.74
453.43	341.89
453.80	339.11
454.17	336.45
454.54	333.97
454.91	331.20
455.28	328.56
455.65	326.05
456.02	323.63
456.38	321.50
456.75	318.80
457.12	316.56
457.49	314.36
457.86	312.15
458.23	310.32
458.59	308.29
458.96	306.22
459.33	304.38
459.70	302.53
460.07	301.03
460.43	299.25
460.80	297.61
461.17	296.16
461.54	294.68
461.91	293.24
462.27	291.77
462.64	290.57
463.01	289.24
463.38	287.98
463.74	286.61
464.11	285.47
464.48	284.46
464.85	283.36
465.21	282.52
465.58	281.65
465.95	280.56
466.32	279.67
466.68	278.76
467.05	277.88
467.42	277.02
467.78	276.08
468.15	275.23
468.52	274.55
468.88	273.70
469.25	272.97
469.62	272.39
469.98	271.70
470.35	271.06
470.72	270.40
471.08	269.73
471.45	269.18
471.82	268.64
472.18	268.05
472.55	267.61
472.92	267.06
473.28	266.60
473.65	266.16
474.02	265.71
474.38	265.33
474.75	265.00
475.11	264.63
475.48	264.39
475.85	264.18
476.21	263.93
476.58	263.75
476.94	263.62
477.31	263.48
477.67	263.34
478.04	263.24
478.41	263.19
478.77	263.25
479.14	263.17
479.50	263.16
479.87	263.24
480.23	263.35
480.60	263.44
480.96	263.53
481.33	263.71
481.69	263.91
482.06	264.09
482.42	264.31
482.79	264.57
483.15	264.85
483.52	265.25
483.88	265.63
484.25	266.02
484.61	266.38
484.98	266.78
485.34	267.37
485.71	267.96
486.07	268.56
486.44	269.13
486.80	269.85
487.17	270.60
487.53	271.40
487.90	272.22
488.26	273.16
488.62	274.15
488.99	275.10
489.35	276.13
489.72	277.28
490.08	278.47
490.44	279.72
490.81	281.05
491.17	282.38
491.54	283.83
491.90	285.30
492.26	286.97
492.63	288.67
492.99	290.41
493.36	292.27
493.72	294.29
494.08	296.38
494.45	298.63
494.81	300.96
495.17	303.43
495.54	305.99
495.90	308.65
496.26	311.47
496.63	314.48
496.99	317.56
497.35	320.82
497.72	324.23
498.08	327.73
498.44	331.41
498.80	335.32
499.17	339.40
499.53	343.64
499.89	347.98
500.26	352.53
500.62	357.24
500.98	362.22
501.34	367.32
501.71	372.64
502.07	378.12
502.43	383.75
502.79	389.53
503.16	395.56
503.52	401.83
503.88	408.20
504.24	414.78
504.60	421.75
504.97	428.93
505.33	436.24
505.69	443.96
506.05	451.72
506.41	459.58
506.78	467.72
507.14	476.15
507.50	484.88
507.86	493.89
508.22	503.03
508.59	512.27
508.95	521.87
509.31	531.69
509.67	541.77
510.03	552.14
510.39	562.69
510.75	573.57
511.12	584.52
511.48	595.85
511.84	607.27
512.20	618.71
512.56	630.61
512.92	642.85
513.28	655.18
513.64	667.66
514.00	680.39
514.37	693.31
514.73	706.40
515.09	719.43
515.45	732.68
515.81	746.30
516.17	760.30
516.53	774.38
516.89	788.58
517.25	802.70
517.61	817.09
517.97	831.62
518.33	846.01
518.69	860.80
519.05	875.84
519.41	891.10
519.77	906.71
520.13	922.14
520.49	937.52
520.85	952.91
521.21	968.73
521.57	984.99
521.93	1000.83
522.29	1017.24
522.65	1033.42
523.01	1049.64
523.37	1065.65
523.73	1081.75
524.09	1097.96
524.45	1114.23
524.81	1130.89
525.17	1147.69
525.53	1164.51
525.89	1181.40
526.25	1198.26
526.61	1214.61
526.97	1231.29
527.33	1247.80
527.68	1264.44
528.04	1280.84
528.40	1297.54
528.76	1314.54
529.12	1331.13
529.48	1347.91
529.84	1363.85
530.20	1380.56
530.56	1397.75
530.91	1415.25
531.27	1432.05
531.63	1448.38
531.99	1464.94
532.35	1480.94
532.71	1496.75
533.07	1512.92
533.42	1528.75
533.78	1544.77
534.14	1561.04
534.50	1576.42
534.86	1592.26
535.21	1607.41
535.57	1623.37
535.93	1638.85
536.29	1653.63
536.65	1668.68
537.00	1683.46
537.36	1698.84
537.72	1713.34
538.08	1727.53
538.44	1741.22
538.79	1755.13
539.15	1768.88
539.51	1782.69
539.87	1796.89
540.22	1810.64
540.58	1824.57
540.94	1838.01
541.29	1850.91
541.65	1863.43
542.01	1876.65
542.37	1888.82
542.72	1901.26
543.08	1913.00
543.44	1925.28
543.79	1936.46
544.15	1947.36
544.51	1958.93
544.87	1970.03
545.22	1980.91
545.58	1991.15
545.94	2000.82
546.29	2010.66
546.65	2020.43
547.01	2029.64
547.36	2038.36
547.72	2046.79
548.07	2054.48
548.43	2062.55
548.79	2070.60
549.14	2078.21
549.50	2085.57
549.86	2093.44
550.21	2100.76
550.57	2108.01
550.92	2114.55
551.28	2121.69
551.64	2128.88
551.99	2135.37
552.35	2141.25
552.70	2147.29
553.06	2153.29
553.41	2159.78
553.77	2165.75
554.13	2171.84
554.48	2177.87
554.84	2183.40
555.19	2188.76
555.55	2194.00
555.90	2198.51
556.26	2203.20
556.61	2208.01
556.97	2212.29
557.32	2216.34
557.68	2220.32
558.03	2224.56
558.39	2228.41
558.74	2232.92
559.10	2236.77
559.45	2240.31
559.81	2244.83
560.16	2248.81
560.52	2251.98
560.87	2255.19
561.23	2257.88
561.58	2260.97
561.94	2263.68
562.29	2266.07
562.64	2268.68
563.00	2271.21
563.35	2274.70
563.71	2277.94
564.06	2281.17
564.42	2283.86
564.77	2286.20
565.12	2288.47
565.48	2290.25
565.83	2292.03
566.19	2293.26
566.54	2294.14
566.89	2295.28
567.25	2295.62
567.60	2296.86
567.96	2298.69
568.31	2299.69
568.66	2300.76
569.02	2301.11
569.37	2301.37
569.72	2302.21
570.08	2302.41
570.43	2302.58
570.78	2301.97
571.14	2300.39
571.49	2298.95
571.84	2298.78
572.20	2297.71
572.55	2296.77
572.90	2295.45
573.26	2294.06
573.61	2292.38
573.96	2290.63
574.31	2287.82
574.67	2284.83
575.02	2281.15
575.37	2277.63
575.72	2273.77
576.08	2270.40
576.43	2267.11
576.78	2263.45
577.13	2260.31
577.49	2257.18
577.84	2253.54
578.19	2249.89
578.54	2246.21
578.90	2242.04
579.25	2236.49
579.60	2231.56
579.95	2226.46
580.30	2221.21
580.66	2216.11
581.01	2211.21
581.36	2206.19
581.71	2202.02
582.06	2197.53
582.42	2193.03
582.77	2187.81
583.12	2183.24
583.47	2178.60
583.82	2173.65
584.17	2168.36
584.53	2162.88
584.88	2157.22
585.23	2151.40
585.58	2145.87
585.93	2140.57
586.28	2135.69
586.63	2130.61
586.98	2125.48
587.34	2120.86
587.69	2116.12
588.04	2110.83
588.39	2105.30
588.74	2098.87
589.09	2092.72
589.44	2086.06
589.79	2080.10
590.14	2074.56
590.49	2068.09
590.84	2061.76
591.19	2055.69
591.54	2049.13
591.89	2041.70
592.25	2034.97
592.60	2027.78
592.95	2020.16
593.30	2012.70
593.65	2005.19
594.00	1998.16
594.35	1990.94
594.70	1982.92
595.05	1975.63
595.40	1968.28
595.75	1960.58
596.10	1954.38
596.45	1947.58
596.80	1941.36
597.15	1934.67
597.50	1927.44
597.85	1921.03
598.19	1914.28
598.54	1907.02
598.89	1900.51
599.24	1894.62
599.59	1887.92
599.94	1881.81
600.29	1875.38
600.64	1868.70
600.99	1861.24
601.34	1854.45
601.69	1847.54
602.04	1840.61
602.39	1833.21
602.74	1826.35
603.08	1819.77
603.43	1813.12
603.78	1805.79
604.13	1798.55
604.48	1791.14
604.83	1784.34
605.18	1777.25
605.53	1769.29
605.87	1761.39
606.22	1754.01
606.57	1746.04
606.92	1738.72
607.27	1731.43
607.62	1724.53
607.96	1717.25
608.31	1710.59
608.66	1702.92
609.01	1695.34
609.36	1687.76
609.70	1679.73
610.05	1671.63
610.40	1663.79
610.75	1655.26
611.10	1647.66
611.44	1639.35
611.79	1631.56
612.14	1622.84
612.49	1613.63
612.83	1605.25
613.18	1597.16
613.53	1589.17
613.88	1580.59
614.22	1572.19
614.57	1563.73
614.92	1555.65
615.27	1548.09
615.61	1539.79
615.96	1531.77
616.31	1524.11
616.65	1516.74
617.00	1509.33
617.35	1501.64
617.70	1493.38
618.04	1484.87
618.39	1476.63
618.74	1468.99
619.08	1460.59
619.43	1453.02
619.78	1446.18
620.12	1438.96
620.47	1431.40
620.82	1423.20
621.16	1415.96
621.51	1408.39
621.85	1400.78
622.20	1392.28
622.55	1384.01
622.89	1376.15
623.24	1368.49
623.59	1361.14
623.93	1353.51
624.28	1346.12
624.62	1338.65
624.97	1331.35
625.32	1324.63
625.66	1317.55
626.01	1310.27
626.35	1302.80
626.70	1295.13
627.04	1287.33
627.39	1279.62
627.73	1272.25
628.08	1265.34
628.43	1257.89
628.77	1250.54
629.12	1242.92
629.46	1235.80
629.81	1228.40
630.15	1221.15
630.50	1213.65
630.84	1205.44
631.19	1197.71
631.53	1190.25
631.88	1182.67
632.22	1175.19
632.57	1167.90
632.91	1160.39
633.26	1153.00
633.60	1145.72
633.95	1138.61
634.29	1131.59
634.64	1124.92
634.98	1117.54
635.32	1110.42
635.67	1103.85
636.01	1097.14
636.36	1090.30
636.70	1083.83
637.05	1077.22
637.39	1070.72
637.73	1064.32
638.08	1058.45
638.42	1052.38
638.77	1045.96
639.11	1039.38
639.45	1032.99
639.80	1026.31
640.14	1019.86
640.49	1013.35
640.83	1007.01
641.17	1000.74
641.52	994.47
641.86	987.99
642.20	982.16
642.55	975.84
642.89	969.30
643.23	962.90
643.58	957.18
643.92	950.86
644.26	944.80
644.61	938.86
644.95	932.78
645.29	926.23
645.64	919.52
645.98	913.22
646.32	907.40
646.66	901.32
647.01	895.56
647.35	889.88
647.69	884.13
648.04	878.62
648.38	872.86
648.72	866.80
649.06	860.69
649.41	854.79
649.75	848.80
650.09	842.89
650.43	837.04
650.78	830.89
651.12	825.01
651.46	819.25
651.80	813.46
652.14	808.03
652.49	802.65
652.83	797.41
653.17	791.65
653.51	785.92
653.85	780.53
654.20	774.83
654.54	768.78
654.88	762.96
655.22	757.08
655.56	751.25
655.90	745.83
656.25	740.58
656.59	735.25
656.93	730.07
657.27	724.94
657.61	719.45
657.95	714.30
658.29	709.28
658.64	704.09
658.98	698.77
659.32	693.29
659.66	688.09
660.00	682.78
660.34	677.88
660.68	672.99
661.02	667.96
661.36	663.24
661.70	658.76
662.05	654.40
662.39	649.96
662.73	645.56
663.07	641.17
663.41	636.71
663.75	632.20
664.09	627.69
664.43	623.26
664.77	619.17
665.11	614.87
665.45	610.70
665.79	606.60
666.13	602.44
666.47	598.37
666.81	594.18
667.15	590.03
667.49	586.11
667.83	582.23
668.17	578.30
668.51	574.26
668.85	570.30
669.19	566.46
669.53	562.62
669.87	558.71
670.21	554.99
670.55	551.34
670.89	547.89
671.23	544.49
671.57	540.92
671.91	537.37
672.25	533.91
672.58	530.38
672.92	526.95
673.26	523.80
673.60	520.68
673.94	517.53
674.28	514.62
674.62	511.68
674.96	508.57
675.30	505.65
675.64	502.72
675.97	499.90
676.31	497.03
676.65	494.17
676.99	491.46
677.33	488.62
677.67	485.78
678.01	482.78
678.34	479.81
678.68	476.97
679.02	474.17
679.36	471.36
679.70	468.64
680.04	465.88
680.37	463.03
680.71	460.22
681.05	457.60
681.39	454.88
681.73	452.22
682.06	449.70
682.40	447.14
682.74	444.62
683.08	442.12
683.42	439.49
683.75	436.94
684.09	434.39
684.43	431.92
684.77	429.48
685.10	427.13
685.44	424.82
685.78	422.60
686.12	420.37
686.45	418.14
686.79	415.91
687.13	413.77
687.46	411.62
687.80	409.47
688.14	407.30
688.48	405.31
688.81	403.03
689.15	400.91
689.49	398.77
689.82	396.70
690.16	394.58
690.50	392.65
690.83	390.71
691.17	388.75
691.51	386.86
691.84	385.05
692.18	383.09
692.52	381.12
692.85	379.22
693.19	377.31
693.52	375.50
693.86	373.70
694.20	371.96
694.53	370.17
694.87	368.34
695.21	366.56
695.54	364.67
695.88	363.02
696.21	361.30
696.55	359.63
696.88	357.92
697.22	356.26
697.56	354.68
697.89	353.02
698.23	351.41
698.56	349.75
698.90	348.11
699.23	346.51
699.57	344.92
699.90	343.36
700.24	341.84
700.58	340.29
700.91	338.71
701.25	337.19
701.58	335.80
701.92	334.42
702.25	333.03
702.59	331.67
702.92	330.29
703.26	328.97
703.59	327.66
703.93	326.48
704.26	325.25
704.60	323.95
704.93	322.71
705.26	321.46
705.60	320.31
705.93	319.18
706.27	318.13
706.60	317.08
706.94	315.99
707.27	314.83
707.61	313.78
707.94	312.79
708.27	311.72
708.61	310.62
708.94	309.58
709.28	308.63
709.61	307.73
709.94	306.80
710.28	305.81
710.61	304.84
710.95	303.80
711.28	302.89
711.61	301.98
711.95	301.04
712.28	300.12
712.61	299.13
712.95	298.18
713.28	297.29
713.61	296.39
713.95	295.47
714.28	294.61
714.61	293.73
714.95	292.88
715.28	292.02
715.61	291.14
715.95	290.29
716.28	289.41
716.61	288.56
716.95	287.73
717.28	286.97
717.61	286.20
717.94	285.48
718.28	284.71
718.61	283.99
718.94	283.35
719.27	282.66
719.61	282.05
719.94	281.43
720.27	280.72
720.60	280.07
720.94	279.48
721.27	278.96
721.60	278.42
721.93	277.83
722.27	277.28
722.60	276.80
722.93	276.27
723.26	275.75
723.59	275.19
723.93	274.64
724.26	274.10
724.59	273.56
724.92	273.04
725.25	272.53
725.59	271.95
725.92	271.40
726.25	270.91
726.58	270.38
726.91	269.86
727.24	269.40
727.57	268.94
727.91	268.42
728.24	267.92
728.57	267.40
728.90	266.95
729.23	266.45
729.56	265.98
729.89	265.53
730.22	265.03
730.55	264.57
730.89	264.13
731.22	263.65
731.55	263.22
731.88	262.78
732.21	262.34
732.54	261.96
732.87	261.56
733.20	261.19
733.53	260.82
733.86	260.44
734.19	260.06
734.52	259.66
734.85	259.34
735.18	258.88
735.51	258.53
735.84	258.17
736.17	257.84
736.50	257.42
736.83	257.18
737.16	256.80
737.49	256.45
737.82	256.10
738.15	255.78
738.48	255.42
738.81	255.08
739.14	254.72
739.47	254.38
739.80	254.06
740.13	253.73
740.46	253.38
740.79	253.05
741.12	252.72
741.45	252.39
741.78	252.04
742.11	251.77
742.44	251.42
742.77	251.10
743.10	250.77
743.43	250.45
743.75	250.05
744.08	249.93
744.41	249.66
744.74	249.39
745.07	249.13
745.40	248.88
745.73	248.66
746.06	248.40
746.39	248.14
746.71	247.84
747.04	247.55
747.37	247.31
747.70	247.05
748.03	246.81
748.36	246.62
748.68	246.40
749.01	246.15
749.34	245.94
749.67	245.69
750.00	245.49
750.33	245.35
750.65	245.15
750.98	244.81
751.31	244.59
751.64	244.34
751.97	244.17
752.29	243.98
752.62	243.69
752.95	243.50
753.28	243.28
753.60	243.08
753.93	242.97
754.26	242.77
754.59	242.56
754.91	242.37
755.24	242.18
755.57	242.00
755.90	241.83
756.22	241.64
756.55	241.46
756.88	241.25
757.20	241.01
757.53	240.80
757.86	240.63
758.19	240.47
758.51	240.33
758.84	240.11
759.17	239.94
759.49	239.80
759.82	239.68
760.15	239.57
760.47	239.45
760.80	239.23
761.13	239.10
761.45	238.97
761.78	238.82
762.11	238.64
762.43	238.49
762.76	238.38
763.08	238.23
763.41	238.12
763.74	237.98
764.06	237.87
764.39	237.72
764.71	237.60
765.04	237.49
765.37	237.35
765.69	237.20
766.02	237.09
766.34	236.98
766.67	236.81
767.00	236.69
767.32	236.62
767.65	236.57
767.97	236.45
768.30	236.30
768.62	236.21
768.95	236.13
769.27	236.00
769.60	235.91
769.92	235.77
770.25	235.64
770.57	235.54
770.90	235.41
771.22	235.32
771.55	235.20
771.87	235.10
772.20	235.02
772.52	235.04
772.85	235.04
773.17	234.90
773.50	234.79
773.82	234.67
774.15	234.52
774.47	234.37
774.80	234.27
775.12	234.23
775.45	234.10
775.77	233.99
776.09	233.90
776.42	233.77
776.74	233.77
777.07	233.68
777.39	233.63
777.72	233.56
778.04	233.48
778.36	233.42
778.69	233.36
779.01	233.28
779.33	233.14
779.66	232.97
779.98	232.92
780.31	232.88
780.63	232.82
780.95	232.80
781.28	232.72
781.60	232.63
781.92	232.57
782.25	232.49
782.57	232.42
782.89	232.38
783.22	232.32
783.54	232.20
783.86	232.14
784.19	232.07
784.51	232.05
784.83	232.02
785.16	231.95
785.48	231.89
785.80	231.83
786.12	231.77
786.45	231.72
786.77	231.66
787.09	231.59
787.42	231.52
787.74	231.47
788.06	231.42
788.38	231.38
788.71	231.30
789.03	231.29
789.35	231.31
789.67	231.23
789.99	231.20
790.32	231.15
790.64	231.12
790.96	231.16
791.28	231.05
791.61	231.00
791.93	230.94
792.25	230.90
792.57	230.92
792.89	230.85
793.21	230.82
793.54	230.78
793.86	230.72
794.18	230.68
794.50	230.62
794.82	230.63
795.14	230.59
795.47	230.56
795.79	230.54
796.11	230.46
796.43	230.45
796.75	230.42
797.07	230.37
797.39	230.39
797.71	230.27
798.04	230.25
798.36	230.22
798.68	230.20
799.00	230.19
799.32	230.11
799.64	230.12
799.96	230.11
800.28	230.11
800.60	230.08
800.92	230.08
801.24	230.02
801.56	229.97
801.89	229.96
802.21	229.98
802.53	229.91
802.85	229.91
803.17	229.93
803.49	229.90
803.81	229.91
804.13	229.84
804.45	229.83
804.77	229.80
805.09	229.77
805.41	229.76
805.73	229.70
806.05	229.67
806.37	229.64
806.69	229.61
807.01	229.59
807.33	229.60
807.65	229.54
807.97	229.58
808.28	229.57
808.60	229.56
808.92	229.49
809.24	229.52
809.56	229.46
809.88	229.41
810.20	229.40
810.52	229.39
810.84	229.33
811.16	229.29
811.48	229.32
811.80	229.36
812.12	229.30
812.43	229.28
812.75	229.28
813.07	229.22
813.39	229.18
813.71	229.17
814.03	229.10
814.35	229.11
814.67	229.05
814.98	229.00
815.30	229.00
815.62	228.98
815.94	228.89
816.26	228.94
816.58	228.88
816.89	228.87
817.21	228.83
817.53	228.84
817.85	228.81
818.17	228.76
818.48	228.65
818.80	228.68
819.12	228.68
819.44	228.63
819.76	228.62
820.07	228.61
820.39	228.58
820.71	228.61
821.03	228.55
821.34	228.53
821.66	228.56
821.98	228.53
822.30	228.52
822.61	228.55
822.93	228.47
823.25	228.49
823.57	228.44
823.88	228.46
824.20	228.43
824.52	228.42
824.83	228.43
825.15	228.41
825.47	228.36
825.79	228.37
826.10	228.36
826.42	228.34
826.74	228.33
827.05	228.30
827.37	228.30
827.69	228.29
828.00	228.25
828.32	228.20
828.64	228.16
828.95	228.21
829.27	228.18
829.58	228.19
829.90	228.19
830.22	228.20
830.53	228.18
830.85	228.18
831.17	228.15
831.48	228.13
831.80	228.13
832.11	228.12
832.43	228.07
832.75	228.04
833.06	228.10
833.38	228.06
833.69	228.04
834.01	228.01
834.32	228.00
834.64	228.04
834.96	228.03
835.27	228.04
835.59	227.97
835.90	227.93
836.22	227.90
836.53	227.87
836.85	227.82
837.16	227.89
837.48	227.87
837.79	227.87
838.11	227.86
838.42	227.89
838.74	227.90
839.05	227.90
839.37	227.91
839.68	227.84
840.00	227.82
840.31	227.84
840.63	227.83
840.94	227.82
841.26	227.78
841.57	227.81
841.88	227.79
842.20	227.77
842.51	227.76
842.83	227.79
843.14	227.87
843.46	227.89
843.77	227.85
844.08	227.84
844.40	227.85
844.71	227.85
845.03	227.81
845.34	227.76
845.65	227.78
845.97	227.78
846.28	227.81
846.60	227.85
846.91	227.85
847.22	227.85
847.54	227.84
847.85	227.82
848.16	227.78
848.48	227.79
848.79	227.84
849.10	227.89
849.42	227.87
849.73	227.76
850.04	227.73
850.36	227.69
850.67	227.70
850.98	227.68
851.30	227.66
851.61	227.68
851.92	227.70
852.23	227.69
852.55	227.66
852.86	227.64
853.17	227.62
853.49	227.60
853.80	227.64
854.11	227.65
854.42	227.70
854.74	227.67
855.05	227.68
855.36	227.60
855.67	227.57
855.99	227.55
856.30	227.68
856.61	227.72
856.92	227.72
857.23	227.71
857.55	227.69
857.86	227.70
858.17	227.71
858.48	227.70
858.79	227.71
859.11	227.72
859.42	227.69
859.73	227.66
860.04	227.68
860.35	227.63
860.66	227.61
860.98	227.56
861.29	227.59
861.60	227.57
861.91	227.59
862.22	227.57
862.53	227.56
862.84	227.40
863.16	227.40
863.47	227.35
863.78	227.35
864.09	227.36
864.40	227.36
864.71	227.35
865.02	227.34
865.33	227.31
865.64	227.28
865.95	227.32
866.27	227.37
866.58	227.36
866.89	227.36
867.20	227.34
867.51	227.34
867.82	227.30
868.13	227.32
868.44	227.31
868.75	227.34
869.06	227.35
869.37	227.41
869.68	227.36
869.99	227.38
870.30	227.37
870.61	227.36
870.92	227.33
871.23	227.30
871.54	227.32
871.85	227.33
872.16	227.36
872.47	227.29
872.78	227.24
873.09	227.23
873.40	227.20
873.71	227.22
874.02	227.26
874.33	227.26
874.64	227.24
874.95	227.25
875.26	227.22
875.56	227.19
875.87	227.20
876.18	227.22
876.49	227.32
876.80	227.30
877.11	227.29
877.42	227.31
877.73	227.31
878.04	227.31
878.35	227.32
878.66	227.34
878.96	227.38
879.27	227.36
879.58	227.37
879.89	227.37
880.20	227.39
880.51	227.37
880.82	227.39
881.12	227.39
881.43	227.40
881.74	227.41
882.05	227.42
882.36	227.40
882.67	227.38
882.97	227.27
883.28	227.26
883.59	227.28
883.90	227.32
884.21	227.35
884.51	227.36
884.82	227.33
885.13	227.31
885.44	227.32
885.74	227.36
886.05	227.35
886.36	227.37
886.67	227.36
886.98	227.39
887.28	227.36
887.59	227.36
887.90	227.36
888.20	227.35
888.51	227.36
888.82	227.34
889.13	227.33
889.43	227.42
889.74	227.42
890.05	227.44
890.35	227.41
890.66	227.39
890.97	227.37
891.28	227.39
891.58	227.36
891.89	227.33
892.20	227.32
892.50	227.31
892.81	227.29
893.12	227.28
893.42	227.21
893.73	227.22
894.04	227.21
894.34	227.20
894.65	227.19
894.95	227.18
895.26	227.16
895.57	227.23
895.87	227.14
896.18	227.12
896.48	227.07
896.79	227.06
897.10	227.05
897.40	227.01
897.71	226.98
898.01	226.99
898.32	226.98
898.63	226.97
898.93	226.96
899.24	226.99
899.54	226.97
899.85	226.96
900.15	226.94
900.46	226.92
900.76	226.92
901.07	226.88
901.38	226.87
901.68	226.90
901.99	226.83
902.29	226.82
902.60	226.83
902.90	226.83
903.21	226.85
903.51	226.81
903.82	226.83
904.12	226.85
904.43	226.84
904.73	226.85
905.03	226.84
905.34	226.96
905.64	226.92
905.95	226.90
906.25	226.92
906.56	226.94
906.86	226.94
907.17	226.93
907.47	226.93
907.77	226.91
908.08	226.88
908.38	226.90
908.69	226.90
908.99	226.91
909.30	226.90
909.60	226.87
909.90	226.90
910.21	226.87
910.51	226.86
910.81	226.86
911.12	226.87
911.42	226.89
911.73	226.78
912.03	226.82
912.33	226.86
912.64	226.86
912.94	226.86
913.24	226.89
913.55	226.90
913.85	226.92
914.15	226.96
914.46	226.99
914.76	226.99
915.06	227.02
915.37	227.03
915.67	227.04
915.97	227.06
916.27	227.03
916.58	227.08
916.88	227.08
917.18	227.09
917.49	227.16
917.79	227.14
918.09	227.15
918.39	227.16
918.70	227.18
919.00	227.20
919.30	227.26
919.60	227.23
919.91	227.25
920.21	227.25
920.51	227.22
920.81	227.25
921.12	227.27
921.42	227.29
921.72	227.31
922.02	227.29
922.32	227.31
922.63	227.34
922.93	227.38
923.23	227.39
923.53	227.38
923.83	227.32
924.13	227.33
924.44	227.33
924.74	227.33
925.04	227.32
925.34	227.30
925.64	227.24
925.94	227.25
926.24	227.26
926.55	227.29
926.85	227.31
927.15	227.27
927.45	227.29
927.75	227.25
928.05	227.24
928.35	227.25
928.65	227.28
928.95	227.27
929.26	227.24
929.56	227.26
929.86	227.27
930.16	227.27
930.46	227.27
930.76	227.25
931.06	227.17
931.36	227.13
931.66	227.15
931.96	227.18
932.26	227.17
932.56	227.15
932.86	227.14
933.16	227.11
933.46	227.11
933.76	227.06
934.06	227.10
934.36	227.11
934.66	227.11
934.96	227.07
935.26	227.07
935.56	227.06
935.86	227.01
936.16	226.99
936.46	226.97
936.76	226.94
937.06	226.94
937.36	226.95
937.66	227.01
937.96	226.99
938.26	226.94
938.56	226.92
938.86	226.90
939.16	226.90
939.46	226.90
939.76	226.90
940.06	226.91
940.35	226.88
940.65	226.81
940.95	226.82
941.25	226.78
941.55	226.74
941.85	226.70
942.15	226.74
942.45	226.77
942.75	226.78
943.04	226.76
943.34	226.76
943.64	226.76
943.94	226.72
944.24	226.71
944.54	226.73
944.84	226.76
945.13	226.76
945.43	226.74
945.73	226.74
946.03	226.69
946.33	226.65
946.62	226.63
946.92	226.65
947.22	226.64
947.52	226.64
947.82	226.65
948.11	226.69
948.41	226.65
948.71	226.62
949.01	226.63
949.31	226.63
949.60	226.63
949.90	226.64
950.20	226.61
950.50	226.62
950.79	226.61
951.09	226.63
951.39	226.60
951.69	226.62
951.98	226.65
952.28	226.67
952.58	226.68
952.87	226.66
953.17	226.68
953.47	226.67
953.76	226.69
954.06	226.65
954.36	226.63
954.66	226.65
954.95	226.69
955.25	226.68
955.55	226.73
955.84	226.75
956.14	226.79
956.44	226.84
956.73	226.83
957.03	226.84
957.32	226.87
957.62	226.92
957.92	226.91
958.21	226.92
958.51	227.03
958.81	227.08
959.10	227.12
959.40	227.14
959.69	227.18
959.99	227.20
960.29	227.23
960.58	227.25
960.88	227.27
961.17	227.24
961.47	227.25
961.76	227.24
962.06	227.23
962.36	227.22
962.65	227.21
962.95	227.21
963.24	227.19
963.54	227.17
963.83	227.15
964.13	227.15
964.42	227.10
964.72	227.03
965.01	227.04
965.31	227.05
965.60	227.04
965.90	227.08
966.19	227.08
966.49	227.08
966.78	227.08
967.08	227.03
967.37	227.04
967.67	227.05
967.96	227.07
968.26	227.06
968.55	227.09
968.85	227.09
969.14	227.13
969.43	227.15
969.73	227.13
970.02	227.15
970.32	227.17
970.61	227.19
970.91	227.13
971.20	227.10
971.49	227.07
971.79	227.06
972.08	226.99
972.38	226.98
972.67	226.96
972.96	226.97
973.26	226.98
973.55	226.99
973.85	226.97
974.14	226.93
974.43	226.92
974.73	226.86
975.02	226.86
975.31	226.79
975.61	226.75
975.90	226.74
976.19	226.69
976.49	226.69
976.78	226.66
977.07	226.69
977.37	226.71
977.66	226.73
977.95	226.71
978.24	226.69
978.54	226.70
978.83	226.73
979.12	226.73
979.42	226.74
979.71	226.69
980.00	226.69
980.29	226.71
980.59	226.69
980.88	226.71
981.17	226.69
981.46	226.73
981.76	226.76
982.05	226.79
982.34	226.81
982.63	226.79
982.93	226.81
983.22	226.78
983.51	226.78
983.80	226.77
984.09	226.80
984.39	226.80
984.68	226.76
984.97	226.76
985.26	226.75
985.55	226.71
985.85	226.71
986.14	226.69
986.43	226.70
986.72	226.72
987.01	226.69
987.30	226.68
987.59	226.65
987.89	226.63
988.18	226.60
988.47	226.60
988.76	226.58
989.05	226.56
989.34	226.57
989.63	226.58
989.92	226.55
990.22	226.51
990.51	226.49
990.80	226.51
991.09	226.52
991.38	226.52
991.67	226.55
991.96	226.56
992.25	226.61
992.54	226.60
992.83	226.61
993.12	226.62
993.41	226.65
993.70	226.69
993.99	226.71
994.28	226.77
994.58	226.77
994.87	226.75
995.16	226.77
995.45	226.77
995.74	226.74
996.03	226.78
996.32	226.82
996.61	226.85
996.90	226.84
997.19	226.85
997.48	226.85
997.77	226.84
998.06	226.85
998.34	226.83
998.63	226.83
998.92	226.84
999.21	226.87
999.50	226.85
999.79	226.84
1000.08	226.83
1000.37	226.82
1000.66	226.83
1000.95	226.87
1001.24	226.87
1001.53	226.88
1001.82	226.90
1002.11	226.86
1002.40	226.87
1002.68	226.92
1002.97	227.00
1003.26	226.96
1003.55	226.93
1003.84	226.98
1004.13	227.02
1004.42	227.01
1004.71	227.02
1004.99	227.00
1005.28	227.03
1005.57	227.02
1005.86	226.99
1006.15	226.97
1006.44	226.93
1006.72	226.93
1007.01	226.92
1007.30	226.93
1007.59	226.94
1007.88	226.91
1008.17	226.90
1008.45	226.86
1008.74	226.81
1009.03	226.75
1009.32	226.79
1009.60	226.80
1009.89	226.75
1010.18	226.70
1010.47	226.70
1010.76	226.67
1011.04	226.63
1011.33	226.64
1011.62	226.64
1011.91	226.66
1012.19	226.67
1012.48	226.69
1012.77	226.67
1013.05	226.73
1013.34	226.73
1013.63	226.73
1013.92	226.75
1014.20	226.78
1014.49	226.79
1014.78	226.79
1015.06	226.75
1015.35	226.76
1015.64	226.79
1015.92	226.83
1016.21	226.81
1016.50	226.78
1016.78	226.80
1017.07	226.81
1017.36	226.76
1017.64	226.75
1017.93	226.75
1018.22	226.75
1018.50	226.74
1018.79	226.72
1019.08	226.66
1019.36	226.63
1019.65	226.59
1019.93	226.64
1020.22	226.63
1020.51	226.66
1020.79	226.67
1021.08	226.80
1021.36	226.39
1021.65	226.53
1021.94	226.64
1022.22	226.08
1022.51	226.19
1022.79	227.54
1023.08	226.67
1023.36	227.50
1023.65	226.72
>>>>>End Processed Spectral Data<<<<<
