SpectraSuite Data File
++++++++++++++++++++++++++++++++++++
Date: Fri Feb 01 17:35:26 EST 2013
User: group
Dark Spectrum Present: No
Reference Spectrum Present: No
Number of Sampled Component Spectra: 1
Spectrometers: USB2E7196
Integration Time (usec): 35000 (USB2E7196)
Spectra Averaged: 100 (USB2E7196)
Boxcar Smoothing: 10 (USB2E7196)
Correct for Electrical Dark: No (USB2E7196)
Strobe/Lamp Enabled: No (USB2E7196)
Correct for Detector Non-linearity: No (USB2E7196)
Correct for Stray Light: No (USB2E7196)
Number of Pixels in Processed Spectrum: 2048
>>>>>Begin Processed Spectral Data<<<<<
339.09	0.00
339.48	213.39
339.86	214.59
340.24	216.06
340.63	217.09
341.01	219.77
341.39	219.55
341.78	221.61
342.16	221.98
342.54	223.12
342.93	211.52
343.31	222.22
343.69	222.74
344.07	223.21
344.46	223.62
344.84	223.99
345.22	224.25
345.60	224.52
345.99	224.71
346.37	224.87
346.75	224.94
347.13	225.02
347.52	225.03
347.90	225.11
348.28	225.13
348.66	225.16
349.05	225.18
349.43	225.22
349.81	225.27
350.19	225.30
350.57	225.33
350.96	225.41
351.34	225.47
351.72	225.55
352.10	225.64
352.48	225.72
352.87	225.80
353.25	225.86
353.63	225.93
354.01	225.98
354.39	226.04
354.77	226.14
355.15	226.22
355.54	226.26
355.92	226.28
356.30	226.35
356.68	226.48
357.06	226.50
357.44	226.58
357.82	226.63
358.20	226.70
358.58	226.78
358.97	226.82
359.35	226.92
359.73	227.03
360.11	227.09
360.49	227.14
360.87	227.15
361.25	227.21
361.63	227.28
362.01	227.30
362.39	227.36
362.77	227.39
363.15	227.41
363.53	227.45
363.91	227.46
364.29	227.49
364.67	227.42
365.05	227.45
365.43	227.43
365.81	227.47
366.19	227.52
366.57	227.54
366.95	227.52
367.33	227.46
367.71	227.43
368.09	227.41
368.47	227.37
368.85	227.37
369.23	227.34
369.61	227.29
369.99	227.29
370.37	227.24
370.75	227.26
371.13	227.23
371.51	227.15
371.89	227.13
372.27	227.07
372.65	227.04
373.03	226.98
373.41	226.92
373.78	226.87
374.16	226.73
374.54	226.64
374.92	226.60
375.30	226.53
375.68	226.46
376.06	226.39
376.44	226.35
376.82	226.27
377.19	226.23
377.57	226.15
377.95	226.07
378.33	226.02
378.71	225.89
379.09	225.83
379.47	225.82
379.84	225.76
380.22	225.69
380.60	225.60
380.98	225.55
381.36	225.50
381.73	225.41
382.11	225.36
382.49	225.32
382.87	225.26
383.25	225.22
383.62	225.28
384.00	225.21
384.38	225.16
384.76	225.15
385.13	225.15
385.51	225.11
385.89	225.04
386.27	224.98
386.64	224.91
387.02	224.87
387.40	224.83
387.78	224.77
388.15	224.74
388.53	224.71
388.91	224.68
389.29	224.65
389.66	224.64
390.04	224.62
390.42	224.61
390.79	224.60
391.17	224.61
391.55	224.47
391.92	224.48
392.30	224.46
392.68	224.41
393.05	224.38
393.43	224.38
393.81	224.44
394.18	224.44
394.56	224.45
394.94	224.50
395.31	224.49
395.69	224.55
396.06	224.61
396.44	224.65
396.82	224.71
397.19	224.77
397.57	224.83
397.95	224.91
398.32	224.93
398.70	224.97
399.07	225.02
399.45	225.10
399.82	225.16
400.20	225.22
400.58	225.30
400.95	225.32
401.33	225.42
401.70	225.55
402.08	225.64
402.45	225.77
402.83	225.88
403.20	225.98
403.58	226.08
403.95	226.19
404.33	226.29
404.71	226.38
405.08	226.60
405.46	226.71
405.83	226.82
406.21	226.96
406.58	227.12
406.96	227.26
407.33	227.39
407.70	227.57
408.08	227.88
408.45	228.11
408.83	228.35
409.20	228.54
409.58	228.72
409.95	228.99
410.33	229.29
410.70	229.53
411.08	229.83
411.45	230.13
411.82	230.42
412.20	230.82
412.57	231.27
412.95	231.55
413.32	231.96
413.69	232.38
414.07	232.84
414.44	233.32
414.82	233.84
415.19	234.40
415.56	234.99
415.94	235.57
416.31	236.26
416.68	236.95
417.06	237.72
417.43	238.41
417.81	239.22
418.18	240.04
418.55	240.91
418.93	241.83
419.30	242.77
419.67	243.76
420.04	244.76
420.42	245.78
420.79	247.02
421.16	248.26
421.54	249.55
421.91	250.86
422.28	252.17
422.66	253.54
423.03	254.95
423.40	256.35
423.77	257.78
424.15	259.23
424.52	260.77
424.89	262.45
425.26	264.06
425.64	265.54
426.01	267.22
426.38	268.97
426.75	270.73
427.13	272.54
427.50	274.43
427.87	276.38
428.24	278.39
428.61	280.22
428.99	282.24
429.36	284.44
429.73	286.57
430.10	288.66
430.47	290.83
430.85	293.05
431.22	295.39
431.59	297.90
431.96	300.26
432.33	302.90
432.70	305.42
433.08	308.40
433.45	311.19
433.82	313.89
434.19	316.87
434.56	319.78
434.93	322.56
435.30	325.35
435.68	328.37
436.05	331.30
436.42	334.23
436.79	336.90
437.16	339.74
437.53	342.72
437.90	345.68
438.27	348.53
438.64	351.47
439.01	354.19
439.38	356.54
439.75	358.83
440.13	361.41
440.50	363.82
440.87	365.75
441.24	367.77
441.61	370.06
441.98	371.64
442.35	373.56
442.72	375.51
443.09	377.35
443.46	378.40
443.83	379.04
444.20	379.56
444.57	380.39
444.94	380.68
445.31	381.08
445.68	381.51
446.05	381.66
446.42	381.27
446.79	380.84
447.16	380.38
447.53	380.04
447.90	378.84
448.27	377.65
448.64	376.03
449.01	374.89
449.37	372.83
449.74	370.87
450.11	368.52
450.48	365.96
450.85	363.36
451.22	361.19
451.59	359.07
451.96	357.07
452.33	354.36
452.70	351.89
453.07	348.87
453.43	345.80
453.80	342.91
454.17	340.09
454.54	337.45
454.91	334.62
455.28	331.84
455.65	329.22
456.02	326.66
456.38	324.39
456.75	321.60
457.12	319.26
457.49	316.92
457.86	314.63
458.23	312.66
458.59	310.50
458.96	308.28
459.33	306.33
459.70	304.40
460.07	302.86
460.43	301.08
460.80	299.45
461.17	298.01
461.54	296.44
461.91	295.00
462.27	293.45
462.64	292.13
463.01	290.68
463.38	289.34
463.74	287.94
464.11	286.73
464.48	285.64
464.85	284.48
465.21	283.59
465.58	282.65
465.95	281.52
466.32	280.57
466.68	279.62
467.05	278.68
467.42	277.72
467.78	276.71
468.15	275.78
468.52	275.07
468.88	274.16
469.25	273.33
469.62	272.67
469.98	272.01
470.35	271.36
470.72	270.76
471.08	270.08
471.45	269.47
471.82	268.89
472.18	268.26
472.55	267.78
472.92	267.23
473.28	266.77
473.65	266.30
474.02	265.85
474.38	265.43
474.75	265.13
475.11	264.76
475.48	264.51
475.85	264.28
476.21	264.04
476.58	263.82
476.94	263.65
477.31	263.46
477.67	263.28
478.04	263.16
478.41	263.13
478.77	263.17
479.14	263.14
479.50	263.16
479.87	263.24
480.23	263.33
480.60	263.40
480.96	263.42
481.33	263.64
481.69	263.83
482.06	264.06
482.42	264.22
482.79	264.49
483.15	264.81
483.52	265.18
483.88	265.49
484.25	265.85
484.61	266.29
484.98	266.71
485.34	267.27
485.71	267.84
486.07	268.38
486.44	268.91
486.80	269.61
487.17	270.32
487.53	271.16
487.90	272.00
488.26	272.90
488.62	273.91
488.99	274.85
489.35	275.89
489.72	277.01
490.08	278.20
490.44	279.40
490.81	280.70
491.17	282.01
491.54	283.51
491.90	285.06
492.26	286.67
492.63	288.43
492.99	290.20
493.36	292.07
493.72	294.07
494.08	296.19
494.45	298.42
494.81	300.78
495.17	303.14
495.54	305.64
495.90	308.30
496.26	311.09
496.63	313.99
496.99	317.09
497.35	320.28
497.72	323.65
498.08	327.17
498.44	330.80
498.80	334.70
499.17	338.70
499.53	342.80
499.89	347.15
500.26	351.58
500.62	356.21
500.98	361.07
501.34	366.08
501.71	371.32
502.07	376.68
502.43	382.18
502.79	387.91
503.16	393.88
503.52	400.11
503.88	406.38
504.24	412.96
504.60	419.72
504.97	426.77
505.33	433.98
505.69	441.56
506.05	449.22
506.41	456.92
506.78	464.91
507.14	473.22
507.50	481.75
507.86	490.59
508.22	499.60
508.59	508.68
508.95	518.07
509.31	527.72
509.67	537.64
510.03	547.68
510.39	558.00
510.75	568.54
511.12	579.15
511.48	590.18
511.84	601.33
512.20	612.54
512.56	624.11
512.92	635.89
513.28	647.95
513.64	660.06
514.00	672.48
514.37	685.09
514.73	697.79
515.09	710.41
515.45	723.29
515.81	736.50
516.17	750.12
516.53	763.90
516.89	777.65
517.25	791.43
517.61	805.47
517.97	819.53
518.33	833.61
518.69	848.03
519.05	862.58
519.41	877.28
519.77	892.31
520.13	907.23
520.49	922.19
520.85	936.99
521.21	952.24
521.57	967.94
521.93	983.17
522.29	998.97
522.65	1014.77
523.01	1030.57
523.37	1046.04
523.73	1061.67
524.09	1077.21
524.45	1092.89
524.81	1108.99
525.17	1125.21
525.53	1141.52
525.89	1157.74
526.25	1173.98
526.61	1189.82
526.97	1206.15
527.33	1222.18
527.68	1238.25
528.04	1254.29
528.40	1270.38
528.76	1286.93
529.12	1303.05
529.48	1319.46
529.84	1335.10
530.20	1351.26
530.56	1367.64
530.91	1384.48
531.27	1400.78
531.63	1416.65
531.99	1432.90
532.35	1448.41
532.71	1463.85
533.07	1479.73
533.42	1495.34
533.78	1511.01
534.14	1526.85
534.50	1541.71
534.86	1557.10
535.21	1572.02
535.57	1587.46
535.93	1602.65
536.29	1617.12
536.65	1631.81
537.00	1646.14
537.36	1661.14
537.72	1675.34
538.08	1689.48
538.44	1703.09
538.79	1716.80
539.15	1730.19
539.51	1743.61
539.87	1757.69
540.22	1771.21
540.58	1784.69
540.94	1797.71
541.29	1810.17
541.65	1822.66
542.01	1835.68
542.37	1847.89
542.72	1860.04
543.08	1871.70
543.44	1883.87
543.79	1895.00
544.15	1905.94
544.51	1917.62
544.87	1928.35
545.22	1939.13
545.58	1949.43
545.94	1959.27
546.29	1969.07
546.65	1979.09
547.01	1988.47
547.36	1997.26
547.72	2005.86
548.07	2014.03
548.43	2022.21
548.79	2030.43
549.14	2038.32
549.50	2045.75
549.86	2053.46
550.21	2061.02
550.57	2068.40
550.92	2075.38
551.28	2082.68
551.64	2089.86
551.99	2096.40
552.35	2102.81
552.70	2109.15
553.06	2115.33
553.41	2121.81
553.77	2127.98
554.13	2134.24
554.48	2140.46
554.84	2146.30
555.19	2151.82
555.55	2157.15
555.90	2162.04
556.26	2167.44
556.61	2172.38
556.97	2177.23
557.32	2181.92
557.68	2186.38
558.03	2190.94
558.39	2194.76
558.74	2199.66
559.10	2204.06
559.45	2208.24
559.81	2212.89
560.16	2217.21
560.52	2220.94
560.87	2224.68
561.23	2227.79
561.58	2230.97
561.94	2233.99
562.29	2236.52
562.64	2239.76
563.00	2242.71
563.35	2246.60
563.71	2250.02
564.06	2253.51
564.42	2256.66
564.77	2259.57
565.12	2262.44
565.48	2264.86
565.83	2267.28
566.19	2269.12
566.54	2270.22
566.89	2271.90
567.25	2273.03
567.60	2274.60
567.96	2276.72
568.31	2278.02
568.66	2279.50
569.02	2280.68
569.37	2281.38
569.72	2282.81
570.08	2283.31
570.43	2283.77
570.78	2283.82
571.14	2282.82
571.49	2282.01
571.84	2282.09
572.20	2281.55
572.55	2280.93
572.90	2279.79
573.26	2278.84
573.61	2277.44
573.96	2276.42
574.31	2273.73
574.67	2271.20
575.02	2268.10
575.37	2264.97
575.72	2261.79
576.08	2258.86
576.43	2255.83
576.78	2252.78
577.13	2249.87
577.49	2247.02
577.84	2243.93
578.19	2240.34
578.54	2237.10
578.90	2233.34
579.25	2228.19
579.60	2223.57
579.95	2218.98
580.30	2214.30
580.66	2209.51
581.01	2204.90
581.36	2200.04
581.71	2196.41
582.06	2192.44
582.42	2188.38
582.77	2183.75
583.12	2179.40
583.47	2175.26
583.82	2170.93
584.17	2166.03
584.53	2160.88
584.88	2155.61
585.23	2150.25
585.58	2145.16
585.93	2139.86
586.28	2135.18
586.63	2130.52
586.98	2125.71
587.34	2121.08
587.69	2116.46
588.04	2111.59
588.39	2106.22
588.74	2100.14
589.09	2094.19
589.44	2087.77
589.79	2081.67
590.14	2076.03
590.49	2069.78
590.84	2063.56
591.19	2057.61
591.54	2051.25
591.89	2044.41
592.25	2038.01
592.60	2030.94
592.95	2023.73
593.30	2016.69
593.65	2009.33
594.00	2002.38
594.35	1995.29
594.70	1987.45
595.05	1980.61
595.40	1973.39
595.75	1966.21
596.10	1960.27
596.45	1953.70
596.80	1947.54
597.15	1941.27
597.50	1934.65
597.85	1928.39
598.19	1921.90
598.54	1915.16
598.89	1908.78
599.24	1902.79
599.59	1896.38
599.94	1890.28
600.29	1884.05
600.64	1877.57
600.99	1870.41
601.34	1863.72
601.69	1856.82
602.04	1850.28
602.39	1842.98
602.74	1836.38
603.08	1829.75
603.43	1822.97
603.78	1815.80
604.13	1808.53
604.48	1801.51
604.83	1794.62
605.18	1787.88
605.53	1779.97
605.87	1771.88
606.22	1764.60
606.57	1756.73
606.92	1749.10
607.27	1742.17
607.62	1735.42
607.96	1728.32
608.31	1721.86
608.66	1714.39
609.01	1707.02
609.36	1699.39
609.70	1691.41
610.05	1683.53
610.40	1675.83
610.75	1667.66
611.10	1659.98
611.44	1651.51
611.79	1643.39
612.14	1634.74
612.49	1625.39
612.83	1616.80
613.18	1608.57
613.53	1600.41
613.88	1591.93
614.22	1583.73
614.57	1574.95
614.92	1566.70
615.27	1559.20
615.61	1550.73
615.96	1542.56
616.31	1534.65
616.65	1527.20
617.00	1519.45
617.35	1511.40
617.70	1502.99
618.04	1494.50
618.39	1486.08
618.74	1478.62
619.08	1470.23
619.43	1462.47
619.78	1455.39
620.12	1448.28
620.47	1440.80
620.82	1432.63
621.16	1425.00
621.51	1417.29
621.85	1409.48
622.20	1400.89
622.55	1392.30
622.89	1384.33
623.24	1376.47
623.59	1368.92
623.93	1361.40
624.28	1354.12
624.62	1346.69
624.97	1339.48
625.32	1332.39
625.66	1325.26
626.01	1317.95
626.35	1310.52
626.70	1302.66
627.04	1294.90
627.39	1286.98
627.73	1279.44
628.08	1272.36
628.43	1265.10
628.77	1257.72
629.12	1250.13
629.46	1242.89
629.81	1235.27
630.15	1227.87
630.50	1220.55
630.84	1212.41
631.19	1204.25
631.53	1196.55
631.88	1188.79
632.22	1181.08
632.57	1173.81
632.91	1166.17
633.26	1158.73
633.60	1151.18
633.95	1143.87
634.29	1136.70
634.64	1129.88
634.98	1122.43
635.32	1115.22
635.67	1108.38
636.01	1101.64
636.36	1094.90
636.70	1088.24
637.05	1081.64
637.39	1075.12
637.73	1068.46
638.08	1062.51
638.42	1056.44
638.77	1049.99
639.11	1043.46
639.45	1037.00
639.80	1030.25
640.14	1023.92
640.49	1017.37
640.83	1011.03
641.17	1004.79
641.52	998.53
641.86	992.03
642.20	986.14
642.55	979.70
642.89	973.34
643.23	966.70
643.58	960.81
643.92	954.69
644.26	948.65
644.61	942.53
644.95	936.62
645.29	930.05
645.64	923.36
645.98	917.08
646.32	911.06
646.66	904.98
647.01	899.16
647.35	893.42
647.69	887.48
648.04	881.88
648.38	876.19
648.72	870.16
649.06	864.27
649.41	858.32
649.75	852.44
650.09	846.44
650.43	840.71
650.78	834.57
651.12	828.47
651.46	822.77
651.80	817.17
652.14	811.71
652.49	806.31
652.83	801.04
653.17	795.37
653.51	789.68
653.85	784.25
654.20	778.61
654.54	772.61
654.88	766.85
655.22	760.94
655.56	755.14
655.90	749.62
656.25	744.23
656.59	738.83
656.93	733.71
657.27	728.55
657.61	723.01
657.95	717.88
658.29	712.81
658.64	707.41
658.98	701.94
659.32	696.43
659.66	691.17
660.00	685.98
660.34	680.99
660.68	676.05
661.02	670.91
661.36	666.16
661.70	661.57
662.05	657.24
662.39	652.97
662.73	648.51
663.07	644.11
663.41	639.69
663.75	635.22
664.09	630.62
664.43	626.21
664.77	622.15
665.11	617.85
665.45	613.72
665.79	609.70
666.13	605.63
666.47	601.52
666.81	597.43
667.15	593.18
667.49	589.19
667.83	585.34
668.17	581.48
668.51	577.39
668.85	573.30
669.19	569.31
669.53	565.45
669.87	561.60
670.21	557.86
670.55	554.11
670.89	550.66
671.23	547.23
671.57	543.75
671.91	540.27
672.25	536.76
672.58	533.22
672.92	529.73
673.26	526.52
673.60	523.33
673.94	520.19
674.28	517.28
674.62	514.32
674.96	511.22
675.30	508.29
675.64	505.40
675.97	502.65
676.31	499.77
676.65	496.81
676.99	494.05
677.33	491.15
677.67	488.36
678.01	485.35
678.34	482.38
678.68	479.37
679.02	476.46
679.36	473.66
679.70	470.94
680.04	468.23
680.37	465.34
680.71	462.53
681.05	459.85
681.39	457.11
681.73	454.46
682.06	451.90
682.40	449.29
682.74	446.72
683.08	444.11
683.42	441.51
683.75	438.97
684.09	436.34
684.43	433.93
684.77	431.39
685.10	428.96
685.44	426.57
685.78	424.31
686.12	422.06
686.45	419.77
686.79	417.41
687.13	415.17
687.46	412.98
687.80	410.80
688.14	408.56
688.48	406.52
688.81	404.27
689.15	402.18
689.49	399.99
689.82	397.89
690.16	395.77
690.50	393.78
690.83	391.83
691.17	389.81
691.51	387.86
691.84	386.04
692.18	384.17
692.52	382.24
692.85	380.28
693.19	378.35
693.52	376.49
693.86	374.64
694.20	372.80
694.53	371.01
694.87	369.14
695.21	367.31
695.54	365.42
695.88	363.65
696.21	361.82
696.55	360.20
696.88	358.47
697.22	356.80
697.56	355.14
697.89	353.48
698.23	351.87
698.56	350.25
698.90	348.63
699.23	346.94
699.57	345.38
699.90	343.80
700.24	342.24
700.58	340.70
700.91	339.29
701.25	337.86
701.58	336.45
701.92	335.07
702.25	333.64
702.59	332.28
702.92	330.95
703.26	329.58
703.59	328.28
703.93	327.10
704.26	325.87
704.60	324.59
704.93	323.33
705.26	322.10
705.60	320.85
705.93	319.69
706.27	318.62
706.60	317.51
706.94	316.42
707.27	315.29
707.61	314.16
707.94	313.08
708.27	311.99
708.61	310.89
708.94	309.85
709.28	308.87
709.61	307.86
709.94	306.90
710.28	305.92
710.61	304.86
710.95	303.72
711.28	302.79
711.61	301.83
711.95	300.89
712.28	299.89
712.61	298.97
712.95	297.99
713.28	297.07
713.61	296.14
713.95	295.26
714.28	294.37
714.61	293.48
714.95	292.61
715.28	291.69
715.61	290.81
715.95	289.94
716.28	289.09
716.61	288.26
716.95	287.38
717.28	286.62
717.61	285.85
717.94	285.11
718.28	284.28
718.61	283.50
718.94	282.75
719.27	282.10
719.61	281.37
719.94	280.71
720.27	279.97
720.60	279.31
720.94	278.64
721.27	278.02
721.60	277.46
721.93	276.85
722.27	276.31
722.60	275.71
722.93	275.16
723.26	274.57
723.59	273.99
723.93	273.44
724.26	272.89
724.59	272.29
724.92	271.73
725.25	271.24
725.59	270.72
725.92	270.18
726.25	269.61
726.58	269.11
726.91	268.61
727.24	268.12
727.57	267.67
727.91	267.15
728.24	266.66
728.57	266.18
728.90	265.70
729.23	265.20
729.56	264.80
729.89	264.31
730.22	263.82
730.55	263.35
730.89	262.89
731.22	262.42
731.55	262.00
731.88	261.58
732.21	261.12
732.54	260.72
732.87	260.31
733.20	259.93
733.53	259.50
733.86	259.16
734.19	258.76
734.52	258.33
734.85	258.04
735.18	257.66
735.51	257.29
735.84	256.91
736.17	256.55
736.50	256.12
736.83	255.85
737.16	255.55
737.49	255.22
737.82	254.87
738.15	254.55
738.48	254.20
738.81	253.84
739.14	253.52
739.47	253.17
739.80	252.86
740.13	252.52
740.46	252.22
740.79	251.86
741.12	251.57
741.45	251.30
741.78	250.91
742.11	250.62
742.44	250.27
742.77	249.96
743.10	249.65
743.43	249.33
743.75	248.94
744.08	248.77
744.41	248.48
744.74	248.23
745.07	247.94
745.40	247.70
745.73	247.50
746.06	247.22
746.39	246.95
746.71	246.66
747.04	246.43
747.37	246.17
747.70	245.94
748.03	245.62
748.36	245.35
748.68	245.10
749.01	244.82
749.34	244.60
749.67	244.37
750.00	244.15
750.33	244.01
750.65	243.83
750.98	243.46
751.31	243.25
751.64	243.01
751.97	242.83
752.29	242.61
752.62	242.35
752.95	242.15
753.28	241.93
753.60	241.72
753.93	241.54
754.26	241.36
754.59	241.14
754.91	240.95
755.24	240.74
755.57	240.60
755.90	240.41
756.22	240.20
756.55	239.98
756.88	239.73
757.20	239.47
757.53	239.23
757.86	239.07
758.19	238.89
758.51	238.72
758.84	238.51
759.17	238.35
759.49	238.19
759.82	238.04
760.15	237.90
760.47	237.77
760.80	237.57
761.13	237.42
761.45	237.22
761.78	237.11
762.11	236.96
762.43	236.79
762.76	236.67
763.08	236.56
763.41	236.43
763.74	236.30
764.06	236.16
764.39	236.04
764.71	235.89
765.04	235.75
765.37	235.60
765.69	235.48
766.02	235.33
766.34	235.20
766.67	235.05
767.00	234.92
767.32	234.80
767.65	234.78
767.97	234.61
768.30	234.51
768.62	234.38
768.95	234.24
769.27	234.09
769.60	233.99
769.92	233.86
770.25	233.74
770.57	233.65
770.90	233.53
771.22	233.44
771.55	233.34
771.87	233.24
772.20	233.13
772.52	233.10
772.85	233.11
773.17	233.01
773.50	232.89
773.82	232.81
774.15	232.70
774.47	232.54
774.80	232.47
775.12	232.40
775.45	232.31
775.77	232.24
776.09	232.18
776.42	232.10
776.74	232.04
777.07	231.94
777.39	231.89
777.72	231.83
778.04	231.73
778.36	231.65
778.69	231.56
779.01	231.52
779.33	231.37
779.66	231.18
779.98	231.11
780.31	231.08
780.63	231.04
780.95	230.99
781.28	230.91
781.60	230.85
781.92	230.76
782.25	230.68
782.57	230.61
782.89	230.55
783.22	230.45
783.54	230.40
783.86	230.37
784.19	230.29
784.51	230.25
784.83	230.18
785.16	230.12
785.48	230.08
785.80	230.00
786.12	229.96
786.45	229.93
786.77	229.88
787.09	229.82
787.42	229.70
787.74	229.67
788.06	229.60
788.38	229.56
788.71	229.53
789.03	229.50
789.35	229.49
789.67	229.43
789.99	229.43
790.32	229.36
790.64	229.30
790.96	229.33
791.28	229.27
791.61	229.25
791.93	229.21
792.25	229.15
792.57	229.19
792.89	229.13
793.21	229.10
793.54	229.05
793.86	228.99
794.18	229.00
794.50	228.90
794.82	228.86
795.14	228.82
795.47	228.80
795.79	228.75
796.11	228.69
796.43	228.62
796.75	228.58
797.07	228.54
797.39	228.51
797.71	228.44
798.04	228.41
798.36	228.36
798.68	228.33
799.00	228.34
799.32	228.26
799.64	228.24
799.96	228.21
800.28	228.21
800.60	228.16
800.92	228.12
801.24	228.09
801.56	228.09
801.89	228.07
802.21	228.00
802.53	227.97
802.85	227.97
803.17	228.04
803.49	227.96
803.81	227.91
804.13	227.88
804.45	227.83
804.77	227.79
805.09	227.78
805.41	227.73
805.73	227.65
806.05	227.59
806.37	227.56
806.69	227.51
807.01	227.45
807.33	227.45
807.65	227.38
807.97	227.42
808.28	227.37
808.60	227.36
808.92	227.35
809.24	227.35
809.56	227.31
809.88	227.22
810.20	227.23
810.52	227.25
810.84	227.21
811.16	227.20
811.48	227.16
811.80	227.16
812.12	227.17
812.43	227.18
812.75	227.15
813.07	227.07
813.39	227.06
813.71	227.02
814.03	226.99
814.35	227.01
814.67	226.94
814.98	226.94
815.30	226.91
815.62	226.85
815.94	226.81
816.26	226.83
816.58	226.77
816.89	226.75
817.21	226.71
817.53	226.68
817.85	226.63
818.17	226.59
818.48	226.55
818.80	226.53
819.12	226.52
819.44	226.51
819.76	226.53
820.07	226.52
820.39	226.51
820.71	226.51
821.03	226.47
821.34	226.45
821.66	226.44
821.98	226.44
822.30	226.43
822.61	226.47
822.93	226.39
823.25	226.40
823.57	226.39
823.88	226.41
824.20	226.39
824.52	226.40
824.83	226.42
825.15	226.39
825.47	226.40
825.79	226.39
826.10	226.42
826.42	226.42
826.74	226.41
827.05	226.39
827.37	226.37
827.69	226.38
828.00	226.37
828.32	226.35
828.64	226.33
828.95	226.40
829.27	226.33
829.58	226.35
829.90	226.38
830.22	226.38
830.53	226.31
830.85	226.32
831.17	226.29
831.48	226.26
831.80	226.26
832.11	226.26
832.43	226.21
832.75	226.18
833.06	226.22
833.38	226.21
833.69	226.21
834.01	226.20
834.32	226.18
834.64	226.19
834.96	226.18
835.27	226.16
835.59	226.11
835.90	226.14
836.22	226.11
836.53	226.05
836.85	226.04
837.16	226.16
837.48	226.16
837.79	226.18
838.11	226.22
838.42	226.21
838.74	226.21
839.05	226.22
839.37	226.20
839.68	226.13
840.00	226.12
840.31	226.10
840.63	226.06
840.94	226.04
841.26	225.98
841.57	225.95
841.88	225.96
842.20	225.91
842.51	225.89
842.83	225.91
843.14	226.00
843.46	226.01
843.77	225.96
844.08	225.93
844.40	225.89
844.71	225.87
845.03	225.87
845.34	225.80
845.65	225.77
845.97	225.78
846.28	225.74
846.60	225.71
846.91	225.74
847.22	225.73
847.54	225.76
847.85	225.76
848.16	225.78
848.48	225.75
848.79	225.80
849.10	225.80
849.42	225.75
849.73	225.64
850.04	225.62
850.36	225.56
850.67	225.57
850.98	225.57
851.30	225.54
851.61	225.52
851.92	225.52
852.23	225.55
852.55	225.54
852.86	225.57
853.17	225.60
853.49	225.58
853.80	225.59
854.11	225.58
854.42	225.63
854.74	225.58
855.05	225.58
855.36	225.52
855.67	225.52
855.99	225.51
856.30	225.64
856.61	225.60
856.92	225.59
857.23	225.60
857.55	225.58
857.86	225.59
858.17	225.62
858.48	225.59
858.79	225.57
859.11	225.57
859.42	225.54
859.73	225.51
860.04	225.48
860.35	225.47
860.66	225.43
860.98	225.42
861.29	225.44
861.60	225.43
861.91	225.44
862.22	225.43
862.53	225.47
862.84	225.35
863.16	225.39
863.47	225.37
863.78	225.40
864.09	225.39
864.40	225.39
864.71	225.40
865.02	225.43
865.33	225.44
865.64	225.41
865.95	225.41
866.27	225.48
866.58	225.47
866.89	225.49
867.20	225.53
867.51	225.47
867.82	225.46
868.13	225.47
868.44	225.45
868.75	225.43
869.06	225.41
869.37	225.41
869.68	225.38
869.99	225.41
870.30	225.38
870.61	225.39
870.92	225.35
871.23	225.33
871.54	225.32
871.85	225.36
872.16	225.37
872.47	225.40
872.78	225.33
873.09	225.37
873.40	225.33
873.71	225.31
874.02	225.32
874.33	225.31
874.64	225.29
874.95	225.31
875.26	225.27
875.56	225.27
875.87	225.27
876.18	225.27
876.49	225.37
876.80	225.34
877.11	225.34
877.42	225.37
877.73	225.33
878.04	225.35
878.35	225.35
878.66	225.35
878.96	225.34
879.27	225.34
879.58	225.34
879.89	225.34
880.20	225.38
880.51	225.40
880.82	225.43
881.12	225.46
881.43	225.44
881.74	225.48
882.05	225.48
882.36	225.50
882.67	225.49
882.97	225.38
883.28	225.39
883.59	225.35
883.90	225.35
884.21	225.38
884.51	225.35
884.82	225.31
885.13	225.29
885.44	225.29
885.74	225.28
886.05	225.26
886.36	225.28
886.67	225.21
886.98	225.27
887.28	225.25
887.59	225.23
887.90	225.24
888.20	225.23
888.51	225.24
888.82	225.19
889.13	225.17
889.43	225.25
889.74	225.23
890.05	225.27
890.35	225.26
890.66	225.24
890.97	225.22
891.28	225.20
891.58	225.19
891.89	225.16
892.20	225.18
892.50	225.19
892.81	225.16
893.12	225.17
893.42	225.07
893.73	225.09
894.04	225.09
894.34	225.06
894.65	225.02
894.95	224.98
895.26	224.99
895.57	225.05
895.87	224.93
896.18	224.97
896.48	224.93
896.79	224.94
897.10	224.98
897.40	224.99
897.71	225.00
898.01	225.00
898.32	225.04
898.63	225.03
898.93	225.01
899.24	225.02
899.54	225.02
899.85	225.03
900.15	225.02
900.46	225.02
900.76	225.02
901.07	225.03
901.38	225.03
901.68	225.03
901.99	225.00
902.29	225.00
902.60	224.96
902.90	224.97
903.21	224.94
903.51	224.92
903.82	224.95
904.12	224.92
904.43	224.92
904.73	224.90
905.03	224.92
905.34	225.03
905.64	225.02
905.95	225.00
906.25	225.02
906.56	224.99
906.86	224.99
907.17	225.01
907.47	225.03
907.77	225.01
908.08	225.02
908.38	225.01
908.69	225.04
908.99	225.05
909.30	225.07
909.60	225.11
909.90	225.11
910.21	225.10
910.51	225.10
910.81	225.12
911.12	225.13
911.42	225.12
911.73	225.00
912.03	225.02
912.33	225.05
912.64	225.05
912.94	225.08
913.24	225.08
913.55	225.09
913.85	225.07
914.15	225.11
914.46	225.13
914.76	225.12
915.06	225.11
915.37	225.11
915.67	225.10
915.97	225.05
916.27	225.06
916.58	225.03
916.88	225.06
917.18	225.04
917.49	225.15
917.79	225.12
918.09	225.12
918.39	225.17
918.70	225.17
919.00	225.21
919.30	225.24
919.60	225.26
919.91	225.23
920.21	225.28
920.51	225.26
920.81	225.28
921.12	225.29
921.42	225.27
921.72	225.29
922.02	225.32
922.32	225.37
922.63	225.35
922.93	225.43
923.23	225.43
923.53	225.44
923.83	225.34
924.13	225.37
924.44	225.38
924.74	225.36
925.04	225.38
925.34	225.34
925.64	225.30
925.94	225.30
926.24	225.37
926.55	225.33
926.85	225.34
927.15	225.31
927.45	225.29
927.75	225.31
928.05	225.28
928.35	225.27
928.65	225.23
928.95	225.25
929.26	225.22
929.56	225.21
929.86	225.22
930.16	225.21
930.46	225.19
930.76	225.19
931.06	225.15
931.36	225.14
931.66	225.15
931.96	225.14
932.26	225.10
932.56	225.03
932.86	225.02
933.16	225.00
933.46	225.00
933.76	225.01
934.06	225.04
934.36	225.09
934.66	225.07
934.96	225.06
935.26	225.06
935.56	225.05
935.86	225.04
936.16	224.99
936.46	224.97
936.76	224.94
937.06	224.90
937.36	224.90
937.66	224.89
937.96	224.91
938.26	224.86
938.56	224.86
938.86	224.87
939.16	224.92
939.46	224.94
939.76	224.92
940.06	224.94
940.35	224.93
940.65	224.87
940.95	224.87
941.25	224.86
941.55	224.85
941.85	224.84
942.15	224.84
942.45	224.89
942.75	224.91
943.04	224.93
943.34	224.95
943.64	224.94
943.94	224.95
944.24	224.91
944.54	224.96
944.84	224.96
945.13	224.94
945.43	224.90
945.73	224.89
946.03	224.88
946.33	224.84
946.62	224.79
946.92	224.82
947.22	224.83
947.52	224.83
947.82	224.82
948.11	224.79
948.41	224.77
948.71	224.74
949.01	224.73
949.31	224.74
949.60	224.74
949.90	224.74
950.20	224.71
950.50	224.72
950.79	224.70
951.09	224.71
951.39	224.73
951.69	224.72
951.98	224.72
952.28	224.74
952.58	224.74
952.87	224.74
953.17	224.71
953.47	224.71
953.76	224.71
954.06	224.70
954.36	224.71
954.66	224.71
954.95	224.73
955.25	224.76
955.55	224.77
955.84	224.76
956.14	224.77
956.44	224.79
956.73	224.78
957.03	224.82
957.32	224.82
957.62	224.84
957.92	224.88
958.21	224.88
958.51	224.99
958.81	225.01
959.10	225.06
959.40	225.11
959.69	225.11
959.99	225.16
960.29	225.18
960.58	225.20
960.88	225.25
961.17	225.27
961.47	225.29
961.76	225.29
962.06	225.28
962.36	225.28
962.65	225.28
962.95	225.30
963.24	225.28
963.54	225.29
963.83	225.31
964.13	225.32
964.42	225.31
964.72	225.22
965.01	225.22
965.31	225.20
965.60	225.20
965.90	225.25
966.19	225.23
966.49	225.21
966.78	225.19
967.08	225.18
967.37	225.16
967.67	225.11
967.96	225.12
968.26	225.13
968.55	225.12
968.85	225.11
969.14	225.10
969.43	225.11
969.73	225.13
970.02	225.10
970.32	225.05
970.61	225.05
970.91	225.05
971.20	225.00
971.49	225.00
971.79	224.99
972.08	224.95
972.38	224.93
972.67	224.94
972.96	224.94
973.26	224.94
973.55	224.96
973.85	224.96
974.14	224.92
974.43	224.93
974.73	224.93
975.02	224.92
975.31	224.92
975.61	224.91
975.90	224.87
976.19	224.85
976.49	224.87
976.78	224.85
977.07	224.84
977.37	224.88
977.66	224.90
977.95	224.87
978.24	224.81
978.54	224.81
978.83	224.80
979.12	224.79
979.42	224.77
979.71	224.75
980.00	224.75
980.29	224.77
980.59	224.75
980.88	224.75
981.17	224.74
981.46	224.74
981.76	224.75
982.05	224.78
982.34	224.76
982.63	224.76
982.93	224.76
983.22	224.75
983.51	224.75
983.80	224.76
984.09	224.79
984.39	224.83
984.68	224.82
984.97	224.83
985.26	224.83
985.55	224.83
985.85	224.82
986.14	224.83
986.43	224.84
986.72	224.85
987.01	224.85
987.30	224.84
987.59	224.83
987.89	224.83
988.18	224.80
988.47	224.81
988.76	224.81
989.05	224.85
989.34	224.82
989.63	224.85
989.92	224.85
990.22	224.83
990.51	224.84
990.80	224.85
991.09	224.84
991.38	224.89
991.67	224.90
991.96	224.94
992.25	224.96
992.54	224.94
992.83	224.97
993.12	224.98
993.41	225.02
993.70	225.08
993.99	225.10
994.28	225.14
994.58	225.19
994.87	225.20
995.16	225.20
995.45	225.22
995.74	225.21
996.03	225.23
996.32	225.25
996.61	225.26
996.90	225.26
997.19	225.27
997.48	225.24
997.77	225.23
998.06	225.18
998.34	225.15
998.63	225.19
998.92	225.18
999.21	225.20
999.50	225.19
999.79	225.15
1000.08	225.13
1000.37	225.12
1000.66	225.09
1000.95	225.09
1001.24	225.06
1001.53	225.09
1001.82	225.07
1002.11	225.02
1002.40	225.02
1002.68	225.06
1002.97	225.12
1003.26	225.08
1003.55	225.11
1003.84	225.08
1004.13	225.15
1004.42	225.15
1004.71	225.12
1004.99	225.11
1005.28	225.09
1005.57	225.08
1005.86	225.11
1006.15	225.10
1006.44	225.08
1006.72	225.11
1007.01	225.13
1007.30	225.18
1007.59	225.14
1007.88	225.16
1008.17	225.18
1008.45	225.15
1008.74	225.07
1009.03	225.02
1009.32	225.05
1009.60	225.01
1009.89	225.03
1010.18	224.98
1010.47	224.98
1010.76	224.99
1011.04	224.99
1011.33	225.02
1011.62	225.05
1011.91	225.02
1012.19	225.04
1012.48	225.05
1012.77	225.03
1013.05	225.04
1013.34	225.00
1013.63	225.02
1013.92	225.00
1014.20	225.00
1014.49	224.98
1014.78	225.00
1015.06	224.94
1015.35	224.96
1015.64	224.99
1015.92	225.00
1016.21	225.01
1016.50	225.02
1016.78	225.01
1017.07	225.01
1017.36	224.95
1017.64	224.92
1017.93	224.92
1018.22	224.89
1018.50	224.88
1018.79	224.88
1019.08	224.82
1019.36	224.81
1019.65	224.77
1019.93	224.79
1020.22	224.79
1020.51	224.87
1020.79	224.87
1021.08	224.63
1021.36	224.84
1021.65	224.96
1021.94	224.63
1022.22	224.44
1022.51	224.60
1022.79	225.12
1023.08	225.02
1023.36	226.26
1023.65	224.51
>>>>>End Processed Spectral Data<<<<<
