SpectraSuite Data File
++++++++++++++++++++++++++++++++++++
Date: Fri Feb 01 17:42:11 EST 2013
User: group
Dark Spectrum Present: No
Reference Spectrum Present: No
Number of Sampled Component Spectra: 1
Spectrometers: USB2E7196
Integration Time (usec): 35000 (USB2E7196)
Spectra Averaged: 100 (USB2E7196)
Boxcar Smoothing: 10 (USB2E7196)
Correct for Electrical Dark: No (USB2E7196)
Strobe/Lamp Enabled: No (USB2E7196)
Correct for Detector Non-linearity: No (USB2E7196)
Correct for Stray Light: No (USB2E7196)
Number of Pixels in Processed Spectrum: 2048
>>>>>Begin Processed Spectral Data<<<<<
339.09	0.00
339.48	212.71
339.86	214.04
340.24	216.10
340.63	217.03
341.01	219.89
341.39	220.14
341.78	220.99
342.16	222.29
342.54	223.64
342.93	211.33
343.31	222.01
343.69	222.56
344.07	223.03
344.46	223.41
344.84	223.75
345.22	224.00
345.60	224.21
345.99	224.38
346.37	224.49
346.75	224.55
347.13	224.60
347.52	224.62
347.90	224.69
348.28	224.72
348.66	224.76
349.05	224.74
349.43	224.76
349.81	224.77
350.19	224.76
350.57	224.83
350.96	224.90
351.34	224.99
351.72	225.05
352.10	225.12
352.48	225.21
352.87	225.28
353.25	225.32
353.63	225.39
354.01	225.46
354.39	225.51
354.77	225.58
355.15	225.66
355.54	225.71
355.92	225.73
356.30	225.81
356.68	225.92
357.06	226.00
357.44	226.07
357.82	226.10
358.20	226.19
358.58	226.26
358.97	226.30
359.35	226.39
359.73	226.46
360.11	226.52
360.49	226.56
360.87	226.61
361.25	226.65
361.63	226.74
362.01	226.79
362.39	226.88
362.77	226.91
363.15	226.96
363.53	227.00
363.91	227.02
364.29	227.02
364.67	226.97
365.05	227.01
365.43	227.02
365.81	227.08
366.19	227.15
366.57	227.19
366.95	227.22
367.33	227.18
367.71	227.17
368.09	227.22
368.47	227.23
368.85	227.22
369.23	227.28
369.61	227.23
369.99	227.27
370.37	227.24
370.75	227.26
371.13	227.22
371.51	227.18
371.89	227.17
372.27	227.17
372.65	227.14
373.03	227.08
373.41	227.05
373.78	226.98
374.16	226.89
374.54	226.82
374.92	226.77
375.30	226.72
375.68	226.67
376.06	226.62
376.44	226.55
376.82	226.49
377.19	226.43
377.57	226.35
377.95	226.26
378.33	226.21
378.71	226.11
379.09	226.11
379.47	226.10
379.84	226.01
380.22	225.94
380.60	225.87
380.98	225.85
381.36	225.77
381.73	225.73
382.11	225.69
382.49	225.61
382.87	225.53
383.25	225.48
383.62	225.56
384.00	225.50
384.38	225.47
384.76	225.49
385.13	225.43
385.51	225.41
385.89	225.33
386.27	225.27
386.64	225.26
387.02	225.19
387.40	225.13
387.78	225.12
388.15	225.11
388.53	225.08
388.91	225.04
389.29	224.99
389.66	224.99
390.04	224.94
390.42	224.95
390.79	224.96
391.17	224.93
391.55	224.81
391.92	224.76
392.30	224.74
392.68	224.65
393.05	224.63
393.43	224.62
393.81	224.64
394.18	224.62
394.56	224.58
394.94	224.58
395.31	224.56
395.69	224.58
396.06	224.58
396.44	224.58
396.82	224.57
397.19	224.65
397.57	224.66
397.95	224.72
398.32	224.72
398.70	224.75
399.07	224.79
399.45	224.80
399.82	224.88
400.20	224.90
400.58	224.97
400.95	225.00
401.33	225.07
401.70	225.19
402.08	225.27
402.45	225.36
402.83	225.48
403.20	225.60
403.58	225.70
403.95	225.83
404.33	225.94
404.71	226.08
405.08	226.27
405.46	226.41
405.83	226.56
406.21	226.70
406.58	226.86
406.96	227.02
407.33	227.20
407.70	227.41
408.08	227.71
408.45	227.94
408.83	228.21
409.20	228.46
409.58	228.69
409.95	228.97
410.33	229.26
410.70	229.52
411.08	229.83
411.45	230.17
411.82	230.50
412.20	230.91
412.57	231.39
412.95	231.73
413.32	232.17
413.69	232.64
414.07	233.13
414.44	233.65
414.82	234.21
415.19	234.83
415.56	235.45
415.94	236.05
416.31	236.82
416.68	237.53
417.06	238.38
417.43	239.18
417.81	240.07
418.18	241.01
418.55	242.01
418.93	243.06
419.30	244.12
419.67	245.20
420.04	246.31
420.42	247.46
420.79	248.83
421.16	250.20
421.54	251.59
421.91	253.02
422.28	254.52
422.66	256.10
423.03	257.67
423.40	259.25
423.77	260.95
424.15	262.62
424.52	264.40
424.89	266.28
425.26	268.09
425.64	269.80
426.01	271.65
426.38	273.60
426.75	275.56
427.13	277.58
427.50	279.74
427.87	281.95
428.24	284.14
428.61	286.17
428.99	288.38
429.36	290.84
429.73	293.28
430.10	295.65
430.47	298.07
430.85	300.54
431.22	303.15
431.59	305.89
431.96	308.51
432.33	311.42
432.70	314.14
433.08	317.46
433.45	320.58
433.82	323.65
434.19	327.00
434.56	330.30
434.93	333.41
435.30	336.46
435.68	339.91
436.05	343.22
436.42	346.53
436.79	349.55
437.16	352.71
437.53	356.06
437.90	359.31
438.27	362.46
438.64	365.76
439.01	368.80
439.38	371.44
439.75	373.93
440.13	376.84
440.50	379.55
440.87	381.68
441.24	383.97
441.61	386.50
441.98	388.25
442.35	390.32
442.72	392.49
443.09	394.58
443.46	395.70
443.83	396.38
444.20	396.92
444.57	397.85
444.94	398.17
445.31	398.57
445.68	399.07
446.05	399.19
446.42	398.76
446.79	398.29
447.16	397.72
447.53	397.43
447.90	396.10
448.27	394.79
448.64	392.95
449.01	391.62
449.37	389.31
449.74	387.15
450.11	384.57
450.48	381.68
450.85	378.73
451.22	376.22
451.59	373.86
451.96	371.66
452.33	368.62
452.70	365.88
453.07	362.54
453.43	359.08
453.80	355.86
454.17	352.74
454.54	349.77
454.91	346.63
455.28	343.48
455.65	340.54
456.02	337.63
456.38	335.11
456.75	331.97
457.12	329.29
457.49	326.67
457.86	324.12
458.23	321.95
458.59	319.53
458.96	317.08
459.33	314.91
459.70	312.65
460.07	310.89
460.43	308.87
460.80	307.03
461.17	305.38
461.54	303.62
461.91	301.93
462.27	300.24
462.64	298.72
463.01	297.10
463.38	295.59
463.74	294.05
464.11	292.66
464.48	291.47
464.85	290.19
465.21	289.16
465.58	288.05
465.95	286.74
466.32	285.70
466.68	284.63
467.05	283.60
467.42	282.59
467.78	281.53
468.15	280.49
468.52	279.66
468.88	278.64
469.25	277.70
469.62	277.00
469.98	276.17
470.35	275.49
470.72	274.79
471.08	274.01
471.45	273.35
471.82	272.74
472.18	272.03
472.55	271.54
472.92	270.92
473.28	270.39
473.65	269.90
474.02	269.36
474.38	268.92
474.75	268.51
475.11	268.07
475.48	267.73
475.85	267.44
476.21	267.16
476.58	266.93
476.94	266.76
477.31	266.53
477.67	266.37
478.04	266.22
478.41	266.12
478.77	266.15
479.14	266.09
479.50	266.06
479.87	266.12
480.23	266.15
480.60	266.17
480.96	266.23
481.33	266.40
481.69	266.58
482.06	266.77
482.42	266.95
482.79	267.20
483.15	267.55
483.52	267.95
483.88	268.27
484.25	268.62
484.61	269.02
484.98	269.46
485.34	269.99
485.71	270.56
486.07	271.14
486.44	271.69
486.80	272.35
487.17	273.10
487.53	273.93
487.90	274.79
488.26	275.75
488.62	276.76
488.99	277.75
489.35	278.83
489.72	280.00
490.08	281.22
490.44	282.43
490.81	283.73
491.17	285.05
491.54	286.58
491.90	288.10
492.26	289.79
492.63	291.56
492.99	293.36
493.36	295.27
493.72	297.39
494.08	299.52
494.45	301.80
494.81	304.17
495.17	306.62
495.54	309.20
495.90	311.91
496.26	314.76
496.63	317.81
496.99	320.96
497.35	324.20
497.72	327.66
498.08	331.22
498.44	334.95
498.80	338.93
499.17	342.99
499.53	347.27
499.89	351.72
500.26	356.29
500.62	361.01
500.98	366.04
501.34	371.17
501.71	376.56
502.07	382.10
502.43	387.80
502.79	393.73
503.16	399.91
503.52	406.21
503.88	412.63
504.24	419.34
504.60	426.28
504.97	433.58
505.33	440.98
505.69	448.80
506.05	456.67
506.41	464.64
506.78	472.94
507.14	481.49
507.50	490.30
507.86	499.44
508.22	508.75
508.59	518.11
508.95	527.82
509.31	537.80
509.67	548.04
510.03	558.52
510.39	569.26
510.75	580.24
511.12	591.38
511.48	602.88
511.84	614.49
512.20	626.20
512.56	638.31
512.92	650.75
513.28	663.35
513.64	676.07
514.00	689.05
514.37	702.15
514.73	715.45
515.09	728.75
515.45	742.24
515.81	756.06
516.17	770.21
516.53	784.58
516.89	799.10
517.25	813.54
517.61	828.17
517.97	842.88
518.33	857.55
518.69	872.63
519.05	887.99
519.41	903.45
519.77	919.30
520.13	935.01
520.49	950.82
520.85	966.48
521.21	982.39
521.57	999.02
521.93	1015.17
522.29	1031.80
522.65	1048.43
523.01	1065.00
523.37	1081.46
523.73	1098.09
524.09	1114.48
524.45	1131.01
524.81	1148.12
525.17	1165.31
525.53	1182.57
525.89	1199.91
526.25	1217.17
526.61	1233.97
526.97	1251.19
527.33	1268.17
527.68	1285.36
528.04	1302.21
528.40	1319.24
528.76	1336.99
529.12	1353.95
529.48	1371.35
529.84	1387.96
530.20	1405.13
530.56	1422.67
530.91	1440.69
531.27	1458.13
531.63	1475.25
531.99	1492.47
532.35	1509.07
532.71	1525.67
533.07	1542.57
533.42	1559.05
533.78	1575.88
534.14	1592.79
534.50	1608.74
534.86	1625.28
535.21	1641.12
535.57	1657.73
535.93	1673.96
536.29	1689.31
536.65	1705.21
537.00	1720.75
537.36	1736.88
537.72	1752.12
538.08	1767.48
538.44	1781.95
538.79	1796.51
539.15	1810.90
539.51	1825.47
539.87	1840.60
540.22	1855.09
540.58	1869.64
540.94	1883.74
541.29	1897.17
541.65	1910.75
542.01	1924.92
542.37	1938.12
542.72	1951.39
543.08	1964.19
543.44	1977.62
543.79	1989.92
544.15	2001.71
544.51	2014.12
544.87	2025.90
545.22	2037.70
545.58	2048.76
545.94	2059.63
546.29	2070.48
546.65	2081.51
547.01	2091.83
547.36	2101.41
547.72	2110.88
548.07	2119.84
548.43	2128.98
548.79	2137.90
549.14	2146.44
549.50	2154.69
549.86	2163.15
550.21	2171.40
550.57	2179.44
550.92	2186.89
551.28	2194.84
551.64	2202.91
551.99	2210.42
552.35	2217.68
552.70	2224.74
553.06	2231.72
553.41	2238.94
553.77	2245.71
554.13	2252.66
554.48	2259.60
554.84	2266.30
555.19	2272.38
555.55	2278.42
555.90	2283.81
556.26	2289.94
556.61	2295.49
556.97	2300.88
557.32	2306.02
557.68	2310.99
558.03	2316.08
558.39	2320.76
558.74	2326.25
559.10	2331.12
559.45	2335.64
559.81	2340.69
560.16	2345.28
560.52	2349.37
560.87	2353.59
561.23	2357.17
561.58	2360.59
561.94	2363.96
562.29	2366.86
562.64	2370.68
563.00	2374.02
563.35	2378.43
563.71	2382.44
564.06	2386.24
564.42	2389.88
564.77	2393.34
565.12	2396.57
565.48	2399.34
565.83	2401.93
566.19	2404.14
566.54	2405.58
566.89	2407.60
567.25	2408.90
567.60	2410.96
567.96	2413.37
568.31	2414.79
568.66	2416.67
569.02	2418.06
569.37	2419.12
569.72	2420.63
570.08	2421.28
570.43	2421.84
570.78	2421.77
571.14	2420.62
571.49	2419.87
571.84	2419.80
572.20	2419.14
572.55	2418.67
572.90	2417.41
573.26	2416.57
573.61	2414.86
573.96	2413.73
574.31	2411.04
574.67	2408.35
575.02	2404.96
575.37	2401.67
575.72	2398.41
576.08	2395.17
576.43	2391.95
576.78	2388.63
577.13	2385.69
577.49	2382.50
577.84	2379.31
578.19	2375.78
578.54	2372.44
578.90	2368.68
579.25	2363.21
579.60	2358.51
579.95	2353.49
580.30	2348.55
580.66	2343.32
581.01	2338.67
581.36	2333.62
581.71	2329.69
582.06	2325.64
582.42	2321.50
582.77	2316.39
583.12	2311.92
583.47	2307.46
583.82	2302.82
584.17	2297.51
584.53	2292.03
584.88	2286.69
585.23	2281.10
585.58	2275.52
585.93	2269.95
586.28	2264.77
586.63	2260.05
586.98	2254.74
587.34	2249.84
587.69	2244.97
588.04	2239.94
588.39	2234.13
588.74	2227.61
589.09	2221.18
589.44	2214.06
589.79	2207.49
590.14	2201.67
590.49	2194.73
590.84	2187.97
591.19	2181.71
591.54	2174.95
591.89	2167.50
592.25	2160.57
592.60	2153.06
592.95	2145.36
593.30	2137.75
593.65	2130.06
594.00	2122.46
594.35	2114.98
594.70	2106.46
595.05	2099.10
595.40	2091.21
595.75	2083.42
596.10	2077.06
596.45	2070.07
596.80	2063.68
597.15	2057.08
597.50	2050.05
597.85	2043.29
598.19	2036.52
598.54	2029.46
598.89	2022.68
599.24	2016.41
599.59	2009.59
599.94	2002.82
600.29	1996.04
600.64	1989.00
600.99	1981.13
601.34	1974.03
601.69	1966.50
602.04	1959.48
602.39	1951.69
602.74	1944.56
603.08	1937.56
603.43	1930.33
603.78	1922.71
604.13	1914.97
604.48	1907.31
604.83	1899.91
605.18	1892.84
605.53	1884.44
605.87	1875.46
606.22	1867.55
606.57	1859.03
606.92	1850.75
607.27	1843.36
607.62	1836.21
607.96	1828.64
608.31	1821.81
608.66	1813.76
609.01	1805.89
609.36	1797.95
609.70	1789.42
610.05	1780.83
610.40	1772.66
610.75	1763.84
611.10	1755.54
611.44	1746.59
611.79	1737.84
612.14	1728.41
612.49	1718.40
612.83	1709.27
613.18	1700.62
613.53	1691.93
613.88	1682.82
614.22	1674.03
614.57	1664.51
614.92	1655.67
615.27	1647.54
615.61	1638.55
615.96	1629.77
616.31	1621.40
616.65	1613.32
617.00	1605.21
617.35	1596.86
617.70	1587.76
618.04	1578.67
618.39	1569.66
618.74	1561.49
619.08	1552.61
619.43	1544.49
619.78	1536.82
620.12	1529.05
620.47	1520.95
620.82	1512.10
621.16	1503.93
621.51	1495.68
621.85	1487.40
622.20	1478.39
622.55	1469.24
622.89	1460.59
623.24	1452.18
623.59	1444.05
623.93	1435.85
624.28	1427.74
624.62	1419.69
624.97	1411.85
625.32	1404.21
625.66	1396.62
626.01	1388.80
626.35	1380.85
626.70	1372.40
627.04	1364.13
627.39	1355.77
627.73	1347.66
628.08	1340.18
628.43	1332.46
628.77	1324.53
629.12	1316.56
629.46	1308.70
629.81	1300.51
630.15	1292.61
630.50	1284.79
630.84	1276.08
631.19	1267.36
631.53	1259.27
631.88	1251.04
632.22	1242.87
632.57	1235.01
632.91	1226.79
633.26	1218.76
633.60	1210.68
633.95	1202.85
634.29	1195.18
634.64	1187.81
634.98	1180.07
635.32	1172.37
635.67	1165.15
636.01	1158.03
636.36	1150.62
636.70	1143.56
637.05	1136.59
637.39	1129.73
637.73	1122.75
638.08	1116.29
638.42	1109.95
638.77	1103.15
639.11	1096.11
639.45	1089.29
639.80	1082.17
640.14	1075.42
640.49	1068.38
640.83	1061.70
641.17	1055.15
641.52	1048.48
641.86	1041.62
642.20	1035.24
642.55	1028.27
642.89	1021.38
643.23	1014.16
643.58	1007.98
643.92	1001.32
644.26	994.96
644.61	988.32
644.95	981.95
645.29	975.08
645.64	967.90
645.98	960.99
646.32	954.51
646.66	947.94
647.01	941.74
647.35	935.64
647.69	929.43
648.04	923.43
648.38	917.18
648.72	910.81
649.06	904.38
649.41	897.91
649.75	891.81
650.09	885.39
650.43	879.27
650.78	872.66
651.12	866.28
651.46	860.05
651.80	854.15
652.14	848.16
652.49	842.46
652.83	836.89
653.17	831.01
653.51	825.05
653.85	819.31
654.20	813.33
654.54	806.90
654.88	800.69
655.22	794.32
655.56	788.14
655.90	782.21
656.25	776.60
656.59	771.03
656.93	765.43
657.27	759.91
657.61	754.03
657.95	748.54
658.29	743.17
658.64	737.52
658.98	731.66
659.32	725.94
659.66	720.31
660.00	714.75
660.34	709.38
660.68	704.11
661.02	698.76
661.36	693.73
661.70	688.89
662.05	684.24
662.39	679.59
662.73	674.89
663.07	670.18
663.41	665.31
663.75	660.46
664.09	655.56
664.43	650.93
664.77	646.72
665.11	642.19
665.45	637.76
665.79	633.45
666.13	629.16
666.47	624.73
666.81	620.28
667.15	615.79
667.49	611.60
667.83	607.40
668.17	603.18
668.51	598.90
668.85	594.58
669.19	590.44
669.53	586.44
669.87	582.39
670.21	578.46
670.55	574.59
670.89	570.92
671.23	567.28
671.57	563.43
671.91	559.64
672.25	555.93
672.58	552.13
672.92	548.41
673.26	544.95
673.60	541.56
673.94	538.24
674.28	535.08
674.62	531.93
674.96	528.75
675.30	525.69
675.64	522.50
675.97	519.51
676.31	516.41
676.65	513.24
676.99	510.24
677.33	507.15
677.67	504.15
678.01	500.94
678.34	497.82
678.68	494.76
679.02	491.72
679.36	488.74
679.70	485.83
680.04	482.89
680.37	479.88
680.71	476.87
681.05	474.03
681.39	471.18
681.73	468.33
682.06	465.58
682.40	462.83
682.74	460.09
683.08	457.38
683.42	454.61
683.75	451.94
684.09	449.23
684.43	446.61
684.77	443.98
685.10	441.47
685.44	438.94
685.78	436.52
686.12	434.08
686.45	431.60
686.79	429.13
687.13	426.77
687.46	424.48
687.80	422.16
688.14	419.75
688.48	417.51
688.81	415.17
689.15	412.91
689.49	410.58
689.82	408.34
690.16	406.07
690.50	403.94
690.83	401.86
691.17	399.70
691.51	397.62
691.84	395.65
692.18	393.60
692.52	391.52
692.85	389.42
693.19	387.40
693.52	385.48
693.86	383.51
694.20	381.57
694.53	379.59
694.87	377.64
695.21	375.72
695.54	373.75
695.88	371.82
696.21	369.89
696.55	368.07
696.88	366.23
697.22	364.40
697.56	362.57
697.89	360.78
698.23	359.06
698.56	357.34
698.90	355.62
699.23	353.86
699.57	352.18
699.90	350.51
700.24	348.81
700.58	347.15
700.91	345.59
701.25	344.05
701.58	342.60
701.92	341.13
702.25	339.65
702.59	338.20
702.92	336.79
703.26	335.40
703.59	334.06
703.93	332.80
704.26	331.53
704.60	330.20
704.93	328.84
705.26	327.54
705.60	326.24
705.93	324.98
706.27	323.82
706.60	322.72
706.94	321.52
707.27	320.33
707.61	319.16
707.94	318.02
708.27	316.80
708.61	315.59
708.94	314.49
709.28	313.42
709.61	312.41
709.94	311.37
710.28	310.25
710.61	309.17
710.95	307.98
711.28	306.90
711.61	305.90
711.95	304.91
712.28	303.85
712.61	302.83
712.95	301.80
713.28	300.81
713.61	299.82
713.95	298.87
714.28	297.94
714.61	297.02
714.95	296.10
715.28	295.19
715.61	294.22
715.95	293.31
716.28	292.37
716.61	291.42
716.95	290.53
717.28	289.75
717.61	288.89
717.94	288.13
718.28	287.30
718.61	286.49
718.94	285.71
719.27	285.00
719.61	284.25
719.94	283.50
720.27	282.73
720.60	281.96
720.94	281.30
721.27	280.65
721.60	280.00
721.93	279.37
722.27	278.79
722.60	278.26
722.93	277.64
723.26	277.09
723.59	276.49
723.93	275.87
724.26	275.26
724.59	274.66
724.92	274.07
725.25	273.55
725.59	272.99
725.92	272.46
726.25	271.95
726.58	271.42
726.91	270.91
727.24	270.42
727.57	269.93
727.91	269.38
728.24	268.88
728.57	268.36
728.90	267.83
729.23	267.30
729.56	266.77
729.89	266.24
730.22	265.71
730.55	265.24
730.89	264.75
731.22	264.27
731.55	263.80
731.88	263.33
732.21	262.87
732.54	262.42
732.87	261.95
733.20	261.46
733.53	261.03
733.86	260.62
734.19	260.21
734.52	259.81
734.85	259.44
735.18	258.98
735.51	258.61
735.84	258.22
736.17	257.84
736.50	257.43
736.83	257.18
737.16	256.80
737.49	256.43
737.82	256.04
738.15	255.70
738.48	255.34
738.81	254.99
739.14	254.62
739.47	254.26
739.80	253.92
740.13	253.60
740.46	253.27
740.79	252.89
741.12	252.56
741.45	252.22
741.78	251.84
742.11	251.53
742.44	251.19
742.77	250.89
743.10	250.60
743.43	250.28
743.75	249.88
744.08	249.73
744.41	249.45
744.74	249.17
745.07	248.83
745.40	248.58
745.73	248.33
746.06	248.04
746.39	247.76
746.71	247.46
747.04	247.17
747.37	246.89
747.70	246.66
748.03	246.38
748.36	246.12
748.68	245.92
749.01	245.64
749.34	245.35
749.67	245.13
750.00	244.87
750.33	244.71
750.65	244.47
750.98	244.10
751.31	243.88
751.64	243.67
751.97	243.50
752.29	243.25
752.62	242.96
752.95	242.71
753.28	242.52
753.60	242.32
753.93	242.12
754.26	241.89
754.59	241.64
754.91	241.41
755.24	241.19
755.57	240.93
755.90	240.74
756.22	240.53
756.55	240.29
756.88	240.07
757.20	239.79
757.53	239.57
757.86	239.36
758.19	239.16
758.51	238.94
758.84	238.72
759.17	238.55
759.49	238.37
759.82	238.27
760.15	238.10
760.47	237.91
760.80	237.74
761.13	237.60
761.45	237.44
761.78	237.26
762.11	237.13
762.43	236.99
762.76	236.86
763.08	236.79
763.41	236.62
763.74	236.45
764.06	236.32
764.39	236.16
764.71	236.04
765.04	235.89
765.37	235.81
765.69	235.67
766.02	235.52
766.34	235.39
766.67	235.22
767.00	235.09
767.32	235.05
767.65	235.00
767.97	234.89
768.30	234.82
768.62	234.73
768.95	234.60
769.27	234.51
769.60	234.38
769.92	234.21
770.25	234.13
770.57	234.01
770.90	233.92
771.22	233.82
771.55	233.71
771.87	233.60
772.20	233.46
772.52	233.46
772.85	233.48
773.17	233.42
773.50	233.29
773.82	233.19
774.15	233.04
774.47	232.87
774.80	232.78
775.12	232.66
775.45	232.53
775.77	232.45
776.09	232.34
776.42	232.27
776.74	232.22
777.07	232.11
777.39	232.07
777.72	231.96
778.04	231.92
778.36	231.84
778.69	231.77
779.01	231.70
779.33	231.50
779.66	231.29
779.98	231.19
780.31	231.11
780.63	231.07
780.95	231.02
781.28	230.96
781.60	230.86
781.92	230.78
782.25	230.71
782.57	230.65
782.89	230.58
783.22	230.52
783.54	230.45
783.86	230.39
784.19	230.33
784.51	230.30
784.83	230.19
785.16	230.14
785.48	230.07
785.80	230.00
786.12	229.97
786.45	229.93
786.77	229.90
787.09	229.86
787.42	229.76
787.74	229.66
788.06	229.59
788.38	229.53
788.71	229.48
789.03	229.48
789.35	229.44
789.67	229.37
789.99	229.29
790.32	229.23
790.64	229.19
790.96	229.20
791.28	229.12
791.61	229.06
791.93	229.00
792.25	228.97
792.57	228.99
792.89	228.94
793.21	228.90
793.54	228.83
793.86	228.79
794.18	228.77
794.50	228.72
794.82	228.68
795.14	228.64
795.47	228.60
795.79	228.53
796.11	228.45
796.43	228.41
796.75	228.37
797.07	228.29
797.39	228.21
797.71	228.12
798.04	228.07
798.36	228.06
798.68	228.03
799.00	227.96
799.32	227.88
799.64	227.85
799.96	227.84
800.28	227.79
800.60	227.75
800.92	227.71
801.24	227.66
801.56	227.65
801.89	227.63
802.21	227.59
802.53	227.55
802.85	227.52
803.17	227.52
803.49	227.46
803.81	227.46
804.13	227.48
804.45	227.42
804.77	227.43
805.09	227.41
805.41	227.39
805.73	227.40
806.05	227.35
806.37	227.35
806.69	227.32
807.01	227.31
807.33	227.27
807.65	227.21
807.97	227.26
808.28	227.23
808.60	227.16
808.92	227.14
809.24	227.18
809.56	227.16
809.88	227.13
810.20	227.12
810.52	227.11
810.84	227.03
811.16	227.00
811.48	226.95
811.80	226.97
812.12	226.94
812.43	226.92
812.75	226.92
813.07	226.87
813.39	226.85
813.71	226.82
814.03	226.82
814.35	226.81
814.67	226.75
814.98	226.76
815.30	226.82
815.62	226.78
815.94	226.75
816.26	226.78
816.58	226.74
816.89	226.76
817.21	226.73
817.53	226.74
817.85	226.77
818.17	226.75
818.48	226.68
818.80	226.68
819.12	226.66
819.44	226.65
819.76	226.60
820.07	226.58
820.39	226.60
820.71	226.61
821.03	226.62
821.34	226.58
821.66	226.55
821.98	226.51
822.30	226.51
822.61	226.51
822.93	226.45
823.25	226.46
823.57	226.44
823.88	226.46
824.20	226.45
824.52	226.46
824.83	226.46
825.15	226.44
825.47	226.41
825.79	226.43
826.10	226.40
826.42	226.38
826.74	226.37
827.05	226.34
827.37	226.30
827.69	226.28
828.00	226.27
828.32	226.25
828.64	226.22
828.95	226.26
829.27	226.24
829.58	226.22
829.90	226.21
830.22	226.18
830.53	226.15
830.85	226.14
831.17	226.07
831.48	226.02
831.80	226.02
832.11	226.03
832.43	225.98
832.75	225.93
833.06	226.00
833.38	225.99
833.69	225.97
834.01	225.96
834.32	225.92
834.64	225.89
834.96	225.85
835.27	225.84
835.59	225.75
835.90	225.69
836.22	225.69
836.53	225.63
836.85	225.60
837.16	225.67
837.48	225.63
837.79	225.65
838.11	225.66
838.42	225.63
838.74	225.60
839.05	225.57
839.37	225.56
839.68	225.46
840.00	225.43
840.31	225.41
840.63	225.40
840.94	225.38
841.26	225.37
841.57	225.39
841.88	225.38
842.20	225.37
842.51	225.35
842.83	225.33
843.14	225.44
843.46	225.43
843.77	225.37
844.08	225.36
844.40	225.29
844.71	225.26
845.03	225.26
845.34	225.25
845.65	225.22
845.97	225.24
846.28	225.25
846.60	225.24
846.91	225.26
847.22	225.24
847.54	225.25
847.85	225.26
848.16	225.24
848.48	225.23
848.79	225.27
849.10	225.29
849.42	225.28
849.73	225.20
850.04	225.21
850.36	225.16
850.67	225.17
850.98	225.19
851.30	225.21
851.61	225.17
851.92	225.15
852.23	225.19
852.55	225.20
852.86	225.17
853.17	225.19
853.49	225.20
853.80	225.23
854.11	225.24
854.42	225.26
854.74	225.22
855.05	225.20
855.36	225.15
855.67	225.13
855.99	225.15
856.30	225.23
856.61	225.22
856.92	225.22
857.23	225.21
857.55	225.23
857.86	225.22
858.17	225.25
858.48	225.25
858.79	225.27
859.11	225.30
859.42	225.34
859.73	225.32
860.04	225.32
860.35	225.30
860.66	225.26
860.98	225.26
861.29	225.30
861.60	225.27
861.91	225.30
862.22	225.32
862.53	225.26
862.84	225.16
863.16	225.22
863.47	225.19
863.78	225.20
864.09	225.22
864.40	225.25
864.71	225.28
865.02	225.29
865.33	225.26
865.64	225.22
865.95	225.18
866.27	225.23
866.58	225.21
866.89	225.19
867.20	225.19
867.51	225.18
867.82	225.17
868.13	225.22
868.44	225.21
868.75	225.19
869.06	225.23
869.37	225.23
869.68	225.17
869.99	225.17
870.30	225.17
870.61	225.13
870.92	225.11
871.23	225.07
871.54	225.08
871.85	225.08
872.16	225.07
872.47	225.09
872.78	225.03
873.09	225.04
873.40	225.04
873.71	225.02
874.02	224.99
874.33	224.95
874.64	224.92
874.95	224.98
875.26	224.96
875.56	224.94
875.87	224.93
876.18	224.90
876.49	225.03
876.80	225.03
877.11	224.99
877.42	224.94
877.73	224.93
878.04	224.89
878.35	224.88
878.66	224.86
878.96	224.85
879.27	224.85
879.58	224.83
879.89	224.80
880.20	224.85
880.51	224.84
880.82	224.87
881.12	224.85
881.43	224.77
881.74	224.75
882.05	224.78
882.36	224.78
882.67	224.77
882.97	224.63
883.28	224.61
883.59	224.64
883.90	224.68
884.21	224.71
884.51	224.72
884.82	224.72
885.13	224.71
885.44	224.71
885.74	224.71
886.05	224.68
886.36	224.69
886.67	224.65
886.98	224.73
887.28	224.75
887.59	224.76
887.90	224.79
888.20	224.79
888.51	224.82
888.82	224.81
889.13	224.89
889.43	225.00
889.74	225.00
890.05	224.99
890.35	224.95
890.66	224.94
890.97	224.96
891.28	224.96
891.58	225.02
891.89	225.04
892.20	225.06
892.50	225.09
892.81	225.11
893.12	225.14
893.42	225.05
893.73	225.05
894.04	225.08
894.34	225.06
894.65	225.10
894.95	225.09
895.26	225.06
895.57	225.08
895.87	225.00
896.18	225.02
896.48	225.06
896.79	225.07
897.10	225.10
897.40	225.09
897.71	225.10
898.01	225.09
898.32	225.10
898.63	225.08
898.93	225.08
899.24	225.12
899.54	225.12
899.85	225.14
900.15	225.12
900.46	225.12
900.76	225.15
901.07	225.12
901.38	225.11
901.68	225.14
901.99	225.05
902.29	225.10
902.60	225.08
902.90	225.05
903.21	225.01
903.51	224.99
903.82	225.00
904.12	224.97
904.43	224.94
904.73	224.92
905.03	224.93
905.34	225.01
905.64	224.96
905.95	224.94
906.25	224.93
906.56	224.92
906.86	224.91
907.17	224.85
907.47	224.84
907.77	224.81
908.08	224.79
908.38	224.81
908.69	224.76
908.99	224.80
909.30	224.80
909.60	224.82
909.90	224.82
910.21	224.80
910.51	224.76
910.81	224.74
911.12	224.74
911.42	224.69
911.73	224.59
912.03	224.58
912.33	224.56
912.64	224.56
912.94	224.55
913.24	224.54
913.55	224.57
913.85	224.56
914.15	224.56
914.46	224.56
914.76	224.56
915.06	224.56
915.37	224.51
915.67	224.49
915.97	224.46
916.27	224.42
916.58	224.40
916.88	224.44
917.18	224.47
917.49	224.51
917.79	224.50
918.09	224.51
918.39	224.54
918.70	224.54
919.00	224.55
919.30	224.60
919.60	224.62
919.91	224.59
920.21	224.61
920.51	224.61
920.81	224.59
921.12	224.60
921.42	224.60
921.72	224.61
922.02	224.63
922.32	224.67
922.63	224.69
922.93	224.74
923.23	224.73
923.53	224.73
923.83	224.71
924.13	224.75
924.44	224.72
924.74	224.75
925.04	224.74
925.34	224.76
925.64	224.74
925.94	224.71
926.24	224.78
926.55	224.75
926.85	224.79
927.15	224.81
927.45	224.79
927.75	224.82
928.05	224.80
928.35	224.80
928.65	224.80
928.95	224.83
929.26	224.79
929.56	224.82
929.86	224.83
930.16	224.85
930.46	224.83
930.76	224.88
931.06	224.83
931.36	224.84
931.66	224.81
931.96	224.85
932.26	224.91
932.56	224.84
932.86	224.85
933.16	224.84
933.46	224.84
933.76	224.87
934.06	224.86
934.36	224.95
934.66	224.95
934.96	224.96
935.26	224.94
935.56	224.96
935.86	224.96
936.16	224.93
936.46	224.89
936.76	224.92
937.06	224.89
937.36	224.89
937.66	224.90
937.96	224.91
938.26	224.90
938.56	224.87
938.86	224.92
939.16	224.95
939.46	224.95
939.76	224.95
940.06	224.94
940.35	224.93
940.65	224.87
940.95	224.87
941.25	224.85
941.55	224.82
941.85	224.83
942.15	224.85
942.45	224.86
942.75	224.87
943.04	224.88
943.34	224.89
943.64	224.89
943.94	224.87
944.24	224.86
944.54	224.82
944.84	224.83
945.13	224.77
945.43	224.74
945.73	224.75
946.03	224.75
946.33	224.70
946.62	224.69
946.92	224.67
947.22	224.66
947.52	224.67
947.82	224.70
948.11	224.68
948.41	224.66
948.71	224.63
949.01	224.63
949.31	224.57
949.60	224.58
949.90	224.60
950.20	224.63
950.50	224.64
950.79	224.62
951.09	224.61
951.39	224.59
951.69	224.59
951.98	224.58
952.28	224.57
952.58	224.57
952.87	224.57
953.17	224.59
953.47	224.57
953.76	224.55
954.06	224.50
954.36	224.48
954.66	224.46
954.95	224.44
955.25	224.44
955.55	224.47
955.84	224.45
956.14	224.41
956.44	224.39
956.73	224.37
957.03	224.36
957.32	224.35
957.62	224.38
957.92	224.39
958.21	224.37
958.51	224.49
958.81	224.52
959.10	224.50
959.40	224.52
959.69	224.53
959.99	224.55
960.29	224.58
960.58	224.58
960.88	224.64
961.17	224.66
961.47	224.67
961.76	224.63
962.06	224.63
962.36	224.63
962.65	224.65
962.95	224.64
963.24	224.66
963.54	224.70
963.83	224.70
964.13	224.67
964.42	224.67
964.72	224.59
965.01	224.58
965.31	224.59
965.60	224.56
965.90	224.65
966.19	224.61
966.49	224.66
966.78	224.68
967.08	224.68
967.37	224.69
967.67	224.69
967.96	224.72
968.26	224.72
968.55	224.73
968.85	224.71
969.14	224.70
969.43	224.69
969.73	224.66
970.02	224.65
970.32	224.65
970.61	224.66
970.91	224.63
971.20	224.60
971.49	224.59
971.79	224.60
972.08	224.51
972.38	224.51
972.67	224.48
972.96	224.49
973.26	224.47
973.55	224.48
973.85	224.45
974.14	224.44
974.43	224.43
974.73	224.41
975.02	224.43
975.31	224.45
975.61	224.45
975.90	224.46
976.19	224.44
976.49	224.44
976.78	224.43
977.07	224.42
977.37	224.43
977.66	224.46
977.95	224.45
978.24	224.45
978.54	224.50
978.83	224.48
979.12	224.46
979.42	224.45
979.71	224.44
980.00	224.44
980.29	224.45
980.59	224.43
980.88	224.45
981.17	224.42
981.46	224.42
981.76	224.41
982.05	224.41
982.34	224.45
982.63	224.45
982.93	224.47
983.22	224.50
983.51	224.50
983.80	224.52
984.09	224.52
984.39	224.53
984.68	224.47
984.97	224.44
985.26	224.39
985.55	224.38
985.85	224.33
986.14	224.34
986.43	224.37
986.72	224.36
987.01	224.33
987.30	224.33
987.59	224.34
987.89	224.32
988.18	224.29
988.47	224.26
988.76	224.27
989.05	224.21
989.34	224.19
989.63	224.23
989.92	224.19
990.22	224.16
990.51	224.13
990.80	224.14
991.09	224.18
991.38	224.21
991.67	224.22
991.96	224.22
992.25	224.20
992.54	224.15
992.83	224.17
993.12	224.18
993.41	224.19
993.70	224.23
993.99	224.29
994.28	224.31
994.58	224.32
994.87	224.32
995.16	224.37
995.45	224.35
995.74	224.32
996.03	224.32
996.32	224.38
996.61	224.40
996.90	224.40
997.19	224.39
997.48	224.40
997.77	224.38
998.06	224.41
998.34	224.42
998.63	224.42
998.92	224.42
999.21	224.45
999.50	224.46
999.79	224.45
1000.08	224.43
1000.37	224.42
1000.66	224.43
1000.95	224.43
1001.24	224.43
1001.53	224.47
1001.82	224.47
1002.11	224.47
1002.40	224.49
1002.68	224.51
1002.97	224.61
1003.26	224.62
1003.55	224.62
1003.84	224.65
1004.13	224.70
1004.42	224.70
1004.71	224.72
1004.99	224.74
1005.28	224.75
1005.57	224.76
1005.86	224.74
1006.15	224.75
1006.44	224.75
1006.72	224.78
1007.01	224.77
1007.30	224.78
1007.59	224.74
1007.88	224.75
1008.17	224.76
1008.45	224.72
1008.74	224.73
1009.03	224.69
1009.32	224.71
1009.60	224.74
1009.89	224.73
1010.18	224.70
1010.47	224.69
1010.76	224.71
1011.04	224.69
1011.33	224.69
1011.62	224.66
1011.91	224.67
1012.19	224.67
1012.48	224.67
1012.77	224.66
1013.05	224.71
1013.34	224.66
1013.63	224.67
1013.92	224.64
1014.20	224.65
1014.49	224.66
1014.78	224.65
1015.06	224.59
1015.35	224.58
1015.64	224.57
1015.92	224.60
1016.21	224.59
1016.50	224.62
1016.78	224.60
1017.07	224.63
1017.36	224.61
1017.64	224.60
1017.93	224.60
1018.22	224.57
1018.50	224.57
1018.79	224.55
1019.08	224.52
1019.36	224.56
1019.65	224.55
1019.93	224.58
1020.22	224.59
1020.51	224.61
1020.79	224.59
1021.08	224.42
1021.36	224.44
1021.65	224.09
1021.94	224.46
1022.22	224.93
1022.51	224.09
1022.79	224.87
1023.08	224.86
1023.36	225.30
1023.65	224.08
>>>>>End Processed Spectral Data<<<<<
