SpectraSuite Data File
++++++++++++++++++++++++++++++++++++
Date: Fri Feb 01 14:58:51 EST 2013
User: group
Dark Spectrum Present: No
Reference Spectrum Present: No
Number of Sampled Component Spectra: 1
Spectrometers: USB2E7196
Integration Time (usec): 35000 (USB2E7196)
Spectra Averaged: 100 (USB2E7196)
Boxcar Smoothing: 10 (USB2E7196)
Correct for Electrical Dark: No (USB2E7196)
Strobe/Lamp Enabled: No (USB2E7196)
Correct for Detector Non-linearity: No (USB2E7196)
Correct for Stray Light: No (USB2E7196)
Number of Pixels in Processed Spectrum: 2048
>>>>>Begin Processed Spectral Data<<<<<
339.09	0.00
339.48	215.34
339.86	216.80
340.24	217.86
340.63	219.33
341.01	221.91
341.39	221.94
341.78	223.31
342.16	224.48
342.54	225.16
342.93	213.52
343.31	224.29
343.69	224.85
344.07	225.32
344.46	225.76
344.84	226.14
345.22	226.41
345.60	226.68
345.99	226.88
346.37	227.03
346.75	227.13
347.13	227.16
347.52	227.22
347.90	227.31
348.28	227.35
348.66	227.40
349.05	227.38
349.43	227.44
349.81	227.47
350.19	227.49
350.57	227.55
350.96	227.61
351.34	227.70
351.72	227.78
352.10	227.83
352.48	227.91
352.87	227.95
353.25	228.01
353.63	228.04
354.01	228.09
354.39	228.16
354.77	228.22
355.15	228.30
355.54	228.32
355.92	228.34
356.30	228.41
356.68	228.56
357.06	228.64
357.44	228.64
357.82	228.69
358.20	228.75
358.58	228.81
358.97	228.88
359.35	228.94
359.73	228.99
360.11	229.04
360.49	229.06
360.87	229.08
361.25	229.14
361.63	229.20
362.01	229.25
362.39	229.24
362.77	229.28
363.15	229.30
363.53	229.34
363.91	229.34
364.29	229.35
364.67	229.24
365.05	229.21
365.43	229.25
365.81	229.27
366.19	229.30
366.57	229.33
366.95	229.31
367.33	229.29
367.71	229.25
368.09	229.26
368.47	229.24
368.85	229.24
369.23	229.22
369.61	229.16
369.99	229.12
370.37	229.11
370.75	229.10
371.13	229.08
371.51	229.00
371.89	228.94
372.27	228.90
372.65	228.82
373.03	228.77
373.41	228.72
373.78	228.63
374.16	228.52
374.54	228.43
374.92	228.36
375.30	228.31
375.68	228.25
376.06	228.20
376.44	228.10
376.82	228.02
377.19	227.96
377.57	227.87
377.95	227.79
378.33	227.71
378.71	227.61
379.09	227.52
379.47	227.45
379.84	227.38
380.22	227.30
380.60	227.21
380.98	227.16
381.36	227.06
381.73	227.02
382.11	226.98
382.49	226.90
382.87	226.84
383.25	226.73
383.62	226.77
384.00	226.67
384.38	226.63
384.76	226.60
385.13	226.56
385.51	226.52
385.89	226.46
386.27	226.40
386.64	226.37
387.02	226.34
387.40	226.30
387.78	226.28
388.15	226.24
388.53	226.25
388.91	226.24
389.29	226.20
389.66	226.21
390.04	226.16
390.42	226.15
390.79	226.13
391.17	226.14
391.55	226.05
391.92	226.05
392.30	226.05
392.68	226.01
393.05	226.04
393.43	226.06
393.81	226.11
394.18	226.12
394.56	226.15
394.94	226.21
395.31	226.24
395.69	226.31
396.06	226.36
396.44	226.41
396.82	226.41
397.19	226.54
397.57	226.57
397.95	226.66
398.32	226.69
398.70	226.77
399.07	226.88
399.45	226.96
399.82	227.05
400.20	227.14
400.58	227.24
400.95	227.28
401.33	227.41
401.70	227.57
402.08	227.68
402.45	227.76
402.83	227.88
403.20	228.03
403.58	228.15
403.95	228.33
404.33	228.48
404.71	228.65
405.08	228.85
405.46	229.00
405.83	229.18
406.21	229.37
406.58	229.56
406.96	229.74
407.33	229.92
407.70	230.16
408.08	230.41
408.45	230.64
408.83	230.90
409.20	231.07
409.58	231.29
409.95	231.58
410.33	231.87
410.70	232.11
411.08	232.38
411.45	232.66
411.82	232.95
412.20	233.31
412.57	233.69
412.95	233.97
413.32	234.39
413.69	234.79
414.07	235.19
414.44	235.64
414.82	236.06
415.19	236.59
415.56	237.12
415.94	237.71
416.31	238.36
416.68	238.97
417.06	239.72
417.43	240.34
417.81	241.04
418.18	241.81
418.55	242.65
418.93	243.53
419.30	244.44
419.67	245.35
420.04	246.32
420.42	247.34
420.79	248.49
421.16	249.64
421.54	250.83
421.91	252.07
422.28	253.35
422.66	254.72
423.03	256.06
423.40	257.39
423.77	258.76
424.15	260.20
424.52	261.70
424.89	263.27
425.26	264.88
425.64	266.39
426.01	268.00
426.38	269.65
426.75	271.34
427.13	273.03
427.50	274.83
427.87	276.67
428.24	278.53
428.61	280.28
428.99	282.21
429.36	284.30
429.73	286.38
430.10	288.40
430.47	290.45
430.85	292.58
431.22	294.79
431.59	297.16
431.96	299.37
432.33	301.82
432.70	304.22
433.08	306.98
433.45	309.63
433.82	312.26
434.19	315.20
434.56	318.01
434.93	320.72
435.30	323.37
435.68	326.30
436.05	329.12
436.42	331.92
436.79	334.43
437.16	337.14
437.53	339.98
437.90	342.79
438.27	345.53
438.64	348.37
439.01	350.98
439.38	353.21
439.75	355.37
440.13	357.87
440.50	360.23
440.87	362.13
441.24	364.12
441.61	366.26
441.98	367.74
442.35	369.57
442.72	371.46
443.09	373.26
443.46	374.27
443.83	374.86
444.20	375.36
444.57	376.21
444.94	376.47
445.31	376.80
445.68	377.16
446.05	377.26
446.42	376.86
446.79	376.43
447.16	376.02
447.53	375.74
447.90	374.61
448.27	373.44
448.64	371.86
449.01	370.64
449.37	368.65
449.74	366.76
450.11	364.46
450.48	361.90
450.85	359.40
451.22	357.22
451.59	355.18
451.96	353.25
452.33	350.63
452.70	348.27
453.07	345.40
453.43	342.45
453.80	339.67
454.17	336.99
454.54	334.45
454.91	331.71
455.28	329.02
455.65	326.51
456.02	324.06
456.38	321.91
456.75	319.28
457.12	317.01
457.49	314.79
457.86	312.65
458.23	310.81
458.59	308.74
458.96	306.67
459.33	304.87
459.70	303.01
460.07	301.54
460.43	299.81
460.80	298.21
461.17	296.79
461.54	295.27
461.91	293.85
462.27	292.43
462.64	291.17
463.01	289.82
463.38	288.54
463.74	287.17
464.11	285.99
464.48	284.95
464.85	283.85
465.21	282.96
465.58	282.04
465.95	280.95
466.32	280.05
466.68	279.12
467.05	278.17
467.42	277.25
467.78	276.29
468.15	275.44
468.52	274.81
468.88	273.93
469.25	273.14
469.62	272.49
469.98	271.78
470.35	271.14
470.72	270.54
471.08	269.85
471.45	269.27
471.82	268.70
472.18	268.06
472.55	267.59
472.92	267.06
473.28	266.56
473.65	266.09
474.02	265.63
474.38	265.27
474.75	264.94
475.11	264.59
475.48	264.30
475.85	264.07
476.21	263.80
476.58	263.59
476.94	263.47
477.31	263.29
477.67	263.13
478.04	263.02
478.41	262.91
478.77	262.94
479.14	262.87
479.50	262.86
479.87	262.90
480.23	262.97
480.60	263.04
480.96	263.13
481.33	263.36
481.69	263.53
482.06	263.71
482.42	263.90
482.79	264.14
483.15	264.43
483.52	264.77
483.88	265.09
484.25	265.48
484.61	265.87
484.98	266.30
485.34	266.87
485.71	267.43
486.07	268.05
486.44	268.59
486.80	269.32
487.17	270.02
487.53	270.80
487.90	271.64
488.26	272.52
488.62	273.47
488.99	274.38
489.35	275.44
489.72	276.54
490.08	277.72
490.44	278.97
490.81	280.28
491.17	281.63
491.54	283.08
491.90	284.62
492.26	286.29
492.63	288.00
492.99	289.72
493.36	291.61
493.72	293.58
494.08	295.69
494.45	297.89
494.81	300.22
495.17	302.70
495.54	305.25
495.90	307.94
496.26	310.76
496.63	313.73
496.99	316.78
497.35	320.02
497.72	323.39
498.08	326.90
498.44	330.55
498.80	334.47
499.17	338.50
499.53	342.67
499.89	347.00
500.26	351.49
500.62	356.18
500.98	361.12
501.34	366.25
501.71	371.55
502.07	376.98
502.43	382.60
502.79	388.37
503.16	394.46
503.52	400.70
503.88	407.03
504.24	413.62
504.60	420.54
504.97	427.72
505.33	435.07
505.69	442.76
506.05	450.57
506.41	458.42
506.78	466.59
507.14	474.97
507.50	483.65
507.86	492.63
508.22	501.78
508.59	510.94
508.95	520.44
509.31	530.22
509.67	540.27
510.03	550.55
510.39	561.14
510.75	571.92
511.12	582.89
511.48	594.20
511.84	605.60
512.20	617.14
512.56	629.06
512.92	641.20
513.28	653.48
513.64	665.95
514.00	678.65
514.37	691.54
514.73	704.63
515.09	717.67
515.45	731.03
515.81	744.65
516.17	758.71
516.53	772.87
516.89	786.98
517.25	801.26
517.61	815.63
517.97	830.09
518.33	844.49
518.69	859.32
519.05	874.37
519.41	889.58
519.77	905.21
520.13	920.67
520.49	936.01
520.85	951.48
521.21	967.26
521.57	983.52
521.93	999.40
522.29	1015.86
522.65	1032.27
523.01	1048.44
523.37	1064.55
523.73	1080.72
524.09	1096.90
524.45	1113.31
524.81	1130.02
525.17	1147.04
525.53	1164.04
525.89	1180.95
526.25	1197.80
526.61	1214.30
526.97	1231.13
527.33	1247.50
527.68	1264.15
528.04	1280.72
528.40	1297.58
528.76	1314.78
529.12	1331.54
529.48	1348.38
529.84	1364.49
530.20	1381.21
530.56	1398.46
530.91	1415.94
531.27	1432.70
531.63	1449.20
531.99	1465.97
532.35	1481.95
532.71	1497.86
533.07	1514.21
533.42	1530.26
533.78	1546.22
534.14	1562.45
534.50	1577.96
534.86	1594.01
535.21	1609.25
535.57	1625.25
535.93	1640.68
536.29	1655.43
536.65	1670.60
537.00	1685.55
537.36	1700.95
537.72	1715.43
538.08	1729.77
538.44	1743.67
538.79	1757.80
539.15	1771.77
539.51	1785.55
539.87	1799.97
540.22	1813.80
540.58	1827.59
540.94	1841.18
541.29	1854.39
541.65	1867.37
542.01	1880.63
542.37	1893.02
542.72	1905.52
543.08	1917.53
543.44	1930.17
543.79	1941.62
544.15	1952.64
544.51	1964.26
544.87	1975.31
545.22	1986.30
545.58	1996.62
545.94	2006.37
546.29	2016.32
546.65	2025.99
547.01	2035.29
547.36	2044.10
547.72	2052.64
548.07	2060.58
548.43	2068.71
548.79	2076.68
549.14	2084.09
549.50	2091.52
549.86	2099.29
550.21	2106.70
550.57	2113.92
550.92	2120.37
551.28	2127.36
551.64	2134.38
551.99	2140.94
552.35	2146.93
552.70	2153.01
553.06	2158.98
553.41	2165.38
553.77	2171.40
554.13	2177.65
554.48	2183.71
554.84	2188.97
555.19	2194.21
555.55	2199.24
555.90	2203.55
556.26	2208.41
556.61	2213.13
556.97	2217.30
557.32	2221.25
557.68	2225.26
558.03	2229.53
558.39	2233.23
558.74	2237.84
559.10	2241.58
559.45	2245.15
559.81	2249.64
560.16	2253.47
560.52	2256.65
560.87	2259.99
561.23	2262.44
561.58	2265.26
561.94	2267.73
562.29	2270.22
562.64	2272.82
563.00	2275.34
563.35	2278.90
563.71	2281.93
564.06	2284.97
564.42	2287.74
564.77	2290.21
565.12	2292.40
565.48	2294.01
565.83	2295.66
566.19	2296.93
566.54	2297.80
566.89	2298.83
567.25	2299.11
567.60	2300.30
567.96	2301.78
568.31	2302.55
568.66	2303.54
569.02	2303.89
569.37	2304.12
569.72	2304.89
570.08	2304.79
570.43	2304.65
570.78	2303.66
571.14	2301.98
571.49	2300.48
571.84	2299.87
572.20	2298.46
572.55	2297.21
572.90	2295.47
573.26	2294.02
573.61	2292.02
573.96	2290.08
574.31	2286.94
574.67	2283.76
575.02	2279.80
575.37	2276.23
575.72	2272.21
576.08	2268.79
576.43	2265.32
576.78	2261.50
577.13	2258.11
577.49	2254.92
577.84	2251.37
578.19	2247.57
578.54	2243.53
578.90	2239.23
579.25	2233.72
579.60	2228.57
579.95	2223.47
580.30	2218.32
580.66	2213.06
581.01	2207.95
581.36	2202.83
581.71	2198.44
582.06	2193.83
582.42	2189.30
582.77	2184.00
583.12	2179.24
583.47	2174.27
583.82	2169.02
584.17	2163.65
584.53	2157.96
584.88	2152.20
585.23	2146.15
585.58	2140.59
585.93	2135.28
586.28	2130.35
586.63	2125.17
586.98	2120.04
587.34	2115.28
587.69	2110.34
588.04	2104.82
588.39	2099.02
588.74	2092.63
589.09	2086.33
589.44	2079.48
589.79	2073.43
590.14	2067.73
590.49	2060.98
590.84	2054.55
591.19	2048.57
591.54	2041.90
591.89	2034.20
592.25	2027.35
592.60	2020.08
592.95	2012.36
593.30	2004.82
593.65	1997.11
594.00	1989.92
594.35	1982.65
594.70	1974.50
595.05	1967.18
595.40	1959.84
595.75	1952.36
596.10	1945.85
596.45	1939.11
596.80	1932.83
597.15	1926.12
597.50	1918.86
597.85	1912.49
598.19	1905.83
598.54	1898.52
598.89	1891.95
599.24	1886.22
599.59	1879.37
599.94	1873.16
600.29	1866.84
600.64	1860.22
600.99	1852.62
601.34	1845.74
601.69	1838.77
602.04	1831.71
602.39	1824.32
602.74	1817.43
603.08	1810.59
603.43	1803.98
603.78	1796.64
604.13	1789.41
604.48	1781.99
604.83	1775.14
605.18	1767.95
605.53	1759.80
605.87	1751.99
606.22	1744.63
606.57	1736.67
606.92	1729.38
607.27	1722.15
607.62	1715.19
607.96	1707.88
608.31	1701.38
608.66	1693.72
609.01	1686.08
609.36	1678.55
609.70	1670.57
610.05	1662.47
610.40	1654.76
610.75	1646.39
611.10	1638.81
611.44	1630.54
611.79	1622.64
612.14	1613.95
612.49	1605.02
612.83	1596.69
613.18	1588.44
613.53	1580.51
613.88	1571.90
614.22	1563.68
614.57	1555.25
614.92	1547.29
615.27	1539.79
615.61	1531.51
615.96	1523.51
616.31	1516.00
616.65	1508.74
617.00	1501.12
617.35	1493.63
617.70	1485.20
618.04	1476.62
618.39	1468.49
618.74	1460.80
619.08	1452.48
619.43	1445.06
619.78	1438.22
620.12	1431.18
620.47	1423.63
620.82	1415.44
621.16	1408.19
621.51	1400.63
621.85	1392.97
622.20	1384.39
622.55	1376.13
622.89	1368.29
623.24	1360.77
623.59	1353.36
623.93	1345.85
624.28	1338.68
624.62	1331.07
624.97	1324.09
625.32	1317.49
625.66	1310.41
626.01	1303.25
626.35	1295.78
626.70	1288.04
627.04	1280.15
627.39	1272.29
627.73	1265.03
628.08	1258.18
628.43	1250.85
628.77	1243.43
629.12	1235.83
629.46	1228.78
629.81	1221.46
630.15	1214.44
630.50	1206.97
630.84	1198.87
631.19	1190.99
631.53	1183.62
631.88	1176.14
632.22	1168.60
632.57	1161.23
632.91	1153.66
633.26	1146.34
633.60	1139.20
633.95	1132.26
634.29	1125.38
634.64	1118.84
634.98	1111.47
635.32	1104.34
635.67	1097.90
636.01	1091.42
636.36	1084.80
636.70	1078.42
637.05	1071.86
637.39	1065.32
637.73	1058.96
638.08	1053.21
638.42	1047.28
638.77	1040.90
639.11	1034.36
639.45	1028.06
639.80	1021.48
640.14	1015.17
640.49	1008.68
640.83	1002.36
641.17	996.12
641.52	989.85
641.86	983.45
642.20	977.72
642.55	971.52
642.89	964.99
643.23	958.51
643.58	952.68
643.92	946.46
644.26	940.43
644.61	934.48
644.95	928.46
645.29	921.77
645.64	915.03
645.98	908.64
646.32	902.90
646.66	896.81
647.01	891.05
647.35	885.30
647.69	879.52
648.04	873.98
648.38	868.19
648.72	862.13
649.06	856.04
649.41	850.17
649.75	844.19
650.09	838.26
650.43	832.45
650.78	826.33
651.12	820.42
651.46	814.62
651.80	808.86
652.14	803.48
652.49	798.17
652.83	793.05
653.17	787.43
653.51	781.69
653.85	776.36
654.20	770.82
654.54	764.85
654.88	759.16
655.22	753.39
655.56	747.64
655.90	742.29
656.25	737.07
656.59	731.67
656.93	726.62
657.27	721.51
657.61	716.13
657.95	711.09
658.29	706.00
658.64	700.91
658.98	695.63
659.32	690.16
659.66	684.98
660.00	679.68
660.34	674.81
660.68	669.89
661.02	664.85
661.36	660.14
661.70	655.71
662.05	651.34
662.39	646.97
662.73	642.59
663.07	638.27
663.41	633.83
663.75	629.44
664.09	624.84
664.43	620.49
664.77	616.37
665.11	612.14
665.45	608.04
665.79	604.00
666.13	599.92
666.47	595.83
666.81	591.69
667.15	587.59
667.49	583.74
667.83	580.03
668.17	576.18
668.51	572.10
668.85	568.13
669.19	564.37
669.53	560.52
669.87	556.66
670.21	553.05
670.55	549.48
670.89	546.04
671.23	542.70
671.57	539.23
671.91	535.70
672.25	532.25
672.58	528.81
672.92	525.39
673.26	522.25
673.60	519.15
673.94	516.05
674.28	513.23
674.62	510.21
674.96	507.09
675.30	504.18
675.64	501.27
675.97	498.46
676.31	495.60
676.65	492.77
676.99	490.08
677.33	487.16
677.67	484.37
678.01	481.38
678.34	478.37
678.68	475.53
679.02	472.76
679.36	470.03
679.70	467.29
680.04	464.58
680.37	461.68
680.71	458.91
681.05	456.38
681.39	453.65
681.73	451.08
682.06	448.54
682.40	446.00
682.74	443.51
683.08	441.04
683.42	438.47
683.75	435.93
684.09	433.41
684.43	430.99
684.77	428.56
685.10	426.21
685.44	423.92
685.78	421.58
686.12	419.33
686.45	417.09
686.79	414.80
687.13	412.59
687.46	410.53
687.80	408.43
688.14	406.21
688.48	404.16
688.81	401.91
689.15	399.79
689.49	397.66
689.82	395.59
690.16	393.53
690.50	391.59
690.83	389.70
691.17	387.76
691.51	385.89
691.84	384.02
692.18	382.14
692.52	380.20
692.85	378.30
693.19	376.45
693.52	374.56
693.86	372.74
694.20	371.00
694.53	369.15
694.87	367.30
695.21	365.54
695.54	363.77
695.88	362.05
696.21	360.34
696.55	358.69
696.88	357.02
697.22	355.37
697.56	353.75
697.89	352.12
698.23	350.49
698.56	348.80
698.90	347.22
699.23	345.52
699.57	343.98
699.90	342.49
700.24	340.95
700.58	339.44
700.91	338.01
701.25	336.55
701.58	335.22
701.92	333.85
702.25	332.43
702.59	331.07
702.92	329.73
703.26	328.46
703.59	327.16
703.93	325.95
704.26	324.73
704.60	323.42
704.93	322.14
705.26	320.89
705.60	319.76
705.93	318.62
706.27	317.64
706.60	316.60
706.94	315.52
707.27	314.43
707.61	313.40
707.94	312.37
708.27	311.29
708.61	310.21
708.94	309.26
709.28	308.30
709.61	307.32
709.94	306.45
710.28	305.45
710.61	304.49
710.95	303.47
711.28	302.56
711.61	301.64
711.95	300.74
712.28	299.80
712.61	298.84
712.95	297.92
713.28	297.06
713.61	296.15
713.95	295.28
714.28	294.44
714.61	293.56
714.95	292.71
715.28	291.90
715.61	291.06
715.95	290.21
716.28	289.39
716.61	288.58
716.95	287.73
717.28	286.97
717.61	286.22
717.94	285.47
718.28	284.66
718.61	283.94
718.94	283.28
719.27	282.64
719.61	282.03
719.94	281.35
720.27	280.63
720.60	279.97
720.94	279.34
721.27	278.74
721.60	278.20
721.93	277.62
722.27	277.06
722.60	276.52
722.93	275.93
723.26	275.41
723.59	274.87
723.93	274.33
724.26	273.78
724.59	273.22
724.92	272.68
725.25	272.19
725.59	271.70
725.92	271.17
726.25	270.67
726.58	270.16
726.91	269.71
727.24	269.25
727.57	268.80
727.91	268.29
728.24	267.81
728.57	267.31
728.90	266.85
729.23	266.33
729.56	265.88
729.89	265.42
730.22	264.92
730.55	264.47
730.89	264.04
731.22	263.62
731.55	263.18
731.88	262.79
732.21	262.37
732.54	261.94
732.87	261.55
733.20	261.13
733.53	260.72
733.86	260.32
734.19	259.90
734.52	259.56
734.85	259.25
735.18	258.85
735.51	258.48
735.84	258.12
736.17	257.78
736.50	257.40
736.83	257.17
737.16	256.89
737.49	256.52
737.82	256.16
738.15	255.82
738.48	255.50
738.81	255.20
739.14	254.85
739.47	254.48
739.80	254.16
740.13	253.85
740.46	253.56
740.79	253.23
741.12	252.91
741.45	252.58
741.78	252.21
742.11	251.93
742.44	251.60
742.77	251.30
743.10	251.00
743.43	250.70
743.75	250.31
744.08	250.15
744.41	249.89
744.74	249.62
745.07	249.32
745.40	249.07
745.73	248.81
746.06	248.56
746.39	248.36
746.71	248.08
747.04	247.81
747.37	247.56
747.70	247.31
748.03	247.09
748.36	246.88
748.68	246.64
749.01	246.38
749.34	246.16
749.67	245.96
750.00	245.75
750.33	245.58
750.65	245.37
750.98	245.02
751.31	244.78
751.64	244.60
751.97	244.44
752.29	244.22
752.62	243.97
752.95	243.77
753.28	243.56
753.60	243.38
753.93	243.21
754.26	243.03
754.59	242.84
754.91	242.63
755.24	242.45
755.57	242.30
755.90	242.13
756.22	241.92
756.55	241.70
756.88	241.52
757.20	241.29
757.53	241.12
757.86	240.96
758.19	240.84
758.51	240.67
758.84	240.50
759.17	240.35
759.49	240.21
759.82	240.09
760.15	239.94
760.47	239.78
760.80	239.61
761.13	239.49
761.45	239.33
761.78	239.20
762.11	239.03
762.43	238.89
762.76	238.74
763.08	238.66
763.41	238.53
763.74	238.41
764.06	238.30
764.39	238.12
764.71	237.99
765.04	237.84
765.37	237.68
765.69	237.54
766.02	237.42
766.34	237.28
766.67	237.10
767.00	237.03
767.32	236.94
767.65	236.89
767.97	236.72
768.30	236.61
768.62	236.50
768.95	236.35
769.27	236.21
769.60	236.13
769.92	236.00
770.25	235.87
770.57	235.73
770.90	235.59
771.22	235.51
771.55	235.38
771.87	235.27
772.20	235.15
772.52	235.10
772.85	235.08
773.17	235.01
773.50	234.91
773.82	234.75
774.15	234.64
774.47	234.48
774.80	234.40
775.12	234.33
775.45	234.22
775.77	234.17
776.09	234.10
776.42	233.98
776.74	233.90
777.07	233.83
777.39	233.74
777.72	233.67
778.04	233.60
778.36	233.52
778.69	233.43
779.01	233.39
779.33	233.25
779.66	233.08
779.98	232.97
780.31	232.90
780.63	232.88
780.95	232.81
781.28	232.74
781.60	232.66
781.92	232.56
782.25	232.51
782.57	232.46
782.89	232.41
783.22	232.34
783.54	232.25
783.86	232.16
784.19	232.13
784.51	232.11
784.83	232.04
785.16	232.01
785.48	232.03
785.80	231.95
786.12	231.91
786.45	231.90
786.77	231.91
787.09	231.87
787.42	231.81
787.74	231.77
788.06	231.75
788.38	231.74
788.71	231.70
789.03	231.65
789.35	231.60
789.67	231.56
789.99	231.59
790.32	231.56
790.64	231.58
790.96	231.62
791.28	231.55
791.61	231.48
791.93	231.45
792.25	231.38
792.57	231.44
792.89	231.40
793.21	231.34
793.54	231.30
793.86	231.25
794.18	231.19
794.50	231.16
794.82	231.14
795.14	231.13
795.47	231.17
795.79	231.19
796.11	231.15
796.43	231.11
796.75	231.02
797.07	231.00
797.39	230.98
797.71	230.86
798.04	230.84
798.36	230.85
798.68	230.82
799.00	230.80
799.32	230.72
799.64	230.74
799.96	230.73
800.28	230.71
800.60	230.70
800.92	230.70
801.24	230.65
801.56	230.63
801.89	230.58
802.21	230.50
802.53	230.42
802.85	230.41
803.17	230.45
803.49	230.39
803.81	230.34
804.13	230.30
804.45	230.28
804.77	230.29
805.09	230.26
805.41	230.20
805.73	230.18
806.05	230.14
806.37	230.06
806.69	230.00
807.01	229.96
807.33	229.94
807.65	229.88
807.97	229.89
808.28	229.84
808.60	229.80
808.92	229.79
809.24	229.83
809.56	229.78
809.88	229.71
810.20	229.73
810.52	229.73
810.84	229.69
811.16	229.62
811.48	229.60
811.80	229.60
812.12	229.57
812.43	229.52
812.75	229.45
813.07	229.43
813.39	229.42
813.71	229.38
814.03	229.32
814.35	229.32
814.67	229.24
814.98	229.19
815.30	229.14
815.62	229.09
815.94	229.00
816.26	229.01
816.58	228.99
816.89	228.95
817.21	228.91
817.53	228.90
817.85	228.95
818.17	228.91
818.48	228.87
818.80	228.84
819.12	228.84
819.44	228.85
819.76	228.81
820.07	228.80
820.39	228.77
820.71	228.77
821.03	228.72
821.34	228.70
821.66	228.73
821.98	228.72
822.30	228.69
822.61	228.74
822.93	228.66
823.25	228.66
823.57	228.65
823.88	228.63
824.20	228.62
824.52	228.61
824.83	228.57
825.15	228.55
825.47	228.56
825.79	228.56
826.10	228.54
826.42	228.51
826.74	228.49
827.05	228.47
827.37	228.45
827.69	228.43
828.00	228.45
828.32	228.40
828.64	228.39
828.95	228.45
829.27	228.44
829.58	228.44
829.90	228.44
830.22	228.43
830.53	228.44
830.85	228.42
831.17	228.38
831.48	228.39
831.80	228.39
832.11	228.38
832.43	228.36
832.75	228.38
833.06	228.43
833.38	228.41
833.69	228.42
834.01	228.42
834.32	228.43
834.64	228.38
834.96	228.39
835.27	228.39
835.59	228.34
835.90	228.30
836.22	228.29
836.53	228.28
836.85	228.26
837.16	228.34
837.48	228.31
837.79	228.30
838.11	228.31
838.42	228.32
838.74	228.33
839.05	228.33
839.37	228.28
839.68	228.23
840.00	228.25
840.31	228.25
840.63	228.23
840.94	228.25
841.26	228.26
841.57	228.26
841.88	228.23
842.20	228.20
842.51	228.19
842.83	228.20
843.14	228.26
843.46	228.25
843.77	228.20
844.08	228.21
844.40	228.20
844.71	228.14
845.03	228.12
845.34	228.09
845.65	228.06
845.97	228.06
846.28	228.04
846.60	228.03
846.91	227.99
847.22	227.99
847.54	227.98
847.85	228.00
848.16	228.00
848.48	228.00
848.79	228.05
849.10	228.04
849.42	228.02
849.73	227.92
850.04	227.87
850.36	227.79
850.67	227.80
850.98	227.79
851.30	227.79
851.61	227.77
851.92	227.76
852.23	227.80
852.55	227.80
852.86	227.80
853.17	227.77
853.49	227.81
853.80	227.78
854.11	227.80
854.42	227.78
854.74	227.72
855.05	227.73
855.36	227.67
855.67	227.66
855.99	227.64
856.30	227.75
856.61	227.76
856.92	227.75
857.23	227.75
857.55	227.75
857.86	227.74
858.17	227.73
858.48	227.68
858.79	227.64
859.11	227.62
859.42	227.58
859.73	227.58
860.04	227.57
860.35	227.56
860.66	227.50
860.98	227.47
861.29	227.49
861.60	227.46
861.91	227.47
862.22	227.46
862.53	227.45
862.84	227.32
863.16	227.33
863.47	227.31
863.78	227.29
864.09	227.27
864.40	227.27
864.71	227.27
865.02	227.32
865.33	227.32
865.64	227.33
865.95	227.34
866.27	227.38
866.58	227.37
866.89	227.40
867.20	227.40
867.51	227.40
867.82	227.38
868.13	227.41
868.44	227.40
868.75	227.41
869.06	227.44
869.37	227.45
869.68	227.46
869.99	227.51
870.30	227.54
870.61	227.56
870.92	227.54
871.23	227.54
871.54	227.53
871.85	227.55
872.16	227.54
872.47	227.55
872.78	227.52
873.09	227.54
873.40	227.52
873.71	227.57
874.02	227.56
874.33	227.57
874.64	227.57
874.95	227.57
875.26	227.54
875.56	227.55
875.87	227.60
876.18	227.55
876.49	227.66
876.80	227.64
877.11	227.63
877.42	227.66
877.73	227.68
878.04	227.68
878.35	227.67
878.66	227.69
878.96	227.68
879.27	227.66
879.58	227.64
879.89	227.65
880.20	227.67
880.51	227.68
880.82	227.71
881.12	227.71
881.43	227.70
881.74	227.69
882.05	227.67
882.36	227.64
882.67	227.68
882.97	227.56
883.28	227.58
883.59	227.57
883.90	227.58
884.21	227.55
884.51	227.57
884.82	227.55
885.13	227.56
885.44	227.55
885.74	227.56
886.05	227.56
886.36	227.54
886.67	227.47
886.98	227.51
887.28	227.50
887.59	227.49
887.90	227.48
888.20	227.48
888.51	227.49
888.82	227.46
889.13	227.43
889.43	227.51
889.74	227.48
890.05	227.44
890.35	227.41
890.66	227.42
890.97	227.37
891.28	227.36
891.58	227.31
891.89	227.30
892.20	227.27
892.50	227.25
892.81	227.22
893.12	227.19
893.42	227.14
893.73	227.11
894.04	227.11
894.34	227.10
894.65	227.09
894.95	227.05
895.26	227.07
895.57	227.09
895.87	226.96
896.18	226.97
896.48	226.98
896.79	226.98
897.10	226.99
897.40	227.01
897.71	227.00
898.01	227.00
898.32	227.03
898.63	227.04
898.93	227.08
899.24	227.12
899.54	227.16
899.85	227.14
900.15	227.14
900.46	227.13
900.76	227.17
901.07	227.17
901.38	227.16
901.68	227.17
901.99	227.13
902.29	227.18
902.60	227.16
902.90	227.14
903.21	227.16
903.51	227.14
903.82	227.11
904.12	227.13
904.43	227.14
904.73	227.14
905.03	227.16
905.34	227.23
905.64	227.20
905.95	227.21
906.25	227.22
906.56	227.23
906.86	227.25
907.17	227.22
907.47	227.26
907.77	227.29
908.08	227.27
908.38	227.26
908.69	227.26
908.99	227.29
909.30	227.32
909.60	227.34
909.90	227.34
910.21	227.39
910.51	227.39
910.81	227.40
911.12	227.41
911.42	227.41
911.73	227.32
912.03	227.32
912.33	227.32
912.64	227.33
912.94	227.33
913.24	227.33
913.55	227.36
913.85	227.33
914.15	227.36
914.46	227.39
914.76	227.42
915.06	227.42
915.37	227.42
915.67	227.42
915.97	227.42
916.27	227.43
916.58	227.39
916.88	227.38
917.18	227.38
917.49	227.42
917.79	227.44
918.09	227.47
918.39	227.52
918.70	227.54
919.00	227.55
919.30	227.59
919.60	227.57
919.91	227.53
920.21	227.56
920.51	227.55
920.81	227.53
921.12	227.52
921.42	227.52
921.72	227.54
922.02	227.51
922.32	227.51
922.63	227.51
922.93	227.54
923.23	227.58
923.53	227.57
923.83	227.49
924.13	227.49
924.44	227.47
924.74	227.49
925.04	227.48
925.34	227.48
925.64	227.42
925.94	227.38
926.24	227.43
926.55	227.41
926.85	227.38
927.15	227.40
927.45	227.39
927.75	227.37
928.05	227.35
928.35	227.37
928.65	227.38
928.95	227.35
929.26	227.32
929.56	227.27
929.86	227.29
930.16	227.30
930.46	227.27
930.76	227.23
931.06	227.14
931.36	227.10
931.66	227.09
931.96	227.08
932.26	227.11
932.56	227.05
932.86	227.06
933.16	227.06
933.46	227.02
933.76	226.98
934.06	227.00
934.36	227.02
934.66	227.01
934.96	226.98
935.26	227.02
935.56	227.03
935.86	227.02
936.16	226.99
936.46	226.99
936.76	226.97
937.06	226.98
937.36	226.99
937.66	226.99
937.96	226.99
938.26	227.00
938.56	226.98
938.86	227.01
939.16	227.02
939.46	227.03
939.76	227.03
940.06	227.07
940.35	227.04
940.65	226.97
940.95	226.99
941.25	226.97
941.55	226.93
941.85	226.93
942.15	226.95
942.45	226.95
942.75	226.95
943.04	226.97
943.34	226.97
943.64	226.96
943.94	226.94
944.24	226.93
944.54	226.92
944.84	226.94
945.13	226.91
945.43	226.88
945.73	226.89
946.03	226.88
946.33	226.86
946.62	226.86
946.92	226.88
947.22	226.86
947.52	226.87
947.82	226.91
948.11	226.88
948.41	226.86
948.71	226.83
949.01	226.84
949.31	226.83
949.60	226.85
949.90	226.87
950.20	226.86
950.50	226.88
950.79	226.89
951.09	226.89
951.39	226.90
951.69	226.88
951.98	226.92
952.28	226.94
952.58	226.93
952.87	226.95
953.17	226.97
953.47	226.96
953.76	226.98
954.06	226.96
954.36	226.97
954.66	226.99
954.95	227.05
955.25	227.04
955.55	227.04
955.84	227.04
956.14	227.03
956.44	227.07
956.73	227.05
957.03	227.06
957.32	227.06
957.62	227.09
957.92	227.12
958.21	227.10
958.51	227.20
958.81	227.27
959.10	227.25
959.40	227.28
959.69	227.27
959.99	227.28
960.29	227.30
960.58	227.28
960.88	227.29
961.17	227.26
961.47	227.27
961.76	227.27
962.06	227.24
962.36	227.26
962.65	227.25
962.95	227.25
963.24	227.24
963.54	227.23
963.83	227.19
964.13	227.20
964.42	227.14
964.72	227.09
965.01	227.01
965.31	227.02
965.60	226.97
965.90	227.07
966.19	227.00
966.49	226.98
966.78	226.98
967.08	226.95
967.37	226.95
967.67	226.92
967.96	226.93
968.26	226.92
968.55	226.93
968.85	226.91
969.14	226.90
969.43	226.90
969.73	226.90
970.02	226.88
970.32	226.83
970.61	226.83
970.91	226.78
971.20	226.78
971.49	226.77
971.79	226.80
972.08	226.73
972.38	226.79
972.67	226.79
972.96	226.79
973.26	226.80
973.55	226.83
973.85	226.83
974.14	226.83
974.43	226.87
974.73	226.83
975.02	226.84
975.31	226.82
975.61	226.83
975.90	226.77
976.19	226.77
976.49	226.80
976.78	226.81
977.07	226.79
977.37	226.82
977.66	226.82
977.95	226.80
978.24	226.80
978.54	226.78
978.83	226.77
979.12	226.78
979.42	226.79
979.71	226.75
980.00	226.72
980.29	226.71
980.59	226.69
980.88	226.71
981.17	226.71
981.46	226.73
981.76	226.72
982.05	226.77
982.34	226.78
982.63	226.78
982.93	226.79
983.22	226.84
983.51	226.82
983.80	226.84
984.09	226.85
984.39	226.83
984.68	226.84
984.97	226.85
985.26	226.85
985.55	226.86
985.85	226.88
986.14	226.95
986.43	226.94
986.72	226.94
987.01	226.93
987.30	226.93
987.59	226.97
987.89	226.93
988.18	226.93
988.47	226.94
988.76	226.95
989.05	226.95
989.34	226.94
989.63	226.96
989.92	226.99
990.22	227.02
990.51	227.03
990.80	227.02
991.09	227.02
991.38	227.05
991.67	227.07
991.96	227.08
992.25	227.08
992.54	227.09
992.83	227.11
993.12	227.11
993.41	227.14
993.70	227.17
993.99	227.23
994.28	227.24
994.58	227.27
994.87	227.26
995.16	227.27
995.45	227.22
995.74	227.22
996.03	227.21
996.32	227.22
996.61	227.25
996.90	227.28
997.19	227.29
997.48	227.27
997.77	227.25
998.06	227.23
998.34	227.21
998.63	227.21
998.92	227.23
999.21	227.23
999.50	227.22
999.79	227.18
1000.08	227.16
1000.37	227.19
1000.66	227.16
1000.95	227.20
1001.24	227.20
1001.53	227.25
1001.82	227.26
1002.11	227.23
1002.40	227.20
1002.68	227.23
1002.97	227.27
1003.26	227.24
1003.55	227.22
1003.84	227.19
1004.13	227.22
1004.42	227.20
1004.71	227.20
1004.99	227.19
1005.28	227.23
1005.57	227.21
1005.86	227.20
1006.15	227.17
1006.44	227.16
1006.72	227.15
1007.01	227.13
1007.30	227.11
1007.59	227.09
1007.88	227.08
1008.17	227.08
1008.45	227.06
1008.74	227.01
1009.03	226.94
1009.32	226.95
1009.60	226.92
1009.89	226.92
1010.18	226.86
1010.47	226.87
1010.76	226.85
1011.04	226.83
1011.33	226.83
1011.62	226.84
1011.91	226.86
1012.19	226.89
1012.48	226.88
1012.77	226.89
1013.05	226.93
1013.34	226.93
1013.63	226.93
1013.92	226.91
1014.20	226.92
1014.49	226.94
1014.78	226.94
1015.06	226.90
1015.35	226.88
1015.64	226.89
1015.92	226.93
1016.21	226.93
1016.50	226.92
1016.78	226.94
1017.07	226.93
1017.36	226.92
1017.64	226.93
1017.93	226.90
1018.22	226.87
1018.50	226.87
1018.79	226.87
1019.08	226.82
1019.36	226.83
1019.65	226.82
1019.93	226.84
1020.22	226.83
1020.51	226.89
1020.79	226.90
1021.08	226.63
1021.36	226.82
1021.65	227.06
1021.94	226.74
1022.22	226.97
1022.51	226.95
1022.79	227.15
1023.08	226.84
1023.36	228.57
1023.65	227.09
>>>>>End Processed Spectral Data<<<<<
