SpectraSuite Data File
++++++++++++++++++++++++++++++++++++
Date: Fri Feb 01 17:07:17 EST 2013
User: group
Dark Spectrum Present: No
Reference Spectrum Present: No
Number of Sampled Component Spectra: 1
Spectrometers: USB2E7196
Integration Time (usec): 35000 (USB2E7196)
Spectra Averaged: 100 (USB2E7196)
Boxcar Smoothing: 10 (USB2E7196)
Correct for Electrical Dark: No (USB2E7196)
Strobe/Lamp Enabled: No (USB2E7196)
Correct for Detector Non-linearity: No (USB2E7196)
Correct for Stray Light: No (USB2E7196)
Number of Pixels in Processed Spectrum: 2048
>>>>>Begin Processed Spectral Data<<<<<
339.09	0.00
339.48	213.20
339.86	215.07
340.24	216.23
340.63	217.62
341.01	220.09
341.39	219.73
341.78	221.79
342.16	222.56
342.54	222.98
342.93	211.72
343.31	222.45
343.69	223.00
344.07	223.46
344.46	223.89
344.84	224.26
345.22	224.53
345.60	224.80
345.99	224.99
346.37	225.11
346.75	225.22
347.13	225.28
347.52	225.37
347.90	225.44
348.28	225.46
348.66	225.49
349.05	225.50
349.43	225.51
349.81	225.56
350.19	225.60
350.57	225.70
350.96	225.77
351.34	225.84
351.72	225.90
352.10	226.00
352.48	226.09
352.87	226.15
353.25	226.20
353.63	226.27
354.01	226.34
354.39	226.45
354.77	226.52
355.15	226.64
355.54	226.69
355.92	226.73
356.30	226.83
356.68	226.97
357.06	227.06
357.44	227.15
357.82	227.23
358.20	227.28
358.58	227.30
358.97	227.38
359.35	227.44
359.73	227.54
360.11	227.60
360.49	227.63
360.87	227.71
361.25	227.74
361.63	227.84
362.01	227.87
362.39	227.87
362.77	227.94
363.15	227.96
363.53	228.00
363.91	228.01
364.29	228.02
364.67	227.93
365.05	227.96
365.43	227.95
365.81	227.95
366.19	227.98
366.57	228.03
366.95	228.02
367.33	227.97
367.71	227.95
368.09	227.94
368.47	227.92
368.85	227.87
369.23	227.89
369.61	227.83
369.99	227.83
370.37	227.83
370.75	227.83
371.13	227.77
371.51	227.70
371.89	227.69
372.27	227.67
372.65	227.64
373.03	227.58
373.41	227.54
373.78	227.49
374.16	227.39
374.54	227.32
374.92	227.26
375.30	227.21
375.68	227.13
376.06	227.11
376.44	227.05
376.82	227.01
377.19	226.94
377.57	226.86
377.95	226.78
378.33	226.72
378.71	226.60
379.09	226.55
379.47	226.53
379.84	226.43
380.22	226.33
380.60	226.24
380.98	226.19
381.36	226.12
381.73	226.04
382.11	226.00
382.49	225.94
382.87	225.89
383.25	225.87
383.62	225.91
384.00	225.79
384.38	225.78
384.76	225.73
385.13	225.69
385.51	225.61
385.89	225.53
386.27	225.48
386.64	225.44
387.02	225.37
387.40	225.33
387.78	225.32
388.15	225.29
388.53	225.25
388.91	225.19
389.29	225.13
389.66	225.14
390.04	225.09
390.42	225.09
390.79	225.05
391.17	225.02
391.55	224.87
391.92	224.87
392.30	224.85
392.68	224.82
393.05	224.84
393.43	224.86
393.81	224.86
394.18	224.84
394.56	224.86
394.94	224.90
395.31	224.88
395.69	224.90
396.06	224.95
396.44	225.01
396.82	225.05
397.19	225.15
397.57	225.17
397.95	225.26
398.32	225.27
398.70	225.34
399.07	225.40
399.45	225.50
399.82	225.56
400.20	225.59
400.58	225.66
400.95	225.70
401.33	225.80
401.70	225.96
402.08	226.05
402.45	226.11
402.83	226.22
403.20	226.32
403.58	226.40
403.95	226.48
404.33	226.60
404.71	226.71
405.08	226.85
405.46	226.95
405.83	227.06
406.21	227.18
406.58	227.32
406.96	227.46
407.33	227.61
407.70	227.80
408.08	228.05
408.45	228.23
408.83	228.45
409.20	228.61
409.58	228.76
409.95	229.02
410.33	229.32
410.70	229.54
411.08	229.83
411.45	230.15
411.82	230.47
412.20	230.82
412.57	231.22
412.95	231.49
413.32	231.91
413.69	232.31
414.07	232.74
414.44	233.18
414.82	233.66
415.19	234.22
415.56	234.76
415.94	235.27
416.31	235.92
416.68	236.53
417.06	237.26
417.43	237.92
417.81	238.69
418.18	239.45
418.55	240.27
418.93	241.10
419.30	242.02
419.67	242.97
420.04	243.88
420.42	244.86
420.79	246.07
421.16	247.21
421.54	248.41
421.91	249.60
422.28	250.86
422.66	252.16
423.03	253.45
423.40	254.77
423.77	256.20
424.15	257.65
424.52	259.12
424.89	260.71
425.26	262.28
425.64	263.73
426.01	265.30
426.38	266.94
426.75	268.62
427.13	270.31
427.50	272.09
427.87	273.96
428.24	275.82
428.61	277.55
428.99	279.50
429.36	281.58
429.73	283.66
430.10	285.70
430.47	287.79
430.85	289.90
431.22	292.14
431.59	294.55
431.96	296.78
432.33	299.30
432.70	301.68
433.08	304.50
433.45	307.12
433.82	309.74
434.19	312.62
434.56	315.41
434.93	318.04
435.30	320.63
435.68	323.52
436.05	326.35
436.42	329.13
436.79	331.61
437.16	334.33
437.53	337.18
437.90	339.96
438.27	342.64
438.64	345.46
439.01	348.03
439.38	350.21
439.75	352.34
440.13	354.76
440.50	357.12
440.87	358.94
441.24	360.89
441.61	363.01
441.98	364.49
442.35	366.28
442.72	368.14
443.09	369.97
443.46	370.97
443.83	371.56
444.20	372.04
444.57	372.88
444.94	373.16
445.31	373.47
445.68	373.81
446.05	373.93
446.42	373.54
446.79	373.14
447.16	372.74
447.53	372.43
447.90	371.34
448.27	370.17
448.64	368.60
449.01	367.46
449.37	365.56
449.74	363.71
450.11	361.48
450.48	359.01
450.85	356.45
451.22	354.32
451.59	352.30
451.96	350.36
452.33	347.78
452.70	345.42
453.07	342.62
453.43	339.72
453.80	337.00
454.17	334.35
454.54	331.83
454.91	329.07
455.28	326.39
455.65	323.92
456.02	321.47
456.38	319.34
456.75	316.67
457.12	314.41
457.49	312.17
457.86	310.06
458.23	308.23
458.59	306.22
458.96	304.18
459.33	302.38
459.70	300.58
460.07	299.09
460.43	297.37
460.80	295.74
461.17	294.33
461.54	292.77
461.91	291.33
462.27	289.87
462.64	288.66
463.01	287.35
463.38	286.05
463.74	284.67
464.11	283.50
464.48	282.49
464.85	281.40
465.21	280.56
465.58	279.60
465.95	278.50
466.32	277.62
466.68	276.70
467.05	275.79
467.42	274.87
467.78	273.97
468.15	273.12
468.52	272.49
468.88	271.67
469.25	270.98
469.62	270.39
469.98	269.74
470.35	269.11
470.72	268.53
471.08	267.90
471.45	267.41
471.82	266.91
472.18	266.33
472.55	265.92
472.92	265.38
473.28	264.94
473.65	264.54
474.02	264.11
474.38	263.75
474.75	263.42
475.11	263.09
475.48	262.84
475.85	262.63
476.21	262.40
476.58	262.16
476.94	262.02
477.31	261.86
477.67	261.70
478.04	261.60
478.41	261.54
478.77	261.57
479.14	261.50
479.50	261.47
479.87	261.58
480.23	261.65
480.60	261.74
480.96	261.87
481.33	262.13
481.69	262.34
482.06	262.57
482.42	262.80
482.79	263.11
483.15	263.44
483.52	263.84
483.88	264.21
484.25	264.62
484.61	265.05
484.98	265.52
485.34	266.13
485.71	266.72
486.07	267.32
486.44	267.90
486.80	268.65
487.17	269.43
487.53	270.24
487.90	271.07
488.26	272.07
488.62	273.01
488.99	273.92
489.35	274.96
489.72	276.08
490.08	277.26
490.44	278.45
490.81	279.75
491.17	281.08
491.54	282.57
491.90	284.12
492.26	285.73
492.63	287.42
492.99	289.15
493.36	291.05
493.72	293.11
494.08	295.18
494.45	297.37
494.81	299.69
495.17	302.09
495.54	304.66
495.90	307.31
496.26	310.11
496.63	313.08
496.99	316.17
497.35	319.39
497.72	322.78
498.08	326.28
498.44	329.96
498.80	333.82
499.17	337.82
499.53	341.98
499.89	346.36
500.26	350.83
500.62	355.46
500.98	360.41
501.34	365.45
501.71	370.74
502.07	376.17
502.43	381.79
502.79	387.51
503.16	393.53
503.52	399.69
503.88	406.07
504.24	412.66
504.60	419.46
504.97	426.53
505.33	433.81
505.69	441.47
506.05	449.16
506.41	456.98
506.78	465.01
507.14	473.37
507.50	482.03
507.86	490.99
508.22	500.07
508.59	509.17
508.95	518.60
509.31	528.34
509.67	538.29
510.03	548.39
510.39	558.85
510.75	569.51
511.12	580.31
511.48	591.45
511.84	602.71
512.20	614.06
512.56	625.80
512.92	637.70
513.28	649.83
513.64	662.15
514.00	674.71
514.37	687.52
514.73	700.35
515.09	713.10
515.45	726.12
515.81	739.50
516.17	753.29
516.53	767.16
516.89	781.06
517.25	795.00
517.61	809.18
517.97	823.42
518.33	837.54
518.69	851.96
519.05	866.62
519.41	881.47
519.77	896.71
520.13	911.91
520.49	926.98
520.85	942.02
521.21	957.26
521.57	973.03
521.93	988.41
522.29	1004.42
522.65	1020.28
523.01	1036.08
523.37	1051.78
523.73	1067.43
524.09	1083.14
524.45	1099.05
524.81	1115.33
525.17	1131.72
525.53	1148.26
525.89	1164.77
526.25	1181.31
526.61	1197.31
526.97	1213.66
527.33	1229.71
527.68	1245.86
528.04	1261.96
528.40	1278.10
528.76	1294.78
529.12	1310.95
529.48	1327.38
529.84	1342.95
530.20	1359.20
530.56	1375.86
530.91	1392.85
531.27	1409.39
531.63	1425.41
531.99	1441.51
532.35	1456.97
532.71	1472.56
533.07	1488.34
533.42	1503.80
533.78	1519.44
534.14	1535.35
534.50	1550.33
534.86	1565.79
535.21	1580.53
535.57	1596.02
535.93	1611.34
536.29	1625.75
536.65	1640.46
537.00	1654.85
537.36	1669.97
537.72	1684.25
538.08	1698.33
538.44	1711.77
538.79	1725.20
539.15	1738.58
539.51	1751.96
539.87	1766.05
540.22	1779.23
540.58	1792.64
540.94	1805.66
541.29	1818.17
541.65	1830.49
542.01	1843.19
542.37	1855.23
542.72	1867.45
543.08	1878.92
543.44	1890.89
543.79	1902.03
544.15	1912.83
544.51	1924.19
544.87	1934.72
545.22	1945.18
545.58	1955.24
545.94	1964.64
546.29	1974.30
546.65	1984.14
547.01	1993.30
547.36	2001.80
547.72	2010.24
548.07	2018.05
548.43	2025.99
548.79	2033.85
549.14	2041.35
549.50	2048.60
549.86	2056.04
550.21	2063.20
550.57	2070.56
550.92	2077.12
551.28	2083.94
551.64	2090.93
551.99	2097.33
552.35	2103.54
552.70	2109.75
553.06	2115.61
553.41	2121.91
553.77	2127.86
554.13	2133.73
554.48	2139.87
554.84	2145.42
555.19	2150.62
555.55	2155.73
555.90	2160.37
556.26	2165.33
556.61	2169.97
556.97	2174.64
557.32	2178.99
557.68	2183.09
558.03	2187.25
558.39	2190.92
558.74	2195.71
559.10	2199.63
559.45	2203.41
559.81	2207.71
560.16	2211.51
560.52	2214.69
560.87	2218.27
561.23	2221.03
561.58	2223.97
561.94	2226.59
562.29	2228.96
562.64	2231.95
563.00	2234.59
563.35	2238.05
563.71	2241.17
564.06	2244.55
564.42	2247.40
564.77	2250.05
565.12	2252.55
565.48	2254.69
565.83	2256.80
566.19	2258.36
566.54	2259.25
566.89	2260.76
567.25	2261.47
567.60	2262.87
567.96	2264.91
568.31	2265.83
568.66	2267.20
569.02	2268.12
569.37	2268.59
569.72	2269.63
570.08	2269.88
570.43	2270.07
570.78	2269.94
571.14	2268.77
571.49	2267.56
571.84	2267.41
572.20	2266.60
572.55	2265.86
572.90	2264.29
573.26	2263.14
573.61	2261.50
573.96	2260.25
574.31	2257.38
574.67	2254.66
575.02	2251.24
575.37	2248.11
575.72	2244.71
576.08	2241.52
576.43	2238.23
576.78	2234.96
577.13	2231.96
577.49	2228.91
577.84	2225.71
578.19	2221.98
578.54	2218.52
578.90	2214.52
579.25	2209.15
579.60	2204.30
579.95	2199.51
580.30	2194.92
580.66	2189.93
581.01	2185.12
581.36	2180.27
581.71	2176.28
582.06	2172.30
582.42	2168.13
582.77	2163.16
583.12	2158.82
583.47	2154.33
583.82	2149.69
584.17	2144.55
584.53	2139.47
584.88	2134.08
585.23	2128.54
585.58	2123.33
585.93	2118.11
586.28	2113.61
586.63	2108.82
586.98	2104.03
587.34	2099.44
587.69	2094.62
588.04	2089.75
588.39	2084.41
588.74	2078.22
589.09	2072.29
589.44	2065.60
589.79	2059.66
590.14	2054.17
590.49	2047.78
590.84	2041.56
591.19	2035.71
591.54	2029.50
591.89	2022.31
592.25	2015.90
592.60	2008.85
592.95	2001.64
593.30	1994.48
593.65	1987.11
594.00	1980.34
594.35	1973.27
594.70	1965.45
595.05	1958.65
595.40	1951.41
595.75	1944.15
596.10	1938.14
596.45	1931.69
596.80	1925.64
597.15	1919.32
597.50	1912.54
597.85	1906.19
598.19	1899.76
598.54	1892.78
598.89	1886.26
599.24	1880.42
599.59	1874.05
599.94	1867.93
600.29	1861.59
600.64	1855.16
600.99	1847.91
601.34	1841.06
601.69	1834.26
602.04	1827.67
602.39	1820.37
602.74	1813.66
603.08	1806.94
603.43	1800.31
603.78	1793.04
604.13	1786.01
604.48	1778.93
604.83	1772.14
605.18	1765.45
605.53	1757.61
605.87	1749.84
606.22	1742.70
606.57	1734.93
606.92	1727.51
607.27	1720.68
607.62	1713.94
607.96	1706.83
608.31	1700.46
608.66	1693.10
609.01	1685.58
609.36	1677.99
609.70	1670.14
610.05	1662.31
610.40	1654.80
610.75	1646.53
611.10	1639.08
611.44	1630.65
611.79	1622.68
612.14	1614.09
612.49	1604.97
612.83	1596.76
613.18	1588.71
613.53	1580.65
613.88	1572.15
614.22	1563.99
614.57	1555.24
614.92	1547.39
615.27	1540.04
615.61	1531.67
615.96	1523.64
616.31	1516.06
616.65	1508.90
617.00	1501.39
617.35	1493.67
617.70	1485.44
618.04	1477.02
618.39	1468.60
618.74	1461.21
619.08	1453.06
619.43	1445.54
619.78	1438.66
620.12	1431.54
620.47	1424.07
620.82	1415.96
621.16	1408.57
621.51	1400.89
621.85	1393.41
622.20	1384.92
622.55	1376.46
622.89	1368.68
623.24	1361.02
623.59	1353.72
623.93	1346.08
624.28	1338.89
624.62	1331.49
624.97	1324.27
625.32	1317.59
625.66	1310.72
626.01	1303.62
626.35	1296.20
626.70	1288.38
627.04	1280.70
627.39	1272.95
627.73	1265.57
628.08	1258.73
628.43	1251.68
628.77	1244.42
629.12	1236.92
629.46	1229.77
629.81	1222.34
630.15	1215.07
630.50	1207.86
630.84	1199.70
631.19	1191.85
631.53	1184.30
631.88	1176.79
632.22	1169.31
632.57	1161.96
632.91	1154.45
633.26	1146.94
633.60	1139.52
633.95	1132.44
634.29	1125.38
634.64	1118.72
634.98	1111.40
635.32	1104.28
635.67	1097.55
636.01	1090.97
636.36	1084.20
636.70	1077.69
637.05	1071.21
637.39	1064.85
637.73	1058.26
638.08	1052.41
638.42	1046.47
638.77	1040.12
639.11	1033.54
639.45	1027.12
639.80	1020.52
640.14	1014.19
640.49	1007.72
640.83	1001.48
641.17	995.31
641.52	988.96
641.86	982.47
642.20	976.72
642.55	970.43
642.89	964.04
643.23	957.51
643.58	951.81
643.92	945.64
644.26	939.61
644.61	933.49
644.95	927.63
645.29	921.03
645.64	914.39
645.98	908.06
646.32	902.22
646.66	896.25
647.01	890.57
647.35	884.93
647.69	879.10
648.04	873.62
648.38	867.87
648.72	861.99
649.06	856.04
649.41	850.05
649.75	844.09
650.09	838.21
650.43	832.50
650.78	826.33
651.12	820.46
651.46	814.74
651.80	809.15
652.14	803.73
652.49	798.41
652.83	793.19
653.17	787.61
653.51	781.99
653.85	776.60
654.20	771.04
654.54	765.03
654.88	759.32
655.22	753.43
655.56	747.79
655.90	742.38
656.25	737.17
656.59	731.87
656.93	726.89
657.27	721.76
657.61	716.38
657.95	711.37
658.29	706.31
658.64	701.02
658.98	695.78
659.32	690.37
659.66	685.22
660.00	679.97
660.34	674.98
660.68	670.08
661.02	665.07
661.36	660.39
661.70	655.91
662.05	651.61
662.39	647.36
662.73	642.97
663.07	638.66
663.41	634.28
663.75	629.89
664.09	625.35
664.43	621.00
664.77	616.95
665.11	612.72
665.45	608.54
665.79	604.58
666.13	600.42
666.47	596.40
666.81	592.29
667.15	588.19
667.49	584.34
667.83	580.49
668.17	576.62
668.51	572.51
668.85	568.58
669.19	564.74
669.53	560.93
669.87	557.01
670.21	553.31
670.55	549.58
670.89	546.14
671.23	542.73
671.57	539.12
671.91	535.55
672.25	532.05
672.58	528.57
672.92	525.20
673.26	522.06
673.60	518.88
673.94	515.74
674.28	512.82
674.62	509.83
674.96	506.72
675.30	503.79
675.64	500.92
675.97	498.12
676.31	495.20
676.65	492.26
676.99	489.57
677.33	486.72
677.67	483.92
678.01	480.89
678.34	477.90
678.68	475.12
679.02	472.33
679.36	469.56
679.70	466.86
680.04	464.09
680.37	461.22
680.71	458.44
681.05	455.86
681.39	453.15
681.73	450.54
682.06	448.04
682.40	445.52
682.74	442.91
683.08	440.37
683.42	437.80
683.75	435.37
684.09	432.82
684.43	430.35
684.77	427.88
685.10	425.54
685.44	423.22
685.78	420.95
686.12	418.72
686.45	416.44
686.79	414.17
687.13	411.96
687.46	409.74
687.80	407.54
688.14	405.31
688.48	403.26
688.81	401.03
689.15	398.90
689.49	396.76
689.82	394.73
690.16	392.66
690.50	390.73
690.83	388.77
691.17	386.77
691.51	384.87
691.84	383.04
692.18	381.15
692.52	379.21
692.85	377.19
693.19	375.30
693.52	373.45
693.86	371.61
694.20	369.84
694.53	368.08
694.87	366.31
695.21	364.54
695.54	362.71
695.88	360.97
696.21	359.27
696.55	357.59
696.88	355.88
697.22	354.18
697.56	352.53
697.89	350.89
698.23	349.34
698.56	347.76
698.90	346.27
699.23	344.64
699.57	343.07
699.90	341.59
700.24	340.06
700.58	338.58
700.91	337.10
701.25	335.65
701.58	334.33
701.92	332.93
702.25	331.58
702.59	330.24
702.92	328.98
703.26	327.65
703.59	326.37
703.93	325.22
704.26	324.02
704.60	322.77
704.93	321.53
705.26	320.26
705.60	319.06
705.93	317.85
706.27	316.84
706.60	315.85
706.94	314.77
707.27	313.64
707.61	312.59
707.94	311.58
708.27	310.49
708.61	309.40
708.94	308.43
709.28	307.46
709.61	306.50
709.94	305.48
710.28	304.48
710.61	303.50
710.95	302.40
711.28	301.48
711.61	300.53
711.95	299.62
712.28	298.70
712.61	297.73
712.95	296.80
713.28	295.87
713.61	294.94
713.95	294.09
714.28	293.28
714.61	292.40
714.95	291.54
715.28	290.70
715.61	289.83
715.95	288.92
716.28	288.07
716.61	287.21
716.95	286.39
717.28	285.63
717.61	284.85
717.94	284.11
718.28	283.30
718.61	282.53
718.94	281.81
719.27	281.15
719.61	280.50
719.94	279.81
720.27	279.08
720.60	278.42
720.94	277.79
721.27	277.19
721.60	276.61
721.93	276.02
722.27	275.45
722.60	274.91
722.93	274.35
723.26	273.78
723.59	273.20
723.93	272.66
724.26	272.14
724.59	271.58
724.92	271.08
725.25	270.58
725.59	270.04
725.92	269.50
726.25	268.98
726.58	268.51
726.91	268.01
727.24	267.56
727.57	267.13
727.91	266.56
728.24	266.05
728.57	265.55
728.90	265.09
729.23	264.66
729.56	264.23
729.89	263.75
730.22	263.29
730.55	262.84
730.89	262.39
731.22	261.92
731.55	261.52
731.88	261.07
732.21	260.64
732.54	260.26
732.87	259.85
733.20	259.44
733.53	259.07
733.86	258.71
734.19	258.33
734.52	257.90
734.85	257.66
735.18	257.26
735.51	256.90
735.84	256.51
736.17	256.12
736.50	255.70
736.83	255.51
737.16	255.17
737.49	254.84
737.82	254.49
738.15	254.16
738.48	253.80
738.81	253.47
739.14	253.15
739.47	252.83
739.80	252.53
740.13	252.24
740.46	251.86
740.79	251.52
741.12	251.20
741.45	250.87
741.78	250.49
742.11	250.25
742.44	249.93
742.77	249.68
743.10	249.35
743.43	249.07
743.75	248.67
744.08	248.50
744.41	248.26
744.74	247.99
745.07	247.73
745.40	247.52
745.73	247.29
746.06	247.03
746.39	246.78
746.71	246.52
747.04	246.23
747.37	246.03
747.70	245.79
748.03	245.55
748.36	245.36
748.68	245.12
749.01	244.87
749.34	244.62
749.67	244.36
750.00	244.17
750.33	244.00
750.65	243.80
750.98	243.47
751.31	243.22
751.64	243.03
751.97	242.87
752.29	242.61
752.62	242.37
752.95	242.15
753.28	241.88
753.60	241.64
753.93	241.45
754.26	241.23
754.59	240.96
754.91	240.74
755.24	240.48
755.57	240.27
755.90	240.06
756.22	239.91
756.55	239.70
756.88	239.46
757.20	239.20
757.53	239.00
757.86	238.82
758.19	238.66
758.51	238.45
758.84	238.23
759.17	238.05
759.49	237.88
759.82	237.76
760.15	237.67
760.47	237.57
760.80	237.39
761.13	237.24
761.45	237.13
761.78	236.98
762.11	236.87
762.43	236.76
762.76	236.60
763.08	236.44
763.41	236.32
763.74	236.23
764.06	236.10
764.39	235.92
764.71	235.78
765.04	235.66
765.37	235.54
765.69	235.39
766.02	235.28
766.34	235.16
766.67	235.02
767.00	234.91
767.32	234.82
767.65	234.79
767.97	234.67
768.30	234.57
768.62	234.44
768.95	234.31
769.27	234.19
769.60	234.11
769.92	233.99
770.25	233.88
770.57	233.78
770.90	233.70
771.22	233.62
771.55	233.52
771.87	233.44
772.20	233.36
772.52	233.37
772.85	233.41
773.17	233.30
773.50	233.20
773.82	233.10
774.15	232.98
774.47	232.84
774.80	232.76
775.12	232.69
775.45	232.63
775.77	232.56
776.09	232.49
776.42	232.39
776.74	232.38
777.07	232.29
777.39	232.24
777.72	232.14
778.04	232.09
778.36	232.02
778.69	231.95
779.01	231.90
779.33	231.75
779.66	231.55
779.98	231.52
780.31	231.44
780.63	231.42
780.95	231.37
781.28	231.31
781.60	231.23
781.92	231.14
782.25	231.09
782.57	231.05
782.89	230.99
783.22	230.94
783.54	230.86
783.86	230.84
784.19	230.75
784.51	230.72
784.83	230.62
785.16	230.58
785.48	230.53
785.80	230.47
786.12	230.44
786.45	230.40
786.77	230.33
787.09	230.31
787.42	230.18
787.74	230.12
788.06	230.09
788.38	230.05
788.71	230.00
789.03	229.93
789.35	229.89
789.67	229.83
789.99	229.78
790.32	229.72
790.64	229.69
790.96	229.72
791.28	229.66
791.61	229.65
791.93	229.59
792.25	229.52
792.57	229.57
792.89	229.52
793.21	229.47
793.54	229.41
793.86	229.33
794.18	229.32
794.50	229.22
794.82	229.15
795.14	229.12
795.47	229.10
795.79	229.09
796.11	229.01
796.43	228.95
796.75	228.89
797.07	228.85
797.39	228.79
797.71	228.67
798.04	228.61
798.36	228.59
798.68	228.56
799.00	228.54
799.32	228.40
799.64	228.41
799.96	228.38
800.28	228.41
800.60	228.40
800.92	228.39
801.24	228.39
801.56	228.40
801.89	228.35
802.21	228.31
802.53	228.27
802.85	228.27
803.17	228.31
803.49	228.26
803.81	228.22
804.13	228.17
804.45	228.11
804.77	228.10
805.09	228.05
805.41	227.99
805.73	227.93
806.05	227.90
806.37	227.83
806.69	227.81
807.01	227.72
807.33	227.67
807.65	227.61
807.97	227.64
808.28	227.59
808.60	227.57
808.92	227.56
809.24	227.59
809.56	227.54
809.88	227.47
810.20	227.48
810.52	227.45
810.84	227.44
811.16	227.46
811.48	227.44
811.80	227.47
812.12	227.47
812.43	227.50
812.75	227.47
813.07	227.42
813.39	227.38
813.71	227.39
814.03	227.38
814.35	227.36
814.67	227.30
814.98	227.30
815.30	227.27
815.62	227.23
815.94	227.14
816.26	227.16
816.58	227.13
816.89	227.11
817.21	227.08
817.53	227.05
817.85	227.03
818.17	227.04
818.48	226.97
818.80	227.00
819.12	226.98
819.44	226.94
819.76	226.94
820.07	226.91
820.39	226.89
820.71	226.89
821.03	226.90
821.34	226.90
821.66	226.87
821.98	226.85
822.30	226.86
822.61	226.92
822.93	226.90
823.25	226.92
823.57	226.91
823.88	226.96
824.20	226.95
824.52	226.96
824.83	226.93
825.15	226.91
825.47	226.87
825.79	226.83
826.10	226.82
826.42	226.83
826.74	226.84
827.05	226.83
827.37	226.83
827.69	226.81
828.00	226.77
828.32	226.76
828.64	226.74
828.95	226.76
829.27	226.73
829.58	226.68
829.90	226.69
830.22	226.70
830.53	226.65
830.85	226.65
831.17	226.64
831.48	226.66
831.80	226.65
832.11	226.63
832.43	226.61
832.75	226.62
833.06	226.62
833.38	226.58
833.69	226.58
834.01	226.57
834.32	226.53
834.64	226.54
834.96	226.50
835.27	226.51
835.59	226.44
835.90	226.41
836.22	226.39
836.53	226.33
836.85	226.27
837.16	226.35
837.48	226.34
837.79	226.32
838.11	226.31
838.42	226.31
838.74	226.32
839.05	226.34
839.37	226.32
839.68	226.28
840.00	226.28
840.31	226.25
840.63	226.21
840.94	226.19
841.26	226.16
841.57	226.16
841.88	226.15
842.20	226.16
842.51	226.15
842.83	226.15
843.14	226.23
843.46	226.24
843.77	226.19
844.08	226.16
844.40	226.12
844.71	226.08
845.03	226.04
845.34	226.01
845.65	225.98
845.97	225.97
846.28	225.98
846.60	225.95
846.91	225.94
847.22	225.94
847.54	225.97
847.85	225.96
848.16	225.97
848.48	225.95
848.79	225.95
849.10	225.92
849.42	225.92
849.73	225.80
850.04	225.77
850.36	225.73
850.67	225.72
850.98	225.72
851.30	225.71
851.61	225.72
851.92	225.71
852.23	225.73
852.55	225.72
852.86	225.70
853.17	225.73
853.49	225.73
853.80	225.77
854.11	225.78
854.42	225.77
854.74	225.76
855.05	225.75
855.36	225.71
855.67	225.70
855.99	225.73
856.30	225.86
856.61	225.83
856.92	225.79
857.23	225.80
857.55	225.80
857.86	225.77
858.17	225.73
858.48	225.68
858.79	225.66
859.11	225.67
859.42	225.67
859.73	225.65
860.04	225.67
860.35	225.59
860.66	225.56
860.98	225.57
861.29	225.54
861.60	225.56
861.91	225.59
862.22	225.60
862.53	225.56
862.84	225.45
863.16	225.53
863.47	225.54
863.78	225.53
864.09	225.56
864.40	225.56
864.71	225.64
865.02	225.68
865.33	225.66
865.64	225.62
865.95	225.60
866.27	225.68
866.58	225.66
866.89	225.68
867.20	225.66
867.51	225.67
867.82	225.66
868.13	225.67
868.44	225.64
868.75	225.65
869.06	225.65
869.37	225.66
869.68	225.63
869.99	225.64
870.30	225.65
870.61	225.66
870.92	225.68
871.23	225.67
871.54	225.70
871.85	225.74
872.16	225.80
872.47	225.81
872.78	225.73
873.09	225.75
873.40	225.74
873.71	225.76
874.02	225.76
874.33	225.78
874.64	225.74
874.95	225.76
875.26	225.76
875.56	225.76
875.87	225.78
876.18	225.73
876.49	225.85
876.80	225.84
877.11	225.84
877.42	225.82
877.73	225.80
878.04	225.75
878.35	225.75
878.66	225.72
878.96	225.72
879.27	225.74
879.58	225.72
879.89	225.76
880.20	225.78
880.51	225.73
880.82	225.73
881.12	225.73
881.43	225.71
881.74	225.69
882.05	225.68
882.36	225.68
882.67	225.69
882.97	225.57
883.28	225.51
883.59	225.49
883.90	225.50
884.21	225.54
884.51	225.54
884.82	225.50
885.13	225.51
885.44	225.50
885.74	225.48
886.05	225.49
886.36	225.44
886.67	225.40
886.98	225.50
887.28	225.51
887.59	225.51
887.90	225.50
888.20	225.47
888.51	225.47
888.82	225.44
889.13	225.48
889.43	225.57
889.74	225.62
890.05	225.59
890.35	225.56
890.66	225.52
890.97	225.51
891.28	225.53
891.58	225.51
891.89	225.52
892.20	225.48
892.50	225.47
892.81	225.50
893.12	225.50
893.42	225.45
893.73	225.44
894.04	225.46
894.34	225.46
894.65	225.51
894.95	225.51
895.26	225.51
895.57	225.56
895.87	225.48
896.18	225.47
896.48	225.51
896.79	225.52
897.10	225.51
897.40	225.52
897.71	225.51
898.01	225.51
898.32	225.51
898.63	225.57
898.93	225.56
899.24	225.54
899.54	225.56
899.85	225.56
900.15	225.55
900.46	225.53
900.76	225.56
901.07	225.55
901.38	225.54
901.68	225.58
901.99	225.51
902.29	225.50
902.60	225.51
902.90	225.47
903.21	225.45
903.51	225.48
903.82	225.50
904.12	225.51
904.43	225.54
904.73	225.54
905.03	225.53
905.34	225.64
905.64	225.63
905.95	225.60
906.25	225.58
906.56	225.60
906.86	225.61
907.17	225.60
907.47	225.59
907.77	225.60
908.08	225.56
908.38	225.56
908.69	225.56
908.99	225.58
909.30	225.63
909.60	225.66
909.90	225.64
910.21	225.61
910.51	225.57
910.81	225.55
911.12	225.54
911.42	225.52
911.73	225.39
912.03	225.40
912.33	225.44
912.64	225.43
912.94	225.41
913.24	225.38
913.55	225.38
913.85	225.37
914.15	225.38
914.46	225.40
914.76	225.37
915.06	225.39
915.37	225.34
915.67	225.35
915.97	225.34
916.27	225.33
916.58	225.34
916.88	225.35
917.18	225.34
917.49	225.39
917.79	225.40
918.09	225.42
918.39	225.43
918.70	225.41
919.00	225.43
919.30	225.47
919.60	225.49
919.91	225.46
920.21	225.46
920.51	225.42
920.81	225.41
921.12	225.45
921.42	225.44
921.72	225.46
922.02	225.45
922.32	225.48
922.63	225.48
922.93	225.52
923.23	225.52
923.53	225.56
923.83	225.51
924.13	225.50
924.44	225.50
924.74	225.49
925.04	225.52
925.34	225.48
925.64	225.45
925.94	225.40
926.24	225.47
926.55	225.46
926.85	225.50
927.15	225.47
927.45	225.45
927.75	225.45
928.05	225.46
928.35	225.45
928.65	225.45
928.95	225.43
929.26	225.37
929.56	225.39
929.86	225.38
930.16	225.37
930.46	225.37
930.76	225.37
931.06	225.36
931.36	225.33
931.66	225.37
931.96	225.37
932.26	225.36
932.56	225.32
932.86	225.33
933.16	225.33
933.46	225.33
933.76	225.31
934.06	225.34
934.36	225.34
934.66	225.33
934.96	225.33
935.26	225.37
935.56	225.41
935.86	225.40
936.16	225.39
936.46	225.41
936.76	225.43
937.06	225.44
937.36	225.45
937.66	225.47
937.96	225.48
938.26	225.47
938.56	225.49
938.86	225.51
939.16	225.54
939.46	225.53
939.76	225.56
940.06	225.56
940.35	225.55
940.65	225.52
940.95	225.51
941.25	225.47
941.55	225.46
941.85	225.48
942.15	225.47
942.45	225.49
942.75	225.47
943.04	225.46
943.34	225.47
943.64	225.47
943.94	225.45
944.24	225.42
944.54	225.43
944.84	225.40
945.13	225.34
945.43	225.32
945.73	225.33
946.03	225.31
946.33	225.31
946.62	225.31
946.92	225.31
947.22	225.31
947.52	225.32
947.82	225.34
948.11	225.29
948.41	225.30
948.71	225.29
949.01	225.30
949.31	225.30
949.60	225.28
949.90	225.26
950.20	225.26
950.50	225.27
950.79	225.27
951.09	225.33
951.39	225.35
951.69	225.35
951.98	225.39
952.28	225.40
952.58	225.39
952.87	225.38
953.17	225.38
953.47	225.39
953.76	225.40
954.06	225.35
954.36	225.31
954.66	225.30
954.95	225.32
955.25	225.30
955.55	225.28
955.84	225.29
956.14	225.29
956.44	225.33
956.73	225.31
957.03	225.31
957.32	225.30
957.62	225.31
957.92	225.31
958.21	225.31
958.51	225.43
958.81	225.44
959.10	225.44
959.40	225.46
959.69	225.45
959.99	225.49
960.29	225.52
960.58	225.56
960.88	225.56
961.17	225.52
961.47	225.56
961.76	225.55
962.06	225.56
962.36	225.53
962.65	225.50
962.95	225.48
963.24	225.46
963.54	225.45
963.83	225.44
964.13	225.41
964.42	225.34
964.72	225.23
965.01	225.19
965.31	225.18
965.60	225.14
965.90	225.22
966.19	225.17
966.49	225.18
966.78	225.16
967.08	225.19
967.37	225.21
967.67	225.16
967.96	225.18
968.26	225.18
968.55	225.21
968.85	225.21
969.14	225.21
969.43	225.22
969.73	225.21
970.02	225.20
970.32	225.21
970.61	225.20
970.91	225.20
971.20	225.23
971.49	225.20
971.79	225.19
972.08	225.11
972.38	225.12
972.67	225.11
972.96	225.11
973.26	225.08
973.55	225.12
973.85	225.15
974.14	225.17
974.43	225.17
974.73	225.14
975.02	225.10
975.31	225.11
975.61	225.13
975.90	225.12
976.19	225.12
976.49	225.14
976.78	225.14
977.07	225.16
977.37	225.14
977.66	225.17
977.95	225.18
978.24	225.19
978.54	225.18
978.83	225.16
979.12	225.14
979.42	225.16
979.71	225.13
980.00	225.10
980.29	225.08
980.59	225.05
980.88	225.09
981.17	225.13
981.46	225.13
981.76	225.11
982.05	225.18
982.34	225.19
982.63	225.19
982.93	225.20
983.22	225.19
983.51	225.20
983.80	225.27
984.09	225.30
984.39	225.31
984.68	225.32
984.97	225.32
985.26	225.35
985.55	225.33
985.85	225.33
986.14	225.35
986.43	225.38
986.72	225.41
987.01	225.39
987.30	225.39
987.59	225.37
987.89	225.39
988.18	225.34
988.47	225.36
988.76	225.34
989.05	225.33
989.34	225.33
989.63	225.35
989.92	225.29
990.22	225.27
990.51	225.27
990.80	225.26
991.09	225.26
991.38	225.27
991.67	225.26
991.96	225.23
992.25	225.24
992.54	225.21
992.83	225.21
993.12	225.21
993.41	225.26
993.70	225.32
993.99	225.32
994.28	225.37
994.58	225.34
994.87	225.35
995.16	225.37
995.45	225.36
995.74	225.32
996.03	225.33
996.32	225.35
996.61	225.35
996.90	225.35
997.19	225.36
997.48	225.36
997.77	225.36
998.06	225.37
998.34	225.34
998.63	225.33
998.92	225.31
999.21	225.31
999.50	225.27
999.79	225.23
1000.08	225.17
1000.37	225.13
1000.66	225.15
1000.95	225.14
1001.24	225.10
1001.53	225.11
1001.82	225.12
1002.11	225.08
1002.40	225.07
1002.68	225.11
1002.97	225.21
1003.26	225.19
1003.55	225.16
1003.84	225.18
1004.13	225.19
1004.42	225.18
1004.71	225.18
1004.99	225.20
1005.28	225.23
1005.57	225.20
1005.86	225.21
1006.15	225.23
1006.44	225.22
1006.72	225.21
1007.01	225.22
1007.30	225.26
1007.59	225.25
1007.88	225.24
1008.17	225.28
1008.45	225.22
1008.74	225.17
1009.03	225.11
1009.32	225.13
1009.60	225.15
1009.89	225.15
1010.18	225.14
1010.47	225.16
1010.76	225.16
1011.04	225.15
1011.33	225.11
1011.62	225.13
1011.91	225.09
1012.19	225.08
1012.48	225.09
1012.77	225.11
1013.05	225.14
1013.34	225.11
1013.63	225.11
1013.92	225.12
1014.20	225.11
1014.49	225.16
1014.78	225.17
1015.06	225.16
1015.35	225.11
1015.64	225.12
1015.92	225.13
1016.21	225.12
1016.50	225.09
1016.78	225.11
1017.07	225.13
1017.36	225.16
1017.64	225.13
1017.93	225.17
1018.22	225.22
1018.50	225.18
1018.79	225.19
1019.08	225.15
1019.36	225.16
1019.65	225.13
1019.93	225.18
1020.22	225.18
1020.51	225.18
1020.79	225.18
1021.08	225.61
1021.36	224.47
1021.65	225.54
1021.94	224.89
1022.22	225.13
1022.51	224.60
1022.79	226.07
1023.08	225.01
1023.36	225.85
1023.65	225.09
>>>>>End Processed Spectral Data<<<<<
