SpectraSuite Data File
++++++++++++++++++++++++++++++++++++
Date: Fri Feb 01 15:41:34 EST 2013
User: group
Dark Spectrum Present: No
Reference Spectrum Present: No
Number of Sampled Component Spectra: 1
Spectrometers: USB2E7196
Integration Time (usec): 35000 (USB2E7196)
Spectra Averaged: 100 (USB2E7196)
Boxcar Smoothing: 10 (USB2E7196)
Correct for Electrical Dark: No (USB2E7196)
Strobe/Lamp Enabled: No (USB2E7196)
Correct for Detector Non-linearity: No (USB2E7196)
Correct for Stray Light: No (USB2E7196)
Number of Pixels in Processed Spectrum: 2048
>>>>>Begin Processed Spectral Data<<<<<
339.09	0.00
339.48	214.74
339.86	216.34
340.24	217.60
340.63	219.62
341.01	221.77
341.39	221.68
341.78	222.73
342.16	224.60
342.54	224.75
342.93	213.21
343.31	223.97
343.69	224.54
344.07	225.00
344.46	225.43
344.84	225.81
345.22	226.03
345.60	226.29
345.99	226.47
346.37	226.62
346.75	226.72
347.13	226.79
347.52	226.84
347.90	226.92
348.28	226.95
348.66	226.97
349.05	226.97
349.43	227.00
349.81	227.05
350.19	227.09
350.57	227.17
350.96	227.25
351.34	227.39
351.72	227.46
352.10	227.54
352.48	227.63
352.87	227.67
353.25	227.74
353.63	227.78
354.01	227.85
354.39	227.88
354.77	227.99
355.15	228.09
355.54	228.15
355.92	228.17
356.30	228.25
356.68	228.41
357.06	228.49
357.44	228.55
357.82	228.57
358.20	228.66
358.58	228.72
358.97	228.80
359.35	228.85
359.73	228.90
360.11	228.95
360.49	229.00
360.87	229.03
361.25	229.10
361.63	229.22
362.01	229.27
362.39	229.31
362.77	229.32
363.15	229.38
363.53	229.41
363.91	229.49
364.29	229.51
364.67	229.42
365.05	229.45
365.43	229.47
365.81	229.50
366.19	229.53
366.57	229.56
366.95	229.52
367.33	229.52
367.71	229.53
368.09	229.52
368.47	229.53
368.85	229.53
369.23	229.54
369.61	229.47
369.99	229.47
370.37	229.45
370.75	229.49
371.13	229.40
371.51	229.36
371.89	229.30
372.27	229.26
372.65	229.20
373.03	229.14
373.41	229.09
373.78	229.05
374.16	228.98
374.54	228.87
374.92	228.84
375.30	228.78
375.68	228.71
376.06	228.65
376.44	228.55
376.82	228.51
377.19	228.45
377.57	228.36
377.95	228.27
378.33	228.21
378.71	228.07
379.09	228.00
379.47	227.92
379.84	227.83
380.22	227.75
380.60	227.66
380.98	227.58
381.36	227.51
381.73	227.41
382.11	227.33
382.49	227.30
382.87	227.23
383.25	227.13
383.62	227.18
384.00	227.11
384.38	227.07
384.76	227.02
385.13	226.96
385.51	226.93
385.89	226.86
386.27	226.79
386.64	226.78
387.02	226.73
387.40	226.68
387.78	226.65
388.15	226.59
388.53	226.57
388.91	226.54
389.29	226.49
389.66	226.48
390.04	226.45
390.42	226.42
390.79	226.37
391.17	226.36
391.55	226.19
391.92	226.20
392.30	226.21
392.68	226.18
393.05	226.20
393.43	226.22
393.81	226.22
394.18	226.22
394.56	226.21
394.94	226.22
395.31	226.24
395.69	226.29
396.06	226.40
396.44	226.43
396.82	226.49
397.19	226.61
397.57	226.65
397.95	226.72
398.32	226.73
398.70	226.81
399.07	226.87
399.45	226.99
399.82	227.05
400.20	227.11
400.58	227.18
400.95	227.22
401.33	227.29
401.70	227.46
402.08	227.60
402.45	227.71
402.83	227.86
403.20	228.01
403.58	228.12
403.95	228.21
404.33	228.37
404.71	228.50
405.08	228.67
405.46	228.80
405.83	228.95
406.21	229.13
406.58	229.30
406.96	229.46
407.33	229.62
407.70	229.85
408.08	230.13
408.45	230.36
408.83	230.60
409.20	230.78
409.58	230.98
409.95	231.22
410.33	231.48
410.70	231.75
411.08	232.01
411.45	232.33
411.82	232.64
412.20	233.00
412.57	233.41
412.95	233.69
413.32	234.10
413.69	234.52
414.07	234.92
414.44	235.39
414.82	235.89
415.19	236.45
415.56	236.94
415.94	237.46
416.31	238.08
416.68	238.69
417.06	239.46
417.43	240.13
417.81	240.90
418.18	241.69
418.55	242.49
418.93	243.36
419.30	244.21
419.67	245.12
420.04	246.04
420.42	247.04
420.79	248.20
421.16	249.34
421.54	250.52
421.91	251.77
422.28	253.02
422.66	254.37
423.03	255.66
423.40	257.02
423.77	258.43
424.15	259.86
424.52	261.37
424.89	262.94
425.26	264.47
425.64	265.89
426.01	267.48
426.38	269.12
426.75	270.79
427.13	272.50
427.50	274.30
427.87	276.17
428.24	277.99
428.61	279.71
428.99	281.66
429.36	283.76
429.73	285.78
430.10	287.79
430.47	289.83
430.85	291.91
431.22	294.14
431.59	296.53
431.96	298.75
432.33	301.21
432.70	303.60
433.08	306.46
433.45	309.09
433.82	311.69
434.19	314.61
434.56	317.49
434.93	320.17
435.30	322.80
435.68	325.70
436.05	328.55
436.42	331.39
436.79	333.91
437.16	336.62
437.53	339.45
437.90	342.28
438.27	344.99
438.64	347.85
439.01	350.45
439.38	352.66
439.75	354.85
440.13	357.37
440.50	359.71
440.87	361.51
441.24	363.47
441.61	365.65
441.98	367.15
442.35	368.92
442.72	370.78
443.09	372.63
443.46	373.61
443.83	374.14
444.20	374.62
444.57	375.45
444.94	375.69
445.31	376.07
445.68	376.43
446.05	376.53
446.42	376.15
446.79	375.76
447.16	375.30
447.53	374.95
447.90	373.80
448.27	372.61
448.64	371.03
449.01	369.89
449.37	367.88
449.74	365.94
450.11	363.70
450.48	361.27
450.85	358.76
451.22	356.63
451.59	354.68
451.96	352.75
452.33	350.13
452.70	347.83
453.07	344.99
453.43	342.14
453.80	339.38
454.17	336.72
454.54	334.18
454.91	331.49
455.28	328.86
455.65	326.33
456.02	323.93
456.38	321.79
456.75	319.13
457.12	316.93
457.49	314.74
457.86	312.56
458.23	310.67
458.59	308.59
458.96	306.53
459.33	304.67
459.70	302.84
460.07	301.36
460.43	299.61
460.80	297.96
461.17	296.45
461.54	294.94
461.91	293.50
462.27	292.04
462.64	290.77
463.01	289.42
463.38	288.13
463.74	286.75
464.11	285.59
464.48	284.59
464.85	283.43
465.21	282.59
465.58	281.70
465.95	280.58
466.32	279.66
466.68	278.73
467.05	277.85
467.42	276.94
467.78	276.01
468.15	275.15
468.52	274.52
468.88	273.68
469.25	272.92
469.62	272.32
469.98	271.63
470.35	271.01
470.72	270.38
471.08	269.72
471.45	269.17
471.82	268.61
472.18	267.97
472.55	267.55
472.92	266.96
473.28	266.47
473.65	266.03
474.02	265.57
474.38	265.21
474.75	264.87
475.11	264.51
475.48	264.22
475.85	263.98
476.21	263.72
476.58	263.53
476.94	263.33
477.31	263.14
477.67	263.02
478.04	262.88
478.41	262.82
478.77	262.88
479.14	262.82
479.50	262.84
479.87	262.95
480.23	263.02
480.60	263.11
480.96	263.19
481.33	263.38
481.69	263.61
482.06	263.79
482.42	263.98
482.79	264.25
483.15	264.59
483.52	264.97
483.88	265.35
484.25	265.73
484.61	266.22
484.98	266.68
485.34	267.23
485.71	267.83
486.07	268.45
486.44	268.99
486.80	269.69
487.17	270.41
487.53	271.18
487.90	272.02
488.26	272.95
488.62	273.97
488.99	274.94
489.35	276.00
489.72	277.14
490.08	278.35
490.44	279.57
490.81	280.95
491.17	282.29
491.54	283.81
491.90	285.36
492.26	286.97
492.63	288.69
492.99	290.49
493.36	292.41
493.72	294.47
494.08	296.59
494.45	298.82
494.81	301.22
495.17	303.70
495.54	306.27
495.90	308.98
496.26	311.78
496.63	314.75
496.99	317.87
497.35	321.15
497.72	324.58
498.08	328.12
498.44	331.74
498.80	335.68
499.17	339.67
499.53	343.83
499.89	348.23
500.26	352.76
500.62	357.43
500.98	362.39
501.34	367.40
501.71	372.73
502.07	378.25
502.43	383.80
502.79	389.65
503.16	395.74
503.52	402.00
503.88	408.41
504.24	415.06
504.60	421.97
504.97	429.06
505.33	436.32
505.69	444.02
506.05	451.81
506.41	459.68
506.78	467.87
507.14	476.29
507.50	484.95
507.86	493.95
508.22	503.10
508.59	512.35
508.95	522.02
509.31	531.82
509.67	541.85
510.03	552.18
510.39	562.71
510.75	573.52
511.12	584.47
511.48	595.71
511.84	607.11
512.20	618.59
512.56	630.52
512.92	642.76
513.28	655.07
513.64	667.55
514.00	680.26
514.37	693.17
514.73	706.29
515.09	719.37
515.45	732.68
515.81	746.32
516.17	760.29
516.53	774.40
516.89	788.64
517.25	802.83
517.61	817.28
517.97	831.77
518.33	846.16
518.69	860.98
519.05	876.09
519.41	891.32
519.77	906.89
520.13	922.38
520.49	937.73
520.85	953.22
521.21	969.01
521.57	985.17
521.93	1001.02
522.29	1017.39
522.65	1033.59
523.01	1049.85
523.37	1065.83
523.73	1081.95
524.09	1097.95
524.45	1114.24
524.81	1130.90
525.17	1147.73
525.53	1164.60
525.89	1181.44
526.25	1198.13
526.61	1214.45
526.97	1231.10
527.33	1247.56
527.68	1264.23
528.04	1280.82
528.40	1297.42
528.76	1314.43
529.12	1331.20
529.48	1348.12
529.84	1364.15
530.20	1380.94
530.56	1397.98
530.91	1415.48
531.27	1432.38
531.63	1448.93
531.99	1465.50
532.35	1481.32
532.71	1497.16
533.07	1513.50
533.42	1529.49
533.78	1545.76
534.14	1562.03
534.50	1577.45
534.86	1593.29
535.21	1608.44
535.57	1624.25
535.93	1639.74
536.29	1654.69
536.65	1669.67
537.00	1684.33
537.36	1699.62
537.72	1713.97
538.08	1728.33
538.44	1742.11
538.79	1755.96
539.15	1769.66
539.51	1783.45
539.87	1798.01
540.22	1811.73
540.58	1825.49
540.94	1838.85
541.29	1851.65
541.65	1864.41
542.01	1877.69
542.37	1890.11
542.72	1902.55
543.08	1914.42
543.44	1926.91
543.79	1938.07
544.15	1949.07
544.51	1960.66
544.87	1971.64
545.22	1982.60
545.58	1992.76
545.94	2002.48
546.29	2012.31
546.65	2022.22
547.01	2031.36
547.36	2039.95
547.72	2048.52
548.07	2056.26
548.43	2064.54
548.79	2072.67
549.14	2080.30
549.50	2087.65
549.86	2095.30
550.21	2102.53
550.57	2109.62
550.92	2116.18
551.28	2123.24
551.64	2130.36
551.99	2137.06
552.35	2143.26
552.70	2149.34
553.06	2155.26
553.41	2161.60
553.77	2167.57
554.13	2173.60
554.48	2179.86
554.84	2185.34
555.19	2190.66
555.55	2195.82
555.90	2200.19
556.26	2204.94
556.61	2209.57
556.97	2213.77
557.32	2217.83
557.68	2222.10
558.03	2226.47
558.39	2230.13
558.74	2234.72
559.10	2238.54
559.45	2241.93
559.81	2246.29
560.16	2250.11
560.52	2253.47
560.87	2256.97
561.23	2259.64
561.58	2262.59
561.94	2265.09
562.29	2267.53
562.64	2270.14
563.00	2272.76
563.35	2276.33
563.71	2279.44
564.06	2282.47
564.42	2285.30
564.77	2287.76
565.12	2289.93
565.48	2291.69
565.83	2293.48
566.19	2294.66
566.54	2295.57
566.89	2296.69
567.25	2297.22
567.60	2298.59
567.96	2300.31
568.31	2301.05
568.66	2302.10
569.02	2302.73
569.37	2302.96
569.72	2303.67
570.08	2303.70
570.43	2303.92
570.78	2303.15
571.14	2301.46
571.49	2300.26
571.84	2300.06
572.20	2299.02
572.55	2297.98
572.90	2296.49
573.26	2295.20
573.61	2293.62
573.96	2291.79
574.31	2288.82
574.67	2285.65
575.02	2281.93
575.37	2278.48
575.72	2274.69
576.08	2271.30
576.43	2267.97
576.78	2264.24
577.13	2261.27
577.49	2258.27
577.84	2254.57
578.19	2250.82
578.54	2247.31
578.90	2242.97
579.25	2237.21
579.60	2232.20
579.95	2227.12
580.30	2222.05
580.66	2216.87
581.01	2211.87
581.36	2206.97
581.71	2202.85
582.06	2198.55
582.42	2194.02
582.77	2188.73
583.12	2184.11
583.47	2179.34
583.82	2174.11
584.17	2168.79
584.53	2163.00
584.88	2157.35
585.23	2151.53
585.58	2146.01
585.93	2140.55
586.28	2135.90
586.63	2130.87
586.98	2125.72
587.34	2121.10
587.69	2116.13
588.04	2110.62
588.39	2104.92
588.74	2098.55
589.09	2092.28
589.44	2085.39
589.79	2079.52
590.14	2074.00
590.49	2067.50
590.84	2061.19
591.19	2055.26
591.54	2048.83
591.89	2041.56
592.25	2034.78
592.60	2027.59
592.95	2020.09
593.30	2012.64
593.65	2004.96
594.00	1998.10
594.35	1990.86
594.70	1982.72
595.05	1975.51
595.40	1968.39
595.75	1960.85
596.10	1954.39
596.45	1947.81
596.80	1941.72
597.15	1934.98
597.50	1927.66
597.85	1921.16
598.19	1914.43
598.54	1907.21
598.89	1900.51
599.24	1894.58
599.59	1887.83
599.94	1881.69
600.29	1875.40
600.64	1868.90
600.99	1861.55
601.34	1854.48
601.69	1847.52
602.04	1840.64
602.39	1833.25
602.74	1826.40
603.08	1819.60
603.43	1812.92
603.78	1805.45
604.13	1798.12
604.48	1790.76
604.83	1784.01
605.18	1776.98
605.53	1768.99
605.87	1761.05
606.22	1753.91
606.57	1745.94
606.92	1738.56
607.27	1731.24
607.62	1724.25
607.96	1716.94
608.31	1710.18
608.66	1702.58
609.01	1694.98
609.36	1687.48
609.70	1679.47
610.05	1671.37
610.40	1663.64
610.75	1655.35
611.10	1647.69
611.44	1639.36
611.79	1631.38
612.14	1622.64
612.49	1613.60
612.83	1605.17
613.18	1597.00
613.53	1588.87
613.88	1580.20
614.22	1571.82
614.57	1563.22
614.92	1555.13
615.27	1547.39
615.61	1539.07
615.96	1531.02
616.31	1523.39
616.65	1515.87
617.00	1508.30
617.35	1500.59
617.70	1492.28
618.04	1483.68
618.39	1475.44
618.74	1467.72
619.08	1459.48
619.43	1451.83
619.78	1444.81
620.12	1437.63
620.47	1430.19
620.82	1421.99
621.16	1414.80
621.51	1407.28
621.85	1399.73
622.20	1391.19
622.55	1383.02
622.89	1375.25
623.24	1367.65
623.59	1360.24
623.93	1352.78
624.28	1345.59
624.62	1338.07
624.97	1330.87
625.32	1324.26
625.66	1317.28
626.01	1310.09
626.35	1302.55
626.70	1294.89
627.04	1287.06
627.39	1279.37
627.73	1271.94
628.08	1265.07
628.43	1257.67
628.77	1250.23
629.12	1242.68
629.46	1235.57
629.81	1228.18
630.15	1220.85
630.50	1213.41
630.84	1205.35
631.19	1197.55
631.53	1190.06
631.88	1182.47
632.22	1174.92
632.57	1167.56
632.91	1160.08
633.26	1152.75
633.60	1145.45
633.95	1138.39
634.29	1131.46
634.64	1124.79
634.98	1117.42
635.32	1110.31
635.67	1103.76
636.01	1097.26
636.36	1090.36
636.70	1083.88
637.05	1077.25
637.39	1070.90
637.73	1064.43
638.08	1058.49
638.42	1052.49
638.77	1046.04
639.11	1039.53
639.45	1033.16
639.80	1026.39
640.14	1019.84
640.49	1013.27
640.83	1006.97
641.17	1000.65
641.52	994.36
641.86	987.96
642.20	982.08
642.55	975.75
642.89	969.21
643.23	962.58
643.58	956.85
643.92	950.62
644.26	944.50
644.61	938.39
644.95	932.38
645.29	925.76
645.64	918.92
645.98	912.60
646.32	906.77
646.66	900.76
647.01	895.04
647.35	889.41
647.69	883.64
648.04	878.07
648.38	872.31
648.72	866.24
649.06	860.13
649.41	854.23
649.75	848.28
650.09	842.38
650.43	836.56
650.78	830.41
651.12	824.36
651.46	818.68
651.80	812.90
652.14	807.44
652.49	802.02
652.83	796.83
653.17	791.09
653.51	785.29
653.85	779.95
654.20	774.24
654.54	768.23
654.88	762.48
655.22	756.53
655.56	750.80
655.90	745.44
656.25	740.11
656.59	734.81
656.93	729.71
657.27	724.55
657.61	719.18
657.95	714.12
658.29	709.12
658.64	703.80
658.98	698.54
659.32	693.12
659.66	687.91
660.00	682.61
660.34	677.68
660.68	672.78
661.02	667.65
661.36	662.87
661.70	658.38
662.05	654.01
662.39	649.73
662.73	645.32
663.07	640.80
663.41	636.40
663.75	631.89
664.09	627.32
664.43	622.91
664.77	618.71
665.11	614.36
665.45	610.27
665.79	606.23
666.13	602.13
666.47	598.04
666.81	593.86
667.15	589.75
667.49	585.89
667.83	582.07
668.17	578.18
668.51	574.23
668.85	570.21
669.19	566.43
669.53	562.62
669.87	558.73
670.21	555.14
670.55	551.51
670.89	548.12
671.23	544.73
671.57	541.19
671.91	537.71
672.25	534.28
672.58	530.72
672.92	527.33
673.26	524.15
673.60	521.02
673.94	517.93
674.28	515.01
674.62	512.11
674.96	509.04
675.30	506.08
675.64	503.20
675.97	500.42
676.31	497.53
676.65	494.55
676.99	491.86
677.33	489.00
677.67	486.22
678.01	483.10
678.34	480.09
678.68	477.24
679.02	474.46
679.36	471.73
679.70	468.98
680.04	466.25
680.37	463.37
680.71	460.57
681.05	457.99
681.39	455.29
681.73	452.57
682.06	450.05
682.40	447.57
682.74	445.04
683.08	442.49
683.42	439.85
683.75	437.38
684.09	434.85
684.43	432.37
684.77	429.88
685.10	427.61
685.44	425.35
685.78	423.15
686.12	420.88
686.45	418.59
686.79	416.33
687.13	414.17
687.46	412.04
687.80	409.89
688.14	407.71
688.48	405.65
688.81	403.41
689.15	401.21
689.49	399.02
689.82	396.87
690.16	394.81
690.50	392.88
690.83	390.96
691.17	388.95
691.51	387.01
691.84	385.15
692.18	383.23
692.52	381.19
692.85	379.20
693.19	377.33
693.52	375.45
693.86	373.65
694.20	371.78
694.53	369.96
694.87	368.13
695.21	366.30
695.54	364.47
695.88	362.74
696.21	361.03
696.55	359.33
696.88	357.68
697.22	356.02
697.56	354.37
697.89	352.65
698.23	351.08
698.56	349.51
698.90	347.94
699.23	346.25
699.57	344.68
699.90	343.16
700.24	341.62
700.58	340.06
700.91	338.55
701.25	337.14
701.58	335.75
701.92	334.37
702.25	333.02
702.59	331.66
702.92	330.36
703.26	329.04
703.59	327.79
703.93	326.56
704.26	325.30
704.60	323.99
704.93	322.73
705.26	321.45
705.60	320.24
705.93	319.05
706.27	318.02
706.60	316.97
706.94	315.87
707.27	314.70
707.61	313.64
707.94	312.63
708.27	311.50
708.61	310.42
708.94	309.41
709.28	308.40
709.61	307.41
709.94	306.45
710.28	305.42
710.61	304.45
710.95	303.38
711.28	302.51
711.61	301.59
711.95	300.67
712.28	299.72
712.61	298.74
712.95	297.85
713.28	296.94
713.61	296.07
713.95	295.22
714.28	294.43
714.61	293.61
714.95	292.77
715.28	291.94
715.61	291.11
715.95	290.27
716.28	289.45
716.61	288.64
716.95	287.82
717.28	287.12
717.61	286.36
717.94	285.63
718.28	284.80
718.61	284.06
718.94	283.39
719.27	282.80
719.61	282.18
719.94	281.51
720.27	280.80
720.60	280.17
720.94	279.53
721.27	278.94
721.60	278.37
721.93	277.77
722.27	277.29
722.60	276.72
722.93	276.18
723.26	275.67
723.59	275.15
723.93	274.59
724.26	274.05
724.59	273.51
724.92	272.99
725.25	272.52
725.59	272.04
725.92	271.57
726.25	271.02
726.58	270.52
726.91	270.06
727.24	269.64
727.57	269.17
727.91	268.68
728.24	268.25
728.57	267.77
728.90	267.30
729.23	266.77
729.56	266.35
729.89	265.86
730.22	265.38
730.55	264.90
730.89	264.48
731.22	264.05
731.55	263.59
731.88	263.17
732.21	262.73
732.54	262.28
732.87	261.83
733.20	261.43
733.53	261.04
733.86	260.67
734.19	260.21
734.52	259.82
734.85	259.49
735.18	259.04
735.51	258.65
735.84	258.29
736.17	257.94
736.50	257.52
736.83	257.30
737.16	256.94
737.49	256.60
737.82	256.25
738.15	255.88
738.48	255.53
738.81	255.18
739.14	254.84
739.47	254.50
739.80	254.20
740.13	253.87
740.46	253.54
740.79	253.16
741.12	252.85
741.45	252.49
741.78	252.13
742.11	251.81
742.44	251.49
742.77	251.16
743.10	250.80
743.43	250.49
743.75	250.08
744.08	249.91
744.41	249.61
744.74	249.34
745.07	249.02
745.40	248.78
745.73	248.55
746.06	248.26
746.39	247.98
746.71	247.66
747.04	247.41
747.37	247.14
747.70	246.92
748.03	246.69
748.36	246.48
748.68	246.23
749.01	246.03
749.34	245.79
749.67	245.55
750.00	245.39
750.33	245.22
750.65	244.99
750.98	244.70
751.31	244.50
751.64	244.28
751.97	244.19
752.29	244.00
752.62	243.75
752.95	243.56
753.28	243.38
753.60	243.22
753.93	243.03
754.26	242.82
754.59	242.60
754.91	242.38
755.24	242.18
755.57	242.02
755.90	241.82
756.22	241.62
756.55	241.44
756.88	241.24
757.20	241.05
757.53	240.89
757.86	240.71
758.19	240.57
758.51	240.45
758.84	240.23
759.17	240.06
759.49	239.92
759.82	239.82
760.15	239.68
760.47	239.51
760.80	239.37
761.13	239.26
761.45	239.14
761.78	239.03
762.11	238.91
762.43	238.77
762.76	238.66
763.08	238.53
763.41	238.45
763.74	238.30
764.06	238.15
764.39	237.98
764.71	237.83
765.04	237.67
765.37	237.52
765.69	237.37
766.02	237.22
766.34	237.08
766.67	236.91
767.00	236.85
767.32	236.80
767.65	236.75
767.97	236.63
768.30	236.57
768.62	236.43
768.95	236.31
769.27	236.19
769.60	236.05
769.92	235.95
770.25	235.80
770.57	235.72
770.90	235.64
771.22	235.56
771.55	235.44
771.87	235.37
772.20	235.28
772.52	235.28
772.85	235.33
773.17	235.24
773.50	235.16
773.82	235.03
774.15	234.84
774.47	234.68
774.80	234.58
775.12	234.44
775.45	234.37
775.77	234.28
776.09	234.20
776.42	234.10
776.74	234.06
777.07	234.00
777.39	233.89
777.72	233.83
778.04	233.76
778.36	233.68
778.69	233.60
779.01	233.51
779.33	233.35
779.66	233.17
779.98	233.10
780.31	233.01
780.63	232.95
780.95	232.93
781.28	232.83
781.60	232.76
781.92	232.70
782.25	232.59
782.57	232.52
782.89	232.44
783.22	232.41
783.54	232.30
783.86	232.22
784.19	232.16
784.51	232.12
784.83	232.00
785.16	231.98
785.48	231.90
785.80	231.84
786.12	231.80
786.45	231.75
786.77	231.70
787.09	231.65
787.42	231.57
787.74	231.51
788.06	231.45
788.38	231.38
788.71	231.30
789.03	231.28
789.35	231.25
789.67	231.21
789.99	231.12
790.32	231.08
790.64	231.07
790.96	231.12
791.28	231.03
791.61	231.00
791.93	230.94
792.25	230.92
792.57	230.92
792.89	230.86
793.21	230.81
793.54	230.75
793.86	230.69
794.18	230.66
794.50	230.61
794.82	230.60
795.14	230.60
795.47	230.64
795.79	230.64
796.11	230.59
796.43	230.58
796.75	230.57
797.07	230.53
797.39	230.48
797.71	230.38
798.04	230.36
798.36	230.33
798.68	230.33
799.00	230.30
799.32	230.23
799.64	230.21
799.96	230.21
800.28	230.19
800.60	230.17
800.92	230.15
801.24	230.12
801.56	230.13
801.89	230.09
802.21	230.05
802.53	229.98
802.85	229.96
803.17	229.95
803.49	229.92
803.81	229.90
804.13	229.85
804.45	229.83
804.77	229.82
805.09	229.82
805.41	229.78
805.73	229.74
806.05	229.71
806.37	229.69
806.69	229.65
807.01	229.65
807.33	229.65
807.65	229.61
807.97	229.65
808.28	229.59
808.60	229.58
808.92	229.53
809.24	229.57
809.56	229.56
809.88	229.51
810.20	229.49
810.52	229.49
810.84	229.44
811.16	229.39
811.48	229.37
811.80	229.37
812.12	229.36
812.43	229.39
812.75	229.38
813.07	229.32
813.39	229.30
813.71	229.26
814.03	229.21
814.35	229.19
814.67	229.13
814.98	229.12
815.30	229.10
815.62	229.04
815.94	228.95
816.26	228.97
816.58	228.92
816.89	228.94
817.21	228.89
817.53	228.90
817.85	228.90
818.17	228.87
818.48	228.81
818.80	228.77
819.12	228.68
819.44	228.63
819.76	228.62
820.07	228.57
820.39	228.57
820.71	228.60
821.03	228.56
821.34	228.52
821.66	228.50
821.98	228.46
822.30	228.45
822.61	228.49
822.93	228.44
823.25	228.44
823.57	228.39
823.88	228.40
824.20	228.37
824.52	228.35
824.83	228.33
825.15	228.31
825.47	228.30
825.79	228.30
826.10	228.28
826.42	228.28
826.74	228.29
827.05	228.24
827.37	228.20
827.69	228.18
828.00	228.20
828.32	228.19
828.64	228.17
828.95	228.21
829.27	228.17
829.58	228.12
829.90	228.11
830.22	228.10
830.53	228.05
830.85	228.01
831.17	228.01
831.48	227.99
831.80	227.99
832.11	227.96
832.43	227.92
832.75	227.91
833.06	227.93
833.38	227.88
833.69	227.86
834.01	227.84
834.32	227.84
834.64	227.82
834.96	227.81
835.27	227.82
835.59	227.76
835.90	227.76
836.22	227.76
836.53	227.75
836.85	227.74
837.16	227.82
837.48	227.83
837.79	227.84
838.11	227.82
838.42	227.84
838.74	227.87
839.05	227.88
839.37	227.88
839.68	227.82
840.00	227.88
840.31	227.92
840.63	227.89
840.94	227.87
841.26	227.84
841.57	227.85
841.88	227.83
842.20	227.85
842.51	227.79
842.83	227.79
843.14	227.87
843.46	227.86
843.77	227.83
844.08	227.80
844.40	227.75
844.71	227.77
845.03	227.74
845.34	227.74
845.65	227.76
845.97	227.74
846.28	227.74
846.60	227.75
846.91	227.71
847.22	227.73
847.54	227.75
847.85	227.80
848.16	227.76
848.48	227.77
848.79	227.78
849.10	227.82
849.42	227.84
849.73	227.76
850.04	227.77
850.36	227.72
850.67	227.79
850.98	227.80
851.30	227.81
851.61	227.81
851.92	227.79
852.23	227.82
852.55	227.82
852.86	227.85
853.17	227.85
853.49	227.89
853.80	227.91
854.11	227.90
854.42	227.93
854.74	227.94
855.05	227.94
855.36	227.91
855.67	227.92
855.99	227.87
856.30	227.97
856.61	227.95
856.92	227.93
857.23	227.94
857.55	227.93
857.86	227.92
858.17	227.91
858.48	227.89
858.79	227.85
859.11	227.90
859.42	227.88
859.73	227.85
860.04	227.82
860.35	227.78
860.66	227.73
860.98	227.70
861.29	227.70
861.60	227.66
861.91	227.65
862.22	227.62
862.53	227.63
862.84	227.52
863.16	227.57
863.47	227.55
863.78	227.50
864.09	227.49
864.40	227.45
864.71	227.46
865.02	227.45
865.33	227.42
865.64	227.34
865.95	227.30
866.27	227.34
866.58	227.28
866.89	227.27
867.20	227.27
867.51	227.23
867.82	227.22
868.13	227.25
868.44	227.21
868.75	227.25
869.06	227.22
869.37	227.22
869.68	227.16
869.99	227.15
870.30	227.18
870.61	227.20
870.92	227.20
871.23	227.17
871.54	227.19
871.85	227.23
872.16	227.28
872.47	227.27
872.78	227.21
873.09	227.24
873.40	227.23
873.71	227.23
874.02	227.23
874.33	227.21
874.64	227.20
874.95	227.23
875.26	227.18
875.56	227.19
875.87	227.19
876.18	227.16
876.49	227.28
876.80	227.26
877.11	227.26
877.42	227.26
877.73	227.26
878.04	227.22
878.35	227.22
878.66	227.20
878.96	227.22
879.27	227.22
879.58	227.23
879.89	227.21
880.20	227.22
880.51	227.21
880.82	227.20
881.12	227.17
881.43	227.14
881.74	227.15
882.05	227.17
882.36	227.16
882.67	227.20
882.97	227.10
883.28	227.09
883.59	227.06
883.90	227.08
884.21	227.11
884.51	227.11
884.82	227.08
885.13	227.08
885.44	227.07
885.74	227.09
886.05	227.08
886.36	227.09
886.67	227.08
886.98	227.11
887.28	227.15
887.59	227.16
887.90	227.21
888.20	227.21
888.51	227.21
888.82	227.19
889.13	227.20
889.43	227.27
889.74	227.28
890.05	227.28
890.35	227.27
890.66	227.25
890.97	227.25
891.28	227.25
891.58	227.23
891.89	227.25
892.20	227.24
892.50	227.22
892.81	227.22
893.12	227.23
893.42	227.23
893.73	227.23
894.04	227.23
894.34	227.21
894.65	227.19
894.95	227.19
895.26	227.19
895.57	227.24
895.87	227.17
896.18	227.13
896.48	227.13
896.79	227.13
897.10	227.16
897.40	227.15
897.71	227.15
898.01	227.15
898.32	227.15
898.63	227.15
898.93	227.18
899.24	227.19
899.54	227.17
899.85	227.14
900.15	227.15
900.46	227.15
900.76	227.13
901.07	227.15
901.38	227.09
901.68	227.08
901.99	227.00
902.29	227.01
902.60	227.03
902.90	227.02
903.21	226.98
903.51	226.93
903.82	226.96
904.12	226.93
904.43	226.92
904.73	226.88
905.03	226.88
905.34	226.96
905.64	226.97
905.95	226.97
906.25	226.95
906.56	226.92
906.86	226.91
907.17	226.93
907.47	226.89
907.77	226.91
908.08	226.91
908.38	226.93
908.69	226.92
908.99	226.94
909.30	226.96
909.60	226.98
909.90	227.01
910.21	226.97
910.51	226.94
910.81	226.95
911.12	226.99
911.42	227.00
911.73	226.92
912.03	226.92
912.33	226.95
912.64	226.97
912.94	226.93
913.24	226.92
913.55	226.92
913.85	226.97
914.15	227.00
914.46	227.03
914.76	227.05
915.06	227.07
915.37	227.06
915.67	227.03
915.97	227.03
916.27	227.03
916.58	227.02
916.88	227.06
917.18	227.12
917.49	227.19
917.79	227.14
918.09	227.12
918.39	227.16
918.70	227.14
919.00	227.15
919.30	227.20
919.60	227.20
919.91	227.15
920.21	227.13
920.51	227.10
920.81	227.09
921.12	227.09
921.42	227.10
921.72	227.08
922.02	227.14
922.32	227.15
922.63	227.13
922.93	227.18
923.23	227.19
923.53	227.14
923.83	227.07
924.13	227.09
924.44	227.09
924.74	227.09
925.04	227.12
925.34	227.12
925.64	227.10
925.94	227.13
926.24	227.20
926.55	227.17
926.85	227.20
927.15	227.19
927.45	227.17
927.75	227.13
928.05	227.14
928.35	227.14
928.65	227.16
928.95	227.17
929.26	227.14
929.56	227.14
929.86	227.17
930.16	227.16
930.46	227.17
930.76	227.21
931.06	227.18
931.36	227.16
931.66	227.19
931.96	227.18
932.26	227.19
932.56	227.16
932.86	227.19
933.16	227.20
933.46	227.20
933.76	227.18
934.06	227.19
934.36	227.23
934.66	227.18
934.96	227.15
935.26	227.14
935.56	227.17
935.86	227.13
936.16	227.09
936.46	227.05
936.76	227.01
937.06	226.98
937.36	226.95
937.66	226.96
937.96	226.95
938.26	226.94
938.56	226.93
938.86	226.94
939.16	226.94
939.46	226.94
939.76	226.91
940.06	226.91
940.35	226.89
940.65	226.84
940.95	226.87
941.25	226.83
941.55	226.83
941.85	226.82
942.15	226.84
942.45	226.90
942.75	226.92
943.04	226.94
943.34	226.95
943.64	226.96
943.94	226.94
944.24	226.92
944.54	226.95
944.84	226.92
945.13	226.88
945.43	226.88
945.73	226.86
946.03	226.88
946.33	226.86
946.62	226.87
946.92	226.88
947.22	226.86
947.52	226.87
947.82	226.88
948.11	226.86
948.41	226.85
948.71	226.79
949.01	226.78
949.31	226.78
949.60	226.77
949.90	226.75
950.20	226.72
950.50	226.75
950.79	226.72
951.09	226.73
951.39	226.75
951.69	226.75
951.98	226.80
952.28	226.81
952.58	226.81
952.87	226.78
953.17	226.81
953.47	226.79
953.76	226.80
954.06	226.79
954.36	226.78
954.66	226.80
954.95	226.84
955.25	226.86
955.55	226.86
955.84	226.85
956.14	226.89
956.44	226.91
956.73	226.88
957.03	226.89
957.32	226.91
957.62	226.88
957.92	226.89
958.21	226.86
958.51	226.97
958.81	226.98
959.10	227.00
959.40	226.99
959.69	227.03
959.99	227.04
960.29	227.03
960.58	227.03
960.88	227.04
961.17	227.03
961.47	227.06
961.76	227.03
962.06	227.03
962.36	227.03
962.65	227.03
962.95	227.04
963.24	227.06
963.54	227.05
963.83	227.07
964.13	227.06
964.42	227.01
964.72	226.95
965.01	226.95
965.31	226.94
965.60	226.92
965.90	227.00
966.19	226.99
966.49	227.03
966.78	227.03
967.08	227.02
967.37	227.02
967.67	226.98
967.96	227.01
968.26	227.03
968.55	227.05
968.85	227.08
969.14	227.06
969.43	227.04
969.73	227.02
970.02	227.03
970.32	227.00
970.61	227.01
970.91	226.95
971.20	226.95
971.49	226.93
971.79	226.96
972.08	226.89
972.38	226.91
972.67	226.91
972.96	226.92
973.26	226.90
973.55	226.90
973.85	226.91
974.14	226.88
974.43	226.84
974.73	226.80
975.02	226.76
975.31	226.77
975.61	226.73
975.90	226.71
976.19	226.70
976.49	226.72
976.78	226.74
977.07	226.75
977.37	226.77
977.66	226.78
977.95	226.73
978.24	226.72
978.54	226.72
978.83	226.68
979.12	226.69
979.42	226.71
979.71	226.69
980.00	226.67
980.29	226.66
980.59	226.68
980.88	226.69
981.17	226.68
981.46	226.68
981.76	226.70
982.05	226.72
982.34	226.72
982.63	226.72
982.93	226.74
983.22	226.73
983.51	226.75
983.80	226.78
984.09	226.79
984.39	226.75
984.68	226.74
984.97	226.75
985.26	226.72
985.55	226.71
985.85	226.69
986.14	226.69
986.43	226.74
986.72	226.76
987.01	226.75
987.30	226.78
987.59	226.79
987.89	226.78
988.18	226.76
988.47	226.76
988.76	226.76
989.05	226.75
989.34	226.73
989.63	226.72
989.92	226.68
990.22	226.66
990.51	226.69
990.80	226.67
991.09	226.69
991.38	226.69
991.67	226.67
991.96	226.72
992.25	226.73
992.54	226.70
992.83	226.70
993.12	226.69
993.41	226.70
993.70	226.71
993.99	226.72
994.28	226.74
994.58	226.75
994.87	226.73
995.16	226.72
995.45	226.75
995.74	226.73
996.03	226.76
996.32	226.79
996.61	226.80
996.90	226.82
997.19	226.79
997.48	226.80
997.77	226.81
998.06	226.82
998.34	226.77
998.63	226.79
998.92	226.78
999.21	226.79
999.50	226.77
999.79	226.73
1000.08	226.77
1000.37	226.76
1000.66	226.77
1000.95	226.83
1001.24	226.83
1001.53	226.85
1001.82	226.83
1002.11	226.81
1002.40	226.81
1002.68	226.88
1002.97	226.91
1003.26	226.93
1003.55	226.91
1003.84	226.92
1004.13	226.90
1004.42	226.96
1004.71	226.92
1004.99	226.90
1005.28	226.92
1005.57	226.93
1005.86	226.93
1006.15	226.91
1006.44	226.90
1006.72	226.90
1007.01	226.84
1007.30	226.86
1007.59	226.78
1007.88	226.82
1008.17	226.84
1008.45	226.84
1008.74	226.76
1009.03	226.75
1009.32	226.75
1009.60	226.77
1009.89	226.77
1010.18	226.75
1010.47	226.76
1010.76	226.76
1011.04	226.77
1011.33	226.78
1011.62	226.80
1011.91	226.82
1012.19	226.80
1012.48	226.83
1012.77	226.81
1013.05	226.86
1013.34	226.86
1013.63	226.88
1013.92	226.87
1014.20	226.83
1014.49	226.84
1014.78	226.84
1015.06	226.79
1015.35	226.78
1015.64	226.80
1015.92	226.83
1016.21	226.82
1016.50	226.77
1016.78	226.82
1017.07	226.81
1017.36	226.78
1017.64	226.75
1017.93	226.76
1018.22	226.75
1018.50	226.74
1018.79	226.75
1019.08	226.70
1019.36	226.69
1019.65	226.72
1019.93	226.76
1020.22	226.80
1020.51	226.83
1020.79	226.81
1021.08	226.45
1021.36	226.56
1021.65	226.87
1021.94	226.37
1022.22	226.73
1022.51	227.49
1022.79	227.59
1023.08	226.82
1023.36	227.85
1023.65	226.12
>>>>>End Processed Spectral Data<<<<<
