SpectraSuite Data File
++++++++++++++++++++++++++++++++++++
Date: Fri Feb 01 16:27:18 EST 2013
User: group
Dark Spectrum Present: No
Reference Spectrum Present: No
Number of Sampled Component Spectra: 1
Spectrometers: USB2E7196
Integration Time (usec): 35000 (USB2E7196)
Spectra Averaged: 100 (USB2E7196)
Boxcar Smoothing: 10 (USB2E7196)
Correct for Electrical Dark: No (USB2E7196)
Strobe/Lamp Enabled: No (USB2E7196)
Correct for Detector Non-linearity: No (USB2E7196)
Correct for Stray Light: No (USB2E7196)
Number of Pixels in Processed Spectrum: 2048
>>>>>Begin Processed Spectral Data<<<<<
339.09	0.00
339.48	213.21
339.86	215.87
340.24	217.43
340.63	218.25
341.01	221.10
341.39	220.76
341.78	222.36
342.16	223.66
342.54	224.40
342.93	212.59
343.31	223.35
343.69	223.93
344.07	224.40
344.46	224.77
344.84	225.19
345.22	225.44
345.60	225.71
345.99	225.93
346.37	226.06
346.75	226.15
347.13	226.24
347.52	226.28
347.90	226.37
348.28	226.41
348.66	226.49
349.05	226.46
349.43	226.50
349.81	226.54
350.19	226.58
350.57	226.63
350.96	226.72
351.34	226.78
351.72	226.85
352.10	226.92
352.48	227.00
352.87	227.02
353.25	227.09
353.63	227.14
354.01	227.18
354.39	227.26
354.77	227.32
355.15	227.39
355.54	227.43
355.92	227.45
356.30	227.49
356.68	227.58
357.06	227.63
357.44	227.69
357.82	227.74
358.20	227.76
358.58	227.81
358.97	227.82
359.35	227.88
359.73	227.97
360.11	228.00
360.49	228.08
360.87	228.11
361.25	228.13
361.63	228.22
362.01	228.22
362.39	228.22
362.77	228.25
363.15	228.28
363.53	228.32
363.91	228.32
364.29	228.33
364.67	228.29
365.05	228.32
365.43	228.31
365.81	228.32
366.19	228.37
366.57	228.40
366.95	228.39
367.33	228.35
367.71	228.32
368.09	228.35
368.47	228.30
368.85	228.28
369.23	228.27
369.61	228.17
369.99	228.17
370.37	228.17
370.75	228.18
371.13	228.12
371.51	228.05
371.89	228.03
372.27	227.98
372.65	227.91
373.03	227.85
373.41	227.77
373.78	227.73
374.16	227.63
374.54	227.51
374.92	227.47
375.30	227.45
375.68	227.38
376.06	227.29
376.44	227.22
376.82	227.17
377.19	227.13
377.57	227.08
377.95	227.00
378.33	226.96
378.71	226.86
379.09	226.80
379.47	226.75
379.84	226.69
380.22	226.65
380.60	226.59
380.98	226.53
381.36	226.50
381.73	226.40
382.11	226.38
382.49	226.36
382.87	226.32
383.25	226.26
383.62	226.33
384.00	226.29
384.38	226.27
384.76	226.22
385.13	226.20
385.51	226.17
385.89	226.10
386.27	226.05
386.64	226.04
387.02	226.02
387.40	226.00
387.78	225.98
388.15	225.95
388.53	225.92
388.91	225.92
389.29	225.89
389.66	225.86
390.04	225.83
390.42	225.81
390.79	225.75
391.17	225.72
391.55	225.56
391.92	225.58
392.30	225.58
392.68	225.59
393.05	225.60
393.43	225.59
393.81	225.60
394.18	225.59
394.56	225.57
394.94	225.58
395.31	225.61
395.69	225.67
396.06	225.70
396.44	225.72
396.82	225.74
397.19	225.82
397.57	225.89
397.95	225.92
398.32	225.94
398.70	226.02
399.07	226.11
399.45	226.20
399.82	226.24
400.20	226.30
400.58	226.34
400.95	226.37
401.33	226.44
401.70	226.61
402.08	226.68
402.45	226.77
402.83	226.87
403.20	226.91
403.58	226.96
403.95	227.07
404.33	227.21
404.71	227.30
405.08	227.46
405.46	227.56
405.83	227.69
406.21	227.86
406.58	228.01
406.96	228.13
407.33	228.31
407.70	228.47
408.08	228.71
408.45	228.92
408.83	229.15
409.20	229.35
409.58	229.53
409.95	229.75
410.33	230.01
410.70	230.23
411.08	230.57
411.45	230.89
411.82	231.16
412.20	231.50
412.57	231.92
412.95	232.20
413.32	232.63
413.69	233.05
414.07	233.49
414.44	233.98
414.82	234.49
415.19	235.01
415.56	235.58
415.94	236.12
416.31	236.77
416.68	237.37
417.06	238.13
417.43	238.78
417.81	239.59
418.18	240.36
418.55	241.20
418.93	242.04
419.30	242.96
419.67	243.90
420.04	244.83
420.42	245.83
420.79	247.03
421.16	248.18
421.54	249.37
421.91	250.56
422.28	251.74
422.66	253.06
423.03	254.37
423.40	255.70
423.77	257.10
424.15	258.51
424.52	259.98
424.89	261.55
425.26	263.13
425.64	264.61
426.01	266.21
426.38	267.88
426.75	269.56
427.13	271.26
427.50	273.08
427.87	275.00
428.24	276.86
428.61	278.58
428.99	280.53
429.36	282.63
429.73	284.73
430.10	286.80
430.47	288.88
430.85	291.06
431.22	293.26
431.59	295.65
431.96	297.93
432.33	300.47
432.70	302.86
433.08	305.65
433.45	308.28
433.82	310.89
434.19	313.78
434.56	316.58
434.93	319.24
435.30	321.89
435.68	324.79
436.05	327.59
436.42	330.39
436.79	332.86
437.16	335.52
437.53	338.31
437.90	341.13
438.27	343.85
438.64	346.57
439.01	349.21
439.38	351.45
439.75	353.55
440.13	355.99
440.50	358.30
440.87	360.15
441.24	362.09
441.61	364.23
441.98	365.70
442.35	367.51
442.72	369.30
443.09	371.08
443.46	372.01
443.83	372.58
444.20	373.09
444.57	373.94
444.94	374.23
445.31	374.54
445.68	374.86
446.05	374.94
446.42	374.56
446.79	374.09
447.16	373.66
447.53	373.43
447.90	372.31
448.27	371.15
448.64	369.54
449.01	368.36
449.37	366.38
449.74	364.49
450.11	362.20
450.48	359.82
450.85	357.25
451.22	355.12
451.59	353.14
451.96	351.18
452.33	348.57
452.70	346.21
453.07	343.40
453.43	340.50
453.80	337.73
454.17	335.08
454.54	332.54
454.91	329.82
455.28	327.08
455.65	324.54
456.02	322.12
456.38	319.98
456.75	317.35
457.12	315.13
457.49	312.90
457.86	310.77
458.23	308.89
458.59	306.90
458.96	304.85
459.33	303.02
459.70	301.16
460.07	299.69
460.43	297.95
460.80	296.38
461.17	294.99
461.54	293.48
461.91	292.07
462.27	290.65
462.64	289.39
463.01	288.06
463.38	286.78
463.74	285.38
464.11	284.22
464.48	283.19
464.85	282.11
465.21	281.25
465.58	280.37
465.95	279.27
466.32	278.35
466.68	277.41
467.05	276.50
467.42	275.63
467.78	274.69
468.15	273.83
468.52	273.17
468.88	272.31
469.25	271.58
469.62	270.96
469.98	270.34
470.35	269.75
470.72	269.17
471.08	268.54
471.45	268.06
471.82	267.57
472.18	267.01
472.55	266.55
472.92	266.06
473.28	265.64
473.65	265.21
474.02	264.79
474.38	264.45
474.75	264.13
475.11	263.79
475.48	263.58
475.85	263.40
476.21	263.19
476.58	263.03
476.94	262.90
477.31	262.77
477.67	262.58
478.04	262.46
478.41	262.40
478.77	262.47
479.14	262.40
479.50	262.40
479.87	262.49
480.23	262.58
480.60	262.68
480.96	262.75
481.33	262.97
481.69	263.18
482.06	263.39
482.42	263.62
482.79	263.91
483.15	264.17
483.52	264.55
483.88	264.89
484.25	265.27
484.61	265.69
484.98	266.12
485.34	266.69
485.71	267.25
486.07	267.86
486.44	268.42
486.80	269.10
487.17	269.82
487.53	270.59
487.90	271.48
488.26	272.37
488.62	273.37
488.99	274.34
489.35	275.37
489.72	276.50
490.08	277.70
490.44	278.92
490.81	280.29
491.17	281.61
491.54	283.08
491.90	284.62
492.26	286.24
492.63	287.98
492.99	289.74
493.36	291.68
493.72	293.72
494.08	295.84
494.45	298.09
494.81	300.47
495.17	302.94
495.54	305.49
495.90	308.18
496.26	310.96
496.63	313.89
496.99	317.01
497.35	320.29
497.72	323.67
498.08	327.17
498.44	330.84
498.80	334.75
499.17	338.85
499.53	343.04
499.89	347.49
500.26	351.97
500.62	356.70
500.98	361.61
501.34	366.70
501.71	372.02
502.07	377.48
502.43	383.14
502.79	388.93
503.16	394.98
503.52	401.29
503.88	407.66
504.24	414.32
504.60	421.19
504.97	428.33
505.33	435.67
505.69	443.37
506.05	451.15
506.41	459.10
506.78	467.19
507.14	475.62
507.50	484.29
507.86	493.38
508.22	502.57
508.59	511.79
508.95	521.40
509.31	531.19
509.67	541.27
510.03	551.59
510.39	562.21
510.75	573.01
511.12	583.96
511.48	595.27
511.84	606.74
512.20	618.23
512.56	630.17
512.92	642.33
513.28	654.68
513.64	667.17
514.00	679.86
514.37	692.77
514.73	705.85
515.09	718.83
515.45	732.07
515.81	745.61
516.17	759.56
516.53	773.62
516.89	787.82
517.25	801.96
517.61	816.28
517.97	830.69
518.33	845.09
518.69	859.78
519.05	874.82
519.41	889.94
519.77	905.35
520.13	920.74
520.49	936.05
520.85	951.44
521.21	967.17
521.57	983.31
521.93	999.06
522.29	1015.36
522.65	1031.54
523.01	1047.76
523.37	1063.79
523.73	1079.82
524.09	1095.93
524.45	1112.13
524.81	1128.72
525.17	1145.42
525.53	1162.23
525.89	1179.01
526.25	1195.68
526.61	1211.87
526.97	1228.55
527.33	1245.09
527.68	1261.60
528.04	1278.09
528.40	1294.57
528.76	1311.42
529.12	1327.92
529.48	1344.68
529.84	1360.61
530.20	1377.24
530.56	1394.18
530.91	1411.51
531.27	1428.32
531.63	1444.68
531.99	1461.16
532.35	1476.97
532.71	1492.85
533.07	1509.01
533.42	1524.85
533.78	1541.04
534.14	1557.25
534.50	1572.57
534.86	1588.34
535.21	1603.37
535.57	1619.20
535.93	1634.57
536.29	1649.19
536.65	1664.13
537.00	1678.82
537.36	1694.05
537.72	1708.40
538.08	1722.68
538.44	1736.31
538.79	1750.05
539.15	1763.55
539.51	1777.17
539.87	1791.54
540.22	1805.12
540.58	1818.79
540.94	1831.92
541.29	1844.60
541.65	1857.14
542.01	1870.22
542.37	1882.41
542.72	1894.76
543.08	1906.42
543.44	1918.89
543.79	1930.14
544.15	1941.08
544.51	1952.62
544.87	1963.40
545.22	1974.17
545.58	1984.23
545.94	1993.93
546.29	2003.77
546.65	2013.67
547.01	2022.93
547.36	2031.59
547.72	2040.05
548.07	2047.89
548.43	2056.07
548.79	2064.17
549.14	2071.70
549.50	2078.91
549.86	2086.52
550.21	2093.94
550.57	2100.96
550.92	2107.29
551.28	2114.29
551.64	2121.31
551.99	2127.82
552.35	2133.98
552.70	2140.22
553.06	2146.19
553.41	2152.39
553.77	2158.24
554.13	2164.19
554.48	2170.27
554.84	2175.69
555.19	2180.92
555.55	2185.90
555.90	2190.30
556.26	2194.98
556.61	2199.80
556.97	2204.19
557.32	2208.30
557.68	2212.26
558.03	2216.59
558.39	2220.37
558.74	2225.02
559.10	2228.86
559.45	2232.54
559.81	2236.85
560.16	2240.68
560.52	2243.90
560.87	2247.37
561.23	2250.16
561.58	2253.12
561.94	2255.55
562.29	2257.85
562.64	2260.49
563.00	2263.13
563.35	2266.88
563.71	2269.98
564.06	2273.13
564.42	2276.01
564.77	2278.61
565.12	2280.99
565.48	2283.03
565.83	2284.87
566.19	2286.17
566.54	2287.08
566.89	2288.15
567.25	2288.77
567.60	2290.00
567.96	2291.80
568.31	2292.74
568.66	2293.86
569.02	2294.47
569.37	2294.93
569.72	2295.87
570.08	2296.16
570.43	2296.28
570.78	2295.63
571.14	2294.21
571.49	2292.88
571.84	2292.63
572.20	2291.58
572.55	2290.59
572.90	2289.04
573.26	2287.84
573.61	2286.23
573.96	2284.68
574.31	2281.86
574.67	2278.96
575.02	2275.41
575.37	2271.99
575.72	2268.22
576.08	2264.94
576.43	2261.61
576.78	2257.94
577.13	2254.94
577.49	2251.78
577.84	2248.39
578.19	2244.79
578.54	2241.33
578.90	2237.24
579.25	2231.74
579.60	2226.85
579.95	2221.89
580.30	2217.05
580.66	2211.90
581.01	2207.07
581.36	2202.15
581.71	2197.91
582.06	2193.46
582.42	2189.04
582.77	2183.95
583.12	2179.42
583.47	2174.80
583.82	2169.91
584.17	2164.85
584.53	2159.31
584.88	2153.80
585.23	2148.17
585.58	2142.64
585.93	2137.16
586.28	2132.47
586.63	2127.37
586.98	2122.42
587.34	2117.73
587.69	2112.79
588.04	2107.52
588.39	2101.86
588.74	2095.41
589.09	2089.33
589.44	2082.62
589.79	2076.66
590.14	2071.14
590.49	2064.64
590.84	2058.17
591.19	2052.31
591.54	2045.82
591.89	2038.52
592.25	2031.75
592.60	2024.49
592.95	2017.06
593.30	2009.79
593.65	2002.21
594.00	1995.17
594.35	1987.98
594.70	1980.15
595.05	1973.07
595.40	1965.83
595.75	1958.39
596.10	1952.25
596.45	1945.56
596.80	1939.47
597.15	1932.82
597.50	1925.73
597.85	1919.34
598.19	1912.93
598.54	1905.71
598.89	1899.23
599.24	1893.37
599.59	1886.73
599.94	1880.71
600.29	1874.23
600.64	1867.72
600.99	1860.33
601.34	1853.60
601.69	1846.70
602.04	1839.75
602.39	1832.48
602.74	1825.69
603.08	1818.98
603.43	1812.26
603.78	1804.98
604.13	1797.87
604.48	1790.68
604.83	1783.96
605.18	1776.96
605.53	1768.90
605.87	1761.01
606.22	1753.64
606.57	1745.73
606.92	1738.55
607.27	1731.35
607.62	1724.60
607.96	1717.35
608.31	1710.76
608.66	1703.13
609.01	1695.43
609.36	1687.79
609.70	1679.65
610.05	1671.72
610.40	1664.10
610.75	1655.79
611.10	1648.23
611.44	1639.79
611.79	1631.76
612.14	1622.99
612.49	1613.85
612.83	1605.56
613.18	1597.48
613.53	1589.47
613.88	1580.91
614.22	1572.62
614.57	1563.96
614.92	1556.00
615.27	1548.44
615.61	1540.10
615.96	1532.10
616.31	1524.48
616.65	1517.22
617.00	1509.82
617.35	1502.14
617.70	1493.84
618.04	1485.42
618.39	1477.21
618.74	1469.61
619.08	1461.41
619.43	1453.87
619.78	1447.01
620.12	1439.78
620.47	1432.26
620.82	1424.03
621.16	1416.68
621.51	1409.00
621.85	1401.34
622.20	1392.65
622.55	1384.20
622.89	1376.33
623.24	1368.59
623.59	1361.23
623.93	1353.70
624.28	1346.33
624.62	1338.65
624.97	1331.46
625.32	1324.71
625.66	1317.62
626.01	1310.45
626.35	1302.92
626.70	1295.22
627.04	1287.43
627.39	1279.63
627.73	1272.07
628.08	1265.26
628.43	1257.96
628.77	1250.59
629.12	1243.15
629.46	1236.08
629.81	1228.71
630.15	1221.49
630.50	1214.21
630.84	1206.00
631.19	1198.03
631.53	1190.52
631.88	1182.99
632.22	1175.34
632.57	1168.02
632.91	1160.51
633.26	1153.02
633.60	1145.72
633.95	1138.49
634.29	1131.48
634.64	1124.83
634.98	1117.53
635.32	1110.26
635.67	1103.56
636.01	1096.94
636.36	1090.03
636.70	1083.50
637.05	1076.89
637.39	1070.29
637.73	1063.78
638.08	1057.94
638.42	1052.00
638.77	1045.56
639.11	1038.99
639.45	1032.59
639.80	1025.96
640.14	1019.48
640.49	1013.03
640.83	1006.70
641.17	1000.46
641.52	994.16
641.86	987.70
642.20	981.87
642.55	975.65
642.89	969.16
643.23	962.55
643.58	956.84
643.92	950.58
644.26	944.52
644.61	938.58
644.95	932.56
645.29	925.94
645.64	919.15
645.98	912.82
646.32	907.02
646.66	900.92
647.01	895.09
647.35	889.42
647.69	883.52
648.04	877.99
648.38	872.19
648.72	866.15
649.06	860.10
649.41	854.26
649.75	848.19
650.09	842.30
650.43	836.51
650.78	830.26
651.12	824.31
651.46	818.60
651.80	812.85
652.14	807.45
652.49	802.13
652.83	796.96
653.17	791.28
653.51	785.48
653.85	780.14
654.20	774.44
654.54	768.44
654.88	762.70
655.22	756.73
655.56	751.07
655.90	745.61
656.25	740.36
656.59	735.00
656.93	730.02
657.27	724.86
657.61	719.51
657.95	714.45
658.29	709.36
658.64	704.15
658.98	698.88
659.32	693.44
659.66	688.13
660.00	682.80
660.34	677.83
660.68	672.98
661.02	667.93
661.36	663.25
661.70	658.67
662.05	654.33
662.39	650.07
662.73	645.62
663.07	641.31
663.41	636.88
663.75	632.34
664.09	627.73
664.43	623.34
664.77	619.17
665.11	614.95
665.45	610.88
665.79	606.69
666.13	602.52
666.47	598.39
666.81	594.26
667.15	590.18
667.49	586.27
667.83	582.40
668.17	578.45
668.51	574.37
668.85	570.33
669.19	566.49
669.53	562.62
669.87	558.77
670.21	554.98
670.55	551.29
670.89	547.89
671.23	544.45
671.57	540.88
671.91	537.34
672.25	533.86
672.58	530.31
672.92	526.92
673.26	523.81
673.60	520.63
673.94	517.48
674.28	514.53
674.62	511.58
674.96	508.50
675.30	505.61
675.64	502.68
675.97	499.94
676.31	497.04
676.65	494.10
676.99	491.30
677.33	488.46
677.67	485.65
678.01	482.55
678.34	479.54
678.68	476.68
679.02	473.87
679.36	471.07
679.70	468.32
680.04	465.57
680.37	462.62
680.71	459.85
681.05	457.27
681.39	454.59
681.73	451.95
682.06	449.39
682.40	446.76
682.74	444.20
683.08	441.61
683.42	439.03
683.75	436.52
684.09	433.98
684.43	431.53
684.77	429.06
685.10	426.75
685.44	424.42
685.78	422.16
686.12	419.87
686.45	417.61
686.79	415.25
687.13	413.05
687.46	410.92
687.80	408.77
688.14	406.55
688.48	404.47
688.81	402.19
689.15	400.05
689.49	397.90
689.82	395.83
690.16	393.76
690.50	391.82
690.83	389.87
691.17	387.91
691.51	386.02
691.84	384.19
692.18	382.28
692.52	380.37
692.85	378.40
693.19	376.55
693.52	374.68
693.86	372.93
694.20	371.15
694.53	369.33
694.87	367.47
695.21	365.69
695.54	363.85
695.88	362.16
696.21	360.41
696.55	358.81
696.88	357.16
697.22	355.50
697.56	353.87
697.89	352.22
698.23	350.60
698.56	349.00
698.90	347.34
699.23	345.66
699.57	344.12
699.90	342.58
700.24	341.01
700.58	339.52
700.91	338.03
701.25	336.61
701.58	335.26
701.92	333.92
702.25	332.56
702.59	331.21
702.92	329.88
703.26	328.62
703.59	327.32
703.93	326.06
704.26	324.82
704.60	323.55
704.93	322.28
705.26	321.04
705.60	319.87
705.93	318.75
706.27	317.73
706.60	316.67
706.94	315.60
707.27	314.50
707.61	313.40
707.94	312.40
708.27	311.27
708.61	310.18
708.94	309.16
709.28	308.17
709.61	307.22
709.94	306.29
710.28	305.26
710.61	304.30
710.95	303.25
711.28	302.35
711.61	301.39
711.95	300.50
712.28	299.54
712.61	298.51
712.95	297.58
713.28	296.66
713.61	295.76
713.95	294.84
714.28	294.01
714.61	293.11
714.95	292.19
715.28	291.33
715.61	290.47
715.95	289.61
716.28	288.73
716.61	287.86
716.95	287.02
717.28	286.27
717.61	285.50
717.94	284.78
718.28	283.96
718.61	283.20
718.94	282.47
719.27	281.82
719.61	281.23
719.94	280.56
720.27	279.88
720.60	279.20
720.94	278.60
721.27	278.02
721.60	277.45
721.93	276.85
722.27	276.33
722.60	275.71
722.93	275.09
723.26	274.57
723.59	273.99
723.93	273.44
724.26	272.87
724.59	272.31
724.92	271.82
725.25	271.31
725.59	270.81
725.92	270.32
726.25	269.80
726.58	269.26
726.91	268.77
727.24	268.30
727.57	267.82
727.91	267.32
728.24	266.82
728.57	266.39
728.90	265.94
729.23	265.46
729.56	265.09
729.89	264.64
730.22	264.11
730.55	263.67
730.89	263.21
731.22	262.78
731.55	262.37
731.88	261.91
732.21	261.48
732.54	261.02
732.87	260.58
733.20	260.17
733.53	259.77
733.86	259.39
734.19	259.00
734.52	258.60
734.85	258.27
735.18	257.87
735.51	257.44
735.84	257.07
736.17	256.73
736.50	256.31
736.83	256.09
737.16	255.76
737.49	255.45
737.82	255.10
738.15	254.76
738.48	254.41
738.81	254.06
739.14	253.75
739.47	253.45
739.80	253.15
740.13	252.88
740.46	252.57
740.79	252.20
741.12	251.88
741.45	251.59
741.78	251.27
742.11	250.99
742.44	250.71
742.77	250.41
743.10	250.10
743.43	249.80
743.75	249.42
744.08	249.34
744.41	249.01
744.74	248.79
745.07	248.53
745.40	248.27
745.73	248.05
746.06	247.73
746.39	247.49
746.71	247.22
747.04	246.93
747.37	246.65
747.70	246.41
748.03	246.16
748.36	245.93
748.68	245.67
749.01	245.42
749.34	245.16
749.67	244.96
750.00	244.73
750.33	244.58
750.65	244.36
750.98	243.97
751.31	243.78
751.64	243.52
751.97	243.32
752.29	243.08
752.62	242.81
752.95	242.67
753.28	242.45
753.60	242.27
753.93	242.09
754.26	241.91
754.59	241.73
754.91	241.53
755.24	241.34
755.57	241.14
755.90	240.94
756.22	240.77
756.55	240.55
756.88	240.33
757.20	240.12
757.53	239.93
757.86	239.75
758.19	239.58
758.51	239.44
758.84	239.24
759.17	239.10
759.49	238.98
759.82	238.86
760.15	238.69
760.47	238.53
760.80	238.34
761.13	238.20
761.45	238.06
761.78	237.92
762.11	237.74
762.43	237.60
762.76	237.46
763.08	237.36
763.41	237.25
763.74	237.16
764.06	237.00
764.39	236.89
764.71	236.78
765.04	236.65
765.37	236.50
765.69	236.38
766.02	236.24
766.34	236.11
766.67	235.92
767.00	235.84
767.32	235.74
767.65	235.70
767.97	235.58
768.30	235.45
768.62	235.33
768.95	235.26
769.27	235.15
769.60	235.07
769.92	234.92
770.25	234.78
770.57	234.66
770.90	234.55
771.22	234.43
771.55	234.33
771.87	234.23
772.20	234.11
772.52	234.07
772.85	234.11
773.17	234.00
773.50	233.92
773.82	233.78
774.15	233.67
774.47	233.50
774.80	233.40
775.12	233.33
775.45	233.23
775.77	233.16
776.09	233.06
776.42	232.98
776.74	232.93
777.07	232.86
777.39	232.79
777.72	232.70
778.04	232.64
778.36	232.56
778.69	232.52
779.01	232.46
779.33	232.33
779.66	232.17
779.98	232.10
780.31	232.03
780.63	232.00
780.95	231.94
781.28	231.91
781.60	231.87
781.92	231.77
782.25	231.73
782.57	231.68
782.89	231.63
783.22	231.58
783.54	231.52
783.86	231.44
784.19	231.35
784.51	231.36
784.83	231.24
785.16	231.18
785.48	231.11
785.80	231.08
786.12	231.06
786.45	230.99
786.77	230.95
787.09	230.90
787.42	230.84
787.74	230.80
788.06	230.75
788.38	230.69
788.71	230.67
789.03	230.59
789.35	230.53
789.67	230.48
789.99	230.43
790.32	230.37
790.64	230.34
790.96	230.39
791.28	230.29
791.61	230.29
791.93	230.26
792.25	230.23
792.57	230.24
792.89	230.18
793.21	230.15
793.54	230.07
793.86	230.00
794.18	229.97
794.50	229.93
794.82	229.89
795.14	229.85
795.47	229.81
795.79	229.82
796.11	229.75
796.43	229.75
796.75	229.68
797.07	229.64
797.39	229.63
797.71	229.54
798.04	229.52
798.36	229.48
798.68	229.44
799.00	229.40
799.32	229.31
799.64	229.30
799.96	229.26
800.28	229.24
800.60	229.25
800.92	229.25
801.24	229.23
801.56	229.20
801.89	229.18
802.21	229.17
802.53	229.12
802.85	229.15
803.17	229.16
803.49	229.17
803.81	229.17
804.13	229.16
804.45	229.10
804.77	229.09
805.09	229.06
805.41	229.03
805.73	229.01
806.05	228.96
806.37	228.89
806.69	228.87
807.01	228.85
807.33	228.80
807.65	228.75
807.97	228.76
808.28	228.72
808.60	228.68
808.92	228.66
809.24	228.69
809.56	228.62
809.88	228.58
810.20	228.55
810.52	228.53
810.84	228.44
811.16	228.42
811.48	228.37
811.80	228.40
812.12	228.34
812.43	228.35
812.75	228.33
813.07	228.30
813.39	228.25
813.71	228.21
814.03	228.20
814.35	228.16
814.67	228.08
814.98	228.07
815.30	228.06
815.62	228.02
815.94	227.93
816.26	227.95
816.58	227.89
816.89	227.89
817.21	227.84
817.53	227.85
817.85	227.85
818.17	227.81
818.48	227.73
818.80	227.73
819.12	227.68
819.44	227.67
819.76	227.63
820.07	227.63
820.39	227.63
820.71	227.62
821.03	227.62
821.34	227.60
821.66	227.58
821.98	227.57
822.30	227.55
822.61	227.60
822.93	227.53
823.25	227.53
823.57	227.48
823.88	227.47
824.20	227.45
824.52	227.46
824.83	227.48
825.15	227.48
825.47	227.50
825.79	227.47
826.10	227.46
826.42	227.48
826.74	227.48
827.05	227.48
827.37	227.48
827.69	227.47
828.00	227.46
828.32	227.45
828.64	227.41
828.95	227.46
829.27	227.42
829.58	227.41
829.90	227.43
830.22	227.42
830.53	227.41
830.85	227.39
831.17	227.33
831.48	227.28
831.80	227.27
832.11	227.22
832.43	227.20
832.75	227.20
833.06	227.24
833.38	227.20
833.69	227.21
834.01	227.20
834.32	227.18
834.64	227.15
834.96	227.14
835.27	227.16
835.59	227.10
835.90	227.10
836.22	227.08
836.53	227.04
836.85	227.00
837.16	227.10
837.48	227.11
837.79	227.16
838.11	227.20
838.42	227.20
838.74	227.22
839.05	227.24
839.37	227.22
839.68	227.17
840.00	227.15
840.31	227.14
840.63	227.12
840.94	227.07
841.26	227.07
841.57	227.06
841.88	227.06
842.20	227.03
842.51	227.01
842.83	227.02
843.14	227.10
843.46	227.14
843.77	227.07
844.08	227.03
844.40	226.98
844.71	226.96
845.03	226.96
845.34	226.95
845.65	226.92
845.97	226.92
846.28	226.92
846.60	226.90
846.91	226.86
847.22	226.83
847.54	226.87
847.85	226.86
848.16	226.85
848.48	226.82
848.79	226.85
849.10	226.86
849.42	226.85
849.73	226.78
850.04	226.77
850.36	226.72
850.67	226.76
850.98	226.75
851.30	226.74
851.61	226.71
851.92	226.72
852.23	226.74
852.55	226.71
852.86	226.70
853.17	226.73
853.49	226.73
853.80	226.78
854.11	226.75
854.42	226.76
854.74	226.77
855.05	226.77
855.36	226.71
855.67	226.69
855.99	226.70
856.30	226.79
856.61	226.73
856.92	226.73
857.23	226.70
857.55	226.66
857.86	226.64
858.17	226.64
858.48	226.61
858.79	226.60
859.11	226.58
859.42	226.57
859.73	226.53
860.04	226.52
860.35	226.48
860.66	226.46
860.98	226.46
861.29	226.44
861.60	226.43
861.91	226.44
862.22	226.40
862.53	226.38
862.84	226.27
863.16	226.30
863.47	226.25
863.78	226.22
864.09	226.24
864.40	226.28
864.71	226.29
865.02	226.29
865.33	226.28
865.64	226.27
865.95	226.24
866.27	226.32
866.58	226.30
866.89	226.31
867.20	226.32
867.51	226.31
867.82	226.30
868.13	226.33
868.44	226.29
868.75	226.29
869.06	226.31
869.37	226.32
869.68	226.26
869.99	226.29
870.30	226.32
870.61	226.32
870.92	226.28
871.23	226.23
871.54	226.22
871.85	226.23
872.16	226.28
872.47	226.27
872.78	226.17
873.09	226.21
873.40	226.19
873.71	226.17
874.02	226.16
874.33	226.12
874.64	226.09
874.95	226.11
875.26	226.13
875.56	226.11
875.87	226.08
876.18	226.13
876.49	226.25
876.80	226.22
877.11	226.21
877.42	226.22
877.73	226.26
878.04	226.29
878.35	226.31
878.66	226.28
878.96	226.30
879.27	226.32
879.58	226.31
879.89	226.33
880.20	226.35
880.51	226.35
880.82	226.38
881.12	226.42
881.43	226.42
881.74	226.39
882.05	226.39
882.36	226.41
882.67	226.41
882.97	226.28
883.28	226.30
883.59	226.33
883.90	226.36
884.21	226.37
884.51	226.33
884.82	226.30
885.13	226.30
885.44	226.29
885.74	226.30
886.05	226.31
886.36	226.29
886.67	226.29
886.98	226.37
887.28	226.38
887.59	226.36
887.90	226.38
888.20	226.38
888.51	226.40
888.82	226.39
889.13	226.37
889.43	226.47
889.74	226.48
890.05	226.47
890.35	226.48
890.66	226.49
890.97	226.49
891.28	226.47
891.58	226.48
891.89	226.49
892.20	226.49
892.50	226.45
892.81	226.45
893.12	226.40
893.42	226.33
893.73	226.33
894.04	226.36
894.34	226.34
894.65	226.31
894.95	226.24
895.26	226.24
895.57	226.31
895.87	226.21
896.18	226.19
896.48	226.18
896.79	226.13
897.10	226.11
897.40	226.10
897.71	226.11
898.01	226.12
898.32	226.14
898.63	226.10
898.93	226.11
899.24	226.14
899.54	226.14
899.85	226.12
900.15	226.10
900.46	226.05
900.76	226.08
901.07	226.09
901.38	226.12
901.68	226.11
901.99	226.05
902.29	226.07
902.60	226.06
902.90	226.05
903.21	226.04
903.51	226.03
903.82	226.04
904.12	226.07
904.43	226.07
904.73	226.04
905.03	226.09
905.34	226.19
905.64	226.16
905.95	226.18
906.25	226.17
906.56	226.14
906.86	226.15
907.17	226.13
907.47	226.15
907.77	226.16
908.08	226.18
908.38	226.15
908.69	226.12
908.99	226.14
909.30	226.18
909.60	226.17
909.90	226.17
910.21	226.16
910.51	226.08
910.81	226.04
911.12	226.03
911.42	226.01
911.73	225.89
912.03	225.90
912.33	225.90
912.64	225.95
912.94	225.94
913.24	225.95
913.55	225.95
913.85	225.95
914.15	225.98
914.46	225.97
914.76	225.99
915.06	226.00
915.37	226.02
915.67	226.02
915.97	226.06
916.27	226.05
916.58	226.06
916.88	226.11
917.18	226.14
917.49	226.22
917.79	226.22
918.09	226.26
918.39	226.27
918.70	226.29
919.00	226.28
919.30	226.37
919.60	226.38
919.91	226.38
920.21	226.41
920.51	226.37
920.81	226.39
921.12	226.41
921.42	226.42
921.72	226.39
922.02	226.38
922.32	226.37
922.63	226.37
922.93	226.42
923.23	226.42
923.53	226.41
923.83	226.37
924.13	226.37
924.44	226.36
924.74	226.40
925.04	226.43
925.34	226.43
925.64	226.38
925.94	226.37
926.24	226.39
926.55	226.34
926.85	226.37
927.15	226.38
927.45	226.39
927.75	226.36
928.05	226.39
928.35	226.36
928.65	226.37
928.95	226.36
929.26	226.33
929.56	226.34
929.86	226.34
930.16	226.29
930.46	226.32
930.76	226.35
931.06	226.30
931.36	226.25
931.66	226.26
931.96	226.23
932.26	226.24
932.56	226.24
932.86	226.24
933.16	226.24
933.46	226.23
933.76	226.22
934.06	226.24
934.36	226.20
934.66	226.22
934.96	226.20
935.26	226.22
935.56	226.21
935.86	226.18
936.16	226.18
936.46	226.20
936.76	226.14
937.06	226.09
937.36	226.06
937.66	226.07
937.96	226.03
938.26	226.01
938.56	226.00
938.86	225.97
939.16	225.97
939.46	225.97
939.76	225.94
940.06	225.91
940.35	225.89
940.65	225.84
940.95	225.82
941.25	225.82
941.55	225.78
941.85	225.78
942.15	225.82
942.45	225.86
942.75	225.82
943.04	225.79
943.34	225.80
943.64	225.79
943.94	225.79
944.24	225.80
944.54	225.83
944.84	225.79
945.13	225.76
945.43	225.76
945.73	225.77
946.03	225.72
946.33	225.70
946.62	225.70
946.92	225.71
947.22	225.71
947.52	225.71
947.82	225.76
948.11	225.74
948.41	225.72
948.71	225.69
949.01	225.71
949.31	225.74
949.60	225.76
949.90	225.80
950.20	225.76
950.50	225.76
950.79	225.78
951.09	225.83
951.39	225.85
951.69	225.86
951.98	225.86
952.28	225.92
952.58	225.95
952.87	225.95
953.17	225.99
953.47	225.98
953.76	225.99
954.06	225.97
954.36	225.94
954.66	225.92
954.95	225.93
955.25	225.96
955.55	225.97
955.84	225.96
956.14	225.96
956.44	225.97
956.73	225.97
957.03	225.97
957.32	225.94
957.62	225.90
957.92	225.89
958.21	225.88
958.51	225.95
958.81	225.95
959.10	225.97
959.40	225.99
959.69	225.99
959.99	225.99
960.29	225.98
960.58	226.00
960.88	226.05
961.17	226.03
961.47	226.06
961.76	226.05
962.06	226.05
962.36	226.04
962.65	226.07
962.95	226.07
963.24	226.05
963.54	226.05
963.83	226.07
964.13	226.07
964.42	226.07
964.72	226.01
965.01	226.00
965.31	225.99
965.60	225.96
965.90	226.04
966.19	225.99
966.49	226.01
966.78	225.99
967.08	225.98
967.37	225.96
967.67	225.92
967.96	225.93
968.26	225.90
968.55	225.90
968.85	225.87
969.14	225.87
969.43	225.84
969.73	225.86
970.02	225.87
970.32	225.88
970.61	225.86
970.91	225.82
971.20	225.80
971.49	225.80
971.79	225.80
972.08	225.71
972.38	225.76
972.67	225.73
972.96	225.71
973.26	225.69
973.55	225.73
973.85	225.69
974.14	225.70
974.43	225.73
974.73	225.73
975.02	225.69
975.31	225.69
975.61	225.70
975.90	225.70
976.19	225.69
976.49	225.68
976.78	225.68
977.07	225.69
977.37	225.70
977.66	225.69
977.95	225.70
978.24	225.70
978.54	225.70
978.83	225.70
979.12	225.71
979.42	225.71
979.71	225.70
980.00	225.71
980.29	225.71
980.59	225.69
980.88	225.69
981.17	225.71
981.46	225.73
981.76	225.72
982.05	225.71
982.34	225.72
982.63	225.72
982.93	225.72
983.22	225.74
983.51	225.76
983.80	225.78
984.09	225.76
984.39	225.78
984.68	225.78
984.97	225.81
985.26	225.80
985.55	225.81
985.85	225.79
986.14	225.82
986.43	225.83
986.72	225.84
987.01	225.82
987.30	225.84
987.59	225.81
987.89	225.83
988.18	225.81
988.47	225.76
988.76	225.78
989.05	225.80
989.34	225.81
989.63	225.82
989.92	225.77
990.22	225.80
990.51	225.79
990.80	225.74
991.09	225.74
991.38	225.75
991.67	225.75
991.96	225.75
992.25	225.74
992.54	225.71
992.83	225.71
993.12	225.71
993.41	225.74
993.70	225.78
993.99	225.78
994.28	225.79
994.58	225.84
994.87	225.79
995.16	225.77
995.45	225.73
995.74	225.70
996.03	225.75
996.32	225.73
996.61	225.74
996.90	225.77
997.19	225.76
997.48	225.77
997.77	225.72
998.06	225.73
998.34	225.75
998.63	225.75
998.92	225.71
999.21	225.75
999.50	225.74
999.79	225.68
1000.08	225.68
1000.37	225.66
1000.66	225.66
1000.95	225.68
1001.24	225.70
1001.53	225.70
1001.82	225.74
1002.11	225.71
1002.40	225.72
1002.68	225.77
1002.97	225.82
1003.26	225.79
1003.55	225.79
1003.84	225.84
1004.13	225.86
1004.42	225.82
1004.71	225.83
1004.99	225.84
1005.28	225.82
1005.57	225.80
1005.86	225.81
1006.15	225.82
1006.44	225.81
1006.72	225.83
1007.01	225.83
1007.30	225.81
1007.59	225.82
1007.88	225.78
1008.17	225.75
1008.45	225.73
1008.74	225.68
1009.03	225.64
1009.32	225.66
1009.60	225.69
1009.89	225.67
1010.18	225.63
1010.47	225.64
1010.76	225.63
1011.04	225.63
1011.33	225.64
1011.62	225.65
1011.91	225.66
1012.19	225.68
1012.48	225.71
1012.77	225.69
1013.05	225.75
1013.34	225.76
1013.63	225.75
1013.92	225.77
1014.20	225.80
1014.49	225.79
1014.78	225.80
1015.06	225.78
1015.35	225.78
1015.64	225.75
1015.92	225.72
1016.21	225.71
1016.50	225.74
1016.78	225.78
1017.07	225.77
1017.36	225.76
1017.64	225.75
1017.93	225.78
1018.22	225.77
1018.50	225.75
1018.79	225.77
1019.08	225.71
1019.36	225.73
1019.65	225.72
1019.93	225.79
1020.22	225.79
1020.51	225.88
1020.79	225.87
1021.08	225.96
1021.36	225.44
1021.65	226.18
1021.94	225.55
1022.22	226.20
1022.51	225.82
1022.79	226.86
1023.08	225.92
1023.36	227.00
1023.65	225.69
>>>>>End Processed Spectral Data<<<<<
