SpectraSuite Data File
++++++++++++++++++++++++++++++++++++
Date: Fri Feb 01 15:17:07 EST 2013
User: group
Dark Spectrum Present: No
Reference Spectrum Present: No
Number of Sampled Component Spectra: 1
Spectrometers: USB2E7196
Integration Time (usec): 35000 (USB2E7196)
Spectra Averaged: 100 (USB2E7196)
Boxcar Smoothing: 10 (USB2E7196)
Correct for Electrical Dark: No (USB2E7196)
Strobe/Lamp Enabled: No (USB2E7196)
Correct for Detector Non-linearity: No (USB2E7196)
Correct for Stray Light: No (USB2E7196)
Number of Pixels in Processed Spectrum: 2048
>>>>>Begin Processed Spectral Data<<<<<
339.09	0.00
339.48	214.84
339.86	216.80
340.24	217.63
340.63	219.50
341.01	222.18
341.39	222.29
341.78	223.17
342.16	225.10
342.54	225.23
342.93	213.39
343.31	224.20
343.69	224.75
344.07	225.20
344.46	225.64
344.84	226.02
345.22	226.25
345.60	226.51
345.99	226.70
346.37	226.81
346.75	226.89
347.13	226.97
347.52	226.99
347.90	227.04
348.28	227.06
348.66	227.09
349.05	227.11
349.43	227.17
349.81	227.24
350.19	227.30
350.57	227.37
350.96	227.45
351.34	227.50
351.72	227.56
352.10	227.65
352.48	227.70
352.87	227.75
353.25	227.81
353.63	227.84
354.01	227.91
354.39	227.97
354.77	228.05
355.15	228.16
355.54	228.20
355.92	228.25
356.30	228.33
356.68	228.43
357.06	228.50
357.44	228.53
357.82	228.55
358.20	228.63
358.58	228.68
358.97	228.73
359.35	228.84
359.73	228.91
360.11	228.97
360.49	229.02
360.87	229.04
361.25	229.13
361.63	229.17
362.01	229.21
362.39	229.24
362.77	229.28
363.15	229.30
363.53	229.40
363.91	229.41
364.29	229.41
364.67	229.37
365.05	229.41
365.43	229.45
365.81	229.48
366.19	229.49
366.57	229.53
366.95	229.54
367.33	229.49
367.71	229.47
368.09	229.47
368.47	229.45
368.85	229.45
369.23	229.42
369.61	229.37
369.99	229.36
370.37	229.36
370.75	229.35
371.13	229.29
371.51	229.23
371.89	229.18
372.27	229.17
372.65	229.10
373.03	229.02
373.41	228.94
373.78	228.91
374.16	228.81
374.54	228.72
374.92	228.64
375.30	228.61
375.68	228.54
376.06	228.45
376.44	228.42
376.82	228.37
377.19	228.28
377.57	228.25
377.95	228.18
378.33	228.07
378.71	227.95
379.09	227.88
379.47	227.82
379.84	227.75
380.22	227.65
380.60	227.59
380.98	227.53
381.36	227.44
381.73	227.34
382.11	227.32
382.49	227.25
382.87	227.18
383.25	227.07
383.62	227.14
384.00	227.10
384.38	227.02
384.76	226.98
385.13	226.99
385.51	226.90
385.89	226.80
386.27	226.78
386.64	226.77
387.02	226.74
387.40	226.69
387.78	226.66
388.15	226.63
388.53	226.59
388.91	226.57
389.29	226.55
389.66	226.57
390.04	226.51
390.42	226.53
390.79	226.53
391.17	226.54
391.55	226.39
391.92	226.39
392.30	226.41
392.68	226.37
393.05	226.35
393.43	226.40
393.81	226.43
394.18	226.46
394.56	226.48
394.94	226.54
395.31	226.54
395.69	226.60
396.06	226.62
396.44	226.68
396.82	226.72
397.19	226.83
397.57	226.87
397.95	226.96
398.32	226.95
398.70	226.99
399.07	227.06
399.45	227.18
399.82	227.24
400.20	227.30
400.58	227.40
400.95	227.44
401.33	227.52
401.70	227.68
402.08	227.74
402.45	227.83
402.83	227.94
403.20	228.08
403.58	228.17
403.95	228.29
404.33	228.45
404.71	228.60
405.08	228.80
405.46	228.91
405.83	229.05
406.21	229.24
406.58	229.39
406.96	229.57
407.33	229.75
407.70	229.96
408.08	230.23
408.45	230.43
408.83	230.68
409.20	230.89
409.58	231.06
409.95	231.35
410.33	231.62
410.70	231.88
411.08	232.19
411.45	232.50
411.82	232.83
412.20	233.17
412.57	233.54
412.95	233.81
413.32	234.25
413.69	234.64
414.07	235.11
414.44	235.60
414.82	236.04
415.19	236.59
415.56	237.09
415.94	237.66
416.31	238.33
416.68	238.95
417.06	239.68
417.43	240.36
417.81	241.13
418.18	241.89
418.55	242.72
418.93	243.55
419.30	244.46
419.67	245.40
420.04	246.34
420.42	247.34
420.79	248.50
421.16	249.60
421.54	250.81
421.91	252.00
422.28	253.28
422.66	254.62
423.03	255.89
423.40	257.25
423.77	258.64
424.15	260.03
424.52	261.53
424.89	263.11
425.26	264.67
425.64	266.10
426.01	267.69
426.38	269.31
426.75	271.04
427.13	272.77
427.50	274.55
427.87	276.45
428.24	278.30
428.61	280.05
428.99	282.02
429.36	284.11
429.73	286.20
430.10	288.21
430.47	290.30
430.85	292.46
431.22	294.72
431.59	297.11
431.96	299.36
432.33	301.88
432.70	304.29
433.08	307.09
433.45	309.75
433.82	312.38
434.19	315.32
434.56	318.10
434.93	320.77
435.30	323.39
435.68	326.32
436.05	329.18
436.42	332.00
436.79	334.52
437.16	337.21
437.53	339.99
437.90	342.79
438.27	345.55
438.64	348.42
439.01	350.99
439.38	353.24
439.75	355.41
440.13	357.89
440.50	360.22
440.87	362.09
441.24	364.03
441.61	366.16
441.98	367.65
442.35	369.47
442.72	371.32
443.09	373.13
443.46	374.12
443.83	374.71
444.20	375.19
444.57	376.06
444.94	376.39
445.31	376.73
445.68	377.11
446.05	377.15
446.42	376.72
446.79	376.28
447.16	375.81
447.53	375.54
447.90	374.40
448.27	373.24
448.64	371.65
449.01	370.53
449.37	368.61
449.74	366.71
450.11	364.49
450.48	362.07
450.85	359.53
451.22	357.36
451.59	355.37
451.96	353.44
452.33	350.81
452.70	348.42
453.07	345.65
453.43	342.68
453.80	339.92
454.17	337.21
454.54	334.69
454.91	332.01
455.28	329.29
455.65	326.77
456.02	324.35
456.38	322.20
456.75	319.52
457.12	317.26
457.49	314.99
457.86	312.78
458.23	310.90
458.59	308.82
458.96	306.71
459.33	304.83
459.70	302.95
460.07	301.44
460.43	299.71
460.80	298.06
461.17	296.66
461.54	295.19
461.91	293.78
462.27	292.32
462.64	291.01
463.01	289.66
463.38	288.34
463.74	286.95
464.11	285.78
464.48	284.73
464.85	283.60
465.21	282.71
465.58	281.78
465.95	280.67
466.32	279.74
466.68	278.82
467.05	277.94
467.42	277.05
467.78	276.13
468.15	275.25
468.52	274.57
468.88	273.71
469.25	272.91
469.62	272.28
469.98	271.62
470.35	271.01
470.72	270.36
471.08	269.72
471.45	269.14
471.82	268.59
472.18	267.99
472.55	267.53
472.92	267.02
473.28	266.56
473.65	266.05
474.02	265.63
474.38	265.27
474.75	264.87
475.11	264.48
475.48	264.17
475.85	263.97
476.21	263.73
476.58	263.54
476.94	263.38
477.31	263.21
477.67	263.07
478.04	262.95
478.41	262.88
478.77	262.90
479.14	262.84
479.50	262.85
479.87	262.90
480.23	262.99
480.60	263.07
480.96	263.14
481.33	263.35
481.69	263.54
482.06	263.71
482.42	263.95
482.79	264.26
483.15	264.58
483.52	264.97
483.88	265.29
484.25	265.68
484.61	266.12
484.98	266.57
485.34	267.08
485.71	267.66
486.07	268.31
486.44	268.88
486.80	269.59
487.17	270.33
487.53	271.15
487.90	271.97
488.26	272.93
488.62	273.93
488.99	274.93
489.35	275.93
489.72	277.09
490.08	278.28
490.44	279.51
490.81	280.85
491.17	282.16
491.54	283.66
491.90	285.21
492.26	286.85
492.63	288.57
492.99	290.36
493.36	292.23
493.72	294.25
494.08	296.36
494.45	298.64
494.81	300.95
495.17	303.40
495.54	306.00
495.90	308.68
496.26	311.50
496.63	314.46
496.99	317.63
497.35	320.89
497.72	324.31
498.08	327.81
498.44	331.46
498.80	335.38
499.17	339.42
499.53	343.60
499.89	347.96
500.26	352.46
500.62	357.16
500.98	362.18
501.34	367.31
501.71	372.66
502.07	378.09
502.43	383.74
502.79	389.56
503.16	395.65
503.52	401.91
503.88	408.30
504.24	414.98
504.60	421.84
504.97	429.01
505.33	436.34
505.69	444.04
506.05	451.83
506.41	459.77
506.78	467.89
507.14	476.31
507.50	485.03
507.86	494.07
508.22	503.22
508.59	512.31
508.95	521.81
509.31	531.60
509.67	541.65
510.03	551.96
510.39	562.45
510.75	573.22
511.12	584.13
511.48	595.43
511.84	606.83
512.20	618.38
512.56	630.26
512.92	642.45
513.28	654.77
513.64	667.21
514.00	679.86
514.37	692.75
514.73	705.76
515.09	718.83
515.45	732.03
515.81	745.63
516.17	759.65
516.53	773.79
516.89	787.95
517.25	802.20
517.61	816.69
517.97	831.26
518.33	845.80
518.69	860.64
519.05	875.70
519.41	890.89
519.77	906.46
520.13	922.01
520.49	937.43
520.85	952.95
521.21	968.86
521.57	985.08
521.93	1001.03
522.29	1017.49
522.65	1033.67
523.01	1050.08
523.37	1066.22
523.73	1082.45
524.09	1098.59
524.45	1114.94
524.81	1131.67
525.17	1148.48
525.53	1165.39
525.89	1182.21
526.25	1199.01
526.61	1215.48
526.97	1232.22
527.33	1248.66
527.68	1265.31
528.04	1281.82
528.40	1298.55
528.76	1315.60
529.12	1332.32
529.48	1349.10
529.84	1365.31
530.20	1382.10
530.56	1399.13
530.91	1416.53
531.27	1433.32
531.63	1449.99
531.99	1466.66
532.35	1482.69
532.71	1498.54
533.07	1514.87
533.42	1530.73
533.78	1546.88
534.14	1563.17
534.50	1578.49
534.86	1594.54
535.21	1609.68
535.57	1625.82
535.93	1641.37
536.29	1656.20
536.65	1671.45
537.00	1686.41
537.36	1701.76
537.72	1716.39
538.08	1730.93
538.44	1744.72
538.79	1758.76
539.15	1772.52
539.51	1786.38
539.87	1800.82
540.22	1814.79
540.58	1828.57
540.94	1842.20
541.29	1855.12
541.65	1867.89
542.01	1881.36
542.37	1893.64
542.72	1906.21
543.08	1917.99
543.44	1930.56
543.79	1941.78
544.15	1952.77
544.51	1964.33
544.87	1975.35
545.22	1986.23
545.58	1996.39
545.94	2006.32
546.29	2016.19
546.65	2025.92
547.01	2035.15
547.36	2043.85
547.72	2052.45
548.07	2060.30
548.43	2068.44
548.79	2076.58
549.14	2084.15
549.50	2091.56
549.86	2099.46
550.21	2106.79
550.57	2113.97
550.92	2120.50
551.28	2127.65
551.64	2134.72
551.99	2141.44
552.35	2147.58
552.70	2153.67
553.06	2159.54
553.41	2165.82
553.77	2171.94
554.13	2178.11
554.48	2184.19
554.84	2189.69
555.19	2194.87
555.55	2200.01
555.90	2204.46
556.26	2209.31
556.61	2214.00
556.97	2218.24
557.32	2222.34
557.68	2226.42
558.03	2230.74
558.39	2234.44
558.74	2238.95
559.10	2242.73
559.45	2246.29
559.81	2250.55
560.16	2254.38
560.52	2257.76
560.87	2261.14
561.23	2263.68
561.58	2266.49
561.94	2269.11
562.29	2271.40
562.64	2274.03
563.00	2276.70
563.35	2280.21
563.71	2283.26
564.06	2286.39
564.42	2289.19
564.77	2291.67
565.12	2293.96
565.48	2295.68
565.83	2297.46
566.19	2298.80
566.54	2299.71
566.89	2300.76
567.25	2301.22
567.60	2302.59
567.96	2304.11
568.31	2304.97
568.66	2305.99
569.02	2306.53
569.37	2306.68
569.72	2307.41
570.08	2307.46
570.43	2307.43
570.78	2306.68
571.14	2305.14
571.49	2303.70
571.84	2303.26
572.20	2301.84
572.55	2300.60
572.90	2299.02
573.26	2297.49
573.61	2295.64
573.96	2293.73
574.31	2290.56
574.67	2287.48
575.02	2283.67
575.37	2280.28
575.72	2276.32
576.08	2272.99
576.43	2269.72
576.78	2266.04
577.13	2262.71
577.49	2259.75
577.84	2256.03
578.19	2252.23
578.54	2248.43
578.90	2244.14
579.25	2238.53
579.60	2233.47
579.95	2228.46
580.30	2223.29
580.66	2218.02
581.01	2213.05
581.36	2208.18
581.71	2204.05
582.06	2199.60
582.42	2195.03
582.77	2189.63
583.12	2184.94
583.47	2180.06
583.82	2174.75
584.17	2169.40
584.53	2163.84
584.88	2157.74
585.23	2151.97
585.58	2146.49
585.93	2140.99
586.28	2136.25
586.63	2131.01
586.98	2125.94
587.34	2121.25
587.69	2116.34
588.04	2110.94
588.39	2105.29
588.74	2098.70
589.09	2092.38
589.44	2085.50
589.79	2079.49
590.14	2073.91
590.49	2067.32
590.84	2060.79
591.19	2054.84
591.54	2048.35
591.89	2040.88
592.25	2034.16
592.60	2026.85
592.95	2019.21
593.30	2011.90
593.65	2004.11
594.00	1997.11
594.35	1989.78
594.70	1981.58
595.05	1974.11
595.40	1966.83
595.75	1959.18
596.10	1952.88
596.45	1946.03
596.80	1939.71
597.15	1932.79
597.50	1925.48
597.85	1919.05
598.19	1912.46
598.54	1905.28
598.89	1898.51
599.24	1892.64
599.59	1885.85
599.94	1879.58
600.29	1873.08
600.64	1866.29
600.99	1858.78
601.34	1851.80
601.69	1844.83
602.04	1837.84
602.39	1830.57
602.74	1823.72
603.08	1816.93
603.43	1810.17
603.78	1802.97
604.13	1795.87
604.48	1788.60
604.83	1781.82
605.18	1774.73
605.53	1766.54
605.87	1758.51
606.22	1751.27
606.57	1743.34
606.92	1736.00
607.27	1728.89
607.62	1722.02
607.96	1714.73
608.31	1708.08
608.66	1700.44
609.01	1692.83
609.36	1685.26
609.70	1677.33
610.05	1669.23
610.40	1661.48
610.75	1653.00
611.10	1645.27
611.44	1636.83
611.79	1628.83
612.14	1620.14
612.49	1611.05
612.83	1602.79
613.18	1594.72
613.53	1586.53
613.88	1577.94
614.22	1569.65
614.57	1561.03
614.92	1552.86
615.27	1545.37
615.61	1537.06
615.96	1529.14
616.31	1521.65
616.65	1514.37
617.00	1506.72
617.35	1499.03
617.70	1490.60
618.04	1482.15
618.39	1473.84
618.74	1466.10
619.08	1457.90
619.43	1450.37
619.78	1443.41
620.12	1436.35
620.47	1428.73
620.82	1420.71
621.16	1413.40
621.51	1405.90
621.85	1398.33
622.20	1389.88
622.55	1381.57
622.89	1373.81
623.24	1366.21
623.59	1358.76
623.93	1351.26
624.28	1344.12
624.62	1336.60
624.97	1329.55
625.32	1322.85
625.66	1315.89
626.01	1308.74
626.35	1301.24
626.70	1293.51
627.04	1285.80
627.39	1277.88
627.73	1270.52
628.08	1263.52
628.43	1256.10
628.77	1248.66
629.12	1241.02
629.46	1233.91
629.81	1226.40
630.15	1219.19
630.50	1211.73
630.84	1203.53
631.19	1195.61
631.53	1188.11
631.88	1180.57
632.22	1172.94
632.57	1165.62
632.91	1158.19
633.26	1150.85
633.60	1143.68
633.95	1136.53
634.29	1129.51
634.64	1122.92
634.98	1115.52
635.32	1108.45
635.67	1101.98
636.01	1095.31
636.36	1088.52
636.70	1082.01
637.05	1075.52
637.39	1069.02
637.73	1062.45
638.08	1056.61
638.42	1050.67
638.77	1044.11
639.11	1037.52
639.45	1031.26
639.80	1024.60
640.14	1018.04
640.49	1011.51
640.83	1005.02
641.17	998.87
641.52	992.51
641.86	986.09
642.20	980.33
642.55	974.09
642.89	967.49
643.23	960.96
643.58	955.24
643.92	949.01
644.26	942.85
644.61	936.92
644.95	930.97
645.29	924.37
645.64	917.60
645.98	911.27
646.32	905.46
646.66	899.31
647.01	893.51
647.35	887.90
647.69	882.12
648.04	876.70
648.38	870.82
648.72	864.85
649.06	858.70
649.41	852.79
649.75	846.69
650.09	840.77
650.43	835.03
650.78	828.82
651.12	822.91
651.46	817.26
651.80	811.43
652.14	805.99
652.49	800.61
652.83	795.34
653.17	789.65
653.51	783.96
653.85	778.62
654.20	773.06
654.54	766.99
654.88	761.22
655.22	755.34
655.56	749.65
655.90	744.24
656.25	739.00
656.59	733.67
656.93	728.60
657.27	723.49
657.61	718.06
657.95	712.99
658.29	707.97
658.64	702.76
658.98	697.49
659.32	692.04
659.66	686.82
660.00	681.56
660.34	676.71
660.68	671.82
661.02	666.81
661.36	662.06
661.70	657.63
662.05	653.31
662.39	649.03
662.73	644.64
663.07	640.29
663.41	635.89
663.75	631.37
664.09	626.88
664.43	622.57
664.77	618.48
665.11	614.23
665.45	610.03
665.79	605.90
666.13	601.78
666.47	597.73
666.81	593.62
667.15	589.53
667.49	585.65
667.83	581.86
668.17	577.87
668.51	573.83
668.85	569.76
669.19	565.88
669.53	561.99
669.87	558.11
670.21	554.47
670.55	550.86
670.89	547.48
671.23	544.07
671.57	540.51
671.91	537.03
672.25	533.56
672.58	530.09
672.92	526.72
673.26	523.57
673.60	520.44
673.94	517.29
674.28	514.39
674.62	511.40
674.96	508.26
675.30	505.38
675.64	502.49
675.97	499.83
676.31	496.99
676.65	494.06
676.99	491.35
677.33	488.37
677.67	485.54
678.01	482.47
678.34	479.43
678.68	476.57
679.02	473.74
679.36	471.01
679.70	468.26
680.04	465.48
680.37	462.59
680.71	459.85
681.05	457.31
681.39	454.53
681.73	451.92
682.06	449.40
682.40	446.89
682.74	444.33
683.08	441.70
683.42	439.04
683.75	436.56
684.09	434.06
684.43	431.64
684.77	429.15
685.10	426.86
685.44	424.60
685.78	422.32
686.12	420.09
686.45	417.82
686.79	415.55
687.13	413.39
687.46	411.27
687.80	409.11
688.14	406.87
688.48	404.84
688.81	402.57
689.15	400.43
689.49	398.35
689.82	396.25
690.16	394.17
690.50	392.28
690.83	390.29
691.17	388.26
691.51	386.39
691.84	384.60
692.18	382.70
692.52	380.75
692.85	378.84
693.19	376.94
693.52	375.10
693.86	373.32
694.20	371.57
694.53	369.74
694.87	367.91
695.21	366.17
695.54	364.39
695.88	362.73
696.21	361.06
696.55	359.33
696.88	357.68
697.22	356.10
697.56	354.53
697.89	352.91
698.23	351.33
698.56	349.75
698.90	348.15
699.23	346.44
699.57	344.89
699.90	343.41
700.24	341.89
700.58	340.38
700.91	338.85
701.25	337.43
701.58	336.07
701.92	334.70
702.25	333.35
702.59	332.00
702.92	330.65
703.26	329.34
703.59	328.07
703.93	326.87
704.26	325.58
704.60	324.27
704.93	323.03
705.26	321.78
705.60	320.62
705.93	319.47
706.27	318.48
706.60	317.41
706.94	316.29
707.27	315.14
707.61	314.09
707.94	313.11
708.27	311.98
708.61	310.93
708.94	309.93
709.28	308.92
709.61	307.97
709.94	307.05
710.28	306.03
710.61	305.07
710.95	304.03
711.28	303.16
711.61	302.19
711.95	301.25
712.28	300.31
712.61	299.30
712.95	298.34
713.28	297.48
713.61	296.62
713.95	295.73
714.28	294.91
714.61	294.01
714.95	293.15
715.28	292.30
715.61	291.38
715.95	290.54
716.28	289.69
716.61	288.84
716.95	288.02
717.28	287.29
717.61	286.48
717.94	285.75
718.28	284.90
718.61	284.18
718.94	283.50
719.27	282.86
719.61	282.21
719.94	281.59
720.27	280.82
720.60	280.13
720.94	279.50
721.27	278.91
721.60	278.35
721.93	277.75
722.27	277.22
722.60	276.69
722.93	276.12
723.26	275.55
723.59	274.99
723.93	274.43
724.26	273.86
724.59	273.32
724.92	272.82
725.25	272.35
725.59	271.87
725.92	271.34
726.25	270.80
726.58	270.30
726.91	269.80
727.24	269.34
727.57	268.89
727.91	268.38
728.24	267.91
728.57	267.44
728.90	266.98
729.23	266.48
729.56	266.05
729.89	265.59
730.22	265.13
730.55	264.66
730.89	264.21
731.22	263.73
731.55	263.30
731.88	262.86
732.21	262.41
732.54	261.93
732.87	261.51
733.20	261.12
733.53	260.70
733.86	260.33
734.19	259.97
734.52	259.55
734.85	259.25
735.18	258.82
735.51	258.46
735.84	258.10
736.17	257.81
736.50	257.41
736.83	257.20
737.16	256.90
737.49	256.56
737.82	256.24
738.15	255.97
738.48	255.60
738.81	255.25
739.14	254.94
739.47	254.69
739.80	254.41
740.13	254.16
740.46	253.87
740.79	253.54
741.12	253.20
741.45	252.93
741.78	252.56
742.11	252.25
742.44	251.91
742.77	251.64
743.10	251.33
743.43	251.03
743.75	250.58
744.08	250.40
744.41	250.15
744.74	249.86
745.07	249.58
745.40	249.38
745.73	249.16
746.06	248.92
746.39	248.61
746.71	248.30
747.04	248.01
747.37	247.74
747.70	247.47
748.03	247.22
748.36	246.99
748.68	246.74
749.01	246.50
749.34	246.29
749.67	246.01
750.00	245.74
750.33	245.61
750.65	245.42
750.98	245.06
751.31	244.82
751.64	244.63
751.97	244.38
752.29	244.15
752.62	243.91
752.95	243.66
753.28	243.47
753.60	243.26
753.93	243.10
754.26	242.94
754.59	242.70
754.91	242.49
755.24	242.29
755.57	242.13
755.90	241.95
756.22	241.72
756.55	241.55
756.88	241.33
757.20	241.08
757.53	240.82
757.86	240.67
758.19	240.49
758.51	240.30
758.84	240.12
759.17	239.94
759.49	239.76
759.82	239.65
760.15	239.49
760.47	239.37
760.80	239.16
761.13	238.97
761.45	238.82
761.78	238.67
762.11	238.50
762.43	238.35
762.76	238.22
763.08	238.08
763.41	237.94
763.74	237.82
764.06	237.67
764.39	237.60
764.71	237.45
765.04	237.28
765.37	237.14
765.69	237.01
766.02	236.88
766.34	236.76
766.67	236.60
767.00	236.53
767.32	236.45
767.65	236.38
767.97	236.29
768.30	236.20
768.62	236.09
768.95	235.98
769.27	235.88
769.60	235.77
769.92	235.67
770.25	235.54
770.57	235.42
770.90	235.36
771.22	235.29
771.55	235.23
771.87	235.16
772.20	235.09
772.52	235.13
772.85	235.14
773.17	235.05
773.50	234.94
773.82	234.82
774.15	234.67
774.47	234.51
774.80	234.44
775.12	234.37
775.45	234.29
775.77	234.21
776.09	234.13
776.42	234.05
776.74	234.02
777.07	233.99
777.39	233.93
777.72	233.82
778.04	233.74
778.36	233.66
778.69	233.62
779.01	233.57
779.33	233.40
779.66	233.24
779.98	233.17
780.31	233.12
780.63	233.07
780.95	233.04
781.28	233.00
781.60	232.92
781.92	232.83
782.25	232.79
782.57	232.76
782.89	232.71
783.22	232.67
783.54	232.57
783.86	232.52
784.19	232.48
784.51	232.46
784.83	232.37
785.16	232.30
785.48	232.27
785.80	232.22
786.12	232.18
786.45	232.12
786.77	232.09
787.09	232.03
787.42	232.01
787.74	231.95
788.06	231.92
788.38	231.87
788.71	231.86
789.03	231.83
789.35	231.79
789.67	231.73
789.99	231.68
790.32	231.64
790.64	231.59
790.96	231.62
791.28	231.57
791.61	231.55
791.93	231.52
792.25	231.42
792.57	231.46
792.89	231.41
793.21	231.39
793.54	231.33
793.86	231.29
794.18	231.23
794.50	231.16
794.82	231.12
795.14	231.10
795.47	231.05
795.79	231.02
796.11	230.96
796.43	230.90
796.75	230.88
797.07	230.85
797.39	230.81
797.71	230.70
798.04	230.63
798.36	230.59
798.68	230.54
799.00	230.52
799.32	230.40
799.64	230.37
799.96	230.32
800.28	230.34
800.60	230.29
800.92	230.26
801.24	230.23
801.56	230.20
801.89	230.13
802.21	230.12
802.53	230.04
802.85	230.02
803.17	230.05
803.49	229.98
803.81	229.95
804.13	229.91
804.45	229.85
804.77	229.84
805.09	229.79
805.41	229.75
805.73	229.72
806.05	229.66
806.37	229.61
806.69	229.57
807.01	229.47
807.33	229.47
807.65	229.41
807.97	229.41
808.28	229.36
808.60	229.35
808.92	229.30
809.24	229.36
809.56	229.32
809.88	229.27
810.20	229.27
810.52	229.25
810.84	229.19
811.16	229.18
811.48	229.16
811.80	229.19
812.12	229.21
812.43	229.17
812.75	229.17
813.07	229.15
813.39	229.15
813.71	229.14
814.03	229.11
814.35	229.09
814.67	229.07
814.98	229.04
815.30	229.01
815.62	229.00
815.94	228.92
816.26	228.92
816.58	228.85
816.89	228.84
817.21	228.79
817.53	228.81
817.85	228.79
818.17	228.76
818.48	228.69
818.80	228.65
819.12	228.66
819.44	228.59
819.76	228.59
820.07	228.58
820.39	228.58
820.71	228.56
821.03	228.55
821.34	228.50
821.66	228.51
821.98	228.52
822.30	228.45
822.61	228.47
822.93	228.43
823.25	228.42
823.57	228.38
823.88	228.41
824.20	228.37
824.52	228.37
824.83	228.37
825.15	228.35
825.47	228.35
825.79	228.35
826.10	228.38
826.42	228.38
826.74	228.40
827.05	228.37
827.37	228.34
827.69	228.32
828.00	228.35
828.32	228.35
828.64	228.32
828.95	228.40
829.27	228.38
829.58	228.36
829.90	228.41
830.22	228.42
830.53	228.40
830.85	228.41
831.17	228.41
831.48	228.37
831.80	228.41
832.11	228.42
832.43	228.38
832.75	228.38
833.06	228.42
833.38	228.37
833.69	228.37
834.01	228.39
834.32	228.38
834.64	228.37
834.96	228.35
835.27	228.36
835.59	228.33
835.90	228.29
836.22	228.27
836.53	228.21
836.85	228.19
837.16	228.27
837.48	228.25
837.79	228.26
838.11	228.27
838.42	228.23
838.74	228.24
839.05	228.23
839.37	228.22
839.68	228.16
840.00	228.15
840.31	228.16
840.63	228.16
840.94	228.17
841.26	228.16
841.57	228.16
841.88	228.15
842.20	228.10
842.51	228.07
842.83	228.12
843.14	228.22
843.46	228.23
843.77	228.15
844.08	228.13
844.40	228.11
844.71	228.09
845.03	228.09
845.34	228.05
845.65	228.05
845.97	228.03
846.28	228.01
846.60	228.01
846.91	228.01
847.22	227.97
847.54	227.97
847.85	227.95
848.16	227.93
848.48	227.94
848.79	227.98
849.10	228.00
849.42	227.96
849.73	227.88
850.04	227.86
850.36	227.82
850.67	227.86
850.98	227.87
851.30	227.90
851.61	227.84
851.92	227.82
852.23	227.82
852.55	227.81
852.86	227.80
853.17	227.79
853.49	227.75
853.80	227.77
854.11	227.80
854.42	227.81
854.74	227.82
855.05	227.79
855.36	227.75
855.67	227.75
855.99	227.74
856.30	227.83
856.61	227.81
856.92	227.80
857.23	227.76
857.55	227.72
857.86	227.69
858.17	227.73
858.48	227.71
858.79	227.69
859.11	227.71
859.42	227.69
859.73	227.65
860.04	227.65
860.35	227.62
860.66	227.55
860.98	227.52
861.29	227.52
861.60	227.47
861.91	227.49
862.22	227.47
862.53	227.47
862.84	227.35
863.16	227.41
863.47	227.39
863.78	227.44
864.09	227.45
864.40	227.44
864.71	227.42
865.02	227.43
865.33	227.41
865.64	227.39
865.95	227.42
866.27	227.48
866.58	227.50
866.89	227.50
867.20	227.54
867.51	227.54
867.82	227.51
868.13	227.58
868.44	227.56
868.75	227.58
869.06	227.58
869.37	227.59
869.68	227.54
869.99	227.54
870.30	227.50
870.61	227.51
870.92	227.54
871.23	227.52
871.54	227.52
871.85	227.56
872.16	227.57
872.47	227.56
872.78	227.52
873.09	227.51
873.40	227.50
873.71	227.48
874.02	227.51
874.33	227.53
874.64	227.49
874.95	227.51
875.26	227.51
875.56	227.53
875.87	227.54
876.18	227.55
876.49	227.69
876.80	227.70
877.11	227.67
877.42	227.66
877.73	227.69
878.04	227.71
878.35	227.71
878.66	227.70
878.96	227.70
879.27	227.72
879.58	227.72
879.89	227.74
880.20	227.77
880.51	227.75
880.82	227.73
881.12	227.75
881.43	227.74
881.74	227.74
882.05	227.72
882.36	227.68
882.67	227.69
882.97	227.59
883.28	227.61
883.59	227.61
883.90	227.63
884.21	227.63
884.51	227.62
884.82	227.61
885.13	227.62
885.44	227.62
885.74	227.59
886.05	227.60
886.36	227.56
886.67	227.51
886.98	227.57
887.28	227.61
887.59	227.59
887.90	227.60
888.20	227.60
888.51	227.62
888.82	227.63
889.13	227.63
889.43	227.69
889.74	227.65
890.05	227.64
890.35	227.61
890.66	227.57
890.97	227.55
891.28	227.54
891.58	227.52
891.89	227.54
892.20	227.52
892.50	227.49
892.81	227.49
893.12	227.50
893.42	227.41
893.73	227.41
894.04	227.38
894.34	227.33
894.65	227.31
894.95	227.30
895.26	227.29
895.57	227.34
895.87	227.24
896.18	227.26
896.48	227.26
896.79	227.26
897.10	227.25
897.40	227.28
897.71	227.27
898.01	227.25
898.32	227.24
898.63	227.24
898.93	227.25
899.24	227.26
899.54	227.27
899.85	227.29
900.15	227.24
900.46	227.25
900.76	227.30
901.07	227.28
901.38	227.27
901.68	227.29
901.99	227.23
902.29	227.26
902.60	227.23
902.90	227.23
903.21	227.21
903.51	227.22
903.82	227.23
904.12	227.22
904.43	227.24
904.73	227.22
905.03	227.22
905.34	227.30
905.64	227.29
905.95	227.27
906.25	227.26
906.56	227.28
906.86	227.28
907.17	227.28
907.47	227.27
907.77	227.27
908.08	227.23
908.38	227.25
908.69	227.23
908.99	227.30
909.30	227.29
909.60	227.32
909.90	227.35
910.21	227.32
910.51	227.32
910.81	227.32
911.12	227.33
911.42	227.33
911.73	227.25
912.03	227.25
912.33	227.26
912.64	227.23
912.94	227.23
913.24	227.19
913.55	227.16
913.85	227.16
914.15	227.17
914.46	227.17
914.76	227.14
915.06	227.13
915.37	227.09
915.67	227.07
915.97	227.06
916.27	227.02
916.58	227.03
916.88	227.03
917.18	227.02
917.49	227.08
917.79	227.08
918.09	227.08
918.39	227.10
918.70	227.09
919.00	227.10
919.30	227.12
919.60	227.16
919.91	227.13
920.21	227.13
920.51	227.11
920.81	227.13
921.12	227.14
921.42	227.13
921.72	227.14
922.02	227.17
922.32	227.17
922.63	227.19
922.93	227.23
923.23	227.22
923.53	227.21
923.83	227.14
924.13	227.15
924.44	227.13
924.74	227.15
925.04	227.17
925.34	227.19
925.64	227.14
925.94	227.11
926.24	227.18
926.55	227.18
926.85	227.20
927.15	227.18
927.45	227.20
927.75	227.20
928.05	227.19
928.35	227.17
928.65	227.19
928.95	227.16
929.26	227.13
929.56	227.16
929.86	227.19
930.16	227.18
930.46	227.20
930.76	227.20
931.06	227.16
931.36	227.13
931.66	227.18
931.96	227.24
932.26	227.26
932.56	227.22
932.86	227.25
933.16	227.24
933.46	227.23
933.76	227.21
934.06	227.24
934.36	227.24
934.66	227.25
934.96	227.21
935.26	227.24
935.56	227.26
935.86	227.23
936.16	227.21
936.46	227.21
936.76	227.21
937.06	227.19
937.36	227.21
937.66	227.23
937.96	227.20
938.26	227.15
938.56	227.14
938.86	227.12
939.16	227.13
939.46	227.12
939.76	227.14
940.06	227.17
940.35	227.11
940.65	227.09
940.95	227.09
941.25	227.09
941.55	227.08
941.85	227.08
942.15	227.09
942.45	227.12
942.75	227.12
943.04	227.09
943.34	227.12
943.64	227.08
943.94	227.07
944.24	227.07
944.54	227.07
944.84	227.06
945.13	227.09
945.43	227.06
945.73	227.06
946.03	227.04
946.33	227.03
946.62	227.02
946.92	226.99
947.22	227.02
947.52	227.00
947.82	226.99
948.11	226.98
948.41	226.97
948.71	226.91
949.01	226.92
949.31	226.89
949.60	226.91
949.90	226.95
950.20	226.93
950.50	226.91
950.79	226.89
951.09	226.89
951.39	226.88
951.69	226.88
951.98	226.89
952.28	226.89
952.58	226.87
952.87	226.90
953.17	226.92
953.47	226.90
953.76	226.91
954.06	226.89
954.36	226.88
954.66	226.87
954.95	226.93
955.25	226.92
955.55	226.98
955.84	226.91
956.14	226.90
956.44	226.94
956.73	226.94
957.03	226.95
957.32	226.98
957.62	226.96
957.92	226.98
958.21	226.96
958.51	227.10
958.81	227.12
959.10	227.14
959.40	227.18
959.69	227.19
959.99	227.23
960.29	227.23
960.58	227.22
960.88	227.24
961.17	227.18
961.47	227.20
961.76	227.15
962.06	227.18
962.36	227.18
962.65	227.17
962.95	227.18
963.24	227.20
963.54	227.19
963.83	227.21
964.13	227.23
964.42	227.23
964.72	227.14
965.01	227.14
965.31	227.09
965.60	227.11
965.90	227.16
966.19	227.13
966.49	227.16
966.78	227.16
967.08	227.16
967.37	227.22
967.67	227.20
967.96	227.27
968.26	227.27
968.55	227.29
968.85	227.29
969.14	227.28
969.43	227.29
969.73	227.27
970.02	227.27
970.32	227.24
970.61	227.23
970.91	227.18
971.20	227.18
971.49	227.20
971.79	227.21
972.08	227.15
972.38	227.17
972.67	227.16
972.96	227.19
973.26	227.19
973.55	227.23
973.85	227.25
974.14	227.21
974.43	227.21
974.73	227.20
975.02	227.20
975.31	227.21
975.61	227.19
975.90	227.18
976.19	227.18
976.49	227.21
976.78	227.20
977.07	227.21
977.37	227.20
977.66	227.20
977.95	227.16
978.24	227.19
978.54	227.19
978.83	227.18
979.12	227.17
979.42	227.16
979.71	227.12
980.00	227.12
980.29	227.14
980.59	227.13
980.88	227.11
981.17	227.11
981.46	227.09
981.76	227.08
982.05	227.09
982.34	227.12
982.63	227.10
982.93	227.12
983.22	227.15
983.51	227.15
983.80	227.16
984.09	227.17
984.39	227.17
984.68	227.14
984.97	227.17
985.26	227.15
985.55	227.17
985.85	227.13
986.14	227.11
986.43	227.11
986.72	227.14
987.01	227.16
987.30	227.14
987.59	227.14
987.89	227.21
988.18	227.22
988.47	227.17
988.76	227.16
989.05	227.15
989.34	227.11
989.63	227.17
989.92	227.15
990.22	227.14
990.51	227.11
990.80	227.13
991.09	227.14
991.38	227.16
991.67	227.13
991.96	227.15
992.25	227.17
992.54	227.15
992.83	227.12
993.12	227.11
993.41	227.16
993.70	227.22
993.99	227.22
994.28	227.26
994.58	227.30
994.87	227.30
995.16	227.29
995.45	227.31
995.74	227.24
996.03	227.27
996.32	227.27
996.61	227.31
996.90	227.30
997.19	227.27
997.48	227.28
997.77	227.26
998.06	227.27
998.34	227.24
998.63	227.26
998.92	227.28
999.21	227.26
999.50	227.24
999.79	227.17
1000.08	227.15
1000.37	227.11
1000.66	227.10
1000.95	227.14
1001.24	227.12
1001.53	227.11
1001.82	227.14
1002.11	227.11
1002.40	227.11
1002.68	227.11
1002.97	227.17
1003.26	227.14
1003.55	227.09
1003.84	227.11
1004.13	227.09
1004.42	227.10
1004.71	227.08
1004.99	227.02
1005.28	227.04
1005.57	227.02
1005.86	227.05
1006.15	227.03
1006.44	227.01
1006.72	227.01
1007.01	226.96
1007.30	226.95
1007.59	226.95
1007.88	226.92
1008.17	226.90
1008.45	226.89
1008.74	226.86
1009.03	226.81
1009.32	226.81
1009.60	226.86
1009.89	226.86
1010.18	226.84
1010.47	226.80
1010.76	226.81
1011.04	226.81
1011.33	226.82
1011.62	226.81
1011.91	226.76
1012.19	226.76
1012.48	226.78
1012.77	226.76
1013.05	226.81
1013.34	226.83
1013.63	226.83
1013.92	226.87
1014.20	226.87
1014.49	226.89
1014.78	226.88
1015.06	226.86
1015.35	226.86
1015.64	226.84
1015.92	226.82
1016.21	226.87
1016.50	226.89
1016.78	226.89
1017.07	226.94
1017.36	226.91
1017.64	226.95
1017.93	226.99
1018.22	226.98
1018.50	227.02
1018.79	227.03
1019.08	227.00
1019.36	227.04
1019.65	227.04
1019.93	227.06
1020.22	227.07
1020.51	227.16
1020.79	227.18
1021.08	226.73
1021.36	227.58
1021.65	227.17
1021.94	226.95
1022.22	227.77
1022.51	226.71
1022.79	227.75
1023.08	226.93
1023.36	229.16
1023.65	227.06
>>>>>End Processed Spectral Data<<<<<
