SpectraSuite Data File
++++++++++++++++++++++++++++++++++++
Date: Fri Feb 01 16:25:14 EST 2013
User: group
Dark Spectrum Present: No
Reference Spectrum Present: No
Number of Sampled Component Spectra: 1
Spectrometers: USB2E7196
Integration Time (usec): 35000 (USB2E7196)
Spectra Averaged: 100 (USB2E7196)
Boxcar Smoothing: 10 (USB2E7196)
Correct for Electrical Dark: No (USB2E7196)
Strobe/Lamp Enabled: No (USB2E7196)
Correct for Detector Non-linearity: No (USB2E7196)
Correct for Stray Light: No (USB2E7196)
Number of Pixels in Processed Spectrum: 2048
>>>>>Begin Processed Spectral Data<<<<<
339.09	0.00
339.48	213.65
339.86	215.50
340.24	217.20
340.63	218.08
341.01	220.89
341.39	221.03
341.78	221.66
342.16	223.35
342.54	224.10
342.93	212.30
343.31	223.04
343.69	223.58
344.07	224.03
344.46	224.43
344.84	224.81
345.22	225.03
345.60	225.25
345.99	225.44
346.37	225.58
346.75	225.66
347.13	225.71
347.52	225.75
347.90	225.88
348.28	225.89
348.66	225.95
349.05	225.92
349.43	225.98
349.81	226.06
350.19	226.08
350.57	226.14
350.96	226.20
351.34	226.24
351.72	226.33
352.10	226.43
352.48	226.51
352.87	226.57
353.25	226.66
353.63	226.71
354.01	226.76
354.39	226.84
354.77	226.92
355.15	227.06
355.54	227.13
355.92	227.13
356.30	227.21
356.68	227.32
357.06	227.38
357.44	227.46
357.82	227.50
358.20	227.59
358.58	227.65
358.97	227.71
359.35	227.84
359.73	227.89
360.11	227.95
360.49	228.03
360.87	228.07
361.25	228.14
361.63	228.23
362.01	228.31
362.39	228.34
362.77	228.40
363.15	228.41
363.53	228.46
363.91	228.53
364.29	228.53
364.67	228.47
365.05	228.51
365.43	228.51
365.81	228.50
366.19	228.55
366.57	228.59
366.95	228.61
367.33	228.57
367.71	228.56
368.09	228.57
368.47	228.52
368.85	228.48
369.23	228.46
369.61	228.43
369.99	228.45
370.37	228.43
370.75	228.44
371.13	228.42
371.51	228.31
371.89	228.28
372.27	228.27
372.65	228.24
373.03	228.17
373.41	228.13
373.78	228.09
374.16	228.00
374.54	227.90
374.92	227.80
375.30	227.74
375.68	227.68
376.06	227.61
376.44	227.53
376.82	227.48
377.19	227.41
377.57	227.34
377.95	227.19
378.33	227.10
378.71	226.96
379.09	226.89
379.47	226.86
379.84	226.75
380.22	226.67
380.60	226.58
380.98	226.53
381.36	226.45
381.73	226.38
382.11	226.34
382.49	226.28
382.87	226.25
383.25	226.20
383.62	226.25
384.00	226.18
384.38	226.15
384.76	226.14
385.13	226.15
385.51	226.10
385.89	226.07
386.27	226.05
386.64	226.02
387.02	225.98
387.40	225.91
387.78	225.90
388.15	225.85
388.53	225.81
388.91	225.76
389.29	225.71
389.66	225.68
390.04	225.61
390.42	225.60
390.79	225.55
391.17	225.55
391.55	225.44
391.92	225.45
392.30	225.43
392.68	225.40
393.05	225.36
393.43	225.37
393.81	225.38
394.18	225.37
394.56	225.39
394.94	225.40
395.31	225.42
395.69	225.46
396.06	225.50
396.44	225.54
396.82	225.57
397.19	225.66
397.57	225.69
397.95	225.76
398.32	225.77
398.70	225.83
399.07	225.90
399.45	225.97
399.82	225.98
400.20	226.02
400.58	226.08
400.95	226.12
401.33	226.20
401.70	226.33
402.08	226.41
402.45	226.47
402.83	226.61
403.20	226.73
403.58	226.80
403.95	226.93
404.33	227.06
404.71	227.17
405.08	227.33
405.46	227.45
405.83	227.59
406.21	227.77
406.58	227.96
406.96	228.09
407.33	228.22
407.70	228.46
408.08	228.76
408.45	228.96
408.83	229.17
409.20	229.38
409.58	229.58
409.95	229.85
410.33	230.12
410.70	230.33
411.08	230.64
411.45	230.91
411.82	231.21
412.20	231.56
412.57	232.00
412.95	232.33
413.32	232.78
413.69	233.21
414.07	233.64
414.44	234.07
414.82	234.58
415.19	235.13
415.56	235.72
415.94	236.25
416.31	236.92
416.68	237.58
417.06	238.28
417.43	238.97
417.81	239.70
418.18	240.47
418.55	241.33
418.93	242.15
419.30	243.07
419.67	244.03
420.04	244.97
420.42	245.91
420.79	247.07
421.16	248.20
421.54	249.39
421.91	250.59
422.28	251.85
422.66	253.11
423.03	254.41
423.40	255.71
423.77	257.14
424.15	258.53
424.52	260.01
424.89	261.65
425.26	263.19
425.64	264.65
426.01	266.28
426.38	267.93
426.75	269.62
427.13	271.35
427.50	273.16
427.87	275.04
428.24	276.88
428.61	278.62
428.99	280.54
429.36	282.64
429.73	284.68
430.10	286.69
430.47	288.77
430.85	290.90
431.22	293.12
431.59	295.51
431.96	297.74
432.33	300.21
432.70	302.56
433.08	305.34
433.45	308.01
433.82	310.60
434.19	313.50
434.56	316.31
434.93	318.95
435.30	321.54
435.68	324.41
436.05	327.26
436.42	330.03
436.79	332.56
437.16	335.21
437.53	338.04
437.90	340.84
438.27	343.60
438.64	346.42
439.01	348.99
439.38	351.15
439.75	353.32
440.13	355.81
440.50	358.16
440.87	359.99
441.24	361.94
441.61	364.08
441.98	365.54
442.35	367.29
442.72	369.15
443.09	370.91
443.46	371.89
443.83	372.49
444.20	373.05
444.57	373.89
444.94	374.16
445.31	374.51
445.68	374.88
446.05	374.92
446.42	374.52
446.79	374.13
447.16	373.73
447.53	373.41
447.90	372.24
448.27	371.08
448.64	369.53
449.01	368.35
449.37	366.37
449.74	364.46
450.11	362.28
450.48	359.82
450.85	357.32
451.22	355.17
451.59	353.15
451.96	351.18
452.33	348.56
452.70	346.23
453.07	343.42
453.43	340.47
453.80	337.72
454.17	335.06
454.54	332.49
454.91	329.78
455.28	327.12
455.65	324.63
456.02	322.15
456.38	320.00
456.75	317.34
457.12	315.08
457.49	312.87
457.86	310.66
458.23	308.84
458.59	306.83
458.96	304.79
459.33	302.90
459.70	301.05
460.07	299.59
460.43	297.88
460.80	296.24
461.17	294.87
461.54	293.41
461.91	292.00
462.27	290.58
462.64	289.31
463.01	287.97
463.38	286.67
463.74	285.28
464.11	284.11
464.48	283.10
464.85	282.04
465.21	281.20
465.58	280.30
465.95	279.22
466.32	278.32
466.68	277.40
467.05	276.57
467.42	275.68
467.78	274.75
468.15	273.90
468.52	273.27
468.88	272.39
469.25	271.57
469.62	270.97
469.98	270.29
470.35	269.65
470.72	269.03
471.08	268.40
471.45	267.88
471.82	267.37
472.18	266.78
472.55	266.33
472.92	265.80
473.28	265.33
473.65	264.86
474.02	264.41
474.38	264.09
474.75	263.74
475.11	263.38
475.48	263.13
475.85	262.87
476.21	262.63
476.58	262.47
476.94	262.38
477.31	262.22
477.67	262.11
478.04	262.03
478.41	262.02
478.77	262.08
479.14	262.05
479.50	262.12
479.87	262.22
480.23	262.35
480.60	262.41
480.96	262.54
481.33	262.75
481.69	262.97
482.06	263.16
482.42	263.38
482.79	263.67
483.15	263.99
483.52	264.39
483.88	264.75
484.25	265.12
484.61	265.56
484.98	265.96
485.34	266.50
485.71	267.10
486.07	267.72
486.44	268.31
486.80	269.02
487.17	269.70
487.53	270.52
487.90	271.34
488.26	272.27
488.62	273.25
488.99	274.24
489.35	275.31
489.72	276.47
490.08	277.68
490.44	278.90
490.81	280.24
491.17	281.64
491.54	283.11
491.90	284.67
492.26	286.35
492.63	288.13
492.99	289.91
493.36	291.81
493.72	293.83
494.08	295.91
494.45	298.19
494.81	300.58
495.17	303.01
495.54	305.62
495.90	308.37
496.26	311.20
496.63	314.18
496.99	317.31
497.35	320.51
497.72	323.92
498.08	327.42
498.44	331.08
498.80	334.97
499.17	339.06
499.53	343.28
499.89	347.66
500.26	352.17
500.62	356.88
500.98	361.82
501.34	366.94
501.71	372.32
502.07	377.77
502.43	383.39
502.79	389.22
503.16	395.26
503.52	401.52
503.88	407.88
504.24	414.55
504.60	421.47
504.97	428.68
505.33	436.04
505.69	443.83
506.05	451.61
506.41	459.49
506.78	467.60
507.14	475.99
507.50	484.68
507.86	493.76
508.22	502.96
508.59	512.18
508.95	521.74
509.31	531.47
509.67	541.58
510.03	551.89
510.39	562.51
510.75	573.28
511.12	584.14
511.48	595.45
511.84	606.82
512.20	618.33
512.56	630.17
512.92	642.36
513.28	654.66
513.64	667.10
514.00	679.80
514.37	692.75
514.73	705.82
515.09	718.88
515.45	732.04
515.81	745.53
516.17	759.50
516.53	773.60
516.89	787.90
517.25	802.02
517.61	816.38
517.97	830.63
518.33	844.99
518.69	859.79
519.05	874.77
519.41	890.01
519.77	905.45
520.13	920.85
520.49	936.20
520.85	951.54
521.21	967.25
521.57	983.48
521.93	999.23
522.29	1015.59
522.65	1031.72
523.01	1047.93
523.37	1063.91
523.73	1079.95
524.09	1095.93
524.45	1112.14
524.81	1128.69
525.17	1145.50
525.53	1162.47
525.89	1179.31
526.25	1195.99
526.61	1212.19
526.97	1228.81
527.33	1245.21
527.68	1261.76
528.04	1278.14
528.40	1294.65
528.76	1311.54
529.12	1328.04
529.48	1344.73
529.84	1360.72
530.20	1377.23
530.56	1394.14
530.91	1411.51
531.27	1428.20
531.63	1444.61
531.99	1460.98
532.35	1476.88
532.71	1492.61
533.07	1508.78
533.42	1524.60
533.78	1540.57
534.14	1556.92
534.50	1572.22
534.86	1587.97
535.21	1603.15
535.57	1618.90
535.93	1634.36
536.29	1649.15
536.65	1664.15
537.00	1678.81
537.36	1694.01
537.72	1708.50
538.08	1722.92
538.44	1736.65
538.79	1750.54
539.15	1764.15
539.51	1777.94
539.87	1792.17
540.22	1805.86
540.58	1819.36
540.94	1832.68
541.29	1845.49
541.65	1858.02
542.01	1871.11
542.37	1883.26
542.72	1895.56
543.08	1907.33
543.44	1919.65
543.79	1930.72
544.15	1941.49
544.51	1953.10
544.87	1963.96
545.22	1974.69
545.58	1984.73
545.94	1994.37
546.29	2004.08
546.65	2013.84
547.01	2022.96
547.36	2031.51
547.72	2039.92
548.07	2047.73
548.43	2055.78
548.79	2063.90
549.14	2071.39
549.50	2078.61
549.86	2086.39
550.21	2093.66
550.57	2100.81
550.92	2107.20
551.28	2114.25
551.64	2121.24
551.99	2127.66
552.35	2133.77
552.70	2139.90
553.06	2145.87
553.41	2152.15
553.77	2158.20
554.13	2164.23
554.48	2170.33
554.84	2175.99
555.19	2181.34
555.55	2186.61
555.90	2191.01
556.26	2195.77
556.61	2200.61
556.97	2205.01
557.32	2209.17
557.68	2213.38
558.03	2217.60
558.39	2221.48
558.74	2226.07
559.10	2230.04
559.45	2233.85
559.81	2238.14
560.16	2242.02
560.52	2245.37
560.87	2248.91
561.23	2251.65
561.58	2254.75
561.94	2257.20
562.29	2259.54
562.64	2262.12
563.00	2264.64
563.35	2268.29
563.71	2271.46
564.06	2274.57
564.42	2277.45
564.77	2279.86
565.12	2282.08
565.48	2284.05
565.83	2285.88
566.19	2287.33
566.54	2288.23
566.89	2289.22
567.25	2289.69
567.60	2291.03
567.96	2292.65
568.31	2293.45
568.66	2294.52
569.02	2295.06
569.37	2295.45
569.72	2296.32
570.08	2296.43
570.43	2296.54
570.78	2295.92
571.14	2294.35
571.49	2293.03
571.84	2292.67
572.20	2291.76
572.55	2290.87
572.90	2289.22
573.26	2287.89
573.61	2286.16
573.96	2284.40
574.31	2281.61
574.67	2278.87
575.02	2275.17
575.37	2271.76
575.72	2267.97
576.08	2264.64
576.43	2261.36
576.78	2257.73
577.13	2254.63
577.49	2251.59
577.84	2248.13
578.19	2244.47
578.54	2240.99
578.90	2236.89
579.25	2231.35
579.60	2226.27
579.95	2221.22
580.30	2216.42
580.66	2211.43
581.01	2206.54
581.36	2201.76
581.71	2197.64
582.06	2193.19
582.42	2189.00
582.77	2183.97
583.12	2179.53
583.47	2174.96
583.82	2170.02
584.17	2164.93
584.53	2159.52
584.88	2153.97
585.23	2148.17
585.58	2142.85
585.93	2137.53
586.28	2132.85
586.63	2127.93
586.98	2122.97
587.34	2118.23
587.69	2113.41
588.04	2107.98
588.39	2102.48
588.74	2096.13
589.09	2090.01
589.44	2083.18
589.79	2077.00
590.14	2071.39
590.49	2064.83
590.84	2058.53
591.19	2052.38
591.54	2046.02
591.89	2038.67
592.25	2031.98
592.60	2025.03
592.95	2017.54
593.30	2010.09
593.65	2002.47
594.00	1995.37
594.35	1988.17
594.70	1980.22
595.05	1972.94
595.40	1965.73
595.75	1958.18
596.10	1951.99
596.45	1945.33
596.80	1939.32
597.15	1932.76
597.50	1925.66
597.85	1919.30
598.19	1912.54
598.54	1905.59
598.89	1898.88
599.24	1893.08
599.59	1886.35
599.94	1880.13
600.29	1873.70
600.64	1867.27
600.99	1859.93
601.34	1853.29
601.69	1846.38
602.04	1839.65
602.39	1832.39
602.74	1825.66
603.08	1818.95
603.43	1812.25
603.78	1804.90
604.13	1797.68
604.48	1790.44
604.83	1783.60
605.18	1776.63
605.53	1768.76
605.87	1760.78
606.22	1753.64
606.57	1745.74
606.92	1738.58
607.27	1731.46
607.62	1724.53
607.96	1717.22
608.31	1710.61
608.66	1702.89
609.01	1695.39
609.36	1687.85
609.70	1679.80
610.05	1671.76
610.40	1664.19
610.75	1655.82
611.10	1648.26
611.44	1639.83
611.79	1631.86
612.14	1623.29
612.49	1614.09
612.83	1605.74
613.18	1597.68
613.53	1589.60
613.88	1580.94
614.22	1572.55
614.57	1564.01
614.92	1555.99
615.27	1548.48
615.61	1540.11
615.96	1532.06
616.31	1524.37
616.65	1516.92
617.00	1509.54
617.35	1501.90
617.70	1493.59
618.04	1485.15
618.39	1476.77
618.74	1469.24
619.08	1461.01
619.43	1453.31
619.78	1446.59
620.12	1439.41
620.47	1431.87
620.82	1423.75
621.16	1416.39
621.51	1408.83
621.85	1401.17
622.20	1392.65
622.55	1384.26
622.89	1376.46
623.24	1368.77
623.59	1361.38
623.93	1353.81
624.28	1346.56
624.62	1338.91
624.97	1331.69
625.32	1324.88
625.66	1318.04
626.01	1310.90
626.35	1303.36
626.70	1295.65
627.04	1287.84
627.39	1279.96
627.73	1272.58
628.08	1265.57
628.43	1258.33
628.77	1250.91
629.12	1243.41
629.46	1236.26
629.81	1228.74
630.15	1221.44
630.50	1214.08
630.84	1205.86
631.19	1197.97
631.53	1190.42
631.88	1182.93
632.22	1175.36
632.57	1168.14
632.91	1160.56
633.26	1153.07
633.60	1145.75
633.95	1138.64
634.29	1131.58
634.64	1125.00
634.98	1117.59
635.32	1110.42
635.67	1103.70
636.01	1097.04
636.36	1090.14
636.70	1083.61
637.05	1077.14
637.39	1070.68
637.73	1064.21
638.08	1058.28
638.42	1052.28
638.77	1045.81
639.11	1039.24
639.45	1032.78
639.80	1026.03
640.14	1019.62
640.49	1013.10
640.83	1006.76
641.17	1000.52
641.52	994.14
641.86	987.56
642.20	981.63
642.55	975.34
642.89	968.82
643.23	962.25
643.58	956.51
643.92	950.30
644.26	944.14
644.61	938.11
644.95	932.04
645.29	925.58
645.64	918.86
645.98	912.53
646.32	906.72
646.66	900.60
647.01	894.82
647.35	888.99
647.69	883.16
648.04	877.70
648.38	871.92
648.72	865.91
649.06	859.95
649.41	854.13
649.75	848.18
650.09	842.31
650.43	836.61
650.78	830.37
651.12	824.41
651.46	818.79
651.80	813.11
652.14	807.77
652.49	802.38
652.83	797.23
653.17	791.49
653.51	785.70
653.85	780.33
654.20	774.67
654.54	768.70
654.88	762.94
655.22	756.96
655.56	751.20
655.90	745.74
656.25	740.48
656.59	735.08
656.93	729.97
657.27	724.83
657.61	719.35
657.95	714.34
658.29	709.30
658.64	704.02
658.98	698.61
659.32	693.13
659.66	687.80
660.00	682.44
660.34	677.47
660.68	672.60
661.02	667.59
661.36	662.91
661.70	658.43
662.05	654.04
662.39	649.73
662.73	645.36
663.07	641.10
663.41	636.69
663.75	632.22
664.09	627.64
664.43	623.10
664.77	619.00
665.11	614.68
665.45	610.54
665.79	606.43
666.13	602.34
666.47	598.26
666.81	594.20
667.15	590.12
667.49	586.25
667.83	582.41
668.17	578.49
668.51	574.37
668.85	570.29
669.19	566.43
669.53	562.61
669.87	558.67
670.21	554.94
670.55	551.26
670.89	547.85
671.23	544.46
671.57	541.00
671.91	537.38
672.25	533.90
672.58	530.33
672.92	526.94
673.26	523.74
673.60	520.56
673.94	517.40
674.28	514.44
674.62	511.48
674.96	508.37
675.30	505.42
675.64	502.53
675.97	499.79
676.31	496.87
676.65	493.88
676.99	491.18
677.33	488.32
677.67	485.52
678.01	482.47
678.34	479.47
678.68	476.71
679.02	473.92
679.36	471.10
679.70	468.38
680.04	465.61
680.37	462.76
680.71	459.94
681.05	457.36
681.39	454.62
681.73	451.92
682.06	449.44
682.40	446.90
682.74	444.33
683.08	441.71
683.42	439.19
683.75	436.74
684.09	434.18
684.43	431.66
684.77	429.17
685.10	426.82
685.44	424.47
685.78	422.07
686.12	419.86
686.45	417.63
686.79	415.32
687.13	413.08
687.46	410.85
687.80	408.72
688.14	406.47
688.48	404.42
688.81	402.16
689.15	399.98
689.49	397.82
689.82	395.75
690.16	393.73
690.50	391.77
690.83	389.83
691.17	387.84
691.51	385.96
691.84	384.08
692.18	382.14
692.52	380.19
692.85	378.26
693.19	376.38
693.52	374.51
693.86	372.68
694.20	370.91
694.53	369.18
694.87	367.35
695.21	365.56
695.54	363.76
695.88	362.03
696.21	360.27
696.55	358.59
696.88	356.90
697.22	355.25
697.56	353.62
697.89	351.93
698.23	350.35
698.56	348.69
698.90	347.14
699.23	345.53
699.57	344.00
699.90	342.50
700.24	340.94
700.58	339.40
700.91	337.96
701.25	336.50
701.58	335.14
701.92	333.79
702.25	332.42
702.59	331.01
702.92	329.76
703.26	328.48
703.59	327.23
703.93	326.05
704.26	324.82
704.60	323.52
704.93	322.25
705.26	320.96
705.60	319.76
705.93	318.55
706.27	317.47
706.60	316.38
706.94	315.31
707.27	314.18
707.61	313.17
707.94	312.11
708.27	311.06
708.61	309.93
708.94	308.91
709.28	307.96
709.61	307.01
709.94	306.03
710.28	305.00
710.61	304.00
710.95	302.93
711.28	301.99
711.61	301.06
711.95	300.17
712.28	299.23
712.61	298.25
712.95	297.36
713.28	296.49
713.61	295.60
713.95	294.69
714.28	293.87
714.61	292.98
714.95	292.11
715.28	291.23
715.61	290.37
715.95	289.49
716.28	288.61
716.61	287.78
716.95	286.93
717.28	286.18
717.61	285.38
717.94	284.61
718.28	283.77
718.61	283.05
718.94	282.39
719.27	281.78
719.61	281.14
719.94	280.47
720.27	279.78
720.60	279.10
720.94	278.46
721.27	277.87
721.60	277.30
721.93	276.72
722.27	276.19
722.60	275.64
722.93	275.10
723.26	274.58
723.59	274.00
723.93	273.48
724.26	272.96
724.59	272.47
724.92	271.97
725.25	271.48
725.59	270.92
725.92	270.37
726.25	269.82
726.58	269.32
726.91	268.83
727.24	268.33
727.57	267.90
727.91	267.43
728.24	266.94
728.57	266.43
728.90	265.98
729.23	265.49
729.56	265.04
729.89	264.57
730.22	264.07
730.55	263.63
730.89	263.17
731.22	262.74
731.55	262.28
731.88	261.84
732.21	261.44
732.54	261.03
732.87	260.65
733.20	260.27
733.53	259.94
733.86	259.57
734.19	259.17
734.52	258.76
734.85	258.44
735.18	258.02
735.51	257.67
735.84	257.33
736.17	256.94
736.50	256.53
736.83	256.27
737.16	255.96
737.49	255.63
737.82	255.26
738.15	254.93
738.48	254.61
738.81	254.30
739.14	253.94
739.47	253.64
739.80	253.31
740.13	253.01
740.46	252.64
740.79	252.29
741.12	251.97
741.45	251.66
741.78	251.29
742.11	251.02
742.44	250.71
742.77	250.40
743.10	250.12
743.43	249.85
743.75	249.48
744.08	249.34
744.41	249.07
744.74	248.80
745.07	248.47
745.40	248.21
745.73	247.97
746.06	247.72
746.39	247.44
746.71	247.15
747.04	246.89
747.37	246.66
747.70	246.45
748.03	246.22
748.36	246.02
748.68	245.81
749.01	245.54
749.34	245.31
749.67	245.09
750.00	244.89
750.33	244.72
750.65	244.50
750.98	244.15
751.31	243.94
751.64	243.74
751.97	243.60
752.29	243.37
752.62	243.11
752.95	242.93
753.28	242.73
753.60	242.49
753.93	242.30
754.26	242.07
754.59	241.76
754.91	241.54
755.24	241.32
755.57	241.12
755.90	240.93
756.22	240.73
756.55	240.50
756.88	240.29
757.20	240.08
757.53	239.84
757.86	239.66
758.19	239.50
758.51	239.32
758.84	239.12
759.17	238.97
759.49	238.83
759.82	238.67
760.15	238.52
760.47	238.38
760.80	238.17
761.13	238.06
761.45	237.96
761.78	237.81
762.11	237.62
762.43	237.45
762.76	237.33
763.08	237.20
763.41	237.07
763.74	236.91
764.06	236.73
764.39	236.61
764.71	236.46
765.04	236.28
765.37	236.15
765.69	236.02
766.02	235.88
766.34	235.73
766.67	235.61
767.00	235.46
767.32	235.39
767.65	235.35
767.97	235.20
768.30	235.08
768.62	234.99
768.95	234.90
769.27	234.79
769.60	234.66
769.92	234.52
770.25	234.41
770.57	234.32
770.90	234.25
771.22	234.14
771.55	234.05
771.87	233.96
772.20	233.88
772.52	233.89
772.85	233.91
773.17	233.82
773.50	233.74
773.82	233.64
774.15	233.52
774.47	233.41
774.80	233.35
775.12	233.27
775.45	233.18
775.77	233.13
776.09	233.07
776.42	233.01
776.74	233.01
777.07	232.91
777.39	232.83
777.72	232.76
778.04	232.72
778.36	232.66
778.69	232.60
779.01	232.52
779.33	232.33
779.66	232.18
779.98	232.11
780.31	232.05
780.63	232.06
780.95	232.03
781.28	231.94
781.60	231.86
781.92	231.81
782.25	231.78
782.57	231.69
782.89	231.61
783.22	231.55
783.54	231.44
783.86	231.43
784.19	231.36
784.51	231.32
784.83	231.23
785.16	231.16
785.48	231.13
785.80	231.08
786.12	231.05
786.45	231.01
786.77	230.96
787.09	230.88
787.42	230.76
787.74	230.72
788.06	230.71
788.38	230.65
788.71	230.59
789.03	230.54
789.35	230.54
789.67	230.49
789.99	230.44
790.32	230.37
790.64	230.36
790.96	230.41
791.28	230.36
791.61	230.35
791.93	230.33
792.25	230.26
792.57	230.30
792.89	230.23
793.21	230.16
793.54	230.06
793.86	230.03
794.18	230.02
794.50	229.94
794.82	229.86
795.14	229.84
795.47	229.84
795.79	229.78
796.11	229.70
796.43	229.69
796.75	229.67
797.07	229.63
797.39	229.56
797.71	229.46
798.04	229.44
798.36	229.40
798.68	229.36
799.00	229.36
799.32	229.27
799.64	229.26
799.96	229.23
800.28	229.25
800.60	229.22
800.92	229.17
801.24	229.13
801.56	229.11
801.89	229.08
802.21	229.05
802.53	228.99
802.85	228.98
803.17	229.01
803.49	228.95
803.81	228.91
804.13	228.89
804.45	228.84
804.77	228.78
805.09	228.76
805.41	228.75
805.73	228.66
806.05	228.60
806.37	228.59
806.69	228.55
807.01	228.50
807.33	228.45
807.65	228.39
807.97	228.42
808.28	228.39
808.60	228.35
808.92	228.33
809.24	228.37
809.56	228.35
809.88	228.24
810.20	228.25
810.52	228.28
810.84	228.24
811.16	228.18
811.48	228.18
811.80	228.18
812.12	228.12
812.43	228.15
812.75	228.17
813.07	228.12
813.39	228.09
813.71	228.09
814.03	228.08
814.35	228.08
814.67	228.03
814.98	228.01
815.30	228.00
815.62	227.96
815.94	227.85
816.26	227.89
816.58	227.86
816.89	227.85
817.21	227.77
817.53	227.75
817.85	227.77
818.17	227.72
818.48	227.63
818.80	227.65
819.12	227.60
819.44	227.55
819.76	227.51
820.07	227.50
820.39	227.49
820.71	227.48
821.03	227.46
821.34	227.41
821.66	227.43
821.98	227.44
822.30	227.40
822.61	227.44
822.93	227.36
823.25	227.33
823.57	227.28
823.88	227.31
824.20	227.31
824.52	227.27
824.83	227.28
825.15	227.31
825.47	227.27
825.79	227.28
826.10	227.24
826.42	227.24
826.74	227.25
827.05	227.21
827.37	227.20
827.69	227.15
828.00	227.16
828.32	227.09
828.64	227.04
828.95	227.11
829.27	227.07
829.58	227.05
829.90	227.06
830.22	227.07
830.53	227.05
830.85	227.04
831.17	227.01
831.48	227.01
831.80	226.98
832.11	226.97
832.43	226.93
832.75	226.95
833.06	226.99
833.38	226.93
833.69	226.95
834.01	226.94
834.32	226.95
834.64	226.93
834.96	226.92
835.27	226.93
835.59	226.86
835.90	226.85
836.22	226.83
836.53	226.83
836.85	226.80
837.16	226.88
837.48	226.88
837.79	226.94
838.11	226.92
838.42	226.92
838.74	226.93
839.05	226.94
839.37	226.90
839.68	226.82
840.00	226.83
840.31	226.82
840.63	226.81
840.94	226.80
841.26	226.78
841.57	226.79
841.88	226.79
842.20	226.78
842.51	226.77
842.83	226.81
843.14	226.89
843.46	226.88
843.77	226.82
844.08	226.80
844.40	226.75
844.71	226.73
845.03	226.69
845.34	226.66
845.65	226.62
845.97	226.64
846.28	226.67
846.60	226.67
846.91	226.65
847.22	226.63
847.54	226.61
847.85	226.60
848.16	226.57
848.48	226.54
848.79	226.58
849.10	226.58
849.42	226.58
849.73	226.50
850.04	226.52
850.36	226.50
850.67	226.53
850.98	226.52
851.30	226.54
851.61	226.54
851.92	226.58
852.23	226.64
852.55	226.64
852.86	226.61
853.17	226.63
853.49	226.66
853.80	226.71
854.11	226.76
854.42	226.77
854.74	226.79
855.05	226.80
855.36	226.74
855.67	226.72
855.99	226.69
856.30	226.80
856.61	226.81
856.92	226.80
857.23	226.78
857.55	226.78
857.86	226.78
858.17	226.80
858.48	226.75
858.79	226.70
859.11	226.72
859.42	226.66
859.73	226.62
860.04	226.60
860.35	226.55
860.66	226.51
860.98	226.53
861.29	226.52
861.60	226.53
861.91	226.58
862.22	226.55
862.53	226.54
862.84	226.40
863.16	226.40
863.47	226.41
863.78	226.41
864.09	226.43
864.40	226.43
864.71	226.43
865.02	226.47
865.33	226.49
865.64	226.46
865.95	226.50
866.27	226.58
866.58	226.56
866.89	226.56
867.20	226.54
867.51	226.50
867.82	226.51
868.13	226.52
868.44	226.49
868.75	226.53
869.06	226.53
869.37	226.56
869.68	226.51
869.99	226.51
870.30	226.49
870.61	226.47
870.92	226.44
871.23	226.44
871.54	226.46
871.85	226.48
872.16	226.51
872.47	226.50
872.78	226.45
873.09	226.47
873.40	226.47
873.71	226.51
874.02	226.53
874.33	226.50
874.64	226.47
874.95	226.47
875.26	226.46
875.56	226.45
875.87	226.43
876.18	226.42
876.49	226.50
876.80	226.51
877.11	226.48
877.42	226.48
877.73	226.45
878.04	226.43
878.35	226.39
878.66	226.37
878.96	226.40
879.27	226.39
879.58	226.38
879.89	226.39
880.20	226.37
880.51	226.37
880.82	226.38
881.12	226.38
881.43	226.37
881.74	226.35
882.05	226.32
882.36	226.33
882.67	226.35
882.97	226.24
883.28	226.25
883.59	226.23
883.90	226.23
884.21	226.29
884.51	226.28
884.82	226.27
885.13	226.26
885.44	226.25
885.74	226.22
886.05	226.21
886.36	226.19
886.67	226.17
886.98	226.22
887.28	226.27
887.59	226.23
887.90	226.24
888.20	226.23
888.51	226.26
888.82	226.24
889.13	226.26
889.43	226.33
889.74	226.29
890.05	226.31
890.35	226.30
890.66	226.24
890.97	226.22
891.28	226.20
891.58	226.19
891.89	226.16
892.20	226.17
892.50	226.15
892.81	226.16
893.12	226.14
893.42	226.06
893.73	226.03
894.04	226.03
894.34	226.02
894.65	226.00
894.95	225.96
895.26	225.96
895.57	225.99
895.87	225.90
896.18	225.90
896.48	225.93
896.79	225.94
897.10	225.94
897.40	225.93
897.71	225.98
898.01	225.95
898.32	225.97
898.63	225.98
898.93	226.02
899.24	226.00
899.54	225.96
899.85	225.96
900.15	225.91
900.46	225.94
900.76	225.92
901.07	225.94
901.38	225.96
901.68	225.97
901.99	225.90
902.29	225.89
902.60	225.89
902.90	225.87
903.21	225.86
903.51	225.87
903.82	225.90
904.12	225.84
904.43	225.87
904.73	225.86
905.03	225.86
905.34	225.92
905.64	225.92
905.95	225.93
906.25	225.91
906.56	225.91
906.86	225.93
907.17	225.94
907.47	225.95
907.77	225.94
908.08	225.92
908.38	225.92
908.69	225.92
908.99	225.92
909.30	225.92
909.60	225.92
909.90	225.94
910.21	225.91
910.51	225.92
910.81	225.92
911.12	225.94
911.42	225.96
911.73	225.89
912.03	225.90
912.33	225.97
912.64	226.00
912.94	226.00
913.24	225.99
913.55	225.98
913.85	225.95
914.15	226.00
914.46	226.03
914.76	226.03
915.06	226.05
915.37	226.04
915.67	226.03
915.97	226.05
916.27	226.03
916.58	226.03
916.88	226.03
917.18	226.03
917.49	226.08
917.79	226.07
918.09	226.05
918.39	226.12
918.70	226.12
919.00	226.11
919.30	226.19
919.60	226.18
919.91	226.20
920.21	226.20
920.51	226.16
920.81	226.15
921.12	226.19
921.42	226.20
921.72	226.23
922.02	226.23
922.32	226.26
922.63	226.29
922.93	226.34
923.23	226.35
923.53	226.33
923.83	226.25
924.13	226.25
924.44	226.27
924.74	226.26
925.04	226.29
925.34	226.30
925.64	226.25
925.94	226.26
926.24	226.30
926.55	226.32
926.85	226.35
927.15	226.33
927.45	226.34
927.75	226.31
928.05	226.31
928.35	226.30
928.65	226.27
928.95	226.24
929.26	226.20
929.56	226.19
929.86	226.19
930.16	226.20
930.46	226.19
930.76	226.21
931.06	226.15
931.36	226.11
931.66	226.11
931.96	226.08
932.26	226.09
932.56	226.04
932.86	226.02
933.16	226.01
933.46	226.01
933.76	225.99
934.06	226.04
934.36	226.08
934.66	226.09
934.96	226.08
935.26	226.09
935.56	226.11
935.86	226.09
936.16	226.08
936.46	226.08
936.76	226.09
937.06	226.03
937.36	226.03
937.66	226.01
937.96	226.00
938.26	225.99
938.56	225.98
938.86	225.98
939.16	226.00
939.46	226.00
939.76	226.02
940.06	225.98
940.35	225.93
940.65	225.87
940.95	225.88
941.25	225.85
941.55	225.85
941.85	225.84
942.15	225.86
942.45	225.89
942.75	225.89
943.04	225.88
943.34	225.93
943.64	225.91
943.94	225.89
944.24	225.88
944.54	225.88
944.84	225.87
945.13	225.87
945.43	225.86
945.73	225.83
946.03	225.82
946.33	225.82
946.62	225.82
946.92	225.80
947.22	225.81
947.52	225.78
947.82	225.78
948.11	225.75
948.41	225.75
948.71	225.74
949.01	225.75
949.31	225.75
949.60	225.72
949.90	225.75
950.20	225.76
950.50	225.76
950.79	225.75
951.09	225.76
951.39	225.76
951.69	225.76
951.98	225.83
952.28	225.85
952.58	225.86
952.87	225.85
953.17	225.86
953.47	225.83
953.76	225.89
954.06	225.90
954.36	225.90
954.66	225.90
954.95	225.92
955.25	225.93
955.55	225.94
955.84	225.92
956.14	225.94
956.44	225.97
956.73	225.99
957.03	226.02
957.32	226.05
957.62	226.04
957.92	226.06
958.21	226.01
958.51	226.11
958.81	226.12
959.10	226.13
959.40	226.19
959.69	226.20
959.99	226.19
960.29	226.18
960.58	226.19
960.88	226.23
961.17	226.20
961.47	226.22
961.76	226.20
962.06	226.22
962.36	226.21
962.65	226.22
962.95	226.22
963.24	226.21
963.54	226.18
963.83	226.22
964.13	226.21
964.42	226.18
964.72	226.08
965.01	226.07
965.31	226.07
965.60	225.99
965.90	226.05
966.19	226.01
966.49	226.02
966.78	225.99
967.08	225.97
967.37	225.98
967.67	225.96
967.96	225.96
968.26	225.96
968.55	225.95
968.85	225.95
969.14	225.93
969.43	225.93
969.73	225.93
970.02	225.91
970.32	225.91
970.61	225.91
970.91	225.89
971.20	225.90
971.49	225.87
971.79	225.92
972.08	225.85
972.38	225.87
972.67	225.84
972.96	225.83
973.26	225.79
973.55	225.78
973.85	225.78
974.14	225.78
974.43	225.79
974.73	225.76
975.02	225.74
975.31	225.75
975.61	225.72
975.90	225.73
976.19	225.70
976.49	225.68
976.78	225.68
977.07	225.70
977.37	225.72
977.66	225.72
977.95	225.70
978.24	225.71
978.54	225.73
978.83	225.78
979.12	225.80
979.42	225.80
979.71	225.79
980.00	225.78
980.29	225.77
980.59	225.74
980.88	225.77
981.17	225.79
981.46	225.76
981.76	225.78
982.05	225.80
982.34	225.82
982.63	225.83
982.93	225.86
983.22	225.87
983.51	225.83
983.80	225.86
984.09	225.89
984.39	225.87
984.68	225.85
984.97	225.83
985.26	225.84
985.55	225.86
985.85	225.87
986.14	225.85
986.43	225.87
986.72	225.85
987.01	225.79
987.30	225.80
987.59	225.78
987.89	225.76
988.18	225.71
988.47	225.68
988.76	225.67
989.05	225.65
989.34	225.59
989.63	225.63
989.92	225.66
990.22	225.65
990.51	225.65
990.80	225.66
991.09	225.65
991.38	225.66
991.67	225.62
991.96	225.63
992.25	225.66
992.54	225.67
992.83	225.71
993.12	225.71
993.41	225.74
993.70	225.79
993.99	225.80
994.28	225.82
994.58	225.85
994.87	225.85
995.16	225.84
995.45	225.87
995.74	225.81
996.03	225.80
996.32	225.81
996.61	225.86
996.90	225.85
997.19	225.86
997.48	225.86
997.77	225.89
998.06	225.92
998.34	225.91
998.63	225.92
998.92	225.94
999.21	225.97
999.50	225.94
999.79	225.90
1000.08	225.91
1000.37	225.94
1000.66	225.95
1000.95	225.99
1001.24	226.01
1001.53	226.02
1001.82	226.02
1002.11	225.98
1002.40	225.95
1002.68	225.95
1002.97	226.04
1003.26	226.02
1003.55	226.01
1003.84	226.01
1004.13	226.03
1004.42	226.03
1004.71	226.02
1004.99	226.03
1005.28	226.07
1005.57	226.08
1005.86	226.12
1006.15	226.15
1006.44	226.11
1006.72	226.12
1007.01	226.10
1007.30	226.09
1007.59	226.11
1007.88	226.16
1008.17	226.19
1008.45	226.22
1008.74	226.20
1009.03	226.14
1009.32	226.16
1009.60	226.17
1009.89	226.17
1010.18	226.11
1010.47	226.10
1010.76	226.12
1011.04	226.06
1011.33	226.06
1011.62	226.03
1011.91	226.02
1012.19	225.99
1012.48	225.98
1012.77	225.96
1013.05	226.01
1013.34	226.00
1013.63	225.99
1013.92	225.95
1014.20	225.93
1014.49	225.90
1014.78	225.89
1015.06	225.88
1015.35	225.83
1015.64	225.82
1015.92	225.84
1016.21	225.83
1016.50	225.85
1016.78	225.83
1017.07	225.84
1017.36	225.81
1017.64	225.80
1017.93	225.78
1018.22	225.79
1018.50	225.77
1018.79	225.76
1019.08	225.73
1019.36	225.73
1019.65	225.73
1019.93	225.77
1020.22	225.79
1020.51	225.82
1020.79	225.83
1021.08	225.97
1021.36	225.15
1021.65	225.58
1021.94	226.18
1022.22	226.10
1022.51	225.67
1022.79	226.53
1023.08	225.98
1023.36	226.41
1023.65	226.18
>>>>>End Processed Spectral Data<<<<<
