SpectraSuite Data File
++++++++++++++++++++++++++++++++++++
Date: Fri Feb 01 15:56:41 EST 2013
User: group
Dark Spectrum Present: No
Reference Spectrum Present: No
Number of Sampled Component Spectra: 1
Spectrometers: USB2E7196
Integration Time (usec): 35000 (USB2E7196)
Spectra Averaged: 100 (USB2E7196)
Boxcar Smoothing: 10 (USB2E7196)
Correct for Electrical Dark: No (USB2E7196)
Strobe/Lamp Enabled: No (USB2E7196)
Correct for Detector Non-linearity: No (USB2E7196)
Correct for Stray Light: No (USB2E7196)
Number of Pixels in Processed Spectrum: 2048
>>>>>Begin Processed Spectral Data<<<<<
339.09	0.00
339.48	214.65
339.86	216.66
340.24	217.66
340.63	219.75
341.01	221.86
341.39	221.57
341.78	223.14
342.16	224.33
342.54	224.53
342.93	213.21
343.31	223.97
343.69	224.52
344.07	224.95
344.46	225.37
344.84	225.70
345.22	225.95
345.60	226.22
345.99	226.40
346.37	226.50
346.75	226.60
347.13	226.69
347.52	226.72
347.90	226.79
348.28	226.79
348.66	226.82
349.05	226.82
349.43	226.87
349.81	226.89
350.19	226.91
350.57	226.94
350.96	227.05
351.34	227.12
351.72	227.19
352.10	227.29
352.48	227.35
352.87	227.44
353.25	227.48
353.63	227.53
354.01	227.60
354.39	227.67
354.77	227.75
355.15	227.83
355.54	227.90
355.92	227.92
356.30	228.01
356.68	228.14
357.06	228.19
357.44	228.23
357.82	228.33
358.20	228.38
358.58	228.48
358.97	228.51
359.35	228.63
359.73	228.72
360.11	228.78
360.49	228.86
360.87	228.89
361.25	228.95
361.63	229.02
362.01	229.07
362.39	229.11
362.77	229.14
363.15	229.16
363.53	229.19
363.91	229.22
364.29	229.27
364.67	229.19
365.05	229.23
365.43	229.26
365.81	229.25
366.19	229.33
366.57	229.35
366.95	229.38
367.33	229.32
367.71	229.31
368.09	229.31
368.47	229.26
368.85	229.23
369.23	229.22
369.61	229.18
369.99	229.18
370.37	229.19
370.75	229.21
371.13	229.18
371.51	229.12
371.89	229.09
372.27	229.05
372.65	229.04
373.03	228.97
373.41	228.90
373.78	228.88
374.16	228.77
374.54	228.68
374.92	228.59
375.30	228.59
375.68	228.50
376.06	228.46
376.44	228.39
376.82	228.35
377.19	228.30
377.57	228.27
377.95	228.14
378.33	228.03
378.71	227.92
379.09	227.86
379.47	227.81
379.84	227.75
380.22	227.66
380.60	227.55
380.98	227.48
381.36	227.42
381.73	227.33
382.11	227.31
382.49	227.25
382.87	227.22
383.25	227.12
383.62	227.20
384.00	227.13
384.38	227.12
384.76	227.10
385.13	227.08
385.51	227.01
385.89	226.97
386.27	226.91
386.64	226.88
387.02	226.80
387.40	226.74
387.78	226.72
388.15	226.69
388.53	226.64
388.91	226.63
389.29	226.56
389.66	226.56
390.04	226.52
390.42	226.49
390.79	226.45
391.17	226.42
391.55	226.28
391.92	226.24
392.30	226.21
392.68	226.17
393.05	226.13
393.43	226.12
393.81	226.14
394.18	226.15
394.56	226.14
394.94	226.18
395.31	226.19
395.69	226.23
396.06	226.29
396.44	226.35
396.82	226.34
397.19	226.45
397.57	226.44
397.95	226.49
398.32	226.51
398.70	226.59
399.07	226.68
399.45	226.72
399.82	226.81
400.20	226.88
400.58	226.94
400.95	226.98
401.33	227.11
401.70	227.26
402.08	227.36
402.45	227.47
402.83	227.60
403.20	227.73
403.58	227.80
403.95	227.92
404.33	228.06
404.71	228.22
405.08	228.42
405.46	228.56
405.83	228.70
406.21	228.84
406.58	229.00
406.96	229.14
407.33	229.32
407.70	229.50
408.08	229.77
408.45	230.00
408.83	230.26
409.20	230.42
409.58	230.59
409.95	230.84
410.33	231.11
410.70	231.34
411.08	231.63
411.45	231.93
411.82	232.23
412.20	232.55
412.57	232.93
412.95	233.22
413.32	233.66
413.69	234.07
414.07	234.53
414.44	234.96
414.82	235.45
415.19	235.99
415.56	236.54
415.94	237.10
416.31	237.74
416.68	238.34
417.06	239.09
417.43	239.78
417.81	240.58
418.18	241.36
418.55	242.23
418.93	243.12
419.30	244.02
419.67	244.95
420.04	245.94
420.42	246.93
420.79	248.11
421.16	249.24
421.54	250.44
421.91	251.64
422.28	252.93
422.66	254.28
423.03	255.61
423.40	256.93
423.77	258.32
424.15	259.72
424.52	261.21
424.89	262.83
425.26	264.38
425.64	265.80
426.01	267.39
426.38	269.04
426.75	270.73
427.13	272.45
427.50	274.28
427.87	276.14
428.24	278.02
428.61	279.70
428.99	281.62
429.36	283.72
429.73	285.79
430.10	287.78
430.47	289.84
430.85	291.93
431.22	294.17
431.59	296.54
431.96	298.84
432.33	301.36
432.70	303.72
433.08	306.51
433.45	309.13
433.82	311.76
434.19	314.69
434.56	317.43
434.93	320.08
435.30	322.67
435.68	325.57
436.05	328.40
436.42	331.22
436.79	333.79
437.16	336.50
437.53	339.31
437.90	342.14
438.27	344.86
438.64	347.67
439.01	350.26
439.38	352.48
439.75	354.62
440.13	357.08
440.50	359.41
440.87	361.28
441.24	363.23
441.61	365.37
441.98	366.77
442.35	368.55
442.72	370.41
443.09	372.25
443.46	373.23
443.83	373.77
444.20	374.27
444.57	375.07
444.94	375.31
445.31	375.65
445.68	375.98
446.05	376.09
446.42	375.74
446.79	375.33
447.16	374.88
447.53	374.52
447.90	373.35
448.27	372.16
448.64	370.59
449.01	369.48
449.37	367.47
449.74	365.59
450.11	363.37
450.48	360.91
450.85	358.34
451.22	356.18
451.59	354.15
451.96	352.19
452.33	349.59
452.70	347.23
453.07	344.40
453.43	341.47
453.80	338.70
454.17	335.99
454.54	333.45
454.91	330.70
455.28	328.04
455.65	325.59
456.02	323.16
456.38	320.96
456.75	318.27
457.12	316.02
457.49	313.78
457.86	311.63
458.23	309.77
458.59	307.72
458.96	305.65
459.33	303.84
459.70	302.01
460.07	300.51
460.43	298.81
460.80	297.21
461.17	295.82
461.54	294.32
461.91	292.93
462.27	291.49
462.64	290.26
463.01	288.93
463.38	287.63
463.74	286.24
464.11	285.12
464.48	284.10
464.85	283.03
465.21	282.19
465.58	281.28
465.95	280.19
466.32	279.29
466.68	278.39
467.05	277.49
467.42	276.58
467.78	275.68
468.15	274.82
468.52	274.18
468.88	273.31
469.25	272.54
469.62	271.88
469.98	271.22
470.35	270.57
470.72	269.98
471.08	269.30
471.45	268.79
471.82	268.23
472.18	267.66
472.55	267.21
472.92	266.72
473.28	266.26
473.65	265.80
474.02	265.36
474.38	264.98
474.75	264.70
475.11	264.39
475.48	264.13
475.85	263.88
476.21	263.65
476.58	263.49
476.94	263.38
477.31	263.20
477.67	263.05
478.04	262.97
478.41	262.91
478.77	262.96
479.14	262.87
479.50	262.87
479.87	262.96
480.23	263.02
480.60	263.08
480.96	263.17
481.33	263.42
481.69	263.65
482.06	263.90
482.42	264.04
482.79	264.28
483.15	264.61
483.52	265.00
483.88	265.30
484.25	265.67
484.61	266.09
484.98	266.58
485.34	267.16
485.71	267.74
486.07	268.36
486.44	268.94
486.80	269.65
487.17	270.42
487.53	271.21
487.90	272.09
488.26	273.00
488.62	273.97
488.99	274.92
489.35	275.93
489.72	277.04
490.08	278.27
490.44	279.50
490.81	280.83
491.17	282.17
491.54	283.70
491.90	285.22
492.26	286.86
492.63	288.56
492.99	290.31
493.36	292.23
493.72	294.24
494.08	296.32
494.45	298.55
494.81	300.92
495.17	303.34
495.54	305.90
495.90	308.61
496.26	311.44
496.63	314.35
496.99	317.45
497.35	320.69
497.72	324.07
498.08	327.58
498.44	331.25
498.80	335.22
499.17	339.26
499.53	343.49
499.89	347.91
500.26	352.40
500.62	357.07
500.98	362.05
501.34	367.13
501.71	372.50
502.07	377.98
502.43	383.58
502.79	389.44
503.16	395.51
503.52	401.79
503.88	408.23
504.24	414.91
504.60	421.82
504.97	428.97
505.33	436.32
505.69	444.04
506.05	451.84
506.41	459.71
506.78	467.90
507.14	476.34
507.50	485.01
507.86	494.11
508.22	503.30
508.59	512.50
508.95	522.14
509.31	531.89
509.67	542.02
510.03	552.33
510.39	562.85
510.75	573.67
511.12	584.58
511.48	595.83
511.84	607.31
512.20	618.85
512.56	630.74
512.92	642.97
513.28	655.30
513.64	667.82
514.00	680.50
514.37	693.40
514.73	706.41
515.09	719.49
515.45	732.73
515.81	746.28
516.17	760.30
516.53	774.33
516.89	788.55
517.25	802.66
517.61	817.06
517.97	831.55
518.33	845.96
518.69	860.82
519.05	875.83
519.41	890.92
519.77	906.40
520.13	921.89
520.49	937.19
520.85	952.60
521.21	968.30
521.57	984.60
521.93	1000.40
522.29	1016.77
522.65	1032.96
523.01	1049.16
523.37	1065.29
523.73	1081.35
524.09	1097.40
524.45	1113.66
524.81	1130.19
525.17	1147.01
525.53	1163.84
525.89	1180.68
526.25	1197.38
526.61	1213.73
526.97	1230.53
527.33	1247.10
527.68	1263.64
528.04	1280.10
528.40	1296.61
528.76	1313.63
529.12	1330.18
529.48	1346.92
529.84	1362.96
530.20	1379.57
530.56	1396.58
530.91	1413.98
531.27	1430.74
531.63	1447.24
531.99	1463.88
532.35	1479.88
532.71	1495.69
533.07	1511.99
533.42	1527.85
533.78	1543.96
534.14	1560.14
534.50	1575.51
534.86	1591.25
535.21	1606.43
535.57	1622.30
535.93	1637.92
536.29	1652.57
536.65	1667.51
537.00	1682.25
537.36	1697.55
537.72	1712.06
538.08	1726.41
538.44	1739.98
538.79	1753.81
539.15	1767.42
539.51	1780.99
539.87	1795.33
540.22	1808.99
540.58	1822.67
540.94	1836.04
541.29	1848.83
541.65	1861.52
542.01	1874.60
542.37	1886.90
542.72	1899.25
543.08	1910.97
543.44	1923.32
543.79	1934.46
544.15	1945.45
544.51	1957.12
544.87	1967.88
545.22	1978.66
545.58	1988.75
545.94	1998.58
546.29	2008.39
546.65	2018.19
547.01	2027.45
547.36	2036.25
547.72	2044.67
548.07	2052.39
548.43	2060.33
548.79	2068.35
549.14	2075.94
549.50	2083.22
549.86	2090.93
550.21	2098.32
550.57	2105.52
550.92	2112.01
551.28	2119.17
551.64	2126.13
551.99	2132.59
552.35	2138.86
552.70	2145.00
553.06	2151.00
553.41	2157.26
553.77	2163.40
554.13	2169.60
554.48	2175.89
554.84	2181.17
555.19	2186.54
555.55	2191.76
555.90	2196.31
556.26	2201.11
556.61	2205.78
556.97	2210.06
557.32	2214.06
557.68	2218.16
558.03	2222.53
558.39	2226.24
558.74	2230.83
559.10	2234.85
559.45	2238.51
559.81	2242.81
560.16	2246.66
560.52	2250.04
560.87	2253.52
561.23	2256.23
561.58	2259.12
561.94	2261.48
562.29	2263.90
562.64	2266.62
563.00	2269.24
563.35	2272.86
563.71	2276.12
564.06	2279.47
564.42	2282.29
564.77	2284.88
565.12	2287.20
565.48	2289.18
565.83	2291.07
566.19	2292.34
566.54	2293.38
566.89	2294.54
567.25	2295.16
567.60	2296.52
567.96	2298.19
568.31	2299.07
568.66	2300.10
569.02	2300.66
569.37	2300.96
569.72	2301.91
570.08	2302.09
570.43	2302.10
570.78	2301.30
571.14	2299.66
571.49	2298.11
571.84	2297.75
572.20	2296.62
572.55	2295.52
572.90	2293.86
573.26	2292.35
573.61	2290.70
573.96	2288.76
574.31	2285.84
574.67	2282.91
575.02	2279.23
575.37	2275.76
575.72	2271.87
576.08	2268.45
576.43	2265.15
576.78	2261.54
577.13	2258.40
577.49	2255.13
577.84	2251.71
578.19	2248.21
578.54	2244.53
578.90	2240.34
579.25	2234.73
579.60	2229.81
579.95	2224.78
580.30	2219.77
580.66	2214.68
581.01	2209.83
581.36	2204.97
581.71	2200.72
582.06	2196.07
582.42	2191.47
582.77	2186.26
583.12	2181.79
583.47	2177.14
583.82	2172.02
584.17	2166.70
584.53	2161.15
584.88	2155.64
585.23	2149.82
585.58	2144.29
585.93	2138.88
586.28	2134.15
586.63	2129.17
586.98	2124.04
587.34	2119.29
587.69	2114.31
588.04	2109.03
588.39	2103.25
588.74	2096.70
589.09	2090.49
589.44	2083.80
589.79	2077.98
590.14	2072.49
590.49	2065.85
590.84	2059.46
591.19	2053.56
591.54	2047.17
591.89	2039.67
592.25	2032.86
592.60	2025.65
592.95	2018.03
593.30	2010.70
593.65	2003.08
594.00	1996.21
594.35	1989.02
594.70	1981.04
595.05	1973.74
595.40	1966.57
595.75	1959.10
596.10	1953.01
596.45	1946.42
596.80	1940.26
597.15	1933.55
597.50	1926.26
597.85	1919.90
598.19	1913.22
598.54	1906.02
598.89	1899.47
599.24	1893.69
599.59	1886.94
599.94	1880.77
600.29	1874.41
600.64	1867.89
600.99	1860.54
601.34	1853.58
601.69	1846.68
602.04	1839.91
602.39	1832.71
602.74	1825.90
603.08	1819.33
603.43	1812.51
603.78	1805.26
604.13	1798.10
604.48	1790.75
604.83	1783.97
605.18	1776.97
605.53	1769.04
605.87	1761.12
606.22	1753.88
606.57	1745.98
606.92	1738.75
607.27	1731.54
607.62	1724.69
607.96	1717.34
608.31	1710.64
608.66	1703.05
609.01	1695.54
609.36	1687.89
609.70	1679.98
610.05	1671.89
610.40	1664.09
610.75	1655.69
611.10	1647.82
611.44	1639.36
611.79	1631.38
612.14	1622.68
612.49	1613.68
612.83	1605.26
613.18	1597.00
613.53	1588.78
613.88	1580.22
614.22	1571.84
614.57	1563.28
614.92	1555.29
615.27	1547.77
615.61	1539.43
615.96	1531.48
616.31	1523.76
616.65	1516.40
617.00	1508.90
617.35	1501.20
617.70	1492.69
618.04	1484.20
618.39	1476.01
618.74	1468.38
619.08	1460.25
619.43	1452.65
619.78	1445.61
620.12	1438.43
620.47	1431.04
620.82	1423.01
621.16	1415.61
621.51	1408.01
621.85	1400.39
622.20	1391.95
622.55	1383.56
622.89	1375.85
623.24	1368.32
623.59	1360.95
623.93	1353.41
624.28	1346.05
624.62	1338.49
624.97	1331.47
625.32	1324.76
625.66	1317.76
626.01	1310.65
626.35	1303.07
626.70	1295.39
627.04	1287.65
627.39	1279.90
627.73	1272.57
628.08	1265.62
628.43	1258.30
628.77	1250.96
629.12	1243.38
629.46	1236.10
629.81	1228.77
630.15	1221.42
630.50	1213.94
630.84	1205.76
631.19	1197.82
631.53	1190.30
631.88	1182.68
632.22	1175.12
632.57	1167.82
632.91	1160.30
633.26	1152.79
633.60	1145.44
633.95	1138.40
634.29	1131.39
634.64	1124.77
634.98	1117.30
635.32	1110.22
635.67	1103.59
636.01	1097.05
636.36	1090.21
636.70	1083.62
637.05	1076.99
637.39	1070.62
637.73	1064.10
638.08	1058.18
638.42	1052.15
638.77	1045.74
639.11	1039.25
639.45	1032.85
639.80	1026.17
640.14	1019.74
640.49	1013.22
640.83	1006.89
641.17	1000.57
641.52	994.25
641.86	987.74
642.20	981.85
642.55	975.51
642.89	968.97
643.23	962.37
643.58	956.70
643.92	950.54
644.26	944.46
644.61	938.31
644.95	932.23
645.29	925.68
645.64	918.97
645.98	912.59
646.32	906.80
646.66	900.76
647.01	894.92
647.35	889.20
647.69	883.41
648.04	877.96
648.38	872.15
648.72	866.11
649.06	860.03
649.41	854.17
649.75	848.11
650.09	842.24
650.43	836.43
650.78	830.18
651.12	824.25
651.46	818.51
651.80	812.77
652.14	807.40
652.49	801.99
652.83	796.82
653.17	791.06
653.51	785.25
653.85	779.79
654.20	774.20
654.54	768.26
654.88	762.49
655.22	756.55
655.56	750.88
655.90	745.47
656.25	740.20
656.59	734.87
656.93	729.92
657.27	724.75
657.61	719.35
657.95	714.27
658.29	709.21
658.64	704.06
658.98	698.75
659.32	693.24
659.66	688.06
660.00	682.71
660.34	677.84
660.68	672.96
661.02	667.97
661.36	663.27
661.70	658.76
662.05	654.44
662.39	650.12
662.73	645.64
663.07	641.25
663.41	636.80
663.75	632.29
664.09	627.60
664.43	623.20
664.77	619.05
665.11	614.83
665.45	610.68
665.79	606.56
666.13	602.51
666.47	598.53
666.81	594.31
667.15	590.22
667.49	586.32
667.83	582.52
668.17	578.56
668.51	574.49
668.85	570.43
669.19	566.58
669.53	562.70
669.87	558.87
670.21	555.13
670.55	551.45
670.89	548.02
671.23	544.60
671.57	541.11
671.91	537.61
672.25	534.06
672.58	530.59
672.92	527.20
673.26	524.05
673.60	520.79
673.94	517.72
674.28	514.81
674.62	511.84
674.96	508.75
675.30	505.82
675.64	502.89
675.97	500.15
676.31	497.26
676.65	494.33
676.99	491.59
677.33	488.77
677.67	485.96
678.01	482.96
678.34	479.93
678.68	477.05
679.02	474.21
679.36	471.46
679.70	468.74
680.04	465.93
680.37	462.98
680.71	460.22
681.05	457.62
681.39	454.91
681.73	452.27
682.06	449.67
682.40	447.13
682.74	444.54
683.08	441.99
683.42	439.36
683.75	436.91
684.09	434.38
684.43	431.93
684.77	429.50
685.10	427.12
685.44	424.87
685.78	422.59
686.12	420.38
686.45	418.12
686.79	415.77
687.13	413.63
687.46	411.48
687.80	409.30
688.14	407.05
688.48	404.99
688.81	402.70
689.15	400.60
689.49	398.47
689.82	396.46
690.16	394.34
690.50	392.42
690.83	390.44
691.17	388.44
691.51	386.54
691.84	384.70
692.18	382.79
692.52	380.81
692.85	378.88
693.19	377.01
693.52	375.20
693.86	373.38
694.20	371.58
694.53	369.80
694.87	367.96
695.21	366.21
695.54	364.38
695.88	362.69
696.21	360.94
696.55	359.27
696.88	357.59
697.22	355.92
697.56	354.28
697.89	352.65
698.23	351.03
698.56	349.42
698.90	347.79
699.23	346.10
699.57	344.52
699.90	342.98
700.24	341.39
700.58	339.83
700.91	338.33
701.25	336.93
701.58	335.54
701.92	334.18
702.25	332.78
702.59	331.43
702.92	330.12
703.26	328.85
703.59	327.55
703.93	326.38
704.26	325.16
704.60	323.89
704.93	322.57
705.26	321.33
705.60	320.13
705.93	319.00
706.27	318.00
706.60	316.96
706.94	315.86
707.27	314.74
707.61	313.67
707.94	312.66
708.27	311.50
708.61	310.41
708.94	309.45
709.28	308.47
709.61	307.48
709.94	306.54
710.28	305.48
710.61	304.52
710.95	303.41
711.28	302.46
711.61	301.48
711.95	300.61
712.28	299.68
712.61	298.72
712.95	297.80
713.28	296.92
713.61	296.00
713.95	295.13
714.28	294.31
714.61	293.45
714.95	292.60
715.28	291.79
715.61	290.96
715.95	290.09
716.28	289.25
716.61	288.45
716.95	287.60
717.28	286.88
717.61	286.11
717.94	285.36
718.28	284.58
718.61	283.94
718.94	283.25
719.27	282.61
719.61	281.91
719.94	281.23
720.27	280.53
720.60	279.87
720.94	279.21
721.27	278.62
721.60	278.06
721.93	277.49
722.27	276.92
722.60	276.34
722.93	275.77
723.26	275.28
723.59	274.72
723.93	274.19
724.26	273.59
724.59	273.03
724.92	272.48
725.25	271.99
725.59	271.42
725.92	270.89
726.25	270.39
726.58	269.93
726.91	269.47
727.24	269.03
727.57	268.58
727.91	268.10
728.24	267.66
728.57	267.16
728.90	266.67
729.23	266.20
729.56	265.76
729.89	265.30
730.22	264.78
730.55	264.31
730.89	263.88
731.22	263.46
731.55	263.02
731.88	262.64
732.21	262.20
732.54	261.79
732.87	261.37
733.20	260.96
733.53	260.57
733.86	260.18
734.19	259.75
734.52	259.35
734.85	259.07
735.18	258.62
735.51	258.25
735.84	257.90
736.17	257.55
736.50	257.17
736.83	256.96
737.16	256.64
737.49	256.34
737.82	255.99
738.15	255.68
738.48	255.37
738.81	255.05
739.14	254.76
739.47	254.42
739.80	254.10
740.13	253.77
740.46	253.48
740.79	253.15
741.12	252.86
741.45	252.55
741.78	252.17
742.11	251.90
742.44	251.62
742.77	251.30
743.10	251.00
743.43	250.69
743.75	250.27
744.08	250.12
744.41	249.81
744.74	249.53
745.07	249.25
745.40	249.00
745.73	248.73
746.06	248.39
746.39	248.15
746.71	247.91
747.04	247.61
747.37	247.32
747.70	247.05
748.03	246.79
748.36	246.58
748.68	246.34
749.01	246.08
749.34	245.82
749.67	245.61
750.00	245.34
750.33	245.16
750.65	244.99
750.98	244.65
751.31	244.42
751.64	244.19
751.97	244.01
752.29	243.79
752.62	243.55
752.95	243.34
753.28	243.11
753.60	242.85
753.93	242.70
754.26	242.47
754.59	242.28
754.91	242.06
755.24	241.84
755.57	241.62
755.90	241.46
756.22	241.25
756.55	241.03
756.88	240.89
757.20	240.62
757.53	240.35
757.86	240.16
758.19	240.01
758.51	239.86
758.84	239.63
759.17	239.42
759.49	239.27
759.82	239.18
760.15	239.01
760.47	238.88
760.80	238.69
761.13	238.60
761.45	238.41
761.78	238.25
762.11	238.14
762.43	238.00
762.76	237.83
763.08	237.70
763.41	237.58
763.74	237.44
764.06	237.34
764.39	237.25
764.71	237.13
765.04	237.01
765.37	236.86
765.69	236.74
766.02	236.63
766.34	236.50
766.67	236.32
767.00	236.29
767.32	236.24
767.65	236.21
767.97	236.09
768.30	236.01
768.62	235.92
768.95	235.77
769.27	235.70
769.60	235.63
769.92	235.53
770.25	235.42
770.57	235.31
770.90	235.21
771.22	235.12
771.55	235.04
771.87	234.92
772.20	234.84
772.52	234.86
772.85	234.90
773.17	234.81
773.50	234.76
773.82	234.62
774.15	234.45
774.47	234.30
774.80	234.21
775.12	234.13
775.45	234.06
775.77	234.01
776.09	233.93
776.42	233.85
776.74	233.78
777.07	233.68
777.39	233.60
777.72	233.54
778.04	233.49
778.36	233.41
778.69	233.35
779.01	233.29
779.33	233.09
779.66	232.92
779.98	232.88
780.31	232.81
780.63	232.80
780.95	232.77
781.28	232.70
781.60	232.63
781.92	232.57
782.25	232.52
782.57	232.44
782.89	232.38
783.22	232.30
783.54	232.23
783.86	232.21
784.19	232.16
784.51	232.13
784.83	232.03
785.16	231.96
785.48	231.92
785.80	231.86
786.12	231.82
786.45	231.76
786.77	231.67
787.09	231.60
787.42	231.52
787.74	231.47
788.06	231.45
788.38	231.39
788.71	231.34
789.03	231.30
789.35	231.24
789.67	231.18
789.99	231.15
790.32	231.08
790.64	231.05
790.96	231.09
791.28	231.02
791.61	230.95
791.93	230.92
792.25	230.87
792.57	230.88
792.89	230.84
793.21	230.78
793.54	230.75
793.86	230.70
794.18	230.67
794.50	230.61
794.82	230.56
795.14	230.54
795.47	230.50
795.79	230.48
796.11	230.47
796.43	230.43
796.75	230.41
797.07	230.38
797.39	230.34
797.71	230.26
798.04	230.21
798.36	230.17
798.68	230.12
799.00	230.13
799.32	230.03
799.64	230.02
799.96	230.01
800.28	229.98
800.60	229.95
800.92	229.95
801.24	229.90
801.56	229.87
801.89	229.87
802.21	229.84
802.53	229.78
802.85	229.74
803.17	229.74
803.49	229.66
803.81	229.63
804.13	229.60
804.45	229.54
804.77	229.54
805.09	229.59
805.41	229.59
805.73	229.54
806.05	229.52
806.37	229.47
806.69	229.42
807.01	229.42
807.33	229.42
807.65	229.32
807.97	229.35
808.28	229.30
808.60	229.25
808.92	229.24
809.24	229.27
809.56	229.25
809.88	229.23
810.20	229.24
810.52	229.24
810.84	229.23
811.16	229.20
811.48	229.18
811.80	229.16
812.12	229.11
812.43	229.08
812.75	229.08
813.07	229.06
813.39	229.09
813.71	229.05
814.03	229.03
814.35	229.05
814.67	228.99
814.98	229.00
815.30	229.01
815.62	228.97
815.94	228.89
816.26	228.91
816.58	228.85
816.89	228.83
817.21	228.80
817.53	228.78
817.85	228.74
818.17	228.71
818.48	228.65
818.80	228.65
819.12	228.63
819.44	228.58
819.76	228.56
820.07	228.51
820.39	228.50
820.71	228.47
821.03	228.43
821.34	228.44
821.66	228.42
821.98	228.41
822.30	228.39
822.61	228.45
822.93	228.37
823.25	228.38
823.57	228.31
823.88	228.33
824.20	228.30
824.52	228.32
824.83	228.29
825.15	228.28
825.47	228.26
825.79	228.24
826.10	228.23
826.42	228.22
826.74	228.20
827.05	228.19
827.37	228.15
827.69	228.13
828.00	228.09
828.32	228.05
828.64	228.00
828.95	228.03
829.27	227.98
829.58	227.96
829.90	227.97
830.22	227.99
830.53	227.96
830.85	227.96
831.17	227.93
831.48	227.93
831.80	227.93
832.11	227.94
832.43	227.92
832.75	227.90
833.06	227.94
833.38	227.94
833.69	227.92
834.01	227.96
834.32	227.94
834.64	227.89
834.96	227.92
835.27	227.93
835.59	227.87
835.90	227.84
836.22	227.84
836.53	227.78
836.85	227.76
837.16	227.85
837.48	227.85
837.79	227.83
838.11	227.83
838.42	227.79
838.74	227.78
839.05	227.77
839.37	227.77
839.68	227.67
840.00	227.65
840.31	227.65
840.63	227.62
840.94	227.61
841.26	227.62
841.57	227.61
841.88	227.58
842.20	227.58
842.51	227.56
842.83	227.58
843.14	227.67
843.46	227.68
843.77	227.63
844.08	227.60
844.40	227.58
844.71	227.56
845.03	227.56
845.34	227.53
845.65	227.52
845.97	227.51
846.28	227.57
846.60	227.55
846.91	227.55
847.22	227.54
847.54	227.56
847.85	227.54
848.16	227.54
848.48	227.51
848.79	227.56
849.10	227.55
849.42	227.53
849.73	227.47
850.04	227.45
850.36	227.41
850.67	227.42
850.98	227.45
851.30	227.45
851.61	227.44
851.92	227.46
852.23	227.49
852.55	227.50
852.86	227.45
853.17	227.46
853.49	227.49
853.80	227.47
854.11	227.45
854.42	227.46
854.74	227.39
855.05	227.42
855.36	227.35
855.67	227.32
855.99	227.31
856.30	227.37
856.61	227.35
856.92	227.37
857.23	227.35
857.55	227.33
857.86	227.32
858.17	227.35
858.48	227.33
858.79	227.31
859.11	227.32
859.42	227.30
859.73	227.30
860.04	227.29
860.35	227.26
860.66	227.26
860.98	227.27
861.29	227.33
861.60	227.29
861.91	227.30
862.22	227.33
862.53	227.34
862.84	227.25
863.16	227.30
863.47	227.21
863.78	227.22
864.09	227.23
864.40	227.23
864.71	227.19
865.02	227.18
865.33	227.14
865.64	227.12
865.95	227.13
866.27	227.22
866.58	227.17
866.89	227.18
867.20	227.20
867.51	227.19
867.82	227.17
868.13	227.23
868.44	227.19
868.75	227.19
869.06	227.20
869.37	227.20
869.68	227.13
869.99	227.18
870.30	227.19
870.61	227.18
870.92	227.16
871.23	227.15
871.54	227.16
871.85	227.17
872.16	227.18
872.47	227.22
872.78	227.13
873.09	227.14
873.40	227.13
873.71	227.12
874.02	227.09
874.33	227.09
874.64	227.02
874.95	227.07
875.26	227.07
875.56	227.02
875.87	226.99
876.18	226.99
876.49	227.10
876.80	227.06
877.11	227.02
877.42	227.03
877.73	227.03
878.04	227.01
878.35	227.03
878.66	227.02
878.96	226.98
879.27	226.97
879.58	226.97
879.89	226.98
880.20	226.98
880.51	226.99
880.82	226.99
881.12	227.05
881.43	227.02
881.74	227.02
882.05	227.03
882.36	227.04
882.67	227.07
882.97	226.97
883.28	226.97
883.59	226.98
883.90	226.99
884.21	227.02
884.51	227.02
884.82	227.02
885.13	227.04
885.44	227.04
885.74	227.05
886.05	227.04
886.36	227.04
886.67	227.00
886.98	227.06
887.28	227.05
887.59	227.04
887.90	227.04
888.20	227.07
888.51	227.08
888.82	227.07
889.13	227.04
889.43	227.13
889.74	227.14
890.05	227.14
890.35	227.15
890.66	227.13
890.97	227.12
891.28	227.11
891.58	227.10
891.89	227.11
892.20	227.09
892.50	227.08
892.81	227.07
893.12	227.12
893.42	227.08
893.73	227.09
894.04	227.10
894.34	227.13
894.65	227.06
894.95	227.08
895.26	227.10
895.57	227.17
895.87	227.07
896.18	227.07
896.48	227.10
896.79	227.08
897.10	227.11
897.40	227.13
897.71	227.15
898.01	227.16
898.32	227.17
898.63	227.16
898.93	227.16
899.24	227.22
899.54	227.24
899.85	227.23
900.15	227.21
900.46	227.18
900.76	227.16
901.07	227.19
901.38	227.18
901.68	227.19
901.99	227.16
902.29	227.15
902.60	227.16
902.90	227.11
903.21	227.10
903.51	227.08
903.82	227.06
904.12	227.05
904.43	226.98
904.73	226.96
905.03	227.00
905.34	227.07
905.64	227.01
905.95	226.97
906.25	226.95
906.56	226.98
906.86	226.98
907.17	226.98
907.47	226.96
907.77	226.94
908.08	226.88
908.38	226.89
908.69	226.91
908.99	226.91
909.30	226.94
909.60	226.95
909.90	226.96
910.21	226.95
910.51	226.93
910.81	226.97
911.12	226.98
911.42	226.93
911.73	226.83
912.03	226.83
912.33	226.88
912.64	226.86
912.94	226.83
913.24	226.82
913.55	226.82
913.85	226.82
914.15	226.85
914.46	226.88
914.76	226.82
915.06	226.77
915.37	226.74
915.67	226.75
915.97	226.72
916.27	226.68
916.58	226.71
916.88	226.71
917.18	226.70
917.49	226.75
917.79	226.76
918.09	226.80
918.39	226.82
918.70	226.78
919.00	226.78
919.30	226.82
919.60	226.83
919.91	226.80
920.21	226.84
920.51	226.79
920.81	226.80
921.12	226.85
921.42	226.87
921.72	226.90
922.02	226.88
922.32	226.90
922.63	226.92
922.93	226.96
923.23	226.98
923.53	226.96
923.83	226.90
924.13	226.93
924.44	226.91
924.74	226.95
925.04	226.98
925.34	227.00
925.64	226.93
925.94	226.93
926.24	227.00
926.55	226.95
926.85	226.98
927.15	226.96
927.45	226.94
927.75	226.96
928.05	226.98
928.35	227.00
928.65	227.03
928.95	227.01
929.26	226.95
929.56	226.95
929.86	226.97
930.16	226.99
930.46	226.97
930.76	226.95
931.06	226.90
931.36	226.87
931.66	226.87
931.96	226.94
932.26	226.93
932.56	226.90
932.86	226.89
933.16	226.89
933.46	226.92
933.76	226.91
934.06	226.92
934.36	226.95
934.66	226.94
934.96	226.93
935.26	226.97
935.56	227.03
935.86	227.02
936.16	226.99
936.46	227.00
936.76	227.00
937.06	227.05
937.36	227.04
937.66	227.06
937.96	227.05
938.26	227.00
938.56	227.01
938.86	226.98
939.16	227.02
939.46	227.00
939.76	226.99
940.06	226.96
940.35	226.94
940.65	226.89
940.95	226.87
941.25	226.84
941.55	226.82
941.85	226.80
942.15	226.80
942.45	226.82
942.75	226.82
943.04	226.79
943.34	226.79
943.64	226.79
943.94	226.76
944.24	226.76
944.54	226.79
944.84	226.78
945.13	226.80
945.43	226.77
945.73	226.78
946.03	226.74
946.33	226.76
946.62	226.75
946.92	226.74
947.22	226.76
947.52	226.74
947.82	226.73
948.11	226.71
948.41	226.71
948.71	226.70
949.01	226.66
949.31	226.68
949.60	226.66
949.90	226.67
950.20	226.67
950.50	226.70
950.79	226.68
951.09	226.71
951.39	226.69
951.69	226.67
951.98	226.68
952.28	226.71
952.58	226.70
952.87	226.69
953.17	226.72
953.47	226.71
953.76	226.73
954.06	226.72
954.36	226.72
954.66	226.72
954.95	226.75
955.25	226.79
955.55	226.78
955.84	226.76
956.14	226.77
956.44	226.80
956.73	226.77
957.03	226.80
957.32	226.78
957.62	226.81
957.92	226.85
958.21	226.85
958.51	226.96
958.81	226.95
959.10	226.98
959.40	226.96
959.69	226.96
959.99	226.98
960.29	226.99
960.58	226.98
960.88	227.02
961.17	227.00
961.47	226.98
961.76	226.98
962.06	227.03
962.36	227.02
962.65	227.02
962.95	227.01
963.24	227.00
963.54	227.02
963.83	226.99
964.13	226.96
964.42	226.94
964.72	226.85
965.01	226.87
965.31	226.85
965.60	226.81
965.90	226.87
966.19	226.84
966.49	226.84
966.78	226.82
967.08	226.78
967.37	226.78
967.67	226.78
967.96	226.80
968.26	226.75
968.55	226.76
968.85	226.76
969.14	226.75
969.43	226.75
969.73	226.75
970.02	226.76
970.32	226.76
970.61	226.76
970.91	226.75
971.20	226.75
971.49	226.75
971.79	226.80
972.08	226.74
972.38	226.71
972.67	226.71
972.96	226.73
973.26	226.71
973.55	226.72
973.85	226.70
974.14	226.71
974.43	226.70
974.73	226.66
975.02	226.65
975.31	226.65
975.61	226.64
975.90	226.61
976.19	226.58
976.49	226.58
976.78	226.58
977.07	226.60
977.37	226.57
977.66	226.56
977.95	226.53
978.24	226.51
978.54	226.56
978.83	226.55
979.12	226.54
979.42	226.55
979.71	226.52
980.00	226.54
980.29	226.49
980.59	226.52
980.88	226.56
981.17	226.55
981.46	226.58
981.76	226.58
982.05	226.60
982.34	226.61
982.63	226.63
982.93	226.63
983.22	226.62
983.51	226.64
983.80	226.67
984.09	226.66
984.39	226.67
984.68	226.66
984.97	226.64
985.26	226.65
985.55	226.67
985.85	226.63
986.14	226.65
986.43	226.69
986.72	226.69
987.01	226.65
987.30	226.62
987.59	226.59
987.89	226.59
988.18	226.56
988.47	226.55
988.76	226.53
989.05	226.52
989.34	226.50
989.63	226.52
989.92	226.50
990.22	226.52
990.51	226.49
990.80	226.52
991.09	226.56
991.38	226.56
991.67	226.52
991.96	226.54
992.25	226.55
992.54	226.53
992.83	226.50
993.12	226.51
993.41	226.55
993.70	226.61
993.99	226.64
994.28	226.65
994.58	226.65
994.87	226.65
995.16	226.68
995.45	226.70
995.74	226.70
996.03	226.71
996.32	226.70
996.61	226.77
996.90	226.74
997.19	226.74
997.48	226.76
997.77	226.81
998.06	226.79
998.34	226.79
998.63	226.77
998.92	226.78
999.21	226.80
999.50	226.80
999.79	226.76
1000.08	226.74
1000.37	226.73
1000.66	226.70
1000.95	226.75
1001.24	226.72
1001.53	226.73
1001.82	226.74
1002.11	226.72
1002.40	226.74
1002.68	226.75
1002.97	226.80
1003.26	226.77
1003.55	226.72
1003.84	226.69
1004.13	226.74
1004.42	226.72
1004.71	226.75
1004.99	226.76
1005.28	226.76
1005.57	226.75
1005.86	226.75
1006.15	226.75
1006.44	226.76
1006.72	226.79
1007.01	226.77
1007.30	226.77
1007.59	226.74
1007.88	226.74
1008.17	226.74
1008.45	226.71
1008.74	226.68
1009.03	226.67
1009.32	226.68
1009.60	226.69
1009.89	226.68
1010.18	226.67
1010.47	226.64
1010.76	226.62
1011.04	226.62
1011.33	226.62
1011.62	226.62
1011.91	226.62
1012.19	226.59
1012.48	226.59
1012.77	226.60
1013.05	226.64
1013.34	226.61
1013.63	226.56
1013.92	226.53
1014.20	226.53
1014.49	226.50
1014.78	226.47
1015.06	226.43
1015.35	226.43
1015.64	226.45
1015.92	226.48
1016.21	226.47
1016.50	226.52
1016.78	226.51
1017.07	226.50
1017.36	226.49
1017.64	226.51
1017.93	226.54
1018.22	226.52
1018.50	226.55
1018.79	226.52
1019.08	226.46
1019.36	226.49
1019.65	226.51
1019.93	226.51
1020.22	226.54
1020.51	226.63
1020.79	226.63
1021.08	225.95
1021.36	226.90
1021.65	226.25
1021.94	226.14
1022.22	226.46
1022.51	226.27
1022.79	226.39
1023.08	226.85
1023.36	227.81
1023.65	226.35
>>>>>End Processed Spectral Data<<<<<
