SpectraSuite Data File
++++++++++++++++++++++++++++++++++++
Date: Fri Feb 01 16:04:23 EST 2013
User: group
Dark Spectrum Present: No
Reference Spectrum Present: No
Number of Sampled Component Spectra: 1
Spectrometers: USB2E7196
Integration Time (usec): 35000 (USB2E7196)
Spectra Averaged: 100 (USB2E7196)
Boxcar Smoothing: 10 (USB2E7196)
Correct for Electrical Dark: No (USB2E7196)
Strobe/Lamp Enabled: No (USB2E7196)
Correct for Detector Non-linearity: No (USB2E7196)
Correct for Stray Light: No (USB2E7196)
Number of Pixels in Processed Spectrum: 2048
>>>>>Begin Processed Spectral Data<<<<<
339.09	0.00
339.48	215.03
339.86	216.47
340.24	217.49
340.63	219.54
341.01	221.98
341.39	221.64
341.78	222.73
342.16	224.50
342.54	224.46
342.93	213.16
343.31	223.94
343.69	224.50
344.07	224.96
344.46	225.39
344.84	225.75
345.22	225.95
345.60	226.20
345.99	226.41
346.37	226.56
346.75	226.68
347.13	226.76
347.52	226.77
347.90	226.86
348.28	226.88
348.66	226.94
349.05	226.92
349.43	226.97
349.81	227.02
350.19	227.08
350.57	227.14
350.96	227.21
351.34	227.27
351.72	227.32
352.10	227.40
352.48	227.45
352.87	227.50
353.25	227.60
353.63	227.64
354.01	227.71
354.39	227.76
354.77	227.83
355.15	227.92
355.54	228.01
355.92	228.02
356.30	228.11
356.68	228.23
357.06	228.33
357.44	228.34
357.82	228.36
358.20	228.42
358.58	228.44
358.97	228.53
359.35	228.59
359.73	228.69
360.11	228.72
360.49	228.79
360.87	228.83
361.25	228.86
361.63	228.97
362.01	228.99
362.39	229.02
362.77	229.04
363.15	229.07
363.53	229.09
363.91	229.12
364.29	229.15
364.67	229.08
365.05	229.08
365.43	229.09
365.81	229.15
366.19	229.16
366.57	229.22
366.95	229.19
367.33	229.15
367.71	229.10
368.09	229.12
368.47	229.10
368.85	229.08
369.23	229.07
369.61	228.96
369.99	228.96
370.37	228.91
370.75	228.93
371.13	228.87
371.51	228.80
371.89	228.74
372.27	228.70
372.65	228.64
373.03	228.54
373.41	228.51
373.78	228.40
374.16	228.28
374.54	228.17
374.92	228.08
375.30	228.04
375.68	227.95
376.06	227.89
376.44	227.83
376.82	227.77
377.19	227.69
377.57	227.64
377.95	227.57
378.33	227.50
378.71	227.38
379.09	227.30
379.47	227.28
379.84	227.23
380.22	227.15
380.60	227.09
380.98	227.05
381.36	227.00
381.73	226.93
382.11	226.90
382.49	226.87
382.87	226.81
383.25	226.73
383.62	226.75
384.00	226.65
384.38	226.58
384.76	226.54
385.13	226.53
385.51	226.46
385.89	226.37
386.27	226.31
386.64	226.27
387.02	226.23
387.40	226.14
387.78	226.09
388.15	226.05
388.53	226.02
388.91	226.01
389.29	225.95
389.66	226.00
390.04	225.99
390.42	225.94
390.79	225.93
391.17	225.96
391.55	225.85
391.92	225.86
392.30	225.86
392.68	225.86
393.05	225.82
393.43	225.84
393.81	225.89
394.18	225.92
394.56	225.97
394.94	226.02
395.31	226.04
395.69	226.10
396.06	226.14
396.44	226.18
396.82	226.21
397.19	226.30
397.57	226.30
397.95	226.36
398.32	226.42
398.70	226.50
399.07	226.57
399.45	226.64
399.82	226.74
400.20	226.81
400.58	226.87
400.95	226.97
401.33	227.08
401.70	227.19
402.08	227.30
402.45	227.38
402.83	227.48
403.20	227.59
403.58	227.71
403.95	227.83
404.33	227.97
404.71	228.06
405.08	228.24
405.46	228.38
405.83	228.53
406.21	228.69
406.58	228.88
406.96	229.02
407.33	229.23
407.70	229.41
408.08	229.67
408.45	229.92
408.83	230.16
409.20	230.36
409.58	230.58
409.95	230.85
410.33	231.10
410.70	231.34
411.08	231.64
411.45	231.96
411.82	232.23
412.20	232.59
412.57	233.02
412.95	233.32
413.32	233.73
413.69	234.15
414.07	234.56
414.44	234.97
414.82	235.48
415.19	236.05
415.56	236.60
415.94	237.18
416.31	237.81
416.68	238.42
417.06	239.16
417.43	239.82
417.81	240.58
418.18	241.37
418.55	242.21
418.93	243.08
419.30	243.96
419.67	244.90
420.04	245.84
420.42	246.85
420.79	248.02
421.16	249.15
421.54	250.33
421.91	251.56
422.28	252.82
422.66	254.14
423.03	255.44
423.40	256.80
423.77	258.16
424.15	259.57
424.52	261.03
424.89	262.63
425.26	264.18
425.64	265.62
426.01	267.19
426.38	268.87
426.75	270.55
427.13	272.25
427.50	274.10
427.87	276.00
428.24	277.84
428.61	279.57
428.99	281.51
429.36	283.59
429.73	285.64
430.10	287.68
430.47	289.69
430.85	291.77
431.22	293.96
431.59	296.37
431.96	298.58
432.33	301.09
432.70	303.42
433.08	306.22
433.45	308.83
433.82	311.48
434.19	314.32
434.56	317.14
434.93	319.78
435.30	322.38
435.68	325.27
436.05	328.10
436.42	330.88
436.79	333.39
437.16	336.09
437.53	338.91
437.90	341.73
438.27	344.54
438.64	347.37
439.01	349.96
439.38	352.16
439.75	354.36
440.13	356.78
440.50	359.14
440.87	360.98
441.24	362.96
441.61	365.09
441.98	366.55
442.35	368.38
442.72	370.29
443.09	372.09
443.46	373.05
443.83	373.62
444.20	374.14
444.57	375.00
444.94	375.30
445.31	375.65
445.68	376.01
446.05	376.02
446.42	375.64
446.79	375.20
447.16	374.72
447.53	374.36
447.90	373.21
448.27	372.00
448.64	370.44
449.01	369.27
449.37	367.26
449.74	365.39
450.11	363.09
450.48	360.61
450.85	358.05
451.22	355.91
451.59	353.92
451.96	352.00
452.33	349.34
452.70	346.98
453.07	344.15
453.43	341.25
453.80	338.52
454.17	335.87
454.54	333.33
454.91	330.67
455.28	328.02
455.65	325.58
456.02	323.14
456.38	321.02
456.75	318.38
457.12	316.15
457.49	313.95
457.86	311.80
458.23	309.93
458.59	307.91
458.96	305.81
459.33	303.95
459.70	302.07
460.07	300.62
460.43	298.90
460.80	297.27
461.17	295.79
461.54	294.28
461.91	292.83
462.27	291.45
462.64	290.20
463.01	288.85
463.38	287.58
463.74	286.25
464.11	285.07
464.48	284.06
464.85	282.95
465.21	282.11
465.58	281.17
465.95	280.07
466.32	279.18
466.68	278.32
467.05	277.40
467.42	276.54
467.78	275.58
468.15	274.70
468.52	274.08
468.88	273.26
469.25	272.50
469.62	271.91
469.98	271.18
470.35	270.54
470.72	269.91
471.08	269.24
471.45	268.72
471.82	268.19
472.18	267.59
472.55	267.19
472.92	266.68
473.28	266.23
473.65	265.82
474.02	265.35
474.38	264.95
474.75	264.59
475.11	264.25
475.48	264.00
475.85	263.80
476.21	263.54
476.58	263.34
476.94	263.21
477.31	263.00
477.67	262.88
478.04	262.77
478.41	262.76
478.77	262.77
479.14	262.69
479.50	262.67
479.87	262.74
480.23	262.84
480.60	262.83
480.96	262.90
481.33	263.11
481.69	263.30
482.06	263.51
482.42	263.74
482.79	263.98
483.15	264.30
483.52	264.62
483.88	264.93
484.25	265.31
484.61	265.73
484.98	266.18
485.34	266.71
485.71	267.29
486.07	267.88
486.44	268.44
486.80	269.13
487.17	269.84
487.53	270.64
487.90	271.47
488.26	272.41
488.62	273.39
488.99	274.36
489.35	275.42
489.72	276.54
490.08	277.76
490.44	278.98
490.81	280.33
491.17	281.70
491.54	283.21
491.90	284.74
492.26	286.33
492.63	288.08
492.99	289.88
493.36	291.80
493.72	293.84
494.08	295.96
494.45	298.23
494.81	300.62
495.17	303.08
495.54	305.65
495.90	308.39
496.26	311.21
496.63	314.20
496.99	317.33
497.35	320.65
497.72	324.07
498.08	327.61
498.44	331.27
498.80	335.24
499.17	339.33
499.53	343.51
499.89	347.96
500.26	352.48
500.62	357.13
500.98	362.10
501.34	367.18
501.71	372.54
502.07	378.01
502.43	383.60
502.79	389.42
503.16	395.50
503.52	401.80
503.88	408.26
504.24	414.90
504.60	421.79
504.97	428.91
505.33	436.24
505.69	444.01
506.05	451.82
506.41	459.68
506.78	467.81
507.14	476.29
507.50	484.99
507.86	494.05
508.22	503.31
508.59	512.55
508.95	522.18
509.31	532.02
509.67	542.10
510.03	552.41
510.39	563.00
510.75	573.82
511.12	584.73
511.48	596.00
511.84	607.46
512.20	619.03
512.56	630.98
512.92	643.20
513.28	655.48
513.64	667.95
514.00	680.74
514.37	693.67
514.73	706.81
515.09	719.88
515.45	733.22
515.81	746.82
516.17	760.78
516.53	774.96
516.89	789.16
517.25	803.36
517.61	817.82
517.97	832.28
518.33	846.73
518.69	861.52
519.05	876.49
519.41	891.69
519.77	907.20
520.13	922.70
520.49	938.09
520.85	953.42
521.21	969.07
521.57	985.34
521.93	1001.10
522.29	1017.38
522.65	1033.55
523.01	1049.63
523.37	1065.63
523.73	1081.73
524.09	1097.72
524.45	1113.90
524.81	1130.54
525.17	1147.35
525.53	1164.23
525.89	1181.00
526.25	1197.81
526.61	1214.22
526.97	1230.81
527.33	1247.27
527.68	1263.88
528.04	1280.25
528.40	1296.84
528.76	1313.98
529.12	1330.46
529.48	1347.25
529.84	1363.28
530.20	1380.02
530.56	1397.13
530.91	1414.45
531.27	1431.26
531.63	1447.67
531.99	1464.36
532.35	1480.29
532.71	1496.05
533.07	1512.33
533.42	1528.26
533.78	1544.31
534.14	1560.50
534.50	1575.89
534.86	1591.75
535.21	1606.83
535.57	1622.67
535.93	1638.18
536.29	1652.87
536.65	1667.79
537.00	1682.49
537.36	1697.73
537.72	1712.05
538.08	1726.27
538.44	1739.95
538.79	1753.64
539.15	1767.24
539.51	1780.80
539.87	1794.99
540.22	1808.66
540.58	1822.21
540.94	1835.27
541.29	1848.04
541.65	1860.54
542.01	1873.60
542.37	1885.74
542.72	1897.92
543.08	1909.70
543.44	1921.96
543.79	1933.12
544.15	1944.05
544.51	1955.67
544.87	1966.57
545.22	1977.58
545.58	1987.76
545.94	1997.67
546.29	2007.54
546.65	2017.50
547.01	2026.85
547.36	2035.56
547.72	2044.10
548.07	2051.82
548.43	2060.17
548.79	2068.27
549.14	2075.94
549.50	2083.28
549.86	2090.99
550.21	2098.46
550.57	2105.62
550.92	2112.38
551.28	2119.47
551.64	2126.69
551.99	2133.16
552.35	2139.34
552.70	2145.45
553.06	2151.53
553.41	2157.80
553.77	2163.83
554.13	2169.83
554.48	2175.92
554.84	2181.39
555.19	2186.71
555.55	2192.09
555.90	2196.58
556.26	2201.31
556.61	2206.09
556.97	2210.43
557.32	2214.55
557.68	2218.67
558.03	2223.01
558.39	2226.71
558.74	2231.42
559.10	2235.20
559.45	2238.97
559.81	2243.34
560.16	2247.02
560.52	2250.35
560.87	2253.81
561.23	2256.46
561.58	2259.40
561.94	2261.94
562.29	2264.30
562.64	2266.83
563.00	2269.38
563.35	2272.88
563.71	2276.07
564.06	2279.16
564.42	2282.09
564.77	2284.63
565.12	2286.92
565.48	2288.87
565.83	2290.69
566.19	2291.89
566.54	2292.81
566.89	2293.90
567.25	2294.53
567.60	2295.87
567.96	2297.45
568.31	2298.34
568.66	2299.44
569.02	2300.06
569.37	2300.49
569.72	2301.39
570.08	2301.65
570.43	2301.68
570.78	2301.14
571.14	2299.61
571.49	2298.35
571.84	2297.97
572.20	2296.88
572.55	2295.79
572.90	2294.13
573.26	2292.67
573.61	2291.05
573.96	2289.30
574.31	2286.48
574.67	2283.36
575.02	2279.72
575.37	2276.44
575.72	2272.60
576.08	2269.45
576.43	2266.16
576.78	2262.33
577.13	2259.16
577.49	2256.09
577.84	2252.48
578.19	2248.78
578.54	2245.19
578.90	2241.11
579.25	2235.55
579.60	2230.60
579.95	2225.70
580.30	2220.73
580.66	2215.71
581.01	2210.81
581.36	2206.00
581.71	2201.76
582.06	2197.35
582.42	2192.92
582.77	2187.61
583.12	2183.01
583.47	2178.25
583.82	2173.33
584.17	2168.19
584.53	2162.79
584.88	2157.19
585.23	2151.43
585.58	2145.81
585.93	2140.40
586.28	2135.46
586.63	2130.47
586.98	2125.41
587.34	2120.70
587.69	2115.84
588.04	2110.46
588.39	2104.86
588.74	2098.29
589.09	2092.16
589.44	2085.42
589.79	2079.44
590.14	2073.90
590.49	2067.37
590.84	2060.95
591.19	2054.74
591.54	2048.24
591.89	2040.87
592.25	2034.10
592.60	2027.04
592.95	2019.62
593.30	2012.25
593.65	2004.75
594.00	1997.82
594.35	1990.64
594.70	1982.57
595.05	1975.38
595.40	1968.16
595.75	1960.53
596.10	1954.43
596.45	1947.68
596.80	1941.57
597.15	1935.00
597.50	1927.87
597.85	1921.33
598.19	1914.79
598.54	1907.72
598.89	1901.20
599.24	1895.42
599.59	1888.71
599.94	1882.51
600.29	1876.24
600.64	1869.66
600.99	1862.21
601.34	1855.24
601.69	1848.34
602.04	1841.48
602.39	1834.18
602.74	1827.31
603.08	1820.67
603.43	1813.86
603.78	1806.41
604.13	1799.14
604.48	1791.67
604.83	1784.75
605.18	1777.81
605.53	1769.78
605.87	1761.80
606.22	1754.43
606.57	1746.34
606.92	1738.87
607.27	1731.65
607.62	1724.50
607.96	1717.21
608.31	1710.51
608.66	1702.76
609.01	1695.10
609.36	1687.58
609.70	1679.48
610.05	1671.42
610.40	1663.63
610.75	1655.18
611.10	1647.54
611.44	1638.98
611.79	1631.17
612.14	1622.50
612.49	1613.30
612.83	1604.86
613.18	1596.68
613.53	1588.56
613.88	1580.01
614.22	1571.84
614.57	1563.29
614.92	1555.39
615.27	1547.84
615.61	1539.52
615.96	1531.58
616.31	1523.94
616.65	1516.46
617.00	1508.96
617.35	1501.28
617.70	1492.94
618.04	1484.63
618.39	1476.43
618.74	1468.91
619.08	1460.50
619.43	1452.87
619.78	1446.09
620.12	1439.00
620.47	1431.56
620.82	1423.44
621.16	1416.06
621.51	1408.44
621.85	1400.83
622.20	1392.28
622.55	1384.00
622.89	1376.23
623.24	1368.62
623.59	1361.26
623.93	1353.79
624.28	1346.46
624.62	1339.02
624.97	1331.82
625.32	1325.08
625.66	1318.13
626.01	1310.99
626.35	1303.65
626.70	1295.97
627.04	1288.16
627.39	1280.24
627.73	1272.83
628.08	1265.92
628.43	1258.66
628.77	1251.24
629.12	1243.66
629.46	1236.67
629.81	1229.02
630.15	1221.74
630.50	1214.41
630.84	1206.16
631.19	1198.22
631.53	1190.79
631.88	1183.14
632.22	1175.61
632.57	1168.23
632.91	1160.62
633.26	1153.27
633.60	1145.86
633.95	1138.80
634.29	1131.82
634.64	1125.22
634.98	1117.82
635.32	1110.67
635.67	1104.06
636.01	1097.51
636.36	1090.75
636.70	1084.12
637.05	1077.69
637.39	1071.28
637.73	1064.78
638.08	1058.94
638.42	1052.85
638.77	1046.42
639.11	1039.91
639.45	1033.43
639.80	1026.73
640.14	1020.43
640.49	1013.84
640.83	1007.53
641.17	1001.28
641.52	994.91
641.86	988.42
642.20	982.68
642.55	976.33
642.89	969.82
643.23	963.26
643.58	957.45
643.92	951.15
644.26	945.07
644.61	938.98
644.95	932.89
645.29	926.36
645.64	919.82
645.98	913.47
646.32	907.55
646.66	901.51
647.01	895.75
647.35	889.92
647.69	884.08
648.04	878.50
648.38	872.61
648.72	866.64
649.06	860.63
649.41	854.68
649.75	848.72
650.09	842.75
650.43	836.94
650.78	830.80
651.12	824.92
651.46	819.26
651.80	813.49
652.14	808.09
652.49	802.68
652.83	797.47
653.17	791.78
653.51	786.13
653.85	780.73
654.20	775.10
654.54	769.16
654.88	763.34
655.22	757.45
655.56	751.80
655.90	746.30
656.25	741.03
656.59	735.59
656.93	730.51
657.27	725.38
657.61	719.93
657.95	714.83
658.29	709.70
658.64	704.44
658.98	699.11
659.32	693.70
659.66	688.45
660.00	683.04
660.34	678.08
660.68	673.14
661.02	668.09
661.36	663.36
661.70	658.87
662.05	654.58
662.39	650.31
662.73	645.85
663.07	641.49
663.41	637.06
663.75	632.55
664.09	627.97
664.43	623.63
664.77	619.51
665.11	615.25
665.45	611.14
665.79	607.01
666.13	602.90
666.47	598.72
666.81	594.60
667.15	590.46
667.49	586.61
667.83	582.79
668.17	578.85
668.51	574.71
668.85	570.69
669.19	566.86
669.53	563.02
669.87	559.08
670.21	555.37
670.55	551.67
670.89	548.32
671.23	544.85
671.57	541.26
671.91	537.74
672.25	534.21
672.58	530.68
672.92	527.34
673.26	524.20
673.60	521.05
673.94	517.90
674.28	515.02
674.62	512.05
674.96	508.97
675.30	506.11
675.64	503.27
675.97	500.49
676.31	497.60
676.65	494.61
676.99	491.95
677.33	489.05
677.67	486.22
678.01	483.18
678.34	480.21
678.68	477.29
679.02	474.47
679.36	471.72
679.70	469.01
680.04	466.20
680.37	463.29
680.71	460.50
681.05	457.94
681.39	455.27
681.73	452.56
682.06	450.03
682.40	447.43
682.74	444.86
683.08	442.30
683.42	439.68
683.75	437.21
684.09	434.65
684.43	432.23
684.77	429.79
685.10	427.39
685.44	425.10
685.78	422.85
686.12	420.64
686.45	418.33
686.79	416.03
687.13	413.88
687.46	411.79
687.80	409.64
688.14	407.41
688.48	405.36
688.81	403.16
689.15	401.00
689.49	398.87
689.82	396.79
690.16	394.72
690.50	392.74
690.83	390.76
691.17	388.77
691.51	386.89
691.84	385.06
692.18	383.21
692.52	381.26
692.85	379.33
693.19	377.44
693.52	375.61
693.86	373.81
694.20	371.99
694.53	370.14
694.87	368.30
695.21	366.46
695.54	364.61
695.88	362.89
696.21	361.18
696.55	359.49
696.88	357.83
697.22	356.16
697.56	354.55
697.89	352.94
698.23	351.36
698.56	349.73
698.90	348.16
699.23	346.52
699.57	345.00
699.90	343.47
700.24	341.90
700.58	340.39
700.91	338.90
701.25	337.44
701.58	336.06
701.92	334.71
702.25	333.34
702.59	331.97
702.92	330.66
703.26	329.35
703.59	328.10
703.93	326.94
704.26	325.70
704.60	324.47
704.93	323.15
705.26	321.88
705.60	320.71
705.93	319.53
706.27	318.45
706.60	317.32
706.94	316.26
707.27	315.12
707.61	314.01
707.94	312.90
708.27	311.79
708.61	310.70
708.94	309.64
709.28	308.66
709.61	307.70
709.94	306.68
710.28	305.65
710.61	304.63
710.95	303.50
711.28	302.58
711.61	301.60
711.95	300.69
712.28	299.74
712.61	298.73
712.95	297.79
713.28	296.91
713.61	295.99
713.95	295.07
714.28	294.24
714.61	293.43
714.95	292.67
715.28	291.87
715.61	290.99
715.95	290.17
716.28	289.29
716.61	288.45
716.95	287.66
717.28	286.91
717.61	286.15
717.94	285.41
718.28	284.59
718.61	283.85
718.94	283.16
719.27	282.49
719.61	281.86
719.94	281.20
720.27	280.48
720.60	279.84
720.94	279.21
721.27	278.61
721.60	278.00
721.93	277.37
722.27	276.76
722.60	276.20
722.93	275.64
723.26	275.13
723.59	274.54
723.93	273.99
724.26	273.43
724.59	272.88
724.92	272.39
725.25	271.88
725.59	271.34
725.92	270.83
726.25	270.32
726.58	269.85
726.91	269.34
727.24	268.88
727.57	268.41
727.91	267.92
728.24	267.44
728.57	266.97
728.90	266.51
729.23	266.04
729.56	265.60
729.89	265.14
730.22	264.66
730.55	264.22
730.89	263.77
731.22	263.32
731.55	262.88
731.88	262.41
732.21	261.99
732.54	261.59
732.87	261.16
733.20	260.76
733.53	260.36
733.86	260.03
734.19	259.65
734.52	259.25
734.85	258.93
735.18	258.56
735.51	258.22
735.84	257.85
736.17	257.49
736.50	257.15
736.83	256.93
737.16	256.60
737.49	256.27
737.82	255.93
738.15	255.64
738.48	255.34
738.81	255.02
739.14	254.67
739.47	254.37
739.80	254.05
740.13	253.75
740.46	253.41
740.79	253.04
741.12	252.73
741.45	252.43
741.78	252.11
742.11	251.80
742.44	251.44
742.77	251.17
743.10	250.88
743.43	250.57
743.75	250.17
744.08	250.02
744.41	249.75
744.74	249.43
745.07	249.14
745.40	248.87
745.73	248.67
746.06	248.41
746.39	248.17
746.71	247.94
747.04	247.63
747.37	247.39
747.70	247.16
748.03	246.90
748.36	246.67
748.68	246.40
749.01	246.17
749.34	245.93
749.67	245.68
750.00	245.45
750.33	245.28
750.65	245.08
750.98	244.72
751.31	244.49
751.64	244.32
751.97	244.14
752.29	243.93
752.62	243.66
752.95	243.46
753.28	243.25
753.60	243.03
753.93	242.86
754.26	242.66
754.59	242.43
754.91	242.23
755.24	242.01
755.57	241.79
755.90	241.57
756.22	241.39
756.55	241.20
756.88	241.01
757.20	240.76
757.53	240.54
757.86	240.38
758.19	240.22
758.51	240.06
758.84	239.85
759.17	239.69
759.49	239.51
759.82	239.38
760.15	239.20
760.47	239.05
760.80	238.90
761.13	238.77
761.45	238.57
761.78	238.43
762.11	238.29
762.43	238.21
762.76	238.07
763.08	237.92
763.41	237.79
763.74	237.65
764.06	237.50
764.39	237.38
764.71	237.23
765.04	237.09
765.37	236.96
765.69	236.83
766.02	236.65
766.34	236.56
766.67	236.42
767.00	236.32
767.32	236.25
767.65	236.18
767.97	236.08
768.30	236.00
768.62	235.90
768.95	235.74
769.27	235.62
769.60	235.55
769.92	235.46
770.25	235.34
770.57	235.23
770.90	235.19
771.22	235.09
771.55	234.99
771.87	234.91
772.20	234.82
772.52	234.82
772.85	234.89
773.17	234.78
773.50	234.70
773.82	234.59
774.15	234.42
774.47	234.28
774.80	234.16
775.12	234.09
775.45	233.98
775.77	233.94
776.09	233.85
776.42	233.75
776.74	233.69
777.07	233.65
777.39	233.59
777.72	233.49
778.04	233.43
778.36	233.38
778.69	233.31
779.01	233.24
779.33	233.09
779.66	232.90
779.98	232.82
780.31	232.74
780.63	232.72
780.95	232.71
781.28	232.62
781.60	232.58
781.92	232.53
782.25	232.50
782.57	232.44
782.89	232.39
783.22	232.35
783.54	232.29
783.86	232.21
784.19	232.15
784.51	232.13
784.83	232.05
785.16	231.99
785.48	231.90
785.80	231.85
786.12	231.82
786.45	231.77
786.77	231.77
787.09	231.70
787.42	231.61
787.74	231.57
788.06	231.54
788.38	231.48
788.71	231.43
789.03	231.38
789.35	231.34
789.67	231.28
789.99	231.23
790.32	231.16
790.64	231.11
790.96	231.17
791.28	231.07
791.61	231.02
791.93	230.99
792.25	230.96
792.57	230.97
792.89	230.89
793.21	230.84
793.54	230.77
793.86	230.73
794.18	230.71
794.50	230.63
794.82	230.58
795.14	230.54
795.47	230.48
795.79	230.43
796.11	230.38
796.43	230.31
796.75	230.28
797.07	230.24
797.39	230.19
797.71	230.07
798.04	230.06
798.36	230.02
798.68	229.96
799.00	229.91
799.32	229.86
799.64	229.85
799.96	229.82
800.28	229.80
800.60	229.76
800.92	229.77
801.24	229.74
801.56	229.75
801.89	229.72
802.21	229.70
802.53	229.64
802.85	229.62
803.17	229.66
803.49	229.62
803.81	229.60
804.13	229.57
804.45	229.54
804.77	229.51
805.09	229.51
805.41	229.47
805.73	229.45
806.05	229.38
806.37	229.35
806.69	229.29
807.01	229.23
807.33	229.26
807.65	229.20
807.97	229.21
808.28	229.15
808.60	229.10
808.92	229.08
809.24	229.14
809.56	229.10
809.88	229.06
810.20	229.06
810.52	229.03
810.84	229.01
811.16	228.98
811.48	228.96
811.80	228.97
812.12	229.00
812.43	229.01
812.75	229.04
813.07	229.02
813.39	229.03
813.71	229.01
814.03	228.95
814.35	228.92
814.67	228.84
814.98	228.87
815.30	228.89
815.62	228.87
815.94	228.78
816.26	228.81
816.58	228.78
816.89	228.73
817.21	228.72
817.53	228.71
817.85	228.70
818.17	228.69
818.48	228.63
818.80	228.58
819.12	228.50
819.44	228.43
819.76	228.42
820.07	228.40
820.39	228.38
820.71	228.38
821.03	228.36
821.34	228.36
821.66	228.32
821.98	228.31
822.30	228.29
822.61	228.35
822.93	228.32
823.25	228.31
823.57	228.29
823.88	228.31
824.20	228.29
824.52	228.28
824.83	228.29
825.15	228.28
825.47	228.28
825.79	228.32
826.10	228.29
826.42	228.27
826.74	228.25
827.05	228.24
827.37	228.21
827.69	228.18
828.00	228.19
828.32	228.21
828.64	228.16
828.95	228.19
829.27	228.13
829.58	228.08
829.90	228.08
830.22	228.06
830.53	228.03
830.85	228.02
831.17	227.97
831.48	227.92
831.80	227.89
832.11	227.87
832.43	227.83
832.75	227.84
833.06	227.91
833.38	227.87
833.69	227.84
834.01	227.85
834.32	227.84
834.64	227.79
834.96	227.71
835.27	227.71
835.59	227.65
835.90	227.62
836.22	227.61
836.53	227.53
836.85	227.51
837.16	227.59
837.48	227.60
837.79	227.64
838.11	227.63
838.42	227.63
838.74	227.64
839.05	227.62
839.37	227.61
839.68	227.51
840.00	227.52
840.31	227.52
840.63	227.52
840.94	227.51
841.26	227.52
841.57	227.51
841.88	227.48
842.20	227.48
842.51	227.50
842.83	227.49
843.14	227.59
843.46	227.63
843.77	227.55
844.08	227.52
844.40	227.49
844.71	227.47
845.03	227.45
845.34	227.43
845.65	227.41
845.97	227.41
846.28	227.41
846.60	227.39
846.91	227.38
847.22	227.36
847.54	227.38
847.85	227.38
848.16	227.41
848.48	227.40
848.79	227.40
849.10	227.38
849.42	227.40
849.73	227.33
850.04	227.29
850.36	227.28
850.67	227.28
850.98	227.31
851.30	227.32
851.61	227.33
851.92	227.30
852.23	227.38
852.55	227.39
852.86	227.40
853.17	227.41
853.49	227.44
853.80	227.45
854.11	227.45
854.42	227.47
854.74	227.44
855.05	227.46
855.36	227.43
855.67	227.44
855.99	227.46
856.30	227.54
856.61	227.55
856.92	227.53
857.23	227.53
857.55	227.48
857.86	227.47
858.17	227.49
858.48	227.52
858.79	227.45
859.11	227.45
859.42	227.43
859.73	227.44
860.04	227.45
860.35	227.44
860.66	227.41
860.98	227.41
861.29	227.44
861.60	227.45
861.91	227.52
862.22	227.49
862.53	227.48
862.84	227.40
863.16	227.41
863.47	227.40
863.78	227.41
864.09	227.43
864.40	227.45
864.71	227.45
865.02	227.43
865.33	227.44
865.64	227.43
865.95	227.42
866.27	227.47
866.58	227.47
866.89	227.49
867.20	227.51
867.51	227.48
867.82	227.47
868.13	227.49
868.44	227.41
868.75	227.43
869.06	227.41
869.37	227.43
869.68	227.43
869.99	227.43
870.30	227.42
870.61	227.41
870.92	227.40
871.23	227.39
871.54	227.40
871.85	227.43
872.16	227.42
872.47	227.41
872.78	227.33
873.09	227.31
873.40	227.26
873.71	227.24
874.02	227.24
874.33	227.24
874.64	227.21
874.95	227.25
875.26	227.23
875.56	227.22
875.87	227.21
876.18	227.15
876.49	227.24
876.80	227.23
877.11	227.22
877.42	227.19
877.73	227.19
878.04	227.15
878.35	227.10
878.66	227.09
878.96	227.08
879.27	227.06
879.58	227.03
879.89	227.02
880.20	227.05
880.51	227.03
880.82	226.99
881.12	227.00
881.43	226.96
881.74	226.94
882.05	226.92
882.36	226.91
882.67	226.94
882.97	226.83
883.28	226.78
883.59	226.77
883.90	226.80
884.21	226.83
884.51	226.85
884.82	226.84
885.13	226.85
885.44	226.83
885.74	226.85
886.05	226.83
886.36	226.86
886.67	226.82
886.98	226.86
887.28	226.86
887.59	226.82
887.90	226.82
888.20	226.83
888.51	226.86
888.82	226.81
889.13	226.80
889.43	226.90
889.74	226.91
890.05	226.89
890.35	226.83
890.66	226.80
890.97	226.77
891.28	226.80
891.58	226.79
891.89	226.79
892.20	226.78
892.50	226.78
892.81	226.77
893.12	226.79
893.42	226.73
893.73	226.79
894.04	226.81
894.34	226.83
894.65	226.84
894.95	226.81
895.26	226.86
895.57	226.90
895.87	226.78
896.18	226.83
896.48	226.84
896.79	226.87
897.10	226.86
897.40	226.86
897.71	226.86
898.01	226.88
898.32	226.92
898.63	226.93
898.93	226.95
899.24	226.95
899.54	226.93
899.85	226.95
900.15	226.92
900.46	226.91
900.76	226.93
901.07	226.91
901.38	226.95
901.68	226.94
901.99	226.90
902.29	226.93
902.60	226.90
902.90	226.91
903.21	226.89
903.51	226.89
903.82	226.94
904.12	226.93
904.43	226.93
904.73	226.88
905.03	226.89
905.34	226.98
905.64	227.02
905.95	227.01
906.25	227.00
906.56	227.01
906.86	227.03
907.17	227.01
907.47	227.02
907.77	226.98
908.08	226.95
908.38	226.96
908.69	226.97
908.99	226.98
909.30	226.97
909.60	226.94
909.90	226.97
910.21	226.95
910.51	226.92
910.81	226.95
911.12	227.00
911.42	226.99
911.73	226.89
912.03	226.88
912.33	226.92
912.64	226.90
912.94	226.85
913.24	226.82
913.55	226.83
913.85	226.81
914.15	226.86
914.46	226.88
914.76	226.85
915.06	226.83
915.37	226.81
915.67	226.80
915.97	226.84
916.27	226.81
916.58	226.80
916.88	226.79
917.18	226.72
917.49	226.76
917.79	226.74
918.09	226.77
918.39	226.76
918.70	226.74
919.00	226.76
919.30	226.82
919.60	226.80
919.91	226.78
920.21	226.79
920.51	226.75
920.81	226.74
921.12	226.75
921.42	226.76
921.72	226.77
922.02	226.79
922.32	226.81
922.63	226.77
922.93	226.84
923.23	226.86
923.53	226.86
923.83	226.78
924.13	226.81
924.44	226.80
924.74	226.83
925.04	226.84
925.34	226.82
925.64	226.79
925.94	226.78
926.24	226.82
926.55	226.81
926.85	226.82
927.15	226.80
927.45	226.81
927.75	226.82
928.05	226.84
928.35	226.83
928.65	226.83
928.95	226.87
929.26	226.80
929.56	226.83
929.86	226.86
930.16	226.88
930.46	226.87
930.76	226.85
931.06	226.79
931.36	226.79
931.66	226.83
931.96	226.84
932.26	226.89
932.56	226.87
932.86	226.86
933.16	226.87
933.46	226.88
933.76	226.85
934.06	226.84
934.36	226.84
934.66	226.82
934.96	226.82
935.26	226.83
935.56	226.87
935.86	226.85
936.16	226.83
936.46	226.84
936.76	226.83
937.06	226.84
937.36	226.86
937.66	226.82
937.96	226.84
938.26	226.82
938.56	226.81
938.86	226.80
939.16	226.86
939.46	226.87
939.76	226.90
940.06	226.92
940.35	226.90
940.65	226.88
940.95	226.92
941.25	226.90
941.55	226.88
941.85	226.85
942.15	226.87
942.45	226.92
942.75	226.91
943.04	226.94
943.34	226.96
943.64	227.00
943.94	227.05
944.24	227.03
944.54	227.04
944.84	227.01
945.13	227.00
945.43	226.98
945.73	226.96
946.03	226.95
946.33	226.94
946.62	226.92
946.92	226.90
947.22	226.88
947.52	226.90
947.82	226.91
948.11	226.91
948.41	226.89
948.71	226.84
949.01	226.82
949.31	226.81
949.60	226.80
949.90	226.79
950.20	226.75
950.50	226.72
950.79	226.71
951.09	226.71
951.39	226.71
951.69	226.69
951.98	226.69
952.28	226.68
952.58	226.67
952.87	226.67
953.17	226.69
953.47	226.69
953.76	226.64
954.06	226.61
954.36	226.58
954.66	226.58
954.95	226.60
955.25	226.60
955.55	226.59
955.84	226.53
956.14	226.52
956.44	226.51
956.73	226.46
957.03	226.48
957.32	226.49
957.62	226.47
957.92	226.50
958.21	226.51
958.51	226.59
958.81	226.63
959.10	226.64
959.40	226.66
959.69	226.68
959.99	226.70
960.29	226.68
960.58	226.66
960.88	226.68
961.17	226.69
961.47	226.69
961.76	226.68
962.06	226.72
962.36	226.73
962.65	226.75
962.95	226.83
963.24	226.80
963.54	226.80
963.83	226.85
964.13	226.83
964.42	226.83
964.72	226.77
965.01	226.74
965.31	226.74
965.60	226.73
965.90	226.77
966.19	226.75
966.49	226.77
966.78	226.81
967.08	226.82
967.37	226.79
967.67	226.79
967.96	226.79
968.26	226.77
968.55	226.76
968.85	226.79
969.14	226.76
969.43	226.75
969.73	226.73
970.02	226.71
970.32	226.70
970.61	226.67
970.91	226.63
971.20	226.65
971.49	226.64
971.79	226.64
972.08	226.59
972.38	226.63
972.67	226.64
972.96	226.64
973.26	226.63
973.55	226.65
973.85	226.63
974.14	226.64
974.43	226.68
974.73	226.65
975.02	226.63
975.31	226.61
975.61	226.63
975.90	226.62
976.19	226.64
976.49	226.66
976.78	226.67
977.07	226.69
977.37	226.69
977.66	226.68
977.95	226.69
978.24	226.67
978.54	226.70
978.83	226.68
979.12	226.67
979.42	226.66
979.71	226.68
980.00	226.70
980.29	226.71
980.59	226.66
980.88	226.69
981.17	226.67
981.46	226.70
981.76	226.69
982.05	226.76
982.34	226.72
982.63	226.73
982.93	226.74
983.22	226.74
983.51	226.74
983.80	226.73
984.09	226.72
984.39	226.72
984.68	226.69
984.97	226.69
985.26	226.67
985.55	226.69
985.85	226.64
986.14	226.65
986.43	226.64
986.72	226.62
987.01	226.62
987.30	226.63
987.59	226.63
987.89	226.65
988.18	226.58
988.47	226.56
988.76	226.54
989.05	226.50
989.34	226.49
989.63	226.53
989.92	226.53
990.22	226.51
990.51	226.53
990.80	226.51
991.09	226.51
991.38	226.54
991.67	226.49
991.96	226.49
992.25	226.50
992.54	226.48
992.83	226.50
993.12	226.48
993.41	226.47
993.70	226.49
993.99	226.50
994.28	226.50
994.58	226.53
994.87	226.52
995.16	226.56
995.45	226.53
995.74	226.49
996.03	226.51
996.32	226.54
996.61	226.55
996.90	226.55
997.19	226.53
997.48	226.53
997.77	226.52
998.06	226.53
998.34	226.49
998.63	226.48
998.92	226.47
999.21	226.51
999.50	226.53
999.79	226.50
1000.08	226.47
1000.37	226.50
1000.66	226.50
1000.95	226.49
1001.24	226.46
1001.53	226.45
1001.82	226.44
1002.11	226.44
1002.40	226.45
1002.68	226.46
1002.97	226.54
1003.26	226.57
1003.55	226.53
1003.84	226.52
1004.13	226.56
1004.42	226.60
1004.71	226.62
1004.99	226.63
1005.28	226.62
1005.57	226.60
1005.86	226.60
1006.15	226.61
1006.44	226.60
1006.72	226.59
1007.01	226.60
1007.30	226.59
1007.59	226.60
1007.88	226.59
1008.17	226.62
1008.45	226.60
1008.74	226.54
1009.03	226.52
1009.32	226.48
1009.60	226.53
1009.89	226.56
1010.18	226.52
1010.47	226.47
1010.76	226.47
1011.04	226.46
1011.33	226.52
1011.62	226.53
1011.91	226.53
1012.19	226.51
1012.48	226.50
1012.77	226.50
1013.05	226.54
1013.34	226.61
1013.63	226.64
1013.92	226.68
1014.20	226.64
1014.49	226.64
1014.78	226.69
1015.06	226.63
1015.35	226.68
1015.64	226.67
1015.92	226.68
1016.21	226.69
1016.50	226.71
1016.78	226.71
1017.07	226.73
1017.36	226.65
1017.64	226.67
1017.93	226.65
1018.22	226.63
1018.50	226.63
1018.79	226.64
1019.08	226.62
1019.36	226.60
1019.65	226.57
1019.93	226.59
1020.22	226.61
1020.51	226.63
1020.79	226.63
1021.08	225.63
1021.36	226.41
1021.65	226.53
1021.94	227.12
1022.22	226.74
1022.51	226.27
1022.79	227.20
1023.08	226.74
1023.36	227.37
1023.65	226.95
>>>>>End Processed Spectral Data<<<<<
