SpectraSuite Data File
++++++++++++++++++++++++++++++++++++
Date: Fri Feb 01 15:23:44 EST 2013
User: group
Dark Spectrum Present: No
Reference Spectrum Present: No
Number of Sampled Component Spectra: 1
Spectrometers: USB2E7196
Integration Time (usec): 35000 (USB2E7196)
Spectra Averaged: 100 (USB2E7196)
Boxcar Smoothing: 10 (USB2E7196)
Correct for Electrical Dark: No (USB2E7196)
Strobe/Lamp Enabled: No (USB2E7196)
Correct for Detector Non-linearity: No (USB2E7196)
Correct for Stray Light: No (USB2E7196)
Number of Pixels in Processed Spectrum: 2048
>>>>>Begin Processed Spectral Data<<<<<
339.09	0.00
339.48	215.33
339.86	216.62
340.24	218.15
340.63	219.33
341.01	222.25
341.39	222.31
341.78	222.96
342.16	224.66
342.54	225.91
342.93	213.61
343.31	224.42
343.69	224.95
344.07	225.42
344.46	225.83
344.84	226.22
345.22	226.46
345.60	226.72
345.99	226.95
346.37	227.07
346.75	227.16
347.13	227.24
347.52	227.31
347.90	227.36
348.28	227.38
348.66	227.39
349.05	227.39
349.43	227.43
349.81	227.45
350.19	227.48
350.57	227.54
350.96	227.61
351.34	227.68
351.72	227.76
352.10	227.85
352.48	227.94
352.87	227.99
353.25	228.05
353.63	228.08
354.01	228.08
354.39	228.16
354.77	228.23
355.15	228.30
355.54	228.33
355.92	228.39
356.30	228.46
356.68	228.61
357.06	228.66
357.44	228.70
357.82	228.76
358.20	228.86
358.58	228.90
358.97	228.94
359.35	229.01
359.73	229.09
360.11	229.16
360.49	229.20
360.87	229.21
361.25	229.23
361.63	229.31
362.01	229.39
362.39	229.45
362.77	229.49
363.15	229.52
363.53	229.57
363.91	229.59
364.29	229.59
364.67	229.51
365.05	229.53
365.43	229.53
365.81	229.55
366.19	229.57
366.57	229.62
366.95	229.62
367.33	229.59
367.71	229.57
368.09	229.55
368.47	229.51
368.85	229.51
369.23	229.52
369.61	229.43
369.99	229.42
370.37	229.37
370.75	229.34
371.13	229.27
371.51	229.23
371.89	229.19
372.27	229.13
372.65	229.07
373.03	229.01
373.41	228.98
373.78	228.89
374.16	228.80
374.54	228.68
374.92	228.61
375.30	228.56
375.68	228.45
376.06	228.36
376.44	228.31
376.82	228.25
377.19	228.21
377.57	228.15
377.95	228.05
378.33	227.96
378.71	227.87
379.09	227.80
379.47	227.71
379.84	227.62
380.22	227.57
380.60	227.50
380.98	227.42
381.36	227.33
381.73	227.25
382.11	227.20
382.49	227.17
382.87	227.08
383.25	226.99
383.62	227.07
384.00	227.00
384.38	226.91
384.76	226.85
385.13	226.82
385.51	226.78
385.89	226.73
386.27	226.69
386.64	226.64
387.02	226.62
387.40	226.60
387.78	226.60
388.15	226.59
388.53	226.59
388.91	226.58
389.29	226.55
389.66	226.55
390.04	226.53
390.42	226.54
390.79	226.52
391.17	226.53
391.55	226.38
391.92	226.39
392.30	226.44
392.68	226.42
393.05	226.39
393.43	226.40
393.81	226.43
394.18	226.41
394.56	226.45
394.94	226.46
395.31	226.47
395.69	226.49
396.06	226.53
396.44	226.54
396.82	226.57
397.19	226.71
397.57	226.71
397.95	226.77
398.32	226.76
398.70	226.86
399.07	226.96
399.45	227.06
399.82	227.12
400.20	227.19
400.58	227.28
400.95	227.31
401.33	227.42
401.70	227.53
402.08	227.65
402.45	227.73
402.83	227.81
403.20	227.93
403.58	228.05
403.95	228.15
404.33	228.29
404.71	228.43
405.08	228.57
405.46	228.71
405.83	228.87
406.21	229.06
406.58	229.23
406.96	229.38
407.33	229.56
407.70	229.76
408.08	229.99
408.45	230.21
408.83	230.49
409.20	230.69
409.58	230.87
409.95	231.14
410.33	231.43
410.70	231.72
411.08	232.02
411.45	232.33
411.82	232.66
412.20	233.02
412.57	233.41
412.95	233.70
413.32	234.09
413.69	234.50
414.07	234.89
414.44	235.35
414.82	235.81
415.19	236.33
415.56	236.93
415.94	237.47
416.31	238.13
416.68	238.74
417.06	239.46
417.43	240.19
417.81	240.96
418.18	241.72
418.55	242.54
418.93	243.44
419.30	244.34
419.67	245.29
420.04	246.21
420.42	247.22
420.79	248.42
421.16	249.63
421.54	250.82
421.91	252.09
422.28	253.33
422.66	254.69
423.03	255.97
423.40	257.25
423.77	258.70
424.15	260.12
424.52	261.61
424.89	263.25
425.26	264.79
425.64	266.22
426.01	267.84
426.38	269.53
426.75	271.18
427.13	272.87
427.50	274.67
427.87	276.59
428.24	278.46
428.61	280.18
428.99	282.15
429.36	284.24
429.73	286.29
430.10	288.32
430.47	290.39
430.85	292.56
431.22	294.86
431.59	297.23
431.96	299.47
432.33	301.97
432.70	304.32
433.08	307.16
433.45	309.80
433.82	312.40
434.19	315.27
434.56	318.13
434.93	320.83
435.30	323.45
435.68	326.35
436.05	329.18
436.42	332.00
436.79	334.48
437.16	337.19
437.53	339.99
437.90	342.81
438.27	345.55
438.64	348.39
439.01	351.00
439.38	353.23
439.75	355.42
440.13	357.93
440.50	360.29
440.87	362.16
441.24	364.10
441.61	366.27
441.98	367.74
442.35	369.49
442.72	371.34
443.09	373.18
443.46	374.14
443.83	374.73
444.20	375.22
444.57	376.05
444.94	376.32
445.31	376.69
445.68	377.07
446.05	377.14
446.42	376.75
446.79	376.26
447.16	375.80
447.53	375.50
447.90	374.31
448.27	373.13
448.64	371.47
449.01	370.35
449.37	368.38
449.74	366.47
450.11	364.23
450.48	361.73
450.85	359.21
451.22	357.08
451.59	355.07
451.96	353.12
452.33	350.52
452.70	348.19
453.07	345.34
453.43	342.42
453.80	339.66
454.17	336.97
454.54	334.44
454.91	331.77
455.28	329.06
455.65	326.57
456.02	324.11
456.38	321.97
456.75	319.31
457.12	317.04
457.49	314.85
457.86	312.66
458.23	310.80
458.59	308.71
458.96	306.62
459.33	304.75
459.70	302.89
460.07	301.39
460.43	299.65
460.80	298.06
461.17	296.63
461.54	295.11
461.91	293.66
462.27	292.21
462.64	290.95
463.01	289.58
463.38	288.29
463.74	286.96
464.11	285.80
464.48	284.78
464.85	283.70
465.21	282.84
465.58	281.94
465.95	280.84
466.32	279.94
466.68	279.01
467.05	278.11
467.42	277.21
467.78	276.28
468.15	275.43
468.52	274.73
468.88	273.83
469.25	273.09
469.62	272.48
469.98	271.79
470.35	271.13
470.72	270.52
471.08	269.85
471.45	269.27
471.82	268.73
472.18	268.10
472.55	267.64
472.92	267.08
473.28	266.58
473.65	266.15
474.02	265.71
474.38	265.38
474.75	265.05
475.11	264.72
475.48	264.46
475.85	264.18
476.21	263.92
476.58	263.75
476.94	263.58
477.31	263.40
477.67	263.24
478.04	263.16
478.41	263.10
478.77	263.13
479.14	263.06
479.50	263.09
479.87	263.17
480.23	263.21
480.60	263.29
480.96	263.39
481.33	263.58
481.69	263.77
482.06	263.93
482.42	264.12
482.79	264.36
483.15	264.70
483.52	265.08
483.88	265.47
484.25	265.83
484.61	266.25
484.98	266.70
485.34	267.29
485.71	267.85
486.07	268.45
486.44	269.01
486.80	269.71
487.17	270.43
487.53	271.20
487.90	272.06
488.26	273.01
488.62	274.00
488.99	274.96
489.35	275.99
489.72	277.15
490.08	278.40
490.44	279.65
490.81	280.90
491.17	282.20
491.54	283.68
491.90	285.21
492.26	286.85
492.63	288.54
492.99	290.25
493.36	292.14
493.72	294.17
494.08	296.25
494.45	298.52
494.81	300.90
495.17	303.36
495.54	305.92
495.90	308.55
496.26	311.30
496.63	314.24
496.99	317.31
497.35	320.51
497.72	323.85
498.08	327.32
498.44	331.01
498.80	334.94
499.17	338.94
499.53	343.09
499.89	347.49
500.26	351.98
500.62	356.71
500.98	361.62
501.34	366.67
501.71	372.02
502.07	377.42
502.43	382.96
502.79	388.77
503.16	394.80
503.52	401.13
503.88	407.56
504.24	414.21
504.60	421.13
504.97	428.32
505.33	435.69
505.69	443.43
506.05	451.23
506.41	459.11
506.78	467.32
507.14	475.79
507.50	484.50
507.86	493.56
508.22	502.69
508.59	511.93
508.95	521.54
509.31	531.35
509.67	541.47
510.03	551.82
510.39	562.37
510.75	573.20
511.12	584.11
511.48	595.41
511.84	606.87
512.20	618.36
512.56	630.32
512.92	642.49
513.28	654.85
513.64	667.35
514.00	680.03
514.37	692.97
514.73	706.02
515.09	719.09
515.45	732.38
515.81	745.99
516.17	760.02
516.53	774.15
516.89	788.36
517.25	802.54
517.61	816.94
517.97	831.38
518.33	845.85
518.69	860.65
519.05	875.74
519.41	890.96
519.77	906.62
520.13	922.14
520.49	937.58
520.85	953.08
521.21	968.76
521.57	985.13
521.93	1000.93
522.29	1017.39
522.65	1033.68
523.01	1050.05
523.37	1066.11
523.73	1082.39
524.09	1098.57
524.45	1114.92
524.81	1131.55
525.17	1148.55
525.53	1165.56
525.89	1182.55
526.25	1199.47
526.61	1215.82
526.97	1232.60
527.33	1249.01
527.68	1265.54
528.04	1282.06
528.40	1298.78
528.76	1315.96
529.12	1332.66
529.48	1349.58
529.84	1365.65
530.20	1382.39
530.56	1399.33
530.91	1416.74
531.27	1433.43
531.63	1450.07
531.99	1466.69
532.35	1482.76
532.71	1498.66
533.07	1514.89
533.42	1530.79
533.78	1546.85
534.14	1563.40
534.50	1578.74
534.86	1594.85
535.21	1610.06
535.57	1626.10
535.93	1641.61
536.29	1656.39
536.65	1671.50
537.00	1686.44
537.36	1701.81
537.72	1716.33
538.08	1730.84
538.44	1744.79
538.79	1758.87
539.15	1772.63
539.51	1786.51
539.87	1800.97
540.22	1814.64
540.58	1828.52
540.94	1842.12
541.29	1855.23
541.65	1867.90
542.01	1881.36
542.37	1893.66
542.72	1906.26
543.08	1918.05
543.44	1930.48
543.79	1941.80
544.15	1952.80
544.51	1964.32
544.87	1975.34
545.22	1986.21
545.58	1996.57
545.94	2006.41
546.29	2016.28
546.65	2026.01
547.01	2035.14
547.36	2043.85
547.72	2052.44
548.07	2060.35
548.43	2068.54
548.79	2076.43
549.14	2083.88
549.50	2091.21
549.86	2099.00
550.21	2106.31
550.57	2113.52
550.92	2120.01
551.28	2127.11
551.64	2134.27
551.99	2140.79
552.35	2146.92
552.70	2153.02
553.06	2158.95
553.41	2165.28
553.77	2171.35
554.13	2177.47
554.48	2183.71
554.84	2189.10
555.19	2194.53
555.55	2199.62
555.90	2203.96
556.26	2208.80
556.61	2213.55
556.97	2217.74
557.32	2221.75
557.68	2225.75
558.03	2230.01
558.39	2233.91
558.74	2238.49
559.10	2242.23
559.45	2245.97
559.81	2250.41
560.16	2254.23
560.52	2257.46
560.87	2260.92
561.23	2263.41
561.58	2266.24
561.94	2268.74
562.29	2271.31
562.64	2273.90
563.00	2276.51
563.35	2279.98
563.71	2283.16
564.06	2286.40
564.42	2289.25
564.77	2291.76
565.12	2294.02
565.48	2295.92
565.83	2297.61
566.19	2298.86
566.54	2299.90
566.89	2300.99
567.25	2301.27
567.60	2302.69
567.96	2304.30
568.31	2305.06
568.66	2306.27
569.02	2306.93
569.37	2307.17
569.72	2307.71
570.08	2307.63
570.43	2307.62
570.78	2306.80
571.14	2305.21
571.49	2303.74
571.84	2303.37
572.20	2302.02
572.55	2301.18
572.90	2299.62
573.26	2298.25
573.61	2296.54
573.96	2294.63
574.31	2291.61
574.67	2288.71
575.02	2284.94
575.37	2281.52
575.72	2277.56
576.08	2274.19
576.43	2270.86
576.78	2267.17
577.13	2264.22
577.49	2261.09
577.84	2257.60
578.19	2254.04
578.54	2250.31
578.90	2246.21
579.25	2240.59
579.60	2235.59
579.95	2230.36
580.30	2225.17
580.66	2219.87
581.01	2214.86
581.36	2209.77
581.71	2205.56
582.06	2201.13
582.42	2196.59
582.77	2191.21
583.12	2186.57
583.47	2181.64
583.82	2176.40
584.17	2171.20
584.53	2165.47
584.88	2159.82
585.23	2153.77
585.58	2148.30
585.93	2142.76
586.28	2137.84
586.63	2132.76
586.98	2127.69
587.34	2122.99
587.69	2118.12
588.04	2112.73
588.39	2106.89
588.74	2100.45
589.09	2094.15
589.44	2087.23
589.79	2081.14
590.14	2075.52
590.49	2068.87
590.84	2062.45
591.19	2056.43
591.54	2049.76
591.89	2042.23
592.25	2035.31
592.60	2028.12
592.95	2020.33
593.30	2012.90
593.65	2005.20
594.00	1997.98
594.35	1990.60
594.70	1982.46
595.05	1975.01
595.40	1967.74
595.75	1960.25
596.10	1953.80
596.45	1946.80
596.80	1940.48
597.15	1933.77
597.50	1926.56
597.85	1920.13
598.19	1913.40
598.54	1906.29
598.89	1899.67
599.24	1893.81
599.59	1887.08
599.94	1880.91
600.29	1874.59
600.64	1868.01
600.99	1860.42
601.34	1853.53
601.69	1846.58
602.04	1839.52
602.39	1832.18
602.74	1825.31
603.08	1818.57
603.43	1811.92
603.78	1804.67
604.13	1797.44
604.48	1790.04
604.83	1783.17
605.18	1776.03
605.53	1767.97
605.87	1759.84
606.22	1752.48
606.57	1744.54
606.92	1737.20
607.27	1729.85
607.62	1722.74
607.96	1715.30
608.31	1708.61
608.66	1700.87
609.01	1693.32
609.36	1685.78
609.70	1677.80
610.05	1669.68
610.40	1661.79
610.75	1653.36
611.10	1645.74
611.44	1637.49
611.79	1629.58
612.14	1620.75
612.49	1611.74
612.83	1603.35
613.18	1595.22
613.53	1587.21
613.88	1578.60
614.22	1570.36
614.57	1561.80
614.92	1553.94
615.27	1546.35
615.61	1538.11
615.96	1530.24
616.31	1522.54
616.65	1515.20
617.00	1507.56
617.35	1499.94
617.70	1491.67
618.04	1483.25
618.39	1474.91
618.74	1467.18
619.08	1458.74
619.43	1451.28
619.78	1444.37
620.12	1437.18
620.47	1429.73
620.82	1421.52
621.16	1414.22
621.51	1406.60
621.85	1399.01
622.20	1390.32
622.55	1382.07
622.89	1374.30
623.24	1366.68
623.59	1359.40
623.93	1351.79
624.28	1344.55
624.62	1336.98
624.97	1329.83
625.32	1323.16
625.66	1316.21
626.01	1308.95
626.35	1301.60
626.70	1293.86
627.04	1286.05
627.39	1278.33
627.73	1270.83
628.08	1263.82
628.43	1256.35
628.77	1248.87
629.12	1241.33
629.46	1234.20
629.81	1226.78
630.15	1219.42
630.50	1212.00
630.84	1203.85
631.19	1195.97
631.53	1188.49
631.88	1180.94
632.22	1173.31
632.57	1165.91
632.91	1158.44
633.26	1151.09
633.60	1143.83
633.95	1136.77
634.29	1129.73
634.64	1123.06
634.98	1115.76
635.32	1108.71
635.67	1102.25
636.01	1095.65
636.36	1088.79
636.70	1082.34
637.05	1075.77
637.39	1069.38
637.73	1062.83
638.08	1056.98
638.42	1051.00
638.77	1044.54
639.11	1037.80
639.45	1031.50
639.80	1024.87
640.14	1018.33
640.49	1011.75
640.83	1005.38
641.17	999.10
641.52	992.83
641.86	986.44
642.20	980.56
642.55	974.28
642.89	967.73
643.23	961.26
643.58	955.58
643.92	949.38
644.26	943.33
644.61	937.33
644.95	931.32
645.29	924.69
645.64	918.00
645.98	911.71
646.32	905.98
646.66	899.90
647.01	894.07
647.35	888.42
647.69	882.68
648.04	877.15
648.38	871.34
648.72	865.27
649.06	859.22
649.41	853.34
649.75	847.32
650.09	841.41
650.43	835.59
650.78	829.37
651.12	823.36
651.46	817.61
651.80	811.81
652.14	806.35
652.49	800.93
652.83	795.70
653.17	790.01
653.51	784.33
653.85	778.96
654.20	773.32
654.54	767.34
654.88	761.53
655.22	755.64
655.56	750.00
655.90	744.64
656.25	739.34
656.59	734.03
656.93	729.00
657.27	723.74
657.61	718.35
657.95	713.24
658.29	708.22
658.64	702.98
658.98	697.73
659.32	692.39
659.66	687.20
660.00	681.93
660.34	676.96
660.68	672.08
661.02	667.05
661.36	662.33
661.70	657.80
662.05	653.50
662.39	649.20
662.73	644.74
663.07	640.39
663.41	635.98
663.75	631.48
664.09	626.90
664.43	622.58
664.77	618.47
665.11	614.31
665.45	610.21
665.79	606.15
666.13	601.97
666.47	597.84
666.81	593.71
667.15	589.63
667.49	585.77
667.83	582.02
668.17	578.05
668.51	574.04
668.85	570.15
669.19	566.35
669.53	562.49
669.87	558.60
670.21	554.84
670.55	551.18
670.89	547.75
671.23	544.31
671.57	540.86
671.91	537.33
672.25	533.83
672.58	530.32
672.92	526.99
673.26	523.88
673.60	520.76
673.94	517.63
674.28	514.74
674.62	511.78
674.96	508.67
675.30	505.81
675.64	502.83
675.97	500.03
676.31	497.13
676.65	494.21
676.99	491.55
677.33	488.71
677.67	485.92
678.01	482.89
678.34	479.94
678.68	477.06
679.02	474.24
679.36	471.47
679.70	468.77
680.04	465.94
680.37	462.99
680.71	460.20
681.05	457.59
681.39	454.85
681.73	452.24
682.06	449.62
682.40	447.04
682.74	444.60
683.08	442.04
683.42	439.43
683.75	436.91
684.09	434.36
684.43	431.85
684.77	429.34
685.10	427.01
685.44	424.70
685.78	422.41
686.12	420.16
686.45	417.87
686.79	415.54
687.13	413.36
687.46	411.28
687.80	409.07
688.14	406.79
688.48	404.74
688.81	402.45
689.15	400.34
689.49	398.18
689.82	396.08
690.16	394.01
690.50	392.06
690.83	390.13
691.17	388.11
691.51	386.22
691.84	384.39
692.18	382.44
692.52	380.47
692.85	378.57
693.19	376.69
693.52	374.91
693.86	373.15
694.20	371.34
694.53	369.49
694.87	367.68
695.21	365.95
695.54	364.12
695.88	362.44
696.21	360.71
696.55	359.07
696.88	357.38
697.22	355.71
697.56	354.11
697.89	352.44
698.23	350.83
698.56	349.27
698.90	347.68
699.23	346.05
699.57	344.50
699.90	342.99
700.24	341.47
700.58	339.93
700.91	338.43
701.25	336.99
701.58	335.70
701.92	334.38
702.25	333.02
702.59	331.71
702.92	330.39
703.26	329.10
703.59	327.83
703.93	326.64
704.26	325.43
704.60	324.12
704.93	322.91
705.26	321.71
705.60	320.54
705.93	319.44
706.27	318.42
706.60	317.40
706.94	316.28
707.27	315.16
707.61	314.09
707.94	313.05
708.27	312.00
708.61	310.88
708.94	309.87
709.28	308.89
709.61	307.92
709.94	306.96
710.28	305.99
710.61	305.04
710.95	303.98
711.28	303.08
711.61	302.16
711.95	301.23
712.28	300.27
712.61	299.26
712.95	298.31
713.28	297.43
713.61	296.51
713.95	295.68
714.28	294.84
714.61	293.98
714.95	293.14
715.28	292.30
715.61	291.46
715.95	290.63
716.28	289.78
716.61	288.97
716.95	288.13
717.28	287.36
717.61	286.59
717.94	285.86
718.28	285.02
718.61	284.29
718.94	283.57
719.27	282.94
719.61	282.31
719.94	281.67
720.27	280.98
720.60	280.32
720.94	279.67
721.27	279.09
721.60	278.51
721.93	277.91
722.27	277.33
722.60	276.74
722.93	276.15
723.26	275.66
723.59	275.10
723.93	274.58
724.26	274.04
724.59	273.46
724.92	272.93
725.25	272.46
725.59	271.93
725.92	271.47
726.25	270.94
726.58	270.44
726.91	269.91
727.24	269.40
727.57	268.90
727.91	268.35
728.24	267.85
728.57	267.37
728.90	266.94
729.23	266.47
729.56	266.06
729.89	265.59
730.22	265.05
730.55	264.57
730.89	264.11
731.22	263.64
731.55	263.22
731.88	262.81
732.21	262.31
732.54	261.88
732.87	261.40
733.20	261.00
733.53	260.60
733.86	260.24
734.19	259.84
734.52	259.47
734.85	259.14
735.18	258.71
735.51	258.36
735.84	257.95
736.17	257.62
736.50	257.22
736.83	256.97
737.16	256.65
737.49	256.29
737.82	255.94
738.15	255.59
738.48	255.27
738.81	254.91
739.14	254.66
739.47	254.33
739.80	254.03
740.13	253.73
740.46	253.42
740.79	253.07
741.12	252.76
741.45	252.42
741.78	252.13
742.11	251.88
742.44	251.56
742.77	251.28
743.10	250.94
743.43	250.62
743.75	250.25
744.08	250.07
744.41	249.82
744.74	249.58
745.07	249.32
745.40	249.07
745.73	248.84
746.06	248.56
746.39	248.32
746.71	248.04
747.04	247.78
747.37	247.53
747.70	247.30
748.03	247.06
748.36	246.86
748.68	246.61
749.01	246.32
749.34	246.10
749.67	245.84
750.00	245.64
750.33	245.54
750.65	245.34
750.98	245.04
751.31	244.85
751.64	244.62
751.97	244.46
752.29	244.27
752.62	244.07
752.95	243.86
753.28	243.69
753.60	243.51
753.93	243.33
754.26	243.14
754.59	242.97
754.91	242.78
755.24	242.60
755.57	242.43
755.90	242.28
756.22	242.05
756.55	241.89
756.88	241.74
757.20	241.51
757.53	241.34
757.86	241.17
758.19	241.00
758.51	240.82
758.84	240.62
759.17	240.43
759.49	240.25
759.82	240.12
760.15	239.92
760.47	239.77
760.80	239.59
761.13	239.47
761.45	239.30
761.78	239.14
762.11	239.00
762.43	238.82
762.76	238.66
763.08	238.56
763.41	238.43
763.74	238.28
764.06	238.11
764.39	237.95
764.71	237.78
765.04	237.64
765.37	237.54
765.69	237.42
766.02	237.26
766.34	237.12
766.67	236.95
767.00	236.86
767.32	236.82
767.65	236.76
767.97	236.61
768.30	236.47
768.62	236.37
768.95	236.21
769.27	236.10
769.60	236.01
769.92	235.85
770.25	235.72
770.57	235.56
770.90	235.44
771.22	235.31
771.55	235.23
771.87	235.11
772.20	234.97
772.52	234.94
772.85	234.97
773.17	234.90
773.50	234.82
773.82	234.71
774.15	234.55
774.47	234.42
774.80	234.32
775.12	234.21
775.45	234.11
775.77	234.05
776.09	233.97
776.42	233.90
776.74	233.83
777.07	233.76
777.39	233.73
777.72	233.65
778.04	233.60
778.36	233.51
778.69	233.46
779.01	233.42
779.33	233.26
779.66	233.05
779.98	232.95
780.31	232.88
780.63	232.88
780.95	232.85
781.28	232.78
781.60	232.71
781.92	232.65
782.25	232.62
782.57	232.57
782.89	232.51
783.22	232.44
783.54	232.40
783.86	232.34
784.19	232.26
784.51	232.26
784.83	232.20
785.16	232.13
785.48	232.08
785.80	232.02
786.12	231.98
786.45	231.96
786.77	231.93
787.09	231.87
787.42	231.74
787.74	231.70
788.06	231.66
788.38	231.62
788.71	231.61
789.03	231.57
789.35	231.53
789.67	231.50
789.99	231.50
790.32	231.44
790.64	231.40
790.96	231.49
791.28	231.41
791.61	231.38
791.93	231.36
792.25	231.34
792.57	231.42
792.89	231.38
793.21	231.38
793.54	231.34
793.86	231.30
794.18	231.29
794.50	231.23
794.82	231.22
795.14	231.21
795.47	231.19
795.79	231.17
796.11	231.13
796.43	231.09
796.75	231.07
797.07	231.08
797.39	231.06
797.71	230.94
798.04	230.91
798.36	230.90
798.68	230.86
799.00	230.83
799.32	230.74
799.64	230.72
799.96	230.68
800.28	230.64
800.60	230.63
800.92	230.63
801.24	230.58
801.56	230.56
801.89	230.53
802.21	230.49
802.53	230.42
802.85	230.40
803.17	230.41
803.49	230.35
803.81	230.25
804.13	230.23
804.45	230.17
804.77	230.16
805.09	230.13
805.41	230.13
805.73	230.09
806.05	230.01
806.37	229.96
806.69	229.90
807.01	229.86
807.33	229.84
807.65	229.75
807.97	229.76
808.28	229.69
808.60	229.61
808.92	229.56
809.24	229.59
809.56	229.54
809.88	229.46
810.20	229.43
810.52	229.44
810.84	229.38
811.16	229.33
811.48	229.27
811.80	229.26
812.12	229.18
812.43	229.15
812.75	229.14
813.07	229.12
813.39	229.12
813.71	229.10
814.03	229.04
814.35	228.99
814.67	228.94
814.98	228.94
815.30	228.91
815.62	228.86
815.94	228.77
816.26	228.77
816.58	228.75
816.89	228.70
817.21	228.64
817.53	228.61
817.85	228.60
818.17	228.54
818.48	228.46
818.80	228.46
819.12	228.41
819.44	228.36
819.76	228.33
820.07	228.30
820.39	228.25
820.71	228.24
821.03	228.24
821.34	228.21
821.66	228.19
821.98	228.19
822.30	228.20
822.61	228.24
822.93	228.21
823.25	228.20
823.57	228.19
823.88	228.22
824.20	228.20
824.52	228.19
824.83	228.23
825.15	228.21
825.47	228.18
825.79	228.19
826.10	228.20
826.42	228.17
826.74	228.19
827.05	228.18
827.37	228.20
827.69	228.24
828.00	228.23
828.32	228.20
828.64	228.21
828.95	228.23
829.27	228.20
829.58	228.19
829.90	228.16
830.22	228.20
830.53	228.17
830.85	228.20
831.17	228.18
831.48	228.18
831.80	228.21
832.11	228.21
832.43	228.21
832.75	228.20
833.06	228.29
833.38	228.29
833.69	228.29
834.01	228.29
834.32	228.23
834.64	228.27
834.96	228.29
835.27	228.31
835.59	228.32
835.90	228.27
836.22	228.28
836.53	228.29
836.85	228.26
837.16	228.36
837.48	228.36
837.79	228.38
838.11	228.37
838.42	228.37
838.74	228.38
839.05	228.36
839.37	228.33
839.68	228.24
840.00	228.21
840.31	228.24
840.63	228.24
840.94	228.25
841.26	228.20
841.57	228.19
841.88	228.16
842.20	228.14
842.51	228.12
842.83	228.08
843.14	228.18
843.46	228.18
843.77	228.11
844.08	228.11
844.40	228.10
844.71	228.10
845.03	228.06
845.34	228.05
845.65	228.04
845.97	228.07
846.28	228.05
846.60	228.07
846.91	228.03
847.22	228.00
847.54	227.99
847.85	228.01
848.16	227.98
848.48	227.95
848.79	227.96
849.10	227.99
849.42	228.02
849.73	227.91
850.04	227.88
850.36	227.81
850.67	227.79
850.98	227.75
851.30	227.72
851.61	227.73
851.92	227.70
852.23	227.74
852.55	227.73
852.86	227.75
853.17	227.71
853.49	227.71
853.80	227.70
854.11	227.70
854.42	227.70
854.74	227.70
855.05	227.68
855.36	227.63
855.67	227.61
855.99	227.57
856.30	227.67
856.61	227.68
856.92	227.72
857.23	227.71
857.55	227.72
857.86	227.74
858.17	227.77
858.48	227.79
858.79	227.75
859.11	227.76
859.42	227.72
859.73	227.71
860.04	227.69
860.35	227.72
860.66	227.67
860.98	227.67
861.29	227.67
861.60	227.66
861.91	227.69
862.22	227.68
862.53	227.70
862.84	227.60
863.16	227.61
863.47	227.57
863.78	227.59
864.09	227.61
864.40	227.62
864.71	227.59
865.02	227.56
865.33	227.61
865.64	227.56
865.95	227.57
866.27	227.67
866.58	227.68
866.89	227.67
867.20	227.68
867.51	227.67
867.82	227.66
868.13	227.71
868.44	227.68
868.75	227.65
869.06	227.60
869.37	227.60
869.68	227.58
869.99	227.59
870.30	227.58
870.61	227.55
870.92	227.54
871.23	227.54
871.54	227.56
871.85	227.53
872.16	227.57
872.47	227.57
872.78	227.50
873.09	227.51
873.40	227.51
873.71	227.53
874.02	227.52
874.33	227.54
874.64	227.52
874.95	227.52
875.26	227.52
875.56	227.55
875.87	227.55
876.18	227.56
876.49	227.67
876.80	227.65
877.11	227.65
877.42	227.63
877.73	227.61
878.04	227.60
878.35	227.60
878.66	227.58
878.96	227.58
879.27	227.57
879.58	227.57
879.89	227.53
880.20	227.55
880.51	227.54
880.82	227.50
881.12	227.49
881.43	227.49
881.74	227.48
882.05	227.48
882.36	227.46
882.67	227.44
882.97	227.29
883.28	227.30
883.59	227.30
883.90	227.30
884.21	227.33
884.51	227.30
884.82	227.28
885.13	227.28
885.44	227.25
885.74	227.23
886.05	227.17
886.36	227.20
886.67	227.13
886.98	227.18
887.28	227.18
887.59	227.16
887.90	227.18
888.20	227.18
888.51	227.20
888.82	227.19
889.13	227.22
889.43	227.32
889.74	227.30
890.05	227.30
890.35	227.29
890.66	227.24
890.97	227.24
891.28	227.25
891.58	227.25
891.89	227.23
892.20	227.23
892.50	227.27
892.81	227.23
893.12	227.26
893.42	227.21
893.73	227.21
894.04	227.22
894.34	227.19
894.65	227.18
894.95	227.15
895.26	227.18
895.57	227.21
895.87	227.11
896.18	227.11
896.48	227.10
896.79	227.11
897.10	227.13
897.40	227.12
897.71	227.10
898.01	227.12
898.32	227.15
898.63	227.14
898.93	227.12
899.24	227.14
899.54	227.12
899.85	227.14
900.15	227.14
900.46	227.11
900.76	227.14
901.07	227.13
901.38	227.11
901.68	227.12
901.99	227.07
902.29	227.09
902.60	227.11
902.90	227.09
903.21	227.08
903.51	227.10
903.82	227.14
904.12	227.20
904.43	227.17
904.73	227.17
905.03	227.21
905.34	227.31
905.64	227.30
905.95	227.32
906.25	227.29
906.56	227.31
906.86	227.33
907.17	227.29
907.47	227.30
907.77	227.30
908.08	227.24
908.38	227.28
908.69	227.28
908.99	227.29
909.30	227.28
909.60	227.29
909.90	227.29
910.21	227.25
910.51	227.17
910.81	227.18
911.12	227.20
911.42	227.20
911.73	227.09
912.03	227.10
912.33	227.10
912.64	227.10
912.94	227.10
913.24	227.09
913.55	227.13
913.85	227.14
914.15	227.16
914.46	227.18
914.76	227.12
915.06	227.11
915.37	227.08
915.67	227.10
915.97	227.09
916.27	227.09
916.58	227.08
916.88	227.12
917.18	227.09
917.49	227.14
917.79	227.10
918.09	227.09
918.39	227.11
918.70	227.10
919.00	227.12
919.30	227.16
919.60	227.15
919.91	227.14
920.21	227.13
920.51	227.13
920.81	227.14
921.12	227.15
921.42	227.12
921.72	227.14
922.02	227.14
922.32	227.15
922.63	227.13
922.93	227.19
923.23	227.16
923.53	227.16
923.83	227.12
924.13	227.14
924.44	227.16
924.74	227.18
925.04	227.23
925.34	227.20
925.64	227.18
925.94	227.17
926.24	227.17
926.55	227.16
926.85	227.14
927.15	227.14
927.45	227.15
927.75	227.18
928.05	227.20
928.35	227.18
928.65	227.19
928.95	227.23
929.26	227.17
929.56	227.19
929.86	227.23
930.16	227.22
930.46	227.22
930.76	227.21
931.06	227.17
931.36	227.11
931.66	227.16
931.96	227.17
932.26	227.17
932.56	227.14
932.86	227.16
933.16	227.16
933.46	227.18
933.76	227.18
934.06	227.16
934.36	227.21
934.66	227.21
934.96	227.19
935.26	227.16
935.56	227.19
935.86	227.15
936.16	227.16
936.46	227.16
936.76	227.14
937.06	227.14
937.36	227.13
937.66	227.16
937.96	227.12
938.26	227.08
938.56	227.13
938.86	227.13
939.16	227.16
939.46	227.19
939.76	227.19
940.06	227.21
940.35	227.21
940.65	227.14
940.95	227.17
941.25	227.18
941.55	227.17
941.85	227.15
942.15	227.20
942.45	227.20
942.75	227.18
943.04	227.20
943.34	227.25
943.64	227.25
943.94	227.22
944.24	227.22
944.54	227.25
944.84	227.24
945.13	227.27
945.43	227.26
945.73	227.29
946.03	227.25
946.33	227.23
946.62	227.22
946.92	227.23
947.22	227.23
947.52	227.24
947.82	227.27
948.11	227.28
948.41	227.26
948.71	227.26
949.01	227.25
949.31	227.22
949.60	227.19
949.90	227.20
950.20	227.22
950.50	227.24
950.79	227.21
951.09	227.20
951.39	227.18
951.69	227.17
951.98	227.12
952.28	227.13
952.58	227.11
952.87	227.12
953.17	227.15
953.47	227.12
953.76	227.11
954.06	227.10
954.36	227.08
954.66	227.05
954.95	227.08
955.25	227.09
955.55	227.13
955.84	227.11
956.14	227.12
956.44	227.11
956.73	227.05
957.03	227.08
957.32	227.08
957.62	227.06
957.92	227.06
958.21	227.06
958.51	227.17
958.81	227.18
959.10	227.19
959.40	227.18
959.69	227.20
959.99	227.21
960.29	227.20
960.58	227.21
960.88	227.24
961.17	227.23
961.47	227.24
961.76	227.20
962.06	227.20
962.36	227.22
962.65	227.24
962.95	227.24
963.24	227.19
963.54	227.20
963.83	227.23
964.13	227.24
964.42	227.23
964.72	227.17
965.01	227.15
965.31	227.16
965.60	227.12
965.90	227.19
966.19	227.16
966.49	227.16
966.78	227.13
967.08	227.13
967.37	227.11
967.67	227.07
967.96	227.09
968.26	227.13
968.55	227.09
968.85	227.10
969.14	227.16
969.43	227.16
969.73	227.16
970.02	227.14
970.32	227.11
970.61	227.10
970.91	227.03
971.20	227.03
971.49	227.02
971.79	227.04
972.08	226.95
972.38	226.94
972.67	226.95
972.96	226.99
973.26	226.98
973.55	227.02
973.85	227.04
974.14	227.07
974.43	227.07
974.73	227.08
975.02	227.07
975.31	227.06
975.61	227.09
975.90	227.07
976.19	227.08
976.49	227.12
976.78	227.17
977.07	227.20
977.37	227.20
977.66	227.23
977.95	227.21
978.24	227.23
978.54	227.27
978.83	227.25
979.12	227.22
979.42	227.25
979.71	227.22
980.00	227.23
980.29	227.26
980.59	227.22
980.88	227.27
981.17	227.26
981.46	227.22
981.76	227.21
982.05	227.25
982.34	227.24
982.63	227.22
982.93	227.21
983.22	227.24
983.51	227.23
983.80	227.24
984.09	227.27
984.39	227.26
984.68	227.25
984.97	227.24
985.26	227.25
985.55	227.24
985.85	227.23
986.14	227.21
986.43	227.18
986.72	227.16
987.01	227.09
987.30	227.08
987.59	227.08
987.89	227.10
988.18	227.06
988.47	227.07
988.76	227.07
989.05	227.05
989.34	227.03
989.63	227.07
989.92	227.05
990.22	227.01
990.51	227.00
990.80	226.97
991.09	226.99
991.38	226.97
991.67	226.95
991.96	226.93
992.25	226.94
992.54	226.93
992.83	226.91
993.12	226.92
993.41	226.92
993.70	226.96
993.99	226.96
994.28	226.98
994.58	226.94
994.87	226.91
995.16	226.87
995.45	226.89
995.74	226.85
996.03	226.86
996.32	226.88
996.61	226.88
996.90	226.89
997.19	226.89
997.48	226.88
997.77	226.88
998.06	226.85
998.34	226.84
998.63	226.83
998.92	226.86
999.21	226.83
999.50	226.82
999.79	226.77
1000.08	226.79
1000.37	226.78
1000.66	226.80
1000.95	226.81
1001.24	226.82
1001.53	226.78
1001.82	226.78
1002.11	226.74
1002.40	226.73
1002.68	226.75
1002.97	226.80
1003.26	226.78
1003.55	226.78
1003.84	226.79
1004.13	226.81
1004.42	226.81
1004.71	226.81
1004.99	226.79
1005.28	226.82
1005.57	226.82
1005.86	226.83
1006.15	226.79
1006.44	226.76
1006.72	226.77
1007.01	226.76
1007.30	226.75
1007.59	226.78
1007.88	226.74
1008.17	226.75
1008.45	226.75
1008.74	226.74
1009.03	226.72
1009.32	226.74
1009.60	226.75
1009.89	226.72
1010.18	226.71
1010.47	226.73
1010.76	226.70
1011.04	226.72
1011.33	226.75
1011.62	226.80
1011.91	226.82
1012.19	226.85
1012.48	226.89
1012.77	226.85
1013.05	226.90
1013.34	226.93
1013.63	226.93
1013.92	226.96
1014.20	226.98
1014.49	227.00
1014.78	227.00
1015.06	226.97
1015.35	226.95
1015.64	226.97
1015.92	226.99
1016.21	227.02
1016.50	227.03
1016.78	227.05
1017.07	227.08
1017.36	227.06
1017.64	227.03
1017.93	227.05
1018.22	227.05
1018.50	227.04
1018.79	227.07
1019.08	227.04
1019.36	227.06
1019.65	227.04
1019.93	227.06
1020.22	227.07
1020.51	227.09
1020.79	227.04
1021.08	227.15
1021.36	226.83
1021.65	226.85
1021.94	227.19
1022.22	227.33
1022.51	226.67
1022.79	227.21
1023.08	227.25
1023.36	227.79
1023.65	225.95
>>>>>End Processed Spectral Data<<<<<
