SpectraSuite Data File
++++++++++++++++++++++++++++++++++++
Date: Fri Feb 01 16:22:23 EST 2013
User: group
Dark Spectrum Present: No
Reference Spectrum Present: No
Number of Sampled Component Spectra: 1
Spectrometers: USB2E7196
Integration Time (usec): 35000 (USB2E7196)
Spectra Averaged: 100 (USB2E7196)
Boxcar Smoothing: 10 (USB2E7196)
Correct for Electrical Dark: No (USB2E7196)
Strobe/Lamp Enabled: No (USB2E7196)
Correct for Detector Non-linearity: No (USB2E7196)
Correct for Stray Light: No (USB2E7196)
Number of Pixels in Processed Spectrum: 2048
>>>>>Begin Processed Spectral Data<<<<<
339.09	0.00
339.48	214.37
339.86	215.86
340.24	216.85
340.63	218.51
341.01	220.85
341.39	221.24
341.78	222.27
342.16	223.84
342.54	224.00
342.93	212.53
343.31	223.28
343.69	223.83
344.07	224.29
344.46	224.73
344.84	225.12
345.22	225.36
345.60	225.62
345.99	225.77
346.37	225.92
346.75	226.01
347.13	226.05
347.52	226.13
347.90	226.22
348.28	226.20
348.66	226.25
349.05	226.23
349.43	226.29
349.81	226.35
350.19	226.36
350.57	226.38
350.96	226.44
351.34	226.53
351.72	226.58
352.10	226.67
352.48	226.71
352.87	226.75
353.25	226.83
353.63	226.89
354.01	226.99
354.39	227.02
354.77	227.10
355.15	227.19
355.54	227.24
355.92	227.26
356.30	227.38
356.68	227.50
357.06	227.55
357.44	227.61
357.82	227.67
358.20	227.75
358.58	227.82
358.97	227.86
359.35	227.92
359.73	227.99
360.11	228.01
360.49	228.09
360.87	228.15
361.25	228.23
361.63	228.29
362.01	228.36
362.39	228.39
362.77	228.43
363.15	228.48
363.53	228.49
363.91	228.53
364.29	228.56
364.67	228.52
365.05	228.55
365.43	228.57
365.81	228.59
366.19	228.63
366.57	228.70
366.95	228.71
367.33	228.67
367.71	228.66
368.09	228.68
368.47	228.68
368.85	228.64
369.23	228.60
369.61	228.55
369.99	228.53
370.37	228.54
370.75	228.57
371.13	228.49
371.51	228.49
371.89	228.47
372.27	228.41
372.65	228.34
373.03	228.30
373.41	228.23
373.78	228.16
374.16	228.06
374.54	227.92
374.92	227.86
375.30	227.82
375.68	227.76
376.06	227.74
376.44	227.67
376.82	227.59
377.19	227.53
377.57	227.48
377.95	227.38
378.33	227.29
378.71	227.17
379.09	227.17
379.47	227.08
379.84	226.99
380.22	226.91
380.60	226.85
380.98	226.80
381.36	226.73
381.73	226.69
382.11	226.67
382.49	226.66
382.87	226.59
383.25	226.52
383.62	226.60
384.00	226.51
384.38	226.47
384.76	226.42
385.13	226.41
385.51	226.37
385.89	226.30
386.27	226.27
386.64	226.24
387.02	226.15
387.40	226.09
387.78	226.07
388.15	226.04
388.53	226.03
388.91	225.98
389.29	225.97
389.66	225.97
390.04	225.91
390.42	225.90
390.79	225.92
391.17	225.90
391.55	225.78
391.92	225.77
392.30	225.77
392.68	225.77
393.05	225.74
393.43	225.75
393.81	225.76
394.18	225.76
394.56	225.76
394.94	225.79
395.31	225.83
395.69	225.88
396.06	225.91
396.44	225.90
396.82	225.91
397.19	225.96
397.57	225.96
397.95	226.03
398.32	226.05
398.70	226.09
399.07	226.18
399.45	226.20
399.82	226.24
400.20	226.27
400.58	226.35
400.95	226.39
401.33	226.48
401.70	226.62
402.08	226.71
402.45	226.82
402.83	226.94
403.20	227.04
403.58	227.11
403.95	227.23
404.33	227.39
404.71	227.54
405.08	227.73
405.46	227.87
405.83	228.01
406.21	228.15
406.58	228.28
406.96	228.42
407.33	228.61
407.70	228.81
408.08	229.08
408.45	229.27
408.83	229.52
409.20	229.74
409.58	229.94
409.95	230.18
410.33	230.45
410.70	230.67
411.08	230.93
411.45	231.20
411.82	231.50
412.20	231.85
412.57	232.24
412.95	232.52
413.32	232.93
413.69	233.34
414.07	233.78
414.44	234.25
414.82	234.70
415.19	235.21
415.56	235.77
415.94	236.29
416.31	236.94
416.68	237.57
417.06	238.28
417.43	238.95
417.81	239.71
418.18	240.45
418.55	241.32
418.93	242.21
419.30	243.14
419.67	244.09
420.04	245.03
420.42	246.00
420.79	247.18
421.16	248.35
421.54	249.50
421.91	250.71
422.28	251.96
422.66	253.30
423.03	254.61
423.40	255.95
423.77	257.38
424.15	258.78
424.52	260.23
424.89	261.81
425.26	263.35
425.64	264.79
426.01	266.42
426.38	268.08
426.75	269.74
427.13	271.50
427.50	273.29
427.87	275.17
428.24	277.04
428.61	278.77
428.99	280.68
429.36	282.77
429.73	284.85
430.10	286.86
430.47	288.96
430.85	291.07
431.22	293.29
431.59	295.64
431.96	297.88
432.33	300.39
432.70	302.75
433.08	305.56
433.45	308.22
433.82	310.79
434.19	313.68
434.56	316.50
434.93	319.11
435.30	321.73
435.68	324.64
436.05	327.45
436.42	330.24
436.79	332.75
437.16	335.46
437.53	338.30
437.90	341.11
438.27	343.85
438.64	346.68
439.01	349.27
439.38	351.56
439.75	353.75
440.13	356.24
440.50	358.59
440.87	360.43
441.24	362.35
441.61	364.50
441.98	365.98
442.35	367.85
442.72	369.71
443.09	371.52
443.46	372.48
443.83	373.11
444.20	373.65
444.57	374.51
444.94	374.80
445.31	375.10
445.68	375.47
446.05	375.52
446.42	375.14
446.79	374.71
447.16	374.19
447.53	373.86
447.90	372.70
448.27	371.54
448.64	369.96
449.01	368.84
449.37	366.89
449.74	364.97
450.11	362.65
450.48	360.16
450.85	357.62
451.22	355.47
451.59	353.42
451.96	351.47
452.33	348.83
452.70	346.51
453.07	343.71
453.43	340.75
453.80	337.99
454.17	335.35
454.54	332.81
454.91	330.11
455.28	327.42
455.65	324.95
456.02	322.51
456.38	320.38
456.75	317.68
457.12	315.41
457.49	313.21
457.86	311.02
458.23	309.19
458.59	307.17
458.96	305.07
459.33	303.21
459.70	301.34
460.07	299.86
460.43	298.08
460.80	296.46
461.17	295.06
461.54	293.52
461.91	292.06
462.27	290.64
462.64	289.38
463.01	288.02
463.38	286.69
463.74	285.30
464.11	284.14
464.48	283.15
464.85	282.06
465.21	281.16
465.58	280.28
465.95	279.17
466.32	278.25
466.68	277.37
467.05	276.49
467.42	275.61
467.78	274.68
468.15	273.84
468.52	273.17
468.88	272.31
469.25	271.58
469.62	270.95
469.98	270.27
470.35	269.65
470.72	269.07
471.08	268.43
471.45	267.92
471.82	267.34
472.18	266.76
472.55	266.34
472.92	265.85
473.28	265.38
473.65	264.94
474.02	264.53
474.38	264.18
474.75	263.87
475.11	263.49
475.48	263.24
475.85	262.99
476.21	262.78
476.58	262.61
476.94	262.51
477.31	262.37
477.67	262.25
478.04	262.18
478.41	262.14
478.77	262.22
479.14	262.16
479.50	262.23
479.87	262.27
480.23	262.36
480.60	262.41
480.96	262.54
481.33	262.78
481.69	262.96
482.06	263.15
482.42	263.38
482.79	263.69
483.15	264.00
483.52	264.42
483.88	264.78
484.25	265.20
484.61	265.62
484.98	266.09
485.34	266.68
485.71	267.27
486.07	267.84
486.44	268.41
486.80	269.13
487.17	269.88
487.53	270.73
487.90	271.57
488.26	272.55
488.62	273.55
488.99	274.53
489.35	275.61
489.72	276.74
490.08	277.93
490.44	279.16
490.81	280.52
491.17	281.86
491.54	283.36
491.90	284.92
492.26	286.58
492.63	288.34
492.99	290.08
493.36	291.96
493.72	294.02
494.08	296.17
494.45	298.38
494.81	300.76
495.17	303.20
495.54	305.82
495.90	308.48
496.26	311.28
496.63	314.23
496.99	317.35
497.35	320.67
497.72	324.11
498.08	327.72
498.44	331.36
498.80	335.34
499.17	339.40
499.53	343.57
499.89	347.94
500.26	352.36
500.62	357.02
500.98	362.04
501.34	367.11
501.71	372.40
502.07	377.88
502.43	383.49
502.79	389.26
503.16	395.35
503.52	401.62
503.88	408.05
504.24	414.65
504.60	421.52
504.97	428.57
505.33	435.86
505.69	443.50
506.05	451.31
506.41	459.14
506.78	467.27
507.14	475.72
507.50	484.48
507.86	493.52
508.22	502.73
508.59	511.94
508.95	521.61
509.31	531.45
509.67	541.62
510.03	551.92
510.39	562.50
510.75	573.23
511.12	584.15
511.48	595.40
511.84	606.89
512.20	618.33
512.56	630.33
512.92	642.54
513.28	654.86
513.64	667.34
514.00	680.00
514.37	692.92
514.73	705.95
515.09	718.91
515.45	732.22
515.81	745.78
516.17	759.74
516.53	773.82
516.89	787.93
517.25	801.96
517.61	816.38
517.97	830.80
518.33	845.17
518.69	859.93
519.05	874.88
519.41	889.94
519.77	905.56
520.13	920.99
520.49	936.29
520.85	951.68
521.21	967.42
521.57	983.63
521.93	999.35
522.29	1015.69
522.65	1031.85
523.01	1047.98
523.37	1063.97
523.73	1080.15
524.09	1096.15
524.45	1112.34
524.81	1128.96
525.17	1145.66
525.53	1162.60
525.89	1179.51
526.25	1196.34
526.61	1212.70
526.97	1229.43
527.33	1245.84
527.68	1262.30
528.04	1278.73
528.40	1295.31
528.76	1312.23
529.12	1328.73
529.48	1345.50
529.84	1361.48
530.20	1378.10
530.56	1395.05
530.91	1412.50
531.27	1429.17
531.63	1445.66
531.99	1462.21
532.35	1478.13
532.71	1494.05
533.07	1510.09
533.42	1525.79
533.78	1541.70
534.14	1557.93
534.50	1573.23
534.86	1589.03
535.21	1604.26
535.57	1620.20
535.93	1635.52
536.29	1650.27
536.65	1665.35
537.00	1680.03
537.36	1695.19
537.72	1709.69
538.08	1724.17
538.44	1737.72
538.79	1751.53
539.15	1765.06
539.51	1778.72
539.87	1792.95
540.22	1806.58
540.58	1820.34
540.94	1833.66
541.29	1846.51
541.65	1859.10
542.01	1872.16
542.37	1884.28
542.72	1896.66
543.08	1908.36
543.44	1920.76
543.79	1931.91
544.15	1942.77
544.51	1954.41
544.87	1965.39
545.22	1976.05
545.58	1986.05
545.94	1995.87
546.29	2005.53
546.65	2015.26
547.01	2024.54
547.36	2033.20
547.72	2041.57
548.07	2049.31
548.43	2057.43
548.79	2065.45
549.14	2072.87
549.50	2080.31
549.86	2088.04
550.21	2095.32
550.57	2102.35
550.92	2108.82
551.28	2115.73
551.64	2122.78
551.99	2129.16
552.35	2135.37
552.70	2141.49
553.06	2147.51
553.41	2153.84
553.77	2159.84
554.13	2165.95
554.48	2172.13
554.84	2177.61
555.19	2182.73
555.55	2187.98
555.90	2192.40
556.26	2197.14
556.61	2201.97
556.97	2206.31
557.32	2210.36
557.68	2214.38
558.03	2218.71
558.39	2222.49
558.74	2227.35
559.10	2231.26
559.45	2235.03
559.81	2239.25
560.16	2243.15
560.52	2246.44
560.87	2249.70
561.23	2252.37
561.58	2255.28
561.94	2257.72
562.29	2259.96
562.64	2262.83
563.00	2265.19
563.35	2268.76
563.71	2271.85
564.06	2274.95
564.42	2277.65
564.77	2280.20
565.12	2282.61
565.48	2284.51
565.83	2286.48
566.19	2287.62
566.54	2288.53
566.89	2289.57
567.25	2290.05
567.60	2291.26
567.96	2292.90
568.31	2293.80
568.66	2295.06
569.02	2295.75
569.37	2296.11
569.72	2297.18
570.08	2297.37
570.43	2297.52
570.78	2297.00
571.14	2295.50
571.49	2294.22
571.84	2294.02
572.20	2293.06
572.55	2292.01
572.90	2290.49
573.26	2289.13
573.61	2287.58
573.96	2285.91
574.31	2283.06
574.67	2280.33
575.02	2276.91
575.37	2273.70
575.72	2270.00
576.08	2266.67
576.43	2263.38
576.78	2259.65
577.13	2256.57
577.49	2253.55
577.84	2250.23
578.19	2246.56
578.54	2243.21
578.90	2239.10
579.25	2233.59
579.60	2228.58
579.95	2223.59
580.30	2218.55
580.66	2213.31
581.01	2208.34
581.36	2203.40
581.71	2199.23
582.06	2194.70
582.42	2190.23
582.77	2185.07
583.12	2180.58
583.47	2175.86
583.82	2171.02
584.17	2165.99
584.53	2160.46
584.88	2154.76
585.23	2149.06
585.58	2143.58
585.93	2138.13
586.28	2133.44
586.63	2128.42
586.98	2123.44
587.34	2118.73
587.69	2114.00
588.04	2108.89
588.39	2103.39
588.74	2097.11
589.09	2090.99
589.44	2084.30
589.79	2078.44
590.14	2072.84
590.49	2066.33
590.84	2060.01
591.19	2053.89
591.54	2047.40
591.89	2040.19
592.25	2033.54
592.60	2026.41
592.95	2019.00
593.30	2011.62
593.65	2004.02
594.00	1997.05
594.35	1989.87
594.70	1981.93
595.05	1974.84
595.40	1967.56
595.75	1959.94
596.10	1953.68
596.45	1946.94
596.80	1940.89
597.15	1934.23
597.50	1927.04
597.85	1920.68
598.19	1914.07
598.54	1907.05
598.89	1900.41
599.24	1894.43
599.59	1887.76
599.94	1881.58
600.29	1875.25
600.64	1868.79
600.99	1861.43
601.34	1854.60
601.69	1847.66
602.04	1840.81
602.39	1833.51
602.74	1826.74
603.08	1820.17
603.43	1813.56
603.78	1806.28
604.13	1799.06
604.48	1791.80
604.83	1784.95
605.18	1778.06
605.53	1770.13
605.87	1762.19
606.22	1755.01
606.57	1747.13
606.92	1739.83
607.27	1732.69
607.62	1725.68
607.96	1718.24
608.31	1711.71
608.66	1704.06
609.01	1696.49
609.36	1688.90
609.70	1680.75
610.05	1672.70
610.40	1665.00
610.75	1656.51
611.10	1648.93
611.44	1640.43
611.79	1632.49
612.14	1623.84
612.49	1614.55
612.83	1606.24
613.18	1597.97
613.53	1589.87
613.88	1581.29
614.22	1572.85
614.57	1564.12
614.92	1556.12
615.27	1548.70
615.61	1540.26
615.96	1532.33
616.31	1524.71
616.65	1517.36
617.00	1509.87
617.35	1502.15
617.70	1493.75
618.04	1485.33
618.39	1477.10
618.74	1469.49
619.08	1461.18
619.43	1453.56
619.78	1446.64
620.12	1439.35
620.47	1431.82
620.82	1423.65
621.16	1416.27
621.51	1408.81
621.85	1401.22
622.20	1392.63
622.55	1384.25
622.89	1376.49
623.24	1368.89
623.59	1361.48
623.93	1353.97
624.28	1346.76
624.62	1339.33
624.97	1332.14
625.32	1325.40
625.66	1318.34
626.01	1311.25
626.35	1303.71
626.70	1296.00
627.04	1288.34
627.39	1280.56
627.73	1273.26
628.08	1266.38
628.43	1259.05
628.77	1251.69
629.12	1244.14
629.46	1237.18
629.81	1229.74
630.15	1222.47
630.50	1215.02
630.84	1206.81
631.19	1198.83
631.53	1191.19
631.88	1183.55
632.22	1176.01
632.57	1168.59
632.91	1161.00
633.26	1153.50
633.60	1146.16
633.95	1139.07
634.29	1132.00
634.64	1125.32
634.98	1117.94
635.32	1110.64
635.67	1104.02
636.01	1097.43
636.36	1090.60
636.70	1083.97
637.05	1077.38
637.39	1070.91
637.73	1064.33
638.08	1058.48
638.42	1052.54
638.77	1046.17
639.11	1039.62
639.45	1033.17
639.80	1026.57
640.14	1020.23
640.49	1013.74
640.83	1007.46
641.17	1001.26
641.52	994.90
641.86	988.47
642.20	982.58
642.55	976.31
642.89	969.83
643.23	963.21
643.58	957.45
643.92	951.24
644.26	945.20
644.61	939.04
644.95	932.99
645.29	926.33
645.64	919.53
645.98	913.19
646.32	907.28
646.66	901.18
647.01	895.40
647.35	889.72
647.69	883.80
648.04	878.22
648.38	872.35
648.72	866.34
649.06	860.24
649.41	854.38
649.75	848.44
650.09	842.48
650.43	836.69
650.78	830.55
651.12	824.59
651.46	818.87
651.80	813.19
652.14	807.76
652.49	802.41
652.83	797.22
653.17	791.53
653.51	785.83
653.85	780.46
654.20	774.78
654.54	768.71
654.88	762.97
655.22	757.09
655.56	751.43
655.90	746.00
656.25	740.78
656.59	735.35
656.93	730.28
657.27	725.16
657.61	719.67
657.95	714.53
658.29	709.49
658.64	704.26
658.98	698.96
659.32	693.56
659.66	688.34
660.00	683.07
660.34	678.08
660.68	673.08
661.02	668.02
661.36	663.30
661.70	658.81
662.05	654.41
662.39	650.05
662.73	645.55
663.07	641.15
663.41	636.71
663.75	632.22
664.09	627.67
664.43	623.18
664.77	619.05
665.11	614.80
665.45	610.60
665.79	606.47
666.13	602.38
666.47	598.34
666.81	594.19
667.15	590.04
667.49	586.17
667.83	582.39
668.17	578.51
668.51	574.45
668.85	570.40
669.19	566.59
669.53	562.69
669.87	558.81
670.21	555.10
670.55	551.48
670.89	548.08
671.23	544.73
671.57	541.28
671.91	537.78
672.25	534.35
672.58	530.84
672.92	527.41
673.26	524.19
673.60	521.01
673.94	517.88
674.28	515.02
674.62	512.01
674.96	508.92
675.30	505.99
675.64	503.02
675.97	500.31
676.31	497.45
676.65	494.61
676.99	491.93
677.33	489.07
677.67	486.19
678.01	483.12
678.34	480.14
678.68	477.24
679.02	474.41
679.36	471.57
679.70	468.86
680.04	466.09
680.37	463.21
680.71	460.39
681.05	457.79
681.39	455.03
681.73	452.42
682.06	449.93
682.40	447.37
682.74	444.90
683.08	442.31
683.42	439.74
683.75	437.21
684.09	434.67
684.43	432.16
684.77	429.73
685.10	427.41
685.44	425.07
685.78	422.80
686.12	420.54
686.45	418.28
686.79	415.97
687.13	413.79
687.46	411.62
687.80	409.47
688.14	407.20
688.48	405.11
688.81	402.84
689.15	400.65
689.49	398.51
689.82	396.39
690.16	394.32
690.50	392.34
690.83	390.41
691.17	388.43
691.51	386.50
691.84	384.63
692.18	382.68
692.52	380.66
692.85	378.69
693.19	376.81
693.52	374.91
693.86	373.10
694.20	371.29
694.53	369.50
694.87	367.61
695.21	365.85
695.54	364.03
695.88	362.28
696.21	360.51
696.55	358.80
696.88	357.11
697.22	355.43
697.56	353.81
697.89	352.09
698.23	350.46
698.56	348.85
698.90	347.27
699.23	345.61
699.57	344.05
699.90	342.49
700.24	340.92
700.58	339.43
700.91	337.92
701.25	336.49
701.58	335.06
701.92	333.73
702.25	332.34
702.59	331.01
702.92	329.70
703.26	328.40
703.59	327.08
703.93	325.83
704.26	324.58
704.60	323.27
704.93	322.00
705.26	320.74
705.60	319.57
705.93	318.38
706.27	317.35
706.60	316.31
706.94	315.27
707.27	314.15
707.61	313.09
707.94	312.06
708.27	310.97
708.61	309.90
708.94	308.87
709.28	307.89
709.61	306.92
709.94	305.97
710.28	304.97
710.61	304.03
710.95	303.00
711.28	302.13
711.61	301.20
711.95	300.30
712.28	299.36
712.61	298.40
712.95	297.47
713.28	296.58
713.61	295.69
713.95	294.81
714.28	293.98
714.61	293.12
714.95	292.27
715.28	291.40
715.61	290.55
715.95	289.70
716.28	288.81
716.61	287.97
716.95	287.15
717.28	286.40
717.61	285.65
717.94	284.92
718.28	284.06
718.61	283.34
718.94	282.66
719.27	282.02
719.61	281.37
719.94	280.72
720.27	280.01
720.60	279.37
720.94	278.70
721.27	278.09
721.60	277.51
721.93	276.91
722.27	276.38
722.60	275.81
722.93	275.24
723.26	274.76
723.59	274.21
723.93	273.67
724.26	273.13
724.59	272.53
724.92	271.97
725.25	271.51
725.59	270.98
725.92	270.49
726.25	269.97
726.58	269.48
726.91	268.99
727.24	268.52
727.57	268.04
727.91	267.52
728.24	267.09
728.57	266.61
728.90	266.18
729.23	265.67
729.56	265.25
729.89	264.80
730.22	264.29
730.55	263.82
730.89	263.38
731.22	262.93
731.55	262.51
731.88	262.14
732.21	261.69
732.54	261.25
732.87	260.82
733.20	260.39
733.53	260.01
733.86	259.60
734.19	259.16
734.52	258.76
734.85	258.50
735.18	258.02
735.51	257.67
735.84	257.27
736.17	256.93
736.50	256.52
736.83	256.28
737.16	255.92
737.49	255.58
737.82	255.26
738.15	254.91
738.48	254.58
738.81	254.23
739.14	253.90
739.47	253.57
739.80	253.25
740.13	252.95
740.46	252.59
740.79	252.27
741.12	251.99
741.45	251.67
741.78	251.34
742.11	251.10
742.44	250.70
742.77	250.36
743.10	250.00
743.43	249.72
743.75	249.34
744.08	249.22
744.41	248.96
744.74	248.64
745.07	248.36
745.40	248.08
745.73	247.83
746.06	247.55
746.39	247.25
746.71	246.99
747.04	246.74
747.37	246.46
747.70	246.23
748.03	245.96
748.36	245.76
748.68	245.47
749.01	245.20
749.34	245.02
749.67	244.86
750.00	244.67
750.33	244.49
750.65	244.29
750.98	243.92
751.31	243.69
751.64	243.50
751.97	243.32
752.29	243.11
752.62	242.88
752.95	242.70
753.28	242.53
753.60	242.31
753.93	242.12
754.26	241.94
754.59	241.72
754.91	241.55
755.24	241.36
755.57	241.16
755.90	240.99
756.22	240.79
756.55	240.58
756.88	240.43
757.20	240.21
757.53	240.01
757.86	239.88
758.19	239.72
758.51	239.56
758.84	239.37
759.17	239.23
759.49	239.06
759.82	238.95
760.15	238.78
760.47	238.62
760.80	238.48
761.13	238.37
761.45	238.22
761.78	238.08
762.11	237.96
762.43	237.85
762.76	237.72
763.08	237.63
763.41	237.50
763.74	237.38
764.06	237.24
764.39	237.11
764.71	236.97
765.04	236.83
765.37	236.68
765.69	236.55
766.02	236.45
766.34	236.33
766.67	236.14
767.00	236.09
767.32	236.02
767.65	235.96
767.97	235.88
768.30	235.77
768.62	235.64
768.95	235.53
769.27	235.42
769.60	235.31
769.92	235.17
770.25	235.09
770.57	234.97
770.90	234.85
771.22	234.73
771.55	234.62
771.87	234.57
772.20	234.44
772.52	234.44
772.85	234.43
773.17	234.36
773.50	234.26
773.82	234.12
774.15	234.00
774.47	233.84
774.80	233.71
775.12	233.64
775.45	233.57
775.77	233.45
776.09	233.36
776.42	233.28
776.74	233.25
777.07	233.14
777.39	233.03
777.72	232.96
778.04	232.91
778.36	232.82
778.69	232.72
779.01	232.72
779.33	232.56
779.66	232.37
779.98	232.26
780.31	232.25
780.63	232.23
780.95	232.16
781.28	232.07
781.60	232.00
781.92	231.91
782.25	231.84
782.57	231.76
782.89	231.66
783.22	231.56
783.54	231.47
783.86	231.40
784.19	231.33
784.51	231.31
784.83	231.23
785.16	231.19
785.48	231.14
785.80	231.05
786.12	231.00
786.45	230.92
786.77	230.93
787.09	230.84
787.42	230.76
787.74	230.71
788.06	230.68
788.38	230.63
788.71	230.57
789.03	230.54
789.35	230.53
789.67	230.47
789.99	230.45
790.32	230.40
790.64	230.36
790.96	230.38
791.28	230.30
791.61	230.26
791.93	230.24
792.25	230.19
792.57	230.24
792.89	230.17
793.21	230.15
793.54	230.08
793.86	230.03
794.18	229.98
794.50	229.95
794.82	229.93
795.14	229.89
795.47	229.89
795.79	229.85
796.11	229.78
796.43	229.76
796.75	229.77
797.07	229.73
797.39	229.72
797.71	229.65
798.04	229.60
798.36	229.60
798.68	229.53
799.00	229.49
799.32	229.37
799.64	229.38
799.96	229.32
800.28	229.30
800.60	229.29
800.92	229.27
801.24	229.22
801.56	229.19
801.89	229.16
802.21	229.13
802.53	229.08
802.85	229.09
803.17	229.10
803.49	229.01
803.81	228.98
804.13	228.99
804.45	228.94
804.77	228.94
805.09	228.92
805.41	228.93
805.73	228.91
806.05	228.89
806.37	228.87
806.69	228.88
807.01	228.83
807.33	228.80
807.65	228.74
807.97	228.75
808.28	228.73
808.60	228.71
808.92	228.65
809.24	228.70
809.56	228.66
809.88	228.60
810.20	228.63
810.52	228.63
810.84	228.57
811.16	228.52
811.48	228.51
811.80	228.53
812.12	228.48
812.43	228.47
812.75	228.46
813.07	228.40
813.39	228.37
813.71	228.34
814.03	228.31
814.35	228.29
814.67	228.24
814.98	228.16
815.30	228.12
815.62	228.12
815.94	228.01
816.26	228.01
816.58	227.97
816.89	227.94
817.21	227.88
817.53	227.86
817.85	227.83
818.17	227.75
818.48	227.67
818.80	227.71
819.12	227.68
819.44	227.62
819.76	227.64
820.07	227.60
820.39	227.60
820.71	227.58
821.03	227.56
821.34	227.54
821.66	227.57
821.98	227.57
822.30	227.54
822.61	227.61
822.93	227.59
823.25	227.59
823.57	227.57
823.88	227.57
824.20	227.53
824.52	227.55
824.83	227.57
825.15	227.54
825.47	227.47
825.79	227.45
826.10	227.47
826.42	227.43
826.74	227.43
827.05	227.43
827.37	227.42
827.69	227.40
828.00	227.38
828.32	227.39
828.64	227.35
828.95	227.37
829.27	227.27
829.58	227.25
829.90	227.24
830.22	227.21
830.53	227.16
830.85	227.17
831.17	227.12
831.48	227.11
831.80	227.11
832.11	227.10
832.43	227.07
832.75	227.03
833.06	227.06
833.38	227.07
833.69	227.01
834.01	227.02
834.32	227.03
834.64	227.01
834.96	226.98
835.27	227.02
835.59	227.02
835.90	227.03
836.22	227.02
836.53	227.02
836.85	227.01
837.16	227.14
837.48	227.12
837.79	227.18
838.11	227.19
838.42	227.19
838.74	227.20
839.05	227.19
839.37	227.17
839.68	227.12
840.00	227.10
840.31	227.12
840.63	227.10
840.94	227.08
841.26	227.07
841.57	227.07
841.88	227.05
842.20	226.99
842.51	227.00
842.83	226.98
843.14	227.08
843.46	227.10
843.77	227.00
844.08	227.02
844.40	226.94
844.71	226.93
845.03	226.92
845.34	226.90
845.65	226.93
845.97	226.95
846.28	226.99
846.60	226.96
846.91	226.96
847.22	226.95
847.54	226.97
847.85	226.98
848.16	226.99
848.48	226.97
848.79	227.05
849.10	227.06
849.42	227.08
849.73	226.96
850.04	226.95
850.36	226.95
850.67	226.94
850.98	226.96
851.30	226.95
851.61	226.95
851.92	226.95
852.23	226.95
852.55	226.98
852.86	226.95
853.17	226.95
853.49	226.94
853.80	226.97
854.11	226.98
854.42	226.96
854.74	226.91
855.05	226.90
855.36	226.83
855.67	226.82
855.99	226.83
856.30	226.92
856.61	226.87
856.92	226.84
857.23	226.83
857.55	226.84
857.86	226.84
858.17	226.84
858.48	226.84
858.79	226.79
859.11	226.77
859.42	226.75
859.73	226.76
860.04	226.77
860.35	226.72
860.66	226.66
860.98	226.68
861.29	226.67
861.60	226.67
861.91	226.68
862.22	226.64
862.53	226.60
862.84	226.49
863.16	226.52
863.47	226.51
863.78	226.50
864.09	226.47
864.40	226.44
864.71	226.42
865.02	226.44
865.33	226.46
865.64	226.43
865.95	226.45
866.27	226.48
866.58	226.48
866.89	226.46
867.20	226.48
867.51	226.41
867.82	226.44
868.13	226.46
868.44	226.45
868.75	226.46
869.06	226.49
869.37	226.50
869.68	226.49
869.99	226.50
870.30	226.48
870.61	226.51
870.92	226.51
871.23	226.51
871.54	226.50
871.85	226.53
872.16	226.56
872.47	226.56
872.78	226.52
873.09	226.51
873.40	226.52
873.71	226.53
874.02	226.59
874.33	226.55
874.64	226.50
874.95	226.53
875.26	226.51
875.56	226.47
875.87	226.48
876.18	226.47
876.49	226.58
876.80	226.58
877.11	226.56
877.42	226.57
877.73	226.56
878.04	226.55
878.35	226.52
878.66	226.50
878.96	226.51
879.27	226.50
879.58	226.53
879.89	226.53
880.20	226.57
880.51	226.57
880.82	226.60
881.12	226.62
881.43	226.61
881.74	226.61
882.05	226.60
882.36	226.62
882.67	226.63
882.97	226.49
883.28	226.49
883.59	226.49
883.90	226.50
884.21	226.51
884.51	226.52
884.82	226.54
885.13	226.53
885.44	226.51
885.74	226.49
886.05	226.43
886.36	226.44
886.67	226.43
886.98	226.44
887.28	226.47
887.59	226.47
887.90	226.45
888.20	226.43
888.51	226.45
888.82	226.44
889.13	226.44
889.43	226.55
889.74	226.53
890.05	226.54
890.35	226.52
890.66	226.53
890.97	226.53
891.28	226.52
891.58	226.52
891.89	226.51
892.20	226.52
892.50	226.52
892.81	226.51
893.12	226.47
893.42	226.45
893.73	226.45
894.04	226.45
894.34	226.45
894.65	226.45
894.95	226.44
895.26	226.40
895.57	226.44
895.87	226.33
896.18	226.33
896.48	226.31
896.79	226.29
897.10	226.26
897.40	226.24
897.71	226.22
898.01	226.18
898.32	226.17
898.63	226.18
898.93	226.13
899.24	226.14
899.54	226.12
899.85	226.10
900.15	226.05
900.46	226.04
900.76	226.08
901.07	226.10
901.38	226.06
901.68	226.09
901.99	226.05
902.29	226.05
902.60	226.06
902.90	226.04
903.21	226.06
903.51	226.08
903.82	226.09
904.12	226.09
904.43	226.12
904.73	226.14
905.03	226.16
905.34	226.30
905.64	226.28
905.95	226.30
906.25	226.32
906.56	226.33
906.86	226.34
907.17	226.30
907.47	226.29
907.77	226.29
908.08	226.26
908.38	226.28
908.69	226.28
908.99	226.31
909.30	226.33
909.60	226.33
909.90	226.34
910.21	226.31
910.51	226.31
910.81	226.30
911.12	226.29
911.42	226.29
911.73	226.21
912.03	226.23
912.33	226.24
912.64	226.24
912.94	226.23
913.24	226.20
913.55	226.21
913.85	226.21
914.15	226.23
914.46	226.27
914.76	226.22
915.06	226.23
915.37	226.24
915.67	226.24
915.97	226.25
916.27	226.23
916.58	226.28
916.88	226.25
917.18	226.26
917.49	226.33
917.79	226.32
918.09	226.32
918.39	226.35
918.70	226.32
919.00	226.34
919.30	226.39
919.60	226.43
919.91	226.42
920.21	226.44
920.51	226.44
920.81	226.43
921.12	226.47
921.42	226.47
921.72	226.47
922.02	226.48
922.32	226.49
922.63	226.50
922.93	226.54
923.23	226.57
923.53	226.56
923.83	226.54
924.13	226.57
924.44	226.57
924.74	226.58
925.04	226.61
925.34	226.60
925.64	226.57
925.94	226.55
926.24	226.61
926.55	226.59
926.85	226.59
927.15	226.56
927.45	226.57
927.75	226.57
928.05	226.53
928.35	226.54
928.65	226.54
928.95	226.52
929.26	226.45
929.56	226.47
929.86	226.45
930.16	226.42
930.46	226.41
930.76	226.42
931.06	226.39
931.36	226.37
931.66	226.38
931.96	226.38
932.26	226.38
932.56	226.35
932.86	226.34
933.16	226.33
933.46	226.34
933.76	226.34
934.06	226.37
934.36	226.45
934.66	226.44
934.96	226.44
935.26	226.44
935.56	226.49
935.86	226.43
936.16	226.42
936.46	226.40
936.76	226.37
937.06	226.35
937.36	226.32
937.66	226.32
937.96	226.28
938.26	226.25
938.56	226.25
938.86	226.20
939.16	226.22
939.46	226.26
939.76	226.28
940.06	226.24
940.35	226.19
940.65	226.12
940.95	226.12
941.25	226.10
941.55	226.09
941.85	226.07
942.15	226.09
942.45	226.15
942.75	226.12
943.04	226.12
943.34	226.11
943.64	226.13
943.94	226.14
944.24	226.16
944.54	226.20
944.84	226.20
945.13	226.20
945.43	226.21
945.73	226.18
946.03	226.16
946.33	226.17
946.62	226.15
946.92	226.14
947.22	226.14
947.52	226.15
947.82	226.16
948.11	226.15
948.41	226.13
948.71	226.06
949.01	226.08
949.31	226.10
949.60	226.10
949.90	226.10
950.20	226.07
950.50	226.06
950.79	226.03
951.09	226.04
951.39	226.02
951.69	226.01
951.98	225.99
952.28	226.00
952.58	226.00
952.87	226.03
953.17	226.02
953.47	226.01
953.76	226.03
954.06	226.01
954.36	226.00
954.66	225.99
954.95	226.06
955.25	226.07
955.55	226.10
955.84	226.07
956.14	226.05
956.44	226.09
956.73	226.08
957.03	226.11
957.32	226.11
957.62	226.12
957.92	226.10
958.21	226.10
958.51	226.20
958.81	226.23
959.10	226.25
959.40	226.27
959.69	226.27
959.99	226.26
960.29	226.25
960.58	226.25
960.88	226.30
961.17	226.24
961.47	226.25
961.76	226.21
962.06	226.24
962.36	226.25
962.65	226.23
962.95	226.24
963.24	226.21
963.54	226.20
963.83	226.21
964.13	226.21
964.42	226.20
964.72	226.12
965.01	226.11
965.31	226.10
965.60	226.10
965.90	226.21
966.19	226.20
966.49	226.25
966.78	226.22
967.08	226.20
967.37	226.26
967.67	226.22
967.96	226.23
968.26	226.27
968.55	226.26
968.85	226.24
969.14	226.24
969.43	226.25
969.73	226.24
970.02	226.21
970.32	226.24
970.61	226.25
970.91	226.20
971.20	226.19
971.49	226.17
971.79	226.17
972.08	226.11
972.38	226.13
972.67	226.13
972.96	226.18
973.26	226.16
973.55	226.15
973.85	226.13
974.14	226.10
974.43	226.08
974.73	226.10
975.02	226.12
975.31	226.16
975.61	226.16
975.90	226.14
976.19	226.16
976.49	226.15
976.78	226.17
977.07	226.21
977.37	226.21
977.66	226.22
977.95	226.20
978.24	226.14
978.54	226.14
978.83	226.10
979.12	226.08
979.42	226.08
979.71	226.06
980.00	226.10
980.29	226.12
980.59	226.10
980.88	226.11
981.17	226.11
981.46	226.06
981.76	226.05
982.05	226.11
982.34	226.15
982.63	226.16
982.93	226.16
983.22	226.16
983.51	226.16
983.80	226.17
984.09	226.20
984.39	226.20
984.68	226.22
984.97	226.21
985.26	226.20
985.55	226.20
985.85	226.15
986.14	226.16
986.43	226.15
986.72	226.18
987.01	226.14
987.30	226.11
987.59	226.10
987.89	226.07
988.18	226.05
988.47	226.01
988.76	226.01
989.05	225.98
989.34	225.98
989.63	226.00
989.92	225.96
990.22	225.94
990.51	225.93
990.80	225.89
991.09	225.93
991.38	225.96
991.67	225.98
991.96	225.99
992.25	225.99
992.54	225.98
992.83	225.93
993.12	225.92
993.41	225.96
993.70	226.01
993.99	226.06
994.28	226.07
994.58	226.09
994.87	226.09
995.16	226.10
995.45	226.08
995.74	226.06
996.03	226.11
996.32	226.15
996.61	226.19
996.90	226.17
997.19	226.14
997.48	226.13
997.77	226.10
998.06	226.09
998.34	226.08
998.63	226.10
998.92	226.14
999.21	226.18
999.50	226.15
999.79	226.13
1000.08	226.13
1000.37	226.15
1000.66	226.13
1000.95	226.15
1001.24	226.15
1001.53	226.16
1001.82	226.14
1002.11	226.11
1002.40	226.08
1002.68	226.10
1002.97	226.18
1003.26	226.20
1003.55	226.18
1003.84	226.20
1004.13	226.24
1004.42	226.23
1004.71	226.22
1004.99	226.21
1005.28	226.22
1005.57	226.24
1005.86	226.23
1006.15	226.21
1006.44	226.17
1006.72	226.18
1007.01	226.16
1007.30	226.18
1007.59	226.18
1007.88	226.18
1008.17	226.17
1008.45	226.12
1008.74	226.09
1009.03	226.04
1009.32	226.02
1009.60	226.04
1009.89	226.00
1010.18	225.94
1010.47	225.95
1010.76	225.97
1011.04	225.95
1011.33	225.95
1011.62	225.93
1011.91	225.96
1012.19	225.94
1012.48	225.94
1012.77	225.93
1013.05	225.94
1013.34	225.96
1013.63	225.94
1013.92	225.95
1014.20	225.95
1014.49	226.00
1014.78	226.00
1015.06	226.00
1015.35	225.98
1015.64	225.98
1015.92	226.04
1016.21	226.08
1016.50	226.08
1016.78	226.07
1017.07	226.08
1017.36	226.04
1017.64	226.05
1017.93	226.04
1018.22	226.01
1018.50	225.99
1018.79	226.00
1019.08	225.93
1019.36	225.91
1019.65	225.91
1019.93	225.93
1020.22	225.97
1020.51	225.98
1020.79	225.97
1021.08	225.31
1021.36	225.57
1021.65	225.79
1021.94	225.29
1022.22	226.17
1022.51	225.97
1022.79	226.25
1023.08	226.51
1023.36	226.75
1023.65	225.69
>>>>>End Processed Spectral Data<<<<<
