SpectraSuite Data File
++++++++++++++++++++++++++++++++++++
Date: Fri Feb 01 15:17:43 EST 2013
User: group
Dark Spectrum Present: No
Reference Spectrum Present: No
Number of Sampled Component Spectra: 1
Spectrometers: USB2E7196
Integration Time (usec): 35000 (USB2E7196)
Spectra Averaged: 100 (USB2E7196)
Boxcar Smoothing: 10 (USB2E7196)
Correct for Electrical Dark: No (USB2E7196)
Strobe/Lamp Enabled: No (USB2E7196)
Correct for Detector Non-linearity: No (USB2E7196)
Correct for Stray Light: No (USB2E7196)
Number of Pixels in Processed Spectrum: 2048
>>>>>Begin Processed Spectral Data<<<<<
339.09	0.00
339.48	214.80
339.86	216.52
340.24	218.56
340.63	218.79
341.01	222.35
341.39	221.83
341.78	223.18
342.16	224.65
342.54	224.02
342.93	213.39
343.31	224.17
343.69	224.73
344.07	225.21
344.46	225.59
344.84	226.00
345.22	226.25
345.60	226.51
345.99	226.71
346.37	226.86
346.75	227.01
347.13	227.05
347.52	227.09
347.90	227.15
348.28	227.18
348.66	227.23
349.05	227.24
349.43	227.27
349.81	227.26
350.19	227.28
350.57	227.29
350.96	227.37
351.34	227.46
351.72	227.54
352.10	227.62
352.48	227.69
352.87	227.75
353.25	227.81
353.63	227.86
354.01	227.96
354.39	228.01
354.77	228.11
355.15	228.23
355.54	228.34
355.92	228.40
356.30	228.48
356.68	228.58
357.06	228.62
357.44	228.69
357.82	228.82
358.20	228.92
358.58	229.00
358.97	229.07
359.35	229.15
359.73	229.23
360.11	229.27
360.49	229.35
360.87	229.41
361.25	229.46
361.63	229.55
362.01	229.54
362.39	229.58
362.77	229.60
363.15	229.62
363.53	229.63
363.91	229.65
364.29	229.67
364.67	229.61
365.05	229.63
365.43	229.63
365.81	229.58
366.19	229.64
366.57	229.69
366.95	229.68
367.33	229.63
367.71	229.61
368.09	229.64
368.47	229.59
368.85	229.55
369.23	229.52
369.61	229.45
369.99	229.47
370.37	229.41
370.75	229.40
371.13	229.34
371.51	229.29
371.89	229.24
372.27	229.19
372.65	229.13
373.03	229.09
373.41	229.01
373.78	228.97
374.16	228.85
374.54	228.73
374.92	228.65
375.30	228.58
375.68	228.47
376.06	228.41
376.44	228.35
376.82	228.27
377.19	228.18
377.57	228.10
377.95	227.98
378.33	227.90
378.71	227.75
379.09	227.69
379.47	227.60
379.84	227.49
380.22	227.40
380.60	227.29
380.98	227.22
381.36	227.16
381.73	227.06
382.11	226.99
382.49	226.94
382.87	226.84
383.25	226.80
383.62	226.84
384.00	226.73
384.38	226.68
384.76	226.63
385.13	226.62
385.51	226.57
385.89	226.48
386.27	226.47
386.64	226.45
387.02	226.39
387.40	226.34
387.78	226.34
388.15	226.30
388.53	226.27
388.91	226.23
389.29	226.21
389.66	226.23
390.04	226.19
390.42	226.21
390.79	226.22
391.17	226.19
391.55	226.08
391.92	226.07
392.30	226.08
392.68	226.06
393.05	226.04
393.43	226.05
393.81	226.10
394.18	226.05
394.56	226.12
394.94	226.17
395.31	226.22
395.69	226.28
396.06	226.35
396.44	226.39
396.82	226.45
397.19	226.56
397.57	226.59
397.95	226.70
398.32	226.72
398.70	226.80
399.07	226.87
399.45	226.94
399.82	227.05
400.20	227.13
400.58	227.24
400.95	227.31
401.33	227.44
401.70	227.59
402.08	227.73
402.45	227.84
402.83	227.96
403.20	228.05
403.58	228.16
403.95	228.28
404.33	228.46
404.71	228.56
405.08	228.73
405.46	228.84
405.83	229.00
406.21	229.15
406.58	229.34
406.96	229.50
407.33	229.73
407.70	229.93
408.08	230.18
408.45	230.41
408.83	230.66
409.20	230.90
409.58	231.11
409.95	231.39
410.33	231.66
410.70	231.91
411.08	232.24
411.45	232.55
411.82	232.87
412.20	233.23
412.57	233.66
412.95	233.95
413.32	234.39
413.69	234.78
414.07	235.24
414.44	235.68
414.82	236.18
415.19	236.71
415.56	237.24
415.94	237.79
416.31	238.38
416.68	239.01
417.06	239.71
417.43	240.40
417.81	241.16
418.18	241.91
418.55	242.76
418.93	243.62
419.30	244.51
419.67	245.45
420.04	246.39
420.42	247.35
420.79	248.52
421.16	249.67
421.54	250.85
421.91	252.03
422.28	253.27
422.66	254.58
423.03	255.87
423.40	257.20
423.77	258.59
424.15	260.01
424.52	261.50
424.89	263.04
425.26	264.52
425.64	265.91
426.01	267.50
426.38	269.15
426.75	270.83
427.13	272.56
427.50	274.32
427.87	276.23
428.24	278.11
428.61	279.89
428.99	281.82
429.36	283.89
429.73	285.94
430.10	287.95
430.47	290.02
430.85	292.08
431.22	294.28
431.59	296.67
431.96	298.90
432.33	301.38
432.70	303.78
433.08	306.60
433.45	309.26
433.82	311.87
434.19	314.76
434.56	317.56
434.93	320.21
435.30	322.85
435.68	325.69
436.05	328.56
436.42	331.31
436.79	333.88
437.16	336.62
437.53	339.53
437.90	342.36
438.27	345.13
438.64	348.03
439.01	350.68
439.38	352.91
439.75	355.12
440.13	357.60
440.50	360.00
440.87	361.91
441.24	363.90
441.61	366.10
441.98	367.62
442.35	369.47
442.72	371.32
443.09	373.13
443.46	374.18
443.83	374.76
444.20	375.29
444.57	376.12
444.94	376.44
445.31	376.77
445.68	377.13
446.05	377.22
446.42	376.82
446.79	376.41
447.16	375.95
447.53	375.63
447.90	374.51
448.27	373.31
448.64	371.74
449.01	370.58
449.37	368.58
449.74	366.65
450.11	364.39
450.48	361.91
450.85	359.39
451.22	357.24
451.59	355.22
451.96	353.32
452.33	350.69
452.70	348.29
453.07	345.44
453.43	342.54
453.80	339.80
454.17	337.14
454.54	334.61
454.91	331.93
455.28	329.20
455.65	326.67
456.02	324.21
456.38	322.02
456.75	319.37
457.12	317.13
457.49	314.90
457.86	312.71
458.23	310.85
458.59	308.79
458.96	306.69
459.33	304.79
459.70	302.88
460.07	301.37
460.43	299.67
460.80	298.02
461.17	296.59
461.54	295.03
461.91	293.60
462.27	292.11
462.64	290.86
463.01	289.58
463.38	288.30
463.74	286.93
464.11	285.75
464.48	284.73
464.85	283.57
465.21	282.68
465.58	281.79
465.95	280.67
466.32	279.75
466.68	278.81
467.05	277.96
467.42	277.05
467.78	276.13
468.15	275.25
468.52	274.59
468.88	273.68
469.25	272.89
469.62	272.26
469.98	271.58
470.35	270.95
470.72	270.31
471.08	269.59
471.45	269.08
471.82	268.54
472.18	267.90
472.55	267.50
472.92	266.99
473.28	266.48
473.65	266.05
474.02	265.62
474.38	265.27
474.75	264.91
475.11	264.54
475.48	264.24
475.85	263.97
476.21	263.70
476.58	263.55
476.94	263.37
477.31	263.17
477.67	263.03
478.04	262.86
478.41	262.80
478.77	262.86
479.14	262.73
479.50	262.70
479.87	262.77
480.23	262.79
480.60	262.84
480.96	262.93
481.33	263.12
481.69	263.33
482.06	263.51
482.42	263.69
482.79	263.92
483.15	264.26
483.52	264.67
483.88	265.05
484.25	265.44
484.61	265.91
484.98	266.36
485.34	266.91
485.71	267.52
486.07	268.10
486.44	268.69
486.80	269.40
487.17	270.15
487.53	270.95
487.90	271.84
488.26	272.76
488.62	273.69
488.99	274.67
489.35	275.70
489.72	276.83
490.08	278.04
490.44	279.34
490.81	280.69
491.17	282.03
491.54	283.51
491.90	285.06
492.26	286.70
492.63	288.43
492.99	290.20
493.36	292.10
493.72	294.18
494.08	296.31
494.45	298.56
494.81	300.92
495.17	303.38
495.54	305.94
495.90	308.65
496.26	311.50
496.63	314.49
496.99	317.62
497.35	320.87
497.72	324.27
498.08	327.79
498.44	331.42
498.80	335.35
499.17	339.42
499.53	343.57
499.89	347.94
500.26	352.49
500.62	357.19
500.98	362.10
501.34	367.12
501.71	372.45
502.07	377.90
502.43	383.49
502.79	389.27
503.16	395.33
503.52	401.55
503.88	407.92
504.24	414.54
504.60	421.39
504.97	428.50
505.33	435.83
505.69	443.51
506.05	451.31
506.41	459.22
506.78	467.34
507.14	475.77
507.50	484.50
507.86	493.54
508.22	502.71
508.59	511.92
508.95	521.54
509.31	531.30
509.67	541.41
510.03	551.76
510.39	562.32
510.75	573.14
511.12	584.14
511.48	595.47
511.84	606.92
512.20	618.45
512.56	630.44
512.92	642.68
513.28	654.98
513.64	667.54
514.00	680.22
514.37	693.14
514.73	706.19
515.09	719.18
515.45	732.40
515.81	746.02
516.17	760.00
516.53	774.15
516.89	788.29
517.25	802.47
517.61	816.93
517.97	831.41
518.33	845.82
518.69	860.63
519.05	875.67
519.41	890.89
519.77	906.44
520.13	921.86
520.49	937.17
520.85	952.65
521.21	968.27
521.57	984.52
521.93	1000.32
522.29	1016.76
522.65	1033.13
523.01	1049.50
523.37	1065.53
523.73	1081.84
524.09	1097.94
524.45	1114.31
524.81	1131.05
525.17	1147.91
525.53	1164.91
525.89	1181.86
526.25	1198.69
526.61	1215.14
526.97	1231.89
527.33	1248.44
527.68	1265.05
528.04	1281.56
528.40	1298.30
528.76	1315.50
529.12	1332.18
529.48	1349.11
529.84	1365.23
530.20	1381.89
530.56	1398.91
530.91	1416.39
531.27	1433.12
531.63	1449.68
531.99	1466.34
532.35	1482.31
532.71	1498.27
533.07	1514.68
533.42	1530.62
533.78	1546.72
534.14	1562.98
534.50	1578.43
534.86	1594.38
535.21	1609.73
535.57	1625.88
535.93	1641.43
536.29	1656.29
536.65	1671.41
537.00	1686.30
537.36	1701.68
537.72	1716.32
538.08	1730.75
538.44	1744.69
538.79	1758.70
539.15	1772.48
539.51	1786.38
539.87	1800.78
540.22	1814.57
540.58	1828.35
540.94	1841.82
541.29	1854.94
541.65	1867.87
542.01	1881.27
542.37	1893.69
542.72	1906.24
543.08	1918.07
543.44	1930.52
543.79	1941.85
544.15	1952.97
544.51	1964.63
544.87	1975.63
545.22	1986.50
545.58	1996.92
545.94	2006.62
546.29	2016.57
546.65	2026.51
547.01	2035.76
547.36	2044.59
547.72	2053.12
548.07	2060.86
548.43	2069.08
548.79	2077.05
549.14	2084.45
549.50	2091.76
549.86	2099.46
550.21	2106.66
550.57	2113.77
550.92	2120.39
551.28	2127.45
551.64	2134.57
551.99	2141.19
552.35	2147.30
552.70	2153.43
553.06	2159.34
553.41	2165.71
553.77	2171.69
554.13	2177.72
554.48	2183.89
554.84	2189.17
555.19	2194.50
555.55	2199.71
555.90	2204.12
556.26	2208.87
556.61	2213.67
556.97	2217.85
557.32	2221.87
557.68	2226.04
558.03	2230.40
558.39	2234.14
558.74	2238.67
559.10	2242.47
559.45	2246.00
559.81	2250.41
560.16	2254.13
560.52	2257.50
560.87	2261.04
561.23	2263.74
561.58	2266.62
561.94	2269.11
562.29	2271.62
562.64	2274.20
563.00	2276.82
563.35	2280.36
563.71	2283.49
564.06	2286.63
564.42	2289.46
564.77	2291.91
565.12	2294.08
565.48	2295.82
565.83	2297.50
566.19	2298.84
566.54	2299.69
566.89	2300.78
567.25	2301.20
567.60	2302.52
567.96	2303.89
568.31	2304.52
568.66	2305.43
569.02	2306.02
569.37	2306.22
569.72	2307.00
570.08	2307.03
570.43	2306.89
570.78	2306.12
571.14	2304.67
571.49	2303.21
571.84	2302.79
572.20	2301.57
572.55	2300.51
572.90	2298.90
573.26	2297.47
573.61	2295.67
573.96	2293.81
574.31	2290.69
574.67	2287.57
575.02	2283.84
575.37	2280.44
575.72	2276.56
576.08	2273.18
576.43	2269.80
576.78	2266.11
577.13	2262.93
577.49	2259.98
577.84	2256.58
578.19	2252.82
578.54	2248.88
578.90	2244.54
579.25	2238.84
579.60	2233.91
579.95	2228.85
580.30	2223.85
580.66	2218.50
581.01	2213.40
581.36	2208.43
581.71	2204.18
582.06	2199.73
582.42	2195.23
582.77	2189.96
583.12	2185.37
583.47	2180.62
583.82	2175.37
584.17	2170.03
584.53	2164.37
584.88	2158.49
585.23	2152.54
585.58	2147.11
585.93	2141.72
586.28	2136.97
586.63	2131.95
586.98	2126.82
587.34	2122.18
587.69	2117.18
588.04	2111.89
588.39	2106.13
588.74	2099.56
589.09	2093.31
589.44	2086.33
589.79	2080.29
590.14	2074.61
590.49	2067.93
590.84	2061.42
591.19	2055.39
591.54	2048.82
591.89	2041.22
592.25	2034.41
592.60	2027.11
592.95	2019.30
593.30	2011.74
593.65	2004.01
594.00	1996.90
594.35	1989.53
594.70	1981.29
595.05	1973.95
595.40	1966.77
595.75	1959.20
596.10	1952.82
596.45	1946.09
596.80	1940.01
597.15	1933.12
597.50	1925.93
597.85	1919.48
598.19	1912.72
598.54	1905.59
598.89	1899.05
599.24	1893.23
599.59	1886.35
599.94	1880.08
600.29	1873.77
600.64	1867.22
600.99	1859.65
601.34	1852.69
601.69	1845.67
602.04	1838.63
602.39	1831.27
602.74	1824.33
603.08	1817.58
603.43	1810.78
603.78	1803.53
604.13	1796.31
604.48	1789.08
604.83	1782.18
605.18	1775.02
605.53	1766.97
605.87	1759.01
606.22	1751.58
606.57	1743.62
606.92	1736.26
607.27	1729.06
607.62	1722.10
607.96	1714.77
608.31	1708.18
608.66	1700.55
609.01	1693.03
609.36	1685.44
609.70	1677.37
610.05	1669.20
610.40	1661.52
610.75	1653.26
611.10	1645.56
611.44	1637.15
611.79	1629.03
612.14	1620.23
612.49	1611.22
612.83	1602.96
613.18	1594.82
613.53	1586.76
613.88	1578.14
614.22	1570.00
614.57	1561.43
614.92	1553.42
615.27	1545.84
615.61	1537.58
615.96	1529.48
616.31	1521.83
616.65	1514.54
617.00	1506.95
617.35	1499.31
617.70	1490.93
618.04	1482.40
618.39	1474.00
618.74	1466.25
619.08	1458.06
619.43	1450.60
619.78	1443.63
620.12	1436.30
620.47	1428.72
620.82	1420.51
621.16	1413.19
621.51	1405.50
621.85	1397.83
622.20	1389.25
622.55	1380.95
622.89	1373.06
623.24	1365.64
623.59	1358.35
623.93	1350.82
624.28	1343.64
624.62	1336.15
624.97	1328.94
625.32	1322.21
625.66	1315.27
626.01	1308.12
626.35	1300.72
626.70	1292.95
627.04	1285.23
627.39	1277.54
627.73	1269.98
628.08	1263.05
628.43	1255.73
628.77	1248.28
629.12	1240.76
629.46	1233.53
629.81	1226.15
630.15	1218.92
630.50	1211.38
630.84	1203.10
631.19	1195.16
631.53	1187.69
631.88	1180.18
632.22	1172.61
632.57	1165.31
632.91	1157.77
633.26	1150.36
633.60	1142.97
633.95	1135.91
634.29	1128.89
634.64	1122.27
634.98	1115.05
635.32	1107.94
635.67	1101.44
636.01	1094.87
636.36	1088.15
636.70	1081.72
637.05	1075.18
637.39	1068.70
637.73	1062.35
638.08	1056.51
638.42	1050.53
638.77	1044.11
639.11	1037.46
639.45	1031.14
639.80	1024.51
640.14	1018.02
640.49	1011.50
640.83	1005.21
641.17	998.92
641.52	992.59
641.86	986.17
642.20	980.36
642.55	974.11
642.89	967.50
643.23	961.01
643.58	955.14
643.92	948.96
644.26	942.84
644.61	936.93
644.95	930.86
645.29	924.22
645.64	917.49
645.98	911.15
646.32	905.32
646.66	899.21
647.01	893.41
647.35	887.86
647.69	882.04
648.04	876.48
648.38	870.65
648.72	864.56
649.06	858.51
649.41	852.62
649.75	846.58
650.09	840.68
650.43	834.90
650.78	828.77
651.12	822.79
651.46	817.09
651.80	811.18
652.14	805.68
652.49	800.33
652.83	795.20
653.17	789.39
653.51	783.67
653.85	778.41
654.20	772.75
654.54	766.66
654.88	760.99
655.22	755.19
655.56	749.54
655.90	744.25
656.25	738.92
656.59	733.55
656.93	728.47
657.27	723.24
657.61	717.80
657.95	712.71
658.29	707.66
658.64	702.47
658.98	697.26
659.32	691.82
659.66	686.63
660.00	681.34
660.34	676.51
660.68	671.59
661.02	666.49
661.36	661.82
661.70	657.42
662.05	653.04
662.39	648.69
662.73	644.32
663.07	639.93
663.41	635.55
663.75	631.06
664.09	626.52
664.43	622.25
664.77	618.12
665.11	613.89
665.45	609.75
665.79	605.66
666.13	601.55
666.47	597.51
666.81	593.37
667.15	589.29
667.49	585.40
667.83	581.67
668.17	577.73
668.51	573.71
668.85	569.69
669.19	565.93
669.53	562.13
669.87	558.22
670.21	554.53
670.55	550.93
670.89	547.54
671.23	544.14
671.57	540.65
671.91	537.14
672.25	533.66
672.58	530.17
672.92	526.82
673.26	523.69
673.60	520.58
673.94	517.52
674.28	514.62
674.62	511.69
674.96	508.57
675.30	505.67
675.64	502.77
675.97	499.96
676.31	497.02
676.65	494.07
676.99	491.41
677.33	488.54
677.67	485.71
678.01	482.68
678.34	479.77
678.68	476.98
679.02	474.13
679.36	471.41
679.70	468.71
680.04	465.94
680.37	463.00
680.71	460.20
681.05	457.55
681.39	454.83
681.73	452.15
682.06	449.62
682.40	447.07
682.74	444.50
683.08	441.98
683.42	439.43
683.75	436.92
684.09	434.33
684.43	431.89
684.77	429.41
685.10	427.08
685.44	424.74
685.78	422.37
686.12	420.17
686.45	417.85
686.79	415.55
687.13	413.36
687.46	411.24
687.80	409.07
688.14	406.86
688.48	404.80
688.81	402.52
689.15	400.31
689.49	398.14
689.82	396.02
690.16	393.91
690.50	391.90
690.83	389.98
691.17	388.00
691.51	386.07
691.84	384.23
692.18	382.27
692.52	380.29
692.85	378.36
693.19	376.44
693.52	374.61
693.86	372.80
694.20	371.01
694.53	369.22
694.87	367.37
695.21	365.61
695.54	363.76
695.88	362.10
696.21	360.44
696.55	358.79
696.88	357.17
697.22	355.53
697.56	353.92
697.89	352.26
698.23	350.69
698.56	349.08
698.90	347.46
699.23	345.82
699.57	344.25
699.90	342.73
700.24	341.20
700.58	339.71
700.91	338.22
701.25	336.82
701.58	335.45
701.92	334.11
702.25	332.73
702.59	331.37
702.92	330.06
703.26	328.77
703.59	327.54
703.93	326.36
704.26	325.13
704.60	323.85
704.93	322.56
705.26	321.29
705.60	320.12
705.93	319.03
706.27	317.99
706.60	317.00
706.94	315.94
707.27	314.83
707.61	313.77
707.94	312.73
708.27	311.63
708.61	310.54
708.94	309.55
709.28	308.61
709.61	307.67
709.94	306.67
710.28	305.64
710.61	304.68
710.95	303.60
711.28	302.71
711.61	301.78
711.95	300.92
712.28	300.03
712.61	299.11
712.95	298.18
713.28	297.32
713.61	296.43
713.95	295.53
714.28	294.69
714.61	293.83
714.95	292.99
715.28	292.13
715.61	291.33
715.95	290.47
716.28	289.61
716.61	288.75
716.95	287.96
717.28	287.24
717.61	286.44
717.94	285.72
718.28	284.92
718.61	284.21
718.94	283.49
719.27	282.83
719.61	282.17
719.94	281.54
720.27	280.84
720.60	280.18
720.94	279.55
721.27	278.98
721.60	278.44
721.93	277.83
722.27	277.29
722.60	276.74
722.93	276.18
723.26	275.66
723.59	275.14
723.93	274.61
724.26	274.05
724.59	273.51
724.92	272.98
725.25	272.49
725.59	271.97
725.92	271.48
726.25	270.93
726.58	270.40
726.91	269.90
727.24	269.44
727.57	268.95
727.91	268.46
728.24	267.98
728.57	267.46
728.90	267.00
729.23	266.48
729.56	266.03
729.89	265.53
730.22	265.02
730.55	264.55
730.89	264.08
731.22	263.61
731.55	263.14
731.88	262.72
732.21	262.25
732.54	261.79
732.87	261.35
733.20	260.96
733.53	260.55
733.86	260.18
734.19	259.77
734.52	259.36
734.85	259.03
735.18	258.62
735.51	258.25
735.84	257.90
736.17	257.57
736.50	257.15
736.83	256.95
737.16	256.61
737.49	256.24
737.82	255.92
738.15	255.63
738.48	255.33
738.81	255.00
739.14	254.69
739.47	254.40
739.80	254.08
740.13	253.77
740.46	253.50
740.79	253.17
741.12	252.87
741.45	252.57
741.78	252.25
742.11	251.95
742.44	251.65
742.77	251.37
743.10	251.07
743.43	250.81
743.75	250.41
744.08	250.26
744.41	250.01
744.74	249.76
745.07	249.47
745.40	249.21
745.73	248.98
746.06	248.74
746.39	248.50
746.71	248.27
747.04	248.00
747.37	247.72
747.70	247.41
748.03	247.14
748.36	246.90
748.68	246.69
749.01	246.47
749.34	246.22
749.67	246.00
750.00	245.80
750.33	245.64
750.65	245.46
750.98	245.12
751.31	244.88
751.64	244.68
751.97	244.53
752.29	244.30
752.62	244.09
752.95	243.83
753.28	243.59
753.60	243.37
753.93	243.22
754.26	243.03
754.59	242.85
754.91	242.68
755.24	242.51
755.57	242.30
755.90	242.08
756.22	241.88
756.55	241.67
756.88	241.47
757.20	241.21
757.53	241.01
757.86	240.85
758.19	240.74
758.51	240.59
758.84	240.40
759.17	240.24
759.49	240.03
759.82	239.93
760.15	239.80
760.47	239.62
760.80	239.43
761.13	239.30
761.45	239.15
761.78	238.95
762.11	238.83
762.43	238.68
762.76	238.59
763.08	238.49
763.41	238.35
763.74	238.22
764.06	238.12
764.39	237.94
764.71	237.83
765.04	237.67
765.37	237.46
765.69	237.30
766.02	237.15
766.34	237.04
766.67	236.89
767.00	236.78
767.32	236.73
767.65	236.70
767.97	236.56
768.30	236.46
768.62	236.36
768.95	236.21
769.27	236.07
769.60	235.95
769.92	235.85
770.25	235.74
770.57	235.61
770.90	235.49
771.22	235.40
771.55	235.30
771.87	235.21
772.20	235.13
772.52	235.11
772.85	235.13
773.17	235.04
773.50	234.97
773.82	234.87
774.15	234.74
774.47	234.54
774.80	234.50
775.12	234.41
775.45	234.34
775.77	234.28
776.09	234.20
776.42	234.10
776.74	234.05
777.07	233.97
777.39	233.85
777.72	233.75
778.04	233.69
778.36	233.60
778.69	233.55
779.01	233.46
779.33	233.32
779.66	233.15
779.98	233.08
780.31	232.99
780.63	232.96
780.95	232.89
781.28	232.86
781.60	232.76
781.92	232.67
782.25	232.61
782.57	232.54
782.89	232.50
783.22	232.42
783.54	232.32
783.86	232.27
784.19	232.22
784.51	232.20
784.83	232.15
785.16	232.11
785.48	232.01
785.80	232.02
786.12	231.98
786.45	231.93
786.77	231.87
787.09	231.84
787.42	231.75
787.74	231.73
788.06	231.68
788.38	231.62
788.71	231.62
789.03	231.56
789.35	231.53
789.67	231.49
789.99	231.44
790.32	231.44
790.64	231.40
790.96	231.48
791.28	231.40
791.61	231.36
791.93	231.33
792.25	231.28
792.57	231.27
792.89	231.23
793.21	231.22
793.54	231.20
793.86	231.13
794.18	231.11
794.50	231.06
794.82	231.01
795.14	230.98
795.47	230.96
795.79	230.94
796.11	230.89
796.43	230.85
796.75	230.87
797.07	230.79
797.39	230.76
797.71	230.69
798.04	230.71
798.36	230.68
798.68	230.65
799.00	230.64
799.32	230.59
799.64	230.57
799.96	230.53
800.28	230.51
800.60	230.49
800.92	230.48
801.24	230.43
801.56	230.43
801.89	230.42
802.21	230.38
802.53	230.30
802.85	230.29
803.17	230.30
803.49	230.22
803.81	230.22
804.13	230.21
804.45	230.12
804.77	230.07
805.09	230.03
805.41	230.00
805.73	229.98
806.05	229.89
806.37	229.85
806.69	229.79
807.01	229.76
807.33	229.75
807.65	229.68
807.97	229.67
808.28	229.64
808.60	229.61
808.92	229.57
809.24	229.63
809.56	229.59
809.88	229.50
810.20	229.47
810.52	229.44
810.84	229.38
811.16	229.34
811.48	229.33
811.80	229.33
812.12	229.29
812.43	229.26
812.75	229.26
813.07	229.19
813.39	229.18
813.71	229.12
814.03	229.10
814.35	229.08
814.67	229.05
814.98	229.01
815.30	228.95
815.62	228.90
815.94	228.76
816.26	228.79
816.58	228.75
816.89	228.78
817.21	228.69
817.53	228.67
817.85	228.64
818.17	228.61
818.48	228.54
818.80	228.54
819.12	228.53
819.44	228.48
819.76	228.46
820.07	228.42
820.39	228.42
820.71	228.38
821.03	228.36
821.34	228.32
821.66	228.29
821.98	228.33
822.30	228.31
822.61	228.41
822.93	228.36
823.25	228.34
823.57	228.30
823.88	228.35
824.20	228.32
824.52	228.30
824.83	228.30
825.15	228.26
825.47	228.25
825.79	228.22
826.10	228.22
826.42	228.23
826.74	228.21
827.05	228.19
827.37	228.21
827.69	228.18
828.00	228.18
828.32	228.16
828.64	228.12
828.95	228.16
829.27	228.12
829.58	228.08
829.90	228.11
830.22	228.13
830.53	228.09
830.85	228.09
831.17	228.09
831.48	228.07
831.80	228.12
832.11	228.10
832.43	228.09
832.75	228.08
833.06	228.14
833.38	228.12
833.69	228.12
834.01	228.10
834.32	228.07
834.64	228.05
834.96	228.07
835.27	228.08
835.59	228.05
835.90	228.03
836.22	228.03
836.53	228.02
836.85	228.02
837.16	228.14
837.48	228.15
837.79	228.17
838.11	228.18
838.42	228.16
838.74	228.18
839.05	228.19
839.37	228.22
839.68	228.13
840.00	228.14
840.31	228.16
840.63	228.16
840.94	228.15
841.26	228.14
841.57	228.12
841.88	228.10
842.20	228.07
842.51	228.06
842.83	228.06
843.14	228.13
843.46	228.11
843.77	228.05
844.08	228.03
844.40	228.02
844.71	228.01
845.03	227.98
845.34	227.97
845.65	227.95
845.97	227.93
846.28	227.92
846.60	227.94
846.91	227.89
847.22	227.88
847.54	227.91
847.85	227.95
848.16	227.91
848.48	227.88
848.79	227.91
849.10	227.94
849.42	227.94
849.73	227.84
850.04	227.81
850.36	227.74
850.67	227.76
850.98	227.72
851.30	227.70
851.61	227.69
851.92	227.66
852.23	227.68
852.55	227.67
852.86	227.68
853.17	227.67
853.49	227.70
853.80	227.70
854.11	227.72
854.42	227.68
854.74	227.70
855.05	227.69
855.36	227.64
855.67	227.60
855.99	227.59
856.30	227.67
856.61	227.62
856.92	227.61
857.23	227.58
857.55	227.59
857.86	227.58
858.17	227.62
858.48	227.57
858.79	227.57
859.11	227.59
859.42	227.60
859.73	227.55
860.04	227.58
860.35	227.56
860.66	227.53
860.98	227.53
861.29	227.54
861.60	227.55
861.91	227.57
862.22	227.56
862.53	227.53
862.84	227.41
863.16	227.50
863.47	227.50
863.78	227.50
864.09	227.47
864.40	227.48
864.71	227.44
865.02	227.47
865.33	227.44
865.64	227.38
865.95	227.35
866.27	227.43
866.58	227.40
866.89	227.38
867.20	227.35
867.51	227.33
867.82	227.33
868.13	227.34
868.44	227.32
868.75	227.34
869.06	227.37
869.37	227.42
869.68	227.36
869.99	227.37
870.30	227.40
870.61	227.41
870.92	227.42
871.23	227.40
871.54	227.41
871.85	227.44
872.16	227.47
872.47	227.48
872.78	227.45
873.09	227.45
873.40	227.44
873.71	227.48
874.02	227.50
874.33	227.50
874.64	227.47
874.95	227.52
875.26	227.51
875.56	227.51
875.87	227.49
876.18	227.50
876.49	227.58
876.80	227.53
877.11	227.50
877.42	227.53
877.73	227.56
878.04	227.54
878.35	227.54
878.66	227.55
878.96	227.53
879.27	227.52
879.58	227.52
879.89	227.49
880.20	227.52
880.51	227.51
880.82	227.49
881.12	227.53
881.43	227.47
881.74	227.42
882.05	227.43
882.36	227.40
882.67	227.37
882.97	227.28
883.28	227.29
883.59	227.32
883.90	227.29
884.21	227.29
884.51	227.29
884.82	227.26
885.13	227.26
885.44	227.26
885.74	227.24
886.05	227.21
886.36	227.21
886.67	227.14
886.98	227.21
887.28	227.22
887.59	227.22
887.90	227.23
888.20	227.23
888.51	227.22
888.82	227.22
889.13	227.24
889.43	227.33
889.74	227.31
890.05	227.28
890.35	227.28
890.66	227.27
890.97	227.27
891.28	227.23
891.58	227.25
891.89	227.25
892.20	227.23
892.50	227.26
892.81	227.29
893.12	227.27
893.42	227.19
893.73	227.18
894.04	227.16
894.34	227.16
894.65	227.17
894.95	227.17
895.26	227.18
895.57	227.23
895.87	227.13
896.18	227.17
896.48	227.19
896.79	227.15
897.10	227.15
897.40	227.16
897.71	227.18
898.01	227.17
898.32	227.19
898.63	227.21
898.93	227.21
899.24	227.17
899.54	227.19
899.85	227.18
900.15	227.19
900.46	227.19
900.76	227.18
901.07	227.20
901.38	227.19
901.68	227.21
901.99	227.14
902.29	227.15
902.60	227.12
902.90	227.12
903.21	227.17
903.51	227.18
903.82	227.15
904.12	227.13
904.43	227.10
904.73	227.10
905.03	227.09
905.34	227.14
905.64	227.14
905.95	227.17
906.25	227.18
906.56	227.17
906.86	227.15
907.17	227.17
907.47	227.15
907.77	227.19
908.08	227.14
908.38	227.16
908.69	227.15
908.99	227.15
909.30	227.15
909.60	227.13
909.90	227.11
910.21	227.13
910.51	227.14
910.81	227.15
911.12	227.17
911.42	227.19
911.73	227.13
912.03	227.17
912.33	227.19
912.64	227.20
912.94	227.19
913.24	227.20
913.55	227.20
913.85	227.21
914.15	227.22
914.46	227.24
914.76	227.27
915.06	227.26
915.37	227.27
915.67	227.28
915.97	227.30
916.27	227.30
916.58	227.32
916.88	227.32
917.18	227.33
917.49	227.40
917.79	227.41
918.09	227.43
918.39	227.46
918.70	227.46
919.00	227.46
919.30	227.54
919.60	227.56
919.91	227.55
920.21	227.57
920.51	227.54
920.81	227.51
921.12	227.50
921.42	227.52
921.72	227.51
922.02	227.52
922.32	227.52
922.63	227.50
922.93	227.55
923.23	227.56
923.53	227.52
923.83	227.43
924.13	227.44
924.44	227.43
924.74	227.47
925.04	227.49
925.34	227.45
925.64	227.38
925.94	227.39
926.24	227.44
926.55	227.42
926.85	227.44
927.15	227.48
927.45	227.49
927.75	227.48
928.05	227.51
928.35	227.46
928.65	227.49
928.95	227.51
929.26	227.45
929.56	227.48
929.86	227.50
930.16	227.53
930.46	227.51
930.76	227.49
931.06	227.37
931.36	227.34
931.66	227.36
931.96	227.34
932.26	227.34
932.56	227.26
932.86	227.28
933.16	227.28
933.46	227.26
933.76	227.23
934.06	227.27
934.36	227.28
934.66	227.30
934.96	227.28
935.26	227.27
935.56	227.26
935.86	227.22
936.16	227.21
936.46	227.18
936.76	227.16
937.06	227.17
937.36	227.19
937.66	227.15
937.96	227.16
938.26	227.17
938.56	227.13
938.86	227.16
939.16	227.14
939.46	227.14
939.76	227.14
940.06	227.12
940.35	227.07
940.65	227.02
940.95	227.01
941.25	226.99
941.55	226.98
941.85	226.99
942.15	227.01
942.45	227.01
942.75	227.02
943.04	227.05
943.34	227.01
943.64	227.00
943.94	227.01
944.24	226.99
944.54	226.97
944.84	226.98
945.13	226.94
945.43	226.94
945.73	226.91
946.03	226.88
946.33	226.87
946.62	226.88
946.92	226.89
947.22	226.88
947.52	226.86
947.82	226.90
948.11	226.87
948.41	226.84
948.71	226.86
949.01	226.82
949.31	226.79
949.60	226.81
949.90	226.84
950.20	226.83
950.50	226.82
950.79	226.82
951.09	226.86
951.39	226.88
951.69	226.87
951.98	226.90
952.28	226.91
952.58	226.93
952.87	226.92
953.17	226.95
953.47	226.95
953.76	226.98
954.06	226.96
954.36	226.94
954.66	226.93
954.95	226.98
955.25	227.00
955.55	227.02
955.84	227.01
956.14	227.04
956.44	227.09
956.73	227.11
957.03	227.13
957.32	227.11
957.62	227.09
957.92	227.11
958.21	227.13
958.51	227.25
958.81	227.26
959.10	227.27
959.40	227.26
959.69	227.28
959.99	227.30
960.29	227.32
960.58	227.35
960.88	227.40
961.17	227.37
961.47	227.42
961.76	227.40
962.06	227.42
962.36	227.40
962.65	227.35
962.95	227.31
963.24	227.33
963.54	227.35
963.83	227.38
964.13	227.42
964.42	227.37
964.72	227.26
965.01	227.27
965.31	227.28
965.60	227.28
965.90	227.32
966.19	227.26
966.49	227.26
966.78	227.24
967.08	227.22
967.37	227.22
967.67	227.16
967.96	227.16
968.26	227.13
968.55	227.16
968.85	227.20
969.14	227.26
969.43	227.26
969.73	227.20
970.02	227.15
970.32	227.11
970.61	227.15
970.91	227.15
971.20	227.14
971.49	227.11
971.79	227.12
972.08	227.05
972.38	227.06
972.67	227.05
972.96	227.05
973.26	227.02
973.55	227.02
973.85	227.04
974.14	227.06
974.43	227.07
974.73	227.02
975.02	226.99
975.31	226.94
975.61	226.88
975.90	226.91
976.19	226.92
976.49	226.91
976.78	226.87
977.07	226.87
977.37	226.88
977.66	226.87
977.95	226.88
978.24	226.90
978.54	226.92
978.83	226.89
979.12	226.93
979.42	226.90
979.71	226.86
980.00	226.84
980.29	226.84
980.59	226.82
980.88	226.84
981.17	226.81
981.46	226.80
981.76	226.80
982.05	226.79
982.34	226.83
982.63	226.83
982.93	226.85
983.22	226.87
983.51	226.82
983.80	226.84
984.09	226.81
984.39	226.81
984.68	226.80
984.97	226.81
985.26	226.78
985.55	226.83
985.85	226.85
986.14	226.88
986.43	226.89
986.72	226.92
987.01	226.89
987.30	226.90
987.59	226.92
987.89	226.94
988.18	226.91
988.47	226.89
988.76	226.88
989.05	226.86
989.34	226.86
989.63	226.92
989.92	226.91
990.22	226.91
990.51	226.91
990.80	226.91
991.09	226.94
991.38	226.94
991.67	226.91
991.96	226.89
992.25	226.85
992.54	226.81
992.83	226.80
993.12	226.80
993.41	226.83
993.70	226.84
993.99	226.86
994.28	226.87
994.58	226.85
994.87	226.87
995.16	226.86
995.45	226.84
995.74	226.81
996.03	226.84
996.32	226.84
996.61	226.87
996.90	226.86
997.19	226.84
997.48	226.82
997.77	226.82
998.06	226.85
998.34	226.88
998.63	226.90
998.92	226.92
999.21	226.94
999.50	226.96
999.79	226.95
1000.08	226.96
1000.37	226.97
1000.66	226.98
1000.95	226.98
1001.24	226.99
1001.53	227.00
1001.82	227.02
1002.11	227.02
1002.40	227.01
1002.68	227.03
1002.97	227.10
1003.26	227.08
1003.55	227.09
1003.84	227.09
1004.13	227.10
1004.42	227.09
1004.71	227.07
1004.99	227.04
1005.28	227.06
1005.57	227.02
1005.86	226.99
1006.15	226.97
1006.44	226.97
1006.72	226.95
1007.01	226.96
1007.30	226.97
1007.59	226.96
1007.88	226.93
1008.17	226.91
1008.45	226.89
1008.74	226.86
1009.03	226.81
1009.32	226.80
1009.60	226.79
1009.89	226.80
1010.18	226.77
1010.47	226.79
1010.76	226.82
1011.04	226.80
1011.33	226.79
1011.62	226.81
1011.91	226.85
1012.19	226.86
1012.48	226.91
1012.77	226.92
1013.05	226.95
1013.34	226.96
1013.63	226.96
1013.92	226.97
1014.20	226.97
1014.49	227.00
1014.78	226.96
1015.06	226.96
1015.35	226.98
1015.64	226.98
1015.92	226.98
1016.21	226.98
1016.50	226.93
1016.78	226.91
1017.07	226.94
1017.36	226.91
1017.64	226.91
1017.93	226.89
1018.22	226.88
1018.50	226.83
1018.79	226.84
1019.08	226.81
1019.36	226.78
1019.65	226.80
1019.93	226.81
1020.22	226.78
1020.51	226.81
1020.79	226.84
1021.08	226.77
1021.36	226.68
1021.65	226.78
1021.94	227.29
1022.22	226.56
1022.51	227.18
1022.79	227.23
1023.08	225.96
1023.36	228.13
1023.65	226.74
>>>>>End Processed Spectral Data<<<<<
