SpectraSuite Data File
++++++++++++++++++++++++++++++++++++
Date: Fri Feb 01 15:17:58 EST 2013
User: group
Dark Spectrum Present: No
Reference Spectrum Present: No
Number of Sampled Component Spectra: 1
Spectrometers: USB2E7196
Integration Time (usec): 35000 (USB2E7196)
Spectra Averaged: 100 (USB2E7196)
Boxcar Smoothing: 10 (USB2E7196)
Correct for Electrical Dark: No (USB2E7196)
Strobe/Lamp Enabled: No (USB2E7196)
Correct for Detector Non-linearity: No (USB2E7196)
Correct for Stray Light: No (USB2E7196)
Number of Pixels in Processed Spectrum: 2048
>>>>>Begin Processed Spectral Data<<<<<
339.09	0.00
339.48	215.18
339.86	216.69
340.24	217.54
340.63	219.03
341.01	222.18
341.39	221.91
341.78	223.60
342.16	224.73
342.54	224.67
342.93	213.32
343.31	224.11
343.69	224.63
344.07	225.10
344.46	225.54
344.84	225.96
345.22	226.18
345.60	226.43
345.99	226.61
346.37	226.73
346.75	226.85
347.13	226.92
347.52	226.97
347.90	227.02
348.28	227.06
348.66	227.12
349.05	227.12
349.43	227.18
349.81	227.25
350.19	227.31
350.57	227.36
350.96	227.42
351.34	227.51
351.72	227.60
352.10	227.70
352.48	227.75
352.87	227.79
353.25	227.87
353.63	227.96
354.01	228.02
354.39	228.10
354.77	228.15
355.15	228.25
355.54	228.32
355.92	228.33
356.30	228.42
356.68	228.59
357.06	228.66
357.44	228.68
357.82	228.76
358.20	228.82
358.58	228.87
358.97	228.93
359.35	229.01
359.73	229.10
360.11	229.12
360.49	229.18
360.87	229.21
361.25	229.28
361.63	229.31
362.01	229.35
362.39	229.37
362.77	229.44
363.15	229.44
363.53	229.45
363.91	229.48
364.29	229.50
364.67	229.40
365.05	229.41
365.43	229.43
365.81	229.42
366.19	229.43
366.57	229.47
366.95	229.47
367.33	229.41
367.71	229.37
368.09	229.39
368.47	229.38
368.85	229.35
369.23	229.27
369.61	229.22
369.99	229.20
370.37	229.18
370.75	229.18
371.13	229.16
371.51	229.12
371.89	229.10
372.27	229.03
372.65	228.95
373.03	228.89
373.41	228.83
373.78	228.74
374.16	228.64
374.54	228.56
374.92	228.49
375.30	228.41
375.68	228.31
376.06	228.23
376.44	228.14
376.82	228.10
377.19	228.05
377.57	227.99
377.95	227.88
378.33	227.81
378.71	227.65
379.09	227.58
379.47	227.48
379.84	227.38
380.22	227.31
380.60	227.22
380.98	227.14
381.36	227.08
381.73	227.01
382.11	226.97
382.49	226.90
382.87	226.81
383.25	226.74
383.62	226.81
384.00	226.72
384.38	226.67
384.76	226.63
385.13	226.62
385.51	226.55
385.89	226.51
386.27	226.45
386.64	226.42
387.02	226.36
387.40	226.32
387.78	226.29
388.15	226.25
388.53	226.25
388.91	226.21
389.29	226.19
389.66	226.20
390.04	226.15
390.42	226.14
390.79	226.17
391.17	226.19
391.55	226.07
391.92	226.06
392.30	226.04
392.68	226.04
393.05	226.05
393.43	226.08
393.81	226.08
394.18	226.09
394.56	226.11
394.94	226.18
395.31	226.18
395.69	226.23
396.06	226.29
396.44	226.32
396.82	226.36
397.19	226.44
397.57	226.48
397.95	226.55
398.32	226.59
398.70	226.63
399.07	226.71
399.45	226.79
399.82	226.88
400.20	226.96
400.58	227.04
400.95	227.06
401.33	227.17
401.70	227.35
402.08	227.47
402.45	227.59
402.83	227.71
403.20	227.87
403.58	227.96
403.95	228.10
404.33	228.26
404.71	228.40
405.08	228.54
405.46	228.69
405.83	228.84
406.21	229.00
406.58	229.16
406.96	229.30
407.33	229.46
407.70	229.67
408.08	229.93
408.45	230.13
408.83	230.36
409.20	230.57
409.58	230.73
409.95	230.97
410.33	231.24
410.70	231.48
411.08	231.77
411.45	232.11
411.82	232.39
412.20	232.73
412.57	233.15
412.95	233.48
413.32	233.88
413.69	234.28
414.07	234.71
414.44	235.21
414.82	235.72
415.19	236.28
415.56	236.83
415.94	237.39
416.31	238.03
416.68	238.62
417.06	239.35
417.43	240.05
417.81	240.82
418.18	241.60
418.55	242.42
418.93	243.29
419.30	244.15
419.67	245.08
420.04	246.02
420.42	247.03
420.79	248.19
421.16	249.38
421.54	250.60
421.91	251.78
422.28	253.06
422.66	254.37
423.03	255.67
423.40	256.99
423.77	258.39
424.15	259.80
424.52	261.33
424.89	262.94
425.26	264.46
425.64	265.91
426.01	267.51
426.38	269.21
426.75	270.92
427.13	272.69
427.50	274.50
427.87	276.40
428.24	278.25
428.61	280.02
428.99	281.92
429.36	284.03
429.73	286.13
430.10	288.10
430.47	290.15
430.85	292.27
431.22	294.54
431.59	296.96
431.96	299.24
432.33	301.76
432.70	304.12
433.08	306.97
433.45	309.64
433.82	312.24
434.19	315.12
434.56	317.94
434.93	320.59
435.30	323.25
435.68	326.18
436.05	329.03
436.42	331.83
436.79	334.41
437.16	337.13
437.53	340.00
437.90	342.85
438.27	345.64
438.64	348.50
439.01	351.09
439.38	353.32
439.75	355.52
440.13	358.03
440.50	360.39
440.87	362.29
441.24	364.22
441.61	366.41
441.98	367.93
442.35	369.72
442.72	371.60
443.09	373.40
443.46	374.39
443.83	374.99
444.20	375.53
444.57	376.32
444.94	376.62
445.31	376.93
445.68	377.27
446.05	377.31
446.42	376.90
446.79	376.52
447.16	376.12
447.53	375.76
447.90	374.58
448.27	373.43
448.64	371.77
449.01	370.62
449.37	368.62
449.74	366.71
450.11	364.46
450.48	361.99
450.85	359.43
451.22	357.27
451.59	355.23
451.96	353.24
452.33	350.64
452.70	348.25
453.07	345.47
453.43	342.60
453.80	339.84
454.17	337.21
454.54	334.60
454.91	331.82
455.28	329.13
455.65	326.64
456.02	324.15
456.38	321.99
456.75	319.31
457.12	317.05
457.49	314.82
457.86	312.66
458.23	310.79
458.59	308.77
458.96	306.66
459.33	304.81
459.70	302.90
460.07	301.39
460.43	299.66
460.80	297.99
461.17	296.53
461.54	295.01
461.91	293.55
462.27	292.10
462.64	290.84
463.01	289.46
463.38	288.11
463.74	286.80
464.11	285.65
464.48	284.61
464.85	283.46
465.21	282.55
465.58	281.61
465.95	280.49
466.32	279.53
466.68	278.66
467.05	277.74
467.42	276.88
467.78	275.93
468.15	275.05
468.52	274.35
468.88	273.47
469.25	272.74
469.62	272.09
469.98	271.41
470.35	270.75
470.72	270.15
471.08	269.51
471.45	268.92
471.82	268.40
472.18	267.81
472.55	267.42
472.92	266.90
473.28	266.39
473.65	265.92
474.02	265.52
474.38	265.09
474.75	264.73
475.11	264.36
475.48	264.08
475.85	263.83
476.21	263.59
476.58	263.41
476.94	263.23
477.31	263.07
477.67	262.93
478.04	262.82
478.41	262.80
478.77	262.81
479.14	262.72
479.50	262.71
479.87	262.78
480.23	262.82
480.60	262.86
480.96	262.98
481.33	263.21
481.69	263.39
482.06	263.59
482.42	263.82
482.79	264.09
483.15	264.43
483.52	264.83
483.88	265.16
484.25	265.54
484.61	265.99
484.98	266.41
485.34	266.98
485.71	267.57
486.07	268.18
486.44	268.76
486.80	269.48
487.17	270.21
487.53	270.99
487.90	271.84
488.26	272.76
488.62	273.74
488.99	274.70
489.35	275.72
489.72	276.83
490.08	278.03
490.44	279.23
490.81	280.55
491.17	281.88
491.54	283.38
491.90	284.95
492.26	286.60
492.63	288.33
492.99	290.08
493.36	291.95
493.72	293.96
494.08	296.06
494.45	298.29
494.81	300.70
495.17	303.20
495.54	305.76
495.90	308.48
496.26	311.28
496.63	314.28
496.99	317.36
497.35	320.65
497.72	324.06
498.08	327.59
498.44	331.30
498.80	335.24
499.17	339.27
499.53	343.38
499.89	347.74
500.26	352.23
500.62	356.90
500.98	361.89
501.34	366.97
501.71	372.28
502.07	377.73
502.43	383.26
502.79	389.04
503.16	395.11
503.52	401.34
503.88	407.74
504.24	414.35
504.60	421.24
504.97	428.37
505.33	435.68
505.69	443.35
506.05	451.10
506.41	458.97
506.78	467.14
507.14	475.62
507.50	484.36
507.86	493.47
508.22	502.66
508.59	511.84
508.95	521.44
509.31	531.30
509.67	541.39
510.03	551.69
510.39	562.19
510.75	573.01
511.12	584.01
511.48	595.23
511.84	606.66
512.20	618.27
512.56	630.15
512.92	642.33
513.28	654.63
513.64	667.06
514.00	679.78
514.37	692.70
514.73	705.76
515.09	718.84
515.45	732.10
515.81	745.66
516.17	759.70
516.53	773.78
516.89	787.92
517.25	802.19
517.61	816.65
517.97	831.11
518.33	845.56
518.69	860.32
519.05	875.46
519.41	890.74
519.77	906.31
520.13	921.89
520.49	937.30
520.85	952.95
521.21	968.76
521.57	985.03
521.93	1000.80
522.29	1017.31
522.65	1033.51
523.01	1049.74
523.37	1065.86
523.73	1082.10
524.09	1098.18
524.45	1114.60
524.81	1131.25
525.17	1148.11
525.53	1165.18
525.89	1182.15
526.25	1198.99
526.61	1215.49
526.97	1232.30
527.33	1248.70
527.68	1265.36
528.04	1282.00
528.40	1298.63
528.76	1315.74
529.12	1332.38
529.48	1349.33
529.84	1365.40
530.20	1382.09
530.56	1399.21
530.91	1416.59
531.27	1433.34
531.63	1450.01
531.99	1466.62
532.35	1482.70
532.71	1498.63
533.07	1514.86
533.42	1530.75
533.78	1546.89
534.14	1563.07
534.50	1578.41
534.86	1594.44
535.21	1609.63
535.57	1625.56
535.93	1641.10
536.29	1655.86
536.65	1671.09
537.00	1686.07
537.36	1701.33
537.72	1716.04
538.08	1730.52
538.44	1744.48
538.79	1758.54
539.15	1772.33
539.51	1786.14
539.87	1800.46
540.22	1814.24
540.58	1828.10
540.94	1841.55
541.29	1854.57
541.65	1867.37
542.01	1880.63
542.37	1893.01
542.72	1905.57
543.08	1917.39
543.44	1929.84
543.79	1941.28
544.15	1952.22
544.51	1963.80
544.87	1974.85
545.22	1985.58
545.58	1995.87
545.94	2005.78
546.29	2015.71
546.65	2025.56
547.01	2034.82
547.36	2043.57
547.72	2052.08
548.07	2059.98
548.43	2068.16
548.79	2076.23
549.14	2083.90
549.50	2091.35
549.86	2099.16
550.21	2106.52
550.57	2113.69
550.92	2120.23
551.28	2127.18
551.64	2134.30
551.99	2140.79
552.35	2147.01
552.70	2153.27
553.06	2159.21
553.41	2165.56
553.77	2171.48
554.13	2177.63
554.48	2183.73
554.84	2189.20
555.19	2194.54
555.55	2199.72
555.90	2204.20
556.26	2208.93
556.61	2213.57
556.97	2217.69
557.32	2221.79
557.68	2225.85
558.03	2230.26
558.39	2233.90
558.74	2238.73
559.10	2242.71
559.45	2246.31
559.81	2250.55
560.16	2254.29
560.52	2257.55
560.87	2260.98
561.23	2263.63
561.58	2266.50
561.94	2269.09
562.29	2271.55
562.64	2274.18
563.00	2276.78
563.35	2280.25
563.71	2283.50
564.06	2286.60
564.42	2289.44
564.77	2291.79
565.12	2294.06
565.48	2295.74
565.83	2297.62
566.19	2298.67
566.54	2299.44
566.89	2300.55
567.25	2301.03
567.60	2302.37
567.96	2303.88
568.31	2304.58
568.66	2305.55
569.02	2306.10
569.37	2306.34
569.72	2306.98
570.08	2306.98
570.43	2306.81
570.78	2306.08
571.14	2304.35
571.49	2303.02
571.84	2302.55
572.20	2301.29
572.55	2300.11
572.90	2298.61
573.26	2297.02
573.61	2295.35
573.96	2293.52
574.31	2290.55
574.67	2287.45
575.02	2283.79
575.37	2280.38
575.72	2276.31
576.08	2272.99
576.43	2269.57
576.78	2265.80
577.13	2262.67
577.49	2259.60
577.84	2256.02
578.19	2252.32
578.54	2248.63
578.90	2244.37
579.25	2238.86
579.60	2233.90
579.95	2228.82
580.30	2223.67
580.66	2218.57
581.01	2213.57
581.36	2208.45
581.71	2203.97
582.06	2199.54
582.42	2194.88
582.77	2189.57
583.12	2184.95
583.47	2179.97
583.82	2174.86
584.17	2169.46
584.53	2163.72
584.88	2157.89
585.23	2152.08
585.58	2146.50
585.93	2140.94
586.28	2135.96
586.63	2130.83
586.98	2125.59
587.34	2120.83
587.69	2115.72
588.04	2110.42
588.39	2104.58
588.74	2098.12
589.09	2091.90
589.44	2084.90
589.79	2078.86
590.14	2073.06
590.49	2066.46
590.84	2060.09
591.19	2053.91
591.54	2047.42
591.89	2040.01
592.25	2033.27
592.60	2025.94
592.95	2018.15
593.30	2010.73
593.65	2003.08
594.00	1995.93
594.35	1988.72
594.70	1980.60
595.05	1973.35
595.40	1965.93
595.75	1958.40
596.10	1952.10
596.45	1945.33
596.80	1939.19
597.15	1932.41
597.50	1925.33
597.85	1918.95
598.19	1912.23
598.54	1905.18
598.89	1898.53
599.24	1892.62
599.59	1885.76
599.94	1879.64
600.29	1873.40
600.64	1866.89
600.99	1859.39
601.34	1852.58
601.69	1845.50
602.04	1838.42
602.39	1831.05
602.74	1824.07
603.08	1817.34
603.43	1810.57
603.78	1803.27
604.13	1796.06
604.48	1788.75
604.83	1782.00
605.18	1774.98
605.53	1766.88
605.87	1758.77
606.22	1751.55
606.57	1743.58
606.92	1736.37
607.27	1729.08
607.62	1722.11
607.96	1714.77
608.31	1708.19
608.66	1700.53
609.01	1693.06
609.36	1685.61
609.70	1677.64
610.05	1669.72
610.40	1661.96
610.75	1653.56
611.10	1645.93
611.44	1637.59
611.79	1629.69
612.14	1620.76
612.49	1611.57
612.83	1603.28
613.18	1595.15
613.53	1586.96
613.88	1578.41
614.22	1570.21
614.57	1561.72
614.92	1553.54
615.27	1545.95
615.61	1537.56
615.96	1529.51
616.31	1521.84
616.65	1514.42
617.00	1506.96
617.35	1499.27
617.70	1490.98
618.04	1482.34
618.39	1474.13
618.74	1466.49
619.08	1458.10
619.43	1450.64
619.78	1443.71
620.12	1436.51
620.47	1429.03
620.82	1420.93
621.16	1413.53
621.51	1405.82
621.85	1398.20
622.20	1389.83
622.55	1381.41
622.89	1373.70
623.24	1366.11
623.59	1358.79
623.93	1351.26
624.28	1343.89
624.62	1336.33
624.97	1329.18
625.32	1322.53
625.66	1315.41
626.01	1308.16
626.35	1300.57
626.70	1292.83
627.04	1284.99
627.39	1277.25
627.73	1269.81
628.08	1262.84
628.43	1255.49
628.77	1248.04
629.12	1240.38
629.46	1233.13
629.81	1225.93
630.15	1218.64
630.50	1211.17
630.84	1202.85
631.19	1194.98
631.53	1187.55
631.88	1179.97
632.22	1172.34
632.57	1165.04
632.91	1157.67
633.26	1150.23
633.60	1142.97
633.95	1135.87
634.29	1129.02
634.64	1122.40
634.98	1115.04
635.32	1107.99
635.67	1101.53
636.01	1094.91
636.36	1088.18
636.70	1081.72
637.05	1075.01
637.39	1068.58
637.73	1062.06
638.08	1056.38
638.42	1050.49
638.77	1044.06
639.11	1037.55
639.45	1031.21
639.80	1024.60
640.14	1018.12
640.49	1011.60
640.83	1005.33
641.17	999.08
641.52	992.72
641.86	986.39
642.20	980.50
642.55	974.17
642.89	967.71
643.23	961.14
643.58	955.37
643.92	949.12
644.26	943.12
644.61	937.21
644.95	931.20
645.29	924.49
645.64	917.68
645.98	911.36
646.32	905.50
646.66	899.40
647.01	893.55
647.35	887.90
647.69	882.13
648.04	876.71
648.38	870.97
648.72	864.94
649.06	858.73
649.41	852.89
649.75	846.81
650.09	840.81
650.43	835.11
650.78	828.93
651.12	823.10
651.46	817.39
651.80	811.51
652.14	806.10
652.49	800.67
652.83	795.49
653.17	789.85
653.51	784.13
653.85	778.77
654.20	773.20
654.54	767.18
654.88	761.45
655.22	755.53
655.56	749.83
655.90	744.39
656.25	739.22
656.59	733.87
656.93	728.86
657.27	723.67
657.61	718.29
657.95	713.16
658.29	708.02
658.64	702.75
658.98	697.45
659.32	692.02
659.66	686.93
660.00	681.67
660.34	676.59
660.68	671.74
661.02	666.72
661.36	661.98
661.70	657.50
662.05	653.08
662.39	648.71
662.73	644.30
663.07	639.98
663.41	635.48
663.75	630.98
664.09	626.41
664.43	622.09
664.77	617.93
665.11	613.79
665.45	609.63
665.79	605.57
666.13	601.46
666.47	597.41
666.81	593.22
667.15	589.06
667.49	585.26
667.83	581.41
668.17	577.45
668.51	573.41
668.85	569.39
669.19	565.56
669.53	561.76
669.87	557.88
670.21	554.15
670.55	550.56
670.89	547.17
671.23	543.78
671.57	540.29
671.91	536.79
672.25	533.21
672.58	529.73
672.92	526.33
673.26	523.21
673.60	520.11
673.94	517.04
674.28	514.21
674.62	511.25
674.96	508.19
675.30	505.25
675.64	502.37
675.97	499.63
676.31	496.81
676.65	493.93
676.99	491.31
677.33	488.46
677.67	485.70
678.01	482.65
678.34	479.64
678.68	476.72
679.02	473.92
679.36	471.20
679.70	468.52
680.04	465.70
680.37	462.79
680.71	459.93
681.05	457.34
681.39	454.58
681.73	451.97
682.06	449.40
682.40	446.88
682.74	444.33
683.08	441.84
683.42	439.23
683.75	436.71
684.09	434.09
684.43	431.65
684.77	429.14
685.10	426.87
685.44	424.59
685.78	422.33
686.12	420.07
686.45	417.75
686.79	415.43
687.13	413.28
687.46	411.13
687.80	409.01
688.14	406.72
688.48	404.66
688.81	402.43
689.15	400.32
689.49	398.20
689.82	396.11
690.16	393.97
690.50	392.01
690.83	390.08
691.17	388.11
691.51	386.17
691.84	384.37
692.18	382.39
692.52	380.42
692.85	378.48
693.19	376.65
693.52	374.86
693.86	373.10
694.20	371.35
694.53	369.56
694.87	367.72
695.21	366.01
695.54	364.19
695.88	362.44
696.21	360.72
696.55	359.06
696.88	357.43
697.22	355.80
697.56	354.24
697.89	352.57
698.23	350.99
698.56	349.44
698.90	347.80
699.23	346.17
699.57	344.63
699.90	343.08
700.24	341.53
700.58	340.03
700.91	338.51
701.25	337.04
701.58	335.69
701.92	334.35
702.25	332.99
702.59	331.61
702.92	330.32
703.26	329.03
703.59	327.74
703.93	326.53
704.26	325.31
704.60	324.02
704.93	322.80
705.26	321.52
705.60	320.36
705.93	319.22
706.27	318.18
706.60	317.15
706.94	316.12
707.27	315.02
707.61	313.93
707.94	312.93
708.27	311.86
708.61	310.80
708.94	309.82
709.28	308.84
709.61	307.88
709.94	306.90
710.28	305.86
710.61	304.88
710.95	303.82
711.28	302.89
711.61	301.91
711.95	300.97
712.28	300.04
712.61	299.03
712.95	298.13
713.28	297.29
713.61	296.36
713.95	295.46
714.28	294.60
714.61	293.73
714.95	292.88
715.28	292.04
715.61	291.14
715.95	290.29
716.28	289.41
716.61	288.61
716.95	287.81
717.28	287.12
717.61	286.39
717.94	285.62
718.28	284.80
718.61	284.09
718.94	283.37
719.27	282.70
719.61	282.08
719.94	281.38
720.27	280.63
720.60	280.01
720.94	279.38
721.27	278.77
721.60	278.23
721.93	277.65
722.27	277.10
722.60	276.58
722.93	275.98
723.26	275.46
723.59	274.92
723.93	274.40
724.26	273.82
724.59	273.22
724.92	272.76
725.25	272.28
725.59	271.73
725.92	271.25
726.25	270.74
726.58	270.24
726.91	269.76
727.24	269.33
727.57	268.84
727.91	268.33
728.24	267.88
728.57	267.38
728.90	266.90
729.23	266.38
729.56	265.95
729.89	265.46
730.22	264.96
730.55	264.46
730.89	264.01
731.22	263.55
731.55	263.17
731.88	262.68
732.21	262.24
732.54	261.79
732.87	261.35
733.20	260.94
733.53	260.55
733.86	260.19
734.19	259.76
734.52	259.37
734.85	259.08
735.18	258.65
735.51	258.26
735.84	257.86
736.17	257.54
736.50	257.15
736.83	256.94
737.16	256.63
737.49	256.31
737.82	255.96
738.15	255.61
738.48	255.25
738.81	254.94
739.14	254.64
739.47	254.37
739.80	254.07
740.13	253.79
740.46	253.47
740.79	253.15
741.12	252.84
741.45	252.54
741.78	252.21
742.11	251.96
742.44	251.66
742.77	251.43
743.10	251.10
743.43	250.79
743.75	250.41
744.08	250.27
744.41	250.05
744.74	249.77
745.07	249.54
745.40	249.29
745.73	249.05
746.06	248.82
746.39	248.57
746.71	248.29
747.04	248.03
747.37	247.72
747.70	247.46
748.03	247.22
748.36	247.00
748.68	246.73
749.01	246.43
749.34	246.19
749.67	245.95
750.00	245.76
750.33	245.61
750.65	245.38
750.98	245.07
751.31	244.81
751.64	244.63
751.97	244.44
752.29	244.25
752.62	244.00
752.95	243.78
753.28	243.57
753.60	243.40
753.93	243.19
754.26	243.05
754.59	242.88
754.91	242.64
755.24	242.44
755.57	242.25
755.90	242.07
756.22	241.89
756.55	241.70
756.88	241.48
757.20	241.23
757.53	241.05
757.86	240.88
758.19	240.72
758.51	240.56
758.84	240.35
759.17	240.14
759.49	239.96
759.82	239.83
760.15	239.66
760.47	239.51
760.80	239.32
761.13	239.21
761.45	239.02
761.78	238.90
762.11	238.77
762.43	238.60
762.76	238.50
763.08	238.35
763.41	238.21
763.74	238.09
764.06	237.95
764.39	237.81
764.71	237.61
765.04	237.46
765.37	237.28
765.69	237.16
766.02	237.04
766.34	236.92
766.67	236.73
767.00	236.61
767.32	236.53
767.65	236.49
767.97	236.33
768.30	236.22
768.62	236.13
768.95	236.00
769.27	235.90
769.60	235.81
769.92	235.74
770.25	235.65
770.57	235.52
770.90	235.39
771.22	235.27
771.55	235.21
771.87	235.14
772.20	235.06
772.52	235.05
772.85	235.10
773.17	234.99
773.50	234.91
773.82	234.82
774.15	234.65
774.47	234.54
774.80	234.46
775.12	234.37
775.45	234.30
775.77	234.21
776.09	234.17
776.42	234.07
776.74	234.01
777.07	233.91
777.39	233.84
777.72	233.80
778.04	233.76
778.36	233.69
778.69	233.58
779.01	233.52
779.33	233.41
779.66	233.21
779.98	233.18
780.31	233.10
780.63	233.08
780.95	233.06
781.28	232.97
781.60	232.88
781.92	232.83
782.25	232.73
782.57	232.68
782.89	232.56
783.22	232.53
783.54	232.44
783.86	232.39
784.19	232.35
784.51	232.32
784.83	232.27
785.16	232.19
785.48	232.20
785.80	232.13
786.12	232.08
786.45	232.04
786.77	232.00
787.09	231.93
787.42	231.87
787.74	231.84
788.06	231.80
788.38	231.77
788.71	231.73
789.03	231.70
789.35	231.65
789.67	231.61
789.99	231.54
790.32	231.46
790.64	231.43
790.96	231.48
791.28	231.40
791.61	231.34
791.93	231.33
792.25	231.26
792.57	231.30
792.89	231.22
793.21	231.16
793.54	231.12
793.86	231.10
794.18	231.07
794.50	231.01
794.82	230.97
795.14	230.93
795.47	230.90
795.79	230.87
796.11	230.80
796.43	230.79
796.75	230.77
797.07	230.74
797.39	230.67
797.71	230.57
798.04	230.56
798.36	230.53
798.68	230.48
799.00	230.45
799.32	230.35
799.64	230.34
799.96	230.34
800.28	230.30
800.60	230.23
800.92	230.21
801.24	230.15
801.56	230.12
801.89	230.09
802.21	230.03
802.53	229.97
802.85	229.95
803.17	229.96
803.49	229.89
803.81	229.82
804.13	229.80
804.45	229.71
804.77	229.68
805.09	229.65
805.41	229.58
805.73	229.51
806.05	229.46
806.37	229.39
806.69	229.32
807.01	229.31
807.33	229.30
807.65	229.22
807.97	229.26
808.28	229.24
808.60	229.20
808.92	229.19
809.24	229.19
809.56	229.17
809.88	229.10
810.20	229.11
810.52	229.14
810.84	229.11
811.16	229.08
811.48	229.03
811.80	229.04
812.12	229.01
812.43	229.03
812.75	228.99
813.07	228.97
813.39	228.95
813.71	228.88
814.03	228.86
814.35	228.84
814.67	228.78
814.98	228.77
815.30	228.75
815.62	228.72
815.94	228.67
816.26	228.68
816.58	228.66
816.89	228.63
817.21	228.60
817.53	228.58
817.85	228.59
818.17	228.59
818.48	228.55
818.80	228.57
819.12	228.55
819.44	228.50
819.76	228.49
820.07	228.49
820.39	228.50
820.71	228.50
821.03	228.48
821.34	228.44
821.66	228.44
821.98	228.46
822.30	228.44
822.61	228.47
822.93	228.42
823.25	228.42
823.57	228.40
823.88	228.44
824.20	228.42
824.52	228.45
824.83	228.42
825.15	228.41
825.47	228.41
825.79	228.41
826.10	228.45
826.42	228.43
826.74	228.45
827.05	228.46
827.37	228.47
827.69	228.48
828.00	228.51
828.32	228.50
828.64	228.47
828.95	228.52
829.27	228.50
829.58	228.49
829.90	228.50
830.22	228.51
830.53	228.47
830.85	228.48
831.17	228.43
831.48	228.43
831.80	228.43
832.11	228.40
832.43	228.37
832.75	228.36
833.06	228.42
833.38	228.37
833.69	228.36
834.01	228.35
834.32	228.33
834.64	228.29
834.96	228.27
835.27	228.25
835.59	228.23
835.90	228.21
836.22	228.22
836.53	228.19
836.85	228.20
837.16	228.28
837.48	228.28
837.79	228.33
838.11	228.31
838.42	228.31
838.74	228.31
839.05	228.29
839.37	228.29
839.68	228.19
840.00	228.19
840.31	228.19
840.63	228.16
840.94	228.12
841.26	228.10
841.57	228.09
841.88	228.10
842.20	228.06
842.51	228.05
842.83	228.02
843.14	228.08
843.46	228.07
843.77	228.00
844.08	227.98
844.40	227.93
844.71	227.90
845.03	227.87
845.34	227.88
845.65	227.88
845.97	227.88
846.28	227.90
846.60	227.90
846.91	227.86
847.22	227.82
847.54	227.86
847.85	227.87
848.16	227.84
848.48	227.80
848.79	227.82
849.10	227.77
849.42	227.79
849.73	227.71
850.04	227.71
850.36	227.67
850.67	227.70
850.98	227.69
851.30	227.68
851.61	227.68
851.92	227.64
852.23	227.65
852.55	227.62
852.86	227.60
853.17	227.62
853.49	227.65
853.80	227.69
854.11	227.68
854.42	227.70
854.74	227.69
855.05	227.71
855.36	227.65
855.67	227.68
855.99	227.67
856.30	227.74
856.61	227.74
856.92	227.70
857.23	227.66
857.55	227.62
857.86	227.59
858.17	227.60
858.48	227.58
858.79	227.55
859.11	227.59
859.42	227.56
859.73	227.52
860.04	227.49
860.35	227.44
860.66	227.41
860.98	227.39
861.29	227.38
861.60	227.34
861.91	227.36
862.22	227.35
862.53	227.33
862.84	227.23
863.16	227.25
863.47	227.25
863.78	227.25
864.09	227.28
864.40	227.30
864.71	227.30
865.02	227.30
865.33	227.31
865.64	227.27
865.95	227.29
866.27	227.38
866.58	227.38
866.89	227.40
867.20	227.39
867.51	227.38
867.82	227.38
868.13	227.44
868.44	227.42
868.75	227.45
869.06	227.46
869.37	227.48
869.68	227.45
869.99	227.45
870.30	227.47
870.61	227.49
870.92	227.49
871.23	227.46
871.54	227.51
871.85	227.55
872.16	227.56
872.47	227.54
872.78	227.47
873.09	227.47
873.40	227.46
873.71	227.46
874.02	227.48
874.33	227.48
874.64	227.48
874.95	227.51
875.26	227.46
875.56	227.44
875.87	227.41
876.18	227.40
876.49	227.50
876.80	227.49
877.11	227.48
877.42	227.49
877.73	227.52
878.04	227.48
878.35	227.46
878.66	227.46
878.96	227.48
879.27	227.48
879.58	227.49
879.89	227.49
880.20	227.52
880.51	227.50
880.82	227.48
881.12	227.46
881.43	227.42
881.74	227.43
882.05	227.45
882.36	227.45
882.67	227.48
882.97	227.34
883.28	227.35
883.59	227.36
883.90	227.35
884.21	227.36
884.51	227.37
884.82	227.37
885.13	227.35
885.44	227.35
885.74	227.32
886.05	227.28
886.36	227.27
886.67	227.24
886.98	227.30
887.28	227.31
887.59	227.31
887.90	227.31
888.20	227.28
888.51	227.28
888.82	227.28
889.13	227.24
889.43	227.33
889.74	227.31
890.05	227.30
890.35	227.30
890.66	227.28
890.97	227.27
891.28	227.25
891.58	227.26
891.89	227.25
892.20	227.24
892.50	227.25
892.81	227.24
893.12	227.23
893.42	227.21
893.73	227.22
894.04	227.22
894.34	227.24
894.65	227.23
894.95	227.20
895.26	227.16
895.57	227.18
895.87	227.05
896.18	227.03
896.48	227.02
896.79	227.02
897.10	227.02
897.40	226.99
897.71	226.99
898.01	226.94
898.32	226.95
898.63	226.97
898.93	226.98
899.24	226.98
899.54	226.94
899.85	226.94
900.15	226.93
900.46	226.90
900.76	226.91
901.07	226.91
901.38	226.91
901.68	226.94
901.99	226.92
902.29	226.95
902.60	226.96
902.90	226.96
903.21	226.92
903.51	226.92
903.82	226.96
904.12	226.96
904.43	226.97
904.73	226.97
905.03	226.96
905.34	227.06
905.64	227.10
905.95	227.14
906.25	227.14
906.56	227.13
906.86	227.11
907.17	227.13
907.47	227.13
907.77	227.13
908.08	227.10
908.38	227.12
908.69	227.11
908.99	227.12
909.30	227.14
909.60	227.17
909.90	227.16
910.21	227.14
910.51	227.11
910.81	227.16
911.12	227.15
911.42	227.16
911.73	227.07
912.03	227.05
912.33	227.06
912.64	227.07
912.94	227.09
913.24	227.12
913.55	227.12
913.85	227.11
914.15	227.15
914.46	227.22
914.76	227.23
915.06	227.27
915.37	227.26
915.67	227.25
915.97	227.25
916.27	227.27
916.58	227.30
916.88	227.31
917.18	227.30
917.49	227.39
917.79	227.39
918.09	227.36
918.39	227.37
918.70	227.35
919.00	227.33
919.30	227.35
919.60	227.35
919.91	227.33
920.21	227.36
920.51	227.33
920.81	227.30
921.12	227.34
921.42	227.34
921.72	227.37
922.02	227.38
922.32	227.39
922.63	227.37
922.93	227.38
923.23	227.42
923.53	227.41
923.83	227.32
924.13	227.33
924.44	227.36
924.74	227.39
925.04	227.40
925.34	227.38
925.64	227.32
925.94	227.32
926.24	227.39
926.55	227.35
926.85	227.36
927.15	227.35
927.45	227.30
927.75	227.26
928.05	227.24
928.35	227.24
928.65	227.25
928.95	227.23
929.26	227.20
929.56	227.18
929.86	227.17
930.16	227.17
930.46	227.11
930.76	227.11
931.06	227.09
931.36	227.07
931.66	227.06
931.96	227.07
932.26	227.07
932.56	226.98
932.86	226.98
933.16	226.97
933.46	226.95
933.76	226.95
934.06	226.96
934.36	226.98
934.66	226.96
934.96	226.92
935.26	226.94
935.56	226.95
935.86	226.92
936.16	226.91
936.46	226.90
936.76	226.91
937.06	226.89
937.36	226.86
937.66	226.86
937.96	226.88
938.26	226.89
938.56	226.89
938.86	226.92
939.16	226.93
939.46	226.93
939.76	226.96
940.06	226.97
940.35	226.97
940.65	226.97
940.95	226.98
941.25	226.99
941.55	226.99
941.85	226.99
942.15	227.06
942.45	227.10
942.75	227.11
943.04	227.17
943.34	227.23
943.64	227.24
943.94	227.26
944.24	227.27
944.54	227.25
944.84	227.26
945.13	227.26
945.43	227.28
945.73	227.29
946.03	227.29
946.33	227.26
946.62	227.28
946.92	227.25
947.22	227.26
947.52	227.26
947.82	227.27
948.11	227.26
948.41	227.20
948.71	227.18
949.01	227.20
949.31	227.17
949.60	227.15
949.90	227.19
950.20	227.20
950.50	227.20
950.79	227.24
951.09	227.24
951.39	227.23
951.69	227.23
951.98	227.26
952.28	227.28
952.58	227.32
952.87	227.32
953.17	227.33
953.47	227.35
953.76	227.36
954.06	227.35
954.36	227.36
954.66	227.37
954.95	227.38
955.25	227.38
955.55	227.40
955.84	227.36
956.14	227.34
956.44	227.33
956.73	227.30
957.03	227.28
957.32	227.30
957.62	227.30
957.92	227.31
958.21	227.28
958.51	227.35
958.81	227.33
959.10	227.33
959.40	227.36
959.69	227.35
959.99	227.34
960.29	227.33
960.58	227.31
960.88	227.33
961.17	227.32
961.47	227.32
961.76	227.29
962.06	227.30
962.36	227.28
962.65	227.23
962.95	227.27
963.24	227.24
963.54	227.21
963.83	227.17
964.13	227.13
964.42	227.13
964.72	227.03
965.01	227.02
965.31	226.99
965.60	226.93
965.90	226.96
966.19	226.88
966.49	226.88
966.78	226.86
967.08	226.81
967.37	226.80
967.67	226.77
967.96	226.77
968.26	226.75
968.55	226.76
968.85	226.79
969.14	226.75
969.43	226.74
969.73	226.73
970.02	226.72
970.32	226.75
970.61	226.73
970.91	226.70
971.20	226.69
971.49	226.66
971.79	226.69
972.08	226.64
972.38	226.70
972.67	226.68
972.96	226.69
973.26	226.68
973.55	226.71
973.85	226.68
974.14	226.68
974.43	226.70
974.73	226.67
975.02	226.65
975.31	226.64
975.61	226.66
975.90	226.65
976.19	226.66
976.49	226.66
976.78	226.66
977.07	226.67
977.37	226.67
977.66	226.70
977.95	226.69
978.24	226.75
978.54	226.79
978.83	226.77
979.12	226.78
979.42	226.82
979.71	226.82
980.00	226.86
980.29	226.90
980.59	226.88
980.88	226.91
981.17	226.94
981.46	226.96
981.76	226.95
982.05	226.99
982.34	226.97
982.63	227.01
982.93	227.02
983.22	227.04
983.51	227.08
983.80	227.10
984.09	227.09
984.39	227.06
984.68	227.04
984.97	227.10
985.26	227.10
985.55	227.12
985.85	227.09
986.14	227.09
986.43	227.10
986.72	227.15
987.01	227.12
987.30	227.11
987.59	227.13
987.89	227.15
988.18	227.14
988.47	227.18
988.76	227.14
989.05	227.15
989.34	227.15
989.63	227.16
989.92	227.14
990.22	227.16
990.51	227.18
990.80	227.15
991.09	227.15
991.38	227.16
991.67	227.17
991.96	227.18
992.25	227.18
992.54	227.14
992.83	227.14
993.12	227.14
993.41	227.17
993.70	227.20
993.99	227.22
994.28	227.23
994.58	227.21
994.87	227.19
995.16	227.16
995.45	227.13
995.74	227.09
996.03	227.10
996.32	227.10
996.61	227.12
996.90	227.11
997.19	227.10
997.48	227.10
997.77	227.05
998.06	227.03
998.34	227.02
998.63	227.02
998.92	226.99
999.21	226.99
999.50	226.98
999.79	226.96
1000.08	226.93
1000.37	226.92
1000.66	226.89
1000.95	226.98
1001.24	226.98
1001.53	227.04
1001.82	227.04
1002.11	227.01
1002.40	227.03
1002.68	226.99
1002.97	227.05
1003.26	227.00
1003.55	226.97
1003.84	226.95
1004.13	227.00
1004.42	226.99
1004.71	226.97
1004.99	226.94
1005.28	226.98
1005.57	226.95
1005.86	226.91
1006.15	226.91
1006.44	226.91
1006.72	226.95
1007.01	226.85
1007.30	226.84
1007.59	226.82
1007.88	226.82
1008.17	226.81
1008.45	226.77
1008.74	226.74
1009.03	226.69
1009.32	226.73
1009.60	226.73
1009.89	226.75
1010.18	226.70
1010.47	226.70
1010.76	226.69
1011.04	226.67
1011.33	226.70
1011.62	226.72
1011.91	226.74
1012.19	226.72
1012.48	226.71
1012.77	226.70
1013.05	226.76
1013.34	226.78
1013.63	226.76
1013.92	226.73
1014.20	226.72
1014.49	226.75
1014.78	226.75
1015.06	226.74
1015.35	226.75
1015.64	226.76
1015.92	226.76
1016.21	226.76
1016.50	226.73
1016.78	226.75
1017.07	226.83
1017.36	226.78
1017.64	226.75
1017.93	226.78
1018.22	226.78
1018.50	226.81
1018.79	226.81
1019.08	226.79
1019.36	226.80
1019.65	226.82
1019.93	226.86
1020.22	226.91
1020.51	226.97
1020.79	227.04
1021.08	226.65
1021.36	227.23
1021.65	227.07
1021.94	227.13
1022.22	227.06
1022.51	227.19
1022.79	226.92
1023.08	227.52
1023.36	228.37
1023.65	227.62
>>>>>End Processed Spectral Data<<<<<
