SpectraSuite Data File
++++++++++++++++++++++++++++++++++++
Date: Fri Feb 01 15:08:47 EST 2013
User: group
Dark Spectrum Present: No
Reference Spectrum Present: No
Number of Sampled Component Spectra: 1
Spectrometers: USB2E7196
Integration Time (usec): 35000 (USB2E7196)
Spectra Averaged: 100 (USB2E7196)
Boxcar Smoothing: 10 (USB2E7196)
Correct for Electrical Dark: No (USB2E7196)
Strobe/Lamp Enabled: No (USB2E7196)
Correct for Detector Non-linearity: No (USB2E7196)
Correct for Stray Light: No (USB2E7196)
Number of Pixels in Processed Spectrum: 2048
>>>>>Begin Processed Spectral Data<<<<<
339.09	0.00
339.48	215.44
339.86	216.24
340.24	218.33
340.63	219.90
341.01	222.51
341.39	222.63
341.78	224.15
342.16	224.85
342.54	225.49
342.93	213.82
343.31	224.64
343.69	225.20
344.07	225.70
344.46	226.14
344.84	226.53
345.22	226.77
345.60	227.00
345.99	227.18
346.37	227.30
346.75	227.41
347.13	227.48
347.52	227.55
347.90	227.64
348.28	227.67
348.66	227.75
349.05	227.74
349.43	227.76
349.81	227.82
350.19	227.87
350.57	227.93
350.96	227.99
351.34	228.06
351.72	228.15
352.10	228.25
352.48	228.30
352.87	228.34
353.25	228.40
353.63	228.47
354.01	228.53
354.39	228.64
354.77	228.70
355.15	228.79
355.54	228.85
355.92	228.87
356.30	228.93
356.68	229.03
357.06	229.12
357.44	229.17
357.82	229.20
358.20	229.23
358.58	229.28
358.97	229.33
359.35	229.40
359.73	229.46
360.11	229.50
360.49	229.58
360.87	229.61
361.25	229.67
361.63	229.74
362.01	229.76
362.39	229.75
362.77	229.79
363.15	229.80
363.53	229.78
363.91	229.80
364.29	229.79
364.67	229.69
365.05	229.69
365.43	229.70
365.81	229.69
366.19	229.74
366.57	229.74
366.95	229.72
367.33	229.68
367.71	229.65
368.09	229.62
368.47	229.54
368.85	229.50
369.23	229.45
369.61	229.36
369.99	229.34
370.37	229.31
370.75	229.29
371.13	229.20
371.51	229.16
371.89	229.09
372.27	229.03
372.65	229.00
373.03	228.94
373.41	228.88
373.78	228.81
374.16	228.66
374.54	228.57
374.92	228.47
375.30	228.41
375.68	228.29
376.06	228.23
376.44	228.17
376.82	228.12
377.19	228.04
377.57	227.93
377.95	227.84
378.33	227.73
378.71	227.59
379.09	227.59
379.47	227.54
379.84	227.46
380.22	227.38
380.60	227.28
380.98	227.18
381.36	227.11
381.73	227.02
382.11	226.99
382.49	226.94
382.87	226.86
383.25	226.77
383.62	226.87
384.00	226.80
384.38	226.73
384.76	226.68
385.13	226.66
385.51	226.64
385.89	226.57
386.27	226.54
386.64	226.55
387.02	226.47
387.40	226.44
387.78	226.43
388.15	226.40
388.53	226.40
388.91	226.37
389.29	226.34
389.66	226.38
390.04	226.34
390.42	226.33
390.79	226.34
391.17	226.38
391.55	226.25
391.92	226.26
392.30	226.29
392.68	226.28
393.05	226.29
393.43	226.34
393.81	226.40
394.18	226.44
394.56	226.48
394.94	226.53
395.31	226.54
395.69	226.64
396.06	226.71
396.44	226.77
396.82	226.86
397.19	226.97
397.57	227.01
397.95	227.13
398.32	227.19
398.70	227.27
399.07	227.32
399.45	227.42
399.82	227.49
400.20	227.59
400.58	227.71
400.95	227.75
401.33	227.85
401.70	227.99
402.08	228.09
402.45	228.22
402.83	228.33
403.20	228.46
403.58	228.56
403.95	228.69
404.33	228.84
404.71	228.96
405.08	229.12
405.46	229.26
405.83	229.44
406.21	229.59
406.58	229.80
406.96	229.99
407.33	230.18
407.70	230.39
408.08	230.67
408.45	230.88
408.83	231.13
409.20	231.34
409.58	231.51
409.95	231.79
410.33	232.03
410.70	232.26
411.08	232.56
411.45	232.85
411.82	233.18
412.20	233.52
412.57	233.96
412.95	234.26
413.32	234.67
413.69	235.05
414.07	235.50
414.44	235.96
414.82	236.40
415.19	236.93
415.56	237.45
415.94	237.95
416.31	238.54
416.68	239.17
417.06	239.88
417.43	240.54
417.81	241.28
418.18	242.07
418.55	242.91
418.93	243.76
419.30	244.67
419.67	245.58
420.04	246.53
420.42	247.50
420.79	248.69
421.16	249.80
421.54	251.00
421.91	252.17
422.28	253.38
422.66	254.70
423.03	255.96
423.40	257.29
423.77	258.68
424.15	260.13
424.52	261.63
424.89	263.22
425.26	264.77
425.64	266.23
426.01	267.78
426.38	269.42
426.75	271.09
427.13	272.79
427.50	274.56
427.87	276.41
428.24	278.25
428.61	279.96
428.99	281.91
429.36	284.00
429.73	286.09
430.10	288.14
430.47	290.19
430.85	292.36
431.22	294.58
431.59	297.00
431.96	299.23
432.33	301.71
432.70	304.12
433.08	306.99
433.45	309.62
433.82	312.20
434.19	315.12
434.56	317.92
434.93	320.58
435.30	323.20
435.68	326.11
436.05	328.92
436.42	331.71
436.79	334.29
437.16	336.97
437.53	339.78
437.90	342.60
438.27	345.33
438.64	348.12
439.01	350.75
439.38	353.02
439.75	355.23
440.13	357.77
440.50	360.08
440.87	361.92
441.24	363.92
441.61	366.14
441.98	367.67
442.35	369.47
442.72	371.34
443.09	373.15
443.46	374.17
443.83	374.83
444.20	375.36
444.57	376.18
444.94	376.53
445.31	376.87
445.68	377.21
446.05	377.31
446.42	376.95
446.79	376.56
447.16	376.05
447.53	375.74
447.90	374.58
448.27	373.40
448.64	371.85
449.01	370.68
449.37	368.69
449.74	366.78
450.11	364.56
450.48	362.14
450.85	359.64
451.22	357.47
451.59	355.44
451.96	353.50
452.33	350.86
452.70	348.49
453.07	345.72
453.43	342.84
453.80	340.12
454.17	337.46
454.54	334.91
454.91	332.23
455.28	329.57
455.65	327.00
456.02	324.59
456.38	322.41
456.75	319.75
457.12	317.51
457.49	315.28
457.86	313.11
458.23	311.24
458.59	309.19
458.96	307.11
459.33	305.22
459.70	303.33
460.07	301.83
460.43	300.11
460.80	298.43
461.17	296.97
461.54	295.43
461.91	293.96
462.27	292.50
462.64	291.20
463.01	289.79
463.38	288.52
463.74	287.12
464.11	285.95
464.48	284.89
464.85	283.78
465.21	282.91
465.58	281.97
465.95	280.84
466.32	279.90
466.68	278.97
467.05	278.09
467.42	277.19
467.78	276.24
468.15	275.37
468.52	274.71
468.88	273.86
469.25	273.10
469.62	272.48
469.98	271.79
470.35	271.14
470.72	270.55
471.08	269.88
471.45	269.33
471.82	268.74
472.18	268.14
472.55	267.68
472.92	267.09
473.28	266.63
473.65	266.11
474.02	265.68
474.38	265.33
474.75	264.99
475.11	264.63
475.48	264.37
475.85	264.09
476.21	263.83
476.58	263.60
476.94	263.41
477.31	263.24
477.67	263.06
478.04	262.97
478.41	262.90
478.77	262.92
479.14	262.83
479.50	262.81
479.87	262.88
480.23	262.93
480.60	263.00
480.96	263.08
481.33	263.29
481.69	263.48
482.06	263.67
482.42	263.83
482.79	264.11
483.15	264.42
483.52	264.82
483.88	265.16
484.25	265.58
484.61	265.99
484.98	266.42
485.34	266.98
485.71	267.60
486.07	268.27
486.44	268.85
486.80	269.61
487.17	270.37
487.53	271.17
487.90	272.07
488.26	273.03
488.62	274.01
488.99	275.01
489.35	276.08
489.72	277.20
490.08	278.40
490.44	279.65
490.81	280.99
491.17	282.33
491.54	283.83
491.90	285.31
492.26	286.97
492.63	288.72
492.99	290.50
493.36	292.35
493.72	294.34
494.08	296.43
494.45	298.64
494.81	301.01
495.17	303.41
495.54	305.93
495.90	308.58
496.26	311.40
496.63	314.36
496.99	317.43
497.35	320.69
497.72	324.08
498.08	327.58
498.44	331.23
498.80	335.13
499.17	339.18
499.53	343.40
499.89	347.76
500.26	352.24
500.62	356.90
500.98	361.89
501.34	366.94
501.71	372.24
502.07	377.68
502.43	383.29
502.79	389.18
503.16	395.28
503.52	401.52
503.88	407.91
504.24	414.52
504.60	421.40
504.97	428.44
505.33	435.78
505.69	443.48
506.05	451.28
506.41	459.14
506.78	467.22
507.14	475.65
507.50	484.38
507.86	493.37
508.22	502.53
508.59	511.70
508.95	521.30
509.31	531.07
509.67	541.13
510.03	551.35
510.39	561.78
510.75	572.53
511.12	583.53
511.48	594.76
511.84	606.23
512.20	617.74
512.56	629.77
512.92	641.97
513.28	654.19
513.64	666.61
514.00	679.33
514.37	692.32
514.73	705.38
515.09	718.40
515.45	731.73
515.81	745.36
516.17	759.27
516.53	773.36
516.89	787.49
517.25	801.67
517.61	816.14
517.97	830.67
518.33	845.03
518.69	859.75
519.05	874.81
519.41	890.05
519.77	905.58
520.13	920.96
520.49	936.32
520.85	951.85
521.21	967.71
521.57	984.03
521.93	999.86
522.29	1016.28
522.65	1032.60
523.01	1048.92
523.37	1064.97
523.73	1081.28
524.09	1097.50
524.45	1113.94
524.81	1130.71
525.17	1147.56
525.53	1164.53
525.89	1181.51
526.25	1198.43
526.61	1214.90
526.97	1231.61
527.33	1248.24
527.68	1264.96
528.04	1281.52
528.40	1298.32
528.76	1315.38
529.12	1332.02
529.48	1348.97
529.84	1365.06
530.20	1381.74
530.56	1398.87
530.91	1416.49
531.27	1433.26
531.63	1449.82
531.99	1466.46
532.35	1482.49
532.71	1498.47
533.07	1514.82
533.42	1530.78
533.78	1547.01
534.14	1563.24
534.50	1578.79
534.86	1594.68
535.21	1609.88
535.57	1625.92
535.93	1641.40
536.29	1656.26
536.65	1671.35
537.00	1686.27
537.36	1701.70
537.72	1716.29
538.08	1730.68
538.44	1744.56
538.79	1758.56
539.15	1772.42
539.51	1786.27
539.87	1800.64
540.22	1814.54
540.58	1828.37
540.94	1841.91
541.29	1854.83
541.65	1867.75
542.01	1880.93
542.37	1893.33
542.72	1905.96
543.08	1917.95
543.44	1930.34
543.79	1941.60
544.15	1952.79
544.51	1964.40
544.87	1975.41
545.22	1986.21
545.58	1996.43
545.94	2006.14
546.29	2016.14
546.65	2025.71
547.01	2034.98
547.36	2043.87
547.72	2052.26
548.07	2060.14
548.43	2068.30
548.79	2076.34
549.14	2083.67
549.50	2091.17
549.86	2098.92
550.21	2106.19
550.57	2113.18
550.92	2119.80
551.28	2126.90
551.64	2133.93
551.99	2140.38
552.35	2146.51
552.70	2152.70
553.06	2158.67
553.41	2164.92
553.77	2170.94
554.13	2177.19
554.48	2183.30
554.84	2188.53
555.19	2194.00
555.55	2199.09
555.90	2203.47
556.26	2208.28
556.61	2213.22
556.97	2217.25
557.32	2221.45
557.68	2225.47
558.03	2229.81
558.39	2233.66
558.74	2238.31
559.10	2242.04
559.45	2245.72
559.81	2250.08
560.16	2253.88
560.52	2257.09
560.87	2260.57
561.23	2263.14
561.58	2266.10
561.94	2268.51
562.29	2271.05
562.64	2273.54
563.00	2276.15
563.35	2279.69
563.71	2282.83
564.06	2285.97
564.42	2288.90
564.77	2291.20
565.12	2293.40
565.48	2295.14
565.83	2296.78
566.19	2297.95
566.54	2298.94
566.89	2299.93
567.25	2300.32
567.60	2301.52
567.96	2303.14
568.31	2303.93
568.66	2304.79
569.02	2305.18
569.37	2305.41
569.72	2305.94
570.08	2305.95
570.43	2305.68
570.78	2304.80
571.14	2303.05
571.49	2301.65
571.84	2301.09
572.20	2299.75
572.55	2298.65
572.90	2297.15
573.26	2295.58
573.61	2293.76
573.96	2291.72
574.31	2288.56
574.67	2285.42
575.02	2281.75
575.37	2278.19
575.72	2274.15
576.08	2270.83
576.43	2267.38
576.78	2263.69
577.13	2260.62
577.49	2257.50
577.84	2254.10
578.19	2250.48
578.54	2246.66
578.90	2242.15
579.25	2236.51
579.60	2231.56
579.95	2226.47
580.30	2221.24
580.66	2216.04
581.01	2211.01
581.36	2205.97
581.71	2201.77
582.06	2197.21
582.42	2192.65
582.77	2187.42
583.12	2182.74
583.47	2177.85
583.82	2172.63
584.17	2167.28
584.53	2161.60
584.88	2155.74
585.23	2149.85
585.58	2144.17
585.93	2138.80
586.28	2133.98
586.63	2128.91
586.98	2123.67
587.34	2118.91
587.69	2113.86
588.04	2108.47
588.39	2102.61
588.74	2096.15
589.09	2089.90
589.44	2082.97
589.79	2076.85
590.14	2071.18
590.49	2064.54
590.84	2058.12
591.19	2052.14
591.54	2045.66
591.89	2038.09
592.25	2031.16
592.60	2023.93
592.95	2016.30
593.30	2008.71
593.65	2001.09
594.00	1994.01
594.35	1986.66
594.70	1978.50
595.05	1971.15
595.40	1963.82
595.75	1956.24
596.10	1949.77
596.45	1943.01
596.80	1936.83
597.15	1930.07
597.50	1922.74
597.85	1916.37
598.19	1909.55
598.54	1902.28
598.89	1895.68
599.24	1889.89
599.59	1883.08
599.94	1876.75
600.29	1870.35
600.64	1863.86
600.99	1856.26
601.34	1849.37
601.69	1842.50
602.04	1835.54
602.39	1828.19
602.74	1821.28
603.08	1814.63
603.43	1808.10
603.78	1800.72
604.13	1793.39
604.48	1786.05
604.83	1779.24
605.18	1772.10
605.53	1764.12
605.87	1756.14
606.22	1748.81
606.57	1740.75
606.92	1733.51
607.27	1726.33
607.62	1719.42
607.96	1711.93
608.31	1705.24
608.66	1697.48
609.01	1689.78
609.36	1682.26
609.70	1674.34
610.05	1666.25
610.40	1658.51
610.75	1650.00
611.10	1642.33
611.44	1634.09
611.79	1626.04
612.14	1617.37
612.49	1608.30
612.83	1599.95
613.18	1591.87
613.53	1583.73
613.88	1575.24
614.22	1567.00
614.57	1558.55
614.92	1550.36
615.27	1542.89
615.61	1534.60
615.96	1526.61
616.31	1519.16
616.65	1511.86
617.00	1504.18
617.35	1496.51
617.70	1488.07
618.04	1479.55
618.39	1471.30
618.74	1463.65
619.08	1455.37
619.43	1447.85
619.78	1440.97
620.12	1433.71
620.47	1426.12
620.82	1417.99
621.16	1410.60
621.51	1403.08
621.85	1395.31
622.20	1386.91
622.55	1378.68
622.89	1370.97
623.24	1363.44
623.59	1356.09
623.93	1348.52
624.28	1341.35
624.62	1333.88
624.97	1326.82
625.32	1320.29
625.66	1313.27
626.01	1306.10
626.35	1298.67
626.70	1290.95
627.04	1283.09
627.39	1275.42
627.73	1268.14
628.08	1261.25
628.43	1253.91
628.77	1246.52
629.12	1238.95
629.46	1231.80
629.81	1224.41
630.15	1217.16
630.50	1209.72
630.84	1201.44
631.19	1193.59
631.53	1186.09
631.88	1178.59
632.22	1170.99
632.57	1163.63
632.91	1156.18
633.26	1148.75
633.60	1141.55
633.95	1134.56
634.29	1127.75
634.64	1121.13
634.98	1113.77
635.32	1106.67
635.67	1100.11
636.01	1093.46
636.36	1086.70
636.70	1080.29
637.05	1073.89
637.39	1067.51
637.73	1061.08
638.08	1055.26
638.42	1049.25
638.77	1042.87
639.11	1036.27
639.45	1030.06
639.80	1023.40
640.14	1016.99
640.49	1010.55
640.83	1004.22
641.17	997.97
641.52	991.59
641.86	985.28
642.20	979.43
642.55	973.16
642.89	966.72
643.23	960.19
643.58	954.47
643.92	948.14
644.26	941.93
644.61	935.94
644.95	929.88
645.29	923.30
645.64	916.57
645.98	910.26
646.32	904.51
646.66	898.30
647.01	892.54
647.35	886.92
647.69	881.11
648.04	875.61
648.38	869.71
648.72	863.57
649.06	857.48
649.41	851.57
649.75	845.56
650.09	839.63
650.43	833.85
650.78	827.75
651.12	821.89
651.46	816.11
651.80	810.22
652.14	804.85
652.49	799.47
652.83	794.33
653.17	788.66
653.51	782.93
653.85	777.66
654.20	772.04
654.54	765.94
654.88	760.26
655.22	754.40
655.56	748.78
655.90	743.44
656.25	738.18
656.59	732.89
656.93	727.72
657.27	722.58
657.61	717.19
657.95	712.08
658.29	706.99
658.64	701.82
658.98	696.66
659.32	691.20
659.66	686.01
660.00	680.65
660.34	675.69
660.68	670.83
661.02	665.75
661.36	661.04
661.70	656.56
662.05	652.14
662.39	647.80
662.73	643.39
663.07	639.07
663.41	634.58
663.75	630.13
664.09	625.67
664.43	621.33
664.77	617.26
665.11	613.09
665.45	609.05
665.79	604.97
666.13	600.85
666.47	596.84
666.81	592.71
667.15	588.68
667.49	584.79
667.83	581.02
668.17	577.17
668.51	573.11
668.85	569.16
669.19	565.37
669.53	561.57
669.87	557.70
670.21	554.01
670.55	550.41
670.89	547.02
671.23	543.60
671.57	540.09
671.91	536.50
672.25	533.03
672.58	529.52
672.92	526.13
673.26	523.00
673.60	519.85
673.94	516.74
674.28	513.86
674.62	511.01
674.96	507.92
675.30	504.99
675.64	502.09
675.97	499.38
676.31	496.52
676.65	493.61
676.99	490.89
677.33	488.09
677.67	485.35
678.01	482.29
678.34	479.37
678.68	476.55
679.02	473.82
679.36	471.04
679.70	468.40
680.04	465.68
680.37	462.78
680.71	460.03
681.05	457.48
681.39	454.78
681.73	452.11
682.06	449.59
682.40	447.09
682.74	444.63
683.08	442.08
683.42	439.50
683.75	436.99
684.09	434.45
684.43	431.93
684.77	429.46
685.10	427.15
685.44	424.88
685.78	422.57
686.12	420.35
686.45	418.06
686.79	415.72
687.13	413.56
687.46	411.43
687.80	409.24
688.14	407.02
688.48	404.98
688.81	402.72
689.15	400.55
689.49	398.42
689.82	396.30
690.16	394.24
690.50	392.33
690.83	390.39
691.17	388.47
691.51	386.58
691.84	384.74
692.18	382.76
692.52	380.68
692.85	378.79
693.19	376.85
693.52	375.04
693.86	373.22
694.20	371.40
694.53	369.59
694.87	367.79
695.21	366.06
695.54	364.19
695.88	362.50
696.21	360.76
696.55	359.02
696.88	357.35
697.22	355.71
697.56	354.05
697.89	352.39
698.23	350.76
698.56	349.14
698.90	347.52
699.23	345.88
699.57	344.40
699.90	342.84
700.24	341.32
700.58	339.77
700.91	338.25
701.25	336.79
701.58	335.41
701.92	334.06
702.25	332.67
702.59	331.31
702.92	329.92
703.26	328.65
703.59	327.39
703.93	326.22
704.26	324.98
704.60	323.66
704.93	322.43
705.26	321.21
705.60	320.07
705.93	318.92
706.27	317.96
706.60	316.91
706.94	315.82
707.27	314.72
707.61	313.69
707.94	312.68
708.27	311.63
708.61	310.58
708.94	309.56
709.28	308.56
709.61	307.65
709.94	306.74
710.28	305.71
710.61	304.74
710.95	303.66
711.28	302.71
711.61	301.77
711.95	300.86
712.28	299.92
712.61	298.98
712.95	298.06
713.28	297.19
713.61	296.32
713.95	295.48
714.28	294.65
714.61	293.78
714.95	293.00
715.28	292.16
715.61	291.31
715.95	290.47
716.28	289.64
716.61	288.80
716.95	288.01
717.28	287.29
717.61	286.56
717.94	285.82
718.28	285.04
718.61	284.34
718.94	283.68
719.27	283.04
719.61	282.38
719.94	281.73
720.27	280.93
720.60	280.27
720.94	279.62
721.27	279.02
721.60	278.46
721.93	277.85
722.27	277.30
722.60	276.74
722.93	276.19
723.26	275.66
723.59	275.10
723.93	274.56
724.26	273.99
724.59	273.43
724.92	272.94
725.25	272.45
725.59	271.93
725.92	271.42
726.25	270.90
726.58	270.37
726.91	269.92
727.24	269.51
727.57	269.04
727.91	268.52
728.24	268.05
728.57	267.55
728.90	267.09
729.23	266.61
729.56	266.18
729.89	265.69
730.22	265.21
730.55	264.73
730.89	264.30
731.22	263.84
731.55	263.41
731.88	262.97
732.21	262.54
732.54	262.15
732.87	261.68
733.20	261.26
733.53	260.93
733.86	260.51
734.19	260.08
734.52	259.70
734.85	259.37
735.18	258.96
735.51	258.59
735.84	258.23
736.17	257.87
736.50	257.48
736.83	257.26
737.16	256.95
737.49	256.61
737.82	256.26
738.15	255.95
738.48	255.62
738.81	255.30
739.14	254.97
739.47	254.63
739.80	254.35
740.13	254.01
740.46	253.65
740.79	253.31
741.12	253.02
741.45	252.68
741.78	252.34
742.11	252.03
742.44	251.65
742.77	251.35
743.10	251.03
743.43	250.70
743.75	250.31
744.08	250.08
744.41	249.82
744.74	249.52
745.07	249.24
745.40	248.98
745.73	248.72
746.06	248.46
746.39	248.17
746.71	247.89
747.04	247.65
747.37	247.43
747.70	247.19
748.03	246.92
748.36	246.71
748.68	246.50
749.01	246.29
749.34	246.12
749.67	245.88
750.00	245.66
750.33	245.52
750.65	245.34
750.98	245.04
751.31	244.83
751.64	244.62
751.97	244.49
752.29	244.31
752.62	244.04
752.95	243.84
753.28	243.66
753.60	243.47
753.93	243.29
754.26	243.08
754.59	242.89
754.91	242.71
755.24	242.52
755.57	242.32
755.90	242.14
756.22	241.96
756.55	241.76
756.88	241.60
757.20	241.40
757.53	241.18
757.86	241.05
758.19	240.93
758.51	240.79
758.84	240.58
759.17	240.41
759.49	240.31
759.82	240.19
760.15	240.03
760.47	239.88
760.80	239.72
761.13	239.62
761.45	239.47
761.78	239.32
762.11	239.17
762.43	239.05
762.76	238.92
763.08	238.81
763.41	238.74
763.74	238.63
764.06	238.49
764.39	238.35
764.71	238.20
765.04	238.03
765.37	237.87
765.69	237.73
766.02	237.58
766.34	237.44
766.67	237.28
767.00	237.20
767.32	237.13
767.65	237.08
767.97	236.95
768.30	236.82
768.62	236.74
768.95	236.59
769.27	236.43
769.60	236.30
769.92	236.14
770.25	235.96
770.57	235.83
770.90	235.72
771.22	235.64
771.55	235.56
771.87	235.46
772.20	235.39
772.52	235.38
772.85	235.41
773.17	235.29
773.50	235.18
773.82	235.05
774.15	234.91
774.47	234.77
774.80	234.67
775.12	234.59
775.45	234.48
775.77	234.41
776.09	234.38
776.42	234.29
776.74	234.26
777.07	234.22
777.39	234.11
777.72	234.00
778.04	233.90
778.36	233.81
778.69	233.74
779.01	233.67
779.33	233.49
779.66	233.29
779.98	233.24
780.31	233.15
780.63	233.11
780.95	233.03
781.28	232.95
781.60	232.87
781.92	232.79
782.25	232.73
782.57	232.66
782.89	232.60
783.22	232.55
783.54	232.45
783.86	232.38
784.19	232.29
784.51	232.29
784.83	232.24
785.16	232.18
785.48	232.13
785.80	232.06
786.12	232.01
786.45	231.94
786.77	231.92
787.09	231.88
787.42	231.83
787.74	231.81
788.06	231.75
788.38	231.72
788.71	231.67
789.03	231.62
789.35	231.61
789.67	231.55
789.99	231.49
790.32	231.43
790.64	231.42
790.96	231.52
791.28	231.42
791.61	231.38
791.93	231.37
792.25	231.32
792.57	231.36
792.89	231.29
793.21	231.32
793.54	231.25
793.86	231.20
794.18	231.16
794.50	231.11
794.82	231.08
795.14	231.07
795.47	231.09
795.79	231.05
796.11	231.01
796.43	230.97
796.75	230.94
797.07	230.95
797.39	230.90
797.71	230.77
798.04	230.76
798.36	230.74
798.68	230.69
799.00	230.69
799.32	230.60
799.64	230.61
799.96	230.56
800.28	230.57
800.60	230.54
800.92	230.53
801.24	230.48
801.56	230.49
801.89	230.43
802.21	230.39
802.53	230.37
802.85	230.35
803.17	230.37
803.49	230.33
803.81	230.26
804.13	230.25
804.45	230.23
804.77	230.21
805.09	230.16
805.41	230.14
805.73	230.09
806.05	230.06
806.37	230.03
806.69	230.01
807.01	229.97
807.33	229.98
807.65	229.88
807.97	229.93
808.28	229.89
808.60	229.87
808.92	229.81
809.24	229.84
809.56	229.80
809.88	229.74
810.20	229.69
810.52	229.74
810.84	229.68
811.16	229.60
811.48	229.56
811.80	229.55
812.12	229.50
812.43	229.50
812.75	229.44
813.07	229.40
813.39	229.39
813.71	229.34
814.03	229.30
814.35	229.29
814.67	229.23
814.98	229.20
815.30	229.19
815.62	229.15
815.94	229.06
816.26	229.09
816.58	229.05
816.89	229.06
817.21	228.96
817.53	228.95
817.85	228.95
818.17	228.96
818.48	228.90
818.80	228.92
819.12	228.86
819.44	228.83
819.76	228.81
820.07	228.76
820.39	228.70
820.71	228.67
821.03	228.66
821.34	228.62
821.66	228.57
821.98	228.50
822.30	228.50
822.61	228.53
822.93	228.41
823.25	228.39
823.57	228.37
823.88	228.40
824.20	228.38
824.52	228.36
824.83	228.34
825.15	228.32
825.47	228.30
825.79	228.31
826.10	228.31
826.42	228.27
826.74	228.28
827.05	228.31
827.37	228.31
827.69	228.30
828.00	228.30
828.32	228.30
828.64	228.30
828.95	228.36
829.27	228.31
829.58	228.35
829.90	228.34
830.22	228.32
830.53	228.30
830.85	228.30
831.17	228.28
831.48	228.26
831.80	228.26
832.11	228.25
832.43	228.20
832.75	228.22
833.06	228.30
833.38	228.28
833.69	228.28
834.01	228.27
834.32	228.26
834.64	228.25
834.96	228.27
835.27	228.30
835.59	228.24
835.90	228.23
836.22	228.24
836.53	228.22
836.85	228.26
837.16	228.32
837.48	228.32
837.79	228.37
838.11	228.35
838.42	228.36
838.74	228.35
839.05	228.35
839.37	228.34
839.68	228.28
840.00	228.26
840.31	228.25
840.63	228.26
840.94	228.25
841.26	228.26
841.57	228.27
841.88	228.27
842.20	228.28
842.51	228.27
842.83	228.25
843.14	228.38
843.46	228.35
843.77	228.31
844.08	228.31
844.40	228.27
844.71	228.30
845.03	228.27
845.34	228.26
845.65	228.25
845.97	228.24
846.28	228.28
846.60	228.28
846.91	228.26
847.22	228.24
847.54	228.28
847.85	228.25
848.16	228.23
848.48	228.20
848.79	228.20
849.10	228.23
849.42	228.22
849.73	228.09
850.04	228.09
850.36	228.05
850.67	228.05
850.98	228.04
851.30	228.02
851.61	228.01
851.92	227.99
852.23	228.00
852.55	227.95
852.86	227.91
853.17	227.91
853.49	227.92
853.80	227.94
854.11	227.91
854.42	227.96
854.74	227.94
855.05	227.91
855.36	227.87
855.67	227.88
855.99	227.86
856.30	227.97
856.61	227.95
856.92	227.94
857.23	227.92
857.55	227.93
857.86	227.89
858.17	227.90
858.48	227.92
858.79	227.88
859.11	227.92
859.42	227.92
859.73	227.90
860.04	227.88
860.35	227.83
860.66	227.76
860.98	227.70
861.29	227.68
861.60	227.71
861.91	227.73
862.22	227.69
862.53	227.67
862.84	227.56
863.16	227.57
863.47	227.57
863.78	227.56
864.09	227.54
864.40	227.55
864.71	227.56
865.02	227.54
865.33	227.55
865.64	227.52
865.95	227.51
866.27	227.58
866.58	227.56
866.89	227.57
867.20	227.60
867.51	227.59
867.82	227.60
868.13	227.60
868.44	227.55
868.75	227.55
869.06	227.55
869.37	227.56
869.68	227.53
869.99	227.56
870.30	227.56
870.61	227.58
870.92	227.59
871.23	227.58
871.54	227.63
871.85	227.65
872.16	227.69
872.47	227.70
872.78	227.63
873.09	227.65
873.40	227.68
873.71	227.65
874.02	227.65
874.33	227.63
874.64	227.62
874.95	227.63
875.26	227.61
875.56	227.61
875.87	227.61
876.18	227.63
876.49	227.71
876.80	227.70
877.11	227.68
877.42	227.67
877.73	227.67
878.04	227.68
878.35	227.67
878.66	227.63
878.96	227.62
879.27	227.61
879.58	227.62
879.89	227.62
880.20	227.68
880.51	227.70
880.82	227.73
881.12	227.72
881.43	227.73
881.74	227.74
882.05	227.75
882.36	227.75
882.67	227.76
882.97	227.68
883.28	227.65
883.59	227.65
883.90	227.64
884.21	227.66
884.51	227.64
884.82	227.63
885.13	227.65
885.44	227.66
885.74	227.65
886.05	227.61
886.36	227.58
886.67	227.56
886.98	227.59
887.28	227.59
887.59	227.59
887.90	227.60
888.20	227.62
888.51	227.63
888.82	227.61
889.13	227.63
889.43	227.66
889.74	227.70
890.05	227.72
890.35	227.73
890.66	227.70
890.97	227.70
891.28	227.70
891.58	227.69
891.89	227.67
892.20	227.70
892.50	227.70
892.81	227.72
893.12	227.71
893.42	227.68
893.73	227.67
894.04	227.62
894.34	227.63
894.65	227.59
894.95	227.57
895.26	227.57
895.57	227.60
895.87	227.53
896.18	227.54
896.48	227.50
896.79	227.47
897.10	227.49
897.40	227.48
897.71	227.50
898.01	227.49
898.32	227.51
898.63	227.48
898.93	227.50
899.24	227.47
899.54	227.45
899.85	227.44
900.15	227.47
900.46	227.50
900.76	227.49
901.07	227.47
901.38	227.48
901.68	227.50
901.99	227.42
902.29	227.41
902.60	227.36
902.90	227.37
903.21	227.38
903.51	227.36
903.82	227.36
904.12	227.34
904.43	227.35
904.73	227.34
905.03	227.36
905.34	227.45
905.64	227.45
905.95	227.46
906.25	227.45
906.56	227.42
906.86	227.43
907.17	227.43
907.47	227.45
907.77	227.42
908.08	227.40
908.38	227.42
908.69	227.43
908.99	227.45
909.30	227.46
909.60	227.46
909.90	227.46
910.21	227.41
910.51	227.40
910.81	227.43
911.12	227.43
911.42	227.40
911.73	227.30
912.03	227.31
912.33	227.34
912.64	227.34
912.94	227.33
913.24	227.28
913.55	227.25
913.85	227.24
914.15	227.27
914.46	227.30
914.76	227.30
915.06	227.27
915.37	227.27
915.67	227.24
915.97	227.25
916.27	227.25
916.58	227.28
916.88	227.27
917.18	227.23
917.49	227.29
917.79	227.31
918.09	227.29
918.39	227.33
918.70	227.31
919.00	227.32
919.30	227.35
919.60	227.36
919.91	227.38
920.21	227.38
920.51	227.34
920.81	227.34
921.12	227.37
921.42	227.41
921.72	227.43
922.02	227.45
922.32	227.46
922.63	227.46
922.93	227.52
923.23	227.51
923.53	227.49
923.83	227.42
924.13	227.39
924.44	227.41
924.74	227.42
925.04	227.47
925.34	227.44
925.64	227.42
925.94	227.45
926.24	227.47
926.55	227.48
926.85	227.46
927.15	227.45
927.45	227.42
927.75	227.38
928.05	227.36
928.35	227.35
928.65	227.39
928.95	227.39
929.26	227.34
929.56	227.37
929.86	227.40
930.16	227.44
930.46	227.45
930.76	227.44
931.06	227.39
931.36	227.35
931.66	227.36
931.96	227.39
932.26	227.40
932.56	227.36
932.86	227.37
933.16	227.44
933.46	227.39
933.76	227.34
934.06	227.38
934.36	227.40
934.66	227.42
934.96	227.38
935.26	227.40
935.56	227.42
935.86	227.42
936.16	227.41
936.46	227.35
936.76	227.36
937.06	227.37
937.36	227.38
937.66	227.37
937.96	227.36
938.26	227.31
938.56	227.30
938.86	227.30
939.16	227.29
939.46	227.25
939.76	227.30
940.06	227.34
940.35	227.32
940.65	227.27
940.95	227.27
941.25	227.22
941.55	227.19
941.85	227.17
942.15	227.20
942.45	227.22
942.75	227.22
943.04	227.22
943.34	227.23
943.64	227.24
943.94	227.23
944.24	227.24
944.54	227.24
944.84	227.24
945.13	227.24
945.43	227.21
945.73	227.24
946.03	227.20
946.33	227.17
946.62	227.17
946.92	227.16
947.22	227.14
947.52	227.15
947.82	227.14
948.11	227.14
948.41	227.09
948.71	227.05
949.01	227.07
949.31	227.06
949.60	227.03
949.90	227.03
950.20	227.01
950.50	226.98
950.79	226.99
951.09	226.99
951.39	226.98
951.69	226.97
951.98	226.99
952.28	226.99
952.58	226.99
952.87	227.01
953.17	227.02
953.47	227.03
953.76	227.04
954.06	227.07
954.36	227.06
954.66	227.06
954.95	227.10
955.25	227.11
955.55	227.13
955.84	227.12
956.14	227.13
956.44	227.16
956.73	227.14
957.03	227.16
957.32	227.15
957.62	227.16
957.92	227.20
958.21	227.20
958.51	227.30
958.81	227.31
959.10	227.30
959.40	227.34
959.69	227.35
959.99	227.36
960.29	227.33
960.58	227.32
960.88	227.35
961.17	227.31
961.47	227.30
961.76	227.28
962.06	227.31
962.36	227.28
962.65	227.28
962.95	227.30
963.24	227.29
963.54	227.30
963.83	227.32
964.13	227.31
964.42	227.27
964.72	227.23
965.01	227.23
965.31	227.25
965.60	227.24
965.90	227.28
966.19	227.25
966.49	227.27
966.78	227.28
967.08	227.26
967.37	227.27
967.67	227.25
967.96	227.26
968.26	227.24
968.55	227.25
968.85	227.25
969.14	227.28
969.43	227.24
969.73	227.23
970.02	227.20
970.32	227.19
970.61	227.20
970.91	227.15
971.20	227.14
971.49	227.10
971.79	227.08
972.08	227.01
972.38	227.04
972.67	227.01
972.96	227.02
973.26	227.02
973.55	227.06
973.85	227.04
974.14	227.02
974.43	227.05
974.73	227.04
975.02	227.03
975.31	227.00
975.61	227.00
975.90	226.99
976.19	227.03
976.49	227.05
976.78	227.05
977.07	227.06
977.37	227.04
977.66	227.09
977.95	227.10
978.24	227.10
978.54	227.15
978.83	227.18
979.12	227.16
979.42	227.17
979.71	227.16
980.00	227.18
980.29	227.23
980.59	227.19
980.88	227.22
981.17	227.23
981.46	227.24
981.76	227.25
982.05	227.28
982.34	227.27
982.63	227.25
982.93	227.24
983.22	227.25
983.51	227.26
983.80	227.25
984.09	227.27
984.39	227.29
984.68	227.24
984.97	227.24
985.26	227.26
985.55	227.26
985.85	227.23
986.14	227.26
986.43	227.23
986.72	227.23
987.01	227.19
987.30	227.15
987.59	227.13
987.89	227.17
988.18	227.13
988.47	227.15
988.76	227.14
989.05	227.14
989.34	227.12
989.63	227.14
989.92	227.11
990.22	227.13
990.51	227.12
990.80	227.09
991.09	227.07
991.38	227.06
991.67	227.04
991.96	227.03
992.25	227.02
992.54	227.03
992.83	227.03
993.12	227.02
993.41	227.04
993.70	227.08
993.99	227.07
994.28	227.08
994.58	227.05
994.87	227.06
995.16	227.07
995.45	227.08
995.74	227.06
996.03	227.06
996.32	227.02
996.61	227.03
996.90	227.07
997.19	227.07
997.48	227.10
997.77	227.08
998.06	227.09
998.34	227.09
998.63	227.06
998.92	227.06
999.21	227.09
999.50	227.12
999.79	227.08
1000.08	227.09
1000.37	227.07
1000.66	227.07
1000.95	227.06
1001.24	227.09
1001.53	227.10
1001.82	227.11
1002.11	227.09
1002.40	227.07
1002.68	227.11
1002.97	227.16
1003.26	227.15
1003.55	227.10
1003.84	227.12
1004.13	227.14
1004.42	227.12
1004.71	227.14
1004.99	227.13
1005.28	227.16
1005.57	227.13
1005.86	227.12
1006.15	227.13
1006.44	227.13
1006.72	227.14
1007.01	227.15
1007.30	227.10
1007.59	227.08
1007.88	227.08
1008.17	227.11
1008.45	227.09
1008.74	227.02
1009.03	226.95
1009.32	226.97
1009.60	226.97
1009.89	227.00
1010.18	226.98
1010.47	226.99
1010.76	226.99
1011.04	226.96
1011.33	226.97
1011.62	227.00
1011.91	227.02
1012.19	227.01
1012.48	227.02
1012.77	227.01
1013.05	227.05
1013.34	227.08
1013.63	227.11
1013.92	227.08
1014.20	227.07
1014.49	227.11
1014.78	227.13
1015.06	227.12
1015.35	227.11
1015.64	227.15
1015.92	227.15
1016.21	227.14
1016.50	227.16
1016.78	227.18
1017.07	227.20
1017.36	227.16
1017.64	227.10
1017.93	227.10
1018.22	227.09
1018.50	227.11
1018.79	227.12
1019.08	227.09
1019.36	227.10
1019.65	227.07
1019.93	227.12
1020.22	227.13
1020.51	227.14
1020.79	227.13
1021.08	227.06
1021.36	227.48
1021.65	227.28
1021.94	227.26
1022.22	227.27
1022.51	227.09
1022.79	227.11
1023.08	227.27
1023.36	227.67
1023.65	227.12
>>>>>End Processed Spectral Data<<<<<
