SpectraSuite Data File
++++++++++++++++++++++++++++++++++++
Date: Fri Feb 01 15:43:52 EST 2013
User: group
Dark Spectrum Present: No
Reference Spectrum Present: No
Number of Sampled Component Spectra: 1
Spectrometers: USB2E7196
Integration Time (usec): 35000 (USB2E7196)
Spectra Averaged: 100 (USB2E7196)
Boxcar Smoothing: 10 (USB2E7196)
Correct for Electrical Dark: No (USB2E7196)
Strobe/Lamp Enabled: No (USB2E7196)
Correct for Detector Non-linearity: No (USB2E7196)
Correct for Stray Light: No (USB2E7196)
Number of Pixels in Processed Spectrum: 2048
>>>>>Begin Processed Spectral Data<<<<<
339.09	0.00
339.48	215.20
339.86	216.91
340.24	218.22
340.63	219.97
341.01	222.77
341.39	221.96
341.78	223.50
342.16	224.54
342.54	225.77
342.93	213.64
343.31	224.44
343.69	225.00
344.07	225.46
344.46	225.90
344.84	226.25
345.22	226.46
345.60	226.72
345.99	226.90
346.37	227.04
346.75	227.10
347.13	227.19
347.52	227.27
347.90	227.34
348.28	227.35
348.66	227.42
349.05	227.44
349.43	227.49
349.81	227.56
350.19	227.58
350.57	227.60
350.96	227.63
351.34	227.71
351.72	227.77
352.10	227.85
352.48	227.90
352.87	227.93
353.25	228.00
353.63	228.07
354.01	228.12
354.39	228.18
354.77	228.24
355.15	228.32
355.54	228.32
355.92	228.37
356.30	228.43
356.68	228.55
357.06	228.59
357.44	228.62
357.82	228.64
358.20	228.68
358.58	228.76
358.97	228.82
359.35	228.85
359.73	228.94
360.11	228.99
360.49	229.06
360.87	229.12
361.25	229.16
361.63	229.22
362.01	229.29
362.39	229.32
362.77	229.37
363.15	229.37
363.53	229.42
363.91	229.42
364.29	229.43
364.67	229.34
365.05	229.35
365.43	229.35
365.81	229.38
366.19	229.42
366.57	229.45
366.95	229.42
367.33	229.42
367.71	229.36
368.09	229.34
368.47	229.31
368.85	229.28
369.23	229.26
369.61	229.19
369.99	229.15
370.37	229.12
370.75	229.13
371.13	229.07
371.51	229.01
371.89	228.97
372.27	228.91
372.65	228.86
373.03	228.79
373.41	228.73
373.78	228.67
374.16	228.53
374.54	228.40
374.92	228.34
375.30	228.26
375.68	228.21
376.06	228.16
376.44	228.06
376.82	227.99
377.19	227.92
377.57	227.85
377.95	227.76
378.33	227.67
378.71	227.52
379.09	227.49
379.47	227.46
379.84	227.40
380.22	227.35
380.60	227.26
380.98	227.22
381.36	227.17
381.73	227.08
382.11	227.06
382.49	227.01
382.87	226.95
383.25	226.88
383.62	226.94
384.00	226.87
384.38	226.81
384.76	226.78
385.13	226.75
385.51	226.71
385.89	226.67
386.27	226.64
386.64	226.62
387.02	226.55
387.40	226.49
387.78	226.46
388.15	226.42
388.53	226.38
388.91	226.35
389.29	226.30
389.66	226.32
390.04	226.29
390.42	226.29
390.79	226.27
391.17	226.26
391.55	226.14
391.92	226.13
392.30	226.17
392.68	226.12
393.05	226.15
393.43	226.20
393.81	226.21
394.18	226.24
394.56	226.25
394.94	226.31
395.31	226.34
395.69	226.43
396.06	226.45
396.44	226.51
396.82	226.56
397.19	226.68
397.57	226.71
397.95	226.77
398.32	226.82
398.70	226.92
399.07	227.00
399.45	227.05
399.82	227.11
400.20	227.16
400.58	227.27
400.95	227.28
401.33	227.34
401.70	227.51
402.08	227.58
402.45	227.70
402.83	227.82
403.20	227.88
403.58	227.94
403.95	228.08
404.33	228.22
404.71	228.31
405.08	228.46
405.46	228.63
405.83	228.76
406.21	228.93
406.58	229.06
406.96	229.23
407.33	229.42
407.70	229.60
408.08	229.86
408.45	230.07
408.83	230.32
409.20	230.54
409.58	230.70
409.95	230.96
410.33	231.20
410.70	231.42
411.08	231.73
411.45	232.04
411.82	232.37
412.20	232.70
412.57	233.11
412.95	233.42
413.32	233.79
413.69	234.23
414.07	234.64
414.44	235.12
414.82	235.60
415.19	236.12
415.56	236.71
415.94	237.24
416.31	237.89
416.68	238.52
417.06	239.25
417.43	239.93
417.81	240.70
418.18	241.50
418.55	242.34
418.93	243.24
419.30	244.13
419.67	245.09
420.04	246.03
420.42	247.02
420.79	248.18
421.16	249.32
421.54	250.50
421.91	251.73
422.28	252.96
422.66	254.29
423.03	255.62
423.40	256.92
423.77	258.33
424.15	259.76
424.52	261.26
424.89	262.84
425.26	264.39
425.64	265.84
426.01	267.44
426.38	269.08
426.75	270.76
427.13	272.48
427.50	274.28
427.87	276.18
428.24	278.07
428.61	279.84
428.99	281.79
429.36	283.87
429.73	285.98
430.10	288.02
430.47	290.10
430.85	292.21
431.22	294.46
431.59	296.85
431.96	299.13
432.33	301.58
432.70	303.99
433.08	306.82
433.45	309.48
433.82	312.13
434.19	315.05
434.56	317.88
434.93	320.56
435.30	323.17
435.68	326.10
436.05	328.95
436.42	331.78
436.79	334.35
437.16	337.10
437.53	339.93
437.90	342.72
438.27	345.44
438.64	348.28
439.01	350.91
439.38	353.21
439.75	355.36
440.13	357.85
440.50	360.18
440.87	362.04
441.24	363.98
441.61	366.09
441.98	367.58
442.35	369.36
442.72	371.22
443.09	373.04
443.46	373.98
443.83	374.56
444.20	375.09
444.57	375.91
444.94	376.20
445.31	376.52
445.68	376.89
446.05	376.96
446.42	376.62
446.79	376.17
447.16	375.66
447.53	375.31
447.90	374.17
448.27	373.00
448.64	371.40
449.01	370.25
449.37	368.32
449.74	366.40
450.11	364.14
450.48	361.67
450.85	359.13
451.22	357.01
451.59	355.03
451.96	353.02
452.33	350.39
452.70	348.00
453.07	345.16
453.43	342.24
453.80	339.48
454.17	336.76
454.54	334.21
454.91	331.51
455.28	328.86
455.65	326.35
456.02	323.87
456.38	321.69
456.75	319.04
457.12	316.78
457.49	314.55
457.86	312.42
458.23	310.54
458.59	308.49
458.96	306.38
459.33	304.46
459.70	302.62
460.07	301.14
460.43	299.43
460.80	297.81
461.17	296.37
461.54	294.89
461.91	293.48
462.27	292.02
462.64	290.77
463.01	289.38
463.38	288.10
463.74	286.74
464.11	285.59
464.48	284.55
464.85	283.43
465.21	282.54
465.58	281.57
465.95	280.48
466.32	279.56
466.68	278.65
467.05	277.74
467.42	276.83
467.78	275.85
468.15	274.92
468.52	274.24
468.88	273.35
469.25	272.55
469.62	271.88
469.98	271.18
470.35	270.52
470.72	269.93
471.08	269.28
471.45	268.77
471.82	268.23
472.18	267.65
472.55	267.18
472.92	266.66
473.28	266.23
473.65	265.77
474.02	265.33
474.38	264.99
474.75	264.68
475.11	264.36
475.48	264.12
475.85	263.93
476.21	263.70
476.58	263.57
476.94	263.45
477.31	263.28
477.67	263.15
478.04	263.08
478.41	263.01
478.77	263.03
479.14	262.96
479.50	262.98
479.87	263.02
480.23	263.12
480.60	263.22
480.96	263.30
481.33	263.51
481.69	263.72
482.06	263.92
482.42	264.11
482.79	264.35
483.15	264.69
483.52	265.05
483.88	265.43
484.25	265.84
484.61	266.29
484.98	266.82
485.34	267.42
485.71	267.92
486.07	268.52
486.44	269.07
486.80	269.77
487.17	270.49
487.53	271.31
487.90	272.17
488.26	273.10
488.62	274.11
488.99	275.07
489.35	276.12
489.72	277.22
490.08	278.42
490.44	279.65
490.81	280.94
491.17	282.31
491.54	283.76
491.90	285.27
492.26	286.90
492.63	288.55
492.99	290.33
493.36	292.31
493.72	294.39
494.08	296.49
494.45	298.74
494.81	301.12
495.17	303.54
495.54	306.12
495.90	308.79
496.26	311.55
496.63	314.54
496.99	317.65
497.35	320.91
497.72	324.34
498.08	327.87
498.44	331.56
498.80	335.49
499.17	339.53
499.53	343.67
499.89	347.98
500.26	352.53
500.62	357.18
500.98	362.11
501.34	367.16
501.71	372.51
502.07	378.00
502.43	383.63
502.79	389.43
503.16	395.48
503.52	401.74
503.88	408.17
504.24	414.77
504.60	421.65
504.97	428.80
505.33	436.13
505.69	443.88
506.05	451.63
506.41	459.50
506.78	467.64
507.14	476.10
507.50	484.86
507.86	493.91
508.22	503.11
508.59	512.34
508.95	521.95
509.31	531.78
509.67	541.84
510.03	552.16
510.39	562.74
510.75	573.57
511.12	584.50
511.48	595.84
511.84	607.32
512.20	618.81
512.56	630.74
512.92	642.92
513.28	655.18
513.64	667.72
514.00	680.50
514.37	693.49
514.73	706.59
515.09	719.64
515.45	732.91
515.81	746.48
516.17	760.44
516.53	774.56
516.89	788.73
517.25	802.97
517.61	817.37
517.97	831.81
518.33	846.26
518.69	861.03
519.05	875.95
519.41	891.08
519.77	906.66
520.13	922.12
520.49	937.48
520.85	952.91
521.21	968.63
521.57	984.82
521.93	1000.63
522.29	1017.02
522.65	1033.26
523.01	1049.54
523.37	1065.65
523.73	1081.83
524.09	1097.90
524.45	1114.21
524.81	1130.83
525.17	1147.59
525.53	1164.53
525.89	1181.39
526.25	1198.25
526.61	1214.63
526.97	1231.46
527.33	1247.94
527.68	1264.58
528.04	1281.13
528.40	1297.86
528.76	1314.89
529.12	1331.46
529.48	1348.26
529.84	1364.26
530.20	1380.88
530.56	1397.78
530.91	1415.13
531.27	1432.02
531.63	1448.43
531.99	1465.02
532.35	1480.90
532.71	1496.82
533.07	1513.13
533.42	1529.04
533.78	1545.14
534.14	1561.46
534.50	1576.85
534.86	1592.87
535.21	1607.98
535.57	1623.92
535.93	1639.44
536.29	1654.19
536.65	1669.34
537.00	1684.14
537.36	1699.43
537.72	1713.97
538.08	1728.54
538.44	1742.41
538.79	1756.16
539.15	1769.90
539.51	1783.75
539.87	1798.16
540.22	1811.94
540.58	1825.61
540.94	1838.88
541.29	1851.68
541.65	1864.42
542.01	1877.59
542.37	1889.77
542.72	1902.23
543.08	1913.96
543.44	1926.30
543.79	1937.61
544.15	1948.53
544.51	1960.14
544.87	1971.17
545.22	1982.00
545.58	1992.22
545.94	2001.99
546.29	2011.90
546.65	2021.78
547.01	2030.95
547.36	2039.75
547.72	2048.15
548.07	2055.99
548.43	2064.18
548.79	2072.35
549.14	2079.80
549.50	2087.14
549.86	2094.78
550.21	2102.21
550.57	2109.34
550.92	2115.81
551.28	2122.86
551.64	2130.05
551.99	2136.53
552.35	2142.69
552.70	2148.80
553.06	2154.74
553.41	2160.99
553.77	2166.97
554.13	2173.12
554.48	2179.25
554.84	2184.70
555.19	2190.06
555.55	2195.28
555.90	2199.86
556.26	2204.69
556.61	2209.43
556.97	2213.63
557.32	2217.82
557.68	2221.94
558.03	2226.34
558.39	2230.12
558.74	2234.69
559.10	2238.52
559.45	2242.09
559.81	2246.47
560.16	2250.37
560.52	2253.58
560.87	2257.11
561.23	2259.84
561.58	2262.73
561.94	2265.11
562.29	2267.46
562.64	2270.09
563.00	2272.73
563.35	2276.06
563.71	2279.14
564.06	2282.41
564.42	2285.21
564.77	2287.61
565.12	2289.75
565.48	2291.73
565.83	2293.65
566.19	2294.97
566.54	2295.83
566.89	2297.04
567.25	2297.41
567.60	2298.66
567.96	2300.28
568.31	2301.02
568.66	2302.19
569.02	2302.77
569.37	2303.31
569.72	2304.08
570.08	2304.22
570.43	2304.27
570.78	2303.72
571.14	2302.18
571.49	2300.79
571.84	2300.53
572.20	2299.41
572.55	2298.38
572.90	2296.57
573.26	2295.14
573.61	2293.52
573.96	2291.83
574.31	2288.74
574.67	2285.68
575.02	2282.09
575.37	2278.74
575.72	2274.97
576.08	2271.65
576.43	2268.30
576.78	2264.39
577.13	2261.31
577.49	2258.23
577.84	2254.65
578.19	2251.01
578.54	2247.34
578.90	2243.06
579.25	2237.55
579.60	2232.54
579.95	2227.46
580.30	2222.51
580.66	2217.30
581.01	2212.26
581.36	2207.23
581.71	2203.07
582.06	2198.66
582.42	2194.14
582.77	2188.87
583.12	2184.21
583.47	2179.34
583.82	2174.27
584.17	2169.08
584.53	2163.45
584.88	2157.68
585.23	2151.83
585.58	2146.19
585.93	2140.74
586.28	2135.95
586.63	2130.67
586.98	2125.68
587.34	2120.99
587.69	2116.10
588.04	2110.72
588.39	2105.04
588.74	2098.60
589.09	2092.57
589.44	2085.76
589.79	2079.81
590.14	2074.35
590.49	2067.77
590.84	2061.33
591.19	2055.37
591.54	2048.88
591.89	2041.48
592.25	2034.73
592.60	2027.48
592.95	2020.01
593.30	2012.53
593.65	2004.93
594.00	1998.09
594.35	1990.81
594.70	1982.86
595.05	1975.57
595.40	1968.35
595.75	1960.81
596.10	1954.60
596.45	1947.75
596.80	1941.58
597.15	1934.72
597.50	1927.41
597.85	1921.01
598.19	1914.34
598.54	1907.11
598.89	1900.47
599.24	1894.56
599.59	1887.79
599.94	1881.68
600.29	1875.32
600.64	1868.86
600.99	1861.42
601.34	1854.49
601.69	1847.57
602.04	1840.56
602.39	1833.18
602.74	1826.32
603.08	1819.67
603.43	1812.83
603.78	1805.56
604.13	1798.36
604.48	1791.14
604.83	1784.30
605.18	1777.26
605.53	1769.23
605.87	1761.23
606.22	1754.02
606.57	1746.09
606.92	1738.89
607.27	1731.68
607.62	1724.77
607.96	1717.45
608.31	1710.77
608.66	1703.14
609.01	1695.40
609.36	1687.88
609.70	1679.84
610.05	1671.74
610.40	1663.95
610.75	1655.52
611.10	1647.80
611.44	1639.39
611.79	1631.44
612.14	1622.62
612.49	1613.47
612.83	1605.14
613.18	1597.04
613.53	1588.94
613.88	1580.37
614.22	1571.99
614.57	1563.36
614.92	1555.24
615.27	1547.47
615.61	1539.17
615.96	1531.16
616.31	1523.58
616.65	1516.21
617.00	1508.63
617.35	1500.92
617.70	1492.54
618.04	1484.16
618.39	1475.95
618.74	1468.37
619.08	1459.96
619.43	1452.49
619.78	1445.61
620.12	1438.37
620.47	1430.84
620.82	1422.65
621.16	1415.21
621.51	1407.69
621.85	1400.09
622.20	1391.47
622.55	1383.32
622.89	1375.44
623.24	1367.77
623.59	1360.42
623.93	1352.88
624.28	1345.77
624.62	1338.29
624.97	1331.29
625.32	1324.44
625.66	1317.42
626.01	1310.24
626.35	1302.82
626.70	1294.99
627.04	1287.20
627.39	1279.46
627.73	1271.99
628.08	1265.10
628.43	1257.74
628.77	1250.26
629.12	1242.60
629.46	1235.57
629.81	1228.10
630.15	1220.90
630.50	1213.54
630.84	1205.35
631.19	1197.50
631.53	1189.96
631.88	1182.33
632.22	1174.53
632.57	1167.25
632.91	1159.75
633.26	1152.33
633.60	1144.95
633.95	1137.93
634.29	1130.92
634.64	1124.23
634.98	1116.93
635.32	1109.67
635.67	1103.19
636.01	1096.62
636.36	1089.84
636.70	1083.32
637.05	1076.74
637.39	1070.21
637.73	1063.67
638.08	1057.82
638.42	1051.77
638.77	1045.31
639.11	1038.71
639.45	1032.37
639.80	1025.77
640.14	1019.27
640.49	1012.77
640.83	1006.56
641.17	1000.38
641.52	994.11
641.86	987.73
642.20	981.98
642.55	975.82
642.89	969.28
643.23	962.73
643.58	957.04
643.92	950.75
644.26	944.61
644.61	938.67
644.95	932.68
645.29	926.05
645.64	919.27
645.98	913.00
646.32	907.27
646.66	901.21
647.01	895.43
647.35	889.71
647.69	883.83
648.04	878.27
648.38	872.44
648.72	866.40
649.06	860.31
649.41	854.39
649.75	848.40
650.09	842.57
650.43	836.78
650.78	830.56
651.12	824.71
651.46	819.00
651.80	813.21
652.14	807.83
652.49	802.47
652.83	797.34
653.17	791.57
653.51	785.85
653.85	780.49
654.20	774.74
654.54	768.75
654.88	763.01
655.22	757.06
655.56	751.32
655.90	745.87
656.25	740.58
656.59	735.20
656.93	730.08
657.27	724.83
657.61	719.46
657.95	714.41
658.29	709.29
658.64	704.07
658.98	698.82
659.32	693.33
659.66	688.20
660.00	682.80
660.34	677.88
660.68	672.89
661.02	667.83
661.36	663.12
661.70	658.66
662.05	654.33
662.39	650.04
662.73	645.55
663.07	641.13
663.41	636.68
663.75	632.14
664.09	627.54
664.43	623.14
664.77	618.96
665.11	614.61
665.45	610.50
665.79	606.45
666.13	602.30
666.47	598.18
666.81	593.93
667.15	589.84
667.49	585.92
667.83	582.16
668.17	578.28
668.51	574.23
668.85	570.20
669.19	566.37
669.53	562.56
669.87	558.71
670.21	555.03
670.55	551.40
670.89	547.96
671.23	544.50
671.57	540.97
671.91	537.44
672.25	534.04
672.58	530.54
672.92	527.10
673.26	523.92
673.60	520.77
673.94	517.65
674.28	514.81
674.62	511.90
674.96	508.79
675.30	505.85
675.64	502.88
675.97	500.09
676.31	497.22
676.65	494.26
676.99	491.59
677.33	488.73
677.67	485.84
678.01	482.83
678.34	479.90
678.68	477.02
679.02	474.23
679.36	471.41
679.70	468.69
680.04	465.96
680.37	463.11
680.71	460.30
681.05	457.73
681.39	454.96
681.73	452.31
682.06	449.76
682.40	447.17
682.74	444.75
683.08	442.24
683.42	439.66
683.75	437.22
684.09	434.65
684.43	432.15
684.77	429.74
685.10	427.39
685.44	425.17
685.78	422.92
686.12	420.69
686.45	418.40
686.79	416.10
687.13	413.87
687.46	411.67
687.80	409.55
688.14	407.29
688.48	405.26
688.81	402.96
689.15	400.83
689.49	398.77
689.82	396.67
690.16	394.59
690.50	392.63
690.83	390.65
691.17	388.70
691.51	386.86
691.84	385.01
692.18	383.09
692.52	381.02
692.85	379.12
693.19	377.21
693.52	375.45
693.86	373.64
694.20	371.90
694.53	370.10
694.87	368.27
695.21	366.55
695.54	364.69
695.88	363.02
696.21	361.29
696.55	359.52
696.88	357.79
697.22	356.12
697.56	354.48
697.89	352.81
698.23	351.17
698.56	349.54
698.90	347.96
699.23	346.28
699.57	344.70
699.90	343.12
700.24	341.59
700.58	340.04
700.91	338.53
701.25	337.04
701.58	335.70
701.92	334.39
702.25	332.97
702.59	331.64
702.92	330.29
703.26	328.99
703.59	327.71
703.93	326.56
704.26	325.30
704.60	324.00
704.93	322.72
705.26	321.49
705.60	320.31
705.93	319.15
706.27	318.12
706.60	317.10
706.94	316.03
707.27	314.89
707.61	313.80
707.94	312.80
708.27	311.73
708.61	310.62
708.94	309.54
709.28	308.55
709.61	307.59
709.94	306.66
710.28	305.61
710.61	304.67
710.95	303.61
711.28	302.73
711.61	301.76
711.95	300.86
712.28	299.89
712.61	298.85
712.95	297.93
713.28	297.04
713.61	296.13
713.95	295.22
714.28	294.38
714.61	293.55
714.95	292.68
715.28	291.84
715.61	291.00
715.95	290.15
716.28	289.25
716.61	288.40
716.95	287.58
717.28	286.89
717.61	286.11
717.94	285.37
718.28	284.53
718.61	283.81
718.94	283.14
719.27	282.52
719.61	281.90
719.94	281.25
720.27	280.56
720.60	279.87
720.94	279.27
721.27	278.71
721.60	278.10
721.93	277.51
722.27	276.99
722.60	276.48
722.93	275.90
723.26	275.41
723.59	274.86
723.93	274.27
724.26	273.72
724.59	273.21
724.92	272.68
725.25	272.17
725.59	271.67
725.92	271.16
726.25	270.61
726.58	270.15
726.91	269.64
727.24	269.19
727.57	268.77
727.91	268.27
728.24	267.78
728.57	267.29
728.90	266.86
729.23	266.33
729.56	265.90
729.89	265.46
730.22	264.99
730.55	264.57
730.89	264.14
731.22	263.66
731.55	263.18
731.88	262.75
732.21	262.34
732.54	261.92
732.87	261.48
733.20	261.11
733.53	260.70
733.86	260.35
734.19	259.93
734.52	259.56
734.85	259.26
735.18	258.86
735.51	258.54
735.84	258.16
736.17	257.82
736.50	257.44
736.83	257.20
737.16	256.88
737.49	256.53
737.82	256.20
738.15	255.91
738.48	255.63
738.81	255.31
739.14	254.99
739.47	254.67
739.80	254.40
740.13	254.13
740.46	253.82
740.79	253.52
741.12	253.23
741.45	252.91
741.78	252.54
742.11	252.28
742.44	251.95
742.77	251.62
743.10	251.29
743.43	251.01
743.75	250.60
744.08	250.41
744.41	250.12
744.74	249.86
745.07	249.57
745.40	249.29
745.73	249.05
746.06	248.77
746.39	248.51
746.71	248.22
747.04	247.93
747.37	247.63
747.70	247.38
748.03	247.14
748.36	246.89
748.68	246.65
749.01	246.40
749.34	246.18
749.67	245.95
750.00	245.74
750.33	245.54
750.65	245.33
750.98	245.02
751.31	244.81
751.64	244.58
751.97	244.43
752.29	244.23
752.62	243.97
752.95	243.74
753.28	243.52
753.60	243.34
753.93	243.15
754.26	242.96
754.59	242.67
754.91	242.45
755.24	242.29
755.57	242.10
755.90	241.88
756.22	241.69
756.55	241.49
756.88	241.28
757.20	241.04
757.53	240.84
757.86	240.66
758.19	240.48
758.51	240.34
758.84	240.06
759.17	239.86
759.49	239.71
759.82	239.59
760.15	239.42
760.47	239.22
760.80	239.06
761.13	238.94
761.45	238.79
761.78	238.68
762.11	238.46
762.43	238.31
762.76	238.17
763.08	238.02
763.41	237.89
763.74	237.77
764.06	237.62
764.39	237.50
764.71	237.37
765.04	237.24
765.37	237.08
765.69	237.01
766.02	236.88
766.34	236.76
766.67	236.66
767.00	236.59
767.32	236.52
767.65	236.45
767.97	236.34
768.30	236.24
768.62	236.10
768.95	236.02
769.27	235.90
769.60	235.82
769.92	235.69
770.25	235.58
770.57	235.49
770.90	235.40
771.22	235.29
771.55	235.17
771.87	235.08
772.20	234.97
772.52	234.95
772.85	234.99
773.17	234.92
773.50	234.78
773.82	234.68
774.15	234.57
774.47	234.43
774.80	234.34
775.12	234.25
775.45	234.15
775.77	234.11
776.09	234.06
776.42	234.02
776.74	233.97
777.07	233.91
777.39	233.85
777.72	233.77
778.04	233.74
778.36	233.69
778.69	233.63
779.01	233.60
779.33	233.45
779.66	233.27
779.98	233.17
780.31	233.11
780.63	233.09
780.95	233.04
781.28	232.99
781.60	232.93
781.92	232.88
782.25	232.84
782.57	232.75
782.89	232.65
783.22	232.56
783.54	232.50
783.86	232.45
784.19	232.36
784.51	232.34
784.83	232.26
785.16	232.18
785.48	232.13
785.80	232.06
786.12	232.03
786.45	231.98
786.77	231.95
787.09	231.94
787.42	231.84
787.74	231.77
788.06	231.73
788.38	231.69
788.71	231.64
789.03	231.59
789.35	231.59
789.67	231.55
789.99	231.49
790.32	231.42
790.64	231.38
790.96	231.43
791.28	231.37
791.61	231.28
791.93	231.26
792.25	231.21
792.57	231.22
792.89	231.13
793.21	231.10
793.54	231.02
793.86	230.93
794.18	230.87
794.50	230.82
794.82	230.74
795.14	230.69
795.47	230.66
795.79	230.64
796.11	230.56
796.43	230.48
796.75	230.47
797.07	230.42
797.39	230.36
797.71	230.24
798.04	230.22
798.36	230.20
798.68	230.16
799.00	230.11
799.32	230.03
799.64	230.04
799.96	230.01
800.28	230.00
800.60	229.97
800.92	229.97
801.24	229.97
801.56	229.95
801.89	229.93
802.21	229.88
802.53	229.83
802.85	229.81
803.17	229.84
803.49	229.76
803.81	229.72
804.13	229.69
804.45	229.69
804.77	229.68
805.09	229.64
805.41	229.59
805.73	229.58
806.05	229.54
806.37	229.46
806.69	229.42
807.01	229.41
807.33	229.42
807.65	229.35
807.97	229.35
808.28	229.34
808.60	229.30
808.92	229.27
809.24	229.29
809.56	229.26
809.88	229.22
810.20	229.21
810.52	229.23
810.84	229.19
811.16	229.15
811.48	229.09
811.80	229.14
812.12	229.12
812.43	229.10
812.75	229.09
813.07	229.07
813.39	229.05
813.71	228.98
814.03	228.92
814.35	228.93
814.67	228.88
814.98	228.81
815.30	228.80
815.62	228.79
815.94	228.73
816.26	228.72
816.58	228.70
816.89	228.70
817.21	228.67
817.53	228.66
817.85	228.61
818.17	228.61
818.48	228.56
818.80	228.56
819.12	228.53
819.44	228.52
819.76	228.50
820.07	228.51
820.39	228.52
820.71	228.52
821.03	228.47
821.34	228.47
821.66	228.47
821.98	228.48
822.30	228.43
822.61	228.46
822.93	228.43
823.25	228.42
823.57	228.39
823.88	228.41
824.20	228.38
824.52	228.40
824.83	228.41
825.15	228.38
825.47	228.37
825.79	228.37
826.10	228.34
826.42	228.33
826.74	228.31
827.05	228.29
827.37	228.31
827.69	228.32
828.00	228.29
828.32	228.30
828.64	228.28
828.95	228.35
829.27	228.30
829.58	228.32
829.90	228.29
830.22	228.29
830.53	228.22
830.85	228.24
831.17	228.19
831.48	228.17
831.80	228.17
832.11	228.14
832.43	228.13
832.75	228.11
833.06	228.18
833.38	228.15
833.69	228.16
834.01	228.12
834.32	228.07
834.64	228.06
834.96	228.04
835.27	227.97
835.59	227.92
835.90	227.91
836.22	227.87
836.53	227.82
836.85	227.81
837.16	227.90
837.48	227.87
837.79	227.90
838.11	227.87
838.42	227.83
838.74	227.81
839.05	227.81
839.37	227.79
839.68	227.68
840.00	227.66
840.31	227.65
840.63	227.62
840.94	227.63
841.26	227.61
841.57	227.60
841.88	227.63
842.20	227.60
842.51	227.57
842.83	227.58
843.14	227.68
843.46	227.68
843.77	227.61
844.08	227.56
844.40	227.51
844.71	227.52
845.03	227.51
845.34	227.51
845.65	227.45
845.97	227.44
846.28	227.47
846.60	227.44
846.91	227.39
847.22	227.41
847.54	227.42
847.85	227.42
848.16	227.38
848.48	227.37
848.79	227.41
849.10	227.42
849.42	227.39
849.73	227.31
850.04	227.29
850.36	227.27
850.67	227.33
850.98	227.31
851.30	227.30
851.61	227.33
851.92	227.33
852.23	227.39
852.55	227.42
852.86	227.41
853.17	227.45
853.49	227.53
853.80	227.54
854.11	227.56
854.42	227.55
854.74	227.60
855.05	227.58
855.36	227.53
855.67	227.54
855.99	227.56
856.30	227.68
856.61	227.69
856.92	227.68
857.23	227.68
857.55	227.70
857.86	227.71
858.17	227.70
858.48	227.71
858.79	227.68
859.11	227.65
859.42	227.65
859.73	227.62
860.04	227.60
860.35	227.56
860.66	227.53
860.98	227.54
861.29	227.54
861.60	227.56
861.91	227.58
862.22	227.53
862.53	227.51
862.84	227.39
863.16	227.41
863.47	227.43
863.78	227.41
864.09	227.42
864.40	227.42
864.71	227.41
865.02	227.40
865.33	227.42
865.64	227.40
865.95	227.41
866.27	227.48
866.58	227.48
866.89	227.48
867.20	227.50
867.51	227.47
867.82	227.42
868.13	227.42
868.44	227.42
868.75	227.44
869.06	227.44
869.37	227.44
869.68	227.43
869.99	227.43
870.30	227.44
870.61	227.43
870.92	227.42
871.23	227.38
871.54	227.41
871.85	227.42
872.16	227.49
872.47	227.48
872.78	227.42
873.09	227.43
873.40	227.43
873.71	227.40
874.02	227.44
874.33	227.45
874.64	227.46
874.95	227.46
875.26	227.47
875.56	227.49
875.87	227.50
876.18	227.49
876.49	227.57
876.80	227.57
877.11	227.56
877.42	227.57
877.73	227.58
878.04	227.56
878.35	227.51
878.66	227.46
878.96	227.43
879.27	227.43
879.58	227.40
879.89	227.40
880.20	227.42
880.51	227.41
880.82	227.42
881.12	227.42
881.43	227.39
881.74	227.37
882.05	227.33
882.36	227.34
882.67	227.35
882.97	227.23
883.28	227.21
883.59	227.18
883.90	227.16
884.21	227.18
884.51	227.17
884.82	227.17
885.13	227.19
885.44	227.18
885.74	227.17
886.05	227.17
886.36	227.19
886.67	227.17
886.98	227.22
887.28	227.25
887.59	227.23
887.90	227.26
888.20	227.27
888.51	227.33
888.82	227.30
889.13	227.30
889.43	227.40
889.74	227.43
890.05	227.44
890.35	227.45
890.66	227.44
890.97	227.41
891.28	227.39
891.58	227.37
891.89	227.39
892.20	227.38
892.50	227.37
892.81	227.33
893.12	227.32
893.42	227.27
893.73	227.26
894.04	227.26
894.34	227.25
894.65	227.24
894.95	227.21
895.26	227.19
895.57	227.25
895.87	227.15
896.18	227.13
896.48	227.13
896.79	227.15
897.10	227.19
897.40	227.24
897.71	227.29
898.01	227.30
898.32	227.30
898.63	227.31
898.93	227.32
899.24	227.31
899.54	227.33
899.85	227.30
900.15	227.27
900.46	227.25
900.76	227.27
901.07	227.27
901.38	227.22
901.68	227.26
901.99	227.18
902.29	227.18
902.60	227.18
902.90	227.20
903.21	227.17
903.51	227.14
903.82	227.15
904.12	227.13
904.43	227.12
904.73	227.12
905.03	227.11
905.34	227.16
905.64	227.16
905.95	227.13
906.25	227.15
906.56	227.14
906.86	227.14
907.17	227.11
907.47	227.09
907.77	227.11
908.08	227.08
908.38	227.09
908.69	227.10
908.99	227.12
909.30	227.13
909.60	227.11
909.90	227.11
910.21	227.04
910.51	227.02
910.81	227.04
911.12	227.04
911.42	227.07
911.73	227.00
912.03	227.01
912.33	227.03
912.64	227.02
912.94	227.01
913.24	227.01
913.55	227.01
913.85	227.02
914.15	227.07
914.46	227.05
914.76	227.02
915.06	227.00
915.37	226.95
915.67	226.92
915.97	226.93
916.27	226.92
916.58	226.96
916.88	226.96
917.18	226.94
917.49	226.98
917.79	226.97
918.09	226.98
918.39	227.01
918.70	227.00
919.00	227.00
919.30	227.03
919.60	227.00
919.91	227.01
920.21	227.00
920.51	226.96
920.81	227.00
921.12	227.02
921.42	227.03
921.72	227.05
922.02	227.06
922.32	227.11
922.63	227.12
922.93	227.16
923.23	227.18
923.53	227.15
923.83	227.11
924.13	227.11
924.44	227.11
924.74	227.14
925.04	227.14
925.34	227.16
925.64	227.15
925.94	227.16
926.24	227.23
926.55	227.26
926.85	227.29
927.15	227.27
927.45	227.26
927.75	227.26
928.05	227.30
928.35	227.28
928.65	227.24
928.95	227.24
929.26	227.20
929.56	227.19
929.86	227.24
930.16	227.24
930.46	227.23
930.76	227.22
931.06	227.17
931.36	227.18
931.66	227.21
931.96	227.24
932.26	227.23
932.56	227.19
932.86	227.16
933.16	227.15
933.46	227.15
933.76	227.16
934.06	227.19
934.36	227.22
934.66	227.27
934.96	227.26
935.26	227.28
935.56	227.30
935.86	227.31
936.16	227.27
936.46	227.28
936.76	227.27
937.06	227.23
937.36	227.25
937.66	227.26
937.96	227.24
938.26	227.19
938.56	227.22
938.86	227.21
939.16	227.25
939.46	227.22
939.76	227.20
940.06	227.18
940.35	227.18
940.65	227.09
940.95	227.07
941.25	227.05
941.55	227.05
941.85	227.03
942.15	227.03
942.45	227.06
942.75	227.03
943.04	227.04
943.34	227.07
943.64	227.05
943.94	226.99
944.24	226.97
944.54	226.96
944.84	226.96
945.13	226.94
945.43	226.89
945.73	226.88
946.03	226.90
946.33	226.91
946.62	226.88
946.92	226.86
947.22	226.84
947.52	226.82
947.82	226.79
948.11	226.77
948.41	226.78
948.71	226.73
949.01	226.73
949.31	226.73
949.60	226.72
949.90	226.73
950.20	226.76
950.50	226.74
950.79	226.74
951.09	226.74
951.39	226.70
951.69	226.70
951.98	226.73
952.28	226.71
952.58	226.69
952.87	226.68
953.17	226.70
953.47	226.72
953.76	226.74
954.06	226.75
954.36	226.71
954.66	226.72
954.95	226.78
955.25	226.78
955.55	226.76
955.84	226.73
956.14	226.73
956.44	226.71
956.73	226.69
957.03	226.66
957.32	226.66
957.62	226.69
957.92	226.71
958.21	226.69
958.51	226.82
958.81	226.82
959.10	226.84
959.40	226.87
959.69	226.88
959.99	226.90
960.29	226.90
960.58	226.95
960.88	226.97
961.17	226.95
961.47	226.95
961.76	226.97
962.06	227.01
962.36	227.05
962.65	227.07
962.95	227.11
963.24	227.12
963.54	227.15
963.83	227.14
964.13	227.11
964.42	227.09
964.72	226.99
965.01	227.01
965.31	227.01
965.60	226.97
965.90	227.03
966.19	227.04
966.49	227.05
966.78	227.02
967.08	227.02
967.37	227.00
967.67	226.99
967.96	226.98
968.26	226.97
968.55	226.96
968.85	226.96
969.14	226.94
969.43	226.94
969.73	226.90
970.02	226.92
970.32	226.91
970.61	226.95
970.91	226.92
971.20	226.90
971.49	226.86
971.79	226.89
972.08	226.82
972.38	226.83
972.67	226.78
972.96	226.81
973.26	226.78
973.55	226.82
973.85	226.83
974.14	226.82
974.43	226.83
974.73	226.82
975.02	226.82
975.31	226.85
975.61	226.86
975.90	226.87
976.19	226.86
976.49	226.89
976.78	226.87
977.07	226.88
977.37	226.91
977.66	226.94
977.95	226.91
978.24	226.92
978.54	226.90
978.83	226.90
979.12	226.89
979.42	226.89
979.71	226.87
980.00	226.86
980.29	226.90
980.59	226.87
980.88	226.89
981.17	226.89
981.46	226.84
981.76	226.87
982.05	226.91
982.34	226.90
982.63	226.92
982.93	226.90
983.22	226.94
983.51	226.94
983.80	226.97
984.09	227.00
984.39	227.00
984.68	227.02
984.97	227.02
985.26	226.97
985.55	226.97
985.85	226.91
986.14	226.91
986.43	226.91
986.72	226.94
987.01	226.91
987.30	226.90
987.59	226.91
987.89	226.90
988.18	226.84
988.47	226.81
988.76	226.78
989.05	226.79
989.34	226.75
989.63	226.72
989.92	226.68
990.22	226.66
990.51	226.64
990.80	226.63
991.09	226.63
991.38	226.67
991.67	226.66
991.96	226.70
992.25	226.68
992.54	226.68
992.83	226.65
993.12	226.66
993.41	226.66
993.70	226.70
993.99	226.71
994.28	226.72
994.58	226.78
994.87	226.76
995.16	226.78
995.45	226.75
995.74	226.74
996.03	226.76
996.32	226.78
996.61	226.79
996.90	226.78
997.19	226.79
997.48	226.77
997.77	226.75
998.06	226.73
998.34	226.75
998.63	226.72
998.92	226.72
999.21	226.72
999.50	226.73
999.79	226.68
1000.08	226.66
1000.37	226.67
1000.66	226.65
1000.95	226.69
1001.24	226.69
1001.53	226.75
1001.82	226.76
1002.11	226.77
1002.40	226.78
1002.68	226.81
1002.97	226.87
1003.26	226.84
1003.55	226.86
1003.84	226.88
1004.13	226.98
1004.42	226.98
1004.71	226.98
1004.99	226.99
1005.28	227.02
1005.57	226.98
1005.86	227.00
1006.15	227.00
1006.44	226.97
1006.72	226.99
1007.01	226.98
1007.30	226.98
1007.59	226.94
1007.88	226.92
1008.17	226.89
1008.45	226.89
1008.74	226.84
1009.03	226.83
1009.32	226.85
1009.60	226.85
1009.89	226.83
1010.18	226.77
1010.47	226.77
1010.76	226.75
1011.04	226.75
1011.33	226.76
1011.62	226.79
1011.91	226.79
1012.19	226.81
1012.48	226.84
1012.77	226.86
1013.05	226.89
1013.34	226.89
1013.63	226.92
1013.92	226.95
1014.20	226.97
1014.49	226.96
1014.78	226.98
1015.06	226.94
1015.35	227.00
1015.64	227.01
1015.92	227.04
1016.21	227.03
1016.50	227.03
1016.78	227.07
1017.07	227.09
1017.36	227.07
1017.64	227.07
1017.93	227.05
1018.22	227.06
1018.50	227.07
1018.79	227.07
1019.08	227.02
1019.36	227.02
1019.65	226.99
1019.93	227.01
1020.22	227.01
1020.51	227.06
1020.79	227.05
1021.08	227.40
1021.36	227.15
1021.65	227.26
1021.94	226.39
1022.22	227.14
1022.51	226.53
1022.79	227.36
1023.08	226.96
1023.36	228.25
1023.65	226.80
>>>>>End Processed Spectral Data<<<<<
