SpectraSuite Data File
++++++++++++++++++++++++++++++++++++
Date: Fri Feb 01 15:02:47 EST 2013
User: group
Dark Spectrum Present: No
Reference Spectrum Present: No
Number of Sampled Component Spectra: 1
Spectrometers: USB2E7196
Integration Time (usec): 35000 (USB2E7196)
Spectra Averaged: 100 (USB2E7196)
Boxcar Smoothing: 10 (USB2E7196)
Correct for Electrical Dark: No (USB2E7196)
Strobe/Lamp Enabled: No (USB2E7196)
Correct for Detector Non-linearity: No (USB2E7196)
Correct for Stray Light: No (USB2E7196)
Number of Pixels in Processed Spectrum: 2048
>>>>>Begin Processed Spectral Data<<<<<
339.09	0.00
339.48	215.39
339.86	216.55
340.24	217.07
340.63	219.21
341.01	222.02
341.39	222.25
341.78	223.43
342.16	224.15
342.54	225.23
342.93	213.37
343.31	224.15
343.69	224.70
344.07	225.16
344.46	225.61
344.84	226.02
345.22	226.26
345.60	226.49
345.99	226.67
346.37	226.81
346.75	226.90
347.13	226.91
347.52	226.93
347.90	227.01
348.28	227.05
348.66	227.13
349.05	227.14
349.43	227.16
349.81	227.18
350.19	227.25
350.57	227.30
350.96	227.38
351.34	227.48
351.72	227.56
352.10	227.68
352.48	227.77
352.87	227.78
353.25	227.84
353.63	227.90
354.01	227.99
354.39	228.08
354.77	228.15
355.15	228.29
355.54	228.38
355.92	228.43
356.30	228.49
356.68	228.60
357.06	228.71
357.44	228.76
357.82	228.83
358.20	228.92
358.58	229.00
358.97	229.07
359.35	229.14
359.73	229.17
360.11	229.16
360.49	229.24
360.87	229.31
361.25	229.36
361.63	229.45
362.01	229.47
362.39	229.51
362.77	229.55
363.15	229.58
363.53	229.59
363.91	229.59
364.29	229.64
364.67	229.57
365.05	229.55
365.43	229.58
365.81	229.59
366.19	229.61
366.57	229.64
366.95	229.62
367.33	229.58
367.71	229.58
368.09	229.62
368.47	229.60
368.85	229.56
369.23	229.56
369.61	229.50
369.99	229.48
370.37	229.45
370.75	229.45
371.13	229.37
371.51	229.36
371.89	229.33
372.27	229.25
372.65	229.18
373.03	229.13
373.41	229.06
373.78	229.00
374.16	228.88
374.54	228.77
374.92	228.71
375.30	228.62
375.68	228.55
376.06	228.47
376.44	228.38
376.82	228.32
377.19	228.24
377.57	228.14
377.95	228.06
378.33	227.98
378.71	227.85
379.09	227.77
379.47	227.69
379.84	227.59
380.22	227.50
380.60	227.42
380.98	227.34
381.36	227.30
381.73	227.22
382.11	227.17
382.49	227.10
382.87	227.02
383.25	226.96
383.62	227.00
384.00	226.91
384.38	226.83
384.76	226.80
385.13	226.77
385.51	226.74
385.89	226.66
386.27	226.62
386.64	226.58
387.02	226.56
387.40	226.46
387.78	226.44
388.15	226.39
388.53	226.36
388.91	226.30
389.29	226.25
389.66	226.24
390.04	226.19
390.42	226.20
390.79	226.18
391.17	226.19
391.55	226.06
391.92	226.08
392.30	226.10
392.68	226.05
393.05	226.07
393.43	226.03
393.81	226.08
394.18	226.07
394.56	226.09
394.94	226.16
395.31	226.19
395.69	226.25
396.06	226.35
396.44	226.43
396.82	226.51
397.19	226.59
397.57	226.62
397.95	226.69
398.32	226.73
398.70	226.82
399.07	226.92
399.45	226.97
399.82	227.03
400.20	227.10
400.58	227.23
400.95	227.27
401.33	227.41
401.70	227.54
402.08	227.62
402.45	227.74
402.83	227.84
403.20	227.99
403.58	228.10
403.95	228.22
404.33	228.34
404.71	228.43
405.08	228.65
405.46	228.82
405.83	229.02
406.21	229.17
406.58	229.34
406.96	229.50
407.33	229.71
407.70	229.93
408.08	230.23
408.45	230.44
408.83	230.67
409.20	230.89
409.58	231.07
409.95	231.35
410.33	231.63
410.70	231.89
411.08	232.15
411.45	232.46
411.82	232.75
412.20	233.10
412.57	233.53
412.95	233.80
413.32	234.18
413.69	234.54
414.07	234.96
414.44	235.41
414.82	235.91
415.19	236.47
415.56	236.99
415.94	237.50
416.31	238.14
416.68	238.76
417.06	239.46
417.43	240.16
417.81	240.93
418.18	241.69
418.55	242.55
418.93	243.45
419.30	244.34
419.67	245.28
420.04	246.22
420.42	247.23
420.79	248.44
421.16	249.60
421.54	250.80
421.91	252.00
422.28	253.26
422.66	254.56
423.03	255.82
423.40	257.17
423.77	258.60
424.15	260.00
424.52	261.51
424.89	263.10
425.26	264.68
425.64	266.13
426.01	267.75
426.38	269.36
426.75	271.03
427.13	272.75
427.50	274.54
427.87	276.44
428.24	278.29
428.61	280.00
428.99	281.97
429.36	284.08
429.73	286.15
430.10	288.17
430.47	290.24
430.85	292.36
431.22	294.58
431.59	296.96
431.96	299.25
432.33	301.71
432.70	304.14
433.08	306.96
433.45	309.58
433.82	312.19
434.19	315.13
434.56	317.95
434.93	320.63
435.30	323.28
435.68	326.18
436.05	329.04
436.42	331.83
436.79	334.30
437.16	337.01
437.53	339.88
437.90	342.70
438.27	345.47
438.64	348.32
439.01	350.90
439.38	353.15
439.75	355.33
440.13	357.90
440.50	360.26
440.87	362.06
441.24	364.07
441.61	366.23
441.98	367.74
442.35	369.55
442.72	371.44
443.09	373.22
443.46	374.24
443.83	374.80
444.20	375.36
444.57	376.25
444.94	376.58
445.31	376.91
445.68	377.29
446.05	377.33
446.42	376.96
446.79	376.61
447.16	376.17
447.53	375.81
447.90	374.59
448.27	373.45
448.64	371.92
449.01	370.76
449.37	368.75
449.74	366.85
450.11	364.63
450.48	362.11
450.85	359.58
451.22	357.44
451.59	355.43
451.96	353.43
452.33	350.81
452.70	348.38
453.07	345.56
453.43	342.60
453.80	339.91
454.17	337.25
454.54	334.66
454.91	331.90
455.28	329.25
455.65	326.75
456.02	324.23
456.38	322.05
456.75	319.39
457.12	317.16
457.49	314.90
457.86	312.70
458.23	310.83
458.59	308.77
458.96	306.67
459.33	304.84
459.70	303.03
460.07	301.54
460.43	299.82
460.80	298.17
461.17	296.76
461.54	295.20
461.91	293.73
462.27	292.31
462.64	291.04
463.01	289.72
463.38	288.43
463.74	287.08
464.11	285.93
464.48	284.86
464.85	283.74
465.21	282.89
465.58	281.93
465.95	280.80
466.32	279.91
466.68	278.98
467.05	278.06
467.42	277.14
467.78	276.17
468.15	275.31
468.52	274.66
468.88	273.80
469.25	273.06
469.62	272.45
469.98	271.74
470.35	271.11
470.72	270.47
471.08	269.76
471.45	269.20
471.82	268.61
472.18	267.98
472.55	267.51
472.92	266.96
473.28	266.50
473.65	266.07
474.02	265.63
474.38	265.21
474.75	264.88
475.11	264.50
475.48	264.23
475.85	264.01
476.21	263.74
476.58	263.53
476.94	263.35
477.31	263.16
477.67	263.00
478.04	262.87
478.41	262.80
478.77	262.85
479.14	262.79
479.50	262.83
479.87	262.93
480.23	263.02
480.60	263.09
480.96	263.21
481.33	263.42
481.69	263.57
482.06	263.80
482.42	263.96
482.79	264.20
483.15	264.52
483.52	264.87
483.88	265.26
484.25	265.68
484.61	266.11
484.98	266.54
485.34	267.10
485.71	267.70
486.07	268.31
486.44	268.85
486.80	269.55
487.17	270.25
487.53	271.04
487.90	271.92
488.26	272.86
488.62	273.80
488.99	274.74
489.35	275.81
489.72	276.92
490.08	278.12
490.44	279.40
490.81	280.74
491.17	282.05
491.54	283.51
491.90	285.01
492.26	286.62
492.63	288.35
492.99	290.11
493.36	291.96
493.72	294.00
494.08	296.13
494.45	298.39
494.81	300.76
495.17	303.21
495.54	305.68
495.90	308.33
496.26	311.15
496.63	314.14
496.99	317.25
497.35	320.48
497.72	323.90
498.08	327.39
498.44	331.05
498.80	334.92
499.17	338.91
499.53	343.09
499.89	347.51
500.26	352.00
500.62	356.66
500.98	361.60
501.34	366.62
501.71	371.92
502.07	377.28
502.43	382.79
502.79	388.53
503.16	394.62
503.52	400.86
503.88	407.25
504.24	413.84
504.60	420.63
504.97	427.68
505.33	434.96
505.69	442.63
506.05	450.31
506.41	458.19
506.78	466.31
507.14	474.78
507.50	483.40
507.86	492.33
508.22	501.49
508.59	510.70
508.95	520.25
509.31	530.01
509.67	540.13
510.03	550.43
510.39	560.99
510.75	571.77
511.12	582.72
511.48	593.95
511.84	605.41
512.20	616.98
512.56	628.97
512.92	641.13
513.28	653.40
513.64	665.98
514.00	678.67
514.37	691.59
514.73	704.56
515.09	717.66
515.45	731.01
515.81	744.55
516.17	758.55
516.53	772.68
516.89	786.84
517.25	801.02
517.61	815.51
517.97	830.02
518.33	844.50
518.69	859.39
519.05	874.40
519.41	889.55
519.77	905.12
520.13	920.54
520.49	936.01
520.85	951.52
521.21	967.27
521.57	983.71
521.93	999.55
522.29	1016.07
522.65	1032.33
523.01	1048.58
523.37	1064.81
523.73	1081.03
524.09	1097.20
524.45	1113.62
524.81	1130.42
525.17	1147.30
525.53	1164.22
525.89	1181.14
526.25	1197.86
526.61	1214.40
526.97	1231.22
527.33	1247.73
527.68	1264.60
528.04	1281.11
528.40	1297.76
528.76	1314.87
529.12	1331.39
529.48	1348.29
529.84	1364.42
530.20	1381.22
530.56	1398.40
530.91	1415.88
531.27	1432.62
531.63	1449.19
531.99	1465.83
532.35	1481.86
532.71	1497.86
533.07	1514.20
533.42	1530.28
533.78	1546.50
534.14	1562.83
534.50	1578.23
534.86	1594.22
535.21	1609.31
535.57	1625.35
535.93	1640.98
536.29	1655.76
536.65	1671.03
537.00	1686.15
537.36	1701.49
537.72	1716.01
538.08	1730.39
538.44	1744.25
538.79	1758.37
539.15	1772.28
539.51	1786.17
539.87	1800.50
540.22	1814.28
540.58	1828.25
540.94	1841.59
541.29	1854.55
541.65	1867.33
542.01	1880.83
542.37	1893.14
542.72	1905.69
543.08	1917.57
543.44	1930.05
543.79	1941.61
544.15	1952.53
544.51	1963.99
544.87	1975.03
545.22	1985.89
545.58	1996.18
545.94	2005.91
546.29	2015.72
546.65	2025.60
547.01	2034.91
547.36	2043.66
547.72	2052.16
548.07	2059.90
548.43	2068.15
548.79	2076.30
549.14	2083.85
549.50	2091.06
549.86	2098.80
550.21	2106.14
550.57	2113.38
550.92	2120.04
551.28	2126.90
551.64	2134.00
551.99	2140.58
552.35	2146.68
552.70	2152.86
553.06	2158.92
553.41	2165.29
553.77	2171.31
554.13	2177.22
554.48	2183.27
554.84	2188.64
555.19	2194.00
555.55	2199.17
555.90	2203.51
556.26	2208.22
556.61	2212.83
556.97	2217.05
557.32	2221.35
557.68	2225.43
558.03	2229.66
558.39	2233.42
558.74	2238.03
559.10	2241.91
559.45	2245.46
559.81	2249.87
560.16	2253.66
560.52	2256.71
560.87	2260.12
561.23	2262.68
561.58	2265.60
561.94	2268.06
562.29	2270.58
562.64	2273.09
563.00	2275.61
563.35	2279.20
563.71	2282.32
564.06	2285.61
564.42	2288.33
564.77	2290.53
565.12	2292.62
565.48	2294.31
565.83	2295.91
566.19	2297.17
566.54	2298.10
566.89	2299.29
567.25	2299.66
567.60	2300.91
567.96	2302.55
568.31	2303.27
568.66	2304.32
569.02	2304.76
569.37	2305.03
569.72	2305.66
570.08	2305.63
570.43	2305.62
570.78	2304.77
571.14	2303.17
571.49	2301.71
571.84	2301.33
572.20	2300.04
572.55	2298.90
572.90	2297.27
573.26	2295.64
573.61	2293.71
573.96	2291.75
574.31	2288.45
574.67	2285.27
575.02	2281.50
575.37	2277.88
575.72	2273.89
576.08	2270.46
576.43	2267.01
576.78	2263.13
577.13	2259.78
577.49	2256.69
577.84	2253.05
578.19	2249.39
578.54	2245.55
578.90	2241.06
579.25	2235.43
579.60	2230.33
579.95	2225.35
580.30	2220.22
580.66	2215.08
581.01	2210.00
581.36	2204.88
581.71	2200.58
582.06	2196.00
582.42	2191.33
582.77	2186.11
583.12	2181.46
583.47	2176.65
583.82	2171.38
584.17	2165.99
584.53	2160.33
584.88	2154.46
585.23	2148.50
585.58	2142.75
585.93	2137.18
586.28	2132.28
586.63	2127.08
586.98	2121.83
587.34	2116.96
587.69	2111.99
588.04	2106.49
588.39	2100.78
588.74	2094.31
589.09	2087.95
589.44	2081.04
589.79	2075.04
590.14	2069.34
590.49	2062.73
590.84	2056.21
591.19	2050.22
591.54	2043.50
591.89	2035.96
592.25	2029.10
592.60	2021.85
592.95	2014.14
593.30	2006.56
593.65	1998.90
594.00	1991.66
594.35	1984.49
594.70	1976.25
595.05	1968.86
595.40	1961.63
595.75	1954.10
596.10	1947.62
596.45	1940.86
596.80	1934.57
597.15	1927.75
597.50	1920.47
597.85	1914.01
598.19	1907.22
598.54	1899.97
598.89	1893.58
599.24	1887.75
599.59	1881.00
599.94	1874.68
600.29	1868.27
600.64	1861.73
600.99	1854.16
601.34	1847.26
601.69	1840.26
602.04	1833.35
602.39	1826.03
602.74	1819.10
603.08	1812.26
603.43	1805.41
603.78	1798.13
604.13	1790.89
604.48	1783.53
604.83	1776.72
605.18	1769.60
605.53	1761.53
605.87	1753.56
606.22	1746.17
606.57	1738.21
606.92	1730.90
607.27	1723.69
607.62	1716.71
607.96	1709.41
608.31	1702.82
608.66	1695.23
609.01	1687.67
609.36	1680.10
609.70	1672.04
610.05	1663.86
610.40	1656.17
610.75	1647.96
611.10	1640.24
611.44	1631.97
611.79	1624.05
612.14	1615.18
612.49	1606.08
612.83	1597.68
613.18	1589.61
613.53	1581.62
613.88	1573.12
614.22	1564.90
614.57	1556.44
614.92	1548.44
615.27	1540.90
615.61	1532.52
615.96	1524.68
616.31	1517.11
616.65	1509.74
617.00	1502.30
617.35	1494.74
617.70	1486.41
618.04	1477.94
618.39	1469.73
618.74	1462.08
619.08	1453.82
619.43	1446.49
619.78	1439.51
620.12	1432.44
620.47	1424.92
620.82	1416.62
621.16	1409.28
621.51	1401.59
621.85	1394.00
622.20	1385.64
622.55	1377.39
622.89	1369.70
623.24	1362.06
623.59	1354.69
623.93	1347.25
624.28	1339.90
624.62	1332.46
624.97	1325.38
625.32	1318.62
625.66	1311.62
626.01	1304.45
626.35	1296.97
626.70	1289.23
627.04	1281.61
627.39	1273.95
627.73	1266.51
628.08	1259.71
628.43	1252.36
628.77	1245.10
629.12	1237.49
629.46	1230.29
629.81	1222.92
630.15	1215.71
630.50	1208.31
630.84	1200.20
631.19	1192.33
631.53	1184.95
631.88	1177.48
632.22	1169.86
632.57	1162.61
632.91	1155.14
633.26	1147.79
633.60	1140.48
633.95	1133.44
634.29	1126.36
634.64	1119.68
634.98	1112.48
635.32	1105.38
635.67	1098.91
636.01	1092.28
636.36	1085.50
636.70	1079.01
637.05	1072.42
637.39	1066.04
637.73	1059.52
638.08	1053.64
638.42	1047.72
638.77	1041.24
639.11	1034.55
639.45	1028.21
639.80	1021.56
640.14	1015.19
640.49	1008.64
640.83	1002.40
641.17	996.06
641.52	989.88
641.86	983.51
642.20	977.69
642.55	971.53
642.89	965.07
643.23	958.57
643.58	952.86
643.92	946.64
644.26	940.61
644.61	934.59
644.95	928.60
645.29	922.00
645.64	915.33
645.98	909.11
646.32	903.47
646.66	897.41
647.01	891.71
647.35	886.05
647.69	880.33
648.04	874.81
648.38	869.22
648.72	863.18
649.06	857.12
649.41	851.25
649.75	845.11
650.09	839.11
650.43	833.34
650.78	827.21
651.12	821.25
651.46	815.58
651.80	809.79
652.14	804.37
652.49	799.04
652.83	793.71
653.17	787.99
653.51	782.14
653.85	776.75
654.20	771.17
654.54	765.12
654.88	759.38
655.22	753.52
655.56	747.75
655.90	742.35
656.25	737.08
656.59	731.79
656.93	726.86
657.27	721.73
657.61	716.28
657.95	711.17
658.29	706.19
658.64	700.93
658.98	695.74
659.32	690.39
659.66	685.24
660.00	680.00
660.34	675.07
660.68	670.24
661.02	665.20
661.36	660.43
661.70	655.98
662.05	651.66
662.39	647.35
662.73	642.96
663.07	638.60
663.41	634.17
663.75	629.59
664.09	625.00
664.43	620.60
664.77	616.54
665.11	612.36
665.45	608.18
665.79	604.12
666.13	600.01
666.47	595.89
666.81	591.68
667.15	587.63
667.49	583.80
667.83	580.07
668.17	576.22
668.51	572.22
668.85	568.28
669.19	564.44
669.53	560.61
669.87	556.73
670.21	553.03
670.55	549.45
670.89	546.07
671.23	542.69
671.57	539.20
671.91	535.69
672.25	532.24
672.58	528.83
672.92	525.46
673.26	522.27
673.60	519.21
673.94	516.12
674.28	513.21
674.62	510.30
674.96	507.13
675.30	504.18
675.64	501.27
675.97	498.56
676.31	495.66
676.65	492.78
676.99	490.07
677.33	487.28
677.67	484.47
678.01	481.46
678.34	478.47
678.68	475.65
679.02	472.81
679.36	470.07
679.70	467.37
680.04	464.62
680.37	461.75
680.71	458.93
681.05	456.38
681.39	453.70
681.73	451.01
682.06	448.51
682.40	445.98
682.74	443.51
683.08	440.92
683.42	438.41
683.75	435.86
684.09	433.39
684.43	430.88
684.77	428.47
685.10	426.19
685.44	423.89
685.78	421.62
686.12	419.46
686.45	417.16
686.79	414.86
687.13	412.70
687.46	410.62
687.80	408.51
688.14	406.26
688.48	404.24
688.81	402.04
689.15	399.89
689.49	397.81
689.82	395.72
690.16	393.62
690.50	391.64
690.83	389.78
691.17	387.79
691.51	385.92
691.84	384.10
692.18	382.15
692.52	380.21
692.85	378.30
693.19	376.40
693.52	374.59
693.86	372.76
694.20	370.97
694.53	369.18
694.87	367.31
695.21	365.60
695.54	363.79
695.88	362.11
696.21	360.43
696.55	358.76
696.88	357.13
697.22	355.55
697.56	353.95
697.89	352.29
698.23	350.68
698.56	349.11
698.90	347.53
699.23	345.91
699.57	344.36
699.90	342.86
700.24	341.34
700.58	339.80
700.91	338.32
701.25	336.91
701.58	335.52
701.92	334.22
702.25	332.79
702.59	331.42
702.92	330.09
703.26	328.77
703.59	327.52
703.93	326.33
704.26	325.06
704.60	323.79
704.93	322.54
705.26	321.29
705.60	320.08
705.93	318.87
706.27	317.84
706.60	316.83
706.94	315.71
707.27	314.57
707.61	313.49
707.94	312.46
708.27	311.36
708.61	310.31
708.94	309.27
709.28	308.35
709.61	307.37
709.94	306.43
710.28	305.41
710.61	304.49
710.95	303.42
711.28	302.50
711.61	301.59
711.95	300.66
712.28	299.71
712.61	298.76
712.95	297.87
713.28	296.96
713.61	296.04
713.95	295.20
714.28	294.38
714.61	293.57
714.95	292.71
715.28	291.89
715.61	291.00
715.95	290.16
716.28	289.29
716.61	288.49
716.95	287.69
717.28	286.95
717.61	286.12
717.94	285.38
718.28	284.57
718.61	283.84
718.94	283.17
719.27	282.51
719.61	281.87
719.94	281.21
720.27	280.52
720.60	279.85
720.94	279.24
721.27	278.61
721.60	278.04
721.93	277.49
722.27	276.93
722.60	276.38
722.93	275.83
723.26	275.27
723.59	274.68
723.93	274.15
724.26	273.62
724.59	273.06
724.92	272.51
725.25	272.02
725.59	271.47
725.92	270.93
726.25	270.41
726.58	269.93
726.91	269.41
727.24	268.95
727.57	268.46
727.91	267.93
728.24	267.47
728.57	267.01
728.90	266.56
729.23	266.05
729.56	265.64
729.89	265.15
730.22	264.71
730.55	264.26
730.89	263.79
731.22	263.34
731.55	262.96
731.88	262.56
732.21	262.14
732.54	261.67
732.87	261.30
733.20	260.93
733.53	260.54
733.86	260.20
734.19	259.80
734.52	259.46
734.85	259.15
735.18	258.75
735.51	258.35
735.84	257.97
736.17	257.66
736.50	257.24
736.83	257.02
737.16	256.69
737.49	256.36
737.82	256.02
738.15	255.70
738.48	255.37
738.81	255.04
739.14	254.71
739.47	254.48
739.80	254.16
740.13	253.86
740.46	253.52
740.79	253.19
741.12	252.92
741.45	252.61
741.78	252.29
742.11	252.04
742.44	251.72
742.77	251.45
743.10	251.13
743.43	250.84
743.75	250.44
744.08	250.29
744.41	250.02
744.74	249.74
745.07	249.47
745.40	249.22
745.73	248.98
746.06	248.72
746.39	248.42
746.71	248.18
747.04	247.90
747.37	247.66
747.70	247.42
748.03	247.15
748.36	246.92
748.68	246.68
749.01	246.42
749.34	246.23
749.67	245.96
750.00	245.77
750.33	245.66
750.65	245.44
750.98	245.12
751.31	244.89
751.64	244.72
751.97	244.57
752.29	244.33
752.62	244.09
752.95	243.87
753.28	243.67
753.60	243.44
753.93	243.26
754.26	243.06
754.59	242.81
754.91	242.61
755.24	242.41
755.57	242.21
755.90	242.05
756.22	241.82
756.55	241.64
756.88	241.45
757.20	241.19
757.53	241.01
757.86	240.83
758.19	240.69
758.51	240.47
758.84	240.24
759.17	240.09
759.49	239.95
759.82	239.83
760.15	239.68
760.47	239.56
760.80	239.40
761.13	239.29
761.45	239.19
761.78	239.04
762.11	238.90
762.43	238.78
762.76	238.61
763.08	238.50
763.41	238.40
763.74	238.25
764.06	238.14
764.39	238.01
764.71	237.89
765.04	237.75
765.37	237.62
765.69	237.52
766.02	237.37
766.34	237.24
766.67	237.09
767.00	237.01
767.32	236.92
767.65	236.88
767.97	236.73
768.30	236.59
768.62	236.48
768.95	236.35
769.27	236.23
769.60	236.15
769.92	236.03
770.25	235.87
770.57	235.76
770.90	235.64
771.22	235.53
771.55	235.41
771.87	235.32
772.20	235.24
772.52	235.22
772.85	235.25
773.17	235.14
773.50	235.04
773.82	234.94
774.15	234.80
774.47	234.64
774.80	234.53
775.12	234.45
775.45	234.38
775.77	234.31
776.09	234.22
776.42	234.13
776.74	234.09
777.07	234.02
777.39	233.95
777.72	233.86
778.04	233.79
778.36	233.73
778.69	233.67
779.01	233.60
779.33	233.41
779.66	233.24
779.98	233.21
780.31	233.15
780.63	233.10
780.95	233.06
781.28	232.96
781.60	232.91
781.92	232.85
782.25	232.75
782.57	232.71
782.89	232.61
783.22	232.52
783.54	232.43
783.86	232.36
784.19	232.25
784.51	232.23
784.83	232.17
785.16	232.10
785.48	232.02
785.80	231.96
786.12	231.94
786.45	231.85
786.77	231.79
787.09	231.73
787.42	231.63
787.74	231.59
788.06	231.53
788.38	231.47
788.71	231.40
789.03	231.37
789.35	231.32
789.67	231.28
789.99	231.25
790.32	231.16
790.64	231.13
790.96	231.21
791.28	231.12
791.61	231.06
791.93	231.01
792.25	230.93
792.57	230.94
792.89	230.88
793.21	230.84
793.54	230.76
793.86	230.70
794.18	230.66
794.50	230.60
794.82	230.56
795.14	230.54
795.47	230.49
795.79	230.44
796.11	230.36
796.43	230.34
796.75	230.31
797.07	230.31
797.39	230.27
797.71	230.14
798.04	230.12
798.36	230.10
798.68	230.03
799.00	230.05
799.32	230.01
799.64	230.00
799.96	229.99
800.28	229.96
800.60	229.95
800.92	229.95
801.24	229.94
801.56	229.95
801.89	229.91
802.21	229.90
802.53	229.86
802.85	229.84
803.17	229.84
803.49	229.77
803.81	229.72
804.13	229.71
804.45	229.68
804.77	229.68
805.09	229.64
805.41	229.66
805.73	229.61
806.05	229.57
806.37	229.53
806.69	229.52
807.01	229.51
807.33	229.46
807.65	229.42
807.97	229.45
808.28	229.44
808.60	229.43
808.92	229.43
809.24	229.49
809.56	229.48
809.88	229.44
810.20	229.45
810.52	229.51
810.84	229.52
811.16	229.52
811.48	229.47
811.80	229.51
812.12	229.48
812.43	229.49
812.75	229.44
813.07	229.44
813.39	229.41
813.71	229.37
814.03	229.37
814.35	229.33
814.67	229.25
814.98	229.20
815.30	229.20
815.62	229.19
815.94	229.11
816.26	229.15
816.58	229.11
816.89	229.12
817.21	229.05
817.53	229.00
817.85	228.99
818.17	228.97
818.48	228.90
818.80	228.91
819.12	228.86
819.44	228.84
819.76	228.79
820.07	228.80
820.39	228.80
820.71	228.79
821.03	228.81
821.34	228.79
821.66	228.76
821.98	228.76
822.30	228.70
822.61	228.76
822.93	228.69
823.25	228.69
823.57	228.65
823.88	228.64
824.20	228.61
824.52	228.58
824.83	228.56
825.15	228.53
825.47	228.52
825.79	228.51
826.10	228.51
826.42	228.49
826.74	228.46
827.05	228.42
827.37	228.38
827.69	228.35
828.00	228.37
828.32	228.38
828.64	228.33
828.95	228.37
829.27	228.34
829.58	228.35
829.90	228.36
830.22	228.35
830.53	228.32
830.85	228.32
831.17	228.31
831.48	228.32
831.80	228.31
832.11	228.29
832.43	228.26
832.75	228.26
833.06	228.33
833.38	228.30
833.69	228.30
834.01	228.32
834.32	228.30
834.64	228.27
834.96	228.27
835.27	228.28
835.59	228.24
835.90	228.16
836.22	228.14
836.53	228.11
836.85	228.10
837.16	228.21
837.48	228.21
837.79	228.20
838.11	228.21
838.42	228.22
838.74	228.17
839.05	228.18
839.37	228.15
839.68	228.06
840.00	228.05
840.31	228.06
840.63	228.03
840.94	228.03
841.26	227.97
841.57	227.95
841.88	227.93
842.20	227.92
842.51	227.94
842.83	227.95
843.14	228.03
843.46	228.03
843.77	227.96
844.08	227.93
844.40	227.92
844.71	227.86
845.03	227.84
845.34	227.88
845.65	227.86
845.97	227.84
846.28	227.87
846.60	227.92
846.91	227.90
847.22	227.90
847.54	227.93
847.85	227.96
848.16	227.95
848.48	227.95
848.79	227.97
849.10	227.96
849.42	227.94
849.73	227.82
850.04	227.81
850.36	227.77
850.67	227.79
850.98	227.78
851.30	227.80
851.61	227.84
851.92	227.78
852.23	227.82
852.55	227.84
852.86	227.83
853.17	227.78
853.49	227.78
853.80	227.80
854.11	227.80
854.42	227.83
854.74	227.82
855.05	227.80
855.36	227.74
855.67	227.75
855.99	227.71
856.30	227.82
856.61	227.82
856.92	227.82
857.23	227.81
857.55	227.79
857.86	227.76
858.17	227.75
858.48	227.75
858.79	227.72
859.11	227.72
859.42	227.71
859.73	227.70
860.04	227.69
860.35	227.70
860.66	227.69
860.98	227.63
861.29	227.60
861.60	227.59
861.91	227.62
862.22	227.64
862.53	227.66
862.84	227.56
863.16	227.55
863.47	227.55
863.78	227.53
864.09	227.56
864.40	227.55
864.71	227.55
865.02	227.58
865.33	227.60
865.64	227.58
865.95	227.56
866.27	227.58
866.58	227.60
866.89	227.56
867.20	227.57
867.51	227.56
867.82	227.60
868.13	227.63
868.44	227.59
868.75	227.56
869.06	227.53
869.37	227.55
869.68	227.51
869.99	227.51
870.30	227.52
870.61	227.53
870.92	227.53
871.23	227.51
871.54	227.54
871.85	227.51
872.16	227.51
872.47	227.48
872.78	227.45
873.09	227.44
873.40	227.44
873.71	227.42
874.02	227.42
874.33	227.38
874.64	227.34
874.95	227.36
875.26	227.36
875.56	227.37
875.87	227.37
876.18	227.38
876.49	227.46
876.80	227.43
877.11	227.39
877.42	227.41
877.73	227.42
878.04	227.38
878.35	227.39
878.66	227.40
878.96	227.43
879.27	227.42
879.58	227.41
879.89	227.39
880.20	227.43
880.51	227.46
880.82	227.47
881.12	227.49
881.43	227.48
881.74	227.47
882.05	227.46
882.36	227.41
882.67	227.43
882.97	227.34
883.28	227.32
883.59	227.34
883.90	227.31
884.21	227.32
884.51	227.36
884.82	227.37
885.13	227.38
885.44	227.34
885.74	227.36
886.05	227.36
886.36	227.36
886.67	227.32
886.98	227.36
887.28	227.36
887.59	227.37
887.90	227.36
888.20	227.38
888.51	227.39
888.82	227.42
889.13	227.43
889.43	227.51
889.74	227.53
890.05	227.50
890.35	227.50
890.66	227.46
890.97	227.40
891.28	227.37
891.58	227.35
891.89	227.36
892.20	227.34
892.50	227.31
892.81	227.31
893.12	227.33
893.42	227.26
893.73	227.26
894.04	227.25
894.34	227.24
894.65	227.23
894.95	227.23
895.26	227.19
895.57	227.20
895.87	227.11
896.18	227.12
896.48	227.14
896.79	227.13
897.10	227.19
897.40	227.20
897.71	227.22
898.01	227.21
898.32	227.24
898.63	227.24
898.93	227.25
899.24	227.27
899.54	227.26
899.85	227.28
900.15	227.27
900.46	227.27
900.76	227.30
901.07	227.30
901.38	227.30
901.68	227.33
901.99	227.31
902.29	227.31
902.60	227.32
902.90	227.33
903.21	227.33
903.51	227.29
903.82	227.30
904.12	227.27
904.43	227.28
904.73	227.28
905.03	227.27
905.34	227.37
905.64	227.34
905.95	227.31
906.25	227.28
906.56	227.26
906.86	227.25
907.17	227.28
907.47	227.25
907.77	227.26
908.08	227.23
908.38	227.22
908.69	227.24
908.99	227.22
909.30	227.21
909.60	227.19
909.90	227.19
910.21	227.18
910.51	227.16
910.81	227.15
911.12	227.13
911.42	227.14
911.73	227.01
912.03	227.02
912.33	227.04
912.64	227.05
912.94	227.06
913.24	227.04
913.55	226.97
913.85	226.94
914.15	226.93
914.46	226.93
914.76	226.92
915.06	226.89
915.37	226.88
915.67	226.89
915.97	226.92
916.27	226.91
916.58	226.91
916.88	226.88
917.18	226.89
917.49	226.98
917.79	226.98
918.09	227.02
918.39	227.03
918.70	227.02
919.00	227.03
919.30	227.08
919.60	227.09
919.91	227.12
920.21	227.16
920.51	227.13
920.81	227.14
921.12	227.15
921.42	227.17
921.72	227.19
922.02	227.19
922.32	227.20
922.63	227.22
922.93	227.28
923.23	227.33
923.53	227.31
923.83	227.23
924.13	227.25
924.44	227.25
924.74	227.27
925.04	227.28
925.34	227.28
925.64	227.22
925.94	227.23
926.24	227.28
926.55	227.29
926.85	227.30
927.15	227.31
927.45	227.37
927.75	227.36
928.05	227.33
928.35	227.31
928.65	227.33
928.95	227.35
929.26	227.32
929.56	227.34
929.86	227.37
930.16	227.38
930.46	227.35
930.76	227.34
931.06	227.32
931.36	227.33
931.66	227.38
931.96	227.39
932.26	227.36
932.56	227.30
932.86	227.31
933.16	227.34
933.46	227.32
933.76	227.26
934.06	227.28
934.36	227.33
934.66	227.33
934.96	227.32
935.26	227.31
935.56	227.30
935.86	227.26
936.16	227.24
936.46	227.22
936.76	227.21
937.06	227.21
937.36	227.20
937.66	227.19
937.96	227.16
938.26	227.17
938.56	227.18
938.86	227.19
939.16	227.19
939.46	227.17
939.76	227.20
940.06	227.19
940.35	227.17
940.65	227.14
940.95	227.11
941.25	227.06
941.55	227.03
941.85	227.01
942.15	227.03
942.45	227.04
942.75	227.03
943.04	227.06
943.34	227.11
943.64	227.08
943.94	227.05
944.24	227.01
944.54	227.01
944.84	227.02
945.13	227.00
945.43	226.99
945.73	227.01
946.03	226.97
946.33	226.97
946.62	226.98
946.92	226.97
947.22	226.98
947.52	227.00
947.82	227.00
948.11	227.02
948.41	227.00
948.71	226.94
949.01	226.97
949.31	226.97
949.60	226.93
949.90	226.95
950.20	226.94
950.50	226.93
950.79	226.92
951.09	226.92
951.39	226.91
951.69	226.89
951.98	226.90
952.28	226.90
952.58	226.90
952.87	226.85
953.17	226.85
953.47	226.85
953.76	226.84
954.06	226.83
954.36	226.81
954.66	226.79
954.95	226.84
955.25	226.82
955.55	226.80
955.84	226.79
956.14	226.79
956.44	226.78
956.73	226.77
957.03	226.78
957.32	226.78
957.62	226.80
957.92	226.83
958.21	226.82
958.51	226.92
958.81	226.95
959.10	226.99
959.40	227.03
959.69	227.05
959.99	227.06
960.29	227.04
960.58	227.04
960.88	227.09
961.17	227.05
961.47	227.06
961.76	227.03
962.06	227.04
962.36	227.03
962.65	227.08
962.95	227.12
963.24	227.10
963.54	227.08
963.83	227.08
964.13	227.09
964.42	227.08
964.72	227.01
965.01	227.02
965.31	227.02
965.60	227.00
965.90	227.01
966.19	227.05
966.49	227.09
966.78	227.09
967.08	227.08
967.37	227.10
967.67	227.10
967.96	227.13
968.26	227.15
968.55	227.18
968.85	227.15
969.14	227.14
969.43	227.15
969.73	227.16
970.02	227.18
970.32	227.16
970.61	227.12
970.91	227.09
971.20	227.06
971.49	227.05
971.79	227.04
972.08	227.00
972.38	226.95
972.67	226.93
972.96	226.93
973.26	226.92
973.55	226.99
973.85	226.97
974.14	226.97
974.43	226.96
974.73	226.94
975.02	226.93
975.31	226.93
975.61	226.94
975.90	226.89
976.19	226.88
976.49	226.87
976.78	226.90
977.07	226.92
977.37	226.91
977.66	226.91
977.95	226.90
978.24	226.90
978.54	226.92
978.83	226.90
979.12	226.91
979.42	226.91
979.71	226.85
980.00	226.87
980.29	226.87
980.59	226.83
980.88	226.86
981.17	226.86
981.46	226.89
981.76	226.89
982.05	226.93
982.34	226.93
982.63	226.94
982.93	226.93
983.22	226.92
983.51	226.94
983.80	226.93
984.09	226.93
984.39	226.91
984.68	226.91
984.97	226.93
985.26	226.91
985.55	226.92
985.85	226.90
986.14	226.93
986.43	226.92
986.72	226.91
987.01	226.89
987.30	226.88
987.59	226.83
987.89	226.82
988.18	226.82
988.47	226.82
988.76	226.78
989.05	226.76
989.34	226.76
989.63	226.81
989.92	226.80
990.22	226.82
990.51	226.84
990.80	226.83
991.09	226.83
991.38	226.83
991.67	226.81
991.96	226.81
992.25	226.81
992.54	226.82
992.83	226.86
993.12	226.84
993.41	226.83
993.70	226.84
993.99	226.84
994.28	226.83
994.58	226.83
994.87	226.84
995.16	226.87
995.45	226.82
995.74	226.76
996.03	226.75
996.32	226.76
996.61	226.79
996.90	226.79
997.19	226.80
997.48	226.82
997.77	226.83
998.06	226.85
998.34	226.83
998.63	226.82
998.92	226.83
999.21	226.85
999.50	226.90
999.79	226.92
1000.08	226.91
1000.37	226.90
1000.66	226.91
1000.95	226.93
1001.24	226.93
1001.53	226.97
1001.82	227.00
1002.11	227.01
1002.40	227.02
1002.68	227.06
1002.97	227.14
1003.26	227.11
1003.55	227.12
1003.84	227.11
1004.13	227.14
1004.42	227.15
1004.71	227.16
1004.99	227.14
1005.28	227.18
1005.57	227.18
1005.86	227.17
1006.15	227.21
1006.44	227.20
1006.72	227.23
1007.01	227.22
1007.30	227.21
1007.59	227.24
1007.88	227.21
1008.17	227.20
1008.45	227.22
1008.74	227.15
1009.03	227.07
1009.32	227.11
1009.60	227.10
1009.89	227.11
1010.18	227.08
1010.47	227.08
1010.76	227.06
1011.04	227.04
1011.33	227.02
1011.62	227.02
1011.91	227.03
1012.19	227.01
1012.48	227.00
1012.77	226.99
1013.05	227.04
1013.34	227.04
1013.63	227.02
1013.92	227.02
1014.20	227.02
1014.49	226.98
1014.78	226.99
1015.06	226.97
1015.35	226.93
1015.64	226.93
1015.92	226.94
1016.21	226.91
1016.50	226.89
1016.78	226.89
1017.07	226.90
1017.36	226.90
1017.64	226.88
1017.93	226.90
1018.22	226.87
1018.50	226.88
1018.79	226.87
1019.08	226.81
1019.36	226.82
1019.65	226.80
1019.93	226.81
1020.22	226.81
1020.51	226.88
1020.79	226.86
1021.08	226.46
1021.36	226.94
1021.65	226.83
1021.94	226.51
1022.22	227.08
1022.51	226.38
1022.79	227.00
1023.08	226.75
1023.36	228.20
1023.65	226.52
>>>>>End Processed Spectral Data<<<<<
