SpectraSuite Data File
++++++++++++++++++++++++++++++++++++
Date: Fri Feb 01 16:45:19 EST 2013
User: group
Dark Spectrum Present: No
Reference Spectrum Present: No
Number of Sampled Component Spectra: 1
Spectrometers: USB2E7196
Integration Time (usec): 35000 (USB2E7196)
Spectra Averaged: 100 (USB2E7196)
Boxcar Smoothing: 10 (USB2E7196)
Correct for Electrical Dark: No (USB2E7196)
Strobe/Lamp Enabled: No (USB2E7196)
Correct for Detector Non-linearity: No (USB2E7196)
Correct for Stray Light: No (USB2E7196)
Number of Pixels in Processed Spectrum: 2048
>>>>>Begin Processed Spectral Data<<<<<
339.09	0.00
339.48	213.17
339.86	214.90
340.24	215.98
340.63	217.41
341.01	220.49
341.39	220.17
341.78	221.44
342.16	222.81
342.54	223.34
342.93	211.67
343.31	222.39
343.69	222.93
344.07	223.40
344.46	223.82
344.84	224.20
345.22	224.44
345.60	224.68
345.99	224.88
346.37	225.00
346.75	225.13
347.13	225.21
347.52	225.28
347.90	225.34
348.28	225.38
348.66	225.41
349.05	225.41
349.43	225.46
349.81	225.52
350.19	225.57
350.57	225.64
350.96	225.73
351.34	225.80
351.72	225.88
352.10	225.95
352.48	226.05
352.87	226.12
353.25	226.18
353.63	226.25
354.01	226.33
354.39	226.42
354.77	226.44
355.15	226.57
355.54	226.62
355.92	226.66
356.30	226.72
356.68	226.87
357.06	226.93
357.44	226.97
357.82	227.03
358.20	227.09
358.58	227.13
358.97	227.19
359.35	227.26
359.73	227.36
360.11	227.41
360.49	227.46
360.87	227.48
361.25	227.52
361.63	227.61
362.01	227.64
362.39	227.64
362.77	227.72
363.15	227.71
363.53	227.76
363.91	227.78
364.29	227.81
364.67	227.76
365.05	227.77
365.43	227.81
365.81	227.85
366.19	227.89
366.57	227.95
366.95	227.96
367.33	227.93
367.71	227.91
368.09	227.95
368.47	227.93
368.85	227.94
369.23	227.95
369.61	227.85
369.99	227.89
370.37	227.87
370.75	227.86
371.13	227.81
371.51	227.74
371.89	227.71
372.27	227.67
372.65	227.61
373.03	227.57
373.41	227.54
373.78	227.41
374.16	227.30
374.54	227.21
374.92	227.12
375.30	227.03
375.68	227.00
376.06	226.91
376.44	226.82
376.82	226.75
377.19	226.69
377.57	226.62
377.95	226.51
378.33	226.44
378.71	226.34
379.09	226.30
379.47	226.25
379.84	226.18
380.22	226.10
380.60	226.03
380.98	225.98
381.36	225.87
381.73	225.83
382.11	225.79
382.49	225.71
382.87	225.66
383.25	225.63
383.62	225.65
384.00	225.58
384.38	225.55
384.76	225.53
385.13	225.53
385.51	225.51
385.89	225.46
386.27	225.44
386.64	225.41
387.02	225.34
387.40	225.31
387.78	225.29
388.15	225.30
388.53	225.24
388.91	225.19
389.29	225.17
389.66	225.18
390.04	225.15
390.42	225.17
390.79	225.16
391.17	225.13
391.55	225.03
391.92	225.01
392.30	225.02
392.68	224.99
393.05	224.98
393.43	224.97
393.81	224.99
394.18	224.97
394.56	224.97
394.94	225.04
395.31	225.08
395.69	225.14
396.06	225.17
396.44	225.21
396.82	225.24
397.19	225.32
397.57	225.34
397.95	225.39
398.32	225.43
398.70	225.48
399.07	225.56
399.45	225.60
399.82	225.67
400.20	225.71
400.58	225.78
400.95	225.82
401.33	225.93
401.70	226.06
402.08	226.14
402.45	226.20
402.83	226.30
403.20	226.37
403.58	226.44
403.95	226.51
404.33	226.63
404.71	226.78
405.08	226.96
405.46	227.09
405.83	227.24
406.21	227.34
406.58	227.51
406.96	227.67
407.33	227.87
407.70	228.06
408.08	228.30
408.45	228.51
408.83	228.69
409.20	228.89
409.58	229.03
409.95	229.30
410.33	229.59
410.70	229.83
411.08	230.12
411.45	230.42
411.82	230.77
412.20	231.11
412.57	231.51
412.95	231.82
413.32	232.21
413.69	232.61
414.07	233.07
414.44	233.57
414.82	234.01
415.19	234.51
415.56	235.02
415.94	235.54
416.31	236.17
416.68	236.82
417.06	237.52
417.43	238.20
417.81	238.94
418.18	239.67
418.55	240.46
418.93	241.30
419.30	242.19
419.67	243.09
420.04	244.01
420.42	244.98
420.79	246.14
421.16	247.29
421.54	248.48
421.91	249.64
422.28	250.83
422.66	252.13
423.03	253.43
423.40	254.73
423.77	256.10
424.15	257.51
424.52	258.95
424.89	260.53
425.26	262.06
425.64	263.49
426.01	265.08
426.38	266.69
426.75	268.37
427.13	270.08
427.50	271.89
427.87	273.77
428.24	275.59
428.61	277.27
428.99	279.15
429.36	281.23
429.73	283.33
430.10	285.31
430.47	287.39
430.85	289.46
431.22	291.73
431.59	294.10
431.96	296.33
432.33	298.85
432.70	301.19
433.08	304.00
433.45	306.64
433.82	309.23
434.19	312.17
434.56	314.96
434.93	317.56
435.30	320.16
435.68	322.98
436.05	325.80
436.42	328.64
436.79	331.16
437.16	333.84
437.53	336.64
437.90	339.45
438.27	342.16
438.64	345.03
439.01	347.55
439.38	349.78
439.75	351.96
440.13	354.36
440.50	356.69
440.87	358.53
441.24	360.43
441.61	362.56
441.98	364.03
442.35	365.83
442.72	367.76
443.09	369.54
443.46	370.57
443.83	371.20
444.20	371.69
444.57	372.54
444.94	372.78
445.31	373.12
445.68	373.54
446.05	373.61
446.42	373.22
446.79	372.85
447.16	372.49
447.53	372.20
447.90	371.07
448.27	369.90
448.64	368.33
449.01	367.24
449.37	365.33
449.74	363.48
450.11	361.28
450.48	358.79
450.85	356.27
451.22	354.18
451.59	352.14
451.96	350.22
452.33	347.62
452.70	345.34
453.07	342.54
453.43	339.63
453.80	336.89
454.17	334.24
454.54	331.69
454.91	328.94
455.28	326.25
455.65	323.81
456.02	321.43
456.38	319.34
456.75	316.71
457.12	314.49
457.49	312.26
457.86	310.10
458.23	308.26
458.59	306.24
458.96	304.15
459.33	302.31
459.70	300.46
460.07	298.99
460.43	297.27
460.80	295.62
461.17	294.18
461.54	292.74
461.91	291.34
462.27	289.92
462.64	288.65
463.01	287.29
463.38	286.00
463.74	284.65
464.11	283.47
464.48	282.44
464.85	281.32
465.21	280.48
465.58	279.55
465.95	278.48
466.32	277.58
466.68	276.69
467.05	275.80
467.42	274.91
467.78	273.99
468.15	273.14
468.52	272.52
468.88	271.68
469.25	270.91
469.62	270.29
469.98	269.65
470.35	269.11
470.72	268.57
471.08	267.94
471.45	267.41
471.82	266.88
472.18	266.29
472.55	265.88
472.92	265.38
473.28	264.96
473.65	264.55
474.02	264.14
474.38	263.80
474.75	263.52
475.11	263.23
475.48	262.96
475.85	262.75
476.21	262.54
476.58	262.39
476.94	262.25
477.31	262.11
477.67	262.02
478.04	261.92
478.41	261.86
478.77	261.95
479.14	261.92
479.50	261.96
479.87	262.10
480.23	262.22
480.60	262.27
480.96	262.37
481.33	262.60
481.69	262.81
482.06	263.00
482.42	263.23
482.79	263.50
483.15	263.85
483.52	264.22
483.88	264.57
484.25	264.97
484.61	265.42
484.98	265.89
485.34	266.45
485.71	267.03
486.07	267.65
486.44	268.22
486.80	268.92
487.17	269.65
487.53	270.40
487.90	271.20
488.26	272.17
488.62	273.20
488.99	274.15
489.35	275.19
489.72	276.30
490.08	277.47
490.44	278.71
490.81	280.06
491.17	281.40
491.54	282.92
491.90	284.42
492.26	286.04
492.63	287.76
492.99	289.50
493.36	291.37
493.72	293.41
494.08	295.48
494.45	297.68
494.81	300.02
495.17	302.46
495.54	305.02
495.90	307.68
496.26	310.42
496.63	313.40
496.99	316.53
497.35	319.81
497.72	323.24
498.08	326.76
498.44	330.35
498.80	334.27
499.17	338.27
499.53	342.42
499.89	346.81
500.26	351.32
500.62	356.00
500.98	360.96
501.34	366.02
501.71	371.33
502.07	376.79
502.43	382.38
502.79	388.19
503.16	394.26
503.52	400.50
503.88	406.91
504.24	413.50
504.60	420.33
504.97	427.41
505.33	434.74
505.69	442.37
506.05	450.18
506.41	458.07
506.78	466.20
507.14	474.65
507.50	483.29
507.86	492.26
508.22	501.44
508.59	510.64
508.95	520.17
509.31	529.99
509.67	540.06
510.03	550.30
510.39	560.83
510.75	571.51
511.12	582.47
511.48	593.70
511.84	605.11
512.20	616.57
512.56	628.45
512.92	640.51
513.28	652.87
513.64	665.28
514.00	677.90
514.37	690.74
514.73	703.77
515.09	716.71
515.45	729.92
515.81	743.38
516.17	757.24
516.53	771.38
516.89	785.42
517.25	799.49
517.61	813.84
517.97	828.20
518.33	842.58
518.69	857.15
519.05	871.97
519.41	887.03
519.77	902.49
520.13	917.88
520.49	933.14
520.85	948.42
521.21	964.08
521.57	980.22
521.93	995.85
522.29	1012.07
522.65	1028.27
523.01	1044.31
523.37	1060.21
523.73	1076.31
524.09	1092.13
524.45	1108.21
524.81	1124.80
525.17	1141.40
525.53	1158.18
525.89	1174.94
526.25	1191.75
526.61	1208.01
526.97	1224.68
527.33	1241.06
527.68	1257.51
528.04	1273.96
528.40	1290.32
528.76	1307.18
529.12	1323.54
529.48	1340.33
529.84	1356.11
530.20	1372.60
530.56	1389.49
530.91	1406.76
531.27	1423.28
531.63	1439.56
531.99	1456.04
532.35	1471.76
532.71	1487.55
533.07	1503.66
533.42	1519.49
533.78	1535.42
534.14	1551.63
534.50	1566.74
534.86	1582.36
535.21	1597.31
535.57	1612.91
535.93	1628.26
536.29	1643.00
536.65	1657.94
537.00	1672.47
537.36	1687.73
537.72	1702.03
538.08	1716.37
538.44	1730.01
538.79	1743.87
539.15	1757.43
539.51	1771.04
539.87	1785.05
540.22	1798.56
540.58	1812.07
540.94	1824.98
541.29	1837.55
541.65	1850.07
542.01	1863.14
542.37	1875.32
542.72	1887.51
543.08	1899.29
543.44	1911.56
543.79	1922.48
544.15	1933.42
544.51	1944.94
544.87	1955.72
545.22	1966.52
545.58	1976.54
545.94	1986.24
546.29	1995.89
546.65	2005.72
547.01	2014.88
547.36	2023.63
547.72	2032.12
548.07	2039.94
548.43	2048.15
548.79	2056.05
549.14	2063.53
549.50	2070.70
549.86	2078.25
550.21	2085.53
550.57	2092.54
550.92	2099.05
551.28	2106.05
551.64	2112.99
551.99	2119.46
552.35	2125.60
552.70	2131.59
553.06	2137.64
553.41	2143.98
553.77	2149.97
554.13	2155.91
554.48	2162.09
554.84	2167.67
555.19	2172.92
555.55	2178.08
555.90	2182.55
556.26	2187.50
556.61	2192.08
556.97	2196.38
557.32	2200.54
557.68	2204.71
558.03	2208.96
558.39	2212.70
558.74	2217.29
559.10	2221.08
559.45	2224.62
559.81	2228.74
560.16	2232.70
560.52	2235.88
560.87	2239.10
561.23	2241.80
561.58	2244.71
561.94	2247.08
562.29	2249.27
562.64	2251.92
563.00	2254.44
563.35	2257.93
563.71	2261.07
564.06	2264.30
564.42	2267.31
564.77	2269.85
565.12	2272.22
565.48	2274.24
565.83	2276.15
566.19	2277.59
566.54	2278.39
566.89	2279.61
567.25	2280.39
567.60	2281.58
567.96	2283.29
568.31	2284.28
568.66	2285.38
569.02	2286.03
569.37	2286.56
569.72	2287.58
570.08	2287.81
570.43	2287.97
570.78	2287.57
571.14	2286.16
571.49	2284.96
571.84	2284.71
572.20	2283.82
572.55	2282.91
572.90	2281.29
573.26	2280.07
573.61	2278.46
573.96	2277.05
574.31	2274.23
574.67	2271.34
575.02	2267.78
575.37	2264.42
575.72	2260.78
576.08	2257.48
576.43	2254.27
576.78	2250.57
577.13	2247.52
577.49	2244.60
577.84	2241.29
578.19	2237.51
578.54	2233.92
578.90	2229.94
579.25	2224.39
579.60	2219.35
579.95	2214.45
580.30	2209.62
580.66	2204.55
581.01	2199.56
581.36	2194.60
581.71	2190.59
582.06	2186.19
582.42	2181.98
582.77	2177.01
583.12	2172.49
583.47	2168.09
583.82	2163.31
584.17	2158.32
584.53	2152.90
584.88	2147.17
585.23	2141.57
585.58	2136.25
585.93	2130.89
586.28	2126.04
586.63	2121.11
586.98	2116.23
587.34	2111.56
587.69	2106.72
588.04	2101.47
588.39	2096.02
588.74	2089.79
589.09	2083.70
589.44	2077.11
589.79	2070.96
590.14	2065.43
590.49	2059.04
590.84	2052.56
591.19	2046.59
591.54	2040.06
591.89	2032.89
592.25	2026.37
592.60	2019.11
592.95	2011.67
593.30	2004.36
593.65	1996.82
594.00	1989.86
594.35	1982.55
594.70	1974.56
595.05	1967.61
595.40	1960.37
595.75	1952.90
596.10	1946.84
596.45	1940.17
596.80	1934.15
597.15	1927.81
597.50	1920.70
597.85	1914.31
598.19	1907.75
598.54	1900.78
598.89	1894.32
599.24	1888.44
599.59	1881.79
599.94	1875.66
600.29	1869.36
600.64	1862.83
600.99	1855.58
601.34	1848.89
601.69	1842.16
602.04	1835.36
602.39	1828.00
602.74	1821.24
603.08	1814.50
603.43	1807.69
603.78	1800.45
604.13	1793.12
604.48	1785.77
604.83	1779.02
605.18	1772.08
605.53	1764.22
605.87	1756.20
606.22	1748.97
606.57	1740.95
606.92	1733.64
607.27	1726.51
607.62	1719.60
607.96	1712.54
608.31	1706.10
608.66	1698.53
609.01	1691.06
609.36	1683.53
609.70	1675.54
610.05	1667.52
610.40	1660.06
610.75	1651.71
611.10	1644.09
611.44	1635.78
611.79	1627.83
612.14	1619.15
612.49	1610.03
612.83	1601.68
613.18	1593.53
613.53	1585.47
613.88	1577.09
614.22	1568.92
614.57	1560.34
614.92	1552.47
615.27	1544.89
615.61	1536.42
615.96	1528.31
616.31	1520.64
616.65	1513.34
617.00	1505.85
617.35	1498.22
617.70	1489.85
618.04	1481.54
618.39	1473.45
618.74	1465.98
619.08	1457.81
619.43	1450.24
619.78	1443.38
620.12	1436.30
620.47	1428.94
620.82	1420.76
621.16	1413.30
621.51	1405.72
621.85	1398.13
622.20	1389.65
622.55	1381.27
622.89	1373.56
623.24	1365.88
623.59	1358.44
623.93	1351.00
624.28	1343.85
624.62	1336.41
624.97	1329.17
625.32	1322.42
625.66	1315.29
626.01	1308.10
626.35	1300.72
626.70	1292.99
627.04	1285.40
627.39	1277.63
627.73	1270.21
628.08	1263.38
628.43	1256.18
628.77	1248.82
629.12	1241.37
629.46	1234.27
629.81	1226.96
630.15	1219.63
630.50	1212.40
630.84	1204.31
631.19	1196.27
631.53	1188.69
631.88	1181.17
632.22	1173.75
632.57	1166.44
632.91	1158.93
633.26	1151.48
633.60	1144.07
633.95	1136.99
634.29	1129.82
634.64	1123.18
634.98	1115.81
635.32	1108.58
635.67	1101.90
636.01	1095.29
636.36	1088.50
636.70	1081.86
637.05	1075.20
637.39	1068.78
637.73	1062.32
638.08	1056.43
638.42	1050.42
638.77	1044.02
639.11	1037.47
639.45	1031.03
639.80	1024.35
640.14	1018.03
640.49	1011.51
640.83	1005.23
641.17	998.99
641.52	992.56
641.86	986.01
642.20	980.14
642.55	973.88
642.89	967.47
643.23	960.85
643.58	955.11
643.92	949.02
644.26	943.03
644.61	937.01
644.95	930.98
645.29	924.45
645.64	917.73
645.98	911.40
646.32	905.46
646.66	899.40
647.01	893.63
647.35	887.88
647.69	882.09
648.04	876.48
648.38	870.74
648.72	864.84
649.06	858.82
649.41	852.96
649.75	847.06
650.09	841.13
650.43	835.36
650.78	829.11
651.12	823.09
651.46	817.31
651.80	811.57
652.14	806.16
652.49	800.76
652.83	795.68
653.17	790.03
653.51	784.36
653.85	778.94
654.20	773.30
654.54	767.27
654.88	761.47
655.22	755.62
655.56	749.92
655.90	744.44
656.25	739.26
656.59	733.90
656.93	728.75
657.27	723.61
657.61	718.21
657.95	713.19
658.29	708.17
658.64	702.98
658.98	697.69
659.32	692.25
659.66	687.08
660.00	681.77
660.34	676.88
660.68	671.96
661.02	666.95
661.36	662.26
661.70	657.83
662.05	653.52
662.39	649.19
662.73	644.75
663.07	640.40
663.41	635.93
663.75	631.42
664.09	626.86
664.43	622.45
664.77	618.34
665.11	614.05
665.45	609.86
665.79	605.69
666.13	601.55
666.47	597.43
666.81	593.24
667.15	589.11
667.49	585.20
667.83	581.36
668.17	577.47
668.51	573.38
668.85	569.35
669.19	565.48
669.53	561.67
669.87	557.76
670.21	554.06
670.55	550.44
670.89	547.02
671.23	543.63
671.57	540.12
671.91	536.58
672.25	533.10
672.58	529.60
672.92	526.26
673.26	523.05
673.60	519.88
673.94	516.76
674.28	513.84
674.62	510.87
674.96	507.78
675.30	504.84
675.64	501.93
675.97	499.12
676.31	496.26
676.65	493.28
676.99	490.63
677.33	487.74
677.67	484.85
678.01	481.85
678.34	478.90
678.68	476.02
679.02	473.23
679.36	470.47
679.70	467.71
680.04	464.95
680.37	462.15
680.71	459.37
681.05	456.77
681.39	454.07
681.73	451.38
682.06	448.89
682.40	446.34
682.74	443.80
683.08	441.25
683.42	438.61
683.75	436.13
684.09	433.56
684.43	431.07
684.77	428.65
685.10	426.26
685.44	423.92
685.78	421.61
686.12	419.28
686.45	416.92
686.79	414.64
687.13	412.43
687.46	410.23
687.80	408.10
688.14	405.88
688.48	403.79
688.81	401.54
689.15	399.37
689.49	397.21
689.82	395.09
690.16	393.00
690.50	391.04
690.83	389.11
691.17	387.11
691.51	385.23
691.84	383.36
692.18	381.41
692.52	379.45
692.85	377.50
693.19	375.66
693.52	373.81
693.86	372.00
694.20	370.22
694.53	368.41
694.87	366.53
695.21	364.73
695.54	362.86
695.88	361.15
696.21	359.40
696.55	357.75
696.88	356.08
697.22	354.43
697.56	352.85
697.89	351.22
698.23	349.56
698.56	347.96
698.90	346.40
699.23	344.81
699.57	343.24
699.90	341.74
700.24	340.23
700.58	338.75
700.91	337.23
701.25	335.77
701.58	334.42
701.92	333.04
702.25	331.69
702.59	330.37
702.92	329.06
703.26	327.76
703.59	326.45
703.93	325.27
704.26	323.99
704.60	322.68
704.93	321.39
705.26	320.18
705.60	318.99
705.93	317.82
706.27	316.78
706.60	315.76
706.94	314.67
707.27	313.52
707.61	312.49
707.94	311.49
708.27	310.39
708.61	309.30
708.94	308.35
709.28	307.37
709.61	306.45
709.94	305.52
710.28	304.53
710.61	303.56
710.95	302.47
711.28	301.61
711.61	300.68
711.95	299.80
712.28	298.86
712.61	297.94
712.95	297.04
713.28	296.13
713.61	295.24
713.95	294.39
714.28	293.59
714.61	292.71
714.95	291.86
715.28	291.06
715.61	290.17
715.95	289.33
716.28	288.46
716.61	287.64
716.95	286.82
717.28	286.09
717.61	285.37
717.94	284.64
718.28	283.82
718.61	283.11
718.94	282.45
719.27	281.82
719.61	281.15
719.94	280.48
720.27	279.80
720.60	279.12
720.94	278.46
721.27	277.81
721.60	277.27
721.93	276.69
722.27	276.12
722.60	275.60
722.93	275.02
723.26	274.48
723.59	273.90
723.93	273.32
724.26	272.79
724.59	272.22
724.92	271.70
725.25	271.20
725.59	270.65
725.92	270.10
726.25	269.55
726.58	269.06
726.91	268.56
727.24	268.05
727.57	267.59
727.91	267.06
728.24	266.63
728.57	266.10
728.90	265.63
729.23	265.13
729.56	264.68
729.89	264.19
730.22	263.70
730.55	263.22
730.89	262.76
731.22	262.27
731.55	261.80
731.88	261.35
732.21	260.92
732.54	260.48
732.87	260.03
733.20	259.64
733.53	259.21
733.86	258.81
734.19	258.45
734.52	258.03
734.85	257.72
735.18	257.29
735.51	256.91
735.84	256.52
736.17	256.15
736.50	255.72
736.83	255.47
737.16	255.12
737.49	254.78
737.82	254.41
738.15	254.10
738.48	253.74
738.81	253.43
739.14	253.09
739.47	252.80
739.80	252.49
740.13	252.17
740.46	251.85
740.79	251.52
741.12	251.18
741.45	250.88
741.78	250.52
742.11	250.23
742.44	249.90
742.77	249.63
743.10	249.35
743.43	249.06
743.75	248.68
744.08	248.53
744.41	248.25
744.74	248.01
745.07	247.73
745.40	247.51
745.73	247.24
746.06	246.96
746.39	246.68
746.71	246.41
747.04	246.12
747.37	245.86
747.70	245.59
748.03	245.34
748.36	245.12
748.68	244.90
749.01	244.64
749.34	244.41
749.67	244.16
750.00	243.96
750.33	243.78
750.65	243.57
750.98	243.24
751.31	242.99
751.64	242.74
751.97	242.56
752.29	242.33
752.62	242.10
752.95	241.88
753.28	241.66
753.60	241.47
753.93	241.32
754.26	241.12
754.59	240.91
754.91	240.72
755.24	240.53
755.57	240.37
755.90	240.22
756.22	240.02
756.55	239.83
756.88	239.63
757.20	239.44
757.53	239.24
757.86	239.03
758.19	238.91
758.51	238.78
758.84	238.60
759.17	238.48
759.49	238.36
759.82	238.27
760.15	238.13
760.47	237.99
760.80	237.81
761.13	237.73
761.45	237.59
761.78	237.46
762.11	237.31
762.43	237.12
762.76	236.96
763.08	236.86
763.41	236.76
763.74	236.63
764.06	236.49
764.39	236.36
764.71	236.27
765.04	236.15
765.37	235.97
765.69	235.82
766.02	235.65
766.34	235.51
766.67	235.34
767.00	235.23
767.32	235.14
767.65	235.09
767.97	234.93
768.30	234.83
768.62	234.72
768.95	234.58
769.27	234.47
769.60	234.37
769.92	234.22
770.25	234.09
770.57	233.96
770.90	233.86
771.22	233.73
771.55	233.61
771.87	233.49
772.20	233.43
772.52	233.41
772.85	233.45
773.17	233.35
773.50	233.24
773.82	233.12
774.15	233.01
774.47	232.86
774.80	232.74
775.12	232.64
775.45	232.51
775.77	232.45
776.09	232.39
776.42	232.29
776.74	232.24
777.07	232.13
777.39	232.09
777.72	231.98
778.04	231.91
778.36	231.82
778.69	231.73
779.01	231.63
779.33	231.48
779.66	231.28
779.98	231.20
780.31	231.15
780.63	231.14
780.95	231.07
781.28	230.99
781.60	230.94
781.92	230.88
782.25	230.81
782.57	230.72
782.89	230.67
783.22	230.59
783.54	230.52
783.86	230.48
784.19	230.42
784.51	230.39
784.83	230.37
785.16	230.34
785.48	230.33
785.80	230.33
786.12	230.30
786.45	230.27
786.77	230.25
787.09	230.23
787.42	230.18
787.74	230.14
788.06	230.10
788.38	230.08
788.71	230.03
789.03	230.02
789.35	230.02
789.67	229.98
789.99	229.97
790.32	229.94
790.64	229.90
790.96	229.90
791.28	229.85
791.61	229.80
791.93	229.76
792.25	229.68
792.57	229.69
792.89	229.62
793.21	229.57
793.54	229.54
793.86	229.47
794.18	229.45
794.50	229.42
794.82	229.41
795.14	229.37
795.47	229.32
795.79	229.28
796.11	229.26
796.43	229.22
796.75	229.16
797.07	229.11
797.39	229.10
797.71	229.03
798.04	229.04
798.36	229.00
798.68	228.97
799.00	228.98
799.32	228.92
799.64	228.93
799.96	228.89
800.28	228.84
800.60	228.81
800.92	228.78
801.24	228.74
801.56	228.72
801.89	228.69
802.21	228.71
802.53	228.66
802.85	228.61
803.17	228.62
803.49	228.58
803.81	228.55
804.13	228.48
804.45	228.44
804.77	228.40
805.09	228.41
805.41	228.37
805.73	228.31
806.05	228.24
806.37	228.19
806.69	228.18
807.01	228.18
807.33	228.15
807.65	228.10
807.97	228.10
808.28	228.05
808.60	227.99
808.92	227.92
809.24	227.95
809.56	227.92
809.88	227.89
810.20	227.88
810.52	227.88
810.84	227.84
811.16	227.79
811.48	227.73
811.80	227.73
812.12	227.69
812.43	227.67
812.75	227.65
813.07	227.60
813.39	227.55
813.71	227.49
814.03	227.47
814.35	227.44
814.67	227.36
814.98	227.32
815.30	227.31
815.62	227.28
815.94	227.21
816.26	227.22
816.58	227.13
816.89	227.12
817.21	227.10
817.53	227.08
817.85	227.05
818.17	227.05
818.48	226.98
818.80	226.95
819.12	226.89
819.44	226.90
819.76	226.91
820.07	226.90
820.39	226.88
820.71	226.86
821.03	226.82
821.34	226.81
821.66	226.80
821.98	226.77
822.30	226.74
822.61	226.78
822.93	226.73
823.25	226.74
823.57	226.71
823.88	226.71
824.20	226.73
824.52	226.71
824.83	226.68
825.15	226.68
825.47	226.67
825.79	226.67
826.10	226.64
826.42	226.57
826.74	226.54
827.05	226.56
827.37	226.53
827.69	226.50
828.00	226.49
828.32	226.48
828.64	226.48
828.95	226.53
829.27	226.49
829.58	226.45
829.90	226.45
830.22	226.46
830.53	226.40
830.85	226.38
831.17	226.39
831.48	226.37
831.80	226.35
832.11	226.33
832.43	226.34
832.75	226.35
833.06	226.45
833.38	226.43
833.69	226.40
834.01	226.41
834.32	226.41
834.64	226.38
834.96	226.39
835.27	226.38
835.59	226.35
835.90	226.32
836.22	226.30
836.53	226.29
836.85	226.28
837.16	226.38
837.48	226.39
837.79	226.41
838.11	226.43
838.42	226.41
838.74	226.46
839.05	226.44
839.37	226.39
839.68	226.33
840.00	226.33
840.31	226.34
840.63	226.30
840.94	226.30
841.26	226.29
841.57	226.28
841.88	226.29
842.20	226.29
842.51	226.26
842.83	226.27
843.14	226.35
843.46	226.33
843.77	226.29
844.08	226.26
844.40	226.22
844.71	226.19
845.03	226.17
845.34	226.18
845.65	226.19
845.97	226.20
846.28	226.17
846.60	226.16
846.91	226.17
847.22	226.19
847.54	226.21
847.85	226.23
848.16	226.21
848.48	226.19
848.79	226.22
849.10	226.23
849.42	226.24
849.73	226.12
850.04	226.16
850.36	226.11
850.67	226.14
850.98	226.15
851.30	226.15
851.61	226.14
851.92	226.11
852.23	226.09
852.55	226.12
852.86	226.11
853.17	226.14
853.49	226.13
853.80	226.14
854.11	226.12
854.42	226.13
854.74	226.12
855.05	226.09
855.36	226.02
855.67	226.05
855.99	226.05
856.30	226.19
856.61	226.14
856.92	226.13
857.23	226.11
857.55	226.10
857.86	226.09
858.17	226.10
858.48	226.08
858.79	226.05
859.11	226.03
859.42	226.03
859.73	225.98
860.04	225.97
860.35	225.92
860.66	225.90
860.98	225.88
861.29	225.88
861.60	225.90
861.91	225.95
862.22	225.87
862.53	225.87
862.84	225.73
863.16	225.76
863.47	225.75
863.78	225.73
864.09	225.75
864.40	225.76
864.71	225.76
865.02	225.80
865.33	225.80
865.64	225.78
865.95	225.78
866.27	225.86
866.58	225.86
866.89	225.88
867.20	225.86
867.51	225.86
867.82	225.86
868.13	225.91
868.44	225.86
868.75	225.90
869.06	225.89
869.37	225.92
869.68	225.89
869.99	225.91
870.30	225.92
870.61	225.91
870.92	225.90
871.23	225.94
871.54	225.93
871.85	225.96
872.16	225.98
872.47	225.99
872.78	225.93
873.09	225.92
873.40	225.92
873.71	225.95
874.02	225.95
874.33	225.94
874.64	225.90
874.95	225.94
875.26	225.94
875.56	225.93
875.87	225.91
876.18	225.92
876.49	226.03
876.80	226.01
877.11	225.99
877.42	225.99
877.73	225.98
878.04	225.93
878.35	225.91
878.66	225.88
878.96	225.89
879.27	225.90
879.58	225.92
879.89	225.92
880.20	225.95
880.51	225.95
880.82	225.94
881.12	225.97
881.43	225.92
881.74	225.91
882.05	225.90
882.36	225.89
882.67	225.88
882.97	225.71
883.28	225.70
883.59	225.72
883.90	225.74
884.21	225.74
884.51	225.77
884.82	225.76
885.13	225.79
885.44	225.77
885.74	225.75
886.05	225.71
886.36	225.70
886.67	225.65
886.98	225.71
887.28	225.71
887.59	225.66
887.90	225.65
888.20	225.64
888.51	225.67
888.82	225.66
889.13	225.65
889.43	225.78
889.74	225.77
890.05	225.71
890.35	225.67
890.66	225.67
890.97	225.64
891.28	225.62
891.58	225.61
891.89	225.58
892.20	225.57
892.50	225.55
892.81	225.56
893.12	225.58
893.42	225.51
893.73	225.50
894.04	225.51
894.34	225.51
894.65	225.50
894.95	225.47
895.26	225.48
895.57	225.51
895.87	225.39
896.18	225.40
896.48	225.44
896.79	225.45
897.10	225.45
897.40	225.43
897.71	225.44
898.01	225.41
898.32	225.41
898.63	225.41
898.93	225.42
899.24	225.43
899.54	225.40
899.85	225.40
900.15	225.39
900.46	225.38
900.76	225.38
901.07	225.36
901.38	225.37
901.68	225.34
901.99	225.35
902.29	225.34
902.60	225.35
902.90	225.34
903.21	225.33
903.51	225.34
903.82	225.39
904.12	225.40
904.43	225.42
904.73	225.45
905.03	225.48
905.34	225.60
905.64	225.56
905.95	225.57
906.25	225.59
906.56	225.62
906.86	225.66
907.17	225.67
907.47	225.70
907.77	225.70
908.08	225.74
908.38	225.69
908.69	225.73
908.99	225.77
909.30	225.79
909.60	225.81
909.90	225.79
910.21	225.76
910.51	225.75
910.81	225.74
911.12	225.77
911.42	225.73
911.73	225.61
912.03	225.67
912.33	225.66
912.64	225.63
912.94	225.63
913.24	225.59
913.55	225.59
913.85	225.61
914.15	225.63
914.46	225.62
914.76	225.63
915.06	225.64
915.37	225.59
915.67	225.59
915.97	225.60
916.27	225.61
916.58	225.65
916.88	225.64
917.18	225.65
917.49	225.66
917.79	225.68
918.09	225.68
918.39	225.71
918.70	225.74
919.00	225.76
919.30	225.76
919.60	225.75
919.91	225.73
920.21	225.71
920.51	225.67
920.81	225.66
921.12	225.70
921.42	225.67
921.72	225.70
922.02	225.68
922.32	225.69
922.63	225.67
922.93	225.69
923.23	225.70
923.53	225.68
923.83	225.66
924.13	225.65
924.44	225.68
924.74	225.64
925.04	225.63
925.34	225.62
925.64	225.60
925.94	225.63
926.24	225.67
926.55	225.66
926.85	225.69
927.15	225.70
927.45	225.69
927.75	225.67
928.05	225.66
928.35	225.66
928.65	225.68
928.95	225.71
929.26	225.64
929.56	225.65
929.86	225.69
930.16	225.69
930.46	225.68
930.76	225.66
931.06	225.65
931.36	225.65
931.66	225.67
931.96	225.69
932.26	225.65
932.56	225.61
932.86	225.62
933.16	225.61
933.46	225.56
933.76	225.53
934.06	225.55
934.36	225.58
934.66	225.59
934.96	225.53
935.26	225.49
935.56	225.51
935.86	225.47
936.16	225.42
936.46	225.35
936.76	225.34
937.06	225.33
937.36	225.35
937.66	225.32
937.96	225.27
938.26	225.25
938.56	225.26
938.86	225.26
939.16	225.29
939.46	225.33
939.76	225.39
940.06	225.40
940.35	225.39
940.65	225.31
940.95	225.29
941.25	225.26
941.55	225.28
941.85	225.25
942.15	225.27
942.45	225.33
942.75	225.32
943.04	225.30
943.34	225.31
943.64	225.29
943.94	225.31
944.24	225.34
944.54	225.34
944.84	225.35
945.13	225.36
945.43	225.31
945.73	225.27
946.03	225.25
946.33	225.24
946.62	225.24
946.92	225.26
947.22	225.26
947.52	225.31
947.82	225.30
948.11	225.28
948.41	225.30
948.71	225.23
949.01	225.28
949.31	225.28
949.60	225.25
949.90	225.25
950.20	225.24
950.50	225.24
950.79	225.24
951.09	225.26
951.39	225.26
951.69	225.24
951.98	225.28
952.28	225.29
952.58	225.28
952.87	225.28
953.17	225.31
953.47	225.31
953.76	225.28
954.06	225.26
954.36	225.30
954.66	225.32
954.95	225.36
955.25	225.37
955.55	225.40
955.84	225.41
956.14	225.43
956.44	225.42
956.73	225.41
957.03	225.41
957.32	225.42
957.62	225.41
957.92	225.47
958.21	225.49
958.51	225.56
958.81	225.60
959.10	225.59
959.40	225.60
959.69	225.61
959.99	225.65
960.29	225.66
960.58	225.62
960.88	225.63
961.17	225.62
961.47	225.65
961.76	225.63
962.06	225.67
962.36	225.63
962.65	225.66
962.95	225.68
963.24	225.67
963.54	225.67
963.83	225.70
964.13	225.68
964.42	225.66
964.72	225.57
965.01	225.53
965.31	225.50
965.60	225.49
965.90	225.59
966.19	225.57
966.49	225.57
966.78	225.58
967.08	225.58
967.37	225.57
967.67	225.55
967.96	225.56
968.26	225.55
968.55	225.59
968.85	225.57
969.14	225.58
969.43	225.58
969.73	225.56
970.02	225.51
970.32	225.47
970.61	225.45
970.91	225.43
971.20	225.45
971.49	225.45
971.79	225.46
972.08	225.35
972.38	225.35
972.67	225.36
972.96	225.38
973.26	225.35
973.55	225.38
973.85	225.35
974.14	225.34
974.43	225.33
974.73	225.32
975.02	225.28
975.31	225.24
975.61	225.22
975.90	225.23
976.19	225.23
976.49	225.24
976.78	225.21
977.07	225.22
977.37	225.21
977.66	225.19
977.95	225.16
978.24	225.17
978.54	225.20
978.83	225.17
979.12	225.14
979.42	225.13
979.71	225.11
980.00	225.10
980.29	225.09
980.59	225.06
980.88	225.11
981.17	225.15
981.46	225.19
981.76	225.19
982.05	225.18
982.34	225.19
982.63	225.22
982.93	225.23
983.22	225.23
983.51	225.25
983.80	225.27
984.09	225.27
984.39	225.25
984.68	225.22
984.97	225.24
985.26	225.23
985.55	225.24
985.85	225.23
986.14	225.23
986.43	225.25
986.72	225.24
987.01	225.18
987.30	225.14
987.59	225.11
987.89	225.09
988.18	225.06
988.47	225.08
988.76	225.07
989.05	225.09
989.34	225.12
989.63	225.10
989.92	225.12
990.22	225.12
990.51	225.11
990.80	225.14
991.09	225.13
991.38	225.16
991.67	225.13
991.96	225.12
992.25	225.14
992.54	225.15
992.83	225.16
993.12	225.16
993.41	225.22
993.70	225.27
993.99	225.32
994.28	225.36
994.58	225.34
994.87	225.31
995.16	225.30
995.45	225.26
995.74	225.23
996.03	225.22
996.32	225.27
996.61	225.31
996.90	225.28
997.19	225.30
997.48	225.31
997.77	225.33
998.06	225.36
998.34	225.37
998.63	225.36
998.92	225.40
999.21	225.43
999.50	225.45
999.79	225.41
1000.08	225.40
1000.37	225.40
1000.66	225.39
1000.95	225.47
1001.24	225.49
1001.53	225.52
1001.82	225.56
1002.11	225.55
1002.40	225.55
1002.68	225.60
1002.97	225.67
1003.26	225.66
1003.55	225.67
1003.84	225.69
1004.13	225.74
1004.42	225.74
1004.71	225.75
1004.99	225.73
1005.28	225.73
1005.57	225.69
1005.86	225.69
1006.15	225.68
1006.44	225.68
1006.72	225.73
1007.01	225.70
1007.30	225.70
1007.59	225.70
1007.88	225.69
1008.17	225.71
1008.45	225.70
1008.74	225.66
1009.03	225.61
1009.32	225.59
1009.60	225.57
1009.89	225.54
1010.18	225.49
1010.47	225.48
1010.76	225.45
1011.04	225.45
1011.33	225.49
1011.62	225.51
1011.91	225.53
1012.19	225.56
1012.48	225.54
1012.77	225.54
1013.05	225.55
1013.34	225.51
1013.63	225.49
1013.92	225.52
1014.20	225.49
1014.49	225.46
1014.78	225.43
1015.06	225.40
1015.35	225.43
1015.64	225.43
1015.92	225.43
1016.21	225.37
1016.50	225.36
1016.78	225.39
1017.07	225.36
1017.36	225.30
1017.64	225.30
1017.93	225.27
1018.22	225.21
1018.50	225.22
1018.79	225.21
1019.08	225.13
1019.36	225.15
1019.65	225.13
1019.93	225.11
1020.22	225.10
1020.51	225.16
1020.79	225.13
1021.08	224.58
1021.36	225.32
1021.65	225.38
1021.94	224.58
1022.22	224.95
1022.51	225.12
1022.79	225.29
1023.08	225.25
1023.36	226.09
1023.65	224.40
>>>>>End Processed Spectral Data<<<<<
