SpectraSuite Data File
++++++++++++++++++++++++++++++++++++
Date: Fri Feb 01 15:35:45 EST 2013
User: group
Dark Spectrum Present: No
Reference Spectrum Present: No
Number of Sampled Component Spectra: 1
Spectrometers: USB2E7196
Integration Time (usec): 35000 (USB2E7196)
Spectra Averaged: 100 (USB2E7196)
Boxcar Smoothing: 10 (USB2E7196)
Correct for Electrical Dark: No (USB2E7196)
Strobe/Lamp Enabled: No (USB2E7196)
Correct for Detector Non-linearity: No (USB2E7196)
Correct for Stray Light: No (USB2E7196)
Number of Pixels in Processed Spectrum: 2048
>>>>>Begin Processed Spectral Data<<<<<
339.09	0.00
339.48	215.30
339.86	216.84
340.24	218.10
340.63	219.17
341.01	222.26
341.39	221.86
341.78	223.49
342.16	224.60
342.54	225.41
342.93	213.44
343.31	224.23
343.69	224.75
344.07	225.19
344.46	225.62
344.84	226.01
345.22	226.27
345.60	226.51
345.99	226.68
346.37	226.80
346.75	226.89
347.13	226.95
347.52	226.99
347.90	227.10
348.28	227.12
348.66	227.18
349.05	227.17
349.43	227.21
349.81	227.22
350.19	227.28
350.57	227.29
350.96	227.36
351.34	227.43
351.72	227.53
352.10	227.62
352.48	227.68
352.87	227.72
353.25	227.75
353.63	227.82
354.01	227.88
354.39	227.94
354.77	227.99
355.15	228.11
355.54	228.17
355.92	228.19
356.30	228.27
356.68	228.39
357.06	228.42
357.44	228.50
357.82	228.58
358.20	228.63
358.58	228.67
358.97	228.70
359.35	228.75
359.73	228.80
360.11	228.83
360.49	228.87
360.87	228.92
361.25	228.95
361.63	229.01
362.01	229.09
362.39	229.14
362.77	229.16
363.15	229.15
363.53	229.14
363.91	229.16
364.29	229.17
364.67	229.08
365.05	229.16
365.43	229.15
365.81	229.18
366.19	229.21
366.57	229.28
366.95	229.27
367.33	229.23
367.71	229.22
368.09	229.25
368.47	229.24
368.85	229.21
369.23	229.20
369.61	229.13
369.99	229.09
370.37	229.06
370.75	229.06
371.13	229.00
371.51	228.95
371.89	228.90
372.27	228.84
372.65	228.82
373.03	228.74
373.41	228.66
373.78	228.57
374.16	228.52
374.54	228.42
374.92	228.35
375.30	228.30
375.68	228.20
376.06	228.12
376.44	228.03
376.82	227.96
377.19	227.91
377.57	227.83
377.95	227.73
378.33	227.66
378.71	227.55
379.09	227.50
379.47	227.48
379.84	227.40
380.22	227.36
380.60	227.26
380.98	227.17
381.36	227.13
381.73	227.07
382.11	227.01
382.49	226.97
382.87	226.89
383.25	226.86
383.62	226.92
384.00	226.87
384.38	226.82
384.76	226.79
385.13	226.77
385.51	226.74
385.89	226.69
386.27	226.62
386.64	226.61
387.02	226.56
387.40	226.50
387.78	226.46
388.15	226.42
388.53	226.40
388.91	226.38
389.29	226.32
389.66	226.32
390.04	226.30
390.42	226.30
390.79	226.33
391.17	226.28
391.55	226.15
391.92	226.14
392.30	226.18
392.68	226.17
393.05	226.13
393.43	226.13
393.81	226.17
394.18	226.20
394.56	226.21
394.94	226.27
395.31	226.29
395.69	226.38
396.06	226.41
396.44	226.43
396.82	226.46
397.19	226.55
397.57	226.55
397.95	226.55
398.32	226.55
398.70	226.57
399.07	226.70
399.45	226.75
399.82	226.78
400.20	226.82
400.58	226.94
400.95	227.01
401.33	227.14
401.70	227.27
402.08	227.40
402.45	227.49
402.83	227.57
403.20	227.66
403.58	227.78
403.95	227.91
404.33	228.08
404.71	228.17
405.08	228.37
405.46	228.51
405.83	228.69
406.21	228.88
406.58	229.05
406.96	229.16
407.33	229.34
407.70	229.54
408.08	229.80
408.45	229.97
408.83	230.19
409.20	230.36
409.58	230.57
409.95	230.77
410.33	231.03
410.70	231.32
411.08	231.65
411.45	231.93
411.82	232.25
412.20	232.56
412.57	233.02
412.95	233.30
413.32	233.71
413.69	234.13
414.07	234.54
414.44	235.02
414.82	235.54
415.19	236.12
415.56	236.69
415.94	237.26
416.31	237.94
416.68	238.58
417.06	239.30
417.43	239.98
417.81	240.73
418.18	241.55
418.55	242.36
418.93	243.23
419.30	244.11
419.67	245.03
420.04	246.04
420.42	247.00
420.79	248.19
421.16	249.33
421.54	250.54
421.91	251.77
422.28	253.03
422.66	254.32
423.03	255.63
423.40	256.95
423.77	258.36
424.15	259.74
424.52	261.24
424.89	262.86
425.26	264.41
425.64	265.89
426.01	267.49
426.38	269.19
426.75	270.88
427.13	272.64
427.50	274.47
427.87	276.34
428.24	278.22
428.61	279.96
428.99	281.93
429.36	284.04
429.73	286.11
430.10	288.15
430.47	290.26
430.85	292.39
431.22	294.65
431.59	297.01
431.96	299.26
432.33	301.74
432.70	304.13
433.08	306.93
433.45	309.59
433.82	312.18
434.19	315.04
434.56	317.84
434.93	320.47
435.30	323.09
435.68	325.97
436.05	328.78
436.42	331.60
436.79	334.10
437.16	336.81
437.53	339.64
437.90	342.41
438.27	345.15
438.64	347.99
439.01	350.56
439.38	352.83
439.75	354.98
440.13	357.49
440.50	359.81
440.87	361.72
441.24	363.68
441.61	365.82
441.98	367.29
442.35	369.04
442.72	370.93
443.09	372.74
443.46	373.71
443.83	374.33
444.20	374.81
444.57	375.65
444.94	375.89
445.31	376.27
445.68	376.63
446.05	376.72
446.42	376.34
446.79	375.92
447.16	375.41
447.53	375.15
447.90	374.01
448.27	372.81
448.64	371.20
449.01	370.02
449.37	368.07
449.74	366.17
450.11	363.98
450.48	361.47
450.85	358.97
451.22	356.85
451.59	354.80
451.96	352.86
452.33	350.30
452.70	347.96
453.07	345.09
453.43	342.17
453.80	339.37
454.17	336.65
454.54	334.10
454.91	331.42
455.28	328.70
455.65	326.18
456.02	323.77
456.38	321.61
456.75	318.97
457.12	316.71
457.49	314.52
457.86	312.35
458.23	310.50
458.59	308.42
458.96	306.32
459.33	304.44
459.70	302.58
460.07	301.06
460.43	299.37
460.80	297.74
461.17	296.35
461.54	294.88
461.91	293.47
462.27	292.02
462.64	290.76
463.01	289.38
463.38	288.09
463.74	286.74
464.11	285.56
464.48	284.56
464.85	283.46
465.21	282.61
465.58	281.71
465.95	280.60
466.32	279.67
466.68	278.76
467.05	277.92
467.42	277.04
467.78	276.06
468.15	275.13
468.52	274.45
468.88	273.55
469.25	272.77
469.62	272.12
469.98	271.44
470.35	270.82
470.72	270.27
471.08	269.65
471.45	269.08
471.82	268.55
472.18	267.88
472.55	267.45
472.92	266.90
473.28	266.39
473.65	265.96
474.02	265.52
474.38	265.15
474.75	264.79
475.11	264.43
475.48	264.19
475.85	263.99
476.21	263.76
476.58	263.59
476.94	263.43
477.31	263.26
477.67	263.11
478.04	262.98
478.41	262.89
478.77	262.89
479.14	262.83
479.50	262.83
479.87	262.92
480.23	262.97
480.60	263.06
480.96	263.17
481.33	263.38
481.69	263.59
482.06	263.79
482.42	264.02
482.79	264.25
483.15	264.58
483.52	264.94
483.88	265.29
484.25	265.67
484.61	266.06
484.98	266.51
485.34	267.09
485.71	267.70
486.07	268.31
486.44	268.88
486.80	269.56
487.17	270.30
487.53	271.12
487.90	272.01
488.26	272.96
488.62	273.94
488.99	274.89
489.35	275.97
489.72	277.13
490.08	278.30
490.44	279.57
490.81	280.87
491.17	282.19
491.54	283.68
491.90	285.23
492.26	286.93
492.63	288.70
492.99	290.46
493.36	292.33
493.72	294.34
494.08	296.45
494.45	298.70
494.81	301.06
495.17	303.47
495.54	305.99
495.90	308.64
496.26	311.42
496.63	314.36
496.99	317.44
497.35	320.68
497.72	324.08
498.08	327.65
498.44	331.33
498.80	335.29
499.17	339.34
499.53	343.51
499.89	347.83
500.26	352.32
500.62	356.97
500.98	361.90
501.34	366.98
501.71	372.34
502.07	377.80
502.43	383.39
502.79	389.19
503.16	395.22
503.52	401.47
503.88	407.90
504.24	414.53
504.60	421.40
504.97	428.52
505.33	435.87
505.69	443.48
506.05	451.26
506.41	459.15
506.78	467.28
507.14	475.72
507.50	484.41
507.86	493.50
508.22	502.71
508.59	511.96
508.95	521.59
509.31	531.35
509.67	541.47
510.03	551.81
510.39	562.43
510.75	573.35
511.12	584.29
511.48	595.55
511.84	607.07
512.20	618.63
512.56	630.58
512.92	642.82
513.28	655.12
513.64	667.64
514.00	680.38
514.37	693.34
514.73	706.40
515.09	719.51
515.45	732.74
515.81	746.38
516.17	760.40
516.53	774.51
516.89	788.72
517.25	802.91
517.61	817.40
517.97	831.77
518.33	846.16
518.69	861.03
519.05	876.13
519.41	891.27
519.77	906.87
520.13	922.32
520.49	937.66
520.85	953.20
521.21	969.04
521.57	985.33
521.93	1001.18
522.29	1017.60
522.65	1033.86
523.01	1050.07
523.37	1066.13
523.73	1082.31
524.09	1098.41
524.45	1114.74
524.81	1131.37
525.17	1148.18
525.53	1165.17
525.89	1182.03
526.25	1198.80
526.61	1215.12
526.97	1231.93
527.33	1248.38
527.68	1265.11
528.04	1281.57
528.40	1298.14
528.76	1315.17
529.12	1331.75
529.48	1348.63
529.84	1364.69
530.20	1381.42
530.56	1398.58
530.91	1416.09
531.27	1432.90
531.63	1449.42
531.99	1466.16
532.35	1482.15
532.71	1498.00
533.07	1514.31
533.42	1530.28
533.78	1546.41
534.14	1562.65
534.50	1578.10
534.86	1594.12
535.21	1609.24
535.57	1625.32
535.93	1640.99
536.29	1655.61
536.65	1670.69
537.00	1685.48
537.36	1700.84
537.72	1715.29
538.08	1729.68
538.44	1743.34
538.79	1757.24
539.15	1770.96
539.51	1784.59
539.87	1799.01
540.22	1812.87
540.58	1826.66
540.94	1840.02
541.29	1852.91
541.65	1865.70
542.01	1878.80
542.37	1890.89
542.72	1903.40
543.08	1915.11
543.44	1927.53
543.79	1938.96
544.15	1949.97
544.51	1961.62
544.87	1972.76
545.22	1983.62
545.58	1993.88
545.94	2003.77
546.29	2013.76
546.65	2023.63
547.01	2032.94
547.36	2041.61
547.72	2049.92
548.07	2057.72
548.43	2065.96
548.79	2074.02
549.14	2081.57
549.50	2088.96
549.86	2096.75
550.21	2104.07
550.57	2111.15
550.92	2117.70
551.28	2124.66
551.64	2131.68
551.99	2138.15
552.35	2144.18
552.70	2150.29
553.06	2156.14
553.41	2162.35
553.77	2168.39
554.13	2174.43
554.48	2180.48
554.84	2185.86
555.19	2191.36
555.55	2196.53
555.90	2200.89
556.26	2205.70
556.61	2210.52
556.97	2214.78
557.32	2219.05
557.68	2223.05
558.03	2227.44
558.39	2231.20
558.74	2235.93
559.10	2239.86
559.45	2243.54
559.81	2247.85
560.16	2251.79
560.52	2255.04
560.87	2258.58
561.23	2261.19
561.58	2264.20
561.94	2266.83
562.29	2269.23
562.64	2271.84
563.00	2274.46
563.35	2278.08
563.71	2281.35
564.06	2284.41
564.42	2287.29
564.77	2289.72
565.12	2291.99
565.48	2293.85
565.83	2295.65
566.19	2297.06
566.54	2298.00
566.89	2299.21
567.25	2299.77
567.60	2301.06
567.96	2302.87
568.31	2303.59
568.66	2304.63
569.02	2305.16
569.37	2305.44
569.72	2306.37
570.08	2306.47
570.43	2306.49
570.78	2305.82
571.14	2304.19
571.49	2302.96
571.84	2302.72
572.20	2301.48
572.55	2300.36
572.90	2298.86
573.26	2297.48
573.61	2295.64
573.96	2293.80
574.31	2290.63
574.67	2287.48
575.02	2283.74
575.37	2280.23
575.72	2276.37
576.08	2273.14
576.43	2269.83
576.78	2266.10
577.13	2262.87
577.49	2259.64
577.84	2256.06
578.19	2252.20
578.54	2248.45
578.90	2244.01
579.25	2238.23
579.60	2233.15
579.95	2228.34
580.30	2223.13
580.66	2217.91
581.01	2212.78
581.36	2207.77
581.71	2203.63
582.06	2199.09
582.42	2194.59
582.77	2189.22
583.12	2184.63
583.47	2179.61
583.82	2174.42
584.17	2169.12
584.53	2163.43
584.88	2157.66
585.23	2151.83
585.58	2146.36
585.93	2140.93
586.28	2136.31
586.63	2131.19
586.98	2126.09
587.34	2121.16
587.69	2116.34
588.04	2110.91
588.39	2105.24
588.74	2098.77
589.09	2092.50
589.44	2085.80
589.79	2079.85
590.14	2074.40
590.49	2067.84
590.84	2061.54
591.19	2055.41
591.54	2048.92
591.89	2041.59
592.25	2034.86
592.60	2027.69
592.95	2019.97
593.30	2012.48
593.65	2004.69
594.00	1997.70
594.35	1990.61
594.70	1982.59
595.05	1975.26
595.40	1967.97
595.75	1960.43
596.10	1954.12
596.45	1947.39
596.80	1941.09
597.15	1934.28
597.50	1926.99
597.85	1920.59
598.19	1913.83
598.54	1906.73
598.89	1900.11
599.24	1894.27
599.59	1887.52
599.94	1881.29
600.29	1875.07
600.64	1868.53
600.99	1861.07
601.34	1854.12
601.69	1846.97
602.04	1839.95
602.39	1832.65
602.74	1825.75
603.08	1819.04
603.43	1812.37
603.78	1804.99
604.13	1797.72
604.48	1790.43
604.83	1783.52
605.18	1776.39
605.53	1768.27
605.87	1760.33
606.22	1752.97
606.57	1744.96
606.92	1737.64
607.27	1730.34
607.62	1723.45
607.96	1716.13
608.31	1709.47
608.66	1701.92
609.01	1694.31
609.36	1686.73
609.70	1678.68
610.05	1670.64
610.40	1662.89
610.75	1654.49
611.10	1646.83
611.44	1638.46
611.79	1630.52
612.14	1621.84
612.49	1612.73
612.83	1604.39
613.18	1596.15
613.53	1588.08
613.88	1579.52
614.22	1571.23
614.57	1562.67
614.92	1554.60
615.27	1547.03
615.61	1538.63
615.96	1530.60
616.31	1523.01
616.65	1515.72
617.00	1508.16
617.35	1500.47
617.70	1492.05
618.04	1483.50
618.39	1475.33
618.74	1467.73
619.08	1459.51
619.43	1451.90
619.78	1445.01
620.12	1437.93
620.47	1430.50
620.82	1422.34
621.16	1414.89
621.51	1407.27
621.85	1399.67
622.20	1391.06
622.55	1382.76
622.89	1374.97
623.24	1367.35
623.59	1359.94
623.93	1352.38
624.28	1345.15
624.62	1337.59
624.97	1330.50
625.32	1323.80
625.66	1316.77
626.01	1309.64
626.35	1302.05
626.70	1294.39
627.04	1286.70
627.39	1278.82
627.73	1271.48
628.08	1264.57
628.43	1257.31
628.77	1249.94
629.12	1242.38
629.46	1235.18
629.81	1227.74
630.15	1220.61
630.50	1213.16
630.84	1204.98
631.19	1197.09
631.53	1189.58
631.88	1182.07
632.22	1174.40
632.57	1167.06
632.91	1159.46
633.26	1151.97
633.60	1144.61
633.95	1137.46
634.29	1130.40
634.64	1123.79
634.98	1116.36
635.32	1109.16
635.67	1102.64
636.01	1095.97
636.36	1089.10
636.70	1082.68
637.05	1076.11
637.39	1069.60
637.73	1063.14
638.08	1057.36
638.42	1051.42
638.77	1045.01
639.11	1038.42
639.45	1032.11
639.80	1025.41
640.14	1019.00
640.49	1012.54
640.83	1006.25
641.17	999.92
641.52	993.50
641.86	987.08
642.20	981.22
642.55	974.98
642.89	968.40
643.23	961.98
643.58	956.25
643.92	949.97
644.26	943.86
644.61	937.92
644.95	931.80
645.29	925.01
645.64	918.19
645.98	911.84
646.32	906.05
646.66	899.95
647.01	894.18
647.35	888.44
647.69	882.59
648.04	877.07
648.38	871.42
648.72	865.39
649.06	859.30
649.41	853.44
649.75	847.43
650.09	841.48
650.43	835.62
650.78	829.48
651.12	823.61
651.46	817.92
651.80	812.05
652.14	806.73
652.49	801.44
652.83	796.30
653.17	790.50
653.51	784.72
653.85	779.42
654.20	773.79
654.54	767.79
654.88	762.01
655.22	756.08
655.56	750.40
655.90	745.02
656.25	739.72
656.59	734.35
656.93	729.29
657.27	724.18
657.61	718.78
657.95	713.70
658.29	708.58
658.64	703.35
658.98	698.06
659.32	692.57
659.66	687.43
660.00	682.09
660.34	677.25
660.68	672.40
661.02	667.36
661.36	662.68
661.70	658.27
662.05	653.97
662.39	649.68
662.73	645.19
663.07	640.84
663.41	636.50
663.75	632.04
664.09	627.40
664.43	623.02
664.77	618.92
665.11	614.63
665.45	610.50
665.79	606.40
666.13	602.29
666.47	598.25
666.81	594.09
667.15	589.99
667.49	586.11
667.83	582.29
668.17	578.32
668.51	574.26
668.85	570.18
669.19	566.34
669.53	562.48
669.87	558.61
670.21	554.90
670.55	551.19
670.89	547.70
671.23	544.36
671.57	540.85
671.91	537.24
672.25	533.75
672.58	530.26
672.92	526.89
673.26	523.75
673.60	520.59
673.94	517.43
674.28	514.56
674.62	511.59
674.96	508.49
675.30	505.52
675.64	502.59
675.97	499.85
676.31	496.98
676.65	494.08
676.99	491.37
677.33	488.52
677.67	485.72
678.01	482.69
678.34	479.65
678.68	476.80
679.02	474.08
679.36	471.32
679.70	468.64
680.04	465.85
680.37	462.96
680.71	460.17
681.05	457.58
681.39	454.80
681.73	452.12
682.06	449.60
682.40	447.11
682.74	444.59
683.08	442.06
683.42	439.39
683.75	436.89
684.09	434.35
684.43	431.88
684.77	429.48
685.10	427.17
685.44	424.88
685.78	422.58
686.12	420.26
686.45	418.01
686.79	415.66
687.13	413.51
687.46	411.29
687.80	409.16
688.14	406.96
688.48	404.97
688.81	402.75
689.15	400.61
689.49	398.42
689.82	396.35
690.16	394.24
690.50	392.36
690.83	390.41
691.17	388.46
691.51	386.57
691.84	384.66
692.18	382.74
692.52	380.80
692.85	378.90
693.19	377.10
693.52	375.25
693.86	373.44
694.20	371.63
694.53	369.89
694.87	368.05
695.21	366.31
695.54	364.48
695.88	362.76
696.21	361.01
696.55	359.36
696.88	357.68
697.22	356.06
697.56	354.44
697.89	352.83
698.23	351.21
698.56	349.57
698.90	347.97
699.23	346.35
699.57	344.81
699.90	343.21
700.24	341.64
700.58	340.13
700.91	338.66
701.25	337.20
701.58	335.83
701.92	334.45
702.25	333.03
702.59	331.66
702.92	330.32
703.26	329.00
703.59	327.73
703.93	326.53
704.26	325.27
704.60	323.96
704.93	322.63
705.26	321.39
705.60	320.23
705.93	319.12
706.27	318.07
706.60	317.00
706.94	315.95
707.27	314.80
707.61	313.73
707.94	312.72
708.27	311.64
708.61	310.58
708.94	309.55
709.28	308.61
709.61	307.67
709.94	306.76
710.28	305.76
710.61	304.78
710.95	303.72
711.28	302.79
711.61	301.87
711.95	300.98
712.28	300.01
712.61	298.97
712.95	298.03
713.28	297.13
713.61	296.25
713.95	295.34
714.28	294.53
714.61	293.66
714.95	292.83
715.28	291.96
715.61	291.07
715.95	290.21
716.28	289.38
716.61	288.52
716.95	287.68
717.28	286.97
717.61	286.18
717.94	285.42
718.28	284.65
718.61	283.88
718.94	283.19
719.27	282.49
719.61	281.92
719.94	281.30
720.27	280.59
720.60	279.90
720.94	279.30
721.27	278.68
721.60	278.12
721.93	277.49
722.27	276.92
722.60	276.38
722.93	275.86
723.26	275.31
723.59	274.74
723.93	274.20
724.26	273.63
724.59	273.07
724.92	272.56
725.25	272.06
725.59	271.57
725.92	271.08
726.25	270.60
726.58	270.06
726.91	269.51
727.24	269.03
727.57	268.55
727.91	268.06
728.24	267.60
728.57	267.10
728.90	266.66
729.23	266.18
729.56	265.74
729.89	265.28
730.22	264.78
730.55	264.30
730.89	263.86
731.22	263.38
731.55	262.95
731.88	262.53
732.21	262.11
732.54	261.68
732.87	261.25
733.20	260.89
733.53	260.51
733.86	260.15
734.19	259.76
734.52	259.42
734.85	259.08
735.18	258.63
735.51	258.28
735.84	257.89
736.17	257.55
736.50	257.15
736.83	256.89
737.16	256.55
737.49	256.24
737.82	255.87
738.15	255.59
738.48	255.23
738.81	254.89
739.14	254.51
739.47	254.22
739.80	253.89
740.13	253.58
740.46	253.25
740.79	252.90
741.12	252.57
741.45	252.24
741.78	251.91
742.11	251.67
742.44	251.37
742.77	251.10
743.10	250.81
743.43	250.48
743.75	250.08
744.08	249.92
744.41	249.65
744.74	249.39
745.07	249.07
745.40	248.85
745.73	248.60
746.06	248.35
746.39	248.04
746.71	247.79
747.04	247.52
747.37	247.23
747.70	246.98
748.03	246.78
748.36	246.55
748.68	246.30
749.01	246.05
749.34	245.82
749.67	245.59
750.00	245.35
750.33	245.24
750.65	245.05
750.98	244.72
751.31	244.52
751.64	244.34
751.97	244.20
752.29	243.97
752.62	243.73
752.95	243.51
753.28	243.30
753.60	243.09
753.93	242.90
754.26	242.77
754.59	242.59
754.91	242.35
755.24	242.15
755.57	241.97
755.90	241.80
756.22	241.62
756.55	241.41
756.88	241.24
757.20	240.96
757.53	240.76
757.86	240.58
758.19	240.44
758.51	240.26
758.84	240.03
759.17	239.90
759.49	239.77
759.82	239.65
760.15	239.54
760.47	239.42
760.80	239.26
761.13	239.12
761.45	238.97
761.78	238.81
762.11	238.69
762.43	238.53
762.76	238.39
763.08	238.23
763.41	238.12
763.74	238.00
764.06	237.88
764.39	237.79
764.71	237.66
765.04	237.53
765.37	237.39
765.69	237.28
766.02	237.15
766.34	237.00
766.67	236.85
767.00	236.73
767.32	236.65
767.65	236.61
767.97	236.48
768.30	236.37
768.62	236.29
768.95	236.18
769.27	236.07
769.60	235.98
769.92	235.87
770.25	235.73
770.57	235.61
770.90	235.50
771.22	235.35
771.55	235.26
771.87	235.17
772.20	235.08
772.52	235.06
772.85	235.08
773.17	235.00
773.50	234.92
773.82	234.83
774.15	234.70
774.47	234.50
774.80	234.40
775.12	234.32
775.45	234.22
775.77	234.13
776.09	234.02
776.42	233.94
776.74	233.88
777.07	233.83
777.39	233.73
777.72	233.65
778.04	233.62
778.36	233.53
778.69	233.47
779.01	233.43
779.33	233.26
779.66	233.05
779.98	232.96
780.31	232.88
780.63	232.84
780.95	232.77
781.28	232.73
781.60	232.65
781.92	232.58
782.25	232.51
782.57	232.47
782.89	232.41
783.22	232.33
783.54	232.25
783.86	232.17
784.19	232.14
784.51	232.10
784.83	231.99
785.16	231.94
785.48	231.87
785.80	231.77
786.12	231.72
786.45	231.69
786.77	231.65
787.09	231.62
787.42	231.51
787.74	231.47
788.06	231.45
788.38	231.42
788.71	231.37
789.03	231.35
789.35	231.28
789.67	231.25
789.99	231.26
790.32	231.23
790.64	231.20
790.96	231.22
791.28	231.15
791.61	231.11
791.93	231.09
792.25	231.04
792.57	231.13
792.89	231.08
793.21	231.06
793.54	231.00
793.86	230.97
794.18	230.96
794.50	230.92
794.82	230.88
795.14	230.81
795.47	230.80
795.79	230.79
796.11	230.76
796.43	230.76
796.75	230.70
797.07	230.65
797.39	230.66
797.71	230.59
798.04	230.56
798.36	230.57
798.68	230.56
799.00	230.53
799.32	230.45
799.64	230.47
799.96	230.43
800.28	230.43
800.60	230.40
800.92	230.36
801.24	230.33
801.56	230.33
801.89	230.31
802.21	230.28
802.53	230.21
802.85	230.17
803.17	230.17
803.49	230.12
803.81	230.08
804.13	229.98
804.45	229.91
804.77	229.90
805.09	229.89
805.41	229.84
805.73	229.77
806.05	229.71
806.37	229.64
806.69	229.62
807.01	229.61
807.33	229.59
807.65	229.55
807.97	229.56
808.28	229.50
808.60	229.46
808.92	229.43
809.24	229.46
809.56	229.44
809.88	229.37
810.20	229.39
810.52	229.40
810.84	229.38
811.16	229.35
811.48	229.30
811.80	229.25
812.12	229.20
812.43	229.21
812.75	229.20
813.07	229.20
813.39	229.19
813.71	229.16
814.03	229.09
814.35	229.03
814.67	228.97
814.98	228.96
815.30	228.95
815.62	228.89
815.94	228.81
816.26	228.80
816.58	228.73
816.89	228.65
817.21	228.61
817.53	228.59
817.85	228.59
818.17	228.60
818.48	228.55
818.80	228.57
819.12	228.53
819.44	228.45
819.76	228.41
820.07	228.39
820.39	228.34
820.71	228.37
821.03	228.38
821.34	228.40
821.66	228.40
821.98	228.40
822.30	228.37
822.61	228.43
822.93	228.37
823.25	228.37
823.57	228.36
823.88	228.36
824.20	228.32
824.52	228.33
824.83	228.34
825.15	228.33
825.47	228.33
825.79	228.36
826.10	228.37
826.42	228.34
826.74	228.31
827.05	228.29
827.37	228.26
827.69	228.23
828.00	228.19
828.32	228.16
828.64	228.12
828.95	228.19
829.27	228.13
829.58	228.13
829.90	228.15
830.22	228.16
830.53	228.12
830.85	228.17
831.17	228.12
831.48	228.09
831.80	228.08
832.11	228.06
832.43	228.00
832.75	228.01
833.06	228.08
833.38	228.06
833.69	228.08
834.01	228.09
834.32	228.10
834.64	228.08
834.96	228.07
835.27	228.09
835.59	228.04
835.90	228.03
836.22	228.02
836.53	228.00
836.85	227.99
837.16	228.08
837.48	228.05
837.79	228.09
838.11	228.11
838.42	228.12
838.74	228.15
839.05	228.15
839.37	228.11
839.68	228.04
840.00	228.04
840.31	228.05
840.63	228.03
840.94	228.00
841.26	227.97
841.57	227.95
841.88	227.94
842.20	227.94
842.51	227.94
842.83	227.94
843.14	228.00
843.46	228.00
843.77	227.94
844.08	227.91
844.40	227.86
844.71	227.82
845.03	227.79
845.34	227.77
845.65	227.74
845.97	227.74
846.28	227.74
846.60	227.72
846.91	227.70
847.22	227.70
847.54	227.71
847.85	227.72
848.16	227.71
848.48	227.69
848.79	227.67
849.10	227.65
849.42	227.67
849.73	227.58
850.04	227.53
850.36	227.48
850.67	227.50
850.98	227.51
851.30	227.50
851.61	227.49
851.92	227.45
852.23	227.51
852.55	227.51
852.86	227.51
853.17	227.55
853.49	227.55
853.80	227.53
854.11	227.54
854.42	227.55
854.74	227.52
855.05	227.52
855.36	227.48
855.67	227.49
855.99	227.46
856.30	227.55
856.61	227.58
856.92	227.58
857.23	227.54
857.55	227.51
857.86	227.53
858.17	227.51
858.48	227.54
858.79	227.47
859.11	227.44
859.42	227.43
859.73	227.41
860.04	227.39
860.35	227.36
860.66	227.32
860.98	227.31
861.29	227.33
861.60	227.30
861.91	227.33
862.22	227.31
862.53	227.31
862.84	227.23
863.16	227.23
863.47	227.24
863.78	227.23
864.09	227.23
864.40	227.20
864.71	227.21
865.02	227.18
865.33	227.19
865.64	227.21
865.95	227.21
866.27	227.26
866.58	227.26
866.89	227.27
867.20	227.27
867.51	227.26
867.82	227.26
868.13	227.30
868.44	227.28
868.75	227.31
869.06	227.30
869.37	227.27
869.68	227.25
869.99	227.25
870.30	227.25
870.61	227.25
870.92	227.30
871.23	227.26
871.54	227.28
871.85	227.30
872.16	227.27
872.47	227.28
872.78	227.20
873.09	227.22
873.40	227.23
873.71	227.23
874.02	227.22
874.33	227.22
874.64	227.20
874.95	227.18
875.26	227.14
875.56	227.16
875.87	227.18
876.18	227.18
876.49	227.27
876.80	227.28
877.11	227.27
877.42	227.22
877.73	227.28
878.04	227.27
878.35	227.26
878.66	227.28
878.96	227.28
879.27	227.27
879.58	227.27
879.89	227.24
880.20	227.26
880.51	227.26
880.82	227.26
881.12	227.25
881.43	227.24
881.74	227.27
882.05	227.25
882.36	227.24
882.67	227.23
882.97	227.11
883.28	227.13
883.59	227.13
883.90	227.16
884.21	227.15
884.51	227.13
884.82	227.12
885.13	227.13
885.44	227.13
885.74	227.14
886.05	227.12
886.36	227.10
886.67	227.08
886.98	227.15
887.28	227.15
887.59	227.15
887.90	227.17
888.20	227.15
888.51	227.14
888.82	227.13
889.13	227.14
889.43	227.25
889.74	227.22
890.05	227.20
890.35	227.23
890.66	227.22
890.97	227.22
891.28	227.20
891.58	227.17
891.89	227.15
892.20	227.13
892.50	227.12
892.81	227.12
893.12	227.12
893.42	227.06
893.73	227.04
894.04	227.01
894.34	227.02
894.65	227.01
894.95	227.01
895.26	227.01
895.57	227.08
895.87	226.94
896.18	226.96
896.48	226.98
896.79	226.95
897.10	226.95
897.40	226.96
897.71	226.96
898.01	226.96
898.32	226.97
898.63	226.96
898.93	226.98
899.24	226.97
899.54	226.97
899.85	226.96
900.15	226.98
900.46	226.98
900.76	226.99
901.07	226.99
901.38	226.98
901.68	227.00
901.99	226.90
902.29	226.92
902.60	226.90
902.90	226.87
903.21	226.84
903.51	226.86
903.82	226.85
904.12	226.84
904.43	226.86
904.73	226.86
905.03	226.86
905.34	226.95
905.64	226.98
905.95	226.98
906.25	226.97
906.56	226.98
906.86	226.96
907.17	226.95
907.47	226.97
907.77	226.96
908.08	226.97
908.38	226.99
908.69	226.98
908.99	226.97
909.30	227.00
909.60	227.01
909.90	226.99
910.21	226.95
910.51	226.95
910.81	226.97
911.12	226.99
911.42	226.97
911.73	226.87
912.03	226.87
912.33	226.92
912.64	226.89
912.94	226.86
913.24	226.87
913.55	226.84
913.85	226.80
914.15	226.81
914.46	226.77
914.76	226.79
915.06	226.78
915.37	226.82
915.67	226.80
915.97	226.81
916.27	226.80
916.58	226.82
916.88	226.82
917.18	226.79
917.49	226.85
917.79	226.90
918.09	226.91
918.39	226.93
918.70	226.88
919.00	226.91
919.30	226.94
919.60	226.93
919.91	226.92
920.21	226.93
920.51	226.93
920.81	226.90
921.12	226.90
921.42	226.92
921.72	226.92
922.02	226.95
922.32	226.96
922.63	226.92
922.93	226.98
923.23	226.98
923.53	226.98
923.83	226.91
924.13	226.88
924.44	226.91
924.74	226.89
925.04	226.91
925.34	226.89
925.64	226.90
925.94	226.91
926.24	226.99
926.55	226.99
926.85	227.00
927.15	227.00
927.45	226.99
927.75	226.99
928.05	226.97
928.35	226.95
928.65	227.00
928.95	227.04
929.26	227.03
929.56	227.02
929.86	227.06
930.16	227.04
930.46	227.08
930.76	227.09
931.06	227.08
931.36	227.07
931.66	227.08
931.96	227.06
932.26	227.05
932.56	227.01
932.86	227.02
933.16	227.04
933.46	227.07
933.76	227.04
934.06	227.05
934.36	227.12
934.66	227.14
934.96	227.07
935.26	227.07
935.56	227.07
935.86	227.08
936.16	227.05
936.46	227.07
936.76	227.03
937.06	226.99
937.36	226.96
937.66	226.98
937.96	226.96
938.26	226.94
938.56	226.95
938.86	226.98
939.16	227.01
939.46	226.99
939.76	226.97
940.06	226.98
940.35	226.94
940.65	226.88
940.95	226.83
941.25	226.83
941.55	226.81
941.85	226.79
942.15	226.78
942.45	226.82
942.75	226.80
943.04	226.79
943.34	226.81
943.64	226.82
943.94	226.79
944.24	226.79
944.54	226.79
944.84	226.79
945.13	226.75
945.43	226.71
945.73	226.70
946.03	226.70
946.33	226.68
946.62	226.70
946.92	226.70
947.22	226.71
947.52	226.70
947.82	226.71
948.11	226.68
948.41	226.67
948.71	226.62
949.01	226.64
949.31	226.63
949.60	226.60
949.90	226.60
950.20	226.63
950.50	226.69
950.79	226.69
951.09	226.69
951.39	226.70
951.69	226.74
951.98	226.74
952.28	226.77
952.58	226.77
952.87	226.78
953.17	226.78
953.47	226.75
953.76	226.77
954.06	226.77
954.36	226.76
954.66	226.75
954.95	226.78
955.25	226.75
955.55	226.76
955.84	226.75
956.14	226.74
956.44	226.73
956.73	226.66
957.03	226.66
957.32	226.68
957.62	226.70
957.92	226.65
958.21	226.67
958.51	226.79
958.81	226.81
959.10	226.82
959.40	226.84
959.69	226.87
959.99	226.89
960.29	226.89
960.58	226.91
960.88	226.95
961.17	226.93
961.47	226.96
961.76	226.98
962.06	227.02
962.36	227.00
962.65	227.03
962.95	227.04
963.24	227.07
963.54	227.04
963.83	227.02
964.13	227.04
964.42	227.01
964.72	226.94
965.01	226.96
965.31	226.94
965.60	226.90
965.90	226.97
966.19	226.91
966.49	226.93
966.78	226.92
967.08	226.91
967.37	226.92
967.67	226.91
967.96	226.90
968.26	226.88
968.55	226.91
968.85	226.85
969.14	226.87
969.43	226.86
969.73	226.85
970.02	226.86
970.32	226.83
970.61	226.82
970.91	226.78
971.20	226.74
971.49	226.76
971.79	226.77
972.08	226.66
972.38	226.70
972.67	226.69
972.96	226.70
973.26	226.69
973.55	226.72
973.85	226.70
974.14	226.69
974.43	226.72
974.73	226.72
975.02	226.72
975.31	226.69
975.61	226.69
975.90	226.68
976.19	226.67
976.49	226.67
976.78	226.69
977.07	226.69
977.37	226.71
977.66	226.71
977.95	226.72
978.24	226.75
978.54	226.76
978.83	226.77
979.12	226.77
979.42	226.77
979.71	226.74
980.00	226.73
980.29	226.71
980.59	226.68
980.88	226.71
981.17	226.72
981.46	226.73
981.76	226.72
982.05	226.74
982.34	226.75
982.63	226.75
982.93	226.75
983.22	226.75
983.51	226.75
983.80	226.75
984.09	226.77
984.39	226.72
984.68	226.68
984.97	226.69
985.26	226.68
985.55	226.70
985.85	226.69
986.14	226.73
986.43	226.78
986.72	226.79
987.01	226.72
987.30	226.72
987.59	226.71
987.89	226.73
988.18	226.70
988.47	226.68
988.76	226.69
989.05	226.66
989.34	226.67
989.63	226.70
989.92	226.68
990.22	226.64
990.51	226.68
990.80	226.70
991.09	226.70
991.38	226.70
991.67	226.69
991.96	226.66
992.25	226.65
992.54	226.61
992.83	226.59
993.12	226.60
993.41	226.61
993.70	226.65
993.99	226.66
994.28	226.70
994.58	226.72
994.87	226.68
995.16	226.70
995.45	226.69
995.74	226.65
996.03	226.69
996.32	226.69
996.61	226.71
996.90	226.69
997.19	226.65
997.48	226.64
997.77	226.65
998.06	226.64
998.34	226.63
998.63	226.65
998.92	226.64
999.21	226.68
999.50	226.70
999.79	226.67
1000.08	226.65
1000.37	226.62
1000.66	226.61
1000.95	226.64
1001.24	226.67
1001.53	226.68
1001.82	226.67
1002.11	226.62
1002.40	226.68
1002.68	226.68
1002.97	226.74
1003.26	226.75
1003.55	226.77
1003.84	226.78
1004.13	226.84
1004.42	226.83
1004.71	226.79
1004.99	226.81
1005.28	226.83
1005.57	226.82
1005.86	226.78
1006.15	226.80
1006.44	226.80
1006.72	226.84
1007.01	226.83
1007.30	226.78
1007.59	226.79
1007.88	226.78
1008.17	226.82
1008.45	226.77
1008.74	226.76
1009.03	226.71
1009.32	226.71
1009.60	226.69
1009.89	226.64
1010.18	226.58
1010.47	226.60
1010.76	226.61
1011.04	226.60
1011.33	226.59
1011.62	226.59
1011.91	226.63
1012.19	226.61
1012.48	226.63
1012.77	226.61
1013.05	226.67
1013.34	226.70
1013.63	226.67
1013.92	226.67
1014.20	226.67
1014.49	226.69
1014.78	226.71
1015.06	226.68
1015.35	226.70
1015.64	226.72
1015.92	226.74
1016.21	226.74
1016.50	226.74
1016.78	226.76
1017.07	226.77
1017.36	226.76
1017.64	226.72
1017.93	226.72
1018.22	226.72
1018.50	226.71
1018.79	226.74
1019.08	226.69
1019.36	226.68
1019.65	226.68
1019.93	226.74
1020.22	226.75
1020.51	226.77
1020.79	226.76
1021.08	226.69
1021.36	226.61
1021.65	227.32
1021.94	226.86
1022.22	226.52
1022.51	226.64
1022.79	227.40
1023.08	227.29
1023.36	227.62
1023.65	226.77
>>>>>End Processed Spectral Data<<<<<
