SpectraSuite Data File
++++++++++++++++++++++++++++++++++++
Date: Fri Feb 01 15:05:23 EST 2013
User: group
Dark Spectrum Present: No
Reference Spectrum Present: No
Number of Sampled Component Spectra: 1
Spectrometers: USB2E7196
Integration Time (usec): 35000 (USB2E7196)
Spectra Averaged: 100 (USB2E7196)
Boxcar Smoothing: 10 (USB2E7196)
Correct for Electrical Dark: No (USB2E7196)
Strobe/Lamp Enabled: No (USB2E7196)
Correct for Detector Non-linearity: No (USB2E7196)
Correct for Stray Light: No (USB2E7196)
Number of Pixels in Processed Spectrum: 2048
>>>>>Begin Processed Spectral Data<<<<<
339.09	0.00
339.48	215.79
339.86	216.64
340.24	218.40
340.63	219.68
341.01	222.45
341.39	221.73
341.78	223.84
342.16	224.79
342.54	225.02
342.93	213.61
343.31	224.42
343.69	224.90
344.07	225.40
344.46	225.79
344.84	226.16
345.22	226.38
345.60	226.64
345.99	226.80
346.37	226.91
346.75	227.04
347.13	227.10
347.52	227.14
347.90	227.22
348.28	227.25
348.66	227.26
349.05	227.24
349.43	227.29
349.81	227.35
350.19	227.38
350.57	227.45
350.96	227.49
351.34	227.55
351.72	227.68
352.10	227.70
352.48	227.82
352.87	227.85
353.25	227.92
353.63	227.99
354.01	228.05
354.39	228.15
354.77	228.19
355.15	228.29
355.54	228.35
355.92	228.39
356.30	228.41
356.68	228.53
357.06	228.62
357.44	228.67
357.82	228.69
358.20	228.77
358.58	228.83
358.97	228.92
359.35	228.98
359.73	229.02
360.11	229.08
360.49	229.09
360.87	229.16
361.25	229.21
361.63	229.28
362.01	229.32
362.39	229.33
362.77	229.37
363.15	229.37
363.53	229.40
363.91	229.43
364.29	229.46
364.67	229.39
365.05	229.40
365.43	229.41
365.81	229.44
366.19	229.47
366.57	229.47
366.95	229.45
367.33	229.43
367.71	229.41
368.09	229.42
368.47	229.38
368.85	229.31
369.23	229.30
369.61	229.21
369.99	229.20
370.37	229.17
370.75	229.18
371.13	229.11
371.51	229.03
371.89	228.98
372.27	228.95
372.65	228.88
373.03	228.83
373.41	228.80
373.78	228.70
374.16	228.60
374.54	228.50
374.92	228.43
375.30	228.38
375.68	228.29
376.06	228.24
376.44	228.17
376.82	228.11
377.19	228.02
377.57	227.95
377.95	227.89
378.33	227.83
378.71	227.67
379.09	227.63
379.47	227.58
379.84	227.50
380.22	227.42
380.60	227.37
380.98	227.29
381.36	227.21
381.73	227.14
382.11	227.09
382.49	227.04
382.87	226.98
383.25	226.89
383.62	226.94
384.00	226.86
384.38	226.82
384.76	226.80
385.13	226.79
385.51	226.76
385.89	226.65
386.27	226.60
386.64	226.61
387.02	226.57
387.40	226.56
387.78	226.50
388.15	226.46
388.53	226.42
388.91	226.39
389.29	226.37
389.66	226.38
390.04	226.34
390.42	226.30
390.79	226.27
391.17	226.30
391.55	226.17
391.92	226.20
392.30	226.23
392.68	226.22
393.05	226.23
393.43	226.26
393.81	226.28
394.18	226.26
394.56	226.27
394.94	226.32
395.31	226.31
395.69	226.41
396.06	226.47
396.44	226.52
396.82	226.58
397.19	226.66
397.57	226.68
397.95	226.77
398.32	226.81
398.70	226.90
399.07	226.96
399.45	227.02
399.82	227.10
400.20	227.13
400.58	227.22
400.95	227.29
401.33	227.39
401.70	227.57
402.08	227.72
402.45	227.80
402.83	227.91
403.20	228.05
403.58	228.12
403.95	228.26
404.33	228.38
404.71	228.51
405.08	228.71
405.46	228.86
405.83	229.01
406.21	229.20
406.58	229.38
406.96	229.57
407.33	229.77
407.70	229.96
408.08	230.23
408.45	230.46
408.83	230.69
409.20	230.89
409.58	231.08
409.95	231.32
410.33	231.60
410.70	231.84
411.08	232.14
411.45	232.47
411.82	232.77
412.20	233.13
412.57	233.57
412.95	233.84
413.32	234.26
413.69	234.67
414.07	235.10
414.44	235.55
414.82	236.03
415.19	236.59
415.56	237.10
415.94	237.65
416.31	238.28
416.68	238.93
417.06	239.67
417.43	240.34
417.81	241.10
418.18	241.89
418.55	242.71
418.93	243.57
419.30	244.46
419.67	245.38
420.04	246.35
420.42	247.28
420.79	248.49
421.16	249.63
421.54	250.82
421.91	252.01
422.28	253.31
422.66	254.60
423.03	255.91
423.40	257.28
423.77	258.66
424.15	260.08
424.52	261.55
424.89	263.12
425.26	264.67
425.64	266.11
426.01	267.70
426.38	269.39
426.75	271.04
427.13	272.78
427.50	274.60
427.87	276.49
428.24	278.37
428.61	280.09
428.99	282.03
429.36	284.13
429.73	286.20
430.10	288.19
430.47	290.27
430.85	292.37
431.22	294.58
431.59	296.99
431.96	299.23
432.33	301.70
432.70	304.08
433.08	306.93
433.45	309.58
433.82	312.18
434.19	315.06
434.56	317.93
434.93	320.58
435.30	323.17
435.68	326.08
436.05	328.94
436.42	331.74
436.79	334.25
437.16	336.97
437.53	339.80
437.90	342.63
438.27	345.38
438.64	348.24
439.01	350.88
439.38	353.12
439.75	355.28
440.13	357.78
440.50	360.15
440.87	361.98
441.24	363.95
441.61	366.12
441.98	367.58
442.35	369.37
442.72	371.24
443.09	373.06
443.46	374.08
443.83	374.68
444.20	375.19
444.57	376.04
444.94	376.32
445.31	376.69
445.68	377.07
446.05	377.18
446.42	376.76
446.79	376.33
447.16	375.90
447.53	375.64
447.90	374.47
448.27	373.31
448.64	371.70
449.01	370.53
449.37	368.59
449.74	366.70
450.11	364.45
450.48	362.00
450.85	359.50
451.22	357.32
451.59	355.29
451.96	353.39
452.33	350.77
452.70	348.42
453.07	345.56
453.43	342.63
453.80	339.85
454.17	337.16
454.54	334.62
454.91	331.87
455.28	329.17
455.65	326.71
456.02	324.26
456.38	322.15
456.75	319.51
457.12	317.27
457.49	315.05
457.86	312.89
458.23	311.01
458.59	308.90
458.96	306.83
459.33	304.95
459.70	303.06
460.07	301.60
460.43	299.89
460.80	298.27
461.17	296.84
461.54	295.35
461.91	293.91
462.27	292.47
462.64	291.24
463.01	289.85
463.38	288.53
463.74	287.14
464.11	285.97
464.48	284.94
464.85	283.83
465.21	282.95
465.58	282.00
465.95	280.90
466.32	280.03
466.68	279.09
467.05	278.20
467.42	277.27
467.78	276.31
468.15	275.37
468.52	274.67
468.88	273.78
469.25	272.96
469.62	272.31
469.98	271.61
470.35	270.94
470.72	270.30
471.08	269.63
471.45	269.06
471.82	268.47
472.18	267.87
472.55	267.36
472.92	266.83
473.28	266.31
473.65	265.86
474.02	265.39
474.38	265.02
474.75	264.66
475.11	264.31
475.48	264.01
475.85	263.75
476.21	263.51
476.58	263.36
476.94	263.19
477.31	263.06
477.67	262.86
478.04	262.76
478.41	262.69
478.77	262.74
479.14	262.66
479.50	262.65
479.87	262.68
480.23	262.79
480.60	262.85
480.96	262.98
481.33	263.14
481.69	263.36
482.06	263.52
482.42	263.76
482.79	264.04
483.15	264.39
483.52	264.82
483.88	265.15
484.25	265.51
484.61	265.94
484.98	266.35
485.34	266.93
485.71	267.52
486.07	268.14
486.44	268.73
486.80	269.41
487.17	270.19
487.53	271.06
487.90	271.89
488.26	272.81
488.62	273.79
488.99	274.82
489.35	275.86
489.72	276.99
490.08	278.17
490.44	279.35
490.81	280.66
491.17	282.00
491.54	283.55
491.90	285.07
492.26	286.74
492.63	288.50
492.99	290.28
493.36	292.15
493.72	294.21
494.08	296.27
494.45	298.54
494.81	300.87
495.17	303.23
495.54	305.78
495.90	308.47
496.26	311.26
496.63	314.23
496.99	317.31
497.35	320.57
497.72	323.96
498.08	327.49
498.44	331.15
498.80	335.04
499.17	339.01
499.53	343.17
499.89	347.57
500.26	352.04
500.62	356.70
500.98	361.70
501.34	366.75
501.71	372.03
502.07	377.43
502.43	383.03
502.79	388.88
503.16	394.93
503.52	401.14
503.88	407.54
504.24	414.11
504.60	421.02
504.97	428.16
505.33	435.51
505.69	443.17
506.05	450.92
506.41	458.84
506.78	467.00
507.14	475.36
507.50	483.98
507.86	493.02
508.22	502.22
508.59	511.33
508.95	520.94
509.31	530.77
509.67	540.89
510.03	551.15
510.39	561.69
510.75	572.47
511.12	583.43
511.48	594.64
511.84	606.06
512.20	617.51
512.56	629.40
512.92	641.53
513.28	653.83
513.64	666.37
514.00	679.06
514.37	691.98
514.73	705.11
515.09	718.17
515.45	731.44
515.81	745.07
516.17	759.02
516.53	773.08
516.89	787.20
517.25	801.41
517.61	815.97
517.97	830.41
518.33	844.88
518.69	859.68
519.05	874.78
519.41	890.06
519.77	905.60
520.13	921.09
520.49	936.44
520.85	951.93
521.21	967.67
521.57	983.89
521.93	999.75
522.29	1016.24
522.65	1032.58
523.01	1048.86
523.37	1064.89
523.73	1081.27
524.09	1097.49
524.45	1113.88
524.81	1130.57
525.17	1147.34
525.53	1164.32
525.89	1181.22
526.25	1198.09
526.61	1214.53
526.97	1231.31
527.33	1247.89
527.68	1264.55
528.04	1281.18
528.40	1297.86
528.76	1315.04
529.12	1331.64
529.48	1348.53
529.84	1364.59
530.20	1381.32
530.56	1398.44
530.91	1415.89
531.27	1432.70
531.63	1449.23
531.99	1465.92
532.35	1481.90
532.71	1497.84
533.07	1514.18
533.42	1530.24
533.78	1546.30
534.14	1562.62
534.50	1578.06
534.86	1593.99
535.21	1609.24
535.57	1625.20
535.93	1640.80
536.29	1655.57
536.65	1670.91
537.00	1685.84
537.36	1701.23
537.72	1715.83
538.08	1730.23
538.44	1744.24
538.79	1758.24
539.15	1772.07
539.51	1785.87
539.87	1800.24
540.22	1814.14
540.58	1827.98
540.94	1841.36
541.29	1854.48
541.65	1867.31
542.01	1880.65
542.37	1893.01
542.72	1905.60
543.08	1917.52
543.44	1930.07
543.79	1941.41
544.15	1952.40
544.51	1964.06
544.87	1975.05
545.22	1985.82
545.58	1996.17
545.94	2005.88
546.29	2015.70
546.65	2025.46
547.01	2034.84
547.36	2043.78
547.72	2052.27
548.07	2060.14
548.43	2068.40
548.79	2076.40
549.14	2083.99
549.50	2091.30
549.86	2099.09
550.21	2106.37
550.57	2113.58
550.92	2120.03
551.28	2127.14
551.64	2134.06
551.99	2140.44
552.35	2146.68
552.70	2152.95
553.06	2158.90
553.41	2165.26
553.77	2171.24
554.13	2177.31
554.48	2183.32
554.84	2188.71
555.19	2194.00
555.55	2198.93
555.90	2203.34
556.26	2208.25
556.61	2212.89
556.97	2217.00
557.32	2221.14
557.68	2225.18
558.03	2229.24
558.39	2233.06
558.74	2237.61
559.10	2241.46
559.45	2245.21
559.81	2249.39
560.16	2253.06
560.52	2256.30
560.87	2259.62
561.23	2262.33
561.58	2265.19
561.94	2267.77
562.29	2270.13
562.64	2272.70
563.00	2275.42
563.35	2278.89
563.71	2281.98
564.06	2285.11
564.42	2287.93
564.77	2290.18
565.12	2292.46
565.48	2294.49
565.83	2296.05
566.19	2297.20
566.54	2298.24
566.89	2299.24
567.25	2299.72
567.60	2301.04
567.96	2302.52
568.31	2303.32
568.66	2304.23
569.02	2304.74
569.37	2304.88
569.72	2305.60
570.08	2305.52
570.43	2305.37
570.78	2304.54
571.14	2302.84
571.49	2301.40
571.84	2300.85
572.20	2299.57
572.55	2298.24
572.90	2296.44
573.26	2295.06
573.61	2293.18
573.96	2291.28
574.31	2288.02
574.67	2284.85
575.02	2281.05
575.37	2277.60
575.72	2273.68
576.08	2270.32
576.43	2266.86
576.78	2263.13
577.13	2259.82
577.49	2256.71
577.84	2253.21
578.19	2249.47
578.54	2245.59
578.90	2241.11
579.25	2235.65
579.60	2230.76
579.95	2225.65
580.30	2220.51
580.66	2215.22
581.01	2210.26
581.36	2204.99
581.71	2200.79
582.06	2196.21
582.42	2191.63
582.77	2186.32
583.12	2181.60
583.47	2176.64
583.82	2171.61
584.17	2166.09
584.53	2160.51
584.88	2154.78
585.23	2148.80
585.58	2143.16
585.93	2137.64
586.28	2133.00
586.63	2127.76
586.98	2122.64
587.34	2118.02
587.69	2113.18
588.04	2107.74
588.39	2102.04
588.74	2095.54
589.09	2089.30
589.44	2082.37
589.79	2076.25
590.14	2070.45
590.49	2063.75
590.84	2057.36
591.19	2051.00
591.54	2044.50
591.89	2036.82
592.25	2029.89
592.60	2022.62
592.95	2014.72
593.30	2007.25
593.65	1999.45
594.00	1992.28
594.35	1984.81
594.70	1976.51
595.05	1969.02
595.40	1961.70
595.75	1954.08
596.10	1947.77
596.45	1940.99
596.80	1934.82
597.15	1928.00
597.50	1920.74
597.85	1914.32
598.19	1907.56
598.54	1900.50
598.89	1893.92
599.24	1887.93
599.59	1881.02
599.94	1874.81
600.29	1868.72
600.64	1862.18
600.99	1854.61
601.34	1847.73
601.69	1840.69
602.04	1833.68
602.39	1826.32
602.74	1819.49
603.08	1812.71
603.43	1806.11
603.78	1798.76
604.13	1791.61
604.48	1784.29
604.83	1777.51
605.18	1770.37
605.53	1762.29
605.87	1754.24
606.22	1746.88
606.57	1739.07
606.92	1731.91
607.27	1724.71
607.62	1717.75
607.96	1710.41
608.31	1703.83
608.66	1696.32
609.01	1688.82
609.36	1681.43
609.70	1673.47
610.05	1665.29
610.40	1657.63
610.75	1649.25
611.10	1641.54
611.44	1633.12
611.79	1625.24
612.14	1616.49
612.49	1607.54
612.83	1599.25
613.18	1591.23
613.53	1583.22
613.88	1574.67
614.22	1566.39
614.57	1557.84
614.92	1549.82
615.27	1542.24
615.61	1533.92
615.96	1525.88
616.31	1518.18
616.65	1510.80
617.00	1503.27
617.35	1495.67
617.70	1487.33
618.04	1478.72
618.39	1470.62
618.74	1463.03
619.08	1454.69
619.43	1447.16
619.78	1440.25
620.12	1433.10
620.47	1425.48
620.82	1417.27
621.16	1409.92
621.51	1402.34
621.85	1394.75
622.20	1386.09
622.55	1377.87
622.89	1370.00
623.24	1362.46
623.59	1355.13
623.93	1347.62
624.28	1340.35
624.62	1332.81
624.97	1325.58
625.32	1318.92
625.66	1311.81
626.01	1304.61
626.35	1297.18
626.70	1289.47
627.04	1281.56
627.39	1273.75
627.73	1266.48
628.08	1259.60
628.43	1252.27
628.77	1244.90
629.12	1237.38
629.46	1230.32
629.81	1222.90
630.15	1215.79
630.50	1208.32
630.84	1200.20
631.19	1192.49
631.53	1185.08
631.88	1177.53
632.22	1170.01
632.57	1162.72
632.91	1155.25
633.26	1147.81
633.60	1140.56
633.95	1133.60
634.29	1126.76
634.64	1120.09
634.98	1112.72
635.32	1105.70
635.67	1099.17
636.01	1092.59
636.36	1085.75
636.70	1079.29
637.05	1072.78
637.39	1066.37
637.73	1059.97
638.08	1054.17
638.42	1048.05
638.77	1041.61
639.11	1035.12
639.45	1028.84
639.80	1022.28
640.14	1015.88
640.49	1009.45
640.83	1003.12
641.17	996.81
641.52	990.51
641.86	984.20
642.20	978.42
642.55	972.03
642.89	965.59
643.23	959.09
643.58	953.35
643.92	947.21
644.26	941.07
644.61	935.09
644.95	929.02
645.29	922.38
645.64	915.69
645.98	909.40
646.32	903.60
646.66	897.53
647.01	891.77
647.35	886.21
647.69	880.45
648.04	875.02
648.38	869.28
648.72	863.21
649.06	857.13
649.41	851.29
649.75	845.39
650.09	839.47
650.43	833.69
650.78	827.58
651.12	821.63
651.46	816.00
651.80	810.23
652.14	804.91
652.49	799.57
652.83	794.42
653.17	788.76
653.51	783.05
653.85	777.69
654.20	772.01
654.54	765.96
654.88	760.20
655.22	754.30
655.56	748.62
655.90	743.28
656.25	738.14
656.59	732.78
656.93	727.76
657.27	722.61
657.61	717.27
657.95	712.16
658.29	707.06
658.64	701.81
658.98	696.47
659.32	690.95
659.66	685.76
660.00	680.47
660.34	675.52
660.68	670.66
661.02	665.60
661.36	660.89
661.70	656.41
662.05	652.06
662.39	647.76
662.73	643.28
663.07	638.90
663.41	634.34
663.75	629.84
664.09	625.27
664.43	620.87
664.77	616.70
665.11	612.49
665.45	608.39
665.79	604.31
666.13	600.25
666.47	596.23
666.81	592.12
667.15	588.08
667.49	584.13
667.83	580.34
668.17	576.46
668.51	572.45
668.85	568.41
669.19	564.56
669.53	560.77
669.87	556.95
670.21	553.27
670.55	549.76
670.89	546.41
671.23	542.95
671.57	539.50
671.91	536.00
672.25	532.54
672.58	529.13
672.92	525.79
673.26	522.63
673.60	519.48
673.94	516.37
674.28	513.44
674.62	510.60
674.96	507.49
675.30	504.58
675.64	501.62
675.97	498.92
676.31	496.11
676.65	493.13
676.99	490.42
677.33	487.54
677.67	484.67
678.01	481.62
678.34	478.68
678.68	475.82
679.02	473.04
679.36	470.31
679.70	467.54
680.04	464.75
680.37	461.95
680.71	459.22
681.05	456.65
681.39	453.93
681.73	451.32
682.06	448.79
682.40	446.26
682.74	443.78
683.08	441.25
683.42	438.65
683.75	436.31
684.09	433.80
684.43	431.37
684.77	428.95
685.10	426.69
685.44	424.44
685.78	422.16
686.12	419.94
686.45	417.70
686.79	415.40
687.13	413.27
687.46	411.09
687.80	409.01
688.14	406.85
688.48	404.87
688.81	402.61
689.15	400.53
689.49	398.43
689.82	396.37
690.16	394.32
690.50	392.42
690.83	390.38
691.17	388.39
691.51	386.52
691.84	384.70
692.18	382.75
692.52	380.76
692.85	378.87
693.19	376.97
693.52	375.17
693.86	373.42
694.20	371.64
694.53	369.84
694.87	367.90
695.21	366.11
695.54	364.24
695.88	362.49
696.21	360.75
696.55	359.05
696.88	357.37
697.22	355.70
697.56	354.03
697.89	352.35
698.23	350.73
698.56	349.11
698.90	347.53
699.23	345.85
699.57	344.32
699.90	342.75
700.24	341.24
700.58	339.62
700.91	338.08
701.25	336.64
701.58	335.27
701.92	333.96
702.25	332.56
702.59	331.22
702.92	329.91
703.26	328.63
703.59	327.36
703.93	326.18
704.26	324.92
704.60	323.62
704.93	322.41
705.26	321.18
705.60	320.01
705.93	318.85
706.27	317.82
706.60	316.76
706.94	315.72
707.27	314.58
707.61	313.56
707.94	312.57
708.27	311.45
708.61	310.37
708.94	309.33
709.28	308.33
709.61	307.36
709.94	306.43
710.28	305.40
710.61	304.44
710.95	303.34
711.28	302.44
711.61	301.47
711.95	300.53
712.28	299.57
712.61	298.63
712.95	297.70
713.28	296.83
713.61	295.92
713.95	295.02
714.28	294.22
714.61	293.36
714.95	292.50
715.28	291.66
715.61	290.83
715.95	289.99
716.28	289.19
716.61	288.36
716.95	287.58
717.28	286.85
717.61	286.09
717.94	285.39
718.28	284.58
718.61	283.93
718.94	283.27
719.27	282.69
719.61	282.03
719.94	281.38
720.27	280.71
720.60	280.07
720.94	279.46
721.27	278.85
721.60	278.31
721.93	277.75
722.27	277.25
722.60	276.70
722.93	276.15
723.26	275.64
723.59	275.09
723.93	274.54
724.26	273.96
724.59	273.43
724.92	272.92
725.25	272.45
725.59	271.95
725.92	271.47
726.25	270.93
726.58	270.47
726.91	269.93
727.24	269.43
727.57	268.99
727.91	268.48
728.24	268.02
728.57	267.55
728.90	267.09
729.23	266.60
729.56	266.18
729.89	265.70
730.22	265.23
730.55	264.81
730.89	264.39
731.22	263.96
731.55	263.55
731.88	263.15
732.21	262.75
732.54	262.34
732.87	261.88
733.20	261.48
733.53	261.08
733.86	260.75
734.19	260.36
734.52	259.97
734.85	259.68
735.18	259.27
735.51	258.90
735.84	258.54
736.17	258.17
736.50	257.75
736.83	257.53
737.16	257.17
737.49	256.81
737.82	256.43
738.15	256.12
738.48	255.75
738.81	255.37
739.14	255.00
739.47	254.66
739.80	254.35
740.13	254.01
740.46	253.67
740.79	253.36
741.12	253.06
741.45	252.71
741.78	252.35
742.11	252.09
742.44	251.76
742.77	251.44
743.10	251.16
743.43	250.86
743.75	250.44
744.08	250.28
744.41	249.99
744.74	249.72
745.07	249.41
745.40	249.19
745.73	248.94
746.06	248.68
746.39	248.42
746.71	248.15
747.04	247.90
747.37	247.64
747.70	247.34
748.03	247.10
748.36	246.89
748.68	246.63
749.01	246.32
749.34	246.09
749.67	245.84
750.00	245.60
750.33	245.48
750.65	245.28
750.98	244.94
751.31	244.72
751.64	244.51
751.97	244.35
752.29	244.11
752.62	243.88
752.95	243.69
753.28	243.47
753.60	243.26
753.93	243.09
754.26	242.89
754.59	242.67
754.91	242.46
755.24	242.24
755.57	242.07
755.90	241.89
756.22	241.71
756.55	241.52
756.88	241.33
757.20	241.07
757.53	240.87
757.86	240.72
758.19	240.59
758.51	240.43
758.84	240.23
759.17	240.07
759.49	239.90
759.82	239.77
760.15	239.65
760.47	239.52
760.80	239.33
761.13	239.21
761.45	239.07
761.78	238.92
762.11	238.80
762.43	238.63
762.76	238.52
763.08	238.42
763.41	238.31
763.74	238.18
764.06	238.02
764.39	237.89
764.71	237.75
765.04	237.60
765.37	237.45
765.69	237.34
766.02	237.21
766.34	237.08
766.67	236.90
767.00	236.78
767.32	236.73
767.65	236.71
767.97	236.63
768.30	236.52
768.62	236.43
768.95	236.33
769.27	236.26
769.60	236.18
769.92	236.04
770.25	235.92
770.57	235.82
770.90	235.77
771.22	235.68
771.55	235.60
771.87	235.50
772.20	235.40
772.52	235.39
772.85	235.40
773.17	235.31
773.50	235.26
773.82	235.15
774.15	234.98
774.47	234.80
774.80	234.68
775.12	234.61
775.45	234.51
775.77	234.45
776.09	234.36
776.42	234.26
776.74	234.19
777.07	234.14
777.39	234.06
777.72	233.94
778.04	233.91
778.36	233.82
778.69	233.75
779.01	233.68
779.33	233.51
779.66	233.32
779.98	233.24
780.31	233.19
780.63	233.15
780.95	233.13
781.28	233.08
781.60	233.00
781.92	232.91
782.25	232.85
782.57	232.74
782.89	232.65
783.22	232.58
783.54	232.52
783.86	232.41
784.19	232.34
784.51	232.32
784.83	232.23
785.16	232.17
785.48	232.12
785.80	232.09
786.12	232.02
786.45	231.97
786.77	231.93
787.09	231.84
787.42	231.76
787.74	231.68
788.06	231.63
788.38	231.54
788.71	231.49
789.03	231.43
789.35	231.43
789.67	231.39
789.99	231.36
790.32	231.26
790.64	231.22
790.96	231.24
791.28	231.17
791.61	231.10
791.93	231.05
792.25	231.00
792.57	231.01
792.89	230.98
793.21	230.94
793.54	230.89
793.86	230.87
794.18	230.83
794.50	230.80
794.82	230.78
795.14	230.78
795.47	230.79
795.79	230.75
796.11	230.68
796.43	230.63
796.75	230.57
797.07	230.57
797.39	230.60
797.71	230.52
798.04	230.50
798.36	230.49
798.68	230.48
799.00	230.46
799.32	230.43
799.64	230.41
799.96	230.40
800.28	230.40
800.60	230.36
800.92	230.36
801.24	230.36
801.56	230.35
801.89	230.32
802.21	230.29
802.53	230.28
802.85	230.30
803.17	230.29
803.49	230.27
803.81	230.26
804.13	230.20
804.45	230.18
804.77	230.17
805.09	230.14
805.41	230.11
805.73	230.06
806.05	230.01
806.37	229.97
806.69	229.96
807.01	229.94
807.33	229.94
807.65	229.89
807.97	229.89
808.28	229.84
808.60	229.82
808.92	229.80
809.24	229.85
809.56	229.81
809.88	229.80
810.20	229.79
810.52	229.79
810.84	229.77
811.16	229.74
811.48	229.72
811.80	229.77
812.12	229.74
812.43	229.73
812.75	229.71
813.07	229.72
813.39	229.69
813.71	229.67
814.03	229.63
814.35	229.62
814.67	229.56
814.98	229.55
815.30	229.54
815.62	229.49
815.94	229.38
816.26	229.42
816.58	229.36
816.89	229.34
817.21	229.30
817.53	229.28
817.85	229.23
818.17	229.19
818.48	229.11
818.80	229.09
819.12	229.06
819.44	229.01
819.76	228.98
820.07	228.97
820.39	228.92
820.71	228.89
821.03	228.84
821.34	228.80
821.66	228.82
821.98	228.80
822.30	228.76
822.61	228.83
822.93	228.75
823.25	228.75
823.57	228.72
823.88	228.73
824.20	228.69
824.52	228.69
824.83	228.68
825.15	228.63
825.47	228.64
825.79	228.62
826.10	228.61
826.42	228.55
826.74	228.52
827.05	228.50
827.37	228.48
827.69	228.47
828.00	228.43
828.32	228.38
828.64	228.36
828.95	228.40
829.27	228.34
829.58	228.29
829.90	228.28
830.22	228.26
830.53	228.25
830.85	228.24
831.17	228.23
831.48	228.19
831.80	228.22
832.11	228.19
832.43	228.17
832.75	228.14
833.06	228.21
833.38	228.20
833.69	228.19
834.01	228.21
834.32	228.18
834.64	228.21
834.96	228.21
835.27	228.18
835.59	228.14
835.90	228.15
836.22	228.17
836.53	228.17
836.85	228.18
837.16	228.24
837.48	228.25
837.79	228.27
838.11	228.30
838.42	228.27
838.74	228.29
839.05	228.31
839.37	228.33
839.68	228.25
840.00	228.26
840.31	228.31
840.63	228.30
840.94	228.29
841.26	228.27
841.57	228.28
841.88	228.28
842.20	228.28
842.51	228.24
842.83	228.24
843.14	228.31
843.46	228.30
843.77	228.25
844.08	228.23
844.40	228.18
844.71	228.21
845.03	228.21
845.34	228.17
845.65	228.16
845.97	228.16
846.28	228.16
846.60	228.16
846.91	228.11
847.22	228.08
847.54	228.10
847.85	228.12
848.16	228.13
848.48	228.13
848.79	228.14
849.10	228.17
849.42	228.15
849.73	228.07
850.04	228.05
850.36	228.03
850.67	228.04
850.98	228.05
851.30	228.05
851.61	228.06
851.92	228.08
852.23	228.10
852.55	228.11
852.86	228.11
853.17	228.11
853.49	228.13
853.80	228.19
854.11	228.20
854.42	228.20
854.74	228.18
855.05	228.19
855.36	228.18
855.67	228.19
855.99	228.17
856.30	228.27
856.61	228.25
856.92	228.22
857.23	228.19
857.55	228.19
857.86	228.15
858.17	228.11
858.48	228.08
858.79	228.08
859.11	228.06
859.42	228.05
859.73	228.03
860.04	227.99
860.35	227.93
860.66	227.88
860.98	227.84
861.29	227.81
861.60	227.78
861.91	227.77
862.22	227.70
862.53	227.66
862.84	227.55
863.16	227.58
863.47	227.57
863.78	227.55
864.09	227.53
864.40	227.54
864.71	227.53
865.02	227.54
865.33	227.51
865.64	227.46
865.95	227.45
866.27	227.48
866.58	227.47
866.89	227.49
867.20	227.45
867.51	227.47
867.82	227.45
868.13	227.47
868.44	227.46
868.75	227.46
869.06	227.47
869.37	227.43
869.68	227.40
869.99	227.44
870.30	227.43
870.61	227.44
870.92	227.42
871.23	227.43
871.54	227.42
871.85	227.41
872.16	227.42
872.47	227.39
872.78	227.34
873.09	227.35
873.40	227.31
873.71	227.32
874.02	227.29
874.33	227.28
874.64	227.23
874.95	227.28
875.26	227.27
875.56	227.25
875.87	227.26
876.18	227.28
876.49	227.36
876.80	227.37
877.11	227.36
877.42	227.36
877.73	227.38
878.04	227.40
878.35	227.41
878.66	227.42
878.96	227.46
879.27	227.44
879.58	227.43
879.89	227.46
880.20	227.53
880.51	227.52
880.82	227.54
881.12	227.58
881.43	227.53
881.74	227.58
882.05	227.60
882.36	227.62
882.67	227.64
882.97	227.50
883.28	227.52
883.59	227.53
883.90	227.55
884.21	227.54
884.51	227.53
884.82	227.54
885.13	227.57
885.44	227.54
885.74	227.57
886.05	227.61
886.36	227.60
886.67	227.54
886.98	227.64
887.28	227.67
887.59	227.65
887.90	227.68
888.20	227.63
888.51	227.69
888.82	227.68
889.13	227.67
889.43	227.76
889.74	227.74
890.05	227.74
890.35	227.74
890.66	227.74
890.97	227.76
891.28	227.73
891.58	227.75
891.89	227.77
892.20	227.76
892.50	227.74
892.81	227.75
893.12	227.78
893.42	227.72
893.73	227.72
894.04	227.72
894.34	227.69
894.65	227.71
894.95	227.65
895.26	227.64
895.57	227.65
895.87	227.57
896.18	227.59
896.48	227.60
896.79	227.55
897.10	227.55
897.40	227.53
897.71	227.53
898.01	227.48
898.32	227.50
898.63	227.50
898.93	227.51
899.24	227.49
899.54	227.46
899.85	227.44
900.15	227.42
900.46	227.42
900.76	227.43
901.07	227.43
901.38	227.43
901.68	227.44
901.99	227.36
902.29	227.35
902.60	227.33
902.90	227.30
903.21	227.31
903.51	227.26
903.82	227.27
904.12	227.29
904.43	227.29
904.73	227.24
905.03	227.23
905.34	227.29
905.64	227.29
905.95	227.29
906.25	227.26
906.56	227.24
906.86	227.21
907.17	227.22
907.47	227.23
907.77	227.19
908.08	227.17
908.38	227.23
908.69	227.19
908.99	227.17
909.30	227.15
909.60	227.15
909.90	227.20
910.21	227.17
910.51	227.13
910.81	227.12
911.12	227.14
911.42	227.14
911.73	227.06
912.03	227.05
912.33	227.05
912.64	227.08
912.94	227.06
913.24	227.06
913.55	227.03
913.85	227.01
914.15	227.01
914.46	227.04
914.76	227.03
915.06	227.05
915.37	227.03
915.67	227.07
915.97	227.05
916.27	227.02
916.58	227.02
916.88	227.04
917.18	227.04
917.49	227.06
917.79	227.08
918.09	227.08
918.39	227.10
918.70	227.12
919.00	227.12
919.30	227.16
919.60	227.14
919.91	227.15
920.21	227.19
920.51	227.21
920.81	227.19
921.12	227.22
921.42	227.24
921.72	227.27
922.02	227.30
922.32	227.38
922.63	227.42
922.93	227.46
923.23	227.46
923.53	227.46
923.83	227.43
924.13	227.42
924.44	227.42
924.74	227.46
925.04	227.49
925.34	227.50
925.64	227.47
925.94	227.49
926.24	227.53
926.55	227.48
926.85	227.50
927.15	227.52
927.45	227.50
927.75	227.47
928.05	227.50
928.35	227.45
928.65	227.41
928.95	227.40
929.26	227.36
929.56	227.37
929.86	227.39
930.16	227.40
930.46	227.41
930.76	227.43
931.06	227.38
931.36	227.34
931.66	227.37
931.96	227.38
932.26	227.38
932.56	227.36
932.86	227.39
933.16	227.37
933.46	227.33
933.76	227.30
934.06	227.33
934.36	227.35
934.66	227.35
934.96	227.34
935.26	227.32
935.56	227.36
935.86	227.32
936.16	227.29
936.46	227.27
936.76	227.20
937.06	227.17
937.36	227.15
937.66	227.14
937.96	227.09
938.26	227.05
938.56	227.04
938.86	227.01
939.16	227.01
939.46	227.00
939.76	227.02
940.06	227.02
940.35	226.99
940.65	226.92
940.95	226.88
941.25	226.91
941.55	226.93
941.85	226.91
942.15	226.93
942.45	226.96
942.75	226.95
943.04	226.98
943.34	227.02
943.64	226.99
943.94	226.97
944.24	226.97
944.54	227.02
944.84	227.02
945.13	227.01
945.43	227.00
945.73	227.01
946.03	227.00
946.33	226.98
946.62	226.99
946.92	227.01
947.22	227.04
947.52	226.99
947.82	226.97
948.11	226.94
948.41	226.94
948.71	226.92
949.01	226.91
949.31	226.92
949.60	226.91
949.90	226.94
950.20	226.96
950.50	226.96
950.79	226.93
951.09	226.92
951.39	226.93
951.69	226.94
951.98	226.98
952.28	226.98
952.58	227.02
952.87	227.01
953.17	227.05
953.47	227.03
953.76	227.05
954.06	227.03
954.36	227.02
954.66	227.03
954.95	227.07
955.25	227.06
955.55	227.05
955.84	227.03
956.14	227.05
956.44	227.05
956.73	227.05
957.03	227.09
957.32	227.10
957.62	227.12
957.92	227.16
958.21	227.14
958.51	227.26
958.81	227.27
959.10	227.29
959.40	227.27
959.69	227.31
959.99	227.33
960.29	227.34
960.58	227.37
960.88	227.41
961.17	227.41
961.47	227.42
961.76	227.42
962.06	227.46
962.36	227.46
962.65	227.47
962.95	227.50
963.24	227.50
963.54	227.49
963.83	227.47
964.13	227.46
964.42	227.43
964.72	227.37
965.01	227.37
965.31	227.37
965.60	227.36
965.90	227.39
966.19	227.36
966.49	227.36
966.78	227.35
967.08	227.33
967.37	227.32
967.67	227.30
967.96	227.34
968.26	227.31
968.55	227.32
968.85	227.32
969.14	227.30
969.43	227.27
969.73	227.30
970.02	227.29
970.32	227.28
970.61	227.28
970.91	227.22
971.20	227.21
971.49	227.24
971.79	227.25
972.08	227.19
972.38	227.17
972.67	227.18
972.96	227.17
973.26	227.14
973.55	227.17
973.85	227.17
974.14	227.13
974.43	227.13
974.73	227.11
975.02	227.07
975.31	227.08
975.61	227.07
975.90	227.06
976.19	227.04
976.49	227.01
976.78	227.01
977.07	227.01
977.37	226.98
977.66	226.93
977.95	226.93
978.24	226.93
978.54	226.96
978.83	226.94
979.12	226.94
979.42	226.93
979.71	226.90
980.00	226.92
980.29	226.95
980.59	226.92
980.88	226.95
981.17	226.99
981.46	226.99
981.76	226.98
982.05	227.00
982.34	227.04
982.63	227.05
982.93	227.06
983.22	227.10
983.51	227.14
983.80	227.18
984.09	227.17
984.39	227.16
984.68	227.11
984.97	227.12
985.26	227.11
985.55	227.08
985.85	227.10
986.14	227.12
986.43	227.10
986.72	227.12
987.01	227.10
987.30	227.08
987.59	227.05
987.89	227.05
988.18	227.04
988.47	227.05
988.76	227.04
989.05	227.04
989.34	226.98
989.63	227.01
989.92	227.01
990.22	226.98
990.51	226.99
990.80	227.04
991.09	227.07
991.38	227.12
991.67	227.16
991.96	227.11
992.25	227.14
992.54	227.14
992.83	227.12
993.12	227.12
993.41	227.13
993.70	227.18
993.99	227.22
994.28	227.23
994.58	227.21
994.87	227.21
995.16	227.20
995.45	227.22
995.74	227.19
996.03	227.18
996.32	227.21
996.61	227.22
996.90	227.24
997.19	227.20
997.48	227.19
997.77	227.18
998.06	227.19
998.34	227.17
998.63	227.20
998.92	227.20
999.21	227.22
999.50	227.22
999.79	227.18
1000.08	227.19
1000.37	227.19
1000.66	227.18
1000.95	227.20
1001.24	227.22
1001.53	227.24
1001.82	227.24
1002.11	227.17
1002.40	227.19
1002.68	227.25
1002.97	227.31
1003.26	227.28
1003.55	227.22
1003.84	227.23
1004.13	227.25
1004.42	227.22
1004.71	227.23
1004.99	227.22
1005.28	227.25
1005.57	227.27
1005.86	227.27
1006.15	227.27
1006.44	227.26
1006.72	227.26
1007.01	227.25
1007.30	227.26
1007.59	227.25
1007.88	227.25
1008.17	227.31
1008.45	227.25
1008.74	227.20
1009.03	227.16
1009.32	227.18
1009.60	227.17
1009.89	227.15
1010.18	227.13
1010.47	227.14
1010.76	227.10
1011.04	227.10
1011.33	227.08
1011.62	227.06
1011.91	227.04
1012.19	227.03
1012.48	227.01
1012.77	227.01
1013.05	227.06
1013.34	227.05
1013.63	227.03
1013.92	227.01
1014.20	227.01
1014.49	227.04
1014.78	227.01
1015.06	226.96
1015.35	226.95
1015.64	226.98
1015.92	227.00
1016.21	227.01
1016.50	226.99
1016.78	226.96
1017.07	226.97
1017.36	226.94
1017.64	226.90
1017.93	226.92
1018.22	226.88
1018.50	226.87
1018.79	226.89
1019.08	226.83
1019.36	226.78
1019.65	226.77
1019.93	226.79
1020.22	226.77
1020.51	226.78
1020.79	226.77
1021.08	226.68
1021.36	226.60
1021.65	227.04
1021.94	226.90
1022.22	226.27
1022.51	226.66
1022.79	227.25
1023.08	226.74
1023.36	227.44
1023.65	226.43
>>>>>End Processed Spectral Data<<<<<
