SpectraSuite Data File
++++++++++++++++++++++++++++++++++++
Date: Fri Feb 01 15:37:45 EST 2013
User: group
Dark Spectrum Present: No
Reference Spectrum Present: No
Number of Sampled Component Spectra: 1
Spectrometers: USB2E7196
Integration Time (usec): 35000 (USB2E7196)
Spectra Averaged: 100 (USB2E7196)
Boxcar Smoothing: 10 (USB2E7196)
Correct for Electrical Dark: No (USB2E7196)
Strobe/Lamp Enabled: No (USB2E7196)
Correct for Detector Non-linearity: No (USB2E7196)
Correct for Stray Light: No (USB2E7196)
Number of Pixels in Processed Spectrum: 2048
>>>>>Begin Processed Spectral Data<<<<<
339.09	0.00
339.48	215.52
339.86	216.65
340.24	218.08
340.63	219.21
341.01	222.18
341.39	222.20
341.78	223.48
342.16	224.67
342.54	224.97
342.93	213.55
343.31	224.36
343.69	224.87
344.07	225.33
344.46	225.73
344.84	226.12
345.22	226.34
345.60	226.54
345.99	226.71
346.37	226.82
346.75	226.90
347.13	226.94
347.52	226.95
347.90	226.95
348.28	226.97
348.66	226.96
349.05	226.94
349.43	226.96
349.81	226.98
350.19	226.99
350.57	227.04
350.96	227.11
351.34	227.16
351.72	227.23
352.10	227.29
352.48	227.34
352.87	227.37
353.25	227.43
353.63	227.51
354.01	227.57
354.39	227.62
354.77	227.71
355.15	227.79
355.54	227.83
355.92	227.90
356.30	227.93
356.68	228.05
357.06	228.10
357.44	228.12
357.82	228.17
358.20	228.23
358.58	228.26
358.97	228.28
359.35	228.33
359.73	228.38
360.11	228.42
360.49	228.50
360.87	228.53
361.25	228.57
361.63	228.61
362.01	228.65
362.39	228.68
362.77	228.72
363.15	228.75
363.53	228.79
363.91	228.78
364.29	228.76
364.67	228.69
365.05	228.71
365.43	228.73
365.81	228.73
366.19	228.80
366.57	228.84
366.95	228.85
367.33	228.82
367.71	228.82
368.09	228.83
368.47	228.78
368.85	228.78
369.23	228.79
369.61	228.75
369.99	228.76
370.37	228.73
370.75	228.75
371.13	228.70
371.51	228.66
371.89	228.62
372.27	228.64
372.65	228.63
373.03	228.58
373.41	228.53
373.78	228.49
374.16	228.41
374.54	228.32
374.92	228.26
375.30	228.23
375.68	228.14
376.06	228.10
376.44	228.04
376.82	227.97
377.19	227.89
377.57	227.83
377.95	227.75
378.33	227.68
378.71	227.55
379.09	227.51
379.47	227.46
379.84	227.42
380.22	227.33
380.60	227.25
380.98	227.21
381.36	227.18
381.73	227.13
382.11	227.05
382.49	227.01
382.87	226.93
383.25	226.88
383.62	226.96
384.00	226.91
384.38	226.87
384.76	226.85
385.13	226.84
385.51	226.77
385.89	226.72
386.27	226.69
386.64	226.66
387.02	226.60
387.40	226.54
387.78	226.51
388.15	226.51
388.53	226.48
388.91	226.45
389.29	226.43
389.66	226.42
390.04	226.40
390.42	226.42
390.79	226.42
391.17	226.42
391.55	226.30
391.92	226.30
392.30	226.29
392.68	226.25
393.05	226.27
393.43	226.31
393.81	226.30
394.18	226.29
394.56	226.29
394.94	226.34
395.31	226.37
395.69	226.40
396.06	226.42
396.44	226.42
396.82	226.42
397.19	226.48
397.57	226.50
397.95	226.55
398.32	226.58
398.70	226.67
399.07	226.73
399.45	226.81
399.82	226.88
400.20	226.94
400.58	227.03
400.95	227.06
401.33	227.18
401.70	227.35
402.08	227.46
402.45	227.58
402.83	227.67
403.20	227.80
403.58	227.90
403.95	228.04
404.33	228.20
404.71	228.36
405.08	228.57
405.46	228.68
405.83	228.86
406.21	228.99
406.58	229.14
406.96	229.29
407.33	229.46
407.70	229.60
408.08	229.85
408.45	230.05
408.83	230.31
409.20	230.50
409.58	230.63
409.95	230.87
410.33	231.13
410.70	231.40
411.08	231.69
411.45	232.01
411.82	232.33
412.20	232.68
412.57	233.08
412.95	233.36
413.32	233.80
413.69	234.17
414.07	234.63
414.44	235.10
414.82	235.57
415.19	236.13
415.56	236.70
415.94	237.27
416.31	237.90
416.68	238.50
417.06	239.23
417.43	239.97
417.81	240.72
418.18	241.51
418.55	242.33
418.93	243.21
419.30	244.12
419.67	245.04
420.04	246.01
420.42	247.00
420.79	248.17
421.16	249.30
421.54	250.53
421.91	251.72
422.28	252.98
422.66	254.30
423.03	255.60
423.40	256.92
423.77	258.34
424.15	259.77
424.52	261.23
424.89	262.82
425.26	264.40
425.64	265.86
426.01	267.45
426.38	269.14
426.75	270.83
427.13	272.53
427.50	274.35
427.87	276.24
428.24	278.13
428.61	279.90
428.99	281.85
429.36	283.93
429.73	286.00
430.10	288.03
430.47	290.09
430.85	292.19
431.22	294.46
431.59	296.83
431.96	299.10
432.33	301.63
432.70	304.05
433.08	306.82
433.45	309.49
433.82	312.11
434.19	315.02
434.56	317.81
434.93	320.49
435.30	323.11
435.68	325.99
436.05	328.82
436.42	331.59
436.79	334.10
437.16	336.82
437.53	339.65
437.90	342.43
438.27	345.21
438.64	348.04
439.01	350.63
439.38	352.91
439.75	355.09
440.13	357.58
440.50	359.86
440.87	361.70
441.24	363.62
441.61	365.80
441.98	367.26
442.35	369.10
442.72	370.94
443.09	372.75
443.46	373.73
443.83	374.30
444.20	374.79
444.57	375.61
444.94	375.89
445.31	376.25
445.68	376.63
446.05	376.70
446.42	376.32
446.79	375.90
447.16	375.41
447.53	375.06
447.90	373.87
448.27	372.74
448.64	371.18
449.01	370.05
449.37	368.07
449.74	366.15
450.11	363.85
450.48	361.41
450.85	358.88
451.22	356.74
451.59	354.71
451.96	352.79
452.33	350.23
452.70	347.86
453.07	345.03
453.43	342.14
453.80	339.37
454.17	336.70
454.54	334.17
454.91	331.46
455.28	328.82
455.65	326.34
456.02	323.90
456.38	321.73
456.75	319.04
457.12	316.75
457.49	314.57
457.86	312.45
458.23	310.58
458.59	308.56
458.96	306.45
459.33	304.61
459.70	302.78
460.07	301.28
460.43	299.54
460.80	297.89
461.17	296.43
461.54	294.96
461.91	293.56
462.27	292.09
462.64	290.86
463.01	289.48
463.38	288.19
463.74	286.83
464.11	285.66
464.48	284.59
464.85	283.52
465.21	282.62
465.58	281.64
465.95	280.50
466.32	279.53
466.68	278.66
467.05	277.77
467.42	276.86
467.78	275.93
468.15	275.08
468.52	274.40
468.88	273.53
469.25	272.73
469.62	272.06
469.98	271.42
470.35	270.75
470.72	270.14
471.08	269.47
471.45	268.91
471.82	268.39
472.18	267.83
472.55	267.38
472.92	266.85
473.28	266.38
473.65	265.92
474.02	265.53
474.38	265.13
474.75	264.77
475.11	264.38
475.48	264.11
475.85	263.89
476.21	263.64
476.58	263.46
476.94	263.31
477.31	263.12
477.67	262.93
478.04	262.83
478.41	262.77
478.77	262.80
479.14	262.72
479.50	262.71
479.87	262.79
480.23	262.89
480.60	262.95
480.96	263.03
481.33	263.27
481.69	263.51
482.06	263.72
482.42	263.92
482.79	264.21
483.15	264.52
483.52	264.87
483.88	265.23
484.25	265.59
484.61	266.03
484.98	266.53
485.34	267.11
485.71	267.69
486.07	268.31
486.44	268.89
486.80	269.60
487.17	270.31
487.53	271.10
487.90	271.92
488.26	272.89
488.62	273.90
488.99	274.85
489.35	275.85
489.72	276.94
490.08	278.16
490.44	279.38
490.81	280.69
491.17	282.05
491.54	283.55
491.90	285.10
492.26	286.74
492.63	288.45
492.99	290.29
493.36	292.23
493.72	294.27
494.08	296.40
494.45	298.64
494.81	301.06
495.17	303.46
495.54	306.00
495.90	308.70
496.26	311.51
496.63	314.48
496.99	317.56
497.35	320.87
497.72	324.23
498.08	327.74
498.44	331.47
498.80	335.38
499.17	339.39
499.53	343.58
499.89	347.97
500.26	352.45
500.62	357.09
500.98	362.03
501.34	367.11
501.71	372.42
502.07	377.82
502.43	383.42
502.79	389.27
503.16	395.37
503.52	401.60
503.88	408.02
504.24	414.69
504.60	421.66
504.97	428.78
505.33	436.12
505.69	443.82
506.05	451.58
506.41	459.49
506.78	467.72
507.14	476.15
507.50	484.82
507.86	493.91
508.22	503.07
508.59	512.28
508.95	521.85
509.31	531.66
509.67	541.84
510.03	552.13
510.39	562.67
510.75	573.46
511.12	584.46
511.48	595.77
511.84	607.22
512.20	618.72
512.56	630.70
512.92	642.98
513.28	655.34
513.64	667.89
514.00	680.61
514.37	693.49
514.73	706.56
515.09	719.69
515.45	732.89
515.81	746.53
516.17	760.53
516.53	774.68
516.89	788.94
517.25	803.10
517.61	817.49
517.97	831.94
518.33	846.38
518.69	861.10
519.05	876.10
519.41	891.29
519.77	906.84
520.13	922.31
520.49	937.63
520.85	953.04
521.21	968.76
521.57	985.00
521.93	1000.86
522.29	1017.28
522.65	1033.52
523.01	1049.79
523.37	1065.80
523.73	1081.98
524.09	1098.02
524.45	1114.30
524.81	1130.92
525.17	1147.81
525.53	1164.76
525.89	1181.72
526.25	1198.54
526.61	1214.92
526.97	1231.65
527.33	1248.16
527.68	1264.64
528.04	1281.11
528.40	1297.82
528.76	1314.76
529.12	1331.37
529.48	1348.20
529.84	1364.24
530.20	1380.99
530.56	1398.09
530.91	1415.63
531.27	1432.41
531.63	1448.94
531.99	1465.51
532.35	1481.58
532.71	1497.47
533.07	1513.67
533.42	1529.51
533.78	1545.55
534.14	1561.86
534.50	1577.25
534.86	1593.12
535.21	1608.43
535.57	1624.50
535.93	1639.98
536.29	1654.81
536.65	1669.84
537.00	1684.71
537.36	1699.93
537.72	1714.33
538.08	1728.71
538.44	1742.41
538.79	1756.35
539.15	1770.23
539.51	1783.99
539.87	1798.26
540.22	1812.05
540.58	1825.98
540.94	1839.36
541.29	1852.36
541.65	1865.17
542.01	1878.43
542.37	1890.72
542.72	1903.05
543.08	1914.77
543.44	1927.07
543.79	1938.40
544.15	1949.46
544.51	1961.11
544.87	1972.11
545.22	1982.96
545.58	1993.20
545.94	2003.06
546.29	2012.78
546.65	2022.59
547.01	2031.86
547.36	2040.70
547.72	2049.19
548.07	2057.04
548.43	2065.23
548.79	2073.37
549.14	2080.89
549.50	2088.24
549.86	2096.05
550.21	2103.40
550.57	2110.54
550.92	2117.20
551.28	2124.16
551.64	2131.19
551.99	2137.55
552.35	2143.71
552.70	2149.86
553.06	2155.88
553.41	2162.24
553.77	2168.43
554.13	2174.50
554.48	2180.62
554.84	2186.03
555.19	2191.33
555.55	2196.40
555.90	2200.80
556.26	2205.58
556.61	2210.29
556.97	2214.49
557.32	2218.49
557.68	2222.64
558.03	2226.99
558.39	2230.64
558.74	2235.37
559.10	2239.24
559.45	2243.03
559.81	2247.33
560.16	2251.21
560.52	2254.42
560.87	2257.74
561.23	2260.40
561.58	2263.29
561.94	2265.80
562.29	2268.09
562.64	2270.67
563.00	2273.23
563.35	2276.69
563.71	2279.78
564.06	2282.90
564.42	2285.71
564.77	2288.26
565.12	2290.52
565.48	2292.27
565.83	2294.23
566.19	2295.43
566.54	2296.42
566.89	2297.40
567.25	2297.90
567.60	2299.00
567.96	2300.52
568.31	2301.41
568.66	2302.44
569.02	2302.81
569.37	2303.08
569.72	2303.96
570.08	2304.04
570.43	2303.95
570.78	2303.52
571.14	2301.93
571.49	2300.64
571.84	2300.29
572.20	2299.09
572.55	2298.03
572.90	2296.59
573.26	2295.18
573.61	2293.43
573.96	2291.49
574.31	2288.54
574.67	2285.54
575.02	2282.00
575.37	2278.57
575.72	2274.73
576.08	2271.35
576.43	2268.13
576.78	2264.46
577.13	2261.24
577.49	2258.26
577.84	2254.87
578.19	2251.05
578.54	2247.33
578.90	2242.89
579.25	2237.27
579.60	2232.26
579.95	2227.16
580.30	2222.01
580.66	2216.77
581.01	2211.92
581.36	2207.00
581.71	2202.65
582.06	2198.21
582.42	2193.66
582.77	2188.49
583.12	2183.84
583.47	2179.05
583.82	2173.93
584.17	2168.70
584.53	2163.12
584.88	2157.39
585.23	2151.51
585.58	2146.09
585.93	2140.81
586.28	2136.10
586.63	2131.03
586.98	2125.84
587.34	2121.22
587.69	2116.31
588.04	2110.95
588.39	2105.11
588.74	2098.76
589.09	2092.68
589.44	2085.98
589.79	2080.00
590.14	2074.30
590.49	2067.61
590.84	2061.28
591.19	2055.16
591.54	2048.54
591.89	2041.25
592.25	2034.45
592.60	2027.24
592.95	2019.48
593.30	2012.01
593.65	2004.46
594.00	1997.53
594.35	1990.33
594.70	1982.12
595.05	1974.99
595.40	1967.73
595.75	1960.26
596.10	1953.91
596.45	1947.09
596.80	1940.89
597.15	1934.19
597.50	1926.99
597.85	1920.70
598.19	1914.03
598.54	1906.94
598.89	1900.35
599.24	1894.50
599.59	1887.68
599.94	1881.53
600.29	1875.15
600.64	1868.58
600.99	1861.03
601.34	1854.12
601.69	1847.20
602.04	1840.44
602.39	1832.93
602.74	1825.97
603.08	1819.23
603.43	1812.51
603.78	1805.22
604.13	1798.00
604.48	1790.62
604.83	1783.84
605.18	1776.69
605.53	1768.61
605.87	1760.59
606.22	1753.38
606.57	1745.34
606.92	1738.05
607.27	1730.83
607.62	1723.88
607.96	1716.47
608.31	1709.81
608.66	1702.07
609.01	1694.38
609.36	1686.75
609.70	1678.72
610.05	1670.62
610.40	1662.83
610.75	1654.40
611.10	1646.70
611.44	1638.10
611.79	1630.16
612.14	1621.49
612.49	1612.33
612.83	1603.96
613.18	1595.85
613.53	1587.69
613.88	1579.04
614.22	1570.75
614.57	1562.10
614.92	1554.05
615.27	1546.53
615.61	1538.26
615.96	1530.34
616.31	1522.76
616.65	1515.43
617.00	1507.77
617.35	1500.20
617.70	1491.76
618.04	1483.32
618.39	1475.01
618.74	1467.55
619.08	1459.22
619.43	1451.71
619.78	1444.83
620.12	1437.60
620.47	1430.10
620.82	1421.99
621.16	1414.76
621.51	1407.14
621.85	1399.46
622.20	1390.93
622.55	1382.50
622.89	1374.63
623.24	1367.02
623.59	1359.64
623.93	1352.06
624.28	1344.90
624.62	1337.29
624.97	1330.22
625.32	1323.42
625.66	1316.44
626.01	1309.14
626.35	1301.73
626.70	1293.85
627.04	1286.07
627.39	1278.34
627.73	1270.93
628.08	1263.86
628.43	1256.42
628.77	1249.03
629.12	1241.55
629.46	1234.44
629.81	1227.14
630.15	1219.88
630.50	1212.44
630.84	1204.24
631.19	1196.34
631.53	1188.87
631.88	1181.36
632.22	1173.81
632.57	1166.52
632.91	1159.09
633.26	1151.71
633.60	1144.30
633.95	1137.36
634.29	1130.35
634.64	1123.66
634.98	1116.34
635.32	1109.30
635.67	1102.73
636.01	1096.05
636.36	1089.22
636.70	1082.73
637.05	1076.12
637.39	1069.68
637.73	1063.15
638.08	1057.33
638.42	1051.33
638.77	1044.95
639.11	1038.40
639.45	1032.06
639.80	1025.43
640.14	1019.00
640.49	1012.58
640.83	1006.38
641.17	1000.11
641.52	993.80
641.86	987.45
642.20	981.66
642.55	975.38
642.89	968.90
643.23	962.44
643.58	956.69
643.92	950.46
644.26	944.35
644.61	938.42
644.95	932.41
645.29	925.76
645.64	919.03
645.98	912.71
646.32	906.92
646.66	900.86
647.01	895.04
647.35	889.25
647.69	883.32
648.04	877.81
648.38	871.98
648.72	865.99
649.06	859.84
649.41	853.94
649.75	847.99
650.09	842.03
650.43	836.27
650.78	830.07
651.12	824.19
651.46	818.42
651.80	812.57
652.14	807.18
652.49	801.86
652.83	796.65
653.17	790.96
653.51	785.08
653.85	779.72
654.20	774.11
654.54	768.06
654.88	762.39
655.22	756.42
655.56	750.72
655.90	745.26
656.25	740.05
656.59	734.64
656.93	729.54
657.27	724.42
657.61	718.99
657.95	713.93
658.29	708.80
658.64	703.66
658.98	698.40
659.32	692.93
659.66	687.66
660.00	682.35
660.34	677.40
660.68	672.53
661.02	667.42
661.36	662.67
661.70	658.24
662.05	653.82
662.39	649.54
662.73	645.06
663.07	640.69
663.41	636.26
663.75	631.77
664.09	627.19
664.43	622.82
664.77	618.68
665.11	614.46
665.45	610.35
665.79	606.22
666.13	602.06
666.47	597.98
666.81	593.85
667.15	589.72
667.49	585.83
667.83	582.05
668.17	578.12
668.51	574.05
668.85	570.03
669.19	566.22
669.53	562.32
669.87	558.47
670.21	554.74
670.55	551.02
670.89	547.60
671.23	544.12
671.57	540.56
671.91	536.95
672.25	533.45
672.58	529.93
672.92	526.47
673.26	523.32
673.60	520.16
673.94	517.02
674.28	514.09
674.62	511.14
674.96	508.05
675.30	505.18
675.64	502.30
675.97	499.51
676.31	496.65
676.65	493.76
676.99	491.08
677.33	488.28
677.67	485.48
678.01	482.39
678.34	479.44
678.68	476.57
679.02	473.87
679.36	471.11
679.70	468.40
680.04	465.73
680.37	462.85
680.71	460.10
681.05	457.54
681.39	454.88
681.73	452.22
682.06	449.78
682.40	447.28
682.74	444.72
683.08	442.24
683.42	439.65
683.75	437.16
684.09	434.61
684.43	432.10
684.77	429.67
685.10	427.41
685.44	425.16
685.78	422.90
686.12	420.61
686.45	418.34
686.79	416.07
687.13	413.87
687.46	411.73
687.80	409.56
688.14	407.34
688.48	405.28
688.81	402.96
689.15	400.72
689.49	398.57
689.82	396.51
690.16	394.39
690.50	392.45
690.83	390.50
691.17	388.53
691.51	386.68
691.84	384.82
692.18	382.82
692.52	380.86
692.85	378.93
693.19	377.06
693.52	375.23
693.86	373.42
694.20	371.65
694.53	369.83
694.87	368.02
695.21	366.27
695.54	364.49
695.88	362.87
696.21	361.15
696.55	359.43
696.88	357.76
697.22	356.16
697.56	354.55
697.89	352.93
698.23	351.33
698.56	349.69
698.90	348.12
699.23	346.52
699.57	344.95
699.90	343.44
700.24	341.93
700.58	340.38
700.91	338.85
701.25	337.37
701.58	336.01
701.92	334.66
702.25	333.23
702.59	331.82
702.92	330.49
703.26	329.22
703.59	327.94
703.93	326.73
704.26	325.45
704.60	324.13
704.93	322.86
705.26	321.57
705.60	320.40
705.93	319.23
706.27	318.16
706.60	317.13
706.94	315.99
707.27	314.82
707.61	313.79
707.94	312.77
708.27	311.70
708.61	310.62
708.94	309.60
709.28	308.64
709.61	307.69
709.94	306.67
710.28	305.62
710.61	304.67
710.95	303.61
711.28	302.75
711.61	301.83
711.95	300.89
712.28	299.97
712.61	299.01
712.95	298.05
713.28	297.19
713.61	296.29
713.95	295.43
714.28	294.56
714.61	293.68
714.95	292.86
715.28	292.03
715.61	291.18
715.95	290.31
716.28	289.45
716.61	288.63
716.95	287.86
717.28	287.13
717.61	286.39
717.94	285.63
718.28	284.79
718.61	284.03
718.94	283.35
719.27	282.69
719.61	282.08
719.94	281.44
720.27	280.74
720.60	280.05
720.94	279.42
721.27	278.86
721.60	278.29
721.93	277.68
722.27	277.12
722.60	276.54
722.93	275.96
723.26	275.45
723.59	274.88
723.93	274.35
724.26	273.80
724.59	273.24
724.92	272.75
725.25	272.29
725.59	271.75
725.92	271.27
726.25	270.77
726.58	270.24
726.91	269.75
727.24	269.30
727.57	268.84
727.91	268.36
728.24	267.93
728.57	267.47
728.90	267.00
729.23	266.52
729.56	266.12
729.89	265.66
730.22	265.21
730.55	264.76
730.89	264.32
731.22	263.91
731.55	263.45
731.88	263.05
732.21	262.59
732.54	262.20
732.87	261.76
733.20	261.36
733.53	260.98
733.86	260.60
734.19	260.18
734.52	259.80
734.85	259.48
735.18	259.04
735.51	258.64
735.84	258.29
736.17	257.91
736.50	257.48
736.83	257.25
737.16	256.88
737.49	256.57
737.82	256.21
738.15	255.87
738.48	255.53
738.81	255.17
739.14	254.86
739.47	254.56
739.80	254.27
740.13	253.97
740.46	253.64
740.79	253.31
741.12	253.01
741.45	252.69
741.78	252.33
742.11	252.05
742.44	251.74
742.77	251.46
743.10	251.19
743.43	250.88
743.75	250.49
744.08	250.35
744.41	250.05
744.74	249.78
745.07	249.45
745.40	249.20
745.73	248.96
746.06	248.65
746.39	248.33
746.71	248.04
747.04	247.75
747.37	247.48
747.70	247.25
748.03	247.02
748.36	246.78
748.68	246.54
749.01	246.31
749.34	246.04
749.67	245.77
750.00	245.53
750.33	245.39
750.65	245.18
750.98	244.82
751.31	244.59
751.64	244.36
751.97	244.22
752.29	244.00
752.62	243.75
752.95	243.56
753.28	243.37
753.60	243.13
753.93	242.96
754.26	242.76
754.59	242.52
754.91	242.28
755.24	242.08
755.57	241.87
755.90	241.64
756.22	241.48
756.55	241.31
756.88	241.13
757.20	240.92
757.53	240.72
757.86	240.56
758.19	240.39
758.51	240.22
758.84	240.01
759.17	239.83
759.49	239.67
759.82	239.57
760.15	239.42
760.47	239.29
760.80	239.11
761.13	238.99
761.45	238.86
761.78	238.73
762.11	238.58
762.43	238.46
762.76	238.34
763.08	238.20
763.41	238.07
763.74	237.93
764.06	237.76
764.39	237.59
764.71	237.44
765.04	237.35
765.37	237.21
765.69	237.08
766.02	236.96
766.34	236.84
766.67	236.69
767.00	236.61
767.32	236.55
767.65	236.51
767.97	236.38
768.30	236.27
768.62	236.15
768.95	236.05
769.27	235.92
769.60	235.83
769.92	235.71
770.25	235.61
770.57	235.53
770.90	235.44
771.22	235.35
771.55	235.27
771.87	235.17
772.20	235.08
772.52	235.09
772.85	235.10
773.17	234.99
773.50	234.85
773.82	234.72
774.15	234.53
774.47	234.39
774.80	234.30
775.12	234.21
775.45	234.11
775.77	234.01
776.09	233.92
776.42	233.83
776.74	233.78
777.07	233.69
777.39	233.60
777.72	233.50
778.04	233.47
778.36	233.38
778.69	233.33
779.01	233.27
779.33	233.11
779.66	232.93
779.98	232.88
780.31	232.84
780.63	232.81
780.95	232.79
781.28	232.70
781.60	232.60
781.92	232.53
782.25	232.46
782.57	232.44
782.89	232.36
783.22	232.31
783.54	232.25
783.86	232.18
784.19	232.10
784.51	232.05
784.83	231.95
785.16	231.91
785.48	231.82
785.80	231.77
786.12	231.72
786.45	231.66
786.77	231.62
787.09	231.53
787.42	231.43
787.74	231.37
788.06	231.34
788.38	231.34
788.71	231.29
789.03	231.26
789.35	231.24
789.67	231.21
789.99	231.16
790.32	231.08
790.64	231.03
790.96	231.04
791.28	230.97
791.61	230.94
791.93	230.89
792.25	230.85
792.57	230.85
792.89	230.78
793.21	230.76
793.54	230.71
793.86	230.67
794.18	230.66
794.50	230.63
794.82	230.57
795.14	230.52
795.47	230.48
795.79	230.46
796.11	230.38
796.43	230.34
796.75	230.31
797.07	230.27
797.39	230.23
797.71	230.16
798.04	230.16
798.36	230.11
798.68	230.05
799.00	230.01
799.32	229.91
799.64	229.93
799.96	229.87
800.28	229.84
800.60	229.82
800.92	229.81
801.24	229.76
801.56	229.73
801.89	229.68
802.21	229.68
802.53	229.60
802.85	229.57
803.17	229.60
803.49	229.53
803.81	229.51
804.13	229.47
804.45	229.44
804.77	229.42
805.09	229.41
805.41	229.41
805.73	229.39
806.05	229.33
806.37	229.29
806.69	229.25
807.01	229.20
807.33	229.18
807.65	229.12
807.97	229.14
808.28	229.12
808.60	229.11
808.92	229.09
809.24	229.13
809.56	229.13
809.88	229.07
810.20	229.06
810.52	229.06
810.84	229.03
811.16	228.99
811.48	228.96
811.80	228.99
812.12	228.96
812.43	228.97
812.75	228.98
813.07	228.94
813.39	228.97
813.71	228.95
814.03	228.93
814.35	228.89
814.67	228.84
814.98	228.80
815.30	228.77
815.62	228.70
815.94	228.63
816.26	228.64
816.58	228.61
816.89	228.61
817.21	228.57
817.53	228.58
817.85	228.57
818.17	228.57
818.48	228.50
818.80	228.48
819.12	228.44
819.44	228.43
819.76	228.41
820.07	228.36
820.39	228.38
820.71	228.35
821.03	228.37
821.34	228.37
821.66	228.39
821.98	228.38
822.30	228.37
822.61	228.44
822.93	228.34
823.25	228.28
823.57	228.25
823.88	228.27
824.20	228.24
824.52	228.27
824.83	228.23
825.15	228.18
825.47	228.18
825.79	228.18
826.10	228.14
826.42	228.13
826.74	228.12
827.05	228.12
827.37	228.13
827.69	228.09
828.00	228.06
828.32	228.01
828.64	227.97
828.95	228.02
829.27	227.97
829.58	227.98
829.90	228.04
830.22	228.02
830.53	227.99
830.85	227.97
831.17	227.90
831.48	227.89
831.80	227.89
832.11	227.86
832.43	227.85
832.75	227.86
833.06	227.91
833.38	227.89
833.69	227.86
834.01	227.85
834.32	227.86
834.64	227.81
834.96	227.84
835.27	227.85
835.59	227.80
835.90	227.75
836.22	227.74
836.53	227.69
836.85	227.69
837.16	227.75
837.48	227.73
837.79	227.78
838.11	227.79
838.42	227.80
838.74	227.82
839.05	227.78
839.37	227.76
839.68	227.68
840.00	227.70
840.31	227.70
840.63	227.69
840.94	227.70
841.26	227.69
841.57	227.68
841.88	227.67
842.20	227.67
842.51	227.65
842.83	227.68
843.14	227.78
843.46	227.77
843.77	227.73
844.08	227.74
844.40	227.68
844.71	227.68
845.03	227.67
845.34	227.62
845.65	227.61
845.97	227.59
846.28	227.61
846.60	227.60
846.91	227.58
847.22	227.59
847.54	227.58
847.85	227.61
848.16	227.59
848.48	227.59
848.79	227.64
849.10	227.68
849.42	227.66
849.73	227.55
850.04	227.56
850.36	227.51
850.67	227.52
850.98	227.55
851.30	227.56
851.61	227.52
851.92	227.56
852.23	227.62
852.55	227.63
852.86	227.64
853.17	227.66
853.49	227.67
853.80	227.65
854.11	227.65
854.42	227.64
854.74	227.62
855.05	227.60
855.36	227.52
855.67	227.51
855.99	227.53
856.30	227.65
856.61	227.64
856.92	227.66
857.23	227.65
857.55	227.59
857.86	227.54
858.17	227.58
858.48	227.51
858.79	227.50
859.11	227.49
859.42	227.48
859.73	227.43
860.04	227.42
860.35	227.42
860.66	227.40
860.98	227.40
861.29	227.40
861.60	227.40
861.91	227.48
862.22	227.43
862.53	227.37
862.84	227.27
863.16	227.26
863.47	227.24
863.78	227.23
864.09	227.27
864.40	227.28
864.71	227.27
865.02	227.31
865.33	227.29
865.64	227.25
865.95	227.26
866.27	227.29
866.58	227.28
866.89	227.26
867.20	227.24
867.51	227.17
867.82	227.18
868.13	227.20
868.44	227.15
868.75	227.17
869.06	227.18
869.37	227.15
869.68	227.13
869.99	227.14
870.30	227.17
870.61	227.17
870.92	227.15
871.23	227.16
871.54	227.18
871.85	227.19
872.16	227.21
872.47	227.18
872.78	227.15
873.09	227.17
873.40	227.16
873.71	227.18
874.02	227.21
874.33	227.18
874.64	227.15
874.95	227.17
875.26	227.16
875.56	227.14
875.87	227.16
876.18	227.16
876.49	227.24
876.80	227.20
877.11	227.18
877.42	227.18
877.73	227.18
878.04	227.14
878.35	227.13
878.66	227.15
878.96	227.15
879.27	227.16
879.58	227.16
879.89	227.18
880.20	227.19
880.51	227.21
880.82	227.24
881.12	227.26
881.43	227.24
881.74	227.25
882.05	227.29
882.36	227.27
882.67	227.29
882.97	227.24
883.28	227.23
883.59	227.22
883.90	227.28
884.21	227.28
884.51	227.28
884.82	227.28
885.13	227.27
885.44	227.29
885.74	227.24
886.05	227.21
886.36	227.16
886.67	227.14
886.98	227.19
887.28	227.18
887.59	227.19
887.90	227.19
888.20	227.17
888.51	227.15
888.82	227.13
889.13	227.12
889.43	227.14
889.74	227.16
890.05	227.13
890.35	227.08
890.66	227.05
890.97	227.06
891.28	227.04
891.58	227.04
891.89	227.01
892.20	227.02
892.50	226.99
892.81	227.02
893.12	227.02
893.42	226.96
893.73	226.96
894.04	226.95
894.34	226.95
894.65	226.97
894.95	226.98
895.26	226.99
895.57	226.99
895.87	226.91
896.18	226.90
896.48	226.91
896.79	226.93
897.10	226.96
897.40	226.99
897.71	227.01
898.01	227.02
898.32	227.02
898.63	227.03
898.93	227.05
899.24	227.06
899.54	227.05
899.85	227.04
900.15	227.05
900.46	227.04
900.76	227.06
901.07	227.05
901.38	227.06
901.68	227.09
901.99	227.09
902.29	227.11
902.60	227.10
902.90	227.12
903.21	227.11
903.51	227.10
903.82	227.08
904.12	227.08
904.43	227.07
904.73	227.06
905.03	227.08
905.34	227.19
905.64	227.18
905.95	227.19
906.25	227.18
906.56	227.16
906.86	227.14
907.17	227.11
907.47	227.13
907.77	227.09
908.08	227.06
908.38	227.07
908.69	227.08
908.99	227.12
909.30	227.12
909.60	227.13
909.90	227.15
910.21	227.12
910.51	227.13
910.81	227.14
911.12	227.17
911.42	227.18
911.73	227.07
912.03	227.09
912.33	227.06
912.64	227.08
912.94	227.09
913.24	227.10
913.55	227.13
913.85	227.08
914.15	227.13
914.46	227.14
914.76	227.12
915.06	227.12
915.37	227.08
915.67	227.04
915.97	227.04
916.27	227.01
916.58	227.03
916.88	227.02
917.18	226.98
917.49	227.04
917.79	227.04
918.09	227.06
918.39	227.09
918.70	227.11
919.00	227.11
919.30	227.13
919.60	227.12
919.91	227.11
920.21	227.12
920.51	227.07
920.81	227.05
921.12	227.06
921.42	227.02
921.72	227.05
922.02	227.10
922.32	227.12
922.63	227.11
922.93	227.16
923.23	227.15
923.53	227.14
923.83	227.09
924.13	227.09
924.44	227.08
924.74	227.09
925.04	227.10
925.34	227.10
925.64	227.07
925.94	227.05
926.24	227.09
926.55	227.10
926.85	227.12
927.15	227.13
927.45	227.15
927.75	227.16
928.05	227.14
928.35	227.08
928.65	227.08
928.95	227.09
929.26	227.04
929.56	227.03
929.86	227.03
930.16	226.98
930.46	226.96
930.76	226.96
931.06	226.92
931.36	226.89
931.66	226.87
931.96	226.87
932.26	226.87
932.56	226.82
932.86	226.80
933.16	226.80
933.46	226.80
933.76	226.75
934.06	226.79
934.36	226.85
934.66	226.83
934.96	226.82
935.26	226.81
935.56	226.80
935.86	226.77
936.16	226.81
936.46	226.79
936.76	226.79
937.06	226.76
937.36	226.76
937.66	226.76
937.96	226.78
938.26	226.77
938.56	226.77
938.86	226.78
939.16	226.80
939.46	226.82
939.76	226.82
940.06	226.83
940.35	226.77
940.65	226.73
940.95	226.75
941.25	226.72
941.55	226.69
941.85	226.68
942.15	226.73
942.45	226.73
942.75	226.77
943.04	226.81
943.34	226.84
943.64	226.84
943.94	226.85
944.24	226.82
944.54	226.83
944.84	226.84
945.13	226.85
945.43	226.86
945.73	226.86
946.03	226.83
946.33	226.84
946.62	226.86
946.92	226.86
947.22	226.88
947.52	226.90
947.82	226.97
948.11	226.97
948.41	226.94
948.71	226.93
949.01	226.92
949.31	226.88
949.60	226.88
949.90	226.89
950.20	226.88
950.50	226.90
950.79	226.92
951.09	226.93
951.39	226.92
951.69	226.91
951.98	226.91
952.28	226.94
952.58	226.94
952.87	226.94
953.17	226.93
953.47	226.91
953.76	226.93
954.06	226.91
954.36	226.91
954.66	226.91
954.95	226.95
955.25	226.96
955.55	227.00
955.84	226.99
956.14	226.99
956.44	227.01
956.73	227.00
957.03	226.98
957.32	226.98
957.62	226.96
957.92	226.96
958.21	226.92
958.51	227.02
958.81	227.03
959.10	227.02
959.40	227.06
959.69	227.08
959.99	227.08
960.29	227.09
960.58	227.09
960.88	227.12
961.17	227.08
961.47	227.08
961.76	227.05
962.06	227.06
962.36	227.03
962.65	227.00
962.95	226.99
963.24	227.00
963.54	227.00
963.83	227.00
964.13	227.02
964.42	226.99
964.72	226.93
965.01	226.91
965.31	226.92
965.60	226.87
965.90	226.91
966.19	226.84
966.49	226.80
966.78	226.79
967.08	226.77
967.37	226.78
967.67	226.73
967.96	226.72
968.26	226.67
968.55	226.71
968.85	226.70
969.14	226.71
969.43	226.69
969.73	226.69
970.02	226.69
970.32	226.64
970.61	226.65
970.91	226.60
971.20	226.56
971.49	226.52
971.79	226.51
972.08	226.47
972.38	226.52
972.67	226.49
972.96	226.48
973.26	226.46
973.55	226.50
973.85	226.49
974.14	226.53
974.43	226.55
974.73	226.50
975.02	226.51
975.31	226.49
975.61	226.51
975.90	226.50
976.19	226.49
976.49	226.52
976.78	226.53
977.07	226.54
977.37	226.54
977.66	226.55
977.95	226.56
978.24	226.56
978.54	226.57
978.83	226.58
979.12	226.57
979.42	226.59
979.71	226.56
980.00	226.58
980.29	226.59
980.59	226.56
980.88	226.59
981.17	226.56
981.46	226.59
981.76	226.59
982.05	226.60
982.34	226.63
982.63	226.60
982.93	226.61
983.22	226.63
983.51	226.66
983.80	226.69
984.09	226.71
984.39	226.68
984.68	226.65
984.97	226.71
985.26	226.72
985.55	226.75
985.85	226.75
986.14	226.75
986.43	226.75
986.72	226.76
987.01	226.76
987.30	226.77
987.59	226.77
987.89	226.77
988.18	226.77
988.47	226.76
988.76	226.81
989.05	226.82
989.34	226.79
989.63	226.83
989.92	226.82
990.22	226.82
990.51	226.84
990.80	226.86
991.09	226.85
991.38	226.84
991.67	226.79
991.96	226.78
992.25	226.78
992.54	226.74
992.83	226.74
993.12	226.72
993.41	226.75
993.70	226.79
993.99	226.80
994.28	226.80
994.58	226.82
994.87	226.78
995.16	226.77
995.45	226.76
995.74	226.74
996.03	226.76
996.32	226.77
996.61	226.76
996.90	226.73
997.19	226.71
997.48	226.74
997.77	226.76
998.06	226.74
998.34	226.74
998.63	226.76
998.92	226.75
999.21	226.79
999.50	226.77
999.79	226.73
1000.08	226.73
1000.37	226.72
1000.66	226.72
1000.95	226.75
1001.24	226.72
1001.53	226.75
1001.82	226.75
1002.11	226.71
1002.40	226.68
1002.68	226.72
1002.97	226.81
1003.26	226.81
1003.55	226.79
1003.84	226.80
1004.13	226.87
1004.42	226.88
1004.71	226.89
1004.99	226.91
1005.28	226.90
1005.57	226.90
1005.86	226.88
1006.15	226.88
1006.44	226.84
1006.72	226.84
1007.01	226.81
1007.30	226.84
1007.59	226.84
1007.88	226.83
1008.17	226.86
1008.45	226.88
1008.74	226.83
1009.03	226.77
1009.32	226.79
1009.60	226.77
1009.89	226.74
1010.18	226.68
1010.47	226.63
1010.76	226.64
1011.04	226.63
1011.33	226.72
1011.62	226.74
1011.91	226.75
1012.19	226.74
1012.48	226.76
1012.77	226.75
1013.05	226.79
1013.34	226.81
1013.63	226.77
1013.92	226.78
1014.20	226.77
1014.49	226.74
1014.78	226.77
1015.06	226.73
1015.35	226.74
1015.64	226.76
1015.92	226.77
1016.21	226.75
1016.50	226.77
1016.78	226.79
1017.07	226.83
1017.36	226.74
1017.64	226.74
1017.93	226.73
1018.22	226.73
1018.50	226.75
1018.79	226.77
1019.08	226.73
1019.36	226.73
1019.65	226.74
1019.93	226.77
1020.22	226.79
1020.51	226.85
1020.79	226.81
1021.08	226.54
1021.36	226.93
1021.65	227.24
1021.94	226.54
1022.22	227.18
1022.51	226.69
1022.79	227.24
1023.08	227.16
1023.36	227.51
1023.65	226.01
>>>>>End Processed Spectral Data<<<<<
