SpectraSuite Data File
++++++++++++++++++++++++++++++++++++
Date: Fri Feb 01 16:14:21 EST 2013
User: group
Dark Spectrum Present: No
Reference Spectrum Present: No
Number of Sampled Component Spectra: 1
Spectrometers: USB2E7196
Integration Time (usec): 35000 (USB2E7196)
Spectra Averaged: 100 (USB2E7196)
Boxcar Smoothing: 10 (USB2E7196)
Correct for Electrical Dark: No (USB2E7196)
Strobe/Lamp Enabled: No (USB2E7196)
Correct for Detector Non-linearity: No (USB2E7196)
Correct for Stray Light: No (USB2E7196)
Number of Pixels in Processed Spectrum: 2048
>>>>>Begin Processed Spectral Data<<<<<
339.09	0.00
339.48	214.09
339.86	215.53
340.24	217.42
340.63	218.22
341.01	220.73
341.39	221.26
341.78	222.55
342.16	223.95
342.54	224.16
342.93	212.62
343.31	223.37
343.69	223.91
344.07	224.39
344.46	224.81
344.84	225.18
345.22	225.43
345.60	225.67
345.99	225.84
346.37	225.96
346.75	226.06
347.13	226.14
347.52	226.18
347.90	226.23
348.28	226.29
348.66	226.34
349.05	226.33
349.43	226.39
349.81	226.47
350.19	226.56
350.57	226.58
350.96	226.62
351.34	226.71
351.72	226.81
352.10	226.91
352.48	227.00
352.87	227.08
353.25	227.17
353.63	227.24
354.01	227.33
354.39	227.44
354.77	227.53
355.15	227.63
355.54	227.73
355.92	227.77
356.30	227.83
356.68	227.94
357.06	228.02
357.44	228.08
357.82	228.12
358.20	228.18
358.58	228.25
358.97	228.36
359.35	228.41
359.73	228.50
360.11	228.55
360.49	228.58
360.87	228.62
361.25	228.66
361.63	228.73
362.01	228.75
362.39	228.75
362.77	228.76
363.15	228.77
363.53	228.78
363.91	228.81
364.29	228.82
364.67	228.72
365.05	228.74
365.43	228.73
365.81	228.75
366.19	228.79
366.57	228.80
366.95	228.77
367.33	228.71
367.71	228.65
368.09	228.68
368.47	228.69
368.85	228.66
369.23	228.64
369.61	228.58
369.99	228.60
370.37	228.56
370.75	228.58
371.13	228.54
371.51	228.48
371.89	228.44
372.27	228.38
372.65	228.38
373.03	228.30
373.41	228.26
373.78	228.15
374.16	228.02
374.54	227.94
374.92	227.88
375.30	227.85
375.68	227.78
376.06	227.69
376.44	227.59
376.82	227.54
377.19	227.47
377.57	227.38
377.95	227.26
378.33	227.19
378.71	227.06
379.09	226.97
379.47	226.91
379.84	226.82
380.22	226.74
380.60	226.64
380.98	226.59
381.36	226.50
381.73	226.47
382.11	226.41
382.49	226.39
382.87	226.30
383.25	226.25
383.62	226.30
384.00	226.23
384.38	226.16
384.76	226.12
385.13	226.11
385.51	226.09
385.89	226.03
386.27	225.98
386.64	225.95
387.02	225.92
387.40	225.89
387.78	225.88
388.15	225.86
388.53	225.86
388.91	225.81
389.29	225.79
389.66	225.77
390.04	225.74
390.42	225.70
390.79	225.70
391.17	225.66
391.55	225.54
391.92	225.54
392.30	225.55
392.68	225.55
393.05	225.54
393.43	225.52
393.81	225.55
394.18	225.54
394.56	225.57
394.94	225.61
395.31	225.61
395.69	225.66
396.06	225.72
396.44	225.73
396.82	225.79
397.19	225.85
397.57	225.89
397.95	225.96
398.32	225.99
398.70	226.08
399.07	226.18
399.45	226.26
399.82	226.31
400.20	226.36
400.58	226.42
400.95	226.46
401.33	226.56
401.70	226.73
402.08	226.85
402.45	226.92
402.83	227.05
403.20	227.17
403.58	227.28
403.95	227.38
404.33	227.51
404.71	227.61
405.08	227.80
405.46	227.94
405.83	228.08
406.21	228.22
406.58	228.37
406.96	228.54
407.33	228.71
407.70	228.91
408.08	229.16
408.45	229.38
408.83	229.63
409.20	229.86
409.58	230.01
409.95	230.27
410.33	230.56
410.70	230.82
411.08	231.10
411.45	231.40
411.82	231.70
412.20	232.04
412.57	232.48
412.95	232.77
413.32	233.17
413.69	233.57
414.07	234.06
414.44	234.52
414.82	234.99
415.19	235.52
415.56	236.06
415.94	236.62
416.31	237.27
416.68	237.86
417.06	238.58
417.43	239.28
417.81	240.06
418.18	240.83
418.55	241.65
418.93	242.53
419.30	243.43
419.67	244.38
420.04	245.36
420.42	246.34
420.79	247.52
421.16	248.68
421.54	249.88
421.91	251.04
422.28	252.28
422.66	253.62
423.03	254.93
423.40	256.25
423.77	257.65
424.15	259.08
424.52	260.62
424.89	262.24
425.26	263.77
425.64	265.21
426.01	266.76
426.38	268.43
426.75	270.10
427.13	271.78
427.50	273.59
427.87	275.44
428.24	277.33
428.61	279.08
428.99	280.98
429.36	283.09
429.73	285.17
430.10	287.19
430.47	289.26
430.85	291.40
431.22	293.61
431.59	296.00
431.96	298.25
432.33	300.69
432.70	303.03
433.08	305.82
433.45	308.45
433.82	311.07
434.19	314.00
434.56	316.78
434.93	319.44
435.30	322.02
435.68	324.90
436.05	327.68
436.42	330.44
436.79	332.95
437.16	335.64
437.53	338.50
437.90	341.31
438.27	344.00
438.64	346.82
439.01	349.45
439.38	351.67
439.75	353.79
440.13	356.23
440.50	358.54
440.87	360.40
441.24	362.36
441.61	364.55
441.98	365.96
442.35	367.78
442.72	369.61
443.09	371.43
443.46	372.43
443.83	373.02
444.20	373.54
444.57	374.37
444.94	374.66
445.31	374.95
445.68	375.26
446.05	375.35
446.42	374.95
446.79	374.55
447.16	374.11
447.53	373.78
447.90	372.68
448.27	371.52
448.64	369.94
449.01	368.73
449.37	366.73
449.74	364.85
450.11	362.62
450.48	360.16
450.85	357.63
451.22	355.50
451.59	353.45
451.96	351.51
452.33	348.89
452.70	346.49
453.07	343.67
453.43	340.85
453.80	338.12
454.17	335.46
454.54	332.89
454.91	330.15
455.28	327.49
455.65	324.99
456.02	322.56
456.38	320.42
456.75	317.76
457.12	315.52
457.49	313.30
457.86	311.16
458.23	309.34
458.59	307.33
458.96	305.23
459.33	303.40
459.70	301.57
460.07	300.10
460.43	298.41
460.80	296.82
461.17	295.34
461.54	293.84
461.91	292.43
462.27	290.97
462.64	289.69
463.01	288.37
463.38	287.08
463.74	285.71
464.11	284.51
464.48	283.52
464.85	282.39
465.21	281.55
465.58	280.60
465.95	279.48
466.32	278.60
466.68	277.73
467.05	276.89
467.42	275.99
467.78	275.10
468.15	274.21
468.52	273.54
468.88	272.69
469.25	271.89
469.62	271.25
469.98	270.60
470.35	269.99
470.72	269.41
471.08	268.80
471.45	268.27
471.82	267.78
472.18	267.19
472.55	266.77
472.92	266.24
473.28	265.76
473.65	265.33
474.02	264.89
474.38	264.54
474.75	264.19
475.11	263.85
475.48	263.56
475.85	263.36
476.21	263.15
476.58	263.01
476.94	262.88
477.31	262.72
477.67	262.58
478.04	262.49
478.41	262.44
478.77	262.43
479.14	262.42
479.50	262.42
479.87	262.51
480.23	262.63
480.60	262.70
480.96	262.84
481.33	263.07
481.69	263.23
482.06	263.43
482.42	263.62
482.79	263.93
483.15	264.23
483.52	264.64
483.88	264.97
484.25	265.36
484.61	265.79
484.98	266.29
485.34	266.85
485.71	267.46
486.07	268.07
486.44	268.69
486.80	269.38
487.17	270.13
487.53	270.94
487.90	271.79
488.26	272.74
488.62	273.72
488.99	274.70
489.35	275.74
489.72	276.83
490.08	278.07
490.44	279.27
490.81	280.61
491.17	281.94
491.54	283.44
491.90	284.97
492.26	286.65
492.63	288.36
492.99	290.15
493.36	292.04
493.72	294.09
494.08	296.17
494.45	298.44
494.81	300.80
495.17	303.26
495.54	305.82
495.90	308.53
496.26	311.36
496.63	314.32
496.99	317.43
497.35	320.76
497.72	324.15
498.08	327.67
498.44	331.38
498.80	335.31
499.17	339.36
499.53	343.55
499.89	347.93
500.26	352.47
500.62	357.16
500.98	362.17
501.34	367.25
501.71	372.60
502.07	378.02
502.43	383.61
502.79	389.39
503.16	395.48
503.52	401.78
503.88	408.13
504.24	414.77
504.60	421.64
504.97	428.74
505.33	436.03
505.69	443.78
506.05	451.56
506.41	459.43
506.78	467.63
507.14	476.06
507.50	484.70
507.86	493.69
508.22	502.90
508.59	512.11
508.95	521.71
509.31	531.57
509.67	541.63
510.03	551.98
510.39	562.57
510.75	573.32
511.12	584.17
511.48	595.49
511.84	606.98
512.20	618.51
512.56	630.47
512.92	642.67
513.28	655.03
513.64	667.47
514.00	680.23
514.37	693.13
514.73	706.14
515.09	719.34
515.45	732.59
515.81	746.15
516.17	760.11
516.53	774.25
516.89	788.35
517.25	802.53
517.61	816.92
517.97	831.49
518.33	845.97
518.69	860.78
519.05	875.72
519.41	890.74
519.77	906.29
520.13	921.74
520.49	937.10
520.85	952.40
521.21	968.12
521.57	984.29
521.93	999.97
522.29	1016.41
522.65	1032.48
523.01	1048.62
523.37	1064.60
523.73	1080.75
524.09	1096.78
524.45	1113.00
524.81	1129.68
525.17	1146.39
525.53	1163.04
525.89	1179.79
526.25	1196.58
526.61	1212.90
526.97	1229.64
527.33	1246.14
527.68	1262.64
528.04	1279.01
528.40	1295.57
528.76	1312.56
529.12	1329.07
529.48	1345.97
529.84	1361.86
530.20	1378.36
530.56	1395.31
530.91	1412.68
531.27	1429.33
531.63	1445.72
531.99	1462.36
532.35	1478.25
532.71	1493.97
533.07	1510.21
533.42	1526.03
533.78	1541.88
534.14	1558.05
534.50	1573.33
534.86	1588.93
535.21	1604.01
535.57	1619.85
535.93	1635.18
536.29	1649.85
536.65	1664.82
537.00	1679.48
537.36	1694.79
537.72	1709.21
538.08	1723.66
538.44	1737.31
538.79	1751.07
539.15	1764.61
539.51	1778.13
539.87	1792.35
540.22	1806.14
540.58	1819.75
540.94	1832.90
541.29	1845.68
541.65	1858.32
542.01	1871.49
542.37	1883.80
542.72	1896.12
543.08	1907.87
543.44	1920.14
543.79	1931.34
544.15	1942.24
544.51	1953.63
544.87	1964.35
545.22	1975.35
545.58	1985.54
545.94	1995.44
546.29	2005.23
546.65	2015.08
547.01	2024.33
547.36	2032.98
547.72	2041.29
548.07	2049.12
548.43	2057.38
548.79	2065.32
549.14	2072.98
549.50	2080.19
549.86	2087.78
550.21	2095.03
550.57	2102.21
550.92	2108.92
551.28	2115.95
551.64	2122.99
551.99	2129.43
552.35	2135.62
552.70	2141.60
553.06	2147.55
553.41	2153.71
553.77	2159.57
554.13	2165.53
554.48	2171.62
554.84	2177.05
555.19	2182.30
555.55	2187.49
555.90	2191.90
556.26	2197.00
556.61	2201.50
556.97	2206.03
557.32	2210.29
557.68	2214.46
558.03	2218.70
558.39	2222.23
558.74	2226.84
559.10	2230.78
559.45	2234.55
559.81	2238.79
560.16	2242.57
560.52	2245.71
560.87	2249.24
561.23	2252.10
561.58	2255.04
561.94	2257.55
562.29	2259.93
562.64	2262.84
563.00	2265.46
563.35	2268.97
563.71	2272.02
564.06	2275.27
564.42	2278.01
564.77	2280.54
565.12	2282.92
565.48	2284.79
565.83	2286.88
566.19	2288.22
566.54	2289.01
566.89	2290.25
567.25	2290.99
567.60	2292.32
567.96	2294.05
568.31	2294.65
568.66	2295.90
569.02	2296.63
569.37	2296.99
569.72	2297.92
570.08	2298.15
570.43	2298.17
570.78	2297.67
571.14	2296.13
571.49	2294.73
571.84	2294.32
572.20	2293.11
572.55	2291.95
572.90	2290.38
573.26	2289.07
573.61	2287.25
573.96	2285.76
574.31	2282.80
574.67	2279.79
575.02	2276.28
575.37	2272.90
575.72	2269.35
576.08	2265.80
576.43	2262.24
576.78	2258.77
577.13	2255.44
577.49	2252.14
577.84	2248.72
578.19	2244.91
578.54	2241.44
578.90	2237.39
579.25	2232.01
579.60	2227.30
579.95	2222.32
580.30	2217.41
580.66	2212.11
581.01	2207.16
581.36	2202.07
581.71	2197.87
582.06	2193.45
582.42	2188.99
582.77	2183.92
583.12	2179.36
583.47	2174.94
583.82	2170.18
584.17	2164.81
584.53	2159.46
584.88	2153.88
585.23	2148.22
585.58	2142.68
585.93	2137.13
586.28	2132.40
586.63	2127.36
586.98	2122.25
587.34	2117.65
587.69	2112.76
588.04	2107.59
588.39	2102.04
588.74	2095.62
589.09	2089.58
589.44	2082.95
589.79	2076.82
590.14	2070.98
590.49	2064.39
590.84	2057.68
591.19	2051.60
591.54	2045.27
591.89	2038.10
592.25	2031.41
592.60	2024.17
592.95	2016.88
593.30	2009.52
593.65	2001.84
594.00	1994.69
594.35	1987.31
594.70	1979.24
595.05	1972.24
595.40	1965.02
595.75	1957.50
596.10	1951.54
596.45	1944.79
596.80	1938.54
597.15	1932.01
597.50	1925.30
597.85	1918.71
598.19	1912.30
598.54	1905.45
598.89	1898.83
599.24	1892.85
599.59	1886.39
599.94	1880.08
600.29	1873.64
600.64	1867.20
600.99	1859.91
601.34	1853.19
601.69	1846.29
602.04	1839.53
602.39	1831.98
602.74	1825.19
603.08	1818.60
603.43	1811.65
603.78	1804.33
604.13	1797.18
604.48	1789.96
604.83	1782.87
605.18	1776.14
605.53	1768.20
605.87	1760.11
606.22	1752.82
606.57	1744.88
606.92	1737.32
607.27	1730.39
607.62	1723.66
607.96	1716.35
608.31	1709.95
608.66	1702.34
609.01	1694.88
609.36	1687.32
609.70	1679.49
610.05	1671.52
610.40	1663.93
610.75	1655.65
611.10	1648.04
611.44	1639.54
611.79	1631.51
612.14	1622.95
612.49	1613.68
612.83	1605.27
613.18	1597.02
613.53	1588.89
613.88	1580.44
614.22	1572.21
614.57	1563.43
614.92	1555.33
615.27	1547.98
615.61	1539.50
615.96	1531.45
616.31	1523.72
616.65	1516.42
617.00	1508.79
617.35	1501.00
617.70	1492.64
618.04	1484.18
618.39	1475.85
618.74	1468.18
619.08	1459.86
619.43	1452.38
619.78	1445.55
620.12	1438.36
620.47	1431.01
620.82	1422.99
621.16	1415.42
621.51	1407.76
621.85	1400.16
622.20	1391.62
622.55	1383.12
622.89	1375.21
623.24	1367.59
623.59	1360.19
623.93	1352.63
624.28	1345.45
624.62	1338.01
624.97	1330.91
625.32	1324.23
625.66	1317.22
626.01	1310.17
626.35	1302.97
626.70	1295.07
627.04	1287.32
627.39	1279.68
627.73	1272.28
628.08	1265.28
628.43	1258.15
628.77	1250.87
629.12	1243.42
629.46	1236.37
629.81	1228.86
630.15	1221.65
630.50	1214.23
630.84	1206.18
631.19	1198.13
631.53	1190.50
631.88	1182.86
632.22	1175.14
632.57	1167.73
632.91	1160.27
633.26	1152.89
633.60	1145.33
633.95	1138.20
634.29	1131.14
634.64	1124.30
634.98	1116.92
635.32	1109.77
635.67	1102.91
636.01	1096.25
636.36	1089.36
636.70	1082.74
637.05	1076.19
637.39	1069.75
637.73	1063.29
638.08	1057.41
638.42	1051.48
638.77	1045.14
639.11	1038.61
639.45	1032.29
639.80	1025.62
640.14	1019.18
640.49	1012.66
640.83	1006.39
641.17	1000.28
641.52	993.96
641.86	987.54
642.20	981.64
642.55	975.28
642.89	968.98
643.23	962.31
643.58	956.62
643.92	950.47
644.26	944.40
644.61	938.35
644.95	932.41
645.29	925.77
645.64	919.07
645.98	912.66
646.32	906.78
646.66	900.65
647.01	894.87
647.35	889.27
647.69	883.32
648.04	877.72
648.38	871.81
648.72	865.86
649.06	859.81
649.41	853.93
649.75	848.01
650.09	842.03
650.43	836.37
650.78	830.23
651.12	824.25
651.46	818.55
651.80	812.88
652.14	807.45
652.49	802.02
652.83	796.82
653.17	791.20
653.51	785.59
653.85	780.21
654.20	774.56
654.54	768.41
654.88	762.61
655.22	756.68
655.56	750.98
655.90	745.45
656.25	740.24
656.59	734.84
656.93	729.77
657.27	724.63
657.61	719.14
657.95	713.98
658.29	708.92
658.64	703.63
658.98	698.27
659.32	692.73
659.66	687.52
660.00	682.26
660.34	677.24
660.68	672.24
661.02	667.19
661.36	662.58
661.70	658.16
662.05	653.94
662.39	649.72
662.73	645.27
663.07	640.94
663.41	636.57
663.75	632.18
664.09	627.57
664.43	623.22
664.77	619.14
665.11	614.93
665.45	610.75
665.79	606.80
666.13	602.70
666.47	598.65
666.81	594.52
667.15	590.37
667.49	586.49
667.83	582.65
668.17	578.72
668.51	574.65
668.85	570.65
669.19	566.79
669.53	562.94
669.87	559.15
670.21	555.47
670.55	551.73
670.89	548.26
671.23	544.80
671.57	541.24
671.91	537.71
672.25	534.18
672.58	530.66
672.92	527.16
673.26	523.95
673.60	520.78
673.94	517.74
674.28	514.82
674.62	511.89
674.96	508.84
675.30	505.98
675.64	503.05
675.97	500.25
676.31	497.39
676.65	494.46
676.99	491.73
677.33	488.87
677.67	486.07
678.01	483.06
678.34	480.15
678.68	477.29
679.02	474.48
679.36	471.67
679.70	468.97
680.04	466.16
680.37	463.30
680.71	460.50
681.05	457.86
681.39	455.15
681.73	452.49
682.06	449.93
682.40	447.35
682.74	444.76
683.08	442.15
683.42	439.54
683.75	437.04
684.09	434.42
684.43	431.83
684.77	429.36
685.10	426.98
685.44	424.64
685.78	422.36
686.12	420.09
686.45	417.79
686.79	415.47
687.13	413.34
687.46	411.13
687.80	408.95
688.14	406.70
688.48	404.61
688.81	402.42
689.15	400.24
689.49	398.05
689.82	396.01
690.16	393.91
690.50	391.95
690.83	390.00
691.17	388.02
691.51	386.18
691.84	384.28
692.18	382.36
692.52	380.33
692.85	378.34
693.19	376.46
693.52	374.61
693.86	372.81
694.20	370.96
694.53	369.18
694.87	367.32
695.21	365.53
695.54	363.69
695.88	361.92
696.21	360.20
696.55	358.55
696.88	356.80
697.22	355.14
697.56	353.48
697.89	351.80
698.23	350.18
698.56	348.58
698.90	347.05
699.23	345.37
699.57	343.87
699.90	342.32
700.24	340.78
700.58	339.28
700.91	337.79
701.25	336.35
701.58	334.97
701.92	333.65
702.25	332.29
702.59	330.99
702.92	329.68
703.26	328.35
703.59	327.07
703.93	325.90
704.26	324.73
704.60	323.47
704.93	322.23
705.26	320.98
705.60	319.77
705.93	318.61
706.27	317.60
706.60	316.53
706.94	315.49
707.27	314.36
707.61	313.29
707.94	312.27
708.27	311.22
708.61	310.17
708.94	309.17
709.28	308.18
709.61	307.22
709.94	306.27
710.28	305.28
710.61	304.32
710.95	303.30
711.28	302.37
711.61	301.46
711.95	300.58
712.28	299.70
712.61	298.76
712.95	297.83
713.28	296.94
713.61	296.08
713.95	295.23
714.28	294.38
714.61	293.53
714.95	292.68
715.28	291.83
715.61	290.94
715.95	290.08
716.28	289.20
716.61	288.37
716.95	287.57
717.28	286.83
717.61	286.06
717.94	285.29
718.28	284.48
718.61	283.71
718.94	282.99
719.27	282.33
719.61	281.66
719.94	280.99
720.27	280.28
720.60	279.59
720.94	278.97
721.27	278.40
721.60	277.82
721.93	277.24
722.27	276.67
722.60	276.12
722.93	275.55
723.26	275.02
723.59	274.48
723.93	273.91
724.26	273.33
724.59	272.76
724.92	272.25
725.25	271.75
725.59	271.25
725.92	270.71
726.25	270.16
726.58	269.69
726.91	269.19
727.24	268.73
727.57	268.27
727.91	267.72
728.24	267.25
728.57	266.76
728.90	266.27
729.23	265.75
729.56	265.32
729.89	264.86
730.22	264.36
730.55	263.86
730.89	263.45
731.22	263.01
731.55	262.54
731.88	262.10
732.21	261.67
732.54	261.27
732.87	260.82
733.20	260.43
733.53	260.03
733.86	259.66
734.19	259.24
734.52	258.85
734.85	258.56
735.18	258.11
735.51	257.72
735.84	257.33
736.17	256.96
736.50	256.53
736.83	256.30
737.16	255.97
737.49	255.63
737.82	255.24
738.15	254.89
738.48	254.55
738.81	254.21
739.14	253.84
739.47	253.50
739.80	253.20
740.13	252.91
740.46	252.54
740.79	252.22
741.12	251.95
741.45	251.61
741.78	251.22
742.11	250.98
742.44	250.67
742.77	250.42
743.10	250.13
743.43	249.86
743.75	249.48
744.08	249.31
744.41	249.03
744.74	248.77
745.07	248.50
745.40	248.27
745.73	248.07
746.06	247.83
746.39	247.55
746.71	247.31
747.04	247.03
747.37	246.80
747.70	246.57
748.03	246.29
748.36	246.07
748.68	245.85
749.01	245.60
749.34	245.41
749.67	245.20
750.00	245.03
750.33	244.89
750.65	244.65
750.98	244.36
751.31	244.19
751.64	244.01
751.97	243.82
752.29	243.61
752.62	243.35
752.95	243.15
753.28	242.93
753.60	242.74
753.93	242.58
754.26	242.38
754.59	242.16
754.91	242.02
755.24	241.86
755.57	241.69
755.90	241.50
756.22	241.30
756.55	241.09
756.88	240.87
757.20	240.65
757.53	240.52
757.86	240.37
758.19	240.20
758.51	240.03
758.84	239.88
759.17	239.74
759.49	239.62
759.82	239.51
760.15	239.37
760.47	239.21
760.80	239.01
761.13	238.88
761.45	238.74
761.78	238.56
762.11	238.39
762.43	238.25
762.76	238.13
763.08	238.01
763.41	237.88
763.74	237.76
764.06	237.61
764.39	237.43
764.71	237.25
765.04	237.13
765.37	236.97
765.69	236.81
766.02	236.65
766.34	236.49
766.67	236.31
767.00	236.22
767.32	236.15
767.65	236.11
767.97	236.01
768.30	235.87
768.62	235.74
768.95	235.61
769.27	235.47
769.60	235.34
769.92	235.18
770.25	235.05
770.57	234.90
770.90	234.76
771.22	234.67
771.55	234.57
771.87	234.46
772.20	234.34
772.52	234.30
772.85	234.33
773.17	234.24
773.50	234.15
773.82	234.03
774.15	233.88
774.47	233.72
774.80	233.62
775.12	233.50
775.45	233.40
775.77	233.29
776.09	233.22
776.42	233.14
776.74	233.08
777.07	232.96
777.39	232.88
777.72	232.80
778.04	232.71
778.36	232.63
778.69	232.52
779.01	232.46
779.33	232.34
779.66	232.13
779.98	232.04
780.31	231.98
780.63	231.95
780.95	231.92
781.28	231.87
781.60	231.77
781.92	231.73
782.25	231.66
782.57	231.64
782.89	231.54
783.22	231.47
783.54	231.42
783.86	231.41
784.19	231.35
784.51	231.33
784.83	231.27
785.16	231.21
785.48	231.14
785.80	231.12
786.12	231.06
786.45	231.04
786.77	231.00
787.09	230.95
787.42	230.88
787.74	230.83
788.06	230.78
788.38	230.76
788.71	230.71
789.03	230.70
789.35	230.67
789.67	230.65
789.99	230.63
790.32	230.57
790.64	230.54
790.96	230.63
791.28	230.59
791.61	230.54
791.93	230.53
792.25	230.52
792.57	230.54
792.89	230.49
793.21	230.45
793.54	230.42
793.86	230.37
794.18	230.30
794.50	230.24
794.82	230.21
795.14	230.17
795.47	230.19
795.79	230.16
796.11	230.08
796.43	230.03
796.75	229.99
797.07	229.97
797.39	229.94
797.71	229.82
798.04	229.78
798.36	229.75
798.68	229.70
799.00	229.69
799.32	229.60
799.64	229.58
799.96	229.51
800.28	229.49
800.60	229.47
800.92	229.48
801.24	229.46
801.56	229.44
801.89	229.40
802.21	229.35
802.53	229.28
802.85	229.30
803.17	229.31
803.49	229.29
803.81	229.23
804.13	229.19
804.45	229.13
804.77	229.13
805.09	229.14
805.41	229.08
805.73	229.04
806.05	229.00
806.37	228.95
806.69	228.93
807.01	228.89
807.33	228.87
807.65	228.84
807.97	228.81
808.28	228.74
808.60	228.72
808.92	228.67
809.24	228.66
809.56	228.61
809.88	228.60
810.20	228.56
810.52	228.58
810.84	228.53
811.16	228.48
811.48	228.41
811.80	228.38
812.12	228.36
812.43	228.34
812.75	228.28
813.07	228.27
813.39	228.27
813.71	228.25
814.03	228.20
814.35	228.15
814.67	228.11
814.98	228.09
815.30	228.06
815.62	228.06
815.94	228.00
816.26	228.04
816.58	227.96
816.89	227.96
817.21	227.90
817.53	227.90
817.85	227.91
818.17	227.90
818.48	227.86
818.80	227.87
819.12	227.83
819.44	227.83
819.76	227.80
820.07	227.80
820.39	227.79
820.71	227.77
821.03	227.78
821.34	227.74
821.66	227.77
821.98	227.77
822.30	227.71
822.61	227.73
822.93	227.66
823.25	227.65
823.57	227.61
823.88	227.63
824.20	227.60
824.52	227.58
824.83	227.58
825.15	227.55
825.47	227.53
825.79	227.53
826.10	227.48
826.42	227.46
826.74	227.42
827.05	227.36
827.37	227.36
827.69	227.33
828.00	227.33
828.32	227.31
828.64	227.27
828.95	227.33
829.27	227.29
829.58	227.25
829.90	227.27
830.22	227.29
830.53	227.25
830.85	227.25
831.17	227.24
831.48	227.21
831.80	227.18
832.11	227.17
832.43	227.15
832.75	227.19
833.06	227.21
833.38	227.21
833.69	227.23
834.01	227.23
834.32	227.23
834.64	227.21
834.96	227.20
835.27	227.19
835.59	227.16
835.90	227.18
836.22	227.19
836.53	227.17
836.85	227.15
837.16	227.27
837.48	227.26
837.79	227.29
838.11	227.29
838.42	227.32
838.74	227.30
839.05	227.29
839.37	227.25
839.68	227.19
840.00	227.20
840.31	227.20
840.63	227.18
840.94	227.15
841.26	227.17
841.57	227.16
841.88	227.18
842.20	227.17
842.51	227.15
842.83	227.13
843.14	227.19
843.46	227.14
843.77	227.04
844.08	227.06
844.40	226.99
844.71	226.96
845.03	226.92
845.34	226.91
845.65	226.87
845.97	226.88
846.28	226.90
846.60	226.89
846.91	226.85
847.22	226.85
847.54	226.86
847.85	226.84
848.16	226.80
848.48	226.77
848.79	226.82
849.10	226.83
849.42	226.84
849.73	226.73
850.04	226.75
850.36	226.72
850.67	226.70
850.98	226.71
851.30	226.73
851.61	226.71
851.92	226.69
852.23	226.74
852.55	226.71
852.86	226.70
853.17	226.68
853.49	226.72
853.80	226.71
854.11	226.74
854.42	226.72
854.74	226.72
855.05	226.74
855.36	226.62
855.67	226.63
855.99	226.62
856.30	226.76
856.61	226.74
856.92	226.72
857.23	226.72
857.55	226.72
857.86	226.70
858.17	226.72
858.48	226.70
858.79	226.68
859.11	226.71
859.42	226.72
859.73	226.70
860.04	226.66
860.35	226.64
860.66	226.57
860.98	226.59
861.29	226.60
861.60	226.56
861.91	226.60
862.22	226.58
862.53	226.56
862.84	226.44
863.16	226.48
863.47	226.47
863.78	226.46
864.09	226.47
864.40	226.49
864.71	226.52
865.02	226.54
865.33	226.55
865.64	226.53
865.95	226.52
866.27	226.60
866.58	226.59
866.89	226.61
867.20	226.66
867.51	226.60
867.82	226.60
868.13	226.67
868.44	226.62
868.75	226.63
869.06	226.63
869.37	226.63
869.68	226.61
869.99	226.65
870.30	226.66
870.61	226.66
870.92	226.66
871.23	226.64
871.54	226.64
871.85	226.66
872.16	226.68
872.47	226.70
872.78	226.63
873.09	226.67
873.40	226.67
873.71	226.66
874.02	226.72
874.33	226.72
874.64	226.69
874.95	226.75
875.26	226.73
875.56	226.74
875.87	226.75
876.18	226.75
876.49	226.84
876.80	226.84
877.11	226.82
877.42	226.83
877.73	226.83
878.04	226.84
878.35	226.82
878.66	226.81
878.96	226.78
879.27	226.80
879.58	226.78
879.89	226.75
880.20	226.77
880.51	226.72
880.82	226.72
881.12	226.70
881.43	226.65
881.74	226.63
882.05	226.62
882.36	226.63
882.67	226.62
882.97	226.51
883.28	226.51
883.59	226.51
883.90	226.51
884.21	226.51
884.51	226.48
884.82	226.46
885.13	226.45
885.44	226.44
885.74	226.43
886.05	226.43
886.36	226.45
886.67	226.40
886.98	226.47
887.28	226.47
887.59	226.48
887.90	226.52
888.20	226.51
888.51	226.54
888.82	226.51
889.13	226.52
889.43	226.60
889.74	226.57
890.05	226.56
890.35	226.55
890.66	226.53
890.97	226.55
891.28	226.51
891.58	226.49
891.89	226.49
892.20	226.45
892.50	226.39
892.81	226.37
893.12	226.40
893.42	226.33
893.73	226.33
894.04	226.31
894.34	226.30
894.65	226.29
894.95	226.28
895.26	226.29
895.57	226.34
895.87	226.25
896.18	226.26
896.48	226.25
896.79	226.22
897.10	226.22
897.40	226.20
897.71	226.27
898.01	226.28
898.32	226.30
898.63	226.33
898.93	226.38
899.24	226.37
899.54	226.36
899.85	226.36
900.15	226.35
900.46	226.35
900.76	226.36
901.07	226.39
901.38	226.39
901.68	226.39
901.99	226.32
902.29	226.31
902.60	226.33
902.90	226.28
903.21	226.29
903.51	226.29
903.82	226.32
904.12	226.30
904.43	226.29
904.73	226.30
905.03	226.30
905.34	226.38
905.64	226.37
905.95	226.34
906.25	226.31
906.56	226.34
906.86	226.35
907.17	226.35
907.47	226.35
907.77	226.34
908.08	226.34
908.38	226.35
908.69	226.32
908.99	226.36
909.30	226.44
909.60	226.43
909.90	226.45
910.21	226.43
910.51	226.41
910.81	226.45
911.12	226.45
911.42	226.47
911.73	226.33
912.03	226.38
912.33	226.42
912.64	226.45
912.94	226.44
913.24	226.40
913.55	226.39
913.85	226.38
914.15	226.39
914.46	226.39
914.76	226.39
915.06	226.41
915.37	226.38
915.67	226.34
915.97	226.36
916.27	226.33
916.58	226.34
916.88	226.36
917.18	226.32
917.49	226.39
917.79	226.40
918.09	226.43
918.39	226.44
918.70	226.46
919.00	226.44
919.30	226.49
919.60	226.54
919.91	226.53
920.21	226.53
920.51	226.52
920.81	226.55
921.12	226.61
921.42	226.60
921.72	226.65
922.02	226.67
922.32	226.68
922.63	226.72
922.93	226.75
923.23	226.73
923.53	226.72
923.83	226.64
924.13	226.61
924.44	226.63
924.74	226.63
925.04	226.61
925.34	226.65
925.64	226.59
925.94	226.57
926.24	226.63
926.55	226.60
926.85	226.62
927.15	226.59
927.45	226.52
927.75	226.52
928.05	226.48
928.35	226.44
928.65	226.44
928.95	226.38
929.26	226.35
929.56	226.38
929.86	226.40
930.16	226.39
930.46	226.41
930.76	226.40
931.06	226.35
931.36	226.34
931.66	226.34
931.96	226.36
932.26	226.36
932.56	226.32
932.86	226.29
933.16	226.29
933.46	226.29
933.76	226.28
934.06	226.30
934.36	226.32
934.66	226.31
934.96	226.29
935.26	226.34
935.56	226.34
935.86	226.29
936.16	226.29
936.46	226.28
936.76	226.27
937.06	226.25
937.36	226.26
937.66	226.28
937.96	226.29
938.26	226.25
938.56	226.22
938.86	226.20
939.16	226.25
939.46	226.25
939.76	226.24
940.06	226.21
940.35	226.18
940.65	226.13
940.95	226.16
941.25	226.14
941.55	226.09
941.85	226.10
942.15	226.13
942.45	226.15
942.75	226.16
943.04	226.15
943.34	226.15
943.64	226.16
943.94	226.15
944.24	226.13
944.54	226.14
944.84	226.16
945.13	226.17
945.43	226.15
945.73	226.13
946.03	226.12
946.33	226.14
946.62	226.15
946.92	226.17
947.22	226.15
947.52	226.18
947.82	226.19
948.11	226.20
948.41	226.19
948.71	226.18
949.01	226.16
949.31	226.17
949.60	226.17
949.90	226.18
950.20	226.17
950.50	226.18
950.79	226.17
951.09	226.18
951.39	226.20
951.69	226.23
951.98	226.27
952.28	226.29
952.58	226.28
952.87	226.28
953.17	226.28
953.47	226.29
953.76	226.26
954.06	226.28
954.36	226.24
954.66	226.26
954.95	226.28
955.25	226.30
955.55	226.31
955.84	226.33
956.14	226.33
956.44	226.34
956.73	226.32
957.03	226.32
957.32	226.32
957.62	226.26
957.92	226.24
958.21	226.19
958.51	226.30
958.81	226.33
959.10	226.34
959.40	226.33
959.69	226.31
959.99	226.35
960.29	226.32
960.58	226.31
960.88	226.33
961.17	226.30
961.47	226.32
961.76	226.30
962.06	226.28
962.36	226.26
962.65	226.23
962.95	226.25
963.24	226.23
963.54	226.25
963.83	226.27
964.13	226.24
964.42	226.25
964.72	226.18
965.01	226.15
965.31	226.13
965.60	226.12
965.90	226.17
966.19	226.14
966.49	226.16
966.78	226.18
967.08	226.12
967.37	226.11
967.67	226.09
967.96	226.13
968.26	226.13
968.55	226.14
968.85	226.15
969.14	226.10
969.43	226.12
969.73	226.09
970.02	226.09
970.32	226.12
970.61	226.09
970.91	226.03
971.20	226.03
971.49	225.99
971.79	226.00
972.08	225.96
972.38	225.94
972.67	225.92
972.96	225.92
973.26	225.92
973.55	225.92
973.85	225.88
974.14	225.85
974.43	225.85
974.73	225.80
975.02	225.79
975.31	225.82
975.61	225.77
975.90	225.77
976.19	225.77
976.49	225.77
976.78	225.77
977.07	225.77
977.37	225.77
977.66	225.83
977.95	225.82
978.24	225.80
978.54	225.82
978.83	225.81
979.12	225.81
979.42	225.82
979.71	225.83
980.00	225.85
980.29	225.84
980.59	225.83
980.88	225.87
981.17	225.88
981.46	225.84
981.76	225.86
982.05	225.89
982.34	225.87
982.63	225.87
982.93	225.89
983.22	225.91
983.51	225.91
983.80	225.94
984.09	225.94
984.39	225.93
984.68	225.95
984.97	225.95
985.26	225.93
985.55	225.94
985.85	225.93
986.14	225.94
986.43	225.98
986.72	225.97
987.01	225.96
987.30	225.96
987.59	225.96
987.89	225.99
988.18	225.93
988.47	225.91
988.76	225.93
989.05	225.90
989.34	225.87
989.63	225.90
989.92	225.82
990.22	225.83
990.51	225.86
990.80	225.82
991.09	225.86
991.38	225.87
991.67	225.85
991.96	225.82
992.25	225.80
992.54	225.75
992.83	225.77
993.12	225.74
993.41	225.74
993.70	225.83
993.99	225.85
994.28	225.90
994.58	225.93
994.87	225.91
995.16	225.93
995.45	225.96
995.74	225.95
996.03	226.01
996.32	226.04
996.61	226.07
996.90	226.11
997.19	226.11
997.48	226.14
997.77	226.14
998.06	226.21
998.34	226.23
998.63	226.23
998.92	226.22
999.21	226.26
999.50	226.27
999.79	226.21
1000.08	226.21
1000.37	226.21
1000.66	226.22
1000.95	226.27
1001.24	226.31
1001.53	226.31
1001.82	226.33
1002.11	226.31
1002.40	226.33
1002.68	226.37
1002.97	226.41
1003.26	226.39
1003.55	226.40
1003.84	226.42
1004.13	226.43
1004.42	226.42
1004.71	226.47
1004.99	226.49
1005.28	226.49
1005.57	226.51
1005.86	226.51
1006.15	226.51
1006.44	226.49
1006.72	226.51
1007.01	226.47
1007.30	226.47
1007.59	226.46
1007.88	226.45
1008.17	226.47
1008.45	226.43
1008.74	226.36
1009.03	226.32
1009.32	226.34
1009.60	226.32
1009.89	226.31
1010.18	226.24
1010.47	226.25
1010.76	226.24
1011.04	226.22
1011.33	226.25
1011.62	226.25
1011.91	226.28
1012.19	226.24
1012.48	226.22
1012.77	226.21
1013.05	226.27
1013.34	226.25
1013.63	226.24
1013.92	226.22
1014.20	226.23
1014.49	226.22
1014.78	226.21
1015.06	226.18
1015.35	226.16
1015.64	226.17
1015.92	226.17
1016.21	226.20
1016.50	226.17
1016.78	226.17
1017.07	226.16
1017.36	226.13
1017.64	226.10
1017.93	226.05
1018.22	226.08
1018.50	226.08
1018.79	226.07
1019.08	226.01
1019.36	226.00
1019.65	226.00
1019.93	226.04
1020.22	226.02
1020.51	226.09
1020.79	226.10
1021.08	226.12
1021.36	225.70
1021.65	225.83
1021.94	226.16
1022.22	225.98
1022.51	225.98
1022.79	226.88
1023.08	226.05
1023.36	227.46
1023.65	226.10
>>>>>End Processed Spectral Data<<<<<
