SpectraSuite Data File
++++++++++++++++++++++++++++++++++++
Date: Fri Feb 01 17:46:48 EST 2013
User: group
Dark Spectrum Present: No
Reference Spectrum Present: No
Number of Sampled Component Spectra: 1
Spectrometers: USB2E7196
Integration Time (usec): 35000 (USB2E7196)
Spectra Averaged: 100 (USB2E7196)
Boxcar Smoothing: 10 (USB2E7196)
Correct for Electrical Dark: No (USB2E7196)
Strobe/Lamp Enabled: No (USB2E7196)
Correct for Detector Non-linearity: No (USB2E7196)
Correct for Stray Light: No (USB2E7196)
Number of Pixels in Processed Spectrum: 2048
>>>>>Begin Processed Spectral Data<<<<<
339.09	0.00
339.48	212.47
339.86	214.31
340.24	214.87
340.63	216.50
341.01	219.47
341.39	219.53
341.78	220.46
342.16	221.53
342.54	222.82
342.93	210.99
343.31	221.64
343.69	222.17
344.07	222.63
344.46	223.05
344.84	223.44
345.22	223.69
345.60	223.95
345.99	224.16
346.37	224.31
346.75	224.39
347.13	224.45
347.52	224.50
347.90	224.59
348.28	224.61
348.66	224.69
349.05	224.65
349.43	224.69
349.81	224.72
350.19	224.77
350.57	224.83
350.96	224.90
351.34	224.99
351.72	225.08
352.10	225.14
352.48	225.25
352.87	225.30
353.25	225.36
353.63	225.40
354.01	225.49
354.39	225.58
354.77	225.69
355.15	225.79
355.54	225.88
355.92	225.91
356.30	225.96
356.68	226.10
357.06	226.20
357.44	226.24
357.82	226.30
358.20	226.36
358.58	226.42
358.97	226.51
359.35	226.60
359.73	226.70
360.11	226.76
360.49	226.83
360.87	226.90
361.25	226.98
361.63	227.06
362.01	227.07
362.39	227.10
362.77	227.13
363.15	227.20
363.53	227.21
363.91	227.25
364.29	227.28
364.67	227.19
365.05	227.20
365.43	227.24
365.81	227.29
366.19	227.37
366.57	227.42
366.95	227.44
367.33	227.43
367.71	227.44
368.09	227.44
368.47	227.43
368.85	227.42
369.23	227.39
369.61	227.37
369.99	227.41
370.37	227.41
370.75	227.43
371.13	227.37
371.51	227.31
371.89	227.32
372.27	227.30
372.65	227.25
373.03	227.23
373.41	227.17
373.78	227.11
374.16	226.98
374.54	226.92
374.92	226.83
375.30	226.79
375.68	226.70
376.06	226.67
376.44	226.61
376.82	226.53
377.19	226.47
377.57	226.42
377.95	226.32
378.33	226.21
378.71	226.08
379.09	226.03
379.47	226.00
379.84	225.90
380.22	225.82
380.60	225.75
380.98	225.69
381.36	225.64
381.73	225.55
382.11	225.51
382.49	225.45
382.87	225.37
383.25	225.33
383.62	225.40
384.00	225.33
384.38	225.28
384.76	225.27
385.13	225.25
385.51	225.18
385.89	225.13
386.27	225.11
386.64	225.07
387.02	225.01
387.40	224.96
387.78	224.91
388.15	224.88
388.53	224.87
388.91	224.84
389.29	224.79
389.66	224.77
390.04	224.75
390.42	224.70
390.79	224.70
391.17	224.65
391.55	224.51
391.92	224.49
392.30	224.48
392.68	224.44
393.05	224.46
393.43	224.47
393.81	224.46
394.18	224.46
394.56	224.47
394.94	224.51
395.31	224.53
395.69	224.59
396.06	224.63
396.44	224.66
396.82	224.67
397.19	224.75
397.57	224.81
397.95	224.86
398.32	224.88
398.70	224.92
399.07	224.98
399.45	225.03
399.82	225.08
400.20	225.13
400.58	225.18
400.95	225.17
401.33	225.27
401.70	225.42
402.08	225.50
402.45	225.58
402.83	225.69
403.20	225.79
403.58	225.83
403.95	225.95
404.33	226.07
404.71	226.18
405.08	226.36
405.46	226.49
405.83	226.63
406.21	226.82
406.58	226.99
406.96	227.21
407.33	227.41
407.70	227.64
408.08	227.94
408.45	228.19
408.83	228.47
409.20	228.71
409.58	228.93
409.95	229.24
410.33	229.55
410.70	229.81
411.08	230.21
411.45	230.63
411.82	230.98
412.20	231.41
412.57	231.92
412.95	232.29
413.32	232.79
413.69	233.33
414.07	233.86
414.44	234.45
414.82	235.03
415.19	235.70
415.56	236.40
415.94	237.10
416.31	237.93
416.68	238.69
417.06	239.59
417.43	240.47
417.81	241.46
418.18	242.45
418.55	243.52
418.93	244.60
419.30	245.73
419.67	246.96
420.04	248.17
420.42	249.41
420.79	250.89
421.16	252.35
421.54	253.81
421.91	255.36
422.28	256.99
422.66	258.70
423.03	260.38
423.40	262.09
423.77	263.91
424.15	265.72
424.52	267.68
424.89	269.71
425.26	271.66
425.64	273.50
426.01	275.55
426.38	277.69
426.75	279.79
427.13	282.01
427.50	284.34
427.87	286.77
428.24	289.14
428.61	291.41
428.99	293.89
429.36	296.62
429.73	299.22
430.10	301.79
430.47	304.41
430.85	307.09
431.22	309.96
431.59	312.97
431.96	315.85
432.33	318.95
432.70	322.00
433.08	325.58
433.45	328.97
433.82	332.31
434.19	335.98
434.56	339.56
434.93	342.92
435.30	346.22
435.68	349.86
436.05	353.48
436.42	357.02
436.79	360.23
437.16	363.70
437.53	367.35
437.90	370.91
438.27	374.39
438.64	378.00
439.01	381.27
439.38	384.14
439.75	386.90
440.13	390.15
440.50	393.17
440.87	395.54
441.24	398.03
441.61	400.77
441.98	402.71
442.35	405.06
442.72	407.48
443.09	409.83
443.46	411.12
443.83	411.91
444.20	412.64
444.57	413.75
444.94	414.09
445.31	414.55
445.68	414.99
446.05	415.12
446.42	414.66
446.79	414.16
447.16	413.63
447.53	413.23
447.90	411.75
448.27	410.24
448.64	408.24
449.01	406.81
449.37	404.33
449.74	401.94
450.11	399.08
450.48	395.90
450.85	392.65
451.22	389.92
451.59	387.37
451.96	384.85
452.33	381.48
452.70	378.47
453.07	374.84
453.43	371.18
453.80	367.67
454.17	364.29
454.54	361.03
454.91	357.55
455.28	354.16
455.65	351.00
456.02	347.84
456.38	345.08
456.75	341.66
457.12	338.78
457.49	335.89
457.86	333.10
458.23	330.72
458.59	328.15
458.96	325.50
459.33	323.08
459.70	320.68
460.07	318.79
460.43	316.63
460.80	314.56
461.17	312.71
461.54	310.72
461.91	308.81
462.27	306.96
462.64	305.28
463.01	303.50
463.38	301.79
463.74	300.08
464.11	298.55
464.48	297.21
464.85	295.79
465.21	294.66
465.58	293.47
465.95	292.06
466.32	290.87
466.68	289.70
467.05	288.57
467.42	287.42
467.78	286.20
468.15	285.07
468.52	284.21
468.88	283.10
469.25	282.12
469.62	281.33
469.98	280.45
470.35	279.67
470.72	278.91
471.08	278.03
471.45	277.33
471.82	276.67
472.18	275.89
472.55	275.31
472.92	274.60
473.28	274.01
473.65	273.44
474.02	272.81
474.38	272.30
474.75	271.86
475.11	271.38
475.48	271.01
475.85	270.64
476.21	270.31
476.58	270.04
476.94	269.85
477.31	269.63
477.67	269.40
478.04	269.21
478.41	269.08
478.77	269.09
479.14	268.98
479.50	268.91
479.87	268.92
480.23	268.93
480.60	268.96
480.96	268.97
481.33	269.14
481.69	269.33
482.06	269.53
482.42	269.69
482.79	269.88
483.15	270.16
483.52	270.57
483.88	270.91
484.25	271.28
484.61	271.65
484.98	272.04
485.34	272.57
485.71	273.20
486.07	273.81
486.44	274.35
486.80	275.04
487.17	275.77
487.53	276.61
487.90	277.48
488.26	278.47
488.62	279.47
488.99	280.44
489.35	281.49
489.72	282.62
490.08	283.87
490.44	285.19
490.81	286.61
491.17	287.94
491.54	289.46
491.90	291.04
492.26	292.79
492.63	294.59
492.99	296.47
493.36	298.41
493.72	300.57
494.08	302.78
494.45	305.09
494.81	307.55
495.17	310.08
495.54	312.70
495.90	315.47
496.26	318.36
496.63	321.43
496.99	324.72
497.35	328.11
497.72	331.62
498.08	335.26
498.44	339.07
498.80	343.16
499.17	347.39
499.53	351.75
499.89	356.25
500.26	360.95
500.62	365.81
500.98	370.98
501.34	376.24
501.71	381.77
502.07	387.43
502.43	393.34
502.79	399.37
503.16	405.79
503.52	412.33
503.88	419.08
504.24	426.04
504.60	433.22
504.97	440.68
505.33	448.37
505.69	456.50
506.05	464.59
506.41	472.85
506.78	481.38
507.14	490.25
507.50	499.38
507.86	508.91
508.22	518.54
508.59	528.24
508.95	538.23
509.31	548.55
509.67	559.16
510.03	569.88
510.39	580.94
510.75	592.27
511.12	603.75
511.48	615.57
511.84	627.62
512.20	639.72
512.56	652.25
512.92	664.95
513.28	677.95
513.64	691.13
514.00	704.50
514.37	718.19
514.73	731.96
515.09	745.71
515.45	759.69
515.81	774.07
516.17	788.80
516.53	803.73
516.89	818.79
517.25	833.87
517.61	849.23
517.97	864.61
518.33	879.83
518.69	895.58
519.05	911.42
519.41	927.51
519.77	944.04
520.13	960.45
520.49	976.97
520.85	993.25
521.21	1009.93
521.57	1027.26
521.93	1044.05
522.29	1061.44
522.65	1078.89
523.01	1096.23
523.37	1113.34
523.73	1130.63
524.09	1147.95
524.45	1165.35
524.81	1183.15
525.17	1201.01
525.53	1219.15
525.89	1237.37
526.25	1255.45
526.61	1273.20
526.97	1291.24
527.33	1308.89
527.68	1326.72
528.04	1344.43
528.40	1362.30
528.76	1380.78
529.12	1398.73
529.48	1416.94
529.84	1434.35
530.20	1452.42
530.56	1470.79
530.91	1489.70
531.27	1507.92
531.63	1525.84
531.99	1543.91
532.35	1561.41
532.71	1579.00
533.07	1596.68
533.42	1614.13
533.78	1631.73
534.14	1649.46
534.50	1666.32
534.86	1683.94
535.21	1700.84
535.57	1718.45
535.93	1735.62
536.29	1752.12
536.65	1768.82
537.00	1785.25
537.36	1802.28
537.72	1818.40
538.08	1834.51
538.44	1849.86
538.79	1865.60
539.15	1880.83
539.51	1896.11
539.87	1912.13
540.22	1927.52
540.58	1943.05
540.94	1957.99
541.29	1972.46
541.65	1986.90
542.01	2001.91
542.37	2015.85
542.72	2030.05
543.08	2043.55
543.44	2057.79
543.79	2070.87
544.15	2083.44
544.51	2096.87
544.87	2109.52
545.22	2122.08
545.58	2134.02
545.94	2145.50
546.29	2156.90
546.65	2168.61
547.01	2179.70
547.36	2190.12
547.72	2200.30
548.07	2210.00
548.43	2219.82
548.79	2229.45
549.14	2238.77
549.50	2247.60
549.86	2256.88
550.21	2265.72
550.57	2274.48
550.92	2282.66
551.28	2291.15
551.64	2299.96
551.99	2307.97
552.35	2315.65
552.70	2323.40
553.06	2330.93
553.41	2338.97
553.77	2346.46
554.13	2354.01
554.48	2361.76
554.84	2368.90
555.19	2375.58
555.55	2381.99
555.90	2387.88
556.26	2394.48
556.61	2400.50
556.97	2406.37
557.32	2411.84
557.68	2417.37
558.03	2422.96
558.39	2427.82
558.74	2433.72
559.10	2438.96
559.45	2443.84
559.81	2449.43
560.16	2454.45
560.52	2458.86
560.87	2463.43
561.23	2467.27
561.58	2471.16
561.94	2474.78
562.29	2477.96
562.64	2481.83
563.00	2485.57
563.35	2490.14
563.71	2494.23
564.06	2498.50
564.42	2502.53
564.77	2506.31
565.12	2509.65
565.48	2512.65
565.83	2515.62
566.19	2518.09
566.54	2519.59
566.89	2521.66
567.25	2523.13
567.60	2525.24
567.96	2528.05
568.31	2529.73
568.66	2531.71
569.02	2533.24
569.37	2534.31
569.72	2536.11
570.08	2536.94
570.43	2537.57
570.78	2537.91
571.14	2536.87
571.49	2535.96
571.84	2535.97
572.20	2535.31
572.55	2534.78
572.90	2533.59
573.26	2532.70
573.61	2531.11
573.96	2530.15
574.31	2527.51
574.67	2524.78
575.02	2521.40
575.37	2517.99
575.72	2514.39
576.08	2511.18
576.43	2507.93
576.78	2504.59
577.13	2501.40
577.49	2498.20
577.84	2495.02
578.19	2491.21
578.54	2487.81
578.90	2483.91
579.25	2478.22
579.60	2473.17
579.95	2467.88
580.30	2462.76
580.66	2457.26
581.01	2452.19
581.36	2446.95
581.71	2442.74
582.06	2438.33
582.42	2433.68
582.77	2428.22
583.12	2423.43
583.47	2418.58
583.82	2413.44
584.17	2407.71
584.53	2401.93
584.88	2396.11
585.23	2389.95
585.58	2384.04
585.93	2378.18
586.28	2372.87
586.63	2367.73
586.98	2362.32
587.34	2357.37
587.69	2352.11
588.04	2346.90
588.39	2340.76
588.74	2333.63
589.09	2326.92
589.44	2319.48
589.79	2312.94
590.14	2306.87
590.49	2299.72
590.84	2292.73
591.19	2286.15
591.54	2279.10
591.89	2271.19
592.25	2263.97
592.60	2256.15
592.95	2247.98
593.30	2239.88
593.65	2231.60
594.00	2223.74
594.35	2215.65
594.70	2206.80
595.05	2198.90
595.40	2190.63
595.75	2182.38
596.10	2175.79
596.45	2168.30
596.80	2161.55
597.15	2154.30
597.50	2146.64
597.85	2139.28
598.19	2131.97
598.54	2124.25
598.89	2116.90
599.24	2110.27
599.59	2102.86
599.94	2095.83
600.29	2088.76
600.64	2081.39
600.99	2073.05
601.34	2065.36
601.69	2057.55
602.04	2049.94
602.39	2041.68
602.74	2034.01
603.08	2026.56
603.43	2018.71
603.78	2010.47
604.13	2002.35
604.48	1994.37
604.83	1986.49
605.18	1979.08
605.53	1970.07
605.87	1960.98
606.22	1952.82
606.57	1943.84
606.92	1935.24
607.27	1927.19
607.62	1919.41
607.96	1911.22
608.31	1903.89
608.66	1895.34
609.01	1886.93
609.36	1878.38
609.70	1869.43
610.05	1860.36
610.40	1851.62
610.75	1842.45
611.10	1833.94
611.44	1824.23
611.79	1814.94
612.14	1805.17
612.49	1794.63
612.83	1785.14
613.18	1775.81
613.53	1766.61
613.88	1757.04
614.22	1747.82
614.57	1737.96
614.92	1728.70
615.27	1720.32
615.61	1710.79
615.96	1701.58
616.31	1692.75
616.65	1684.36
617.00	1675.78
617.35	1667.05
617.70	1657.61
618.04	1647.96
618.39	1638.46
618.74	1629.96
619.08	1620.53
619.43	1611.78
619.78	1603.82
620.12	1595.59
620.47	1587.04
620.82	1577.65
621.16	1568.97
621.51	1560.14
621.85	1551.38
622.20	1541.79
622.55	1532.05
622.89	1523.09
623.24	1514.39
623.59	1505.82
623.93	1497.22
624.28	1488.80
624.62	1480.18
624.97	1471.97
625.32	1464.11
625.66	1456.16
626.01	1448.03
626.35	1439.62
626.70	1430.83
627.04	1421.98
627.39	1413.03
627.73	1404.58
628.08	1396.80
628.43	1388.66
628.77	1380.49
629.12	1372.03
629.46	1363.77
629.81	1355.25
630.15	1346.97
630.50	1338.62
630.84	1329.46
631.19	1320.30
631.53	1311.74
631.88	1303.09
632.22	1294.41
632.57	1285.97
632.91	1277.23
633.26	1268.70
633.60	1260.25
633.95	1252.12
634.29	1244.06
634.64	1236.51
634.98	1228.14
635.32	1219.92
635.67	1212.28
636.01	1204.62
636.36	1196.77
636.70	1189.38
637.05	1181.95
637.39	1174.63
637.73	1167.20
638.08	1160.46
638.42	1153.66
638.77	1146.39
639.11	1139.07
639.45	1131.89
639.80	1124.44
640.14	1117.33
640.49	1109.91
640.83	1102.74
641.17	1095.72
641.52	1088.62
641.86	1081.37
642.20	1074.84
642.55	1067.67
642.89	1060.44
643.23	1052.97
643.58	1046.46
643.92	1039.43
644.26	1032.64
644.61	1025.72
644.95	1018.94
645.29	1011.57
645.64	1004.02
645.98	996.84
646.32	990.04
646.66	983.20
647.01	976.71
647.35	970.25
647.69	963.67
648.04	957.40
648.38	950.92
648.72	944.29
649.06	937.53
649.41	930.84
649.75	924.20
650.09	917.46
650.43	910.96
650.78	904.04
651.12	897.34
651.46	890.80
651.80	884.48
652.14	878.38
652.49	872.41
652.83	866.58
653.17	860.36
653.51	854.01
653.85	847.91
654.20	841.60
654.54	834.78
654.88	828.29
655.22	821.68
655.56	815.25
655.90	809.03
656.25	803.07
656.59	797.04
656.93	791.34
657.27	785.60
657.61	779.53
657.95	773.83
658.29	768.13
658.64	762.25
658.98	756.20
659.32	750.08
659.66	744.25
660.00	738.41
660.34	732.74
660.68	727.27
661.02	721.59
661.36	716.26
661.70	711.23
662.05	706.35
662.39	701.51
662.73	696.39
663.07	691.44
663.41	686.41
663.75	681.38
664.09	676.18
664.43	671.21
664.77	666.61
665.11	661.88
665.45	657.22
665.79	652.72
666.13	648.14
666.47	643.57
666.81	638.85
667.15	634.14
667.49	629.69
667.83	625.36
668.17	620.98
668.51	616.40
668.85	611.83
669.19	607.52
669.53	603.19
669.87	598.94
670.21	594.80
670.55	590.72
670.89	586.93
671.23	583.09
671.57	579.12
671.91	575.21
672.25	571.21
672.58	567.32
672.92	563.45
673.26	559.86
673.60	556.27
673.94	552.81
674.28	549.52
674.62	546.29
674.96	542.82
675.30	539.56
675.64	536.31
675.97	533.27
676.31	530.08
676.65	526.86
676.99	523.82
677.33	520.59
677.67	517.48
678.01	514.09
678.34	510.77
678.68	507.55
679.02	504.38
679.36	501.25
679.70	498.17
680.04	495.02
680.37	491.84
680.71	488.74
681.05	485.78
681.39	482.77
681.73	479.73
682.06	476.91
682.40	474.08
682.74	471.19
683.08	468.21
683.42	465.26
683.75	462.42
684.09	459.48
684.43	456.74
684.77	454.00
685.10	451.30
685.44	448.69
685.78	446.12
686.12	443.50
686.45	440.95
686.79	438.36
687.13	435.90
687.46	433.42
687.80	430.98
688.14	428.48
688.48	426.17
688.81	423.72
689.15	421.23
689.49	418.78
689.82	416.43
690.16	414.09
690.50	411.90
690.83	409.71
691.17	407.54
691.51	405.38
691.84	403.22
692.18	401.04
692.52	398.87
692.85	396.66
693.19	394.54
693.52	392.41
693.86	390.37
694.20	388.40
694.53	386.39
694.87	384.27
695.21	382.20
695.54	380.13
695.88	378.14
696.21	376.24
696.55	374.38
696.88	372.46
697.22	370.57
697.56	368.75
697.89	366.90
698.23	365.09
698.56	363.26
698.90	361.49
699.23	359.67
699.57	357.88
699.90	356.15
700.24	354.46
700.58	352.81
700.91	351.14
701.25	349.48
701.58	347.95
701.92	346.39
702.25	344.90
702.59	343.34
702.92	341.87
703.26	340.40
703.59	338.96
703.93	337.66
704.26	336.30
704.60	334.85
704.93	333.41
705.26	331.98
705.60	330.65
705.93	329.31
706.27	328.09
706.60	326.91
706.94	325.75
707.27	324.40
707.61	323.20
707.94	322.04
708.27	320.78
708.61	319.53
708.94	318.40
709.28	317.28
709.61	316.16
709.94	315.05
710.28	313.86
710.61	312.71
710.95	311.49
711.28	310.47
711.61	309.37
711.95	308.33
712.28	307.28
712.61	306.18
712.95	305.15
713.28	304.16
713.61	303.14
713.95	302.09
714.28	301.18
714.61	300.19
714.95	299.20
715.28	298.25
715.61	297.29
715.95	296.30
716.28	295.31
716.61	294.41
716.95	293.46
717.28	292.61
717.61	291.72
717.94	290.89
718.28	289.98
718.61	289.17
718.94	288.39
719.27	287.60
719.61	286.85
719.94	286.09
720.27	285.28
720.60	284.52
720.94	283.82
721.27	283.14
721.60	282.50
721.93	281.81
722.27	281.18
722.60	280.56
722.93	279.96
723.26	279.38
723.59	278.73
723.93	278.16
724.26	277.52
724.59	276.92
724.92	276.29
725.25	275.72
725.59	275.12
725.92	274.51
726.25	273.94
726.58	273.42
726.91	272.85
727.24	272.28
727.57	271.75
727.91	271.18
728.24	270.62
728.57	270.03
728.90	269.58
729.23	269.04
729.56	268.53
729.89	268.01
730.22	267.44
730.55	266.93
730.89	266.43
731.22	265.94
731.55	265.43
731.88	264.98
732.21	264.52
732.54	264.03
732.87	263.57
733.20	263.12
733.53	262.66
733.86	262.24
734.19	261.83
734.52	261.39
734.85	261.04
735.18	260.59
735.51	260.24
735.84	259.77
736.17	259.37
736.50	258.92
736.83	258.60
737.16	258.25
737.49	257.91
737.82	257.51
738.15	257.15
738.48	256.76
738.81	256.41
739.14	256.03
739.47	255.70
739.80	255.36
740.13	255.01
740.46	254.63
740.79	254.25
741.12	253.91
741.45	253.60
741.78	253.19
742.11	252.85
742.44	252.46
742.77	252.14
743.10	251.77
743.43	251.46
743.75	251.04
744.08	250.85
744.41	250.53
744.74	250.25
745.07	249.89
745.40	249.62
745.73	249.32
746.06	249.00
746.39	248.68
746.71	248.33
747.04	248.06
747.37	247.82
747.70	247.55
748.03	247.25
748.36	246.94
748.68	246.70
749.01	246.45
749.34	246.21
749.67	245.98
750.00	245.74
750.33	245.51
750.65	245.26
750.98	244.89
751.31	244.59
751.64	244.30
751.97	244.12
752.29	243.86
752.62	243.58
752.95	243.34
753.28	243.09
753.60	242.90
753.93	242.62
754.26	242.34
754.59	242.08
754.91	241.81
755.24	241.59
755.57	241.35
755.90	241.09
756.22	240.87
756.55	240.59
756.88	240.33
757.20	240.12
757.53	239.90
757.86	239.67
758.19	239.47
758.51	239.29
758.84	239.06
759.17	238.89
759.49	238.70
759.82	238.53
760.15	238.36
760.47	238.16
760.80	237.97
761.13	237.85
761.45	237.66
761.78	237.56
762.11	237.36
762.43	237.21
762.76	237.10
763.08	236.96
763.41	236.85
763.74	236.75
764.06	236.56
764.39	236.41
764.71	236.26
765.04	236.11
765.37	235.94
765.69	235.80
766.02	235.62
766.34	235.50
766.67	235.36
767.00	235.27
767.32	235.21
767.65	235.15
767.97	235.01
768.30	234.91
768.62	234.78
768.95	234.68
769.27	234.55
769.60	234.45
769.92	234.30
770.25	234.16
770.57	234.04
770.90	233.94
771.22	233.82
771.55	233.73
771.87	233.64
772.20	233.56
772.52	233.52
772.85	233.56
773.17	233.48
773.50	233.36
773.82	233.21
774.15	233.07
774.47	232.93
774.80	232.81
775.12	232.71
775.45	232.66
775.77	232.58
776.09	232.50
776.42	232.39
776.74	232.35
777.07	232.27
777.39	232.18
777.72	232.08
778.04	232.04
778.36	231.96
778.69	231.89
779.01	231.86
779.33	231.70
779.66	231.53
779.98	231.42
780.31	231.37
780.63	231.34
780.95	231.27
781.28	231.23
781.60	231.18
781.92	231.12
782.25	231.01
782.57	230.95
782.89	230.88
783.22	230.81
783.54	230.74
783.86	230.69
784.19	230.62
784.51	230.61
784.83	230.53
785.16	230.46
785.48	230.40
785.80	230.31
786.12	230.30
786.45	230.22
786.77	230.20
787.09	230.17
787.42	230.09
787.74	230.05
788.06	229.99
788.38	229.94
788.71	229.88
789.03	229.84
789.35	229.82
789.67	229.74
789.99	229.70
790.32	229.60
790.64	229.53
790.96	229.60
791.28	229.49
791.61	229.41
791.93	229.36
792.25	229.32
792.57	229.35
792.89	229.25
793.21	229.24
793.54	229.16
793.86	229.08
794.18	229.02
794.50	228.95
794.82	228.87
795.14	228.81
795.47	228.77
795.79	228.73
796.11	228.65
796.43	228.63
796.75	228.58
797.07	228.58
797.39	228.53
797.71	228.40
798.04	228.36
798.36	228.34
798.68	228.30
799.00	228.23
799.32	228.13
799.64	228.14
799.96	228.05
800.28	228.06
800.60	228.01
800.92	227.96
801.24	227.91
801.56	227.90
801.89	227.85
802.21	227.84
802.53	227.77
802.85	227.73
803.17	227.74
803.49	227.68
803.81	227.62
804.13	227.57
804.45	227.53
804.77	227.50
805.09	227.47
805.41	227.40
805.73	227.39
806.05	227.31
806.37	227.22
806.69	227.21
807.01	227.15
807.33	227.15
807.65	227.12
807.97	227.15
808.28	227.11
808.60	227.11
808.92	227.06
809.24	227.11
809.56	227.08
809.88	227.00
810.20	227.00
810.52	226.98
810.84	226.96
811.16	226.92
811.48	226.93
811.80	226.94
812.12	226.93
812.43	226.91
812.75	226.90
813.07	226.91
813.39	226.91
813.71	226.88
814.03	226.85
814.35	226.80
814.67	226.76
814.98	226.74
815.30	226.70
815.62	226.70
815.94	226.58
816.26	226.62
816.58	226.64
816.89	226.66
817.21	226.64
817.53	226.63
817.85	226.66
818.17	226.67
818.48	226.63
818.80	226.67
819.12	226.67
819.44	226.70
819.76	226.66
820.07	226.64
820.39	226.62
820.71	226.64
821.03	226.66
821.34	226.61
821.66	226.62
821.98	226.65
822.30	226.64
822.61	226.76
822.93	226.69
823.25	226.67
823.57	226.65
823.88	226.71
824.20	226.70
824.52	226.72
824.83	226.68
825.15	226.67
825.47	226.64
825.79	226.62
826.10	226.59
826.42	226.61
826.74	226.61
827.05	226.61
827.37	226.57
827.69	226.58
828.00	226.59
828.32	226.58
828.64	226.58
828.95	226.61
829.27	226.52
829.58	226.53
829.90	226.53
830.22	226.51
830.53	226.45
830.85	226.43
831.17	226.37
831.48	226.36
831.80	226.36
832.11	226.36
832.43	226.35
832.75	226.32
833.06	226.35
833.38	226.31
833.69	226.32
834.01	226.34
834.32	226.32
834.64	226.32
834.96	226.30
835.27	226.22
835.59	226.15
835.90	226.12
836.22	226.08
836.53	226.05
836.85	226.03
837.16	226.11
837.48	226.07
837.79	226.08
838.11	226.07
838.42	226.05
838.74	226.04
839.05	226.01
839.37	226.01
839.68	225.95
840.00	225.92
840.31	225.90
840.63	225.86
840.94	225.80
841.26	225.74
841.57	225.71
841.88	225.75
842.20	225.77
842.51	225.74
842.83	225.73
843.14	225.79
843.46	225.77
843.77	225.70
844.08	225.68
844.40	225.61
844.71	225.55
845.03	225.52
845.34	225.48
845.65	225.46
845.97	225.43
846.28	225.42
846.60	225.42
846.91	225.37
847.22	225.36
847.54	225.38
847.85	225.38
848.16	225.36
848.48	225.33
848.79	225.30
849.10	225.34
849.42	225.34
849.73	225.24
850.04	225.22
850.36	225.20
850.67	225.22
850.98	225.23
851.30	225.24
851.61	225.23
851.92	225.23
852.23	225.24
852.55	225.25
852.86	225.24
853.17	225.25
853.49	225.29
853.80	225.33
854.11	225.33
854.42	225.35
854.74	225.37
855.05	225.35
855.36	225.37
855.67	225.34
855.99	225.34
856.30	225.43
856.61	225.48
856.92	225.44
857.23	225.42
857.55	225.42
857.86	225.44
858.17	225.46
858.48	225.48
858.79	225.43
859.11	225.44
859.42	225.44
859.73	225.41
860.04	225.39
860.35	225.37
860.66	225.35
860.98	225.36
861.29	225.39
861.60	225.38
861.91	225.35
862.22	225.36
862.53	225.35
862.84	225.27
863.16	225.30
863.47	225.30
863.78	225.31
864.09	225.31
864.40	225.31
864.71	225.33
865.02	225.30
865.33	225.30
865.64	225.31
865.95	225.32
866.27	225.42
866.58	225.43
866.89	225.42
867.20	225.42
867.51	225.37
867.82	225.35
868.13	225.38
868.44	225.38
868.75	225.36
869.06	225.32
869.37	225.30
869.68	225.22
869.99	225.22
870.30	225.20
870.61	225.22
870.92	225.18
871.23	225.17
871.54	225.20
871.85	225.23
872.16	225.18
872.47	225.15
872.78	225.05
873.09	225.04
873.40	224.99
873.71	224.98
874.02	225.02
874.33	225.01
874.64	225.00
874.95	225.03
875.26	225.02
875.56	225.06
875.87	225.03
876.18	225.03
876.49	225.15
876.80	225.13
877.11	225.12
877.42	225.10
877.73	225.06
878.04	225.03
878.35	225.00
878.66	225.03
878.96	225.01
879.27	225.02
879.58	224.99
879.89	224.99
880.20	225.00
880.51	224.97
880.82	224.95
881.12	224.93
881.43	224.90
881.74	224.89
882.05	224.87
882.36	224.87
882.67	224.89
882.97	224.75
883.28	224.73
883.59	224.69
883.90	224.68
884.21	224.70
884.51	224.69
884.82	224.67
885.13	224.62
885.44	224.61
885.74	224.58
886.05	224.58
886.36	224.58
886.67	224.56
886.98	224.59
887.28	224.56
887.59	224.54
887.90	224.53
888.20	224.50
888.51	224.50
888.82	224.48
889.13	224.48
889.43	224.57
889.74	224.58
890.05	224.55
890.35	224.56
890.66	224.52
890.97	224.53
891.28	224.54
891.58	224.55
891.89	224.55
892.20	224.54
892.50	224.54
892.81	224.55
893.12	224.52
893.42	224.48
893.73	224.51
894.04	224.51
894.34	224.51
894.65	224.51
894.95	224.49
895.26	224.51
895.57	224.53
895.87	224.44
896.18	224.44
896.48	224.44
896.79	224.43
897.10	224.47
897.40	224.48
897.71	224.48
898.01	224.51
898.32	224.54
898.63	224.57
898.93	224.60
899.24	224.60
899.54	224.63
899.85	224.62
900.15	224.58
900.46	224.61
900.76	224.65
901.07	224.66
901.38	224.67
901.68	224.66
901.99	224.59
902.29	224.61
902.60	224.64
902.90	224.69
903.21	224.73
903.51	224.74
903.82	224.76
904.12	224.79
904.43	224.80
904.73	224.81
905.03	224.80
905.34	224.91
905.64	224.92
905.95	224.93
906.25	224.95
906.56	225.01
906.86	224.98
907.17	224.94
907.47	224.93
907.77	224.94
908.08	224.95
908.38	224.98
908.69	224.99
908.99	225.01
909.30	225.00
909.60	225.01
909.90	225.00
910.21	224.98
910.51	224.94
910.81	224.93
911.12	224.92
911.42	224.93
911.73	224.78
912.03	224.79
912.33	224.76
912.64	224.78
912.94	224.72
913.24	224.72
913.55	224.74
913.85	224.77
914.15	224.78
914.46	224.79
914.76	224.75
915.06	224.72
915.37	224.70
915.67	224.70
915.97	224.68
916.27	224.65
916.58	224.67
916.88	224.68
917.18	224.65
917.49	224.69
917.79	224.68
918.09	224.69
918.39	224.72
918.70	224.73
919.00	224.68
919.30	224.76
919.60	224.74
919.91	224.72
920.21	224.68
920.51	224.65
920.81	224.65
921.12	224.67
921.42	224.68
921.72	224.67
922.02	224.64
922.32	224.63
922.63	224.64
922.93	224.66
923.23	224.66
923.53	224.64
923.83	224.56
924.13	224.56
924.44	224.56
924.74	224.55
925.04	224.56
925.34	224.58
925.64	224.50
925.94	224.52
926.24	224.58
926.55	224.57
926.85	224.58
927.15	224.58
927.45	224.58
927.75	224.57
928.05	224.57
928.35	224.56
928.65	224.59
928.95	224.57
929.26	224.55
929.56	224.54
929.86	224.57
930.16	224.54
930.46	224.52
930.76	224.48
931.06	224.45
931.36	224.42
931.66	224.46
931.96	224.47
932.26	224.48
932.56	224.43
932.86	224.46
933.16	224.43
933.46	224.43
933.76	224.42
934.06	224.41
934.36	224.46
934.66	224.49
934.96	224.45
935.26	224.46
935.56	224.47
935.86	224.48
936.16	224.48
936.46	224.53
936.76	224.56
937.06	224.60
937.36	224.61
937.66	224.60
937.96	224.59
938.26	224.60
938.56	224.58
938.86	224.61
939.16	224.61
939.46	224.64
939.76	224.65
940.06	224.68
940.35	224.70
940.65	224.65
940.95	224.66
941.25	224.69
941.55	224.68
941.85	224.67
942.15	224.70
942.45	224.74
942.75	224.74
943.04	224.75
943.34	224.74
943.64	224.77
943.94	224.77
944.24	224.76
944.54	224.77
944.84	224.77
945.13	224.76
945.43	224.77
945.73	224.78
946.03	224.78
946.33	224.77
946.62	224.75
946.92	224.74
947.22	224.73
947.52	224.72
947.82	224.71
948.11	224.71
948.41	224.68
948.71	224.65
949.01	224.67
949.31	224.68
949.60	224.68
949.90	224.71
950.20	224.70
950.50	224.68
950.79	224.66
951.09	224.69
951.39	224.67
951.69	224.63
951.98	224.65
952.28	224.66
952.58	224.67
952.87	224.68
953.17	224.71
953.47	224.71
953.76	224.70
954.06	224.69
954.36	224.64
954.66	224.64
954.95	224.64
955.25	224.65
955.55	224.63
955.84	224.62
956.14	224.61
956.44	224.63
956.73	224.60
957.03	224.64
957.32	224.64
957.62	224.65
957.92	224.71
958.21	224.68
958.51	224.80
958.81	224.77
959.10	224.77
959.40	224.77
959.69	224.75
959.99	224.77
960.29	224.80
960.58	224.81
960.88	224.85
961.17	224.83
961.47	224.81
961.76	224.79
962.06	224.80
962.36	224.76
962.65	224.73
962.95	224.77
963.24	224.74
963.54	224.72
963.83	224.70
964.13	224.61
964.42	224.57
964.72	224.48
965.01	224.47
965.31	224.45
965.60	224.42
965.90	224.49
966.19	224.43
966.49	224.41
966.78	224.40
967.08	224.39
967.37	224.36
967.67	224.34
967.96	224.35
968.26	224.35
968.55	224.38
968.85	224.37
969.14	224.35
969.43	224.33
969.73	224.32
970.02	224.31
970.32	224.37
970.61	224.39
970.91	224.37
971.20	224.37
971.49	224.37
971.79	224.39
972.08	224.32
972.38	224.36
972.67	224.38
972.96	224.42
973.26	224.41
973.55	224.47
973.85	224.47
974.14	224.45
974.43	224.45
974.73	224.41
975.02	224.43
975.31	224.44
975.61	224.47
975.90	224.48
976.19	224.50
976.49	224.47
976.78	224.47
977.07	224.49
977.37	224.49
977.66	224.50
977.95	224.49
978.24	224.51
978.54	224.55
978.83	224.52
979.12	224.53
979.42	224.52
979.71	224.53
980.00	224.52
980.29	224.58
980.59	224.58
980.88	224.62
981.17	224.63
981.46	224.65
981.76	224.64
982.05	224.65
982.34	224.65
982.63	224.66
982.93	224.67
983.22	224.70
983.51	224.74
983.80	224.79
984.09	224.81
984.39	224.81
984.68	224.76
984.97	224.78
985.26	224.74
985.55	224.74
985.85	224.69
986.14	224.71
986.43	224.68
986.72	224.66
987.01	224.63
987.30	224.61
987.59	224.57
987.89	224.56
988.18	224.52
988.47	224.51
988.76	224.50
989.05	224.45
989.34	224.43
989.63	224.41
989.92	224.36
990.22	224.35
990.51	224.35
990.80	224.35
991.09	224.37
991.38	224.42
991.67	224.43
991.96	224.45
992.25	224.48
992.54	224.47
992.83	224.47
993.12	224.45
993.41	224.47
993.70	224.52
993.99	224.55
994.28	224.58
994.58	224.65
994.87	224.64
995.16	224.64
995.45	224.62
995.74	224.60
996.03	224.62
996.32	224.57
996.61	224.58
996.90	224.57
997.19	224.55
997.48	224.51
997.77	224.51
998.06	224.51
998.34	224.49
998.63	224.48
998.92	224.48
999.21	224.49
999.50	224.49
999.79	224.47
1000.08	224.45
1000.37	224.42
1000.66	224.36
1000.95	224.39
1001.24	224.39
1001.53	224.40
1001.82	224.37
1002.11	224.34
1002.40	224.37
1002.68	224.42
1002.97	224.49
1003.26	224.47
1003.55	224.46
1003.84	224.44
1004.13	224.45
1004.42	224.44
1004.71	224.45
1004.99	224.46
1005.28	224.51
1005.57	224.48
1005.86	224.44
1006.15	224.45
1006.44	224.46
1006.72	224.50
1007.01	224.49
1007.30	224.53
1007.59	224.50
1007.88	224.49
1008.17	224.49
1008.45	224.48
1008.74	224.40
1009.03	224.37
1009.32	224.39
1009.60	224.40
1009.89	224.37
1010.18	224.33
1010.47	224.32
1010.76	224.30
1011.04	224.30
1011.33	224.28
1011.62	224.29
1011.91	224.34
1012.19	224.34
1012.48	224.36
1012.77	224.34
1013.05	224.37
1013.34	224.36
1013.63	224.36
1013.92	224.38
1014.20	224.38
1014.49	224.38
1014.78	224.39
1015.06	224.35
1015.35	224.39
1015.64	224.39
1015.92	224.44
1016.21	224.43
1016.50	224.42
1016.78	224.45
1017.07	224.45
1017.36	224.41
1017.64	224.42
1017.93	224.42
1018.22	224.39
1018.50	224.39
1018.79	224.39
1019.08	224.34
1019.36	224.36
1019.65	224.34
1019.93	224.40
1020.22	224.40
1020.51	224.47
1020.79	224.48
1021.08	223.78
1021.36	224.66
1021.65	224.46
1021.94	224.30
1022.22	224.79
1022.51	223.92
1022.79	225.14
1023.08	224.09
1023.36	225.76
1023.65	224.41
>>>>>End Processed Spectral Data<<<<<
