SpectraSuite Data File
++++++++++++++++++++++++++++++++++++
Date: Fri Feb 01 15:47:51 EST 2013
User: group
Dark Spectrum Present: No
Reference Spectrum Present: No
Number of Sampled Component Spectra: 1
Spectrometers: USB2E7196
Integration Time (usec): 35000 (USB2E7196)
Spectra Averaged: 100 (USB2E7196)
Boxcar Smoothing: 10 (USB2E7196)
Correct for Electrical Dark: No (USB2E7196)
Strobe/Lamp Enabled: No (USB2E7196)
Correct for Detector Non-linearity: No (USB2E7196)
Correct for Stray Light: No (USB2E7196)
Number of Pixels in Processed Spectrum: 2048
>>>>>Begin Processed Spectral Data<<<<<
339.09	0.00
339.48	214.53
339.86	216.39
340.24	217.29
340.63	219.37
341.01	221.65
341.39	221.84
341.78	222.94
342.16	223.99
342.54	224.81
342.93	213.22
343.31	223.99
343.69	224.54
344.07	225.03
344.46	225.48
344.84	225.85
345.22	226.11
345.60	226.37
345.99	226.56
346.37	226.72
346.75	226.80
347.13	226.84
347.52	226.91
347.90	226.96
348.28	226.97
348.66	226.99
349.05	226.99
349.43	227.01
349.81	227.07
350.19	227.10
350.57	227.16
350.96	227.19
351.34	227.28
351.72	227.36
352.10	227.44
352.48	227.51
352.87	227.57
353.25	227.64
353.63	227.70
354.01	227.79
354.39	227.86
354.77	227.95
355.15	228.05
355.54	228.10
355.92	228.13
356.30	228.20
356.68	228.35
357.06	228.40
357.44	228.46
357.82	228.50
358.20	228.56
358.58	228.60
358.97	228.69
359.35	228.77
359.73	228.85
360.11	228.88
360.49	228.91
360.87	228.92
361.25	228.98
361.63	229.05
362.01	229.07
362.39	229.09
362.77	229.13
363.15	229.18
363.53	229.20
363.91	229.23
364.29	229.25
364.67	229.14
365.05	229.20
365.43	229.21
365.81	229.23
366.19	229.30
366.57	229.32
366.95	229.34
367.33	229.28
367.71	229.26
368.09	229.28
368.47	229.28
368.85	229.29
369.23	229.29
369.61	229.21
369.99	229.22
370.37	229.20
370.75	229.19
371.13	229.13
371.51	229.06
371.89	229.06
372.27	229.04
372.65	229.03
373.03	228.95
373.41	228.91
373.78	228.83
374.16	228.71
374.54	228.67
374.92	228.55
375.30	228.52
375.68	228.47
376.06	228.40
376.44	228.30
376.82	228.21
377.19	228.11
377.57	228.04
377.95	227.94
378.33	227.88
378.71	227.79
379.09	227.74
379.47	227.71
379.84	227.62
380.22	227.55
380.60	227.47
380.98	227.40
381.36	227.31
381.73	227.26
382.11	227.23
382.49	227.16
382.87	227.13
383.25	227.06
383.62	227.11
384.00	227.04
384.38	227.06
384.76	227.05
385.13	227.02
385.51	226.97
385.89	226.93
386.27	226.85
386.64	226.81
387.02	226.77
387.40	226.73
387.78	226.67
388.15	226.65
388.53	226.61
388.91	226.58
389.29	226.56
389.66	226.57
390.04	226.55
390.42	226.54
390.79	226.51
391.17	226.52
391.55	226.36
391.92	226.35
392.30	226.32
392.68	226.31
393.05	226.30
393.43	226.32
393.81	226.32
394.18	226.31
394.56	226.33
394.94	226.34
395.31	226.32
395.69	226.38
396.06	226.42
396.44	226.45
396.82	226.46
397.19	226.55
397.57	226.53
397.95	226.55
398.32	226.58
398.70	226.64
399.07	226.72
399.45	226.81
399.82	226.87
400.20	226.92
400.58	226.96
400.95	227.02
401.33	227.12
401.70	227.30
402.08	227.40
402.45	227.50
402.83	227.63
403.20	227.76
403.58	227.85
403.95	227.98
404.33	228.10
404.71	228.24
405.08	228.43
405.46	228.60
405.83	228.77
406.21	228.95
406.58	229.14
406.96	229.28
407.33	229.48
407.70	229.67
408.08	229.94
408.45	230.19
408.83	230.44
409.20	230.67
409.58	230.83
409.95	231.13
410.33	231.39
410.70	231.64
411.08	231.91
411.45	232.23
411.82	232.54
412.20	232.90
412.57	233.31
412.95	233.60
413.32	233.98
413.69	234.41
414.07	234.83
414.44	235.27
414.82	235.77
415.19	236.30
415.56	236.85
415.94	237.44
416.31	238.09
416.68	238.68
417.06	239.36
417.43	240.05
417.81	240.79
418.18	241.60
418.55	242.46
418.93	243.36
419.30	244.26
419.67	245.20
420.04	246.16
420.42	247.14
420.79	248.34
421.16	249.53
421.54	250.69
421.91	251.88
422.28	253.15
422.66	254.47
423.03	255.78
423.40	257.14
423.77	258.54
424.15	259.91
424.52	261.41
424.89	263.03
425.26	264.59
425.64	266.05
426.01	267.60
426.38	269.25
426.75	270.94
427.13	272.66
427.50	274.43
427.87	276.31
428.24	278.20
428.61	279.93
428.99	281.86
429.36	283.96
429.73	286.07
430.10	288.07
430.47	290.14
430.85	292.24
431.22	294.47
431.59	296.83
431.96	299.10
432.33	301.61
432.70	303.98
433.08	306.80
433.45	309.47
433.82	312.08
434.19	314.94
434.56	317.77
434.93	320.45
435.30	323.09
435.68	325.99
436.05	328.84
436.42	331.65
436.79	334.16
437.16	336.94
437.53	339.76
437.90	342.59
438.27	345.32
438.64	348.09
439.01	350.71
439.38	352.97
439.75	355.14
440.13	357.64
440.50	359.99
440.87	361.83
441.24	363.76
441.61	365.94
441.98	367.40
442.35	369.19
442.72	371.04
443.09	372.88
443.46	373.83
443.83	374.37
444.20	374.88
444.57	375.73
444.94	375.94
445.31	376.31
445.68	376.67
446.05	376.75
446.42	376.41
446.79	376.01
447.16	375.52
447.53	375.20
447.90	373.99
448.27	372.80
448.64	371.21
449.01	370.07
449.37	368.09
449.74	366.18
450.11	363.91
450.48	361.45
450.85	358.86
451.22	356.72
451.59	354.69
451.96	352.75
452.33	350.10
452.70	347.78
453.07	344.92
453.43	342.02
453.80	339.25
454.17	336.57
454.54	333.97
454.91	331.25
455.28	328.56
455.65	326.09
456.02	323.64
456.38	321.48
456.75	318.79
457.12	316.55
457.49	314.36
457.86	312.19
458.23	310.31
458.59	308.24
458.96	306.17
459.33	304.30
459.70	302.40
460.07	300.89
460.43	299.17
460.80	297.52
461.17	296.07
461.54	294.54
461.91	293.15
462.27	291.75
462.64	290.53
463.01	289.22
463.38	287.92
463.74	286.58
464.11	285.44
464.48	284.42
464.85	283.31
465.21	282.44
465.58	281.51
465.95	280.41
466.32	279.56
466.68	278.66
467.05	277.75
467.42	276.88
467.78	275.98
468.15	275.08
468.52	274.43
468.88	273.58
469.25	272.84
469.62	272.19
469.98	271.50
470.35	270.86
470.72	270.23
471.08	269.57
471.45	269.06
471.82	268.49
472.18	267.89
472.55	267.41
472.92	266.90
473.28	266.47
473.65	266.03
474.02	265.58
474.38	265.21
474.75	264.94
475.11	264.59
475.48	264.33
475.85	264.07
476.21	263.83
476.58	263.63
476.94	263.44
477.31	263.31
477.67	263.13
478.04	263.02
478.41	262.96
478.77	263.01
479.14	262.90
479.50	262.91
479.87	262.99
480.23	263.07
480.60	263.18
480.96	263.25
481.33	263.46
481.69	263.67
482.06	263.88
482.42	264.06
482.79	264.33
483.15	264.65
483.52	265.04
483.88	265.44
484.25	265.86
484.61	266.31
484.98	266.72
485.34	267.32
485.71	267.92
486.07	268.52
486.44	269.10
486.80	269.80
487.17	270.55
487.53	271.38
487.90	272.26
488.26	273.21
488.62	274.16
488.99	275.13
489.35	276.17
489.72	277.29
490.08	278.50
490.44	279.71
490.81	281.03
491.17	282.40
491.54	283.86
491.90	285.38
492.26	287.06
492.63	288.82
492.99	290.55
493.36	292.41
493.72	294.48
494.08	296.54
494.45	298.79
494.81	301.16
495.17	303.58
495.54	306.14
495.90	308.76
496.26	311.58
496.63	314.56
496.99	317.68
497.35	320.89
497.72	324.26
498.08	327.77
498.44	331.45
498.80	335.36
499.17	339.38
499.53	343.57
499.89	347.93
500.26	352.43
500.62	357.12
500.98	362.15
501.34	367.21
501.71	372.54
502.07	377.99
502.43	383.61
502.79	389.46
503.16	395.53
503.52	401.86
503.88	408.29
504.24	414.89
504.60	421.75
504.97	428.94
505.33	436.33
505.69	444.03
506.05	451.81
506.41	459.72
506.78	467.92
507.14	476.40
507.50	485.20
507.86	494.26
508.22	503.44
508.59	512.64
508.95	522.21
509.31	532.07
509.67	542.14
510.03	552.37
510.39	562.91
510.75	573.73
511.12	584.65
511.48	595.96
511.84	607.50
512.20	619.06
512.56	631.00
512.92	643.18
513.28	655.49
513.64	667.90
514.00	680.60
514.37	693.52
514.73	706.53
515.09	719.50
515.45	732.82
515.81	746.41
516.17	760.43
516.53	774.55
516.89	788.72
517.25	802.97
517.61	817.45
517.97	831.90
518.33	846.33
518.69	861.11
519.05	876.08
519.41	891.26
519.77	906.82
520.13	922.22
520.49	937.50
520.85	953.01
521.21	968.83
521.57	985.04
521.93	1000.83
522.29	1017.13
522.65	1033.35
523.01	1049.53
523.37	1065.60
523.73	1081.78
524.09	1097.83
524.45	1114.12
524.81	1130.72
525.17	1147.59
525.53	1164.52
525.89	1181.44
526.25	1198.25
526.61	1214.74
526.97	1231.44
527.33	1247.89
527.68	1264.44
528.04	1281.04
528.40	1297.61
528.76	1314.66
529.12	1331.31
529.48	1348.11
529.84	1364.21
530.20	1380.93
530.56	1398.03
530.91	1415.40
531.27	1431.99
531.63	1448.51
531.99	1465.13
532.35	1481.15
532.71	1497.04
533.07	1513.20
533.42	1529.07
533.78	1545.14
534.14	1561.33
534.50	1576.59
534.86	1592.50
535.21	1607.73
535.57	1623.55
535.93	1639.05
536.29	1653.75
536.65	1668.74
537.00	1683.47
537.36	1698.84
537.72	1713.30
538.08	1727.64
538.44	1741.45
538.79	1755.46
539.15	1769.18
539.51	1782.79
539.87	1797.13
540.22	1810.91
540.58	1824.76
540.94	1838.07
541.29	1850.87
541.65	1863.68
542.01	1876.88
542.37	1889.15
542.72	1901.58
543.08	1913.40
543.44	1925.79
543.79	1937.12
544.15	1948.15
544.51	1959.79
544.87	1970.77
545.22	1981.68
545.58	1991.77
545.94	2001.53
546.29	2011.34
546.65	2021.20
547.01	2030.47
547.36	2039.17
547.72	2047.51
548.07	2055.18
548.43	2063.48
548.79	2071.62
549.14	2078.86
549.50	2086.39
549.86	2094.08
550.21	2101.37
550.57	2108.46
550.92	2115.01
551.28	2122.09
551.64	2129.09
551.99	2135.59
552.35	2141.61
552.70	2147.78
553.06	2153.83
553.41	2160.10
553.77	2166.08
554.13	2172.12
554.48	2178.28
554.84	2183.64
555.19	2188.97
555.55	2194.18
555.90	2198.49
556.26	2203.28
556.61	2208.23
556.97	2212.26
557.32	2216.45
557.68	2220.48
558.03	2224.94
558.39	2228.70
558.74	2233.30
559.10	2237.30
559.45	2241.07
559.81	2245.59
560.16	2249.36
560.52	2252.60
560.87	2256.12
561.23	2258.86
561.58	2261.90
561.94	2264.53
562.29	2266.94
562.64	2269.62
563.00	2272.39
563.35	2275.91
563.71	2279.02
564.06	2282.30
564.42	2285.32
564.77	2287.71
565.12	2290.06
565.48	2291.77
565.83	2293.67
566.19	2294.87
566.54	2295.66
566.89	2296.64
567.25	2297.09
567.60	2298.33
567.96	2299.99
568.31	2300.89
568.66	2301.94
569.02	2302.43
569.37	2302.62
569.72	2303.44
570.08	2303.56
570.43	2303.53
570.78	2302.89
571.14	2301.36
571.49	2299.93
571.84	2299.55
572.20	2298.47
572.55	2297.46
572.90	2296.09
573.26	2294.67
573.61	2293.08
573.96	2291.26
574.31	2288.36
574.67	2285.37
575.02	2281.68
575.37	2278.33
575.72	2274.42
576.08	2271.19
576.43	2267.74
576.78	2264.21
577.13	2261.16
577.49	2258.00
577.84	2254.36
578.19	2250.74
578.54	2247.14
578.90	2242.85
579.25	2237.24
579.60	2232.25
579.95	2227.24
580.30	2222.14
580.66	2217.01
581.01	2212.01
581.36	2207.00
581.71	2202.90
582.06	2198.35
582.42	2193.87
582.77	2188.51
583.12	2183.89
583.47	2179.13
583.82	2174.18
584.17	2168.74
584.53	2163.12
584.88	2157.45
585.23	2151.71
585.58	2146.21
585.93	2140.73
586.28	2135.85
586.63	2130.88
586.98	2125.81
587.34	2121.00
587.69	2116.13
588.04	2110.77
588.39	2105.05
588.74	2098.73
589.09	2092.49
589.44	2085.62
589.79	2079.71
590.14	2074.24
590.49	2067.61
590.84	2061.20
591.19	2055.21
591.54	2048.74
591.89	2041.35
592.25	2034.54
592.60	2027.44
592.95	2019.76
593.30	2012.33
593.65	2004.86
594.00	1997.84
594.35	1990.60
594.70	1982.77
595.05	1975.47
595.40	1968.17
595.75	1960.78
596.10	1954.50
596.45	1947.71
596.80	1941.60
597.15	1934.85
597.50	1927.67
597.85	1921.32
598.19	1914.53
598.54	1907.26
598.89	1900.70
599.24	1894.80
599.59	1887.98
599.94	1881.74
600.29	1875.42
600.64	1868.89
600.99	1861.45
601.34	1854.55
601.69	1847.59
602.04	1840.48
602.39	1833.10
602.74	1826.20
603.08	1819.45
603.43	1812.72
603.78	1805.38
604.13	1798.14
604.48	1790.68
604.83	1783.89
605.18	1776.77
605.53	1768.80
605.87	1760.92
606.22	1753.63
606.57	1745.70
606.92	1738.59
607.27	1731.41
607.62	1724.51
607.96	1717.11
608.31	1710.37
608.66	1702.69
609.01	1695.10
609.36	1687.67
609.70	1679.67
610.05	1671.64
610.40	1663.84
610.75	1655.61
611.10	1647.97
611.44	1639.60
611.79	1631.76
612.14	1622.93
612.49	1613.92
612.83	1605.55
613.18	1597.43
613.53	1589.33
613.88	1580.63
614.22	1572.25
614.57	1563.60
614.92	1555.54
615.27	1548.05
615.61	1539.77
615.96	1531.82
616.31	1524.23
616.65	1516.80
617.00	1509.25
617.35	1501.63
617.70	1493.24
618.04	1484.60
618.39	1476.40
618.74	1468.81
619.08	1460.56
619.43	1453.06
619.78	1446.08
620.12	1438.90
620.47	1431.32
620.82	1423.17
621.16	1416.00
621.51	1408.41
621.85	1400.78
622.20	1392.29
622.55	1384.15
622.89	1376.38
623.24	1368.72
623.59	1361.27
623.93	1353.76
624.28	1346.46
624.62	1338.97
624.97	1331.86
625.32	1325.18
625.66	1318.15
626.01	1310.97
626.35	1303.48
626.70	1295.73
627.04	1287.96
627.39	1280.22
627.73	1272.93
628.08	1265.98
628.43	1258.56
628.77	1251.13
629.12	1243.58
629.46	1236.34
629.81	1228.73
630.15	1221.42
630.50	1213.96
630.84	1205.75
631.19	1197.82
631.53	1190.35
631.88	1182.80
632.22	1175.10
632.57	1167.81
632.91	1160.22
633.26	1152.70
633.60	1145.42
633.95	1138.41
634.29	1131.41
634.64	1124.72
634.98	1117.32
635.32	1110.25
635.67	1103.71
636.01	1097.17
636.36	1090.37
636.70	1083.92
637.05	1077.32
637.39	1070.89
637.73	1064.39
638.08	1058.56
638.42	1052.55
638.77	1046.14
639.11	1039.39
639.45	1033.06
639.80	1026.32
640.14	1019.89
640.49	1013.43
640.83	1007.05
641.17	1000.64
641.52	994.25
641.86	987.75
642.20	981.84
642.55	975.52
642.89	969.06
643.23	962.52
643.58	956.78
643.92	950.46
644.26	944.35
644.61	938.28
644.95	932.23
645.29	925.58
645.64	918.88
645.98	912.47
646.32	906.68
646.66	900.68
647.01	894.94
647.35	889.24
647.69	883.35
648.04	877.76
648.38	872.01
648.72	866.03
649.06	860.04
649.41	854.17
649.75	848.08
650.09	842.05
650.43	836.22
650.78	830.01
651.12	824.07
651.46	818.39
651.80	812.65
652.14	807.26
652.49	801.87
652.83	796.65
653.17	791.00
653.51	785.29
653.85	779.92
654.20	774.22
654.54	768.21
654.88	762.51
655.22	756.62
655.56	750.96
655.90	745.56
656.25	740.32
656.59	734.93
656.93	729.89
657.27	724.75
657.61	719.31
657.95	714.22
658.29	709.16
658.64	703.93
658.98	698.63
659.32	693.21
659.66	688.05
660.00	682.66
660.34	677.72
660.68	672.82
661.02	667.69
661.36	662.97
661.70	658.44
662.05	654.08
662.39	649.76
662.73	645.28
663.07	640.89
663.41	636.38
663.75	631.91
664.09	627.34
664.43	622.93
664.77	618.81
665.11	614.58
665.45	610.51
665.79	606.33
666.13	602.18
666.47	598.06
666.81	593.83
667.15	589.80
667.49	585.91
667.83	582.15
668.17	578.23
668.51	574.16
668.85	570.23
669.19	566.38
669.53	562.52
669.87	558.61
670.21	554.91
670.55	551.29
670.89	547.88
671.23	544.49
671.57	541.01
671.91	537.48
672.25	533.94
672.58	530.36
672.92	527.02
673.26	523.86
673.60	520.67
673.94	517.57
674.28	514.70
674.62	511.71
674.96	508.60
675.30	505.75
675.64	502.84
675.97	499.99
676.31	497.12
676.65	494.22
676.99	491.56
677.33	488.71
677.67	485.93
678.01	482.87
678.34	479.87
678.68	476.99
679.02	474.16
679.36	471.45
679.70	468.77
680.04	466.04
680.37	463.14
680.71	460.43
681.05	457.88
681.39	455.13
681.73	452.53
682.06	449.98
682.40	447.37
682.74	444.88
683.08	442.34
683.42	439.79
683.75	437.29
684.09	434.75
684.43	432.26
684.77	429.78
685.10	427.46
685.44	425.14
685.78	422.85
686.12	420.62
686.45	418.33
686.79	416.03
687.13	413.81
687.46	411.72
687.80	409.55
688.14	407.33
688.48	405.26
688.81	403.01
689.15	400.84
689.49	398.70
689.82	396.62
690.16	394.54
690.50	392.60
690.83	390.65
691.17	388.66
691.51	386.75
691.84	384.86
692.18	382.92
692.52	380.93
692.85	378.99
693.19	377.09
693.52	375.27
693.86	373.47
694.20	371.68
694.53	369.85
694.87	367.99
695.21	366.21
695.54	364.37
695.88	362.64
696.21	360.92
696.55	359.29
696.88	357.62
697.22	355.97
697.56	354.32
697.89	352.62
698.23	350.98
698.56	349.40
698.90	347.81
699.23	346.11
699.57	344.64
699.90	343.10
700.24	341.59
700.58	339.99
700.91	338.47
701.25	337.04
701.58	335.64
701.92	334.25
702.25	332.88
702.59	331.54
702.92	330.22
703.26	328.94
703.59	327.66
703.93	326.44
704.26	325.18
704.60	323.90
704.93	322.65
705.26	321.44
705.60	320.28
705.93	319.12
706.27	318.15
706.60	317.05
706.94	315.96
707.27	314.83
707.61	313.81
707.94	312.80
708.27	311.66
708.61	310.63
708.94	309.66
709.28	308.68
709.61	307.71
709.94	306.76
710.28	305.73
710.61	304.74
710.95	303.65
711.28	302.79
711.61	301.82
711.95	300.90
712.28	299.93
712.61	298.95
712.95	298.04
713.28	297.16
713.61	296.28
713.95	295.43
714.28	294.55
714.61	293.70
714.95	292.86
715.28	292.06
715.61	291.13
715.95	290.25
716.28	289.38
716.61	288.54
716.95	287.74
717.28	287.01
717.61	286.24
717.94	285.52
718.28	284.74
718.61	284.06
718.94	283.37
719.27	282.75
719.61	282.10
719.94	281.42
720.27	280.72
720.60	280.05
720.94	279.46
721.27	278.90
721.60	278.29
721.93	277.70
722.27	277.18
722.60	276.65
722.93	276.08
723.26	275.53
723.59	274.98
723.93	274.41
724.26	273.80
724.59	273.26
724.92	272.72
725.25	272.17
725.59	271.60
725.92	271.09
726.25	270.55
726.58	270.07
726.91	269.56
727.24	269.11
727.57	268.67
727.91	268.13
728.24	267.62
728.57	267.15
728.90	266.70
729.23	266.15
729.56	265.71
729.89	265.22
730.22	264.72
730.55	264.25
730.89	263.79
731.22	263.36
731.55	262.93
731.88	262.52
732.21	262.11
732.54	261.69
732.87	261.25
733.20	260.86
733.53	260.47
733.86	260.11
734.19	259.69
734.52	259.27
734.85	258.98
735.18	258.58
735.51	258.22
735.84	257.88
736.17	257.56
736.50	257.17
736.83	256.95
737.16	256.64
737.49	256.30
737.82	255.96
738.15	255.68
738.48	255.36
738.81	255.04
739.14	254.70
739.47	254.40
739.80	254.11
740.13	253.82
740.46	253.44
740.79	253.11
741.12	252.78
741.45	252.45
741.78	252.08
742.11	251.80
742.44	251.50
742.77	251.17
743.10	250.85
743.43	250.58
743.75	250.20
744.08	250.08
744.41	249.81
744.74	249.52
745.07	249.22
745.40	248.96
745.73	248.71
746.06	248.43
746.39	248.19
746.71	247.90
747.04	247.62
747.37	247.36
747.70	247.12
748.03	246.85
748.36	246.63
748.68	246.42
749.01	246.15
749.34	245.91
749.67	245.68
750.00	245.45
750.33	245.29
750.65	245.09
750.98	244.74
751.31	244.53
751.64	244.32
751.97	244.13
752.29	243.92
752.62	243.68
752.95	243.49
753.28	243.29
753.60	243.11
753.93	242.94
754.26	242.77
754.59	242.56
754.91	242.41
755.24	242.23
755.57	242.01
755.90	241.81
756.22	241.62
756.55	241.42
756.88	241.24
757.20	240.99
757.53	240.78
757.86	240.61
758.19	240.43
758.51	240.28
758.84	240.06
759.17	239.89
759.49	239.74
759.82	239.62
760.15	239.44
760.47	239.27
760.80	239.08
761.13	238.97
761.45	238.82
761.78	238.68
762.11	238.50
762.43	238.34
762.76	238.23
763.08	238.11
763.41	237.99
763.74	237.85
764.06	237.70
764.39	237.59
764.71	237.46
765.04	237.35
765.37	237.25
765.69	237.13
766.02	237.00
766.34	236.86
766.67	236.70
767.00	236.58
767.32	236.55
767.65	236.51
767.97	236.34
768.30	236.24
768.62	236.11
768.95	235.98
769.27	235.88
769.60	235.77
769.92	235.63
770.25	235.51
770.57	235.38
770.90	235.29
771.22	235.15
771.55	235.03
771.87	234.94
772.20	234.79
772.52	234.80
772.85	234.80
773.17	234.72
773.50	234.60
773.82	234.48
774.15	234.31
774.47	234.16
774.80	234.08
775.12	233.99
775.45	233.89
775.77	233.84
776.09	233.79
776.42	233.72
776.74	233.66
777.07	233.59
777.39	233.52
777.72	233.45
778.04	233.39
778.36	233.33
778.69	233.27
779.01	233.25
779.33	233.09
779.66	232.93
779.98	232.86
780.31	232.79
780.63	232.79
780.95	232.73
781.28	232.66
781.60	232.58
781.92	232.50
782.25	232.48
782.57	232.40
782.89	232.31
783.22	232.23
783.54	232.16
783.86	232.14
784.19	232.08
784.51	232.04
784.83	231.96
785.16	231.89
785.48	231.82
785.80	231.75
786.12	231.73
786.45	231.69
786.77	231.62
787.09	231.61
787.42	231.52
787.74	231.48
788.06	231.42
788.38	231.36
788.71	231.34
789.03	231.27
789.35	231.25
789.67	231.24
789.99	231.24
790.32	231.22
790.64	231.15
790.96	231.16
791.28	231.09
791.61	231.07
791.93	231.07
792.25	231.01
792.57	231.06
792.89	230.98
793.21	230.95
793.54	230.94
793.86	230.88
794.18	230.85
794.50	230.83
794.82	230.81
795.14	230.83
795.47	230.82
795.79	230.80
796.11	230.75
796.43	230.70
796.75	230.65
797.07	230.62
797.39	230.62
797.71	230.59
798.04	230.58
798.36	230.55
798.68	230.51
799.00	230.54
799.32	230.43
799.64	230.43
799.96	230.43
800.28	230.42
800.60	230.39
800.92	230.36
801.24	230.31
801.56	230.32
801.89	230.28
802.21	230.25
802.53	230.21
802.85	230.22
803.17	230.23
803.49	230.16
803.81	230.12
804.13	230.05
804.45	229.97
804.77	229.95
805.09	229.92
805.41	229.87
805.73	229.77
806.05	229.73
806.37	229.70
806.69	229.60
807.01	229.56
807.33	229.56
807.65	229.52
807.97	229.53
808.28	229.49
808.60	229.43
808.92	229.41
809.24	229.42
809.56	229.32
809.88	229.24
810.20	229.22
810.52	229.19
810.84	229.13
811.16	229.08
811.48	229.05
811.80	229.04
812.12	229.02
812.43	229.05
812.75	229.04
813.07	228.97
813.39	228.98
813.71	228.93
814.03	228.90
814.35	228.87
814.67	228.83
814.98	228.78
815.30	228.76
815.62	228.70
815.94	228.61
816.26	228.66
816.58	228.63
816.89	228.64
817.21	228.58
817.53	228.61
817.85	228.57
818.17	228.55
818.48	228.51
818.80	228.50
819.12	228.44
819.44	228.38
819.76	228.39
820.07	228.37
820.39	228.33
820.71	228.27
821.03	228.23
821.34	228.19
821.66	228.17
821.98	228.20
822.30	228.18
822.61	228.20
822.93	228.17
823.25	228.16
823.57	228.14
823.88	228.18
824.20	228.16
824.52	228.21
824.83	228.19
825.15	228.18
825.47	228.16
825.79	228.20
826.10	228.17
826.42	228.15
826.74	228.13
827.05	228.15
827.37	228.17
827.69	228.17
828.00	228.16
828.32	228.15
828.64	228.11
828.95	228.17
829.27	228.13
829.58	228.13
829.90	228.14
830.22	228.18
830.53	228.14
830.85	228.12
831.17	228.07
831.48	228.07
831.80	228.08
832.11	228.10
832.43	228.06
832.75	228.07
833.06	228.11
833.38	228.08
833.69	228.08
834.01	228.07
834.32	228.09
834.64	228.10
834.96	228.11
835.27	228.11
835.59	228.08
835.90	228.10
836.22	228.09
836.53	228.06
836.85	228.02
837.16	228.12
837.48	228.11
837.79	228.15
838.11	228.15
838.42	228.14
838.74	228.13
839.05	228.15
839.37	228.19
839.68	228.13
840.00	228.13
840.31	228.13
840.63	228.13
840.94	228.08
841.26	228.03
841.57	228.02
841.88	228.05
842.20	228.01
842.51	228.00
842.83	227.97
843.14	228.08
843.46	228.09
843.77	228.02
844.08	228.00
844.40	227.92
844.71	227.89
845.03	227.86
845.34	227.86
845.65	227.81
845.97	227.79
846.28	227.82
846.60	227.83
846.91	227.82
847.22	227.82
847.54	227.84
847.85	227.86
848.16	227.85
848.48	227.76
848.79	227.81
849.10	227.79
849.42	227.78
849.73	227.69
850.04	227.63
850.36	227.56
850.67	227.56
850.98	227.61
851.30	227.61
851.61	227.62
851.92	227.60
852.23	227.65
852.55	227.61
852.86	227.57
853.17	227.60
853.49	227.58
853.80	227.59
854.11	227.62
854.42	227.59
854.74	227.57
855.05	227.62
855.36	227.55
855.67	227.58
855.99	227.58
856.30	227.65
856.61	227.63
856.92	227.65
857.23	227.70
857.55	227.66
857.86	227.65
858.17	227.67
858.48	227.62
858.79	227.56
859.11	227.61
859.42	227.57
859.73	227.53
860.04	227.54
860.35	227.50
860.66	227.47
860.98	227.51
861.29	227.54
861.60	227.51
861.91	227.57
862.22	227.54
862.53	227.54
862.84	227.45
863.16	227.51
863.47	227.49
863.78	227.44
864.09	227.47
864.40	227.47
864.71	227.47
865.02	227.51
865.33	227.52
865.64	227.50
865.95	227.52
866.27	227.59
866.58	227.58
866.89	227.59
867.20	227.60
867.51	227.57
867.82	227.54
868.13	227.60
868.44	227.52
868.75	227.50
869.06	227.50
869.37	227.49
869.68	227.45
869.99	227.50
870.30	227.48
870.61	227.48
870.92	227.49
871.23	227.47
871.54	227.47
871.85	227.49
872.16	227.46
872.47	227.43
872.78	227.38
873.09	227.37
873.40	227.35
873.71	227.33
874.02	227.32
874.33	227.27
874.64	227.24
874.95	227.28
875.26	227.25
875.56	227.26
875.87	227.23
876.18	227.22
876.49	227.28
876.80	227.30
877.11	227.27
877.42	227.25
877.73	227.23
878.04	227.20
878.35	227.19
878.66	227.20
878.96	227.21
879.27	227.17
879.58	227.18
879.89	227.19
880.20	227.24
880.51	227.24
880.82	227.25
881.12	227.28
881.43	227.24
881.74	227.22
882.05	227.22
882.36	227.26
882.67	227.29
882.97	227.17
883.28	227.15
883.59	227.17
883.90	227.17
884.21	227.21
884.51	227.22
884.82	227.21
885.13	227.23
885.44	227.24
885.74	227.27
886.05	227.24
886.36	227.23
886.67	227.19
886.98	227.25
887.28	227.24
887.59	227.20
887.90	227.22
888.20	227.23
888.51	227.24
888.82	227.20
889.13	227.17
889.43	227.29
889.74	227.29
890.05	227.30
890.35	227.33
890.66	227.30
890.97	227.30
891.28	227.26
891.58	227.28
891.89	227.28
892.20	227.24
892.50	227.23
892.81	227.25
893.12	227.23
893.42	227.17
893.73	227.17
894.04	227.16
894.34	227.13
894.65	227.13
894.95	227.11
895.26	227.12
895.57	227.17
895.87	227.04
896.18	227.07
896.48	227.04
896.79	227.04
897.10	227.02
897.40	227.03
897.71	227.03
898.01	226.99
898.32	226.98
898.63	226.97
898.93	226.99
899.24	226.97
899.54	226.99
899.85	227.03
900.15	227.04
900.46	227.04
900.76	227.07
901.07	227.05
901.38	227.07
901.68	227.10
901.99	227.05
902.29	227.06
902.60	227.02
902.90	227.02
903.21	226.98
903.51	227.00
903.82	227.02
904.12	227.02
904.43	227.06
904.73	227.06
905.03	227.07
905.34	227.16
905.64	227.15
905.95	227.15
906.25	227.15
906.56	227.17
906.86	227.19
907.17	227.20
907.47	227.23
907.77	227.23
908.08	227.21
908.38	227.24
908.69	227.27
908.99	227.30
909.30	227.32
909.60	227.35
909.90	227.36
910.21	227.34
910.51	227.33
910.81	227.31
911.12	227.29
911.42	227.31
911.73	227.22
912.03	227.26
912.33	227.28
912.64	227.26
912.94	227.24
913.24	227.20
913.55	227.17
913.85	227.15
914.15	227.17
914.46	227.16
914.76	227.15
915.06	227.10
915.37	227.09
915.67	227.09
915.97	227.07
916.27	227.04
916.58	227.04
916.88	227.04
917.18	227.02
917.49	227.09
917.79	227.08
918.09	227.09
918.39	227.07
918.70	227.05
919.00	227.00
919.30	227.04
919.60	227.06
919.91	227.06
920.21	227.05
920.51	227.02
920.81	227.00
921.12	227.00
921.42	227.02
921.72	227.00
922.02	226.98
922.32	227.00
922.63	226.99
922.93	227.04
923.23	227.01
923.53	226.96
923.83	226.90
924.13	226.88
924.44	226.86
924.74	226.90
925.04	226.91
925.34	226.90
925.64	226.86
925.94	226.86
926.24	226.86
926.55	226.86
926.85	226.84
927.15	226.87
927.45	226.85
927.75	226.83
928.05	226.83
928.35	226.85
928.65	226.84
928.95	226.84
929.26	226.75
929.56	226.80
929.86	226.84
930.16	226.82
930.46	226.81
930.76	226.79
931.06	226.72
931.36	226.70
931.66	226.74
931.96	226.74
932.26	226.72
932.56	226.74
932.86	226.75
933.16	226.74
933.46	226.69
933.76	226.66
934.06	226.67
934.36	226.71
934.66	226.67
934.96	226.66
935.26	226.67
935.56	226.70
935.86	226.68
936.16	226.67
936.46	226.67
936.76	226.68
937.06	226.70
937.36	226.68
937.66	226.68
937.96	226.68
938.26	226.68
938.56	226.69
938.86	226.63
939.16	226.65
939.46	226.67
939.76	226.69
940.06	226.71
940.35	226.68
940.65	226.63
940.95	226.62
941.25	226.62
941.55	226.59
941.85	226.60
942.15	226.62
942.45	226.66
942.75	226.66
943.04	226.66
943.34	226.67
943.64	226.71
943.94	226.72
944.24	226.72
944.54	226.72
944.84	226.73
945.13	226.75
945.43	226.73
945.73	226.72
946.03	226.74
946.33	226.77
946.62	226.78
946.92	226.81
947.22	226.84
947.52	226.87
947.82	226.92
948.11	226.93
948.41	226.92
948.71	226.89
949.01	226.89
949.31	226.90
949.60	226.92
949.90	226.94
950.20	226.95
950.50	226.94
950.79	226.96
951.09	227.00
951.39	227.01
951.69	227.03
951.98	227.07
952.28	227.05
952.58	227.01
952.87	227.03
953.17	227.03
953.47	227.04
953.76	227.01
954.06	226.97
954.36	226.96
954.66	226.94
954.95	226.96
955.25	226.98
955.55	226.98
955.84	226.94
956.14	226.95
956.44	226.93
956.73	226.96
957.03	226.95
957.32	226.93
957.62	226.92
957.92	226.93
958.21	226.92
958.51	227.01
958.81	227.08
959.10	227.07
959.40	227.11
959.69	227.11
959.99	227.13
960.29	227.15
960.58	227.17
960.88	227.21
961.17	227.17
961.47	227.18
961.76	227.15
962.06	227.18
962.36	227.14
962.65	227.13
962.95	227.09
963.24	227.08
963.54	227.08
963.83	227.10
964.13	227.09
964.42	227.05
964.72	226.98
965.01	226.93
965.31	226.91
965.60	226.85
965.90	226.86
966.19	226.84
966.49	226.82
966.78	226.79
967.08	226.75
967.37	226.76
967.67	226.74
967.96	226.74
968.26	226.70
968.55	226.73
968.85	226.74
969.14	226.71
969.43	226.67
969.73	226.65
970.02	226.60
970.32	226.57
970.61	226.58
970.91	226.56
971.20	226.55
971.49	226.50
971.79	226.52
972.08	226.47
972.38	226.47
972.67	226.49
972.96	226.49
973.26	226.47
973.55	226.53
973.85	226.52
974.14	226.55
974.43	226.57
974.73	226.53
975.02	226.52
975.31	226.52
975.61	226.54
975.90	226.51
976.19	226.48
976.49	226.51
976.78	226.50
977.07	226.50
977.37	226.51
977.66	226.57
977.95	226.55
978.24	226.54
978.54	226.56
978.83	226.54
979.12	226.53
979.42	226.55
979.71	226.52
980.00	226.52
980.29	226.54
980.59	226.56
980.88	226.61
981.17	226.63
981.46	226.66
981.76	226.69
982.05	226.75
982.34	226.79
982.63	226.83
982.93	226.85
983.22	226.89
983.51	226.90
983.80	226.93
984.09	226.95
984.39	226.98
984.68	226.95
984.97	226.96
985.26	226.99
985.55	227.01
985.85	226.95
986.14	226.97
986.43	226.98
986.72	226.97
987.01	226.93
987.30	226.93
987.59	226.92
987.89	226.89
988.18	226.87
988.47	226.89
988.76	226.84
989.05	226.84
989.34	226.83
989.63	226.85
989.92	226.84
990.22	226.84
990.51	226.82
990.80	226.87
991.09	226.88
991.38	226.88
991.67	226.83
991.96	226.85
992.25	226.85
992.54	226.81
992.83	226.81
993.12	226.81
993.41	226.83
993.70	226.85
993.99	226.89
994.28	226.87
994.58	226.88
994.87	226.85
995.16	226.86
995.45	226.83
995.74	226.80
996.03	226.78
996.32	226.79
996.61	226.81
996.90	226.77
997.19	226.74
997.48	226.74
997.77	226.74
998.06	226.74
998.34	226.72
998.63	226.70
998.92	226.66
999.21	226.67
999.50	226.67
999.79	226.64
1000.08	226.61
1000.37	226.65
1000.66	226.61
1000.95	226.63
1001.24	226.60
1001.53	226.59
1001.82	226.60
1002.11	226.57
1002.40	226.58
1002.68	226.59
1002.97	226.64
1003.26	226.63
1003.55	226.61
1003.84	226.58
1004.13	226.64
1004.42	226.65
1004.71	226.64
1004.99	226.65
1005.28	226.67
1005.57	226.63
1005.86	226.61
1006.15	226.59
1006.44	226.56
1006.72	226.56
1007.01	226.58
1007.30	226.58
1007.59	226.57
1007.88	226.54
1008.17	226.56
1008.45	226.53
1008.74	226.48
1009.03	226.46
1009.32	226.49
1009.60	226.49
1009.89	226.52
1010.18	226.45
1010.47	226.45
1010.76	226.47
1011.04	226.48
1011.33	226.47
1011.62	226.47
1011.91	226.48
1012.19	226.50
1012.48	226.48
1012.77	226.48
1013.05	226.54
1013.34	226.56
1013.63	226.61
1013.92	226.63
1014.20	226.62
1014.49	226.64
1014.78	226.64
1015.06	226.59
1015.35	226.60
1015.64	226.63
1015.92	226.66
1016.21	226.70
1016.50	226.71
1016.78	226.75
1017.07	226.76
1017.36	226.74
1017.64	226.77
1017.93	226.81
1018.22	226.80
1018.50	226.85
1018.79	226.88
1019.08	226.82
1019.36	226.87
1019.65	226.82
1019.93	226.88
1020.22	226.92
1020.51	226.99
1020.79	227.01
1021.08	226.43
1021.36	227.03
1021.65	226.95
1021.94	226.87
1022.22	227.77
1022.51	226.43
1022.79	227.68
1023.08	227.37
1023.36	228.31
1023.65	226.66
>>>>>End Processed Spectral Data<<<<<
