SpectraSuite Data File
++++++++++++++++++++++++++++++++++++
Date: Fri Feb 01 16:18:19 EST 2013
User: group
Dark Spectrum Present: No
Reference Spectrum Present: No
Number of Sampled Component Spectra: 1
Spectrometers: USB2E7196
Integration Time (usec): 35000 (USB2E7196)
Spectra Averaged: 100 (USB2E7196)
Boxcar Smoothing: 10 (USB2E7196)
Correct for Electrical Dark: No (USB2E7196)
Strobe/Lamp Enabled: No (USB2E7196)
Correct for Detector Non-linearity: No (USB2E7196)
Correct for Stray Light: No (USB2E7196)
Number of Pixels in Processed Spectrum: 2048
>>>>>Begin Processed Spectral Data<<<<<
339.09	0.00
339.48	213.92
339.86	215.30
340.24	216.75
340.63	217.73
341.01	220.33
341.39	220.30
341.78	221.69
342.16	223.23
342.54	223.84
342.93	212.15
343.31	222.89
343.69	223.43
344.07	223.93
344.46	224.34
344.84	224.72
345.22	225.00
345.60	225.26
345.99	225.49
346.37	225.63
346.75	225.75
347.13	225.83
347.52	225.85
347.90	225.92
348.28	225.98
348.66	226.02
349.05	226.04
349.43	226.10
349.81	226.16
350.19	226.21
350.57	226.29
350.96	226.35
351.34	226.44
351.72	226.53
352.10	226.60
352.48	226.70
352.87	226.78
353.25	226.86
353.63	226.93
354.01	226.99
354.39	227.07
354.77	227.13
355.15	227.23
355.54	227.30
355.92	227.32
356.30	227.38
356.68	227.56
357.06	227.66
357.44	227.72
357.82	227.77
358.20	227.86
358.58	227.91
358.97	228.02
359.35	228.09
359.73	228.18
360.11	228.25
360.49	228.28
360.87	228.33
361.25	228.40
361.63	228.47
362.01	228.51
362.39	228.55
362.77	228.63
363.15	228.67
363.53	228.72
363.91	228.78
364.29	228.79
364.67	228.68
365.05	228.67
365.43	228.71
365.81	228.73
366.19	228.75
366.57	228.79
366.95	228.80
367.33	228.81
367.71	228.80
368.09	228.78
368.47	228.77
368.85	228.75
369.23	228.74
369.61	228.70
369.99	228.70
370.37	228.67
370.75	228.65
371.13	228.57
371.51	228.50
371.89	228.45
372.27	228.40
372.65	228.36
373.03	228.31
373.41	228.23
373.78	228.19
374.16	228.06
374.54	227.96
374.92	227.85
375.30	227.76
375.68	227.67
376.06	227.58
376.44	227.50
376.82	227.43
377.19	227.34
377.57	227.27
377.95	227.17
378.33	227.07
378.71	226.95
379.09	226.90
379.47	226.86
379.84	226.77
380.22	226.72
380.60	226.66
380.98	226.60
381.36	226.54
381.73	226.45
382.11	226.43
382.49	226.37
382.87	226.30
383.25	226.24
383.62	226.28
384.00	226.23
384.38	226.19
384.76	226.15
385.13	226.13
385.51	226.05
385.89	225.99
386.27	225.94
386.64	225.95
387.02	225.90
387.40	225.82
387.78	225.79
388.15	225.72
388.53	225.63
388.91	225.58
389.29	225.54
389.66	225.53
390.04	225.47
390.42	225.47
390.79	225.44
391.17	225.42
391.55	225.28
391.92	225.23
392.30	225.22
392.68	225.19
393.05	225.15
393.43	225.16
393.81	225.18
394.18	225.20
394.56	225.17
394.94	225.17
395.31	225.17
395.69	225.23
396.06	225.27
396.44	225.32
396.82	225.34
397.19	225.42
397.57	225.45
397.95	225.52
398.32	225.53
398.70	225.61
399.07	225.67
399.45	225.73
399.82	225.80
400.20	225.88
400.58	225.96
400.95	226.03
401.33	226.13
401.70	226.28
402.08	226.38
402.45	226.49
402.83	226.61
403.20	226.75
403.58	226.82
403.95	226.96
404.33	227.10
404.71	227.20
405.08	227.39
405.46	227.51
405.83	227.67
406.21	227.84
406.58	228.00
406.96	228.18
407.33	228.37
407.70	228.58
408.08	228.84
408.45	229.07
408.83	229.30
409.20	229.54
409.58	229.71
409.95	229.95
410.33	230.21
410.70	230.45
411.08	230.73
411.45	231.04
411.82	231.31
412.20	231.67
412.57	232.11
412.95	232.36
413.32	232.80
413.69	233.21
414.07	233.65
414.44	234.12
414.82	234.57
415.19	235.13
415.56	235.68
415.94	236.21
416.31	236.84
416.68	237.45
417.06	238.15
417.43	238.84
417.81	239.61
418.18	240.39
418.55	241.24
418.93	242.11
419.30	243.01
419.67	243.95
420.04	244.89
420.42	245.86
420.79	247.06
421.16	248.19
421.54	249.34
421.91	250.52
422.28	251.73
422.66	253.07
423.03	254.38
423.40	255.73
423.77	257.15
424.15	258.54
424.52	260.03
424.89	261.63
425.26	263.14
425.64	264.58
426.01	266.20
426.38	267.85
426.75	269.50
427.13	271.21
427.50	273.05
427.87	274.94
428.24	276.83
428.61	278.55
428.99	280.48
429.36	282.57
429.73	284.58
430.10	286.65
430.47	288.73
430.85	290.85
431.22	293.10
431.59	295.48
431.96	297.73
432.33	300.22
432.70	302.61
433.08	305.44
433.45	308.09
433.82	310.65
434.19	313.55
434.56	316.37
434.93	319.06
435.30	321.61
435.68	324.50
436.05	327.32
436.42	330.11
436.79	332.64
437.16	335.35
437.53	338.21
437.90	340.99
438.27	343.71
438.64	346.49
439.01	349.06
439.38	351.26
439.75	353.39
440.13	355.84
440.50	358.16
440.87	360.00
441.24	361.90
441.61	364.06
441.98	365.50
442.35	367.30
442.72	369.14
443.09	371.00
443.46	371.96
443.83	372.56
444.20	373.07
444.57	373.94
444.94	374.17
445.31	374.50
445.68	374.83
446.05	374.90
446.42	374.56
446.79	374.12
447.16	373.72
447.53	373.40
447.90	372.26
448.27	371.11
448.64	369.54
449.01	368.39
449.37	366.42
449.74	364.54
450.11	362.30
450.48	359.82
450.85	357.29
451.22	355.18
451.59	353.15
451.96	351.19
452.33	348.57
452.70	346.27
453.07	343.49
453.43	340.59
453.80	337.86
454.17	335.17
454.54	332.62
454.91	329.91
455.28	327.27
455.65	324.78
456.02	322.30
456.38	320.18
456.75	317.53
457.12	315.29
457.49	313.11
457.86	310.93
458.23	309.10
458.59	307.06
458.96	304.98
459.33	303.11
459.70	301.27
460.07	299.76
460.43	298.05
460.80	296.43
461.17	295.03
461.54	293.51
461.91	292.08
462.27	290.63
462.64	289.35
463.01	288.01
463.38	286.74
463.74	285.41
464.11	284.26
464.48	283.26
464.85	282.13
465.21	281.25
465.58	280.36
465.95	279.26
466.32	278.37
466.68	277.49
467.05	276.60
467.42	275.74
467.78	274.82
468.15	273.95
468.52	273.31
468.88	272.44
469.25	271.69
469.62	271.06
469.98	270.43
470.35	269.80
470.72	269.18
471.08	268.51
471.45	267.96
471.82	267.40
472.18	266.80
472.55	266.42
472.92	265.91
473.28	265.45
473.65	264.96
474.02	264.49
474.38	264.12
474.75	263.82
475.11	263.47
475.48	263.22
475.85	263.00
476.21	262.78
476.58	262.62
476.94	262.47
477.31	262.34
477.67	262.21
478.04	262.11
478.41	262.10
478.77	262.14
479.14	262.08
479.50	262.10
479.87	262.20
480.23	262.28
480.60	262.33
480.96	262.43
481.33	262.66
481.69	262.87
482.06	263.05
482.42	263.26
482.79	263.49
483.15	263.84
483.52	264.22
483.88	264.55
484.25	264.92
484.61	265.34
484.98	265.77
485.34	266.32
485.71	266.93
486.07	267.51
486.44	268.08
486.80	268.83
487.17	269.56
487.53	270.38
487.90	271.20
488.26	272.16
488.62	273.16
488.99	274.12
489.35	275.19
489.72	276.32
490.08	277.57
490.44	278.84
490.81	280.13
491.17	281.46
491.54	282.96
491.90	284.54
492.26	286.22
492.63	287.96
492.99	289.79
493.36	291.65
493.72	293.71
494.08	295.82
494.45	298.10
494.81	300.43
495.17	302.85
495.54	305.48
495.90	308.21
496.26	311.00
496.63	314.02
496.99	317.11
497.35	320.40
497.72	323.78
498.08	327.27
498.44	330.95
498.80	334.88
499.17	338.93
499.53	343.10
499.89	347.48
500.26	351.99
500.62	356.66
500.98	361.67
501.34	366.80
501.71	372.15
502.07	377.61
502.43	383.34
502.79	389.19
503.16	395.21
503.52	401.41
503.88	407.81
504.24	414.45
504.60	421.36
504.97	428.52
505.33	435.87
505.69	443.66
506.05	451.52
506.41	459.45
506.78	467.59
507.14	476.03
507.50	484.79
507.86	493.83
508.22	503.01
508.59	512.18
508.95	521.80
509.31	531.59
509.67	541.70
510.03	552.00
510.39	562.51
510.75	573.37
511.12	584.37
511.48	595.76
511.84	607.19
512.20	618.67
512.56	630.65
512.92	642.82
513.28	655.19
513.64	667.64
514.00	680.34
514.37	693.28
514.73	706.39
515.09	719.41
515.45	732.77
515.81	746.40
516.17	760.38
516.53	774.40
516.89	788.64
517.25	802.82
517.61	817.20
517.97	831.75
518.33	846.13
518.69	860.81
519.05	875.73
519.41	890.88
519.77	906.50
520.13	921.90
520.49	937.25
520.85	952.59
521.21	968.31
521.57	984.53
521.93	1000.24
522.29	1016.52
522.65	1032.71
523.01	1048.84
523.37	1064.79
523.73	1080.95
524.09	1097.04
524.45	1113.25
524.81	1129.80
525.17	1146.52
525.53	1163.27
525.89	1180.16
526.25	1196.99
526.61	1213.32
526.97	1230.08
527.33	1246.39
527.68	1263.02
528.04	1279.44
528.40	1296.02
528.76	1313.00
529.12	1329.57
529.48	1346.51
529.84	1362.52
530.20	1379.08
530.56	1395.99
530.91	1413.46
531.27	1430.19
531.63	1446.64
531.99	1463.19
532.35	1479.07
532.71	1494.91
533.07	1511.12
533.42	1526.91
533.78	1542.90
534.14	1559.15
534.50	1574.49
534.86	1590.39
535.21	1605.36
535.57	1621.27
535.93	1636.61
536.29	1651.32
536.65	1666.19
537.00	1680.84
537.36	1696.12
537.72	1710.53
538.08	1724.86
538.44	1738.42
538.79	1752.28
539.15	1765.82
539.51	1779.53
539.87	1793.81
540.22	1807.42
540.58	1821.19
540.94	1834.45
541.29	1847.26
541.65	1859.91
542.01	1872.86
542.37	1885.03
542.72	1897.45
543.08	1909.08
543.44	1921.39
543.79	1932.60
544.15	1943.61
544.51	1955.01
544.87	1965.90
545.22	1976.78
545.58	1987.00
545.94	1996.74
546.29	2006.42
546.65	2016.34
547.01	2025.50
547.36	2034.18
547.72	2042.63
548.07	2050.36
548.43	2058.47
548.79	2066.55
549.14	2074.04
549.50	2081.44
549.86	2089.13
550.21	2096.41
550.57	2103.59
550.92	2110.17
551.28	2117.15
551.64	2124.10
551.99	2130.81
552.35	2137.00
552.70	2143.32
553.06	2149.29
553.41	2155.63
553.77	2161.66
554.13	2167.54
554.48	2173.73
554.84	2179.32
555.19	2184.72
555.55	2189.89
555.90	2194.40
556.26	2199.25
556.61	2203.89
556.97	2208.25
557.32	2212.29
557.68	2216.49
558.03	2220.81
558.39	2224.50
558.74	2229.16
559.10	2233.17
559.45	2236.86
559.81	2241.18
560.16	2244.93
560.52	2248.14
560.87	2251.53
561.23	2254.21
561.58	2257.19
561.94	2259.65
562.29	2261.83
562.64	2264.50
563.00	2267.09
563.35	2270.59
563.71	2273.58
564.06	2276.97
564.42	2279.74
564.77	2282.53
565.12	2284.78
565.48	2286.76
565.83	2288.84
566.19	2290.13
566.54	2290.95
566.89	2291.92
567.25	2292.47
567.60	2293.65
567.96	2295.45
568.31	2296.32
568.66	2297.65
569.02	2298.25
569.37	2298.67
569.72	2299.69
570.08	2299.89
570.43	2300.03
570.78	2299.53
571.14	2298.11
571.49	2296.77
571.84	2296.50
572.20	2295.43
572.55	2294.40
572.90	2292.72
573.26	2291.27
573.61	2289.62
573.96	2287.89
574.31	2284.96
574.67	2282.14
575.02	2278.67
575.37	2275.31
575.72	2271.62
576.08	2268.12
576.43	2265.02
576.78	2261.33
577.13	2258.13
577.49	2255.14
577.84	2251.72
578.19	2248.01
578.54	2244.52
578.90	2240.28
579.25	2234.65
579.60	2229.64
579.95	2224.62
580.30	2219.87
580.66	2214.75
581.01	2209.84
581.36	2205.10
581.71	2200.97
582.06	2196.32
582.42	2191.98
582.77	2186.92
583.12	2182.46
583.47	2177.89
583.82	2172.95
584.17	2167.81
584.53	2162.36
584.88	2156.60
585.23	2150.89
585.58	2145.53
585.93	2140.05
586.28	2135.37
586.63	2130.51
586.98	2125.48
587.34	2120.92
587.69	2116.14
588.04	2110.87
588.39	2105.32
588.74	2098.80
589.09	2092.72
589.44	2086.06
589.79	2079.97
590.14	2074.28
590.49	2067.76
590.84	2061.42
591.19	2055.47
591.54	2048.95
591.89	2041.77
592.25	2035.09
592.60	2027.89
592.95	2020.33
593.30	2012.83
593.65	2005.24
594.00	1998.28
594.35	1991.05
594.70	1982.99
595.05	1975.73
595.40	1968.55
595.75	1961.11
596.10	1954.99
596.45	1948.37
596.80	1942.17
597.15	1935.48
597.50	1928.45
597.85	1922.01
598.19	1915.32
598.54	1908.02
598.89	1901.49
599.24	1895.53
599.59	1888.85
599.94	1882.64
600.29	1876.15
600.64	1869.82
600.99	1862.45
601.34	1855.51
601.69	1848.55
602.04	1841.74
602.39	1834.39
602.74	1827.56
603.08	1820.68
603.43	1813.89
603.78	1806.52
604.13	1799.43
604.48	1792.14
604.83	1785.21
605.18	1778.17
605.53	1770.20
605.87	1762.22
606.22	1754.99
606.57	1747.06
606.92	1739.72
607.27	1732.46
607.62	1725.62
607.96	1718.33
608.31	1711.69
608.66	1704.12
609.01	1696.62
609.36	1689.09
609.70	1680.93
610.05	1672.86
610.40	1665.39
610.75	1657.01
611.10	1649.28
611.44	1640.83
611.79	1632.84
612.14	1624.19
612.49	1615.03
612.83	1606.73
613.18	1598.66
613.53	1590.52
613.88	1581.86
614.22	1573.58
614.57	1564.94
614.92	1557.01
615.27	1549.39
615.61	1541.07
615.96	1533.01
616.31	1525.28
616.65	1517.88
617.00	1510.48
617.35	1502.75
617.70	1494.33
618.04	1485.89
618.39	1477.77
618.74	1470.16
619.08	1461.95
619.43	1454.37
619.78	1447.47
620.12	1440.23
620.47	1432.66
620.82	1424.60
621.16	1417.15
621.51	1409.56
621.85	1402.01
622.20	1393.42
622.55	1385.12
622.89	1377.22
623.24	1369.63
623.59	1362.26
623.93	1354.68
624.28	1347.44
624.62	1340.00
624.97	1332.84
625.32	1326.10
625.66	1319.05
626.01	1311.94
626.35	1304.38
626.70	1296.57
627.04	1288.91
627.39	1281.08
627.73	1273.71
628.08	1266.71
628.43	1259.46
628.77	1252.07
629.12	1244.51
629.46	1237.40
629.81	1229.99
630.15	1222.74
630.50	1215.33
630.84	1207.05
631.19	1199.14
631.53	1191.54
631.88	1183.96
632.22	1176.29
632.57	1168.97
632.91	1161.40
633.26	1153.86
633.60	1146.56
633.95	1139.50
634.29	1132.42
634.64	1125.78
634.98	1118.41
635.32	1111.13
635.67	1104.47
636.01	1097.80
636.36	1090.97
636.70	1084.34
637.05	1077.72
637.39	1071.31
637.73	1064.71
638.08	1058.81
638.42	1052.69
638.77	1046.26
639.11	1039.59
639.45	1033.20
639.80	1026.55
640.14	1020.18
640.49	1013.65
640.83	1007.32
641.17	1001.03
641.52	994.62
641.86	988.08
642.20	982.19
642.55	975.98
642.89	969.58
643.23	963.06
643.58	957.39
643.92	951.14
644.26	945.09
644.61	939.00
644.95	933.04
645.29	926.51
645.64	919.86
645.98	913.40
646.32	907.59
646.66	901.53
647.01	895.69
647.35	889.93
647.69	884.07
648.04	878.56
648.38	872.76
648.72	866.73
649.06	860.73
649.41	854.83
649.75	848.79
650.09	842.84
650.43	837.07
650.78	830.84
651.12	824.96
651.46	819.22
651.80	813.43
652.14	808.05
652.49	802.65
652.83	797.48
653.17	791.84
653.51	786.08
653.85	780.67
654.20	775.03
654.54	769.04
654.88	763.28
655.22	757.34
655.56	751.62
655.90	746.25
656.25	740.94
656.59	735.61
656.93	730.53
657.27	725.30
657.61	719.86
657.95	714.72
658.29	709.61
658.64	704.32
658.98	699.09
659.32	693.58
659.66	688.38
660.00	683.05
660.34	678.23
660.68	673.28
661.02	668.25
661.36	663.50
661.70	659.01
662.05	654.73
662.39	650.46
662.73	646.03
663.07	641.59
663.41	637.20
663.75	632.65
664.09	628.10
664.43	623.77
664.77	619.65
665.11	615.41
665.45	611.28
665.79	607.20
666.13	603.02
666.47	598.93
666.81	594.80
667.15	590.69
667.49	586.66
667.83	582.86
668.17	578.92
668.51	574.87
668.85	570.82
669.19	566.97
669.53	563.04
669.87	559.14
670.21	555.42
670.55	551.81
670.89	548.45
671.23	545.01
671.57	541.41
671.91	537.87
672.25	534.38
672.58	530.85
672.92	527.42
673.26	524.26
673.60	521.07
673.94	517.93
674.28	514.99
674.62	512.05
674.96	508.96
675.30	506.02
675.64	503.06
675.97	500.28
676.31	497.40
676.65	494.49
676.99	491.79
677.33	488.96
677.67	486.06
678.01	482.95
678.34	479.97
678.68	477.11
679.02	474.23
679.36	471.40
679.70	468.73
680.04	465.98
680.37	463.10
680.71	460.28
681.05	457.69
681.39	454.94
681.73	452.27
682.06	449.73
682.40	447.18
682.74	444.71
683.08	442.12
683.42	439.50
683.75	437.02
684.09	434.50
684.43	431.99
684.77	429.57
685.10	427.28
685.44	425.05
685.78	422.78
686.12	420.56
686.45	418.31
686.79	415.96
687.13	413.76
687.46	411.62
687.80	409.46
688.14	407.22
688.48	405.17
688.81	402.90
689.15	400.74
689.49	398.59
689.82	396.45
690.16	394.36
690.50	392.40
690.83	390.38
691.17	388.35
691.51	386.45
691.84	384.60
692.18	382.63
692.52	380.54
692.85	378.62
693.19	376.72
693.52	374.88
693.86	373.06
694.20	371.27
694.53	369.41
694.87	367.62
695.21	365.80
695.54	363.98
695.88	362.29
696.21	360.55
696.55	358.88
696.88	357.19
697.22	355.50
697.56	353.85
697.89	352.20
698.23	350.59
698.56	348.98
698.90	347.37
699.23	345.69
699.57	344.18
699.90	342.64
700.24	341.11
700.58	339.55
700.91	338.03
701.25	336.58
701.58	335.24
701.92	333.85
702.25	332.50
702.59	331.10
702.92	329.74
703.26	328.44
703.59	327.14
703.93	325.96
704.26	324.72
704.60	323.41
704.93	322.14
705.26	320.91
705.60	319.68
705.93	318.55
706.27	317.51
706.60	316.44
706.94	315.32
707.27	314.17
707.61	313.14
707.94	312.15
708.27	311.04
708.61	309.95
708.94	308.92
709.28	307.94
709.61	306.95
709.94	306.07
710.28	305.04
710.61	304.07
710.95	303.00
711.28	302.14
711.61	301.23
711.95	300.31
712.28	299.30
712.61	298.33
712.95	297.37
713.28	296.52
713.61	295.62
713.95	294.75
714.28	293.92
714.61	293.03
714.95	292.19
715.28	291.31
715.61	290.46
715.95	289.62
716.28	288.75
716.61	287.96
716.95	287.10
717.28	286.36
717.61	285.58
717.94	284.87
718.28	284.03
718.61	283.29
718.94	282.64
719.27	282.00
719.61	281.35
719.94	280.69
720.27	279.95
720.60	279.28
720.94	278.64
721.27	278.03
721.60	277.42
721.93	276.83
722.27	276.28
722.60	275.70
722.93	275.13
723.26	274.57
723.59	273.99
723.93	273.44
724.26	272.92
724.59	272.33
724.92	271.77
725.25	271.27
725.59	270.79
725.92	270.27
726.25	269.73
726.58	269.26
726.91	268.75
727.24	268.34
727.57	267.88
727.91	267.36
728.24	266.93
728.57	266.47
728.90	266.01
729.23	265.51
729.56	265.07
729.89	264.62
730.22	264.15
730.55	263.68
730.89	263.22
731.22	262.75
731.55	262.33
731.88	261.95
732.21	261.56
732.54	261.07
732.87	260.61
733.20	260.24
733.53	259.80
733.86	259.44
734.19	258.98
734.52	258.59
734.85	258.29
735.18	257.83
735.51	257.46
735.84	257.07
736.17	256.74
736.50	256.38
736.83	256.14
737.16	255.81
737.49	255.48
737.82	255.15
738.15	254.81
738.48	254.44
738.81	254.04
739.14	253.68
739.47	253.33
739.80	253.03
740.13	252.72
740.46	252.44
740.79	252.09
741.12	251.81
741.45	251.51
741.78	251.15
742.11	250.87
742.44	250.56
742.77	250.26
743.10	249.95
743.43	249.62
743.75	249.22
744.08	249.05
744.41	248.76
744.74	248.48
745.07	248.22
745.40	247.99
745.73	247.78
746.06	247.49
746.39	247.22
746.71	246.96
747.04	246.68
747.37	246.38
747.70	246.12
748.03	245.88
748.36	245.60
748.68	245.35
749.01	245.13
749.34	244.90
749.67	244.66
750.00	244.45
750.33	244.30
750.65	244.11
750.98	243.79
751.31	243.58
751.64	243.36
751.97	243.17
752.29	242.97
752.62	242.72
752.95	242.55
753.28	242.36
753.60	242.14
753.93	241.97
754.26	241.80
754.59	241.57
754.91	241.35
755.24	241.16
755.57	240.95
755.90	240.75
756.22	240.55
756.55	240.36
756.88	240.17
757.20	239.91
757.53	239.71
757.86	239.54
758.19	239.38
758.51	239.23
758.84	239.02
759.17	238.87
759.49	238.72
759.82	238.58
760.15	238.45
760.47	238.31
760.80	238.13
761.13	237.99
761.45	237.87
761.78	237.72
762.11	237.60
762.43	237.50
762.76	237.36
763.08	237.27
763.41	237.17
763.74	237.05
764.06	236.93
764.39	236.81
764.71	236.69
765.04	236.55
765.37	236.43
765.69	236.30
766.02	236.18
766.34	236.05
766.67	235.91
767.00	235.80
767.32	235.75
767.65	235.72
767.97	235.60
768.30	235.49
768.62	235.42
768.95	235.30
769.27	235.19
769.60	235.10
769.92	234.94
770.25	234.78
770.57	234.65
770.90	234.53
771.22	234.39
771.55	234.27
771.87	234.19
772.20	234.06
772.52	234.05
772.85	234.05
773.17	233.96
773.50	233.87
773.82	233.80
774.15	233.63
774.47	233.49
774.80	233.42
775.12	233.33
775.45	233.23
775.77	233.16
776.09	233.05
776.42	232.95
776.74	232.90
777.07	232.86
777.39	232.79
777.72	232.70
778.04	232.64
778.36	232.57
778.69	232.47
779.01	232.40
779.33	232.25
779.66	232.05
779.98	231.98
780.31	231.91
780.63	231.84
780.95	231.79
781.28	231.72
781.60	231.64
781.92	231.57
782.25	231.53
782.57	231.46
782.89	231.43
783.22	231.32
783.54	231.23
783.86	231.17
784.19	231.10
784.51	231.07
784.83	231.02
785.16	230.98
785.48	230.94
785.80	230.93
786.12	230.90
786.45	230.83
786.77	230.77
787.09	230.72
787.42	230.64
787.74	230.61
788.06	230.58
788.38	230.52
788.71	230.44
789.03	230.39
789.35	230.37
789.67	230.35
789.99	230.34
790.32	230.30
790.64	230.28
790.96	230.35
791.28	230.29
791.61	230.21
791.93	230.16
792.25	230.13
792.57	230.17
792.89	230.08
793.21	230.10
793.54	230.07
793.86	230.01
794.18	229.97
794.50	229.89
794.82	229.84
795.14	229.80
795.47	229.81
795.79	229.78
796.11	229.73
796.43	229.68
796.75	229.63
797.07	229.64
797.39	229.56
797.71	229.46
798.04	229.44
798.36	229.45
798.68	229.43
799.00	229.39
799.32	229.30
799.64	229.34
799.96	229.30
800.28	229.30
800.60	229.31
800.92	229.30
801.24	229.29
801.56	229.30
801.89	229.30
802.21	229.27
802.53	229.21
802.85	229.17
803.17	229.14
803.49	229.13
803.81	229.06
804.13	229.06
804.45	229.02
804.77	229.01
805.09	228.99
805.41	228.96
805.73	228.93
806.05	228.87
806.37	228.84
806.69	228.79
807.01	228.78
807.33	228.76
807.65	228.70
807.97	228.75
808.28	228.70
808.60	228.63
808.92	228.61
809.24	228.67
809.56	228.65
809.88	228.63
810.20	228.62
810.52	228.63
810.84	228.61
811.16	228.58
811.48	228.58
811.80	228.56
812.12	228.55
812.43	228.57
812.75	228.57
813.07	228.54
813.39	228.55
813.71	228.50
814.03	228.45
814.35	228.45
814.67	228.37
814.98	228.36
815.30	228.35
815.62	228.35
815.94	228.23
816.26	228.28
816.58	228.26
816.89	228.25
817.21	228.23
817.53	228.21
817.85	228.22
818.17	228.17
818.48	228.12
818.80	228.10
819.12	228.05
819.44	228.04
819.76	228.01
820.07	227.96
820.39	227.93
820.71	227.90
821.03	227.84
821.34	227.82
821.66	227.78
821.98	227.77
822.30	227.69
822.61	227.77
822.93	227.67
823.25	227.63
823.57	227.59
823.88	227.57
824.20	227.52
824.52	227.51
824.83	227.48
825.15	227.42
825.47	227.41
825.79	227.39
826.10	227.33
826.42	227.31
826.74	227.31
827.05	227.29
827.37	227.32
827.69	227.33
828.00	227.35
828.32	227.32
828.64	227.31
828.95	227.40
829.27	227.33
829.58	227.32
829.90	227.32
830.22	227.30
830.53	227.24
830.85	227.24
831.17	227.17
831.48	227.16
831.80	227.19
832.11	227.17
832.43	227.15
832.75	227.11
833.06	227.14
833.38	227.08
833.69	227.08
834.01	227.03
834.32	227.01
834.64	226.96
834.96	226.97
835.27	226.97
835.59	226.94
835.90	226.93
836.22	226.93
836.53	226.91
836.85	226.92
837.16	227.03
837.48	227.03
837.79	227.07
838.11	227.04
838.42	227.02
838.74	226.98
839.05	226.99
839.37	227.01
839.68	226.94
840.00	226.96
840.31	226.98
840.63	226.98
840.94	226.99
841.26	226.96
841.57	226.96
841.88	226.93
842.20	226.84
842.51	226.84
842.83	226.83
843.14	226.90
843.46	226.87
843.77	226.79
844.08	226.82
844.40	226.80
844.71	226.85
845.03	226.86
845.34	226.89
845.65	226.86
845.97	226.86
846.28	226.87
846.60	226.89
846.91	226.85
847.22	226.85
847.54	226.86
847.85	226.86
848.16	226.83
848.48	226.81
848.79	226.90
849.10	226.88
849.42	226.88
849.73	226.83
850.04	226.83
850.36	226.82
850.67	226.80
850.98	226.78
851.30	226.78
851.61	226.78
851.92	226.78
852.23	226.80
852.55	226.80
852.86	226.82
853.17	226.80
853.49	226.82
853.80	226.86
854.11	226.86
854.42	226.92
854.74	226.93
855.05	226.97
855.36	226.91
855.67	226.92
855.99	226.93
856.30	227.01
856.61	226.99
856.92	227.00
857.23	226.98
857.55	227.00
857.86	226.98
858.17	227.02
858.48	227.01
858.79	227.01
859.11	227.03
859.42	226.99
859.73	227.00
860.04	226.98
860.35	226.93
860.66	226.90
860.98	226.86
861.29	226.90
861.60	226.87
861.91	226.88
862.22	226.83
862.53	226.80
862.84	226.70
863.16	226.73
863.47	226.70
863.78	226.72
864.09	226.65
864.40	226.63
864.71	226.60
865.02	226.59
865.33	226.55
865.64	226.55
865.95	226.54
866.27	226.59
866.58	226.57
866.89	226.58
867.20	226.56
867.51	226.55
867.82	226.48
868.13	226.51
868.44	226.49
868.75	226.49
869.06	226.46
869.37	226.44
869.68	226.39
869.99	226.41
870.30	226.41
870.61	226.45
870.92	226.42
871.23	226.43
871.54	226.44
871.85	226.44
872.16	226.44
872.47	226.45
872.78	226.39
873.09	226.39
873.40	226.36
873.71	226.38
874.02	226.36
874.33	226.37
874.64	226.34
874.95	226.35
875.26	226.35
875.56	226.36
875.87	226.37
876.18	226.37
876.49	226.46
876.80	226.41
877.11	226.40
877.42	226.40
877.73	226.36
878.04	226.31
878.35	226.30
878.66	226.29
878.96	226.31
879.27	226.30
879.58	226.30
879.89	226.28
880.20	226.29
880.51	226.27
880.82	226.26
881.12	226.32
881.43	226.29
881.74	226.26
882.05	226.24
882.36	226.26
882.67	226.28
882.97	226.15
883.28	226.20
883.59	226.19
883.90	226.19
884.21	226.22
884.51	226.24
884.82	226.21
885.13	226.22
885.44	226.18
885.74	226.16
886.05	226.13
886.36	226.12
886.67	226.07
886.98	226.17
887.28	226.19
887.59	226.14
887.90	226.14
888.20	226.17
888.51	226.20
888.82	226.17
889.13	226.17
889.43	226.27
889.74	226.23
890.05	226.23
890.35	226.22
890.66	226.20
890.97	226.15
891.28	226.16
891.58	226.16
891.89	226.17
892.20	226.17
892.50	226.18
892.81	226.17
893.12	226.19
893.42	226.11
893.73	226.09
894.04	226.07
894.34	226.08
894.65	226.10
894.95	226.06
895.26	226.10
895.57	226.11
895.87	226.02
896.18	226.04
896.48	226.05
896.79	226.05
897.10	226.07
897.40	226.12
897.71	226.15
898.01	226.13
898.32	226.17
898.63	226.15
898.93	226.18
899.24	226.21
899.54	226.21
899.85	226.22
900.15	226.24
900.46	226.25
900.76	226.25
901.07	226.23
901.38	226.22
901.68	226.18
901.99	226.16
902.29	226.17
902.60	226.15
902.90	226.15
903.21	226.16
903.51	226.14
903.82	226.13
904.12	226.11
904.43	226.14
904.73	226.10
905.03	226.16
905.34	226.22
905.64	226.20
905.95	226.19
906.25	226.18
906.56	226.19
906.86	226.18
907.17	226.18
907.47	226.18
907.77	226.18
908.08	226.16
908.38	226.16
908.69	226.14
908.99	226.18
909.30	226.16
909.60	226.17
909.90	226.17
910.21	226.14
910.51	226.15
910.81	226.16
911.12	226.15
911.42	226.15
911.73	226.06
912.03	226.09
912.33	226.11
912.64	226.12
912.94	226.08
913.24	226.12
913.55	226.12
913.85	226.13
914.15	226.17
914.46	226.21
914.76	226.19
915.06	226.18
915.37	226.10
915.67	226.11
915.97	226.12
916.27	226.09
916.58	226.12
916.88	226.12
917.18	226.09
917.49	226.18
917.79	226.17
918.09	226.17
918.39	226.18
918.70	226.16
919.00	226.15
919.30	226.18
919.60	226.14
919.91	226.11
920.21	226.09
920.51	226.07
920.81	226.04
921.12	226.07
921.42	226.07
921.72	226.10
922.02	226.09
922.32	226.13
922.63	226.15
922.93	226.15
923.23	226.15
923.53	226.13
923.83	226.04
924.13	226.03
924.44	226.04
924.74	226.06
925.04	226.11
925.34	226.11
925.64	226.08
925.94	226.06
926.24	226.09
926.55	226.08
926.85	226.07
927.15	226.06
927.45	226.05
927.75	226.05
928.05	226.04
928.35	226.04
928.65	226.02
928.95	226.02
929.26	226.04
929.56	226.05
929.86	226.06
930.16	226.01
930.46	226.01
930.76	226.00
931.06	225.93
931.36	225.86
931.66	225.87
931.96	225.86
932.26	225.87
932.56	225.86
932.86	225.85
933.16	225.88
933.46	225.89
933.76	225.89
934.06	225.90
934.36	225.97
934.66	225.99
934.96	225.94
935.26	225.95
935.56	225.92
935.86	225.88
936.16	225.89
936.46	225.88
936.76	225.86
937.06	225.84
937.36	225.85
937.66	225.88
937.96	225.88
938.26	225.87
938.56	225.85
938.86	225.87
939.16	225.91
939.46	225.90
939.76	225.93
940.06	225.90
940.35	225.88
940.65	225.81
940.95	225.78
941.25	225.81
941.55	225.80
941.85	225.80
942.15	225.84
942.45	225.86
942.75	225.91
943.04	225.91
943.34	225.97
943.64	225.96
943.94	225.95
944.24	225.95
944.54	225.97
944.84	225.99
945.13	225.97
945.43	225.95
945.73	225.95
946.03	225.92
946.33	225.95
946.62	225.93
946.92	225.93
947.22	225.95
947.52	225.95
947.82	225.98
948.11	225.97
948.41	225.94
948.71	225.90
949.01	225.93
949.31	225.92
949.60	225.90
949.90	225.95
950.20	225.95
950.50	225.93
950.79	225.95
951.09	226.00
951.39	225.99
951.69	225.97
951.98	225.97
952.28	226.01
952.58	225.95
952.87	226.00
953.17	226.01
953.47	226.01
953.76	226.00
954.06	225.97
954.36	225.99
954.66	226.02
954.95	226.03
955.25	226.04
955.55	226.07
955.84	226.05
956.14	226.04
956.44	226.05
956.73	226.05
957.03	226.04
957.32	226.00
957.62	226.00
957.92	226.03
958.21	226.03
958.51	226.08
958.81	226.15
959.10	226.14
959.40	226.16
959.69	226.15
959.99	226.15
960.29	226.14
960.58	226.11
960.88	226.13
961.17	226.12
961.47	226.11
961.76	226.08
962.06	226.09
962.36	226.06
962.65	226.05
962.95	226.02
963.24	225.99
963.54	226.01
963.83	225.98
964.13	225.98
964.42	225.95
964.72	225.88
965.01	225.82
965.31	225.79
965.60	225.76
965.90	225.81
966.19	225.78
966.49	225.77
966.78	225.75
967.08	225.74
967.37	225.75
967.67	225.73
967.96	225.75
968.26	225.75
968.55	225.76
968.85	225.78
969.14	225.78
969.43	225.79
969.73	225.79
970.02	225.82
970.32	225.79
970.61	225.80
970.91	225.77
971.20	225.79
971.49	225.79
971.79	225.81
972.08	225.74
972.38	225.77
972.67	225.79
972.96	225.79
973.26	225.75
973.55	225.72
973.85	225.68
974.14	225.65
974.43	225.61
974.73	225.58
975.02	225.56
975.31	225.60
975.61	225.59
975.90	225.56
976.19	225.54
976.49	225.57
976.78	225.56
977.07	225.58
977.37	225.60
977.66	225.60
977.95	225.59
978.24	225.64
978.54	225.63
978.83	225.64
979.12	225.68
979.42	225.72
979.71	225.74
980.00	225.76
980.29	225.79
980.59	225.80
980.88	225.86
981.17	225.89
981.46	225.89
981.76	225.90
982.05	225.93
982.34	225.93
982.63	225.91
982.93	225.92
983.22	225.98
983.51	225.97
983.80	226.03
984.09	226.03
984.39	226.01
984.68	226.01
984.97	226.02
985.26	226.02
985.55	226.03
985.85	225.99
986.14	226.03
986.43	226.04
986.72	226.04
987.01	226.02
987.30	226.00
987.59	225.98
987.89	225.99
988.18	225.95
988.47	225.98
988.76	226.00
989.05	225.98
989.34	225.94
989.63	225.95
989.92	225.92
990.22	225.95
990.51	225.94
990.80	225.98
991.09	225.98
991.38	226.01
991.67	226.04
991.96	226.04
992.25	226.00
992.54	225.97
992.83	225.98
993.12	225.97
993.41	225.96
993.70	225.97
993.99	226.01
994.28	226.02
994.58	226.03
994.87	225.98
995.16	225.99
995.45	225.99
995.74	225.97
996.03	226.00
996.32	225.98
996.61	225.99
996.90	225.94
997.19	225.89
997.48	225.87
997.77	225.82
998.06	225.83
998.34	225.83
998.63	225.86
998.92	225.90
999.21	225.91
999.50	225.94
999.79	225.91
1000.08	225.91
1000.37	225.92
1000.66	225.89
1000.95	225.95
1001.24	225.94
1001.53	225.92
1001.82	225.90
1002.11	225.86
1002.40	225.86
1002.68	225.87
1002.97	225.96
1003.26	225.95
1003.55	225.91
1003.84	225.92
1004.13	225.93
1004.42	225.95
1004.71	225.93
1004.99	225.91
1005.28	225.94
1005.57	225.92
1005.86	225.93
1006.15	225.88
1006.44	225.89
1006.72	225.91
1007.01	225.85
1007.30	225.90
1007.59	225.91
1007.88	225.91
1008.17	225.91
1008.45	225.89
1008.74	225.89
1009.03	225.83
1009.32	225.86
1009.60	225.86
1009.89	225.83
1010.18	225.84
1010.47	225.82
1010.76	225.80
1011.04	225.77
1011.33	225.73
1011.62	225.75
1011.91	225.78
1012.19	225.83
1012.48	225.83
1012.77	225.84
1013.05	225.91
1013.34	225.91
1013.63	225.93
1013.92	225.93
1014.20	225.95
1014.49	225.97
1014.78	225.95
1015.06	225.91
1015.35	225.92
1015.64	225.98
1015.92	225.99
1016.21	225.97
1016.50	225.97
1016.78	226.00
1017.07	226.02
1017.36	226.03
1017.64	226.03
1017.93	226.04
1018.22	226.01
1018.50	226.00
1018.79	226.01
1019.08	225.97
1019.36	225.96
1019.65	225.94
1019.93	225.98
1020.22	226.00
1020.51	226.03
1020.79	226.04
1021.08	225.79
1021.36	226.08
1021.65	226.24
1021.94	225.86
1022.22	226.36
1022.51	225.88
1022.79	226.44
1023.08	226.40
1023.36	226.81
1023.65	225.69
>>>>>End Processed Spectral Data<<<<<
