SpectraSuite Data File
++++++++++++++++++++++++++++++++++++
Date: Fri Feb 01 16:09:32 EST 2013
User: group
Dark Spectrum Present: No
Reference Spectrum Present: No
Number of Sampled Component Spectra: 1
Spectrometers: USB2E7196
Integration Time (usec): 35000 (USB2E7196)
Spectra Averaged: 100 (USB2E7196)
Boxcar Smoothing: 10 (USB2E7196)
Correct for Electrical Dark: No (USB2E7196)
Strobe/Lamp Enabled: No (USB2E7196)
Correct for Detector Non-linearity: No (USB2E7196)
Correct for Stray Light: No (USB2E7196)
Number of Pixels in Processed Spectrum: 2048
>>>>>Begin Processed Spectral Data<<<<<
339.09	0.00
339.48	214.37
339.86	215.35
340.24	217.57
340.63	218.79
341.01	221.72
341.39	220.90
341.78	222.75
342.16	223.83
342.54	224.43
342.93	212.81
343.31	223.58
343.69	224.11
344.07	224.62
344.46	225.04
344.84	225.40
345.22	225.64
345.60	225.90
345.99	226.09
346.37	226.24
346.75	226.35
347.13	226.41
347.52	226.48
347.90	226.56
348.28	226.60
348.66	226.67
349.05	226.67
349.43	226.72
349.81	226.79
350.19	226.85
350.57	226.88
350.96	226.97
351.34	227.02
351.72	227.12
352.10	227.18
352.48	227.24
352.87	227.33
353.25	227.38
353.63	227.46
354.01	227.57
354.39	227.64
354.77	227.69
355.15	227.79
355.54	227.84
355.92	227.86
356.30	227.92
356.68	228.05
357.06	228.09
357.44	228.15
357.82	228.16
358.20	228.23
358.58	228.31
358.97	228.36
359.35	228.47
359.73	228.54
360.11	228.61
360.49	228.69
360.87	228.70
361.25	228.75
361.63	228.82
362.01	228.82
362.39	228.86
362.77	228.91
363.15	228.90
363.53	228.93
363.91	228.94
364.29	228.99
364.67	228.91
365.05	228.97
365.43	228.99
365.81	229.03
366.19	229.03
366.57	229.02
366.95	229.01
367.33	229.01
367.71	229.02
368.09	228.99
368.47	228.93
368.85	228.92
369.23	228.95
369.61	228.91
369.99	228.89
370.37	228.83
370.75	228.85
371.13	228.83
371.51	228.81
371.89	228.78
372.27	228.72
372.65	228.67
373.03	228.62
373.41	228.57
373.78	228.50
374.16	228.43
374.54	228.31
374.92	228.27
375.30	228.16
375.68	228.03
376.06	227.99
376.44	227.97
376.82	227.90
377.19	227.81
377.57	227.74
377.95	227.63
378.33	227.59
378.71	227.47
379.09	227.40
379.47	227.33
379.84	227.22
380.22	227.16
380.60	227.06
380.98	226.96
381.36	226.86
381.73	226.83
382.11	226.77
382.49	226.77
382.87	226.65
383.25	226.59
383.62	226.67
384.00	226.59
384.38	226.52
384.76	226.47
385.13	226.46
385.51	226.39
385.89	226.34
386.27	226.27
386.64	226.23
387.02	226.15
387.40	226.09
387.78	226.07
388.15	226.03
388.53	226.00
388.91	225.97
389.29	225.94
389.66	225.88
390.04	225.85
390.42	225.83
390.79	225.86
391.17	225.85
391.55	225.71
391.92	225.70
392.30	225.72
392.68	225.72
393.05	225.70
393.43	225.70
393.81	225.73
394.18	225.74
394.56	225.75
394.94	225.83
395.31	225.83
395.69	225.90
396.06	225.94
396.44	226.00
396.82	226.02
397.19	226.13
397.57	226.16
397.95	226.24
398.32	226.25
398.70	226.29
399.07	226.39
399.45	226.44
399.82	226.48
400.20	226.56
400.58	226.64
400.95	226.71
401.33	226.81
401.70	226.98
402.08	227.06
402.45	227.15
402.83	227.26
403.20	227.39
403.58	227.46
403.95	227.63
404.33	227.78
404.71	227.93
405.08	228.09
405.46	228.22
405.83	228.37
406.21	228.54
406.58	228.75
406.96	228.89
407.33	229.09
407.70	229.30
408.08	229.56
408.45	229.75
408.83	229.94
409.20	230.13
409.58	230.32
409.95	230.59
410.33	230.88
410.70	231.14
411.08	231.46
411.45	231.81
411.82	232.09
412.20	232.44
412.57	232.90
412.95	233.17
413.32	233.61
413.69	234.01
414.07	234.47
414.44	234.92
414.82	235.43
415.19	235.99
415.56	236.54
415.94	237.09
416.31	237.76
416.68	238.42
417.06	239.16
417.43	239.82
417.81	240.59
418.18	241.35
418.55	242.18
418.93	243.04
419.30	243.90
419.67	244.80
420.04	245.75
420.42	246.68
420.79	247.90
421.16	249.02
421.54	250.24
421.91	251.41
422.28	252.65
422.66	253.97
423.03	255.27
423.40	256.62
423.77	258.02
424.15	259.42
424.52	260.88
424.89	262.49
425.26	264.03
425.64	265.49
426.01	267.09
426.38	268.72
426.75	270.39
427.13	272.15
427.50	273.98
427.87	275.85
428.24	277.74
428.61	279.46
428.99	281.42
429.36	283.52
429.73	285.64
430.10	287.67
430.47	289.73
430.85	291.87
431.22	294.10
431.59	296.45
431.96	298.72
432.33	301.19
432.70	303.59
433.08	306.43
433.45	309.05
433.82	311.63
434.19	314.52
434.56	317.34
434.93	319.97
435.30	322.54
435.68	325.41
436.05	328.23
436.42	331.04
436.79	333.54
437.16	336.19
437.53	338.97
437.90	341.79
438.27	344.49
438.64	347.25
439.01	349.80
439.38	352.03
439.75	354.17
440.13	356.63
440.50	358.90
440.87	360.70
441.24	362.62
441.61	364.77
441.98	366.19
442.35	367.93
442.72	369.75
443.09	371.61
443.46	372.60
443.83	373.17
444.20	373.65
444.57	374.48
444.94	374.77
445.31	375.08
445.68	375.36
446.05	375.46
446.42	375.11
446.79	374.68
447.16	374.23
447.53	373.88
447.90	372.74
448.27	371.56
448.64	369.97
449.01	368.85
449.37	366.87
449.74	365.02
450.11	362.82
450.48	360.34
450.85	357.79
451.22	355.65
451.59	353.66
451.96	351.76
452.33	349.19
452.70	346.85
453.07	344.04
453.43	341.17
453.80	338.40
454.17	335.70
454.54	333.18
454.91	330.51
455.28	327.86
455.65	325.42
456.02	322.99
456.38	320.85
456.75	318.20
457.12	316.02
457.49	313.79
457.86	311.64
458.23	309.82
458.59	307.79
458.96	305.73
459.33	303.86
459.70	301.96
460.07	300.49
460.43	298.77
460.80	297.18
461.17	295.77
461.54	294.28
461.91	292.88
462.27	291.43
462.64	290.15
463.01	288.82
463.38	287.53
463.74	286.20
464.11	285.06
464.48	284.06
464.85	282.93
465.21	282.13
465.58	281.20
465.95	280.11
466.32	279.26
466.68	278.35
467.05	277.44
467.42	276.56
467.78	275.61
468.15	274.76
468.52	274.10
468.88	273.26
469.25	272.50
469.62	271.91
469.98	271.25
470.35	270.66
470.72	270.09
471.08	269.45
471.45	268.92
471.82	268.41
472.18	267.80
472.55	267.36
472.92	266.83
473.28	266.38
473.65	265.94
474.02	265.45
474.38	265.06
474.75	264.75
475.11	264.38
475.48	264.12
475.85	263.90
476.21	263.63
476.58	263.42
476.94	263.28
477.31	263.09
477.67	262.95
478.04	262.82
478.41	262.72
478.77	262.73
479.14	262.63
479.50	262.60
479.87	262.65
480.23	262.76
480.60	262.81
480.96	262.85
481.33	263.05
481.69	263.26
482.06	263.46
482.42	263.67
482.79	263.95
483.15	264.25
483.52	264.59
483.88	264.96
484.25	265.36
484.61	265.78
484.98	266.24
485.34	266.79
485.71	267.30
486.07	267.91
486.44	268.48
486.80	269.21
487.17	269.98
487.53	270.83
487.90	271.63
488.26	272.55
488.62	273.59
488.99	274.56
489.35	275.61
489.72	276.75
490.08	277.90
490.44	279.15
490.81	280.51
491.17	281.88
491.54	283.35
491.90	284.89
492.26	286.57
492.63	288.27
492.99	290.09
493.36	292.05
493.72	294.12
494.08	296.25
494.45	298.48
494.81	300.86
495.17	303.27
495.54	305.86
495.90	308.56
496.26	311.38
496.63	314.36
496.99	317.47
497.35	320.69
497.72	324.17
498.08	327.69
498.44	331.32
498.80	335.24
499.17	339.29
499.53	343.48
499.89	347.89
500.26	352.42
500.62	357.08
500.98	362.08
501.34	367.14
501.71	372.49
502.07	377.99
502.43	383.58
502.79	389.42
503.16	395.54
503.52	401.82
503.88	408.19
504.24	414.84
504.60	421.78
504.97	428.92
505.33	436.24
505.69	443.99
506.05	451.86
506.41	459.82
506.78	468.01
507.14	476.48
507.50	485.17
507.86	494.22
508.22	503.42
508.59	512.59
508.95	522.19
509.31	532.01
509.67	542.10
510.03	552.41
510.39	563.02
510.75	573.81
511.12	584.77
511.48	596.15
511.84	607.59
512.20	619.03
512.56	631.04
512.92	643.19
513.28	655.55
513.64	667.98
514.00	680.67
514.37	693.66
514.73	706.73
515.09	719.75
515.45	732.99
515.81	746.62
516.17	760.61
516.53	774.71
516.89	788.94
517.25	803.11
517.61	817.52
517.97	831.91
518.33	846.37
518.69	861.16
519.05	876.09
519.41	891.26
519.77	906.79
520.13	922.27
520.49	937.68
520.85	953.01
521.21	968.68
521.57	984.88
521.93	1000.63
522.29	1016.92
522.65	1033.22
523.01	1049.47
523.37	1065.43
523.73	1081.55
524.09	1097.66
524.45	1113.87
524.81	1130.44
525.17	1147.19
525.53	1164.04
525.89	1180.83
526.25	1197.64
526.61	1213.94
526.97	1230.64
527.33	1247.12
527.68	1263.62
528.04	1280.10
528.40	1296.67
528.76	1313.76
529.12	1330.18
529.48	1346.92
529.84	1362.88
530.20	1379.29
530.56	1396.18
530.91	1413.56
531.27	1430.27
531.63	1446.56
531.99	1463.09
532.35	1478.95
532.71	1494.84
533.07	1511.05
533.42	1526.95
533.78	1542.86
534.14	1559.11
534.50	1574.35
534.86	1590.06
535.21	1605.17
535.57	1620.95
535.93	1636.31
536.29	1650.80
536.65	1665.90
537.00	1680.54
537.36	1695.84
537.72	1710.33
538.08	1724.66
538.44	1738.49
538.79	1752.33
539.15	1765.97
539.51	1779.55
539.87	1793.87
540.22	1807.59
540.58	1821.19
540.94	1834.24
541.29	1846.94
541.65	1859.52
542.01	1872.65
542.37	1885.05
542.72	1897.37
543.08	1909.09
543.44	1921.48
543.79	1932.83
544.15	1943.74
544.51	1955.27
544.87	1966.17
545.22	1976.94
545.58	1987.24
545.94	1996.87
546.29	2006.72
546.65	2016.63
547.01	2025.84
547.36	2034.52
547.72	2042.81
548.07	2050.75
548.43	2058.97
548.79	2067.06
549.14	2074.65
549.50	2081.91
549.86	2089.36
550.21	2096.67
550.57	2103.91
550.92	2110.61
551.28	2117.71
551.64	2124.74
551.99	2131.28
552.35	2137.36
552.70	2143.66
553.06	2149.63
553.41	2155.92
553.77	2161.90
554.13	2167.84
554.48	2174.13
554.84	2179.71
555.19	2185.13
555.55	2190.39
555.90	2194.88
556.26	2199.73
556.61	2204.45
556.97	2208.96
557.32	2213.17
557.68	2217.39
558.03	2221.63
558.39	2225.11
558.74	2229.75
559.10	2233.60
559.45	2237.32
559.81	2241.60
560.16	2245.43
560.52	2248.60
560.87	2252.00
561.23	2254.58
561.58	2257.47
561.94	2259.91
562.29	2262.07
562.64	2264.69
563.00	2267.25
563.35	2270.80
563.71	2274.00
564.06	2277.14
564.42	2279.80
564.77	2282.49
565.12	2284.80
565.48	2286.60
565.83	2288.65
566.19	2289.90
566.54	2290.80
566.89	2291.87
567.25	2292.65
567.60	2293.83
567.96	2295.57
568.31	2296.34
568.66	2297.64
569.02	2298.28
569.37	2298.66
569.72	2299.67
570.08	2299.93
570.43	2299.76
570.78	2299.11
571.14	2297.59
571.49	2296.36
571.84	2296.19
572.20	2295.09
572.55	2294.07
572.90	2292.44
573.26	2290.99
573.61	2289.23
573.96	2287.75
574.31	2284.89
574.67	2281.68
575.02	2277.99
575.37	2274.57
575.72	2270.95
576.08	2267.49
576.43	2264.09
576.78	2260.47
577.13	2257.20
577.49	2253.95
577.84	2250.66
578.19	2247.00
578.54	2243.51
578.90	2239.27
579.25	2233.74
579.60	2228.81
579.95	2223.81
580.30	2218.92
580.66	2213.72
581.01	2208.77
581.36	2203.73
581.71	2199.56
582.06	2195.34
582.42	2191.19
582.77	2186.07
583.12	2181.53
583.47	2176.98
583.82	2172.21
584.17	2167.06
584.53	2161.70
584.88	2156.26
585.23	2150.56
585.58	2145.06
585.93	2139.45
586.28	2134.71
586.63	2129.72
586.98	2124.62
587.34	2119.91
587.69	2115.09
588.04	2109.96
588.39	2104.49
588.74	2098.00
589.09	2091.85
589.44	2085.05
589.79	2078.84
590.14	2073.21
590.49	2066.64
590.84	2060.24
591.19	2054.25
591.54	2047.72
591.89	2040.46
592.25	2033.77
592.60	2026.59
592.95	2019.11
593.30	2011.84
593.65	2004.20
594.00	1997.13
594.35	1989.86
594.70	1981.66
595.05	1974.60
595.40	1967.36
595.75	1959.92
596.10	1953.72
596.45	1947.14
596.80	1941.07
597.15	1934.61
597.50	1927.59
597.85	1921.06
598.19	1914.40
598.54	1907.47
598.89	1900.79
599.24	1894.82
599.59	1887.95
599.94	1881.78
600.29	1875.46
600.64	1868.88
600.99	1861.47
601.34	1854.62
601.69	1847.60
602.04	1841.05
602.39	1833.62
602.74	1826.78
603.08	1819.95
603.43	1813.25
603.78	1805.76
604.13	1798.51
604.48	1791.10
604.83	1784.11
605.18	1777.35
605.53	1769.37
605.87	1761.14
606.22	1753.93
606.57	1745.97
606.92	1738.88
607.27	1731.71
607.62	1724.85
607.96	1717.64
608.31	1711.17
608.66	1703.65
609.01	1696.21
609.36	1688.59
609.70	1680.61
610.05	1672.56
610.40	1664.92
610.75	1656.60
611.10	1649.07
611.44	1640.60
611.79	1632.66
612.14	1624.13
612.49	1614.82
612.83	1606.37
613.18	1598.28
613.53	1590.28
613.88	1581.74
614.22	1573.33
614.57	1564.57
614.92	1556.49
615.27	1549.00
615.61	1540.66
615.96	1532.59
616.31	1524.90
616.65	1517.51
617.00	1509.90
617.35	1502.15
617.70	1493.80
618.04	1485.31
618.39	1476.98
618.74	1469.44
619.08	1461.12
619.43	1453.38
619.78	1446.47
620.12	1439.36
620.47	1431.81
620.82	1423.55
621.16	1416.12
621.51	1408.45
621.85	1400.77
622.20	1392.23
622.55	1383.77
622.89	1375.94
623.24	1368.29
623.59	1360.85
623.93	1353.29
624.28	1346.13
624.62	1338.70
624.97	1331.57
625.32	1324.89
625.66	1317.93
626.01	1310.78
626.35	1303.44
626.70	1295.69
627.04	1288.06
627.39	1280.30
627.73	1272.83
628.08	1265.97
628.43	1258.70
628.77	1251.30
629.12	1243.80
629.46	1236.77
629.81	1229.33
630.15	1222.04
630.50	1214.64
630.84	1206.49
631.19	1198.49
631.53	1190.95
631.88	1183.29
632.22	1175.67
632.57	1168.30
632.91	1160.77
633.26	1153.36
633.60	1145.84
633.95	1138.75
634.29	1131.66
634.64	1124.92
634.98	1117.62
635.32	1110.45
635.67	1103.81
636.01	1097.21
636.36	1090.45
636.70	1083.84
637.05	1077.23
637.39	1070.82
637.73	1064.34
638.08	1058.47
638.42	1052.59
638.77	1046.13
639.11	1039.57
639.45	1033.10
639.80	1026.43
640.14	1020.00
640.49	1013.38
640.83	1007.11
641.17	1000.97
641.52	994.61
641.86	988.12
642.20	982.26
642.55	975.97
642.89	969.58
643.23	963.01
643.58	957.26
643.92	951.12
644.26	945.05
644.61	938.87
644.95	932.89
645.29	926.31
645.64	919.48
645.98	913.04
646.32	907.22
646.66	901.22
647.01	895.44
647.35	889.74
647.69	883.89
648.04	878.29
648.38	872.42
648.72	866.48
649.06	860.45
649.41	854.52
649.75	848.58
650.09	842.59
650.43	836.83
650.78	830.63
651.12	824.58
651.46	818.89
651.80	813.23
652.14	807.73
652.49	802.29
652.83	797.15
653.17	791.58
653.51	785.87
653.85	780.47
654.20	774.78
654.54	768.69
654.88	762.98
655.22	757.15
655.56	751.49
655.90	746.04
656.25	740.85
656.59	735.45
656.93	730.33
657.27	725.20
657.61	719.75
657.95	714.66
658.29	709.59
658.64	704.31
658.98	698.97
659.32	693.55
659.66	688.35
660.00	683.03
660.34	678.08
660.68	673.10
661.02	668.04
661.36	663.32
661.70	658.88
662.05	654.48
662.39	650.19
662.73	645.67
663.07	641.25
663.41	636.80
663.75	632.43
664.09	627.86
664.43	623.42
664.77	619.32
665.11	615.05
665.45	610.88
665.79	606.85
666.13	602.75
666.47	598.65
666.81	594.50
667.15	590.39
667.49	586.43
667.83	582.59
668.17	578.64
668.51	574.59
668.85	570.56
669.19	566.69
669.53	562.84
669.87	558.96
670.21	555.29
670.55	551.58
670.89	548.11
671.23	544.61
671.57	541.07
671.91	537.52
672.25	534.05
672.58	530.58
672.92	527.14
673.26	523.92
673.60	520.74
673.94	517.68
674.28	514.74
674.62	511.80
674.96	508.72
675.30	505.83
675.64	502.93
675.97	500.13
676.31	497.24
676.65	494.31
676.99	491.62
677.33	488.75
677.67	485.97
678.01	482.94
678.34	479.96
678.68	477.09
679.02	474.29
679.36	471.50
679.70	468.79
680.04	466.05
680.37	463.27
680.71	460.48
681.05	457.79
681.39	455.08
681.73	452.41
682.06	449.89
682.40	447.35
682.74	444.82
683.08	442.28
683.42	439.72
683.75	437.20
684.09	434.65
684.43	432.15
684.77	429.71
685.10	427.37
685.44	425.10
685.78	422.78
686.12	420.55
686.45	418.31
686.79	416.00
687.13	413.79
687.46	411.55
687.80	409.37
688.14	407.13
688.48	405.07
688.81	402.84
689.15	400.69
689.49	398.54
689.82	396.44
690.16	394.35
690.50	392.44
690.83	390.48
691.17	388.50
691.51	386.60
691.84	384.72
692.18	382.79
692.52	380.81
692.85	378.88
693.19	376.93
693.52	375.05
693.86	373.21
694.20	371.43
694.53	369.66
694.87	367.81
695.21	366.02
695.54	364.17
695.88	362.43
696.21	360.73
696.55	359.06
696.88	357.35
697.22	355.67
697.56	353.97
697.89	352.36
698.23	350.80
698.56	349.19
698.90	347.63
699.23	346.00
699.57	344.47
699.90	342.97
700.24	341.46
700.58	339.98
700.91	338.49
701.25	337.02
701.58	335.65
701.92	334.35
702.25	333.00
702.59	331.63
702.92	330.35
703.26	329.05
703.59	327.78
703.93	326.63
704.26	325.41
704.60	324.12
704.93	322.79
705.26	321.49
705.60	320.27
705.93	319.06
706.27	318.00
706.60	316.92
706.94	315.82
707.27	314.69
707.61	313.60
707.94	312.59
708.27	311.53
708.61	310.41
708.94	309.36
709.28	308.41
709.61	307.44
709.94	306.47
710.28	305.41
710.61	304.41
710.95	303.28
711.28	302.40
711.61	301.45
711.95	300.57
712.28	299.64
712.61	298.68
712.95	297.76
713.28	296.85
713.61	296.00
713.95	295.12
714.28	294.29
714.61	293.41
714.95	292.51
715.28	291.65
715.61	290.74
715.95	289.87
716.28	288.96
716.61	288.13
716.95	287.28
717.28	286.52
717.61	285.75
717.94	285.03
718.28	284.21
718.61	283.52
718.94	282.82
719.27	282.17
719.61	281.53
719.94	280.85
720.27	280.16
720.60	279.50
720.94	278.83
721.27	278.23
721.60	277.69
721.93	277.13
722.27	276.57
722.60	276.07
722.93	275.52
723.26	275.01
723.59	274.47
723.93	273.95
724.26	273.41
724.59	272.87
724.92	272.32
725.25	271.81
725.59	271.25
725.92	270.74
726.25	270.21
726.58	269.73
726.91	269.25
727.24	268.79
727.57	268.27
727.91	267.78
728.24	267.29
728.57	266.77
728.90	266.31
729.23	265.81
729.56	265.40
729.89	264.95
730.22	264.45
730.55	264.00
730.89	263.55
731.22	263.10
731.55	262.70
731.88	262.27
732.21	261.82
732.54	261.40
732.87	260.96
733.20	260.57
733.53	260.17
733.86	259.79
734.19	259.41
734.52	259.04
734.85	258.72
735.18	258.32
735.51	257.96
735.84	257.57
736.17	257.23
736.50	256.80
736.83	256.56
737.16	256.27
737.49	255.94
737.82	255.59
738.15	255.26
738.48	254.93
738.81	254.61
739.14	254.30
739.47	254.03
739.80	253.76
740.13	253.50
740.46	253.15
740.79	252.83
741.12	252.50
741.45	252.19
741.78	251.84
742.11	251.58
742.44	251.27
742.77	250.98
743.10	250.67
743.43	250.36
743.75	249.97
744.08	249.80
744.41	249.51
744.74	249.25
745.07	248.97
745.40	248.69
745.73	248.46
746.06	248.17
746.39	247.88
746.71	247.57
747.04	247.26
747.37	247.00
747.70	246.76
748.03	246.51
748.36	246.27
748.68	246.07
749.01	245.83
749.34	245.59
749.67	245.38
750.00	245.14
750.33	244.97
750.65	244.77
750.98	244.41
751.31	244.14
751.64	243.93
751.97	243.74
752.29	243.52
752.62	243.27
752.95	243.05
753.28	242.81
753.60	242.57
753.93	242.37
754.26	242.21
754.59	241.99
754.91	241.72
755.24	241.53
755.57	241.29
755.90	241.10
756.22	240.90
756.55	240.67
756.88	240.48
757.20	240.24
757.53	240.03
757.86	239.88
758.19	239.77
758.51	239.58
758.84	239.38
759.17	239.21
759.49	239.06
759.82	238.99
760.15	238.85
760.47	238.74
760.80	238.61
761.13	238.46
761.45	238.32
761.78	238.19
762.11	238.02
762.43	237.87
762.76	237.72
763.08	237.62
763.41	237.53
763.74	237.40
764.06	237.28
764.39	237.13
764.71	236.99
765.04	236.82
765.37	236.67
765.69	236.54
766.02	236.42
766.34	236.30
766.67	236.15
767.00	236.07
767.32	235.98
767.65	235.92
767.97	235.79
768.30	235.67
768.62	235.55
768.95	235.46
769.27	235.37
769.60	235.29
769.92	235.13
770.25	235.02
770.57	234.90
770.90	234.80
771.22	234.68
771.55	234.60
771.87	234.53
772.20	234.49
772.52	234.48
772.85	234.51
773.17	234.43
773.50	234.33
773.82	234.22
774.15	234.11
774.47	233.96
774.80	233.87
775.12	233.79
775.45	233.74
775.77	233.66
776.09	233.58
776.42	233.48
776.74	233.47
777.07	233.40
777.39	233.30
777.72	233.22
778.04	233.18
778.36	233.10
778.69	233.01
779.01	232.97
779.33	232.85
779.66	232.64
779.98	232.56
780.31	232.48
780.63	232.44
780.95	232.36
781.28	232.30
781.60	232.26
781.92	232.20
782.25	232.14
782.57	232.07
782.89	232.01
783.22	231.98
783.54	231.88
783.86	231.79
784.19	231.76
784.51	231.73
784.83	231.65
785.16	231.60
785.48	231.55
785.80	231.45
786.12	231.38
786.45	231.37
786.77	231.32
787.09	231.30
787.42	231.24
787.74	231.19
788.06	231.10
788.38	231.03
788.71	230.96
789.03	230.92
789.35	230.90
789.67	230.84
789.99	230.79
790.32	230.73
790.64	230.72
790.96	230.77
791.28	230.71
791.61	230.68
791.93	230.65
792.25	230.63
792.57	230.65
792.89	230.60
793.21	230.54
793.54	230.48
793.86	230.41
794.18	230.38
794.50	230.37
794.82	230.34
795.14	230.31
795.47	230.33
795.79	230.27
796.11	230.22
796.43	230.15
796.75	230.11
797.07	230.11
797.39	230.04
797.71	229.95
798.04	229.91
798.36	229.85
798.68	229.81
799.00	229.78
799.32	229.71
799.64	229.70
799.96	229.66
800.28	229.69
800.60	229.68
800.92	229.64
801.24	229.58
801.56	229.61
801.89	229.60
802.21	229.55
802.53	229.52
802.85	229.51
803.17	229.55
803.49	229.50
803.81	229.43
804.13	229.42
804.45	229.39
804.77	229.36
805.09	229.37
805.41	229.31
805.73	229.25
806.05	229.21
806.37	229.16
806.69	229.15
807.01	229.09
807.33	229.07
807.65	228.95
807.97	228.99
808.28	228.94
808.60	228.91
808.92	228.85
809.24	228.87
809.56	228.82
809.88	228.76
810.20	228.77
810.52	228.77
810.84	228.75
811.16	228.68
811.48	228.65
811.80	228.63
812.12	228.62
812.43	228.63
812.75	228.60
813.07	228.57
813.39	228.53
813.71	228.50
814.03	228.46
814.35	228.50
814.67	228.44
814.98	228.43
815.30	228.38
815.62	228.37
815.94	228.30
816.26	228.30
816.58	228.29
816.89	228.24
817.21	228.18
817.53	228.13
817.85	228.13
818.17	228.08
818.48	228.04
818.80	228.04
819.12	228.00
819.44	227.98
819.76	227.97
820.07	227.95
820.39	227.91
820.71	227.90
821.03	227.88
821.34	227.85
821.66	227.84
821.98	227.84
822.30	227.82
822.61	227.85
822.93	227.81
823.25	227.79
823.57	227.79
823.88	227.81
824.20	227.80
824.52	227.84
824.83	227.86
825.15	227.81
825.47	227.81
825.79	227.79
826.10	227.78
826.42	227.75
826.74	227.76
827.05	227.77
827.37	227.81
827.69	227.80
828.00	227.79
828.32	227.76
828.64	227.76
828.95	227.83
829.27	227.82
829.58	227.83
829.90	227.82
830.22	227.82
830.53	227.80
830.85	227.81
831.17	227.75
831.48	227.74
831.80	227.75
832.11	227.75
832.43	227.70
832.75	227.68
833.06	227.76
833.38	227.76
833.69	227.73
834.01	227.69
834.32	227.70
834.64	227.69
834.96	227.68
835.27	227.67
835.59	227.62
835.90	227.60
836.22	227.61
836.53	227.59
836.85	227.60
837.16	227.68
837.48	227.69
837.79	227.74
838.11	227.73
838.42	227.75
838.74	227.74
839.05	227.75
839.37	227.78
839.68	227.72
840.00	227.68
840.31	227.70
840.63	227.68
840.94	227.67
841.26	227.66
841.57	227.65
841.88	227.63
842.20	227.57
842.51	227.56
842.83	227.54
843.14	227.61
843.46	227.60
843.77	227.56
844.08	227.52
844.40	227.45
844.71	227.43
845.03	227.41
845.34	227.41
845.65	227.41
845.97	227.38
846.28	227.37
846.60	227.38
846.91	227.33
847.22	227.31
847.54	227.29
847.85	227.28
848.16	227.26
848.48	227.21
848.79	227.24
849.10	227.22
849.42	227.21
849.73	227.13
850.04	227.09
850.36	227.03
850.67	227.05
850.98	227.05
851.30	227.04
851.61	227.01
851.92	226.99
852.23	227.04
852.55	227.01
852.86	226.99
853.17	227.00
853.49	227.00
853.80	226.98
854.11	226.97
854.42	226.98
854.74	226.94
855.05	226.97
855.36	226.92
855.67	226.90
855.99	226.89
856.30	226.98
856.61	226.96
856.92	226.96
857.23	226.94
857.55	226.94
857.86	226.90
858.17	226.92
858.48	226.91
858.79	226.85
859.11	226.87
859.42	226.89
859.73	226.83
860.04	226.86
860.35	226.84
860.66	226.83
860.98	226.80
861.29	226.81
861.60	226.77
861.91	226.81
862.22	226.80
862.53	226.77
862.84	226.66
863.16	226.68
863.47	226.67
863.78	226.65
864.09	226.62
864.40	226.64
864.71	226.66
865.02	226.67
865.33	226.67
865.64	226.66
865.95	226.65
866.27	226.72
866.58	226.68
866.89	226.67
867.20	226.71
867.51	226.69
867.82	226.71
868.13	226.79
868.44	226.78
868.75	226.82
869.06	226.83
869.37	226.86
869.68	226.88
869.99	226.91
870.30	226.91
870.61	226.94
870.92	226.96
871.23	226.94
871.54	226.96
871.85	226.96
872.16	226.97
872.47	226.96
872.78	226.93
873.09	226.98
873.40	227.00
873.71	227.00
874.02	227.05
874.33	227.03
874.64	227.00
874.95	227.02
875.26	227.00
875.56	226.99
875.87	226.99
876.18	226.95
876.49	227.06
876.80	227.09
877.11	227.08
877.42	227.08
877.73	227.08
878.04	227.04
878.35	227.08
878.66	227.09
878.96	227.10
879.27	227.09
879.58	227.06
879.89	227.04
880.20	227.07
880.51	227.08
880.82	227.08
881.12	227.08
881.43	227.04
881.74	227.01
882.05	227.01
882.36	227.03
882.67	227.06
882.97	226.91
883.28	226.88
883.59	226.90
883.90	226.93
884.21	226.94
884.51	226.96
884.82	226.94
885.13	226.96
885.44	226.94
885.74	226.96
886.05	226.98
886.36	226.98
886.67	226.90
886.98	226.93
887.28	226.93
887.59	226.91
887.90	226.92
888.20	226.92
888.51	226.95
888.82	226.90
889.13	226.89
889.43	226.96
889.74	226.95
890.05	226.91
890.35	226.88
890.66	226.86
890.97	226.85
891.28	226.82
891.58	226.80
891.89	226.79
892.20	226.77
892.50	226.76
892.81	226.74
893.12	226.74
893.42	226.65
893.73	226.66
894.04	226.64
894.34	226.66
894.65	226.62
894.95	226.59
895.26	226.61
895.57	226.62
895.87	226.54
896.18	226.56
896.48	226.58
896.79	226.56
897.10	226.56
897.40	226.56
897.71	226.53
898.01	226.52
898.32	226.53
898.63	226.51
898.93	226.50
899.24	226.53
899.54	226.53
899.85	226.57
900.15	226.58
900.46	226.58
900.76	226.57
901.07	226.58
901.38	226.57
901.68	226.57
901.99	226.54
902.29	226.55
902.60	226.53
902.90	226.50
903.21	226.50
903.51	226.50
903.82	226.52
904.12	226.53
904.43	226.52
904.73	226.52
905.03	226.49
905.34	226.59
905.64	226.55
905.95	226.51
906.25	226.51
906.56	226.48
906.86	226.50
907.17	226.48
907.47	226.50
907.77	226.51
908.08	226.47
908.38	226.48
908.69	226.46
908.99	226.50
909.30	226.53
909.60	226.49
909.90	226.49
910.21	226.46
910.51	226.42
910.81	226.46
911.12	226.51
911.42	226.54
911.73	226.41
912.03	226.43
912.33	226.50
912.64	226.51
912.94	226.52
913.24	226.50
913.55	226.50
913.85	226.47
914.15	226.49
914.46	226.51
914.76	226.49
915.06	226.49
915.37	226.47
915.67	226.47
915.97	226.54
916.27	226.49
916.58	226.51
916.88	226.54
917.18	226.49
917.49	226.51
917.79	226.54
918.09	226.57
918.39	226.61
918.70	226.58
919.00	226.58
919.30	226.61
919.60	226.58
919.91	226.57
920.21	226.59
920.51	226.58
920.81	226.56
921.12	226.56
921.42	226.54
921.72	226.53
922.02	226.53
922.32	226.51
922.63	226.55
922.93	226.56
923.23	226.55
923.53	226.56
923.83	226.49
924.13	226.46
924.44	226.45
924.74	226.45
925.04	226.47
925.34	226.44
925.64	226.42
925.94	226.42
926.24	226.49
926.55	226.49
926.85	226.50
927.15	226.51
927.45	226.53
927.75	226.58
928.05	226.57
928.35	226.57
928.65	226.60
928.95	226.61
929.26	226.58
929.56	226.62
929.86	226.62
930.16	226.61
930.46	226.61
930.76	226.60
931.06	226.56
931.36	226.56
931.66	226.58
931.96	226.59
932.26	226.62
932.56	226.58
932.86	226.57
933.16	226.58
933.46	226.59
933.76	226.56
934.06	226.55
934.36	226.59
934.66	226.60
934.96	226.57
935.26	226.60
935.56	226.63
935.86	226.59
936.16	226.60
936.46	226.60
936.76	226.60
937.06	226.60
937.36	226.62
937.66	226.62
937.96	226.64
938.26	226.63
938.56	226.62
938.86	226.62
939.16	226.67
939.46	226.70
939.76	226.71
940.06	226.72
940.35	226.70
940.65	226.65
940.95	226.66
941.25	226.66
941.55	226.58
941.85	226.59
942.15	226.61
942.45	226.66
942.75	226.68
943.04	226.69
943.34	226.70
943.64	226.67
943.94	226.70
944.24	226.71
944.54	226.72
944.84	226.69
945.13	226.67
945.43	226.62
945.73	226.60
946.03	226.59
946.33	226.59
946.62	226.61
946.92	226.63
947.22	226.66
947.52	226.68
947.82	226.72
948.11	226.69
948.41	226.64
948.71	226.58
949.01	226.58
949.31	226.59
949.60	226.58
949.90	226.59
950.20	226.55
950.50	226.50
950.79	226.49
951.09	226.52
951.39	226.54
951.69	226.56
951.98	226.57
952.28	226.57
952.58	226.54
952.87	226.52
953.17	226.52
953.47	226.48
953.76	226.44
954.06	226.42
954.36	226.35
954.66	226.38
954.95	226.43
955.25	226.41
955.55	226.38
955.84	226.36
956.14	226.39
956.44	226.38
956.73	226.37
957.03	226.37
957.32	226.33
957.62	226.31
957.92	226.31
958.21	226.27
958.51	226.39
958.81	226.39
959.10	226.41
959.40	226.42
959.69	226.41
959.99	226.43
960.29	226.45
960.58	226.48
960.88	226.48
961.17	226.41
961.47	226.43
961.76	226.46
962.06	226.45
962.36	226.45
962.65	226.46
962.95	226.46
963.24	226.46
963.54	226.52
963.83	226.51
964.13	226.52
964.42	226.50
964.72	226.39
965.01	226.38
965.31	226.36
965.60	226.33
965.90	226.39
966.19	226.36
966.49	226.36
966.78	226.35
967.08	226.37
967.37	226.41
967.67	226.35
967.96	226.36
968.26	226.37
968.55	226.39
968.85	226.38
969.14	226.40
969.43	226.38
969.73	226.35
970.02	226.37
970.32	226.34
970.61	226.33
970.91	226.35
971.20	226.33
971.49	226.33
971.79	226.33
972.08	226.27
972.38	226.31
972.67	226.34
972.96	226.36
973.26	226.32
973.55	226.35
973.85	226.37
974.14	226.37
974.43	226.37
974.73	226.32
975.02	226.30
975.31	226.31
975.61	226.32
975.90	226.36
976.19	226.38
976.49	226.41
976.78	226.43
977.07	226.42
977.37	226.47
977.66	226.48
977.95	226.51
978.24	226.54
978.54	226.55
978.83	226.52
979.12	226.53
979.42	226.55
979.71	226.53
980.00	226.59
980.29	226.60
980.59	226.60
980.88	226.67
981.17	226.68
981.46	226.67
981.76	226.68
982.05	226.69
982.34	226.67
982.63	226.68
982.93	226.71
983.22	226.74
983.51	226.74
983.80	226.74
984.09	226.74
984.39	226.74
984.68	226.72
984.97	226.74
985.26	226.72
985.55	226.74
985.85	226.73
986.14	226.71
986.43	226.73
986.72	226.74
987.01	226.71
987.30	226.75
987.59	226.77
987.89	226.75
988.18	226.70
988.47	226.65
988.76	226.64
989.05	226.61
989.34	226.56
989.63	226.57
989.92	226.59
990.22	226.55
990.51	226.56
990.80	226.56
991.09	226.57
991.38	226.59
991.67	226.58
991.96	226.55
992.25	226.53
992.54	226.51
992.83	226.48
993.12	226.46
993.41	226.44
993.70	226.47
993.99	226.51
994.28	226.52
994.58	226.55
994.87	226.52
995.16	226.52
995.45	226.53
995.74	226.50
996.03	226.47
996.32	226.47
996.61	226.44
996.90	226.41
997.19	226.40
997.48	226.40
997.77	226.37
998.06	226.38
998.34	226.37
998.63	226.36
998.92	226.39
999.21	226.39
999.50	226.35
999.79	226.29
1000.08	226.26
1000.37	226.24
1000.66	226.20
1000.95	226.24
1001.24	226.24
1001.53	226.26
1001.82	226.26
1002.11	226.24
1002.40	226.25
1002.68	226.28
1002.97	226.33
1003.26	226.30
1003.55	226.25
1003.84	226.24
1004.13	226.28
1004.42	226.30
1004.71	226.29
1004.99	226.28
1005.28	226.29
1005.57	226.29
1005.86	226.29
1006.15	226.32
1006.44	226.34
1006.72	226.37
1007.01	226.35
1007.30	226.35
1007.59	226.35
1007.88	226.35
1008.17	226.38
1008.45	226.38
1008.74	226.35
1009.03	226.30
1009.32	226.30
1009.60	226.33
1009.89	226.32
1010.18	226.28
1010.47	226.24
1010.76	226.25
1011.04	226.21
1011.33	226.23
1011.62	226.28
1011.91	226.28
1012.19	226.27
1012.48	226.28
1012.77	226.32
1013.05	226.34
1013.34	226.35
1013.63	226.36
1013.92	226.36
1014.20	226.34
1014.49	226.35
1014.78	226.37
1015.06	226.38
1015.35	226.40
1015.64	226.41
1015.92	226.44
1016.21	226.44
1016.50	226.46
1016.78	226.48
1017.07	226.51
1017.36	226.47
1017.64	226.42
1017.93	226.47
1018.22	226.47
1018.50	226.44
1018.79	226.43
1019.08	226.43
1019.36	226.48
1019.65	226.47
1019.93	226.51
1020.22	226.54
1020.51	226.59
1020.79	226.57
1021.08	226.42
1021.36	226.15
1021.65	226.84
1021.94	226.81
1022.22	227.51
1022.51	226.54
1022.79	227.35
1023.08	226.49
1023.36	227.80
1023.65	226.05
>>>>>End Processed Spectral Data<<<<<
