SpectraSuite Data File
++++++++++++++++++++++++++++++++++++
Date: Fri Feb 01 15:01:23 EST 2013
User: group
Dark Spectrum Present: No
Reference Spectrum Present: No
Number of Sampled Component Spectra: 1
Spectrometers: USB2E7196
Integration Time (usec): 35000 (USB2E7196)
Spectra Averaged: 100 (USB2E7196)
Boxcar Smoothing: 10 (USB2E7196)
Correct for Electrical Dark: No (USB2E7196)
Strobe/Lamp Enabled: No (USB2E7196)
Correct for Detector Non-linearity: No (USB2E7196)
Correct for Stray Light: No (USB2E7196)
Number of Pixels in Processed Spectrum: 2048
>>>>>Begin Processed Spectral Data<<<<<
339.09	0.00
339.48	215.38
339.86	217.11
340.24	217.91
340.63	219.88
341.01	222.41
341.39	222.66
341.78	223.78
342.16	224.63
342.54	225.86
342.93	213.76
343.31	224.55
343.69	225.10
344.07	225.56
344.46	226.00
344.84	226.36
345.22	226.59
345.60	226.84
345.99	227.03
346.37	227.18
346.75	227.25
347.13	227.35
347.52	227.39
347.90	227.45
348.28	227.45
348.66	227.47
349.05	227.46
349.43	227.51
349.81	227.54
350.19	227.57
350.57	227.61
350.96	227.69
351.34	227.77
351.72	227.85
352.10	227.93
352.48	227.98
352.87	228.04
353.25	228.11
353.63	228.16
354.01	228.19
354.39	228.25
354.77	228.35
355.15	228.42
355.54	228.50
355.92	228.54
356.30	228.63
356.68	228.77
357.06	228.82
357.44	228.89
357.82	228.94
358.20	229.07
358.58	229.14
358.97	229.21
359.35	229.28
359.73	229.34
360.11	229.38
360.49	229.47
360.87	229.51
361.25	229.55
361.63	229.61
362.01	229.67
362.39	229.69
362.77	229.69
363.15	229.71
363.53	229.74
363.91	229.77
364.29	229.78
364.67	229.67
365.05	229.68
365.43	229.66
365.81	229.70
366.19	229.68
366.57	229.73
366.95	229.67
367.33	229.63
367.71	229.61
368.09	229.62
368.47	229.56
368.85	229.52
369.23	229.51
369.61	229.45
369.99	229.41
370.37	229.38
370.75	229.40
371.13	229.33
371.51	229.30
371.89	229.26
372.27	229.20
372.65	229.18
373.03	229.14
373.41	229.10
373.78	229.04
374.16	228.94
374.54	228.81
374.92	228.76
375.30	228.70
375.68	228.61
376.06	228.54
376.44	228.49
376.82	228.43
377.19	228.35
377.57	228.28
377.95	228.21
378.33	228.15
378.71	228.03
379.09	227.98
379.47	227.89
379.84	227.80
380.22	227.75
380.60	227.61
380.98	227.53
381.36	227.45
381.73	227.35
382.11	227.28
382.49	227.22
382.87	227.16
383.25	227.11
383.62	227.16
384.00	227.07
384.38	227.03
384.76	226.98
385.13	226.96
385.51	226.86
385.89	226.80
386.27	226.74
386.64	226.67
387.02	226.61
387.40	226.53
387.78	226.48
388.15	226.42
388.53	226.40
388.91	226.35
389.29	226.31
389.66	226.29
390.04	226.26
390.42	226.27
390.79	226.22
391.17	226.16
391.55	226.04
391.92	226.01
392.30	225.99
392.68	225.97
393.05	225.96
393.43	225.99
393.81	225.98
394.18	226.00
394.56	226.04
394.94	226.10
395.31	226.14
395.69	226.24
396.06	226.27
396.44	226.35
396.82	226.39
397.19	226.49
397.57	226.53
397.95	226.61
398.32	226.63
398.70	226.75
399.07	226.86
399.45	226.93
399.82	227.02
400.20	227.13
400.58	227.25
400.95	227.31
401.33	227.44
401.70	227.61
402.08	227.70
402.45	227.81
402.83	227.95
403.20	228.09
403.58	228.20
403.95	228.35
404.33	228.47
404.71	228.60
405.08	228.77
405.46	228.92
405.83	229.08
406.21	229.24
406.58	229.40
406.96	229.59
407.33	229.75
407.70	229.95
408.08	230.22
408.45	230.43
408.83	230.68
409.20	230.88
409.58	231.06
409.95	231.34
410.33	231.64
410.70	231.87
411.08	232.16
411.45	232.47
411.82	232.78
412.20	233.17
412.57	233.61
412.95	233.94
413.32	234.38
413.69	234.79
414.07	235.23
414.44	235.73
414.82	236.22
415.19	236.84
415.56	237.42
415.94	237.94
416.31	238.57
416.68	239.19
417.06	239.91
417.43	240.61
417.81	241.36
418.18	242.14
418.55	243.01
418.93	243.88
419.30	244.75
419.67	245.69
420.04	246.66
420.42	247.62
420.79	248.81
421.16	249.93
421.54	251.12
421.91	252.36
422.28	253.61
422.66	254.94
423.03	256.22
423.40	257.52
423.77	258.95
424.15	260.40
424.52	261.89
424.89	263.54
425.26	265.06
425.64	266.49
426.01	268.04
426.38	269.64
426.75	271.33
427.13	273.04
427.50	274.84
427.87	276.71
428.24	278.59
428.61	280.29
428.99	282.24
429.36	284.31
429.73	286.36
430.10	288.37
430.47	290.43
430.85	292.57
431.22	294.83
431.59	297.25
431.96	299.44
432.33	301.89
432.70	304.22
433.08	307.06
433.45	309.71
433.82	312.36
434.19	315.30
434.56	318.09
434.93	320.79
435.30	323.39
435.68	326.21
436.05	329.06
436.42	331.90
436.79	334.43
437.16	337.14
437.53	339.97
437.90	342.77
438.27	345.52
438.64	348.37
439.01	350.98
439.38	353.15
439.75	355.37
440.13	357.87
440.50	360.23
440.87	362.07
441.24	364.05
441.61	366.19
441.98	367.69
442.35	369.52
442.72	371.37
443.09	373.23
443.46	374.26
443.83	374.83
444.20	375.36
444.57	376.22
444.94	376.57
445.31	376.94
445.68	377.33
446.05	377.37
446.42	376.96
446.79	376.53
447.16	376.09
447.53	375.76
447.90	374.56
448.27	373.43
448.64	371.89
449.01	370.71
449.37	368.72
449.74	366.81
450.11	364.51
450.48	362.07
450.85	359.48
451.22	357.36
451.59	355.37
451.96	353.37
452.33	350.72
452.70	348.30
453.07	345.46
453.43	342.53
453.80	339.75
454.17	337.05
454.54	334.50
454.91	331.82
455.28	329.14
455.65	326.70
456.02	324.19
456.38	322.03
456.75	319.40
457.12	317.17
457.49	314.91
457.86	312.78
458.23	310.88
458.59	308.88
458.96	306.78
459.33	304.89
459.70	303.05
460.07	301.56
460.43	299.86
460.80	298.26
461.17	296.82
461.54	295.33
461.91	293.91
462.27	292.47
462.64	291.17
463.01	289.82
463.38	288.52
463.74	287.16
464.11	285.97
464.48	284.96
464.85	283.84
465.21	283.03
465.58	282.08
465.95	281.04
466.32	280.10
466.68	279.17
467.05	278.26
467.42	277.32
467.78	276.40
468.15	275.49
468.52	274.79
468.88	273.93
469.25	273.20
469.62	272.55
469.98	271.84
470.35	271.23
470.72	270.58
471.08	269.91
471.45	269.37
471.82	268.82
472.18	268.20
472.55	267.76
472.92	267.17
473.28	266.69
473.65	266.20
474.02	265.77
474.38	265.41
474.75	265.08
475.11	264.73
475.48	264.43
475.85	264.22
476.21	263.97
476.58	263.74
476.94	263.56
477.31	263.38
477.67	263.20
478.04	263.03
478.41	263.03
478.77	263.06
479.14	263.01
479.50	263.01
479.87	263.04
480.23	263.08
480.60	263.16
480.96	263.25
481.33	263.43
481.69	263.59
482.06	263.77
482.42	263.97
482.79	264.22
483.15	264.52
483.52	264.88
483.88	265.24
484.25	265.63
484.61	266.04
484.98	266.48
485.34	267.06
485.71	267.67
486.07	268.23
486.44	268.80
486.80	269.51
487.17	270.18
487.53	271.00
487.90	271.85
488.26	272.75
488.62	273.73
488.99	274.69
489.35	275.76
489.72	276.90
490.08	278.10
490.44	279.36
490.81	280.67
491.17	282.02
491.54	283.48
491.90	285.00
492.26	286.62
492.63	288.35
492.99	290.09
493.36	291.99
493.72	294.04
494.08	296.14
494.45	298.34
494.81	300.79
495.17	303.23
495.54	305.78
495.90	308.46
496.26	311.26
496.63	314.19
496.99	317.25
497.35	320.48
497.72	323.85
498.08	327.33
498.44	331.02
498.80	334.91
499.17	338.91
499.53	343.05
499.89	347.45
500.26	351.94
500.62	356.61
500.98	361.52
501.34	366.48
501.71	371.78
502.07	377.22
502.43	382.78
502.79	388.58
503.16	394.61
503.52	400.82
503.88	407.22
504.24	413.85
504.60	420.73
504.97	427.81
505.33	435.16
505.69	442.81
506.05	450.52
506.41	458.37
506.78	466.55
507.14	475.01
507.50	483.66
507.86	492.63
508.22	501.87
508.59	511.07
508.95	520.73
509.31	530.46
509.67	540.49
510.03	550.70
510.39	561.24
510.75	572.06
511.12	583.02
511.48	594.32
511.84	605.72
512.20	617.23
512.56	629.19
512.92	641.34
513.28	653.66
513.64	666.21
514.00	678.96
514.37	691.87
514.73	704.93
515.09	718.02
515.45	731.41
515.81	744.93
516.17	758.93
516.53	773.08
516.89	787.30
517.25	801.52
517.61	816.04
517.97	830.60
518.33	845.00
518.69	859.77
519.05	874.75
519.41	890.01
519.77	905.60
520.13	921.09
520.49	936.52
520.85	952.10
521.21	967.87
521.57	984.10
521.93	999.94
522.29	1016.36
522.65	1032.63
523.01	1048.90
523.37	1065.08
523.73	1081.36
524.09	1097.42
524.45	1113.81
524.81	1130.56
525.17	1147.55
525.53	1164.48
525.89	1181.46
526.25	1198.37
526.61	1214.86
526.97	1231.61
527.33	1248.20
527.68	1264.96
528.04	1281.52
528.40	1298.14
528.76	1315.17
529.12	1331.92
529.48	1348.89
529.84	1365.10
530.20	1381.91
530.56	1399.07
530.91	1416.52
531.27	1433.30
531.63	1449.93
531.99	1466.73
532.35	1482.74
532.71	1498.56
533.07	1514.89
533.42	1530.95
533.78	1547.14
534.14	1563.51
534.50	1578.94
534.86	1594.76
535.21	1609.90
535.57	1625.95
535.93	1641.56
536.29	1656.57
536.65	1671.69
537.00	1686.62
537.36	1702.00
537.72	1716.56
538.08	1730.96
538.44	1744.80
538.79	1758.76
539.15	1772.55
539.51	1786.32
539.87	1800.77
540.22	1814.59
540.58	1828.44
540.94	1841.86
541.29	1854.81
541.65	1867.54
542.01	1880.94
542.37	1893.36
542.72	1906.04
543.08	1917.81
543.44	1930.26
543.79	1941.47
544.15	1952.55
544.51	1964.16
544.87	1974.99
545.22	1985.76
545.58	1996.07
545.94	2005.98
546.29	2015.95
546.65	2025.75
547.01	2034.93
547.36	2043.78
547.72	2052.33
548.07	2060.08
548.43	2068.22
548.79	2076.33
549.14	2083.82
549.50	2091.19
549.86	2099.08
550.21	2106.29
550.57	2113.43
550.92	2119.98
551.28	2127.13
551.64	2134.23
551.99	2140.79
552.35	2147.18
552.70	2153.37
553.06	2159.18
553.41	2165.48
553.77	2171.48
554.13	2177.60
554.48	2183.74
554.84	2189.14
555.19	2194.42
555.55	2199.63
555.90	2204.16
556.26	2208.94
556.61	2213.89
556.97	2218.06
557.32	2221.98
557.68	2226.20
558.03	2230.63
558.39	2234.23
558.74	2238.85
559.10	2242.48
559.45	2245.96
559.81	2250.23
560.16	2254.09
560.52	2257.33
560.87	2260.74
561.23	2263.37
561.58	2266.16
561.94	2268.56
562.29	2270.83
562.64	2273.43
563.00	2275.98
563.35	2279.40
563.71	2282.50
564.06	2285.54
564.42	2288.32
564.77	2290.76
565.12	2292.79
565.48	2294.46
565.83	2296.30
566.19	2297.45
566.54	2298.38
566.89	2299.36
567.25	2299.63
567.60	2300.91
567.96	2302.42
568.31	2303.15
568.66	2304.06
569.02	2304.61
569.37	2304.72
569.72	2305.44
570.08	2305.34
570.43	2305.17
570.78	2304.24
571.14	2302.58
571.49	2301.14
571.84	2300.59
572.20	2299.31
572.55	2298.04
572.90	2296.44
573.26	2294.91
573.61	2293.08
573.96	2291.08
574.31	2287.94
574.67	2284.77
575.02	2280.90
575.37	2277.35
575.72	2273.38
576.08	2270.05
576.43	2266.51
576.78	2262.79
577.13	2259.49
577.49	2256.43
577.84	2252.92
578.19	2249.26
578.54	2245.39
578.90	2240.91
579.25	2235.40
579.60	2230.25
579.95	2225.18
580.30	2219.99
580.66	2214.72
581.01	2209.52
581.36	2204.60
581.71	2200.36
582.06	2195.97
582.42	2191.28
582.77	2186.04
583.12	2181.13
583.47	2176.19
583.82	2171.16
584.17	2165.92
584.53	2160.32
584.88	2154.54
585.23	2148.61
585.58	2142.95
585.93	2137.50
586.28	2132.67
586.63	2127.46
586.98	2122.24
587.34	2117.39
587.69	2112.36
588.04	2107.05
588.39	2101.27
588.74	2094.75
589.09	2088.47
589.44	2081.32
589.79	2075.29
590.14	2069.52
590.49	2063.03
590.84	2056.44
591.19	2050.35
591.54	2043.70
591.89	2036.09
592.25	2029.07
592.60	2021.66
592.95	2013.86
593.30	2006.25
593.65	1998.43
594.00	1991.33
594.35	1984.09
594.70	1976.04
595.05	1968.65
595.40	1961.13
595.75	1953.61
596.10	1947.09
596.45	1940.24
596.80	1934.06
597.15	1927.31
597.50	1920.08
597.85	1913.49
598.19	1906.83
598.54	1899.62
598.89	1893.00
599.24	1887.10
599.59	1880.40
599.94	1874.26
600.29	1867.89
600.64	1861.19
600.99	1853.80
601.34	1846.79
601.69	1839.75
602.04	1832.83
602.39	1825.44
602.74	1818.58
603.08	1811.84
603.43	1805.18
603.78	1797.94
604.13	1790.72
604.48	1783.31
604.83	1776.52
605.18	1769.40
605.53	1761.22
605.87	1753.17
606.22	1745.94
606.57	1738.04
606.92	1730.69
607.27	1723.40
607.62	1716.49
607.96	1709.24
608.31	1702.51
608.66	1694.82
609.01	1687.30
609.36	1679.73
609.70	1671.73
610.05	1663.76
610.40	1656.02
610.75	1647.66
611.10	1640.01
611.44	1631.71
611.79	1623.76
612.14	1615.05
612.49	1606.07
612.83	1597.83
613.18	1589.74
613.53	1581.60
613.88	1573.02
614.22	1564.67
614.57	1556.24
614.92	1548.25
615.27	1540.70
615.61	1532.46
615.96	1524.57
616.31	1516.85
616.65	1509.54
617.00	1502.03
617.35	1494.44
617.70	1486.12
618.04	1477.67
618.39	1469.38
618.74	1461.78
619.08	1453.64
619.43	1446.22
619.78	1439.30
620.12	1432.13
620.47	1424.55
620.82	1416.35
621.16	1409.07
621.51	1401.62
621.85	1394.03
622.20	1385.53
622.55	1377.36
622.89	1369.60
623.24	1361.98
623.59	1354.73
623.93	1347.23
624.28	1340.05
624.62	1332.42
624.97	1325.24
625.32	1318.56
625.66	1311.56
626.01	1304.33
626.35	1296.81
626.70	1289.07
627.04	1281.30
627.39	1273.57
627.73	1266.26
628.08	1259.45
628.43	1252.05
628.77	1244.68
629.12	1237.03
629.46	1229.87
629.81	1222.56
630.15	1215.39
630.50	1208.07
630.84	1199.94
631.19	1192.13
631.53	1184.68
631.88	1177.23
632.22	1169.69
632.57	1162.29
632.91	1154.86
633.26	1147.52
633.60	1140.26
633.95	1133.18
634.29	1126.33
634.64	1119.76
634.98	1112.44
635.32	1105.34
635.67	1098.96
636.01	1092.40
636.36	1085.66
636.70	1079.28
637.05	1072.66
637.39	1066.15
637.73	1059.60
638.08	1053.76
638.42	1047.77
638.77	1041.32
639.11	1034.73
639.45	1028.42
639.80	1021.90
640.14	1015.43
640.49	1008.98
640.83	1002.63
641.17	996.32
641.52	989.99
641.86	983.61
642.20	977.83
642.55	971.56
642.89	964.99
643.23	958.48
643.58	952.75
643.92	946.59
644.26	940.49
644.61	934.56
644.95	928.54
645.29	921.85
645.64	915.12
645.98	908.85
646.32	903.14
646.66	897.18
647.01	891.37
647.35	885.81
647.69	879.96
648.04	874.56
648.38	868.83
648.72	862.78
649.06	856.75
649.41	850.82
649.75	844.74
650.09	838.80
650.43	833.02
650.78	826.84
651.12	820.91
651.46	815.20
651.80	809.37
652.14	804.07
652.49	798.78
652.83	793.61
653.17	787.86
653.51	782.04
653.85	776.66
654.20	771.12
654.54	765.02
654.88	759.36
655.22	753.46
655.56	747.83
655.90	742.36
656.25	737.13
656.59	731.84
656.93	726.85
657.27	721.70
657.61	716.30
657.95	711.28
658.29	706.17
658.64	700.99
658.98	695.80
659.32	690.39
659.66	685.22
660.00	679.87
660.34	675.00
660.68	670.11
661.02	665.08
661.36	660.30
661.70	655.89
662.05	651.55
662.39	647.23
662.73	642.80
663.07	638.53
663.41	634.06
663.75	629.53
664.09	625.03
664.43	620.72
664.77	616.59
665.11	612.33
665.45	608.24
665.79	604.19
666.13	600.08
666.47	596.01
666.81	591.90
667.15	587.84
667.49	583.97
667.83	580.23
668.17	576.35
668.51	572.32
668.85	568.33
669.19	564.49
669.53	560.68
669.87	556.78
670.21	553.10
670.55	549.56
670.89	546.20
671.23	542.79
671.57	539.27
671.91	535.75
672.25	532.28
672.58	528.83
672.92	525.48
673.26	522.33
673.60	519.19
673.94	516.12
674.28	513.24
674.62	510.37
674.96	507.30
675.30	504.34
675.64	501.50
675.97	498.83
676.31	495.97
676.65	493.08
676.99	490.42
677.33	487.57
677.67	484.73
678.01	481.69
678.34	478.69
678.68	475.87
679.02	473.09
679.36	470.42
679.70	467.73
680.04	464.97
680.37	462.16
680.71	459.45
681.05	456.80
681.39	454.11
681.73	451.48
682.06	448.95
682.40	446.48
682.74	443.98
683.08	441.38
683.42	438.84
683.75	436.40
684.09	433.90
684.43	431.47
684.77	429.03
685.10	426.78
685.44	424.57
685.78	422.33
686.12	420.15
686.45	417.82
686.79	415.52
687.13	413.38
687.46	411.23
687.80	409.05
688.14	406.95
688.48	404.91
688.81	402.62
689.15	400.47
689.49	398.35
689.82	396.23
690.16	394.17
690.50	392.24
690.83	390.28
691.17	388.29
691.51	386.40
691.84	384.54
692.18	382.58
692.52	380.58
692.85	378.61
693.19	376.72
693.52	374.94
693.86	373.16
694.20	371.36
694.53	369.54
694.87	367.72
695.21	365.94
695.54	364.07
695.88	362.37
696.21	360.66
696.55	358.96
696.88	357.31
697.22	355.70
697.56	354.10
697.89	352.45
698.23	350.84
698.56	349.19
698.90	347.64
699.23	345.99
699.57	344.41
699.90	342.92
700.24	341.39
700.58	339.81
700.91	338.38
701.25	336.93
701.58	335.56
701.92	334.23
702.25	332.82
702.59	331.45
702.92	330.17
703.26	328.87
703.59	327.58
703.93	326.40
704.26	325.14
704.60	323.83
704.93	322.56
705.26	321.35
705.60	320.20
705.93	319.01
706.27	317.96
706.60	316.94
706.94	315.83
707.27	314.67
707.61	313.67
707.94	312.60
708.27	311.52
708.61	310.45
708.94	309.45
709.28	308.47
709.61	307.59
709.94	306.60
710.28	305.59
710.61	304.67
710.95	303.61
711.28	302.70
711.61	301.75
711.95	300.82
712.28	299.88
712.61	298.92
712.95	298.06
713.28	297.22
713.61	296.34
713.95	295.49
714.28	294.68
714.61	293.78
714.95	292.94
715.28	292.09
715.61	291.24
715.95	290.35
716.28	289.53
716.61	288.67
716.95	287.89
717.28	287.18
717.61	286.39
717.94	285.67
718.28	284.87
718.61	284.16
718.94	283.53
719.27	282.90
719.61	282.28
719.94	281.61
720.27	280.95
720.60	280.28
720.94	279.67
721.27	279.07
721.60	278.52
721.93	277.88
722.27	277.37
722.60	276.79
722.93	276.24
723.26	275.71
723.59	275.17
723.93	274.63
724.26	274.05
724.59	273.54
724.92	272.98
725.25	272.50
725.59	271.98
725.92	271.49
726.25	270.94
726.58	270.45
726.91	269.96
727.24	269.48
727.57	269.02
727.91	268.50
728.24	268.07
728.57	267.60
728.90	267.18
729.23	266.67
729.56	266.25
729.89	265.79
730.22	265.30
730.55	264.83
730.89	264.37
731.22	263.97
731.55	263.51
731.88	263.09
732.21	262.64
732.54	262.22
732.87	261.76
733.20	261.39
733.53	260.99
733.86	260.64
734.19	260.21
734.52	259.84
734.85	259.57
735.18	259.12
735.51	258.74
735.84	258.37
736.17	258.01
736.50	257.59
736.83	257.34
737.16	256.99
737.49	256.66
737.82	256.32
738.15	255.99
738.48	255.66
738.81	255.33
739.14	255.01
739.47	254.68
739.80	254.39
740.13	254.05
740.46	253.72
740.79	253.34
741.12	253.02
741.45	252.67
741.78	252.28
742.11	252.04
742.44	251.71
742.77	251.40
743.10	251.11
743.43	250.81
743.75	250.43
744.08	250.26
744.41	249.96
744.74	249.69
745.07	249.39
745.40	249.14
745.73	248.92
746.06	248.66
746.39	248.35
746.71	248.06
747.04	247.80
747.37	247.53
747.70	247.27
748.03	247.06
748.36	246.83
748.68	246.64
749.01	246.37
749.34	246.16
749.67	245.95
750.00	245.72
750.33	245.58
750.65	245.37
750.98	245.03
751.31	244.85
751.64	244.66
751.97	244.46
752.29	244.21
752.62	243.92
752.95	243.71
753.28	243.57
753.60	243.39
753.93	243.25
754.26	243.10
754.59	242.86
754.91	242.62
755.24	242.45
755.57	242.24
755.90	242.05
756.22	241.89
756.55	241.70
756.88	241.50
757.20	241.27
757.53	241.10
757.86	240.95
758.19	240.81
758.51	240.62
758.84	240.45
759.17	240.31
759.49	240.19
759.82	240.06
760.15	239.90
760.47	239.73
760.80	239.52
761.13	239.39
761.45	239.28
761.78	239.12
762.11	238.98
762.43	238.84
762.76	238.69
763.08	238.52
763.41	238.42
763.74	238.30
764.06	238.15
764.39	238.01
764.71	237.86
765.04	237.70
765.37	237.60
765.69	237.47
766.02	237.38
766.34	237.26
766.67	237.12
767.00	237.06
767.32	237.00
767.65	236.95
767.97	236.83
768.30	236.74
768.62	236.65
768.95	236.55
769.27	236.41
769.60	236.34
769.92	236.23
770.25	236.12
770.57	236.04
770.90	235.94
771.22	235.83
771.55	235.75
771.87	235.64
772.20	235.55
772.52	235.52
772.85	235.53
773.17	235.43
773.50	235.35
773.82	235.21
774.15	235.09
774.47	234.93
774.80	234.82
775.12	234.74
775.45	234.67
775.77	234.57
776.09	234.51
776.42	234.43
776.74	234.36
777.07	234.23
777.39	234.12
777.72	234.04
778.04	233.98
778.36	233.87
778.69	233.83
779.01	233.73
779.33	233.55
779.66	233.37
779.98	233.27
780.31	233.20
780.63	233.15
780.95	233.08
781.28	233.02
781.60	232.97
781.92	232.88
782.25	232.80
782.57	232.75
782.89	232.66
783.22	232.58
783.54	232.50
783.86	232.49
784.19	232.46
784.51	232.39
784.83	232.31
785.16	232.25
785.48	232.19
785.80	232.15
786.12	232.14
786.45	232.07
786.77	232.02
787.09	231.98
787.42	231.91
787.74	231.85
788.06	231.81
788.38	231.73
788.71	231.69
789.03	231.63
789.35	231.60
789.67	231.55
789.99	231.51
790.32	231.47
790.64	231.43
790.96	231.44
791.28	231.38
791.61	231.35
791.93	231.33
792.25	231.27
792.57	231.27
792.89	231.23
793.21	231.22
793.54	231.18
793.86	231.09
794.18	231.05
794.50	231.00
794.82	230.95
795.14	230.96
795.47	230.93
795.79	230.92
796.11	230.84
796.43	230.80
796.75	230.75
797.07	230.71
797.39	230.64
797.71	230.53
798.04	230.52
798.36	230.51
798.68	230.48
799.00	230.43
799.32	230.35
799.64	230.32
799.96	230.25
800.28	230.26
800.60	230.25
800.92	230.20
801.24	230.17
801.56	230.17
801.89	230.10
802.21	230.07
802.53	230.02
802.85	230.02
803.17	230.03
803.49	229.98
803.81	229.96
804.13	229.94
804.45	229.91
804.77	229.87
805.09	229.85
805.41	229.85
805.73	229.82
806.05	229.80
806.37	229.77
806.69	229.75
807.01	229.70
807.33	229.68
807.65	229.63
807.97	229.62
808.28	229.60
808.60	229.57
808.92	229.52
809.24	229.54
809.56	229.48
809.88	229.45
810.20	229.42
810.52	229.43
810.84	229.41
811.16	229.38
811.48	229.35
811.80	229.36
812.12	229.33
812.43	229.33
812.75	229.32
813.07	229.29
813.39	229.30
813.71	229.29
814.03	229.24
814.35	229.23
814.67	229.21
814.98	229.19
815.30	229.20
815.62	229.16
815.94	229.10
816.26	229.13
816.58	229.09
816.89	229.07
817.21	229.00
817.53	229.00
817.85	229.00
818.17	228.98
818.48	228.92
818.80	228.91
819.12	228.88
819.44	228.85
819.76	228.79
820.07	228.76
820.39	228.72
820.71	228.73
821.03	228.73
821.34	228.70
821.66	228.70
821.98	228.66
822.30	228.65
822.61	228.70
822.93	228.66
823.25	228.67
823.57	228.68
823.88	228.68
824.20	228.67
824.52	228.69
824.83	228.67
825.15	228.63
825.47	228.61
825.79	228.59
826.10	228.59
826.42	228.62
826.74	228.61
827.05	228.62
827.37	228.61
827.69	228.59
828.00	228.60
828.32	228.59
828.64	228.56
828.95	228.61
829.27	228.57
829.58	228.53
829.90	228.51
830.22	228.50
830.53	228.51
830.85	228.49
831.17	228.46
831.48	228.43
831.80	228.45
832.11	228.46
832.43	228.45
832.75	228.43
833.06	228.48
833.38	228.46
833.69	228.46
834.01	228.45
834.32	228.44
834.64	228.41
834.96	228.39
835.27	228.44
835.59	228.39
835.90	228.39
836.22	228.41
836.53	228.44
836.85	228.45
837.16	228.53
837.48	228.54
837.79	228.54
838.11	228.56
838.42	228.56
838.74	228.55
839.05	228.54
839.37	228.54
839.68	228.46
840.00	228.45
840.31	228.46
840.63	228.46
840.94	228.42
841.26	228.44
841.57	228.41
841.88	228.38
842.20	228.38
842.51	228.34
842.83	228.32
843.14	228.37
843.46	228.36
843.77	228.31
844.08	228.29
844.40	228.28
844.71	228.24
845.03	228.22
845.34	228.20
845.65	228.18
845.97	228.18
846.28	228.20
846.60	228.17
846.91	228.16
847.22	228.15
847.54	228.19
847.85	228.20
848.16	228.20
848.48	228.18
848.79	228.19
849.10	228.22
849.42	228.23
849.73	228.15
850.04	228.10
850.36	228.01
850.67	228.04
850.98	228.01
851.30	228.03
851.61	228.03
851.92	228.03
852.23	228.05
852.55	228.03
852.86	228.04
853.17	228.11
853.49	228.09
853.80	228.07
854.11	228.07
854.42	228.06
854.74	228.04
855.05	228.03
855.36	227.96
855.67	227.95
855.99	227.94
856.30	228.03
856.61	228.05
856.92	228.07
857.23	228.06
857.55	228.06
857.86	228.03
858.17	228.05
858.48	228.00
858.79	227.96
859.11	227.95
859.42	227.93
859.73	227.85
860.04	227.86
860.35	227.84
860.66	227.80
860.98	227.79
861.29	227.79
861.60	227.80
861.91	227.85
862.22	227.81
862.53	227.78
862.84	227.63
863.16	227.64
863.47	227.64
863.78	227.61
864.09	227.62
864.40	227.62
864.71	227.59
865.02	227.62
865.33	227.59
865.64	227.63
865.95	227.62
866.27	227.70
866.58	227.67
866.89	227.66
867.20	227.65
867.51	227.65
867.82	227.67
868.13	227.69
868.44	227.66
868.75	227.69
869.06	227.68
869.37	227.67
869.68	227.65
869.99	227.65
870.30	227.65
870.61	227.64
870.92	227.63
871.23	227.64
871.54	227.61
871.85	227.65
872.16	227.64
872.47	227.60
872.78	227.54
873.09	227.57
873.40	227.58
873.71	227.60
874.02	227.59
874.33	227.57
874.64	227.57
874.95	227.59
875.26	227.56
875.56	227.59
875.87	227.62
876.18	227.62
876.49	227.71
876.80	227.69
877.11	227.71
877.42	227.69
877.73	227.70
878.04	227.70
878.35	227.73
878.66	227.72
878.96	227.74
879.27	227.73
879.58	227.74
879.89	227.75
880.20	227.79
880.51	227.78
880.82	227.81
881.12	227.75
881.43	227.71
881.74	227.68
882.05	227.68
882.36	227.70
882.67	227.71
882.97	227.60
883.28	227.64
883.59	227.63
883.90	227.67
884.21	227.69
884.51	227.71
884.82	227.67
885.13	227.65
885.44	227.68
885.74	227.67
886.05	227.63
886.36	227.64
886.67	227.57
886.98	227.63
887.28	227.63
887.59	227.64
887.90	227.69
888.20	227.74
888.51	227.74
888.82	227.71
889.13	227.71
889.43	227.79
889.74	227.76
890.05	227.74
890.35	227.70
890.66	227.68
890.97	227.67
891.28	227.68
891.58	227.68
891.89	227.67
892.20	227.67
892.50	227.68
892.81	227.66
893.12	227.65
893.42	227.58
893.73	227.58
894.04	227.58
894.34	227.58
894.65	227.53
894.95	227.53
895.26	227.54
895.57	227.57
895.87	227.51
896.18	227.53
896.48	227.54
896.79	227.56
897.10	227.55
897.40	227.54
897.71	227.55
898.01	227.54
898.32	227.54
898.63	227.52
898.93	227.51
899.24	227.49
899.54	227.52
899.85	227.55
900.15	227.52
900.46	227.51
900.76	227.49
901.07	227.51
901.38	227.49
901.68	227.50
901.99	227.48
902.29	227.46
902.60	227.45
902.90	227.44
903.21	227.44
903.51	227.46
903.82	227.49
904.12	227.48
904.43	227.51
904.73	227.51
905.03	227.51
905.34	227.60
905.64	227.59
905.95	227.58
906.25	227.57
906.56	227.58
906.86	227.59
907.17	227.58
907.47	227.57
907.77	227.57
908.08	227.58
908.38	227.56
908.69	227.57
908.99	227.59
909.30	227.58
909.60	227.57
909.90	227.55
910.21	227.53
910.51	227.52
910.81	227.52
911.12	227.51
911.42	227.53
911.73	227.44
912.03	227.48
912.33	227.50
912.64	227.50
912.94	227.47
913.24	227.47
913.55	227.46
913.85	227.48
914.15	227.49
914.46	227.50
914.76	227.47
915.06	227.43
915.37	227.42
915.67	227.45
915.97	227.44
916.27	227.41
916.58	227.41
916.88	227.44
917.18	227.43
917.49	227.52
917.79	227.52
918.09	227.55
918.39	227.58
918.70	227.56
919.00	227.55
919.30	227.61
919.60	227.63
919.91	227.61
920.21	227.60
920.51	227.58
920.81	227.54
921.12	227.57
921.42	227.60
921.72	227.59
922.02	227.58
922.32	227.60
922.63	227.60
922.93	227.64
923.23	227.62
923.53	227.58
923.83	227.51
924.13	227.48
924.44	227.43
924.74	227.47
925.04	227.49
925.34	227.50
925.64	227.45
925.94	227.44
926.24	227.49
926.55	227.47
926.85	227.49
927.15	227.50
927.45	227.49
927.75	227.49
928.05	227.46
928.35	227.44
928.65	227.46
928.95	227.47
929.26	227.47
929.56	227.46
929.86	227.47
930.16	227.43
930.46	227.47
930.76	227.49
931.06	227.40
931.36	227.35
931.66	227.35
931.96	227.34
932.26	227.32
932.56	227.30
932.86	227.32
933.16	227.28
933.46	227.28
933.76	227.29
934.06	227.30
934.36	227.37
934.66	227.38
934.96	227.36
935.26	227.38
935.56	227.36
935.86	227.35
936.16	227.32
936.46	227.30
936.76	227.27
937.06	227.27
937.36	227.28
937.66	227.28
937.96	227.26
938.26	227.27
938.56	227.28
938.86	227.24
939.16	227.25
939.46	227.25
939.76	227.28
940.06	227.27
940.35	227.25
940.65	227.20
940.95	227.21
941.25	227.15
941.55	227.14
941.85	227.15
942.15	227.17
942.45	227.19
942.75	227.21
943.04	227.21
943.34	227.23
943.64	227.21
943.94	227.21
944.24	227.21
944.54	227.22
944.84	227.22
945.13	227.23
945.43	227.21
945.73	227.22
946.03	227.19
946.33	227.17
946.62	227.16
946.92	227.16
947.22	227.16
947.52	227.19
947.82	227.18
948.11	227.14
948.41	227.17
948.71	227.14
949.01	227.17
949.31	227.16
949.60	227.12
949.90	227.17
950.20	227.16
950.50	227.15
950.79	227.15
951.09	227.18
951.39	227.18
951.69	227.16
951.98	227.21
952.28	227.22
952.58	227.26
952.87	227.27
953.17	227.30
953.47	227.27
953.76	227.27
954.06	227.26
954.36	227.28
954.66	227.26
954.95	227.28
955.25	227.23
955.55	227.25
955.84	227.23
956.14	227.23
956.44	227.27
956.73	227.28
957.03	227.25
957.32	227.21
957.62	227.23
957.92	227.26
958.21	227.20
958.51	227.31
958.81	227.32
959.10	227.31
959.40	227.31
959.69	227.34
959.99	227.36
960.29	227.37
960.58	227.31
960.88	227.34
961.17	227.33
961.47	227.37
961.76	227.38
962.06	227.38
962.36	227.36
962.65	227.31
962.95	227.32
963.24	227.32
963.54	227.34
963.83	227.31
964.13	227.35
964.42	227.32
964.72	227.23
965.01	227.19
965.31	227.20
965.60	227.16
965.90	227.21
966.19	227.20
966.49	227.20
966.78	227.23
967.08	227.25
967.37	227.28
967.67	227.25
967.96	227.26
968.26	227.31
968.55	227.31
968.85	227.35
969.14	227.33
969.43	227.33
969.73	227.32
970.02	227.32
970.32	227.25
970.61	227.27
970.91	227.25
971.20	227.25
971.49	227.20
971.79	227.22
972.08	227.16
972.38	227.13
972.67	227.14
972.96	227.16
973.26	227.09
973.55	227.12
973.85	227.11
974.14	227.09
974.43	227.08
974.73	227.09
975.02	227.04
975.31	227.03
975.61	227.02
975.90	227.04
976.19	227.04
976.49	227.10
976.78	227.12
977.07	227.12
977.37	227.15
977.66	227.17
977.95	227.13
978.24	227.14
978.54	227.20
978.83	227.18
979.12	227.16
979.42	227.18
979.71	227.18
980.00	227.18
980.29	227.18
980.59	227.17
980.88	227.18
981.17	227.20
981.46	227.22
981.76	227.20
982.05	227.21
982.34	227.25
982.63	227.21
982.93	227.23
983.22	227.26
983.51	227.24
983.80	227.24
984.09	227.27
984.39	227.27
984.68	227.23
984.97	227.21
985.26	227.21
985.55	227.25
985.85	227.20
986.14	227.24
986.43	227.25
986.72	227.26
987.01	227.22
987.30	227.19
987.59	227.18
987.89	227.21
988.18	227.21
988.47	227.18
988.76	227.17
989.05	227.15
989.34	227.12
989.63	227.16
989.92	227.19
990.22	227.17
990.51	227.16
990.80	227.15
991.09	227.17
991.38	227.21
991.67	227.16
991.96	227.14
992.25	227.13
992.54	227.11
992.83	227.09
993.12	227.10
993.41	227.12
993.70	227.17
993.99	227.17
994.28	227.17
994.58	227.19
994.87	227.20
995.16	227.19
995.45	227.20
995.74	227.13
996.03	227.11
996.32	227.15
996.61	227.18
996.90	227.20
997.19	227.21
997.48	227.22
997.77	227.20
998.06	227.22
998.34	227.23
998.63	227.26
998.92	227.25
999.21	227.25
999.50	227.26
999.79	227.22
1000.08	227.22
1000.37	227.20
1000.66	227.19
1000.95	227.19
1001.24	227.17
1001.53	227.17
1001.82	227.17
1002.11	227.17
1002.40	227.14
1002.68	227.13
1002.97	227.19
1003.26	227.15
1003.55	227.14
1003.84	227.17
1004.13	227.21
1004.42	227.20
1004.71	227.17
1004.99	227.18
1005.28	227.21
1005.57	227.21
1005.86	227.20
1006.15	227.19
1006.44	227.19
1006.72	227.19
1007.01	227.19
1007.30	227.21
1007.59	227.22
1007.88	227.24
1008.17	227.23
1008.45	227.21
1008.74	227.19
1009.03	227.16
1009.32	227.18
1009.60	227.15
1009.89	227.12
1010.18	227.03
1010.47	227.04
1010.76	227.03
1011.04	227.01
1011.33	227.05
1011.62	227.05
1011.91	227.07
1012.19	227.04
1012.48	227.02
1012.77	227.03
1013.05	227.07
1013.34	227.10
1013.63	227.07
1013.92	227.08
1014.20	227.09
1014.49	227.08
1014.78	227.07
1015.06	226.99
1015.35	226.99
1015.64	227.01
1015.92	227.06
1016.21	227.10
1016.50	227.09
1016.78	227.11
1017.07	227.12
1017.36	227.09
1017.64	227.09
1017.93	227.07
1018.22	227.12
1018.50	227.11
1018.79	227.10
1019.08	227.03
1019.36	226.99
1019.65	227.00
1019.93	227.02
1020.22	227.03
1020.51	227.11
1020.79	227.11
1021.08	227.50
1021.36	226.35
1021.65	226.90
1021.94	226.67
1022.22	226.82
1022.51	227.16
1022.79	227.71
1023.08	227.23
1023.36	228.24
1023.65	226.62
>>>>>End Processed Spectral Data<<<<<
