SpectraSuite Data File
++++++++++++++++++++++++++++++++++++
Date: Fri Feb 01 16:20:52 EST 2013
User: group
Dark Spectrum Present: No
Reference Spectrum Present: No
Number of Sampled Component Spectra: 1
Spectrometers: USB2E7196
Integration Time (usec): 35000 (USB2E7196)
Spectra Averaged: 100 (USB2E7196)
Boxcar Smoothing: 10 (USB2E7196)
Correct for Electrical Dark: No (USB2E7196)
Strobe/Lamp Enabled: No (USB2E7196)
Correct for Detector Non-linearity: No (USB2E7196)
Correct for Stray Light: No (USB2E7196)
Number of Pixels in Processed Spectrum: 2048
>>>>>Begin Processed Spectral Data<<<<<
339.09	0.00
339.48	214.31
339.86	215.07
340.24	216.65
340.63	218.33
341.01	221.43
341.39	221.28
341.78	222.50
342.16	223.87
342.54	223.63
342.93	212.37
343.31	223.10
343.69	223.63
344.07	224.12
344.46	224.56
344.84	224.96
345.22	225.15
345.60	225.39
345.99	225.56
346.37	225.67
346.75	225.79
347.13	225.88
347.52	225.90
347.90	225.96
348.28	226.00
348.66	226.03
349.05	226.03
349.43	226.08
349.81	226.14
350.19	226.19
350.57	226.24
350.96	226.34
351.34	226.40
351.72	226.49
352.10	226.57
352.48	226.63
352.87	226.67
353.25	226.74
353.63	226.81
354.01	226.88
354.39	226.96
354.77	227.02
355.15	227.07
355.54	227.14
355.92	227.19
356.30	227.29
356.68	227.41
357.06	227.49
357.44	227.53
357.82	227.61
358.20	227.67
358.58	227.72
358.97	227.76
359.35	227.87
359.73	227.95
360.11	228.01
360.49	228.08
360.87	228.09
361.25	228.20
361.63	228.27
362.01	228.34
362.39	228.35
362.77	228.39
363.15	228.44
363.53	228.51
363.91	228.54
364.29	228.52
364.67	228.48
365.05	228.50
365.43	228.55
365.81	228.55
366.19	228.61
366.57	228.69
366.95	228.72
367.33	228.70
367.71	228.68
368.09	228.70
368.47	228.67
368.85	228.68
369.23	228.63
369.61	228.58
369.99	228.57
370.37	228.56
370.75	228.59
371.13	228.54
371.51	228.48
371.89	228.44
372.27	228.42
372.65	228.37
373.03	228.34
373.41	228.29
373.78	228.23
374.16	228.12
374.54	228.00
374.92	227.95
375.30	227.88
375.68	227.80
376.06	227.74
376.44	227.70
376.82	227.65
377.19	227.62
377.57	227.53
377.95	227.43
378.33	227.36
378.71	227.27
379.09	227.21
379.47	227.16
379.84	227.08
380.22	227.02
380.60	226.94
380.98	226.85
381.36	226.79
381.73	226.71
382.11	226.72
382.49	226.68
382.87	226.60
383.25	226.53
383.62	226.62
384.00	226.50
384.38	226.44
384.76	226.38
385.13	226.32
385.51	226.28
385.89	226.23
386.27	226.19
386.64	226.13
387.02	226.06
387.40	225.99
387.78	225.96
388.15	225.93
388.53	225.88
388.91	225.85
389.29	225.82
389.66	225.81
390.04	225.70
390.42	225.68
390.79	225.65
391.17	225.63
391.55	225.49
391.92	225.53
392.30	225.53
392.68	225.49
393.05	225.51
393.43	225.49
393.81	225.50
394.18	225.46
394.56	225.49
394.94	225.53
395.31	225.54
395.69	225.61
396.06	225.63
396.44	225.66
396.82	225.69
397.19	225.77
397.57	225.78
397.95	225.85
398.32	225.86
398.70	225.91
399.07	225.99
399.45	226.02
399.82	226.07
400.20	226.12
400.58	226.22
400.95	226.22
401.33	226.34
401.70	226.47
402.08	226.60
402.45	226.69
402.83	226.81
403.20	226.90
403.58	226.96
403.95	227.07
404.33	227.19
404.71	227.30
405.08	227.45
405.46	227.60
405.83	227.77
406.21	227.91
406.58	228.11
406.96	228.24
407.33	228.41
407.70	228.60
408.08	228.88
408.45	229.10
408.83	229.39
409.20	229.58
409.58	229.75
409.95	229.99
410.33	230.24
410.70	230.49
411.08	230.80
411.45	231.12
411.82	231.47
412.20	231.84
412.57	232.27
412.95	232.57
413.32	232.97
413.69	233.39
414.07	233.84
414.44	234.30
414.82	234.79
415.19	235.32
415.56	235.90
415.94	236.42
416.31	237.08
416.68	237.70
417.06	238.46
417.43	239.14
417.81	239.93
418.18	240.71
418.55	241.57
418.93	242.44
419.30	243.35
419.67	244.27
420.04	245.22
420.42	246.21
420.79	247.38
421.16	248.54
421.54	249.70
421.91	250.93
422.28	252.21
422.66	253.55
423.03	254.89
423.40	256.21
423.77	257.59
424.15	259.00
424.52	260.49
424.89	262.07
425.26	263.63
425.64	265.07
426.01	266.64
426.38	268.29
426.75	270.00
427.13	271.68
427.50	273.48
427.87	275.38
428.24	277.25
428.61	278.99
428.99	280.90
429.36	282.99
429.73	285.07
430.10	287.03
430.47	289.05
430.85	291.15
431.22	293.37
431.59	295.82
431.96	298.05
432.33	300.53
432.70	302.89
433.08	305.68
433.45	308.29
433.82	310.93
434.19	313.81
434.56	316.57
434.93	319.20
435.30	321.84
435.68	324.66
436.05	327.47
436.42	330.26
436.79	332.82
437.16	335.55
437.53	338.37
437.90	341.17
438.27	343.90
438.64	346.69
439.01	349.22
439.38	351.37
439.75	353.51
440.13	355.97
440.50	358.31
440.87	360.20
441.24	362.16
441.61	364.25
441.98	365.70
442.35	367.47
442.72	369.37
443.09	371.15
443.46	372.18
443.83	372.73
444.20	373.22
444.57	374.01
444.94	374.29
445.31	374.58
445.68	374.91
446.05	374.99
446.42	374.63
446.79	374.23
447.16	373.78
447.53	373.39
447.90	372.23
448.27	371.06
448.64	369.45
449.01	368.27
449.37	366.34
449.74	364.46
450.11	362.23
450.48	359.71
450.85	357.17
451.22	355.03
451.59	353.02
451.96	351.05
452.33	348.46
452.70	346.05
453.07	343.25
453.43	340.38
453.80	337.62
454.17	334.93
454.54	332.44
454.91	329.76
455.28	327.20
455.65	324.75
456.02	322.30
456.38	320.15
456.75	317.50
457.12	315.26
457.49	313.07
457.86	310.95
458.23	309.12
458.59	307.10
458.96	305.03
459.33	303.21
459.70	301.39
460.07	299.93
460.43	298.21
460.80	296.59
461.17	295.19
461.54	293.76
461.91	292.39
462.27	290.95
462.64	289.70
463.01	288.31
463.38	287.01
463.74	285.65
464.11	284.54
464.48	283.52
464.85	282.39
465.21	281.54
465.58	280.63
465.95	279.55
466.32	278.66
466.68	277.72
467.05	276.82
467.42	275.99
467.78	275.05
468.15	274.22
468.52	273.58
468.88	272.73
469.25	271.93
469.62	271.30
469.98	270.65
470.35	270.03
470.72	269.43
471.08	268.79
471.45	268.27
471.82	267.72
472.18	267.11
472.55	266.73
472.92	266.18
473.28	265.71
473.65	265.29
474.02	264.85
474.38	264.51
474.75	264.19
475.11	263.80
475.48	263.56
475.85	263.32
476.21	263.08
476.58	262.90
476.94	262.76
477.31	262.60
477.67	262.43
478.04	262.34
478.41	262.30
478.77	262.35
479.14	262.26
479.50	262.30
479.87	262.46
480.23	262.52
480.60	262.64
480.96	262.72
481.33	262.89
481.69	263.09
482.06	263.29
482.42	263.48
482.79	263.79
483.15	264.12
483.52	264.49
483.88	264.84
484.25	265.23
484.61	265.63
484.98	266.07
485.34	266.64
485.71	267.21
486.07	267.84
486.44	268.41
486.80	269.16
487.17	269.85
487.53	270.59
487.90	271.42
488.26	272.33
488.62	273.33
488.99	274.29
489.35	275.28
489.72	276.45
490.08	277.71
490.44	278.90
490.81	280.21
491.17	281.61
491.54	283.10
491.90	284.62
492.26	286.27
492.63	288.00
492.99	289.79
493.36	291.67
493.72	293.71
494.08	295.87
494.45	298.11
494.81	300.47
495.17	302.93
495.54	305.54
495.90	308.26
496.26	311.10
496.63	314.11
496.99	317.28
497.35	320.50
497.72	323.89
498.08	327.47
498.44	331.16
498.80	335.06
499.17	339.17
499.53	343.37
499.89	347.74
500.26	352.24
500.62	356.92
500.98	361.91
501.34	366.99
501.71	372.28
502.07	377.79
502.43	383.48
502.79	389.32
503.16	395.38
503.52	401.63
503.88	408.03
504.24	414.67
504.60	421.59
504.97	428.79
505.33	436.11
505.69	443.86
506.05	451.64
506.41	459.53
506.78	467.63
507.14	476.14
507.50	484.96
507.86	494.02
508.22	503.16
508.59	512.40
508.95	522.05
509.31	531.86
509.67	541.92
510.03	552.18
510.39	562.70
510.75	573.50
511.12	584.49
511.48	595.77
511.84	607.24
512.20	618.72
512.56	630.65
512.92	642.83
513.28	655.16
513.64	667.61
514.00	680.33
514.37	693.29
514.73	706.34
515.09	719.29
515.45	732.62
515.81	746.21
516.17	760.24
516.53	774.37
516.89	788.56
517.25	802.78
517.61	817.19
517.97	831.67
518.33	846.07
518.69	860.79
519.05	875.72
519.41	890.90
519.77	906.44
520.13	921.78
520.49	937.12
520.85	952.54
521.21	968.27
521.57	984.54
521.93	1000.24
522.29	1016.51
522.65	1032.72
523.01	1048.92
523.37	1064.91
523.73	1081.06
524.09	1097.03
524.45	1113.33
524.81	1129.82
525.17	1146.56
525.53	1163.42
525.89	1180.33
526.25	1197.13
526.61	1213.49
526.97	1230.07
527.33	1246.44
527.68	1263.11
528.04	1279.54
528.40	1296.04
528.76	1312.95
529.12	1329.45
529.48	1346.34
529.84	1362.40
530.20	1378.96
530.56	1395.95
530.91	1413.36
531.27	1429.89
531.63	1446.27
531.99	1462.72
532.35	1478.59
532.71	1494.42
533.07	1510.61
533.42	1526.35
533.78	1542.28
534.14	1558.53
534.50	1573.82
534.86	1589.68
535.21	1604.65
535.57	1620.40
535.93	1635.86
536.29	1650.69
536.65	1665.55
537.00	1680.18
537.36	1695.26
537.72	1709.79
538.08	1723.96
538.44	1737.65
538.79	1751.63
539.15	1765.23
539.51	1778.86
539.87	1793.13
540.22	1806.86
540.58	1820.53
540.94	1833.76
541.29	1846.66
541.65	1859.13
542.01	1872.36
542.37	1884.65
542.72	1897.06
543.08	1908.99
543.44	1921.19
543.79	1932.29
544.15	1943.34
544.51	1954.89
544.87	1965.90
545.22	1976.57
545.58	1986.93
545.94	1996.54
546.29	2006.16
546.65	2016.07
547.01	2025.37
547.36	2034.03
547.72	2042.45
548.07	2050.29
548.43	2058.34
548.79	2066.35
549.14	2073.93
549.50	2081.18
549.86	2088.67
550.21	2096.00
550.57	2102.93
550.92	2109.50
551.28	2116.51
551.64	2123.50
551.99	2130.04
552.35	2136.25
552.70	2142.37
553.06	2148.16
553.41	2154.68
553.77	2160.84
554.13	2166.87
554.48	2172.93
554.84	2178.50
555.19	2183.70
555.55	2188.81
555.90	2193.42
556.26	2198.36
556.61	2203.03
556.97	2207.28
557.32	2211.42
557.68	2215.56
558.03	2219.96
558.39	2223.65
558.74	2228.31
559.10	2232.22
559.45	2235.78
559.81	2239.99
560.16	2243.87
560.52	2247.05
560.87	2250.38
561.23	2252.95
561.58	2256.00
561.94	2258.41
562.29	2260.61
562.64	2263.29
563.00	2265.86
563.35	2269.36
563.71	2272.23
564.06	2275.47
564.42	2278.51
564.77	2281.08
565.12	2283.27
565.48	2285.19
565.83	2287.17
566.19	2288.54
566.54	2289.30
566.89	2290.41
567.25	2290.97
567.60	2292.42
567.96	2294.17
568.31	2295.01
568.66	2296.29
569.02	2296.70
569.37	2297.12
569.72	2298.10
570.08	2298.22
570.43	2298.25
570.78	2297.84
571.14	2296.47
571.49	2295.25
571.84	2294.84
572.20	2293.75
572.55	2292.81
572.90	2291.24
573.26	2289.69
573.61	2287.95
573.96	2286.29
574.31	2283.55
574.67	2280.61
575.02	2276.95
575.37	2273.73
575.72	2269.91
576.08	2266.51
576.43	2263.26
576.78	2259.56
577.13	2256.50
577.49	2253.50
577.84	2250.09
578.19	2246.25
578.54	2242.66
578.90	2238.46
579.25	2232.94
579.60	2228.08
579.95	2223.04
580.30	2218.12
580.66	2213.09
581.01	2208.29
581.36	2203.54
581.71	2199.31
582.06	2194.93
582.42	2190.45
582.77	2185.18
583.12	2180.86
583.47	2176.10
583.82	2171.16
584.17	2166.01
584.53	2160.54
584.88	2154.98
585.23	2149.36
585.58	2144.15
585.93	2138.69
586.28	2133.98
586.63	2128.97
586.98	2123.96
587.34	2119.38
587.69	2114.54
588.04	2109.27
588.39	2103.69
588.74	2097.18
589.09	2091.18
589.44	2084.37
589.79	2078.46
590.14	2073.05
590.49	2066.41
590.84	2060.30
591.19	2054.36
591.54	2048.04
591.89	2040.58
592.25	2033.83
592.60	2026.58
592.95	2018.87
593.30	2011.50
593.65	2003.93
594.00	1996.99
594.35	1989.75
594.70	1981.80
595.05	1974.62
595.40	1967.49
595.75	1959.94
596.10	1953.85
596.45	1947.01
596.80	1940.95
597.15	1934.39
597.50	1927.05
597.85	1920.71
598.19	1913.89
598.54	1906.75
598.89	1900.17
599.24	1894.47
599.59	1887.76
599.94	1881.65
600.29	1875.30
600.64	1868.97
600.99	1861.60
601.34	1854.78
601.69	1847.96
602.04	1841.07
602.39	1833.68
602.74	1826.80
603.08	1820.00
603.43	1813.23
603.78	1805.93
604.13	1798.75
604.48	1791.46
604.83	1784.58
605.18	1777.57
605.53	1769.64
605.87	1761.66
606.22	1754.42
606.57	1746.53
606.92	1739.18
607.27	1732.03
607.62	1725.13
607.96	1717.63
608.31	1710.96
608.66	1703.35
609.01	1695.78
609.36	1688.23
609.70	1680.27
610.05	1672.25
610.40	1664.62
610.75	1656.30
611.10	1648.72
611.44	1640.27
611.79	1632.32
612.14	1623.75
612.49	1614.57
612.83	1606.23
613.18	1598.10
613.53	1589.93
613.88	1581.37
614.22	1573.20
614.57	1564.45
614.92	1556.42
615.27	1548.97
615.61	1540.76
615.96	1532.60
616.31	1524.91
616.65	1517.44
617.00	1509.92
617.35	1502.34
617.70	1493.93
618.04	1485.47
618.39	1477.27
618.74	1469.62
619.08	1461.25
619.43	1453.75
619.78	1446.76
620.12	1439.58
620.47	1432.04
620.82	1423.92
621.16	1416.53
621.51	1408.88
621.85	1401.37
622.20	1392.78
622.55	1384.35
622.89	1376.52
623.24	1368.97
623.59	1361.58
623.93	1354.14
624.28	1346.83
624.62	1339.20
624.97	1332.14
625.32	1325.31
625.66	1318.26
626.01	1311.09
626.35	1303.57
626.70	1295.80
627.04	1288.15
627.39	1280.40
627.73	1273.06
628.08	1266.12
628.43	1258.76
628.77	1251.33
629.12	1243.79
629.46	1236.67
629.81	1229.37
630.15	1221.98
630.50	1214.57
630.84	1206.30
631.19	1198.36
631.53	1190.90
631.88	1183.39
632.22	1175.67
632.57	1168.30
632.91	1160.70
633.26	1153.27
633.60	1145.99
633.95	1138.86
634.29	1131.88
634.64	1125.14
634.98	1117.70
635.32	1110.50
635.67	1103.89
636.01	1097.30
636.36	1090.44
636.70	1084.02
637.05	1077.37
637.39	1071.00
637.73	1064.43
638.08	1058.60
638.42	1052.59
638.77	1046.20
639.11	1039.49
639.45	1033.10
639.80	1026.54
640.14	1020.13
640.49	1013.58
640.83	1007.25
641.17	1000.96
641.52	994.59
641.86	988.06
642.20	982.31
642.55	976.04
642.89	969.57
643.23	962.99
643.58	957.25
643.92	951.00
644.26	944.92
644.61	938.80
644.95	932.85
645.29	926.27
645.64	919.57
645.98	913.14
646.32	907.38
646.66	901.37
647.01	895.55
647.35	889.80
647.69	884.01
648.04	878.50
648.38	872.72
648.72	866.76
649.06	860.77
649.41	854.82
649.75	848.82
650.09	842.87
650.43	837.13
650.78	830.95
651.12	825.01
651.46	819.31
651.80	813.56
652.14	808.13
652.49	802.70
652.83	797.47
653.17	791.80
653.51	786.07
653.85	780.72
654.20	775.15
654.54	769.11
654.88	763.36
655.22	757.39
655.56	751.72
655.90	746.22
656.25	740.97
656.59	735.60
656.93	730.49
657.27	725.27
657.61	719.80
657.95	714.74
658.29	709.67
658.64	704.33
658.98	699.10
659.32	693.64
659.66	688.42
660.00	683.10
660.34	678.15
660.68	673.27
661.02	668.22
661.36	663.50
661.70	659.04
662.05	654.67
662.39	650.33
662.73	645.88
663.07	641.54
663.41	637.02
663.75	632.49
664.09	627.95
664.43	623.53
664.77	619.45
665.11	615.09
665.45	610.89
665.79	606.85
666.13	602.70
666.47	598.59
666.81	594.46
667.15	590.35
667.49	586.45
667.83	582.58
668.17	578.62
668.51	574.40
668.85	570.38
669.19	566.52
669.53	562.69
669.87	558.77
670.21	555.01
670.55	551.36
670.89	547.98
671.23	544.57
671.57	541.06
671.91	537.50
672.25	533.98
672.58	530.44
672.92	527.04
673.26	523.85
673.60	520.68
673.94	517.55
674.28	514.62
674.62	511.62
674.96	508.49
675.30	505.63
675.64	502.80
675.97	500.01
676.31	497.14
676.65	494.22
676.99	491.54
677.33	488.67
677.67	485.85
678.01	482.77
678.34	479.76
678.68	476.92
679.02	474.12
679.36	471.40
679.70	468.70
680.04	465.93
680.37	463.00
680.71	460.23
681.05	457.59
681.39	454.95
681.73	452.34
682.06	449.87
682.40	447.30
682.74	444.77
683.08	442.24
683.42	439.63
683.75	437.14
684.09	434.57
684.43	432.09
684.77	429.66
685.10	427.32
685.44	425.00
685.78	422.67
686.12	420.41
686.45	418.13
686.79	415.83
687.13	413.64
687.46	411.53
687.80	409.36
688.14	407.13
688.48	405.01
688.81	402.75
689.15	400.59
689.49	398.44
689.82	396.35
690.16	394.28
690.50	392.35
690.83	390.41
691.17	388.45
691.51	386.59
691.84	384.75
692.18	382.83
692.52	380.85
692.85	378.93
693.19	377.03
693.52	375.19
693.86	373.38
694.20	371.55
694.53	369.74
694.87	367.90
695.21	366.12
695.54	364.28
695.88	362.53
696.21	360.76
696.55	359.06
696.88	357.34
697.22	355.65
697.56	354.03
697.89	352.38
698.23	350.76
698.56	349.15
698.90	347.54
699.23	345.91
699.57	344.36
699.90	342.83
700.24	341.27
700.58	339.74
700.91	338.27
701.25	336.87
701.58	335.48
701.92	334.12
702.25	332.72
702.59	331.35
702.92	330.07
703.26	328.81
703.59	327.49
703.93	326.31
704.26	325.10
704.60	323.79
704.93	322.51
705.26	321.30
705.60	320.09
705.93	318.94
706.27	317.90
706.60	316.84
706.94	315.80
707.27	314.66
707.61	313.62
707.94	312.58
708.27	311.47
708.61	310.43
708.94	309.43
709.28	308.46
709.61	307.52
709.94	306.54
710.28	305.49
710.61	304.54
710.95	303.47
711.28	302.55
711.61	301.61
711.95	300.68
712.28	299.64
712.61	298.66
712.95	297.73
713.28	296.86
713.61	295.98
713.95	295.05
714.28	294.24
714.61	293.35
714.95	292.47
715.28	291.61
715.61	290.71
715.95	289.85
716.28	289.03
716.61	288.19
716.95	287.36
717.28	286.64
717.61	285.89
717.94	285.14
718.28	284.34
718.61	283.64
718.94	282.96
719.27	282.37
719.61	281.78
719.94	281.10
720.27	280.38
720.60	279.68
720.94	279.08
721.27	278.45
721.60	277.87
721.93	277.29
722.27	276.76
722.60	276.19
722.93	275.64
723.26	275.08
723.59	274.54
723.93	274.01
724.26	273.42
724.59	272.85
724.92	272.28
725.25	271.80
725.59	271.24
725.92	270.72
726.25	270.21
726.58	269.65
726.91	269.18
727.24	268.74
727.57	268.29
727.91	267.75
728.24	267.31
728.57	266.81
728.90	266.38
729.23	265.87
729.56	265.48
729.89	264.98
730.22	264.48
730.55	263.99
730.89	263.53
731.22	263.10
731.55	262.67
731.88	262.26
732.21	261.83
732.54	261.41
732.87	260.97
733.20	260.55
733.53	260.17
733.86	259.76
734.19	259.34
734.52	258.92
734.85	258.61
735.18	258.15
735.51	257.81
735.84	257.41
736.17	257.08
736.50	256.63
736.83	256.42
737.16	256.10
737.49	255.75
737.82	255.43
738.15	255.13
738.48	254.78
738.81	254.46
739.14	254.07
739.47	253.76
739.80	253.44
740.13	253.11
740.46	252.80
740.79	252.50
741.12	252.20
741.45	251.87
741.78	251.51
742.11	251.25
742.44	250.90
742.77	250.61
743.10	250.32
743.43	250.04
743.75	249.64
744.08	249.47
744.41	249.20
744.74	248.91
745.07	248.59
745.40	248.31
745.73	248.09
746.06	247.87
746.39	247.57
746.71	247.31
747.04	247.08
747.37	246.82
747.70	246.52
748.03	246.25
748.36	246.07
748.68	245.83
749.01	245.59
749.34	245.38
749.67	245.13
750.00	244.86
750.33	244.70
750.65	244.55
750.98	244.22
751.31	244.00
751.64	243.78
751.97	243.60
752.29	243.41
752.62	243.14
752.95	242.91
753.28	242.73
753.60	242.52
753.93	242.33
754.26	242.12
754.59	241.91
754.91	241.72
755.24	241.52
755.57	241.33
755.90	241.15
756.22	240.94
756.55	240.75
756.88	240.56
757.20	240.28
757.53	240.04
757.86	239.88
758.19	239.71
758.51	239.57
758.84	239.38
759.17	239.21
759.49	239.05
759.82	238.92
760.15	238.74
760.47	238.59
760.80	238.37
761.13	238.26
761.45	238.09
761.78	237.95
762.11	237.82
762.43	237.69
762.76	237.52
763.08	237.41
763.41	237.29
763.74	237.14
764.06	237.03
764.39	236.92
764.71	236.76
765.04	236.64
765.37	236.50
765.69	236.33
766.02	236.23
766.34	236.08
766.67	235.93
767.00	235.85
767.32	235.79
767.65	235.75
767.97	235.61
768.30	235.54
768.62	235.45
768.95	235.31
769.27	235.17
769.60	235.12
769.92	234.97
770.25	234.83
770.57	234.72
770.90	234.65
771.22	234.51
771.55	234.42
771.87	234.30
772.20	234.19
772.52	234.17
772.85	234.17
773.17	234.12
773.50	234.02
773.82	233.94
774.15	233.82
774.47	233.67
774.80	233.59
775.12	233.47
775.45	233.36
775.77	233.29
776.09	233.22
776.42	233.10
776.74	233.05
777.07	232.97
777.39	232.91
777.72	232.84
778.04	232.77
778.36	232.70
778.69	232.66
779.01	232.61
779.33	232.47
779.66	232.29
779.98	232.19
780.31	232.10
780.63	232.03
780.95	231.93
781.28	231.88
781.60	231.78
781.92	231.75
782.25	231.69
782.57	231.63
782.89	231.58
783.22	231.55
783.54	231.49
783.86	231.46
784.19	231.40
784.51	231.32
784.83	231.27
785.16	231.20
785.48	231.16
785.80	231.10
786.12	231.08
786.45	231.05
786.77	231.01
787.09	230.98
787.42	230.91
787.74	230.89
788.06	230.83
788.38	230.82
788.71	230.74
789.03	230.70
789.35	230.65
789.67	230.59
789.99	230.51
790.32	230.47
790.64	230.45
790.96	230.50
791.28	230.47
791.61	230.44
791.93	230.39
792.25	230.30
792.57	230.34
792.89	230.28
793.21	230.18
793.54	230.18
793.86	230.12
794.18	230.08
794.50	230.02
794.82	229.98
795.14	229.95
795.47	229.94
795.79	229.92
796.11	229.88
796.43	229.84
796.75	229.82
797.07	229.78
797.39	229.74
797.71	229.64
798.04	229.61
798.36	229.57
798.68	229.57
799.00	229.59
799.32	229.50
799.64	229.51
799.96	229.53
800.28	229.51
800.60	229.46
800.92	229.48
801.24	229.42
801.56	229.42
801.89	229.39
802.21	229.36
802.53	229.32
802.85	229.32
803.17	229.34
803.49	229.30
803.81	229.25
804.13	229.22
804.45	229.17
804.77	229.15
805.09	229.10
805.41	229.05
805.73	228.99
806.05	228.94
806.37	228.88
806.69	228.84
807.01	228.79
807.33	228.80
807.65	228.73
807.97	228.78
808.28	228.74
808.60	228.70
808.92	228.68
809.24	228.67
809.56	228.65
809.88	228.57
810.20	228.54
810.52	228.57
810.84	228.54
811.16	228.50
811.48	228.47
811.80	228.48
812.12	228.46
812.43	228.46
812.75	228.45
813.07	228.44
813.39	228.40
813.71	228.38
814.03	228.34
814.35	228.32
814.67	228.23
814.98	228.20
815.30	228.17
815.62	228.12
815.94	228.06
816.26	228.07
816.58	228.06
816.89	228.02
817.21	227.95
817.53	227.91
817.85	227.89
818.17	227.86
818.48	227.82
818.80	227.82
819.12	227.75
819.44	227.71
819.76	227.65
820.07	227.62
820.39	227.57
820.71	227.59
821.03	227.56
821.34	227.54
821.66	227.54
821.98	227.56
822.30	227.55
822.61	227.60
822.93	227.54
823.25	227.50
823.57	227.50
823.88	227.51
824.20	227.49
824.52	227.49
824.83	227.47
825.15	227.46
825.47	227.45
825.79	227.46
826.10	227.43
826.42	227.42
826.74	227.42
827.05	227.43
827.37	227.42
827.69	227.40
828.00	227.42
828.32	227.38
828.64	227.37
828.95	227.43
829.27	227.39
829.58	227.33
829.90	227.38
830.22	227.40
830.53	227.38
830.85	227.40
831.17	227.37
831.48	227.36
831.80	227.30
832.11	227.27
832.43	227.26
832.75	227.25
833.06	227.33
833.38	227.31
833.69	227.28
834.01	227.28
834.32	227.29
834.64	227.25
834.96	227.28
835.27	227.25
835.59	227.18
835.90	227.14
836.22	227.18
836.53	227.13
836.85	227.14
837.16	227.22
837.48	227.20
837.79	227.22
838.11	227.23
838.42	227.26
838.74	227.27
839.05	227.27
839.37	227.28
839.68	227.18
840.00	227.19
840.31	227.20
840.63	227.17
840.94	227.17
841.26	227.17
841.57	227.13
841.88	227.13
842.20	227.12
842.51	227.09
842.83	227.03
843.14	227.13
843.46	227.08
843.77	227.02
844.08	227.01
844.40	226.99
844.71	226.95
845.03	226.95
845.34	226.95
845.65	226.94
845.97	226.95
846.28	226.98
846.60	226.96
846.91	226.94
847.22	226.95
847.54	226.96
847.85	226.93
848.16	226.92
848.48	226.90
848.79	226.92
849.10	226.94
849.42	226.97
849.73	226.83
850.04	226.86
850.36	226.81
850.67	226.82
850.98	226.82
851.30	226.81
851.61	226.83
851.92	226.84
852.23	226.88
852.55	226.88
852.86	226.87
853.17	226.85
853.49	226.89
853.80	226.89
854.11	226.87
854.42	226.91
854.74	226.90
855.05	226.88
855.36	226.84
855.67	226.84
855.99	226.83
856.30	226.98
856.61	226.95
856.92	226.94
857.23	226.91
857.55	226.88
857.86	226.86
858.17	226.86
858.48	226.82
858.79	226.78
859.11	226.78
859.42	226.76
859.73	226.77
860.04	226.76
860.35	226.71
860.66	226.69
860.98	226.68
861.29	226.70
861.60	226.72
861.91	226.73
862.22	226.73
862.53	226.72
862.84	226.59
863.16	226.60
863.47	226.59
863.78	226.59
864.09	226.60
864.40	226.62
864.71	226.61
865.02	226.61
865.33	226.60
865.64	226.56
865.95	226.59
866.27	226.64
866.58	226.63
866.89	226.67
867.20	226.66
867.51	226.64
867.82	226.61
868.13	226.64
868.44	226.63
868.75	226.65
869.06	226.66
869.37	226.67
869.68	226.66
869.99	226.66
870.30	226.68
870.61	226.72
870.92	226.69
871.23	226.68
871.54	226.70
871.85	226.73
872.16	226.78
872.47	226.74
872.78	226.69
873.09	226.69
873.40	226.67
873.71	226.68
874.02	226.71
874.33	226.76
874.64	226.72
874.95	226.74
875.26	226.72
875.56	226.73
875.87	226.74
876.18	226.72
876.49	226.86
876.80	226.83
877.11	226.80
877.42	226.83
877.73	226.87
878.04	226.83
878.35	226.82
878.66	226.81
878.96	226.79
879.27	226.79
879.58	226.78
879.89	226.79
880.20	226.82
880.51	226.81
880.82	226.78
881.12	226.80
881.43	226.81
881.74	226.78
882.05	226.77
882.36	226.74
882.67	226.77
882.97	226.66
883.28	226.67
883.59	226.67
883.90	226.72
884.21	226.68
884.51	226.67
884.82	226.65
885.13	226.64
885.44	226.63
885.74	226.61
886.05	226.61
886.36	226.57
886.67	226.51
886.98	226.55
887.28	226.54
887.59	226.53
887.90	226.51
888.20	226.52
888.51	226.52
888.82	226.53
889.13	226.53
889.43	226.60
889.74	226.57
890.05	226.57
890.35	226.49
890.66	226.49
890.97	226.52
891.28	226.50
891.58	226.51
891.89	226.52
892.20	226.49
892.50	226.48
892.81	226.49
893.12	226.49
893.42	226.45
893.73	226.46
894.04	226.46
894.34	226.47
894.65	226.46
894.95	226.45
895.26	226.43
895.57	226.45
895.87	226.32
896.18	226.34
896.48	226.32
896.79	226.34
897.10	226.31
897.40	226.29
897.71	226.28
898.01	226.26
898.32	226.30
898.63	226.33
898.93	226.33
899.24	226.33
899.54	226.32
899.85	226.31
900.15	226.27
900.46	226.25
900.76	226.23
901.07	226.21
901.38	226.17
901.68	226.20
901.99	226.15
902.29	226.18
902.60	226.15
902.90	226.15
903.21	226.15
903.51	226.18
903.82	226.18
904.12	226.18
904.43	226.19
904.73	226.17
905.03	226.14
905.34	226.26
905.64	226.23
905.95	226.25
906.25	226.25
906.56	226.26
906.86	226.30
907.17	226.32
907.47	226.33
907.77	226.32
908.08	226.28
908.38	226.28
908.69	226.28
908.99	226.29
909.30	226.28
909.60	226.29
909.90	226.28
910.21	226.26
910.51	226.23
910.81	226.22
911.12	226.23
911.42	226.27
911.73	226.16
912.03	226.20
912.33	226.22
912.64	226.20
912.94	226.18
913.24	226.15
913.55	226.12
913.85	226.14
914.15	226.20
914.46	226.22
914.76	226.24
915.06	226.25
915.37	226.22
915.67	226.26
915.97	226.25
916.27	226.24
916.58	226.27
916.88	226.32
917.18	226.35
917.49	226.41
917.79	226.41
918.09	226.43
918.39	226.46
918.70	226.46
919.00	226.48
919.30	226.56
919.60	226.53
919.91	226.56
920.21	226.53
920.51	226.51
920.81	226.49
921.12	226.48
921.42	226.50
921.72	226.53
922.02	226.55
922.32	226.55
922.63	226.56
922.93	226.60
923.23	226.60
923.53	226.59
923.83	226.53
924.13	226.48
924.44	226.45
924.74	226.43
925.04	226.41
925.34	226.39
925.64	226.33
925.94	226.35
926.24	226.42
926.55	226.42
926.85	226.45
927.15	226.48
927.45	226.50
927.75	226.47
928.05	226.48
928.35	226.45
928.65	226.50
928.95	226.48
929.26	226.44
929.56	226.46
929.86	226.46
930.16	226.44
930.46	226.44
930.76	226.46
931.06	226.46
931.36	226.47
931.66	226.50
931.96	226.52
932.26	226.51
932.56	226.47
932.86	226.45
933.16	226.43
933.46	226.41
933.76	226.39
934.06	226.42
934.36	226.40
934.66	226.41
934.96	226.40
935.26	226.41
935.56	226.43
935.86	226.40
936.16	226.39
936.46	226.39
936.76	226.39
937.06	226.37
937.36	226.34
937.66	226.32
937.96	226.33
938.26	226.30
938.56	226.30
938.86	226.26
939.16	226.31
939.46	226.30
939.76	226.29
940.06	226.25
940.35	226.19
940.65	226.18
940.95	226.15
941.25	226.09
941.55	226.06
941.85	226.02
942.15	226.04
942.45	226.05
942.75	226.03
943.04	226.03
943.34	226.05
943.64	226.03
943.94	226.01
944.24	225.99
944.54	226.01
944.84	225.97
945.13	225.96
945.43	225.97
945.73	225.92
946.03	225.90
946.33	225.92
946.62	225.92
946.92	225.90
947.22	225.92
947.52	225.94
947.82	225.95
948.11	225.96
948.41	225.93
948.71	225.92
949.01	225.94
949.31	225.94
949.60	225.93
949.90	226.00
950.20	226.01
950.50	226.00
950.79	225.99
951.09	226.04
951.39	226.02
951.69	225.98
951.98	226.04
952.28	226.06
952.58	226.02
952.87	226.04
953.17	226.07
953.47	226.06
953.76	226.06
954.06	226.05
954.36	226.07
954.66	226.04
954.95	226.04
955.25	226.04
955.55	226.06
955.84	226.06
956.14	226.02
956.44	226.07
956.73	226.06
957.03	226.08
957.32	226.07
957.62	226.08
957.92	226.15
958.21	226.14
958.51	226.22
958.81	226.30
959.10	226.30
959.40	226.35
959.69	226.35
959.99	226.37
960.29	226.40
960.58	226.37
960.88	226.45
961.17	226.47
961.47	226.47
961.76	226.43
962.06	226.42
962.36	226.42
962.65	226.39
962.95	226.40
963.24	226.36
963.54	226.34
963.83	226.36
964.13	226.33
964.42	226.30
964.72	226.24
965.01	226.19
965.31	226.21
965.60	226.16
965.90	226.21
966.19	226.18
966.49	226.17
966.78	226.19
967.08	226.16
967.37	226.16
967.67	226.12
967.96	226.12
968.26	226.13
968.55	226.14
968.85	226.16
969.14	226.18
969.43	226.24
969.73	226.24
970.02	226.20
970.32	226.18
970.61	226.20
970.91	226.17
971.20	226.17
971.49	226.15
971.79	226.16
972.08	226.07
972.38	226.06
972.67	226.07
972.96	226.05
973.26	226.03
973.55	226.04
973.85	226.05
974.14	226.10
974.43	226.11
974.73	226.04
975.02	226.01
975.31	225.98
975.61	225.93
975.90	225.93
976.19	225.95
976.49	225.98
976.78	225.97
977.07	225.97
977.37	225.98
977.66	225.99
977.95	225.98
978.24	226.00
978.54	226.02
978.83	226.00
979.12	225.98
979.42	225.96
979.71	225.95
980.00	225.95
980.29	225.91
980.59	225.89
980.88	225.93
981.17	225.94
981.46	225.93
981.76	225.91
982.05	225.93
982.34	225.92
982.63	225.89
982.93	225.87
983.22	225.89
983.51	225.89
983.80	225.89
984.09	225.89
984.39	225.88
984.68	225.86
984.97	225.90
985.26	225.91
985.55	225.93
985.85	225.93
986.14	225.95
986.43	225.98
986.72	225.97
987.01	225.97
987.30	225.97
987.59	226.00
987.89	226.01
988.18	226.00
988.47	226.01
988.76	225.98
989.05	225.97
989.34	225.97
989.63	225.99
989.92	225.98
990.22	225.95
990.51	225.98
990.80	225.98
991.09	225.96
991.38	226.00
991.67	226.05
991.96	226.04
992.25	226.05
992.54	226.03
992.83	226.06
993.12	226.04
993.41	226.07
993.70	226.11
993.99	226.13
994.28	226.15
994.58	226.16
994.87	226.15
995.16	226.20
995.45	226.20
995.74	226.16
996.03	226.19
996.32	226.25
996.61	226.24
996.90	226.26
997.19	226.26
997.48	226.27
997.77	226.20
998.06	226.22
998.34	226.22
998.63	226.23
998.92	226.22
999.21	226.23
999.50	226.21
999.79	226.15
1000.08	226.17
1000.37	226.15
1000.66	226.16
1000.95	226.21
1001.24	226.23
1001.53	226.22
1001.82	226.23
1002.11	226.18
1002.40	226.14
1002.68	226.16
1002.97	226.22
1003.26	226.24
1003.55	226.16
1003.84	226.16
1004.13	226.16
1004.42	226.14
1004.71	226.11
1004.99	226.12
1005.28	226.12
1005.57	226.10
1005.86	226.11
1006.15	226.13
1006.44	226.09
1006.72	226.10
1007.01	226.06
1007.30	226.05
1007.59	226.05
1007.88	226.03
1008.17	226.07
1008.45	226.07
1008.74	226.03
1009.03	225.95
1009.32	225.93
1009.60	225.95
1009.89	225.97
1010.18	225.96
1010.47	225.96
1010.76	225.97
1011.04	225.94
1011.33	225.97
1011.62	225.97
1011.91	225.96
1012.19	225.94
1012.48	225.95
1012.77	225.95
1013.05	226.02
1013.34	225.99
1013.63	225.98
1013.92	225.97
1014.20	225.96
1014.49	225.95
1014.78	225.95
1015.06	225.94
1015.35	225.93
1015.64	225.93
1015.92	225.94
1016.21	225.91
1016.50	225.93
1016.78	225.92
1017.07	225.93
1017.36	225.89
1017.64	225.86
1017.93	225.88
1018.22	225.86
1018.50	225.84
1018.79	225.84
1019.08	225.81
1019.36	225.83
1019.65	225.83
1019.93	225.88
1020.22	225.89
1020.51	225.96
1020.79	225.96
1021.08	225.77
1021.36	225.39
1021.65	226.18
1021.94	226.55
1022.22	226.22
1022.51	225.84
1022.79	226.14
1023.08	226.33
1023.36	227.24
1023.65	225.65
>>>>>End Processed Spectral Data<<<<<
