SpectraSuite Data File
++++++++++++++++++++++++++++++++++++
Date: Fri Feb 01 14:56:29 EST 2013
User: group
Dark Spectrum Present: No
Reference Spectrum Present: No
Number of Sampled Component Spectra: 1
Spectrometers: USB2E7196
Integration Time (usec): 35000 (USB2E7196)
Spectra Averaged: 100 (USB2E7196)
Boxcar Smoothing: 10 (USB2E7196)
Correct for Electrical Dark: No (USB2E7196)
Strobe/Lamp Enabled: No (USB2E7196)
Correct for Detector Non-linearity: No (USB2E7196)
Correct for Stray Light: No (USB2E7196)
Number of Pixels in Processed Spectrum: 2048
>>>>>Begin Processed Spectral Data<<<<<
339.09	0.00
339.48	215.26
339.86	216.61
340.24	218.24
340.63	220.04
341.01	222.53
341.39	222.53
341.78	223.81
342.16	225.25
342.54	225.01
342.93	213.76
343.31	224.55
343.69	225.10
344.07	225.56
344.46	225.96
344.84	226.29
345.22	226.51
345.60	226.77
345.99	226.95
346.37	227.06
346.75	227.16
347.13	227.23
347.52	227.31
347.90	227.34
348.28	227.35
348.66	227.39
349.05	227.37
349.43	227.37
349.81	227.40
350.19	227.43
350.57	227.50
350.96	227.57
351.34	227.64
351.72	227.70
352.10	227.80
352.48	227.87
352.87	227.94
353.25	228.00
353.63	228.03
354.01	228.09
354.39	228.14
354.77	228.23
355.15	228.34
355.54	228.37
355.92	228.40
356.30	228.46
356.68	228.60
357.06	228.64
357.44	228.71
357.82	228.76
358.20	228.87
358.58	228.91
358.97	228.94
359.35	229.00
359.73	229.11
360.11	229.15
360.49	229.19
360.87	229.24
361.25	229.29
361.63	229.35
362.01	229.37
362.39	229.40
362.77	229.45
363.15	229.42
363.53	229.44
363.91	229.46
364.29	229.47
364.67	229.34
365.05	229.37
365.43	229.38
365.81	229.38
366.19	229.40
366.57	229.42
366.95	229.41
367.33	229.41
367.71	229.35
368.09	229.37
368.47	229.40
368.85	229.36
369.23	229.34
369.61	229.28
369.99	229.30
370.37	229.27
370.75	229.24
371.13	229.18
371.51	229.10
371.89	229.08
372.27	229.03
372.65	229.02
373.03	228.98
373.41	228.93
373.78	228.88
374.16	228.77
374.54	228.69
374.92	228.61
375.30	228.52
375.68	228.42
376.06	228.35
376.44	228.26
376.82	228.18
377.19	228.10
377.57	228.04
377.95	227.93
378.33	227.87
378.71	227.77
379.09	227.71
379.47	227.65
379.84	227.54
380.22	227.44
380.60	227.32
380.98	227.23
381.36	227.15
381.73	227.06
382.11	226.96
382.49	226.92
382.87	226.84
383.25	226.76
383.62	226.81
384.00	226.69
384.38	226.64
384.76	226.62
385.13	226.62
385.51	226.55
385.89	226.49
386.27	226.41
386.64	226.36
387.02	226.32
387.40	226.28
387.78	226.26
388.15	226.24
388.53	226.23
388.91	226.22
389.29	226.19
389.66	226.19
390.04	226.21
390.42	226.19
390.79	226.17
391.17	226.21
391.55	226.11
391.92	226.13
392.30	226.14
392.68	226.13
393.05	226.09
393.43	226.14
393.81	226.18
394.18	226.20
394.56	226.18
394.94	226.23
395.31	226.28
395.69	226.37
396.06	226.43
396.44	226.49
396.82	226.52
397.19	226.61
397.57	226.63
397.95	226.68
398.32	226.69
398.70	226.80
399.07	226.86
399.45	226.95
399.82	227.04
400.20	227.10
400.58	227.17
400.95	227.25
401.33	227.36
401.70	227.52
402.08	227.66
402.45	227.82
402.83	227.96
403.20	228.08
403.58	228.22
403.95	228.36
404.33	228.49
404.71	228.63
405.08	228.86
405.46	229.04
405.83	229.21
406.21	229.37
406.58	229.54
406.96	229.71
407.33	229.89
407.70	230.11
408.08	230.41
408.45	230.63
408.83	230.87
409.20	231.09
409.58	231.28
409.95	231.54
410.33	231.80
410.70	232.07
411.08	232.37
411.45	232.65
411.82	232.97
412.20	233.34
412.57	233.80
412.95	234.06
413.32	234.50
413.69	234.91
414.07	235.38
414.44	235.86
414.82	236.33
415.19	236.88
415.56	237.41
415.94	237.96
416.31	238.60
416.68	239.25
417.06	239.92
417.43	240.58
417.81	241.34
418.18	242.13
418.55	242.91
418.93	243.76
419.30	244.66
419.67	245.59
420.04	246.54
420.42	247.49
420.79	248.66
421.16	249.79
421.54	250.96
421.91	252.16
422.28	253.43
422.66	254.73
423.03	256.03
423.40	257.39
423.77	258.78
424.15	260.23
424.52	261.72
424.89	263.38
425.26	264.93
425.64	266.38
426.01	267.95
426.38	269.66
426.75	271.31
427.13	273.03
427.50	274.82
427.87	276.70
428.24	278.57
428.61	280.33
428.99	282.24
429.36	284.37
429.73	286.44
430.10	288.44
430.47	290.50
430.85	292.62
431.22	294.82
431.59	297.22
431.96	299.48
432.33	301.94
432.70	304.26
433.08	307.06
433.45	309.72
433.82	312.33
434.19	315.20
434.56	318.05
434.93	320.70
435.30	323.29
435.68	326.14
436.05	328.99
436.42	331.76
436.79	334.33
437.16	337.00
437.53	339.83
437.90	342.65
438.27	345.41
438.64	348.24
439.01	350.83
439.38	353.07
439.75	355.25
440.13	357.76
440.50	360.10
440.87	361.94
441.24	363.86
441.61	365.99
441.98	367.49
442.35	369.28
442.72	371.14
443.09	372.99
443.46	374.00
443.83	374.55
444.20	375.10
444.57	375.92
444.94	376.23
445.31	376.53
445.68	376.89
446.05	377.00
446.42	376.62
446.79	376.21
447.16	375.71
447.53	375.35
447.90	374.21
448.27	373.07
448.64	371.50
449.01	370.31
449.37	368.39
449.74	366.50
450.11	364.27
450.48	361.79
450.85	359.24
451.22	357.11
451.59	355.15
451.96	353.18
452.33	350.56
452.70	348.14
453.07	345.36
453.43	342.46
453.80	339.66
454.17	336.98
454.54	334.44
454.91	331.75
455.28	329.12
455.65	326.62
456.02	324.16
456.38	322.04
456.75	319.44
457.12	317.15
457.49	314.89
457.86	312.73
458.23	310.87
458.59	308.83
458.96	306.74
459.33	304.85
459.70	303.03
460.07	301.53
460.43	299.86
460.80	298.22
461.17	296.75
461.54	295.26
461.91	293.79
462.27	292.33
462.64	291.07
463.01	289.69
463.38	288.37
463.74	287.01
464.11	285.83
464.48	284.80
464.85	283.72
465.21	282.89
465.58	281.97
465.95	280.84
466.32	279.93
466.68	279.04
467.05	278.13
467.42	277.16
467.78	276.19
468.15	275.32
468.52	274.64
468.88	273.78
469.25	273.02
469.62	272.40
469.98	271.73
470.35	271.09
470.72	270.46
471.08	269.78
471.45	269.23
471.82	268.64
472.18	268.01
472.55	267.56
472.92	267.00
473.28	266.53
473.65	266.07
474.02	265.62
474.38	265.21
474.75	264.90
475.11	264.55
475.48	264.31
475.85	264.01
476.21	263.74
476.58	263.59
476.94	263.44
477.31	263.22
477.67	263.04
478.04	262.92
478.41	262.83
478.77	262.85
479.14	262.74
479.50	262.77
479.87	262.83
480.23	262.91
480.60	262.95
480.96	262.99
481.33	263.16
481.69	263.35
482.06	263.56
482.42	263.73
482.79	263.99
483.15	264.27
483.52	264.71
483.88	265.05
484.25	265.41
484.61	265.81
484.98	266.31
485.34	266.84
485.71	267.37
486.07	268.01
486.44	268.59
486.80	269.30
487.17	270.02
487.53	270.81
487.90	271.63
488.26	272.55
488.62	273.56
488.99	274.55
489.35	275.57
489.72	276.68
490.08	277.86
490.44	279.08
490.81	280.46
491.17	281.75
491.54	283.26
491.90	284.82
492.26	286.47
492.63	288.16
492.99	289.97
493.36	291.90
493.72	293.93
494.08	296.03
494.45	298.27
494.81	300.62
495.17	303.05
495.54	305.62
495.90	308.30
496.26	311.08
496.63	314.01
496.99	317.14
497.35	320.37
497.72	323.78
498.08	327.27
498.44	330.83
498.80	334.77
499.17	338.73
499.53	342.86
499.89	347.19
500.26	351.66
500.62	356.30
500.98	361.24
501.34	366.32
501.71	371.63
502.07	377.03
502.43	382.60
502.79	388.35
503.16	394.40
503.52	400.66
503.88	407.04
504.24	413.64
504.60	420.43
504.97	427.50
505.33	434.80
505.69	442.46
506.05	450.24
506.41	458.08
506.78	466.23
507.14	474.67
507.50	483.34
507.86	492.41
508.22	501.56
508.59	510.74
508.95	520.25
509.31	529.96
509.67	540.05
510.03	550.30
510.39	560.85
510.75	571.63
511.12	582.53
511.48	593.82
511.84	605.29
512.20	616.82
512.56	628.80
512.92	640.91
513.28	653.28
513.64	665.82
514.00	678.54
514.37	691.51
514.73	704.57
515.09	717.63
515.45	730.90
515.81	744.55
516.17	758.54
516.53	772.62
516.89	786.86
517.25	801.00
517.61	815.51
517.97	830.03
518.33	844.46
518.69	859.29
519.05	874.30
519.41	889.47
519.77	905.03
520.13	920.44
520.49	935.95
520.85	951.44
521.21	967.15
521.57	983.35
521.93	999.16
522.29	1015.58
522.65	1031.82
523.01	1048.05
523.37	1064.06
523.73	1080.33
524.09	1096.51
524.45	1112.87
524.81	1129.62
525.17	1146.51
525.53	1163.50
525.89	1180.36
526.25	1197.32
526.61	1213.77
526.97	1230.52
527.33	1247.13
527.68	1263.94
528.04	1280.38
528.40	1297.08
528.76	1314.33
529.12	1331.11
529.48	1348.04
529.84	1364.07
530.20	1380.80
530.56	1397.97
530.91	1415.55
531.27	1432.30
531.63	1448.85
531.99	1465.57
532.35	1481.66
532.71	1497.63
533.07	1513.95
533.42	1530.01
533.78	1546.04
534.14	1562.47
534.50	1578.02
534.86	1594.08
535.21	1609.23
535.57	1625.42
535.93	1641.01
536.29	1655.78
536.65	1670.98
537.00	1685.94
537.36	1701.49
537.72	1716.15
538.08	1730.70
538.44	1744.50
538.79	1758.59
539.15	1772.51
539.51	1786.44
539.87	1800.82
540.22	1814.58
540.58	1828.57
540.94	1842.00
541.29	1855.05
541.65	1867.75
542.01	1881.12
542.37	1893.33
542.72	1906.02
543.08	1917.83
543.44	1930.31
543.79	1941.58
544.15	1952.59
544.51	1964.24
544.87	1975.19
545.22	1985.97
545.58	1996.13
545.94	2006.01
546.29	2015.79
546.65	2025.57
547.01	2034.64
547.36	2043.49
547.72	2051.95
548.07	2059.67
548.43	2067.82
548.79	2075.76
549.14	2083.28
549.50	2090.56
549.86	2098.40
550.21	2105.46
550.57	2112.56
550.92	2119.08
551.28	2126.33
551.64	2133.35
551.99	2139.83
552.35	2145.94
552.70	2152.08
553.06	2158.08
553.41	2164.45
553.77	2170.54
554.13	2176.67
554.48	2182.84
554.84	2188.10
555.19	2193.49
555.55	2198.42
555.90	2202.86
556.26	2207.72
556.61	2212.39
556.97	2216.52
557.32	2220.69
557.68	2224.87
558.03	2229.15
558.39	2232.72
558.74	2237.13
559.10	2240.85
559.45	2244.41
559.81	2248.68
560.16	2252.48
560.52	2255.50
560.87	2258.86
561.23	2261.40
561.58	2264.28
561.94	2266.70
562.29	2269.14
562.64	2271.69
563.00	2274.34
563.35	2277.81
563.71	2280.90
564.06	2284.10
564.42	2286.98
564.77	2289.18
565.12	2291.24
565.48	2292.94
565.83	2294.73
566.19	2295.91
566.54	2296.87
566.89	2297.91
567.25	2298.27
567.60	2299.65
567.96	2301.23
568.31	2301.79
568.66	2302.76
569.02	2303.03
569.37	2303.23
569.72	2303.79
570.08	2303.66
570.43	2303.58
570.78	2302.63
571.14	2300.83
571.49	2299.31
571.84	2298.83
572.20	2297.44
572.55	2296.21
572.90	2294.59
573.26	2293.01
573.61	2291.21
573.96	2289.09
574.31	2285.88
574.67	2282.80
575.02	2278.80
575.37	2275.26
575.72	2271.33
576.08	2267.89
576.43	2264.43
576.78	2260.62
577.13	2257.43
577.49	2254.29
577.84	2250.67
578.19	2247.06
578.54	2243.25
578.90	2238.70
579.25	2232.90
579.60	2227.90
579.95	2222.87
580.30	2217.69
580.66	2212.34
581.01	2207.13
581.36	2202.32
581.71	2198.03
582.06	2193.35
582.42	2188.75
582.77	2183.48
583.12	2178.66
583.47	2173.78
583.82	2168.55
584.17	2163.18
584.53	2157.60
584.88	2151.71
585.23	2145.79
585.58	2139.97
585.93	2134.45
586.28	2129.64
586.63	2124.44
586.98	2119.13
587.34	2114.37
587.69	2109.45
588.04	2104.13
588.39	2098.44
588.74	2091.68
589.09	2085.31
589.44	2078.45
589.79	2072.30
590.14	2066.59
590.49	2059.94
590.84	2053.39
591.19	2047.32
591.54	2040.78
591.89	2033.08
592.25	2026.23
592.60	2018.96
592.95	2011.47
593.30	2003.99
593.65	1996.30
594.00	1989.17
594.35	1981.86
594.70	1973.68
595.05	1966.13
595.40	1958.77
595.75	1951.14
596.10	1944.84
596.45	1937.91
596.80	1931.56
597.15	1924.86
597.50	1917.57
597.85	1911.18
598.19	1904.44
598.54	1897.25
598.89	1890.40
599.24	1884.50
599.59	1877.74
599.94	1871.44
600.29	1864.98
600.64	1858.39
600.99	1850.84
601.34	1843.95
601.69	1836.97
602.04	1829.95
602.39	1822.67
602.74	1815.74
603.08	1808.89
603.43	1802.09
603.78	1794.96
604.13	1787.78
604.48	1780.43
604.83	1773.49
605.18	1766.27
605.53	1758.23
605.87	1750.29
606.22	1743.09
606.57	1735.19
606.92	1727.95
607.27	1720.67
607.62	1713.78
607.96	1706.43
608.31	1699.88
608.66	1692.24
609.01	1684.76
609.36	1677.27
609.70	1669.19
610.05	1661.12
610.40	1653.51
610.75	1645.16
611.10	1637.50
611.44	1629.18
611.79	1621.25
612.14	1612.64
612.49	1603.74
612.83	1595.42
613.18	1587.25
613.53	1579.20
613.88	1570.62
614.22	1562.31
614.57	1553.84
614.92	1545.80
615.27	1538.24
615.61	1529.96
615.96	1521.95
616.31	1514.29
616.65	1506.96
617.00	1499.62
617.35	1492.00
617.70	1483.61
618.04	1475.20
618.39	1467.05
618.74	1459.41
619.08	1451.12
619.43	1443.70
619.78	1436.84
620.12	1429.66
620.47	1422.22
620.82	1414.11
621.16	1406.70
621.51	1399.17
621.85	1391.61
622.20	1383.14
622.55	1375.06
622.89	1367.32
623.24	1359.84
623.59	1352.59
623.93	1345.09
624.28	1337.81
624.62	1330.33
624.97	1323.26
625.32	1316.61
625.66	1309.55
626.01	1302.44
626.35	1295.03
626.70	1287.26
627.04	1279.56
627.39	1271.96
627.73	1264.63
628.08	1257.80
628.43	1250.60
628.77	1243.24
629.12	1235.73
629.46	1228.54
629.81	1221.08
630.15	1213.86
630.50	1206.49
630.84	1198.30
631.19	1190.49
631.53	1183.08
631.88	1175.64
632.22	1168.12
632.57	1160.79
632.91	1153.32
633.26	1145.97
633.60	1138.73
633.95	1131.71
634.29	1124.71
634.64	1118.02
634.98	1110.64
635.32	1103.47
635.67	1096.88
636.01	1090.29
636.36	1083.53
636.70	1077.17
637.05	1070.62
637.39	1064.22
637.73	1057.82
638.08	1052.11
638.42	1046.13
638.77	1039.62
639.11	1033.07
639.45	1026.73
639.80	1020.13
640.14	1013.71
640.49	1007.24
640.83	1000.96
641.17	994.73
641.52	988.42
641.86	982.15
642.20	976.35
642.55	970.25
642.89	963.82
643.23	957.36
643.58	951.67
643.92	945.44
644.26	939.37
644.61	933.40
644.95	927.33
645.29	920.68
645.64	913.98
645.98	907.86
646.32	902.11
646.66	896.04
647.01	890.27
647.35	884.60
647.69	878.86
648.04	873.34
648.38	867.63
648.72	861.60
649.06	855.47
649.41	849.57
649.75	843.52
650.09	837.69
650.43	831.91
650.78	825.70
651.12	819.77
651.46	814.08
651.80	808.28
652.14	802.90
652.49	797.51
652.83	792.35
653.17	786.60
653.51	780.80
653.85	775.40
654.20	769.81
654.54	763.87
654.88	758.15
655.22	752.29
655.56	746.60
655.90	741.19
656.25	735.91
656.59	730.60
656.93	725.52
657.27	720.43
657.61	715.05
657.95	709.97
658.29	704.93
658.64	699.77
658.98	694.54
659.32	689.12
659.66	683.97
660.00	678.69
660.34	673.79
660.68	668.90
661.02	663.97
661.36	659.36
661.70	654.97
662.05	650.58
662.39	646.26
662.73	641.85
663.07	637.56
663.41	633.21
663.75	628.87
664.09	624.32
664.43	619.87
664.77	615.74
665.11	611.57
665.45	607.53
665.79	603.52
666.13	599.45
666.47	595.45
666.81	591.31
667.15	587.22
667.49	583.41
667.83	579.74
668.17	575.89
668.51	571.79
668.85	567.77
669.19	563.97
669.53	560.21
669.87	556.33
670.21	552.71
670.55	549.16
670.89	545.72
671.23	542.37
671.57	538.99
671.91	535.54
672.25	532.11
672.58	528.64
672.92	525.25
673.26	522.13
673.60	519.01
673.94	515.97
674.28	513.22
674.62	510.27
674.96	507.20
675.30	504.30
675.64	501.46
675.97	498.73
676.31	495.93
676.65	493.05
676.99	490.42
677.33	487.53
677.67	484.68
678.01	481.65
678.34	478.68
678.68	475.78
679.02	472.96
679.36	470.21
679.70	467.50
680.04	464.74
680.37	461.86
680.71	459.07
681.05	456.49
681.39	453.73
681.73	451.10
682.06	448.58
682.40	446.02
682.74	443.46
683.08	440.93
683.42	438.33
683.75	435.87
684.09	433.36
684.43	430.92
684.77	428.43
685.10	426.12
685.44	423.84
685.78	421.58
686.12	419.41
686.45	417.12
686.79	414.81
687.13	412.65
687.46	410.54
687.80	408.40
688.14	406.19
688.48	404.11
688.81	401.78
689.15	399.59
689.49	397.50
689.82	395.46
690.16	393.40
690.50	391.45
690.83	389.44
691.17	387.46
691.51	385.57
691.84	383.78
692.18	381.83
692.52	379.81
692.85	377.91
693.19	375.97
693.52	374.18
693.86	372.38
694.20	370.59
694.53	368.80
694.87	366.97
695.21	365.21
695.54	363.37
695.88	361.72
696.21	360.02
696.55	358.35
696.88	356.66
697.22	355.02
697.56	353.43
697.89	351.79
698.23	350.16
698.56	348.55
698.90	346.97
699.23	345.34
699.57	343.86
699.90	342.33
700.24	340.82
700.58	339.27
700.91	337.78
701.25	336.31
701.58	334.94
701.92	333.59
702.25	332.20
702.59	330.88
702.92	329.59
703.26	328.31
703.59	327.02
703.93	325.86
704.26	324.64
704.60	323.35
704.93	322.12
705.26	320.97
705.60	319.82
705.93	318.70
706.27	317.73
706.60	316.70
706.94	315.63
707.27	314.53
707.61	313.50
707.94	312.54
708.27	311.50
708.61	310.46
708.94	309.52
709.28	308.58
709.61	307.64
709.94	306.68
710.28	305.65
710.61	304.70
710.95	303.64
711.28	302.75
711.61	301.84
711.95	300.95
712.28	299.97
712.61	298.98
712.95	298.04
713.28	297.20
713.61	296.28
713.95	295.39
714.28	294.61
714.61	293.73
714.95	292.88
715.28	292.03
715.61	291.17
715.95	290.28
716.28	289.43
716.61	288.65
716.95	287.87
717.28	287.18
717.61	286.44
717.94	285.69
718.28	284.87
718.61	284.17
718.94	283.50
719.27	282.85
719.61	282.25
719.94	281.62
720.27	280.89
720.60	280.27
720.94	279.66
721.27	279.01
721.60	278.48
721.93	277.88
722.27	277.33
722.60	276.78
722.93	276.24
723.26	275.67
723.59	275.02
723.93	274.49
724.26	273.93
724.59	273.36
724.92	272.84
725.25	272.35
725.59	271.81
725.92	271.26
726.25	270.79
726.58	270.28
726.91	269.75
727.24	269.28
727.57	268.78
727.91	268.26
728.24	267.77
728.57	267.24
728.90	266.77
729.23	266.27
729.56	265.82
729.89	265.34
730.22	264.84
730.55	264.44
730.89	263.99
731.22	263.52
731.55	263.06
731.88	262.63
732.21	262.21
732.54	261.79
732.87	261.37
733.20	260.90
733.53	260.50
733.86	260.12
734.19	259.69
734.52	259.31
734.85	259.00
735.18	258.59
735.51	258.21
735.84	257.84
736.17	257.49
736.50	257.08
736.83	256.84
737.16	256.53
737.49	256.18
737.82	255.81
738.15	255.49
738.48	255.15
738.81	254.83
739.14	254.46
739.47	254.15
739.80	253.82
740.13	253.53
740.46	253.21
740.79	252.88
741.12	252.58
741.45	252.27
741.78	251.92
742.11	251.67
742.44	251.38
742.77	251.13
743.10	250.85
743.43	250.58
743.75	250.21
744.08	250.05
744.41	249.78
744.74	249.48
745.07	249.18
745.40	248.97
745.73	248.75
746.06	248.49
746.39	248.26
746.71	248.03
747.04	247.78
747.37	247.51
747.70	247.29
748.03	247.09
748.36	246.89
748.68	246.64
749.01	246.39
749.34	246.18
749.67	245.93
750.00	245.70
750.33	245.52
750.65	245.34
750.98	245.07
751.31	244.87
751.64	244.72
751.97	244.57
752.29	244.36
752.62	244.12
752.95	243.91
753.28	243.71
753.60	243.51
753.93	243.36
754.26	243.17
754.59	242.98
754.91	242.76
755.24	242.56
755.57	242.40
755.90	242.25
756.22	242.09
756.55	241.89
756.88	241.71
757.20	241.49
757.53	241.26
757.86	241.08
758.19	240.95
758.51	240.81
758.84	240.65
759.17	240.47
759.49	240.32
759.82	240.25
760.15	240.09
760.47	239.94
760.80	239.77
761.13	239.69
761.45	239.54
761.78	239.38
762.11	239.26
762.43	239.15
762.76	239.01
763.08	238.89
763.41	238.74
763.74	238.60
764.06	238.47
764.39	238.34
764.71	238.19
765.04	237.99
765.37	237.80
765.69	237.63
766.02	237.50
766.34	237.35
766.67	237.19
767.00	237.06
767.32	236.99
767.65	236.90
767.97	236.73
768.30	236.63
768.62	236.51
768.95	236.36
769.27	236.20
769.60	236.05
769.92	235.89
770.25	235.80
770.57	235.66
770.90	235.56
771.22	235.44
771.55	235.33
771.87	235.27
772.20	235.21
772.52	235.21
772.85	235.21
773.17	235.12
773.50	234.99
773.82	234.90
774.15	234.73
774.47	234.58
774.80	234.47
775.12	234.34
775.45	234.23
775.77	234.14
776.09	234.07
776.42	234.02
776.74	233.96
777.07	233.85
777.39	233.77
777.72	233.65
778.04	233.58
778.36	233.48
778.69	233.39
779.01	233.30
779.33	233.14
779.66	232.96
779.98	232.89
780.31	232.85
780.63	232.83
780.95	232.78
781.28	232.72
781.60	232.63
781.92	232.60
782.25	232.56
782.57	232.50
782.89	232.41
783.22	232.33
783.54	232.25
783.86	232.21
784.19	232.18
784.51	232.17
784.83	232.12
785.16	232.07
785.48	232.04
785.80	231.97
786.12	231.90
786.45	231.89
786.77	231.86
787.09	231.80
787.42	231.71
787.74	231.72
788.06	231.71
788.38	231.69
788.71	231.65
789.03	231.59
789.35	231.58
789.67	231.57
789.99	231.56
790.32	231.51
790.64	231.52
790.96	231.57
791.28	231.53
791.61	231.48
791.93	231.47
792.25	231.41
792.57	231.49
792.89	231.48
793.21	231.42
793.54	231.38
793.86	231.34
794.18	231.35
794.50	231.26
794.82	231.23
795.14	231.22
795.47	231.21
795.79	231.20
796.11	231.13
796.43	231.13
796.75	231.10
797.07	231.08
797.39	231.00
797.71	230.93
798.04	230.89
798.36	230.91
798.68	230.87
799.00	230.86
799.32	230.77
799.64	230.76
799.96	230.74
800.28	230.72
800.60	230.66
800.92	230.64
801.24	230.60
801.56	230.57
801.89	230.51
802.21	230.46
802.53	230.41
802.85	230.39
803.17	230.39
803.49	230.34
803.81	230.32
804.13	230.31
804.45	230.25
804.77	230.22
805.09	230.17
805.41	230.16
805.73	230.13
806.05	230.05
806.37	229.97
806.69	229.90
807.01	229.88
807.33	229.87
807.65	229.81
807.97	229.79
808.28	229.71
808.60	229.68
808.92	229.65
809.24	229.66
809.56	229.65
809.88	229.57
810.20	229.53
810.52	229.52
810.84	229.43
811.16	229.38
811.48	229.33
811.80	229.32
812.12	229.23
812.43	229.22
812.75	229.20
813.07	229.16
813.39	229.16
813.71	229.11
814.03	229.05
814.35	229.01
814.67	228.96
814.98	228.95
815.30	228.91
815.62	228.84
815.94	228.76
816.26	228.75
816.58	228.72
816.89	228.70
817.21	228.61
817.53	228.58
817.85	228.57
818.17	228.55
818.48	228.50
818.80	228.51
819.12	228.45
819.44	228.44
819.76	228.45
820.07	228.40
820.39	228.37
820.71	228.39
821.03	228.36
821.34	228.36
821.66	228.36
821.98	228.35
822.30	228.35
822.61	228.39
822.93	228.32
823.25	228.32
823.57	228.30
823.88	228.34
824.20	228.35
824.52	228.34
824.83	228.36
825.15	228.36
825.47	228.36
825.79	228.39
826.10	228.37
826.42	228.35
826.74	228.37
827.05	228.37
827.37	228.39
827.69	228.35
828.00	228.35
828.32	228.36
828.64	228.35
828.95	228.42
829.27	228.40
829.58	228.42
829.90	228.40
830.22	228.37
830.53	228.35
830.85	228.35
831.17	228.33
831.48	228.34
831.80	228.32
832.11	228.29
832.43	228.29
832.75	228.28
833.06	228.34
833.38	228.29
833.69	228.33
834.01	228.31
834.32	228.32
834.64	228.31
834.96	228.29
835.27	228.32
835.59	228.25
835.90	228.21
836.22	228.22
836.53	228.20
836.85	228.22
837.16	228.30
837.48	228.29
837.79	228.31
838.11	228.30
838.42	228.31
838.74	228.31
839.05	228.27
839.37	228.28
839.68	228.23
840.00	228.25
840.31	228.24
840.63	228.22
840.94	228.23
841.26	228.23
841.57	228.25
841.88	228.27
842.20	228.30
842.51	228.30
842.83	228.30
843.14	228.36
843.46	228.34
843.77	228.30
844.08	228.28
844.40	228.23
844.71	228.18
845.03	228.14
845.34	228.14
845.65	228.17
845.97	228.16
846.28	228.14
846.60	228.14
846.91	228.09
847.22	228.05
847.54	228.05
847.85	228.03
848.16	227.98
848.48	227.92
848.79	227.91
849.10	227.90
849.42	227.89
849.73	227.82
850.04	227.84
850.36	227.79
850.67	227.81
850.98	227.84
851.30	227.86
851.61	227.84
851.92	227.80
852.23	227.79
852.55	227.79
852.86	227.78
853.17	227.76
853.49	227.78
853.80	227.82
854.11	227.84
854.42	227.83
854.74	227.86
855.05	227.84
855.36	227.81
855.67	227.80
855.99	227.78
856.30	227.86
856.61	227.80
856.92	227.79
857.23	227.79
857.55	227.77
857.86	227.77
858.17	227.79
858.48	227.78
858.79	227.75
859.11	227.77
859.42	227.79
859.73	227.77
860.04	227.76
860.35	227.71
860.66	227.66
860.98	227.64
861.29	227.62
861.60	227.62
861.91	227.63
862.22	227.62
862.53	227.59
862.84	227.52
863.16	227.58
863.47	227.57
863.78	227.56
864.09	227.55
864.40	227.55
864.71	227.58
865.02	227.60
865.33	227.60
865.64	227.59
865.95	227.55
866.27	227.62
866.58	227.60
866.89	227.63
867.20	227.64
867.51	227.64
867.82	227.63
868.13	227.64
868.44	227.62
868.75	227.67
869.06	227.67
869.37	227.66
869.68	227.62
869.99	227.61
870.30	227.64
870.61	227.65
870.92	227.62
871.23	227.58
871.54	227.59
871.85	227.60
872.16	227.59
872.47	227.60
872.78	227.56
873.09	227.58
873.40	227.56
873.71	227.58
874.02	227.60
874.33	227.57
874.64	227.56
874.95	227.57
875.26	227.50
875.56	227.53
875.87	227.53
876.18	227.52
876.49	227.63
876.80	227.58
877.11	227.57
877.42	227.58
877.73	227.60
878.04	227.60
878.35	227.59
878.66	227.59
878.96	227.58
879.27	227.59
879.58	227.59
879.89	227.58
880.20	227.61
880.51	227.62
880.82	227.62
881.12	227.60
881.43	227.58
881.74	227.59
882.05	227.57
882.36	227.58
882.67	227.60
882.97	227.49
883.28	227.48
883.59	227.46
883.90	227.47
884.21	227.48
884.51	227.46
884.82	227.46
885.13	227.46
885.44	227.45
885.74	227.47
886.05	227.43
886.36	227.43
886.67	227.37
886.98	227.38
887.28	227.41
887.59	227.43
887.90	227.43
888.20	227.40
888.51	227.42
888.82	227.35
889.13	227.38
889.43	227.48
889.74	227.46
890.05	227.48
890.35	227.46
890.66	227.42
890.97	227.41
891.28	227.37
891.58	227.34
891.89	227.35
892.20	227.30
892.50	227.29
892.81	227.27
893.12	227.28
893.42	227.20
893.73	227.17
894.04	227.17
894.34	227.19
894.65	227.19
894.95	227.19
895.26	227.22
895.57	227.25
895.87	227.14
896.18	227.18
896.48	227.18
896.79	227.20
897.10	227.21
897.40	227.19
897.71	227.24
898.01	227.22
898.32	227.21
898.63	227.18
898.93	227.21
899.24	227.23
899.54	227.23
899.85	227.25
900.15	227.30
900.46	227.29
900.76	227.30
901.07	227.30
901.38	227.35
901.68	227.34
901.99	227.27
902.29	227.28
902.60	227.25
902.90	227.24
903.21	227.20
903.51	227.22
903.82	227.28
904.12	227.29
904.43	227.34
904.73	227.37
905.03	227.39
905.34	227.47
905.64	227.46
905.95	227.45
906.25	227.45
906.56	227.43
906.86	227.42
907.17	227.40
907.47	227.45
907.77	227.40
908.08	227.41
908.38	227.44
908.69	227.46
908.99	227.48
909.30	227.51
909.60	227.52
909.90	227.48
910.21	227.44
910.51	227.40
910.81	227.43
911.12	227.41
911.42	227.47
911.73	227.38
912.03	227.39
912.33	227.44
912.64	227.42
912.94	227.38
913.24	227.40
913.55	227.40
913.85	227.36
914.15	227.35
914.46	227.35
914.76	227.33
915.06	227.31
915.37	227.30
915.67	227.28
915.97	227.29
916.27	227.30
916.58	227.28
916.88	227.34
917.18	227.29
917.49	227.34
917.79	227.29
918.09	227.29
918.39	227.32
918.70	227.28
919.00	227.30
919.30	227.36
919.60	227.33
919.91	227.30
920.21	227.34
920.51	227.33
920.81	227.32
921.12	227.34
921.42	227.34
921.72	227.33
922.02	227.34
922.32	227.36
922.63	227.39
922.93	227.44
923.23	227.41
923.53	227.41
923.83	227.34
924.13	227.36
924.44	227.34
924.74	227.34
925.04	227.37
925.34	227.36
925.64	227.32
925.94	227.33
926.24	227.39
926.55	227.33
926.85	227.36
927.15	227.35
927.45	227.35
927.75	227.36
928.05	227.38
928.35	227.38
928.65	227.39
928.95	227.34
929.26	227.31
929.56	227.34
929.86	227.36
930.16	227.38
930.46	227.35
930.76	227.38
931.06	227.33
931.36	227.31
931.66	227.32
931.96	227.34
932.26	227.35
932.56	227.31
932.86	227.31
933.16	227.30
933.46	227.31
933.76	227.28
934.06	227.28
934.36	227.30
934.66	227.25
934.96	227.21
935.26	227.26
935.56	227.26
935.86	227.20
936.16	227.20
936.46	227.17
936.76	227.17
937.06	227.15
937.36	227.18
937.66	227.19
937.96	227.20
938.26	227.17
938.56	227.16
938.86	227.16
939.16	227.21
939.46	227.22
939.76	227.21
940.06	227.22
940.35	227.21
940.65	227.17
940.95	227.22
941.25	227.19
941.55	227.16
941.85	227.16
942.15	227.19
942.45	227.18
942.75	227.19
943.04	227.20
943.34	227.21
943.64	227.21
943.94	227.20
944.24	227.15
944.54	227.17
944.84	227.17
945.13	227.14
945.43	227.14
945.73	227.13
946.03	227.12
946.33	227.13
946.62	227.09
946.92	227.10
947.22	227.07
947.52	227.11
947.82	227.14
948.11	227.14
948.41	227.11
948.71	227.09
949.01	227.09
949.31	227.07
949.60	227.06
949.90	227.06
950.20	227.05
950.50	227.06
950.79	227.05
951.09	227.06
951.39	227.10
951.69	227.08
951.98	227.08
952.28	227.08
952.58	227.07
952.87	227.10
953.17	227.09
953.47	227.11
953.76	227.09
954.06	227.08
954.36	227.06
954.66	227.08
954.95	227.08
955.25	227.10
955.55	227.11
955.84	227.07
956.14	227.08
956.44	227.07
956.73	227.09
957.03	227.09
957.32	227.12
957.62	227.10
957.92	227.11
958.21	227.10
958.51	227.22
958.81	227.22
959.10	227.23
959.40	227.26
959.69	227.27
959.99	227.27
960.29	227.27
960.58	227.25
960.88	227.28
961.17	227.31
961.47	227.30
961.76	227.30
962.06	227.35
962.36	227.32
962.65	227.33
962.95	227.30
963.24	227.32
963.54	227.30
963.83	227.31
964.13	227.34
964.42	227.31
964.72	227.23
965.01	227.22
965.31	227.20
965.60	227.16
965.90	227.20
966.19	227.19
966.49	227.19
966.78	227.21
967.08	227.22
967.37	227.18
967.67	227.18
967.96	227.21
968.26	227.19
968.55	227.20
968.85	227.21
969.14	227.21
969.43	227.19
969.73	227.17
970.02	227.19
970.32	227.17
970.61	227.16
970.91	227.15
971.20	227.14
971.49	227.14
971.79	227.17
972.08	227.13
972.38	227.13
972.67	227.09
972.96	227.07
973.26	227.04
973.55	227.10
973.85	227.14
974.14	227.11
974.43	227.11
974.73	227.11
975.02	227.09
975.31	227.13
975.61	227.12
975.90	227.10
976.19	227.08
976.49	227.09
976.78	227.10
977.07	227.08
977.37	227.08
977.66	227.10
977.95	227.08
978.24	227.08
978.54	227.12
978.83	227.12
979.12	227.16
979.42	227.15
979.71	227.12
980.00	227.08
980.29	227.06
980.59	227.05
980.88	227.08
981.17	227.09
981.46	227.08
981.76	227.06
982.05	227.11
982.34	227.08
982.63	227.07
982.93	227.09
983.22	227.10
983.51	227.09
983.80	227.12
984.09	227.13
984.39	227.13
984.68	227.09
984.97	227.09
985.26	227.06
985.55	227.08
985.85	227.07
986.14	227.10
986.43	227.15
986.72	227.15
987.01	227.08
987.30	227.11
987.59	227.10
987.89	227.08
988.18	227.05
988.47	227.08
988.76	227.04
989.05	227.05
989.34	227.05
989.63	227.09
989.92	227.05
990.22	227.01
990.51	227.00
990.80	227.00
991.09	227.01
991.38	227.01
991.67	226.98
991.96	226.94
992.25	226.91
992.54	226.86
992.83	226.85
993.12	226.87
993.41	226.88
993.70	226.92
993.99	226.98
994.28	226.97
994.58	226.98
994.87	226.96
995.16	226.92
995.45	226.90
995.74	226.89
996.03	226.88
996.32	226.92
996.61	226.95
996.90	226.91
997.19	226.92
997.48	226.92
997.77	226.93
998.06	226.94
998.34	226.94
998.63	226.96
998.92	226.97
999.21	226.98
999.50	226.96
999.79	226.92
1000.08	226.88
1000.37	226.88
1000.66	226.88
1000.95	226.96
1001.24	226.98
1001.53	227.02
1001.82	227.02
1002.11	227.00
1002.40	226.99
1002.68	227.00
1002.97	227.11
1003.26	227.09
1003.55	227.09
1003.84	227.10
1004.13	227.13
1004.42	227.11
1004.71	227.10
1004.99	227.10
1005.28	227.09
1005.57	227.10
1005.86	227.08
1006.15	227.10
1006.44	227.13
1006.72	227.12
1007.01	227.08
1007.30	227.11
1007.59	227.06
1007.88	227.05
1008.17	227.09
1008.45	227.09
1008.74	227.06
1009.03	227.01
1009.32	227.03
1009.60	227.03
1009.89	227.02
1010.18	227.01
1010.47	227.04
1010.76	227.04
1011.04	227.04
1011.33	227.09
1011.62	227.09
1011.91	227.11
1012.19	227.10
1012.48	227.07
1012.77	227.06
1013.05	227.12
1013.34	227.11
1013.63	227.13
1013.92	227.11
1014.20	227.09
1014.49	227.11
1014.78	227.09
1015.06	227.09
1015.35	227.09
1015.64	227.10
1015.92	227.10
1016.21	227.08
1016.50	227.05
1016.78	227.05
1017.07	227.05
1017.36	227.03
1017.64	227.00
1017.93	227.02
1018.22	227.03
1018.50	227.04
1018.79	227.05
1019.08	227.00
1019.36	227.02
1019.65	226.99
1019.93	227.03
1020.22	227.04
1020.51	227.08
1020.79	227.10
1021.08	227.31
1021.36	226.79
1021.65	227.26
1021.94	227.15
1022.22	227.51
1022.51	226.46
1022.79	227.17
1023.08	227.11
1023.36	228.43
1023.65	227.11
>>>>>End Processed Spectral Data<<<<<
