SpectraSuite Data File
++++++++++++++++++++++++++++++++++++
Date: Fri Feb 01 15:04:07 EST 2013
User: group
Dark Spectrum Present: No
Reference Spectrum Present: No
Number of Sampled Component Spectra: 1
Spectrometers: USB2E7196
Integration Time (usec): 35000 (USB2E7196)
Spectra Averaged: 100 (USB2E7196)
Boxcar Smoothing: 10 (USB2E7196)
Correct for Electrical Dark: No (USB2E7196)
Strobe/Lamp Enabled: No (USB2E7196)
Correct for Detector Non-linearity: No (USB2E7196)
Correct for Stray Light: No (USB2E7196)
Number of Pixels in Processed Spectrum: 2048
>>>>>Begin Processed Spectral Data<<<<<
339.09	0.00
339.48	215.37
339.86	217.04
340.24	217.56
340.63	218.96
341.01	222.00
341.39	221.43
341.78	223.09
342.16	224.65
342.54	225.15
342.93	213.24
343.31	224.00
343.69	224.55
344.07	225.00
344.46	225.44
344.84	225.85
345.22	226.08
345.60	226.35
345.99	226.55
346.37	226.68
346.75	226.77
347.13	226.82
347.52	226.86
347.90	226.96
348.28	227.01
348.66	227.08
349.05	227.09
349.43	227.13
349.81	227.21
350.19	227.28
350.57	227.33
350.96	227.42
351.34	227.54
351.72	227.63
352.10	227.73
352.48	227.83
352.87	227.89
353.25	227.99
353.63	228.07
354.01	228.13
354.39	228.21
354.77	228.27
355.15	228.39
355.54	228.47
355.92	228.51
356.30	228.57
356.68	228.68
357.06	228.78
357.44	228.83
357.82	228.89
358.20	228.97
358.58	229.10
358.97	229.15
359.35	229.21
359.73	229.26
360.11	229.29
360.49	229.31
360.87	229.34
361.25	229.38
361.63	229.44
362.01	229.49
362.39	229.51
362.77	229.54
363.15	229.57
363.53	229.58
363.91	229.59
364.29	229.64
364.67	229.54
365.05	229.55
365.43	229.56
365.81	229.56
366.19	229.59
366.57	229.58
366.95	229.56
367.33	229.53
367.71	229.49
368.09	229.49
368.47	229.48
368.85	229.46
369.23	229.44
369.61	229.37
369.99	229.39
370.37	229.35
370.75	229.37
371.13	229.27
371.51	229.19
371.89	229.12
372.27	229.06
372.65	229.04
373.03	228.96
373.41	228.90
373.78	228.82
374.16	228.73
374.54	228.62
374.92	228.56
375.30	228.48
375.68	228.42
376.06	228.33
376.44	228.23
376.82	228.14
377.19	228.05
377.57	227.97
377.95	227.83
378.33	227.74
378.71	227.60
379.09	227.54
379.47	227.49
379.84	227.45
380.22	227.34
380.60	227.23
380.98	227.16
381.36	227.08
381.73	227.01
382.11	226.95
382.49	226.85
382.87	226.76
383.25	226.72
383.62	226.75
384.00	226.68
384.38	226.68
384.76	226.67
385.13	226.68
385.51	226.65
385.89	226.60
386.27	226.55
386.64	226.54
387.02	226.52
387.40	226.48
387.78	226.44
388.15	226.41
388.53	226.40
388.91	226.38
389.29	226.35
389.66	226.35
390.04	226.33
390.42	226.38
390.79	226.42
391.17	226.39
391.55	226.28
391.92	226.29
392.30	226.25
392.68	226.22
393.05	226.16
393.43	226.14
393.81	226.14
394.18	226.15
394.56	226.15
394.94	226.19
395.31	226.22
395.69	226.28
396.06	226.33
396.44	226.35
396.82	226.40
397.19	226.53
397.57	226.56
397.95	226.61
398.32	226.63
398.70	226.69
399.07	226.76
399.45	226.86
399.82	226.94
400.20	227.00
400.58	227.08
400.95	227.18
401.33	227.30
401.70	227.48
402.08	227.59
402.45	227.70
402.83	227.80
403.20	227.92
403.58	228.04
403.95	228.20
404.33	228.37
404.71	228.52
405.08	228.67
405.46	228.81
405.83	228.96
406.21	229.13
406.58	229.29
406.96	229.46
407.33	229.64
407.70	229.83
408.08	230.14
408.45	230.35
408.83	230.56
409.20	230.76
409.58	230.94
409.95	231.23
410.33	231.51
410.70	231.74
411.08	232.04
411.45	232.32
411.82	232.62
412.20	232.97
412.57	233.36
412.95	233.66
413.32	234.07
413.69	234.47
414.07	234.90
414.44	235.36
414.82	235.88
415.19	236.40
415.56	236.94
415.94	237.47
416.31	238.13
416.68	238.78
417.06	239.53
417.43	240.24
417.81	241.01
418.18	241.78
418.55	242.67
418.93	243.56
419.30	244.44
419.67	245.37
420.04	246.31
420.42	247.32
420.79	248.48
421.16	249.63
421.54	250.83
421.91	252.03
422.28	253.29
422.66	254.59
423.03	255.90
423.40	257.23
423.77	258.64
424.15	260.06
424.52	261.54
424.89	263.13
425.26	264.66
425.64	266.05
426.01	267.62
426.38	269.27
426.75	270.95
427.13	272.66
427.50	274.47
427.87	276.37
428.24	278.21
428.61	279.98
428.99	281.92
429.36	284.07
429.73	286.12
430.10	288.16
430.47	290.21
430.85	292.34
431.22	294.53
431.59	296.95
431.96	299.18
432.33	301.68
432.70	304.05
433.08	306.85
433.45	309.51
433.82	312.17
434.19	315.07
434.56	317.89
434.93	320.60
435.30	323.24
435.68	326.12
436.05	328.97
436.42	331.75
436.79	334.32
437.16	337.02
437.53	339.86
437.90	342.68
438.27	345.39
438.64	348.23
439.01	350.90
439.38	353.13
439.75	355.37
440.13	357.87
440.50	360.22
440.87	362.10
441.24	364.07
441.61	366.21
441.98	367.74
442.35	369.52
442.72	371.41
443.09	373.20
443.46	374.21
443.83	374.81
444.20	375.38
444.57	376.18
444.94	376.47
445.31	376.80
445.68	377.16
446.05	377.31
446.42	376.92
446.79	376.47
447.16	376.00
447.53	375.67
447.90	374.51
448.27	373.35
448.64	371.73
449.01	370.57
449.37	368.62
449.74	366.66
450.11	364.44
450.48	361.93
450.85	359.40
451.22	357.27
451.59	355.22
451.96	353.24
452.33	350.62
452.70	348.22
453.07	345.40
453.43	342.49
453.80	339.66
454.17	336.96
454.54	334.45
454.91	331.74
455.28	329.04
455.65	326.57
456.02	324.14
456.38	321.98
456.75	319.33
457.12	317.11
457.49	314.89
457.86	312.69
458.23	310.83
458.59	308.77
458.96	306.65
459.33	304.81
459.70	302.99
460.07	301.48
460.43	299.79
460.80	298.14
461.17	296.67
461.54	295.19
461.91	293.79
462.27	292.32
462.64	291.04
463.01	289.69
463.38	288.39
463.74	286.96
464.11	285.85
464.48	284.80
464.85	283.66
465.21	282.77
465.58	281.83
465.95	280.74
466.32	279.87
466.68	278.97
467.05	278.04
467.42	277.13
467.78	276.20
468.15	275.29
468.52	274.65
468.88	273.81
469.25	273.00
469.62	272.38
469.98	271.67
470.35	271.04
470.72	270.42
471.08	269.74
471.45	269.20
471.82	268.63
472.18	268.01
472.55	267.57
472.92	267.05
473.28	266.61
473.65	266.11
474.02	265.65
474.38	265.22
474.75	264.87
475.11	264.49
475.48	264.20
475.85	263.94
476.21	263.71
476.58	263.49
476.94	263.34
477.31	263.12
477.67	262.98
478.04	262.84
478.41	262.76
478.77	262.78
479.14	262.71
479.50	262.70
479.87	262.78
480.23	262.83
480.60	262.88
480.96	262.92
481.33	263.16
481.69	263.35
482.06	263.55
482.42	263.78
482.79	264.02
483.15	264.36
483.52	264.74
483.88	265.06
484.25	265.44
484.61	265.90
484.98	266.37
485.34	266.93
485.71	267.51
486.07	268.09
486.44	268.63
486.80	269.31
487.17	270.04
487.53	270.83
487.90	271.71
488.26	272.64
488.62	273.64
488.99	274.58
489.35	275.62
489.72	276.79
490.08	277.96
490.44	279.22
490.81	280.54
491.17	281.90
491.54	283.41
491.90	284.96
492.26	286.61
492.63	288.35
492.99	290.11
493.36	291.99
493.72	294.07
494.08	296.20
494.45	298.50
494.81	300.88
495.17	303.32
495.54	305.86
495.90	308.55
496.26	311.36
496.63	314.34
496.99	317.47
497.35	320.67
497.72	324.10
498.08	327.60
498.44	331.20
498.80	335.11
499.17	339.09
499.53	343.24
499.89	347.60
500.26	352.05
500.62	356.72
500.98	361.72
501.34	366.77
501.71	372.08
502.07	377.50
502.43	383.09
502.79	388.84
503.16	394.92
503.52	401.19
503.88	407.57
504.24	414.17
504.60	421.05
504.97	428.21
505.33	435.48
505.69	443.13
506.05	450.89
506.41	458.79
506.78	467.00
507.14	475.44
507.50	484.13
507.86	493.16
508.22	502.32
508.59	511.43
508.95	521.00
509.31	530.80
509.67	540.90
510.03	551.15
510.39	561.75
510.75	572.48
511.12	583.39
511.48	594.61
511.84	606.03
512.20	617.46
512.56	629.34
512.92	641.59
513.28	653.91
513.64	666.46
514.00	679.08
514.37	691.99
514.73	705.04
515.09	718.04
515.45	731.39
515.81	744.98
516.17	758.95
516.53	773.10
516.89	787.26
517.25	801.41
517.61	815.84
517.97	830.34
518.33	844.81
518.69	859.62
519.05	874.69
519.41	889.96
519.77	905.55
520.13	921.05
520.49	936.33
520.85	951.79
521.21	967.60
521.57	983.94
521.93	999.68
522.29	1016.11
522.65	1032.39
523.01	1048.60
523.37	1064.77
523.73	1080.98
524.09	1097.15
524.45	1113.50
524.81	1130.21
525.17	1147.16
525.53	1164.04
525.89	1181.00
526.25	1197.85
526.61	1214.38
526.97	1231.24
527.33	1247.85
527.68	1264.59
528.04	1281.22
528.40	1297.96
528.76	1315.08
529.12	1331.68
529.48	1348.78
529.84	1364.85
530.20	1381.60
530.56	1398.76
530.91	1416.22
531.27	1433.12
531.63	1449.57
531.99	1466.30
532.35	1482.40
532.71	1498.37
533.07	1514.77
533.42	1530.69
533.78	1546.87
534.14	1563.07
534.50	1578.32
534.86	1594.22
535.21	1609.39
535.57	1625.42
535.93	1641.01
536.29	1655.76
536.65	1670.96
537.00	1685.74
537.36	1701.04
537.72	1715.78
538.08	1730.11
538.44	1743.99
538.79	1757.88
539.15	1771.77
539.51	1785.55
539.87	1799.90
540.22	1813.69
540.58	1827.51
540.94	1840.92
541.29	1853.89
541.65	1866.74
542.01	1880.19
542.37	1892.58
542.72	1905.18
543.08	1917.03
543.44	1929.59
543.79	1940.91
544.15	1952.04
544.51	1963.82
544.87	1975.05
545.22	1985.68
545.58	1996.14
545.94	2005.87
546.29	2015.90
546.65	2025.72
547.01	2035.05
547.36	2044.01
547.72	2052.54
548.07	2060.54
548.43	2068.84
548.79	2077.06
549.14	2084.71
549.50	2092.07
549.86	2099.88
550.21	2107.14
550.57	2114.42
550.92	2120.94
551.28	2128.18
551.64	2135.15
551.99	2141.60
552.35	2147.72
552.70	2153.90
553.06	2159.77
553.41	2166.14
553.77	2172.15
554.13	2178.27
554.48	2184.31
554.84	2189.44
555.19	2194.75
555.55	2199.74
555.90	2204.10
556.26	2208.73
556.61	2213.39
556.97	2217.53
557.32	2221.52
557.68	2225.62
558.03	2229.80
558.39	2233.31
558.74	2237.66
559.10	2241.48
559.45	2245.08
559.81	2249.42
560.16	2253.18
560.52	2256.35
560.87	2259.79
561.23	2262.31
561.58	2265.21
561.94	2267.65
562.29	2270.27
562.64	2272.89
563.00	2275.41
563.35	2278.99
563.71	2282.17
564.06	2285.31
564.42	2288.02
564.77	2290.44
565.12	2292.64
565.48	2294.28
565.83	2296.19
566.19	2297.49
566.54	2298.37
566.89	2299.44
567.25	2299.76
567.60	2301.16
567.96	2302.72
568.31	2303.38
568.66	2304.26
569.02	2304.62
569.37	2304.94
569.72	2305.46
570.08	2305.28
570.43	2305.18
570.78	2304.24
571.14	2302.53
571.49	2300.99
571.84	2300.70
572.20	2299.25
572.55	2297.97
572.90	2296.51
573.26	2294.94
573.61	2293.16
573.96	2291.16
574.31	2287.89
574.67	2284.79
575.02	2281.06
575.37	2277.52
575.72	2273.59
576.08	2270.35
576.43	2267.01
576.78	2263.11
577.13	2259.86
577.49	2256.78
577.84	2253.13
578.19	2249.43
578.54	2245.62
578.90	2241.22
579.25	2235.45
579.60	2230.62
579.95	2225.51
580.30	2220.24
580.66	2215.01
581.01	2209.81
581.36	2204.85
581.71	2200.65
582.06	2195.93
582.42	2191.22
582.77	2185.85
583.12	2181.12
583.47	2176.16
583.82	2171.01
584.17	2165.69
584.53	2160.07
584.88	2154.42
585.23	2148.50
585.58	2142.78
585.93	2137.23
586.28	2132.28
586.63	2127.03
586.98	2121.67
587.34	2116.98
587.69	2112.04
588.04	2106.57
588.39	2100.78
588.74	2094.24
589.09	2088.02
589.44	2081.17
589.79	2075.11
590.14	2069.47
590.49	2062.84
590.84	2056.30
591.19	2050.15
591.54	2043.50
591.89	2035.85
592.25	2028.83
592.60	2021.68
592.95	2013.96
593.30	2006.53
593.65	1998.93
594.00	1991.78
594.35	1984.50
594.70	1976.21
595.05	1968.88
595.40	1961.53
595.75	1954.07
596.10	1947.63
596.45	1940.67
596.80	1934.49
597.15	1927.75
597.50	1920.58
597.85	1914.09
598.19	1907.53
598.54	1900.38
598.89	1893.73
599.24	1887.94
599.59	1881.17
599.94	1874.79
600.29	1868.58
600.64	1861.92
600.99	1854.36
601.34	1847.52
601.69	1840.43
602.04	1833.48
602.39	1826.11
602.74	1819.28
603.08	1812.47
603.43	1805.82
603.78	1798.55
604.13	1791.29
604.48	1783.81
604.83	1776.89
605.18	1769.79
605.53	1761.66
605.87	1753.56
606.22	1746.41
606.57	1738.39
606.92	1731.08
607.27	1723.92
607.62	1716.92
607.96	1709.64
608.31	1703.00
608.66	1695.33
609.01	1687.97
609.36	1680.55
609.70	1672.58
610.05	1664.46
610.40	1656.74
610.75	1648.33
611.10	1640.71
611.44	1632.40
611.79	1624.51
612.14	1615.87
612.49	1606.73
612.83	1598.44
613.18	1590.42
613.53	1582.22
613.88	1573.73
614.22	1565.44
614.57	1556.90
614.92	1548.91
615.27	1541.31
615.61	1533.04
615.96	1525.10
616.31	1517.38
616.65	1509.94
617.00	1502.34
617.35	1494.83
617.70	1486.47
618.04	1478.04
618.39	1469.75
618.74	1462.03
619.08	1453.80
619.43	1446.29
619.78	1439.44
620.12	1432.32
620.47	1424.72
620.82	1416.72
621.16	1409.44
621.51	1401.93
621.85	1394.41
622.20	1385.87
622.55	1377.72
622.89	1369.96
623.24	1362.46
623.59	1355.18
623.93	1347.75
624.28	1340.56
624.62	1332.98
624.97	1325.95
625.32	1319.29
625.66	1312.41
626.01	1305.38
626.35	1297.85
626.70	1290.06
627.04	1282.34
627.39	1274.55
627.73	1267.24
628.08	1260.26
628.43	1252.87
628.77	1245.47
629.12	1237.85
629.46	1230.67
629.81	1223.21
630.15	1216.09
630.50	1208.73
630.84	1200.53
631.19	1192.67
631.53	1185.16
631.88	1177.77
632.22	1170.19
632.57	1162.89
632.91	1155.38
633.26	1147.98
633.60	1140.78
633.95	1133.80
634.29	1126.96
634.64	1120.42
634.98	1113.14
635.32	1106.16
635.67	1099.64
636.01	1093.09
636.36	1086.31
636.70	1079.85
637.05	1073.27
637.39	1066.81
637.73	1060.29
638.08	1054.52
638.42	1048.54
638.77	1042.08
639.11	1035.39
639.45	1029.00
639.80	1022.31
640.14	1015.87
640.49	1009.35
640.83	1003.03
641.17	996.76
641.52	990.37
641.86	983.96
642.20	978.12
642.55	971.81
642.89	965.33
643.23	958.82
643.58	953.14
643.92	947.02
644.26	940.96
644.61	934.97
644.95	928.93
645.29	922.34
645.64	915.63
645.98	909.42
646.32	903.68
646.66	897.66
647.01	891.95
647.35	886.20
647.69	880.43
648.04	874.95
648.38	869.18
648.72	863.13
649.06	857.01
649.41	851.10
649.75	845.05
650.09	839.13
650.43	833.32
650.78	827.15
651.12	821.18
651.46	815.46
651.80	809.62
652.14	804.20
652.49	798.83
652.83	793.70
653.17	787.93
653.51	782.11
653.85	776.70
654.20	771.02
654.54	765.10
654.88	759.39
655.22	753.52
655.56	747.85
655.90	742.47
656.25	737.18
656.59	731.89
656.93	726.93
657.27	721.70
657.61	716.23
657.95	711.17
658.29	706.09
658.64	700.96
658.98	695.78
659.32	690.46
659.66	685.30
660.00	679.97
660.34	675.09
660.68	670.32
661.02	665.31
661.36	660.69
661.70	656.19
662.05	651.87
662.39	647.53
662.73	643.11
663.07	638.72
663.41	634.32
663.75	629.80
664.09	625.23
664.43	620.94
664.77	616.90
665.11	612.64
665.45	608.58
665.79	604.48
666.13	600.34
666.47	596.26
666.81	592.04
667.15	588.00
667.49	584.11
667.83	580.28
668.17	576.44
668.51	572.38
668.85	568.40
669.19	564.57
669.53	560.79
669.87	556.96
670.21	553.33
670.55	549.82
670.89	546.41
671.23	542.95
671.57	539.44
671.91	535.91
672.25	532.52
672.58	529.06
672.92	525.70
673.26	522.51
673.60	519.37
673.94	516.33
674.28	513.46
674.62	510.57
674.96	507.49
675.30	504.56
675.64	501.66
675.97	498.96
676.31	496.05
676.65	493.13
676.99	490.42
677.33	487.57
677.67	484.73
678.01	481.70
678.34	478.73
678.68	475.94
679.02	473.18
679.36	470.40
679.70	467.70
680.04	464.92
680.37	462.12
680.71	459.39
681.05	456.75
681.39	454.03
681.73	451.38
682.06	448.89
682.40	446.41
682.74	443.86
683.08	441.30
683.42	438.76
683.75	436.26
684.09	433.71
684.43	431.29
684.77	428.85
685.10	426.57
685.44	424.32
685.78	422.08
686.12	419.85
686.45	417.59
686.79	415.32
687.13	413.18
687.46	411.07
687.80	408.96
688.14	406.81
688.48	404.75
688.81	402.50
689.15	400.33
689.49	398.15
689.82	396.11
690.16	393.98
690.50	392.00
690.83	390.11
691.17	388.13
691.51	386.20
691.84	384.30
692.18	382.36
692.52	380.35
692.85	378.39
693.19	376.49
693.52	374.67
693.86	372.84
694.20	371.08
694.53	369.25
694.87	367.35
695.21	365.58
695.54	363.76
695.88	362.07
696.21	360.36
696.55	358.70
696.88	357.04
697.22	355.46
697.56	353.89
697.89	352.20
698.23	350.61
698.56	349.01
698.90	347.43
699.23	345.76
699.57	344.20
699.90	342.69
700.24	341.15
700.58	339.59
700.91	338.07
701.25	336.55
701.58	335.19
701.92	333.82
702.25	332.43
702.59	331.07
702.92	329.75
703.26	328.48
703.59	327.20
703.93	325.98
704.26	324.75
704.60	323.43
704.93	322.20
705.26	320.96
705.60	319.80
705.93	318.69
706.27	317.68
706.60	316.65
706.94	315.57
707.27	314.45
707.61	313.45
707.94	312.46
708.27	311.41
708.61	310.32
708.94	309.31
709.28	308.33
709.61	307.38
709.94	306.43
710.28	305.38
710.61	304.42
710.95	303.33
711.28	302.41
711.61	301.52
711.95	300.60
712.28	299.64
712.61	298.64
712.95	297.72
713.28	296.87
713.61	295.99
713.95	295.07
714.28	294.24
714.61	293.33
714.95	292.48
715.28	291.67
715.61	290.81
715.95	289.98
716.28	289.18
716.61	288.36
716.95	287.55
717.28	286.89
717.61	286.13
717.94	285.44
718.28	284.66
718.61	283.91
718.94	283.25
719.27	282.58
719.61	281.99
719.94	281.35
720.27	280.65
720.60	280.02
720.94	279.43
721.27	278.87
721.60	278.31
721.93	277.69
722.27	277.15
722.60	276.62
722.93	276.06
723.26	275.53
723.59	274.95
723.93	274.43
724.26	273.83
724.59	273.29
724.92	272.79
725.25	272.28
725.59	271.78
725.92	271.25
726.25	270.80
726.58	270.31
726.91	269.78
727.24	269.28
727.57	268.81
727.91	268.26
728.24	267.79
728.57	267.32
728.90	266.91
729.23	266.41
729.56	265.99
729.89	265.50
730.22	265.00
730.55	264.54
730.89	264.08
731.22	263.64
731.55	263.18
731.88	262.74
732.21	262.30
732.54	261.89
732.87	261.48
733.20	261.07
733.53	260.69
733.86	260.33
734.19	259.93
734.52	259.54
734.85	259.29
735.18	258.85
735.51	258.48
735.84	258.11
736.17	257.75
736.50	257.32
736.83	257.11
737.16	256.77
737.49	256.43
737.82	256.07
738.15	255.74
738.48	255.40
738.81	255.05
739.14	254.73
739.47	254.41
739.80	254.08
740.13	253.74
740.46	253.39
740.79	253.06
741.12	252.77
741.45	252.46
741.78	252.08
742.11	251.82
742.44	251.51
742.77	251.20
743.10	250.87
743.43	250.58
743.75	250.19
744.08	250.03
744.41	249.79
744.74	249.51
745.07	249.23
745.40	248.97
745.73	248.77
746.06	248.47
746.39	248.16
746.71	247.87
747.04	247.61
747.37	247.34
747.70	247.12
748.03	246.87
748.36	246.66
748.68	246.42
749.01	246.13
749.34	245.92
749.67	245.72
750.00	245.53
750.33	245.37
750.65	245.16
750.98	244.83
751.31	244.61
751.64	244.46
751.97	244.30
752.29	244.10
752.62	243.86
752.95	243.69
753.28	243.53
753.60	243.35
753.93	243.22
754.26	243.04
754.59	242.77
754.91	242.52
755.24	242.29
755.57	242.15
755.90	242.03
756.22	241.81
756.55	241.61
756.88	241.45
757.20	241.21
757.53	241.03
757.86	240.85
758.19	240.69
758.51	240.47
758.84	240.30
759.17	240.15
759.49	239.99
759.82	239.89
760.15	239.75
760.47	239.62
760.80	239.45
761.13	239.34
761.45	239.22
761.78	239.15
762.11	239.03
762.43	238.86
762.76	238.70
763.08	238.59
763.41	238.47
763.74	238.29
764.06	238.19
764.39	238.04
764.71	237.92
765.04	237.78
765.37	237.69
765.69	237.55
766.02	237.41
766.34	237.29
766.67	237.10
767.00	236.98
767.32	236.89
767.65	236.84
767.97	236.71
768.30	236.61
768.62	236.50
768.95	236.38
769.27	236.25
769.60	236.18
769.92	236.08
770.25	235.94
770.57	235.86
770.90	235.73
771.22	235.65
771.55	235.54
771.87	235.47
772.20	235.35
772.52	235.29
772.85	235.32
773.17	235.20
773.50	235.11
773.82	235.01
774.15	234.88
774.47	234.69
774.80	234.58
775.12	234.47
775.45	234.38
775.77	234.30
776.09	234.20
776.42	234.07
776.74	233.97
777.07	233.90
777.39	233.83
777.72	233.73
778.04	233.65
778.36	233.55
778.69	233.44
779.01	233.36
779.33	233.20
779.66	233.03
779.98	232.96
780.31	232.87
780.63	232.80
780.95	232.72
781.28	232.66
781.60	232.58
781.92	232.56
782.25	232.49
782.57	232.43
782.89	232.36
783.22	232.31
783.54	232.26
783.86	232.19
784.19	232.09
784.51	232.08
784.83	231.99
785.16	231.96
785.48	231.91
785.80	231.86
786.12	231.84
786.45	231.75
786.77	231.72
787.09	231.68
787.42	231.64
787.74	231.61
788.06	231.54
788.38	231.49
788.71	231.38
789.03	231.34
789.35	231.29
789.67	231.25
789.99	231.22
790.32	231.13
790.64	231.11
790.96	231.17
791.28	231.10
791.61	231.06
791.93	231.01
792.25	231.01
792.57	231.02
792.89	230.95
793.21	230.93
793.54	230.89
793.86	230.88
794.18	230.81
794.50	230.77
794.82	230.76
795.14	230.75
795.47	230.77
795.79	230.74
796.11	230.70
796.43	230.68
796.75	230.67
797.07	230.66
797.39	230.63
797.71	230.54
798.04	230.53
798.36	230.50
798.68	230.48
799.00	230.43
799.32	230.37
799.64	230.38
799.96	230.36
800.28	230.31
800.60	230.25
800.92	230.27
801.24	230.23
801.56	230.22
801.89	230.20
802.21	230.19
802.53	230.12
802.85	230.13
803.17	230.15
803.49	230.10
803.81	230.09
804.13	230.06
804.45	230.04
804.77	230.03
805.09	229.99
805.41	230.00
805.73	229.97
806.05	229.95
806.37	229.91
806.69	229.86
807.01	229.87
807.33	229.86
807.65	229.82
807.97	229.85
808.28	229.81
808.60	229.77
808.92	229.72
809.24	229.78
809.56	229.72
809.88	229.66
810.20	229.63
810.52	229.63
810.84	229.61
811.16	229.56
811.48	229.52
811.80	229.55
812.12	229.50
812.43	229.50
812.75	229.50
813.07	229.47
813.39	229.50
813.71	229.43
814.03	229.40
814.35	229.36
814.67	229.33
814.98	229.33
815.30	229.28
815.62	229.22
815.94	229.11
816.26	229.14
816.58	229.09
816.89	229.07
817.21	229.00
817.53	228.97
817.85	228.94
818.17	228.93
818.48	228.86
818.80	228.86
819.12	228.79
819.44	228.74
819.76	228.74
820.07	228.68
820.39	228.71
820.71	228.70
821.03	228.69
821.34	228.63
821.66	228.60
821.98	228.60
822.30	228.59
822.61	228.67
822.93	228.62
823.25	228.62
823.57	228.61
823.88	228.62
824.20	228.60
824.52	228.59
824.83	228.57
825.15	228.55
825.47	228.52
825.79	228.50
826.10	228.48
826.42	228.45
826.74	228.46
827.05	228.41
827.37	228.37
827.69	228.35
828.00	228.39
828.32	228.33
828.64	228.29
828.95	228.34
829.27	228.29
829.58	228.28
829.90	228.26
830.22	228.26
830.53	228.19
830.85	228.16
831.17	228.14
831.48	228.12
831.80	228.10
832.11	228.06
832.43	228.04
832.75	228.04
833.06	228.07
833.38	228.04
833.69	228.03
834.01	228.07
834.32	228.08
834.64	228.03
834.96	228.05
835.27	228.07
835.59	228.01
835.90	227.94
836.22	227.91
836.53	227.91
836.85	227.88
837.16	227.99
837.48	228.00
837.79	228.03
838.11	228.05
838.42	228.05
838.74	228.12
839.05	228.14
839.37	228.10
839.68	228.05
840.00	228.05
840.31	228.03
840.63	227.99
840.94	227.97
841.26	227.94
841.57	227.96
841.88	227.97
842.20	227.96
842.51	227.96
842.83	227.99
843.14	228.06
843.46	228.07
843.77	228.00
844.08	228.00
844.40	227.97
844.71	227.95
845.03	227.95
845.34	227.91
845.65	227.91
845.97	227.95
846.28	227.98
846.60	227.99
846.91	228.02
847.22	228.02
847.54	228.08
847.85	228.09
848.16	228.07
848.48	228.07
848.79	228.09
849.10	228.13
849.42	228.12
849.73	228.01
850.04	228.00
850.36	227.96
850.67	227.98
850.98	227.96
851.30	227.96
851.61	227.96
851.92	227.97
852.23	228.00
852.55	227.96
852.86	227.93
853.17	227.92
853.49	227.92
853.80	227.90
854.11	227.86
854.42	227.84
854.74	227.84
855.05	227.83
855.36	227.82
855.67	227.83
855.99	227.86
856.30	228.01
856.61	228.02
856.92	228.06
857.23	228.06
857.55	228.05
857.86	228.05
858.17	228.05
858.48	228.00
858.79	227.96
859.11	227.99
859.42	227.99
859.73	227.98
860.04	227.94
860.35	227.94
860.66	227.87
860.98	227.87
861.29	227.87
861.60	227.84
861.91	227.87
862.22	227.83
862.53	227.75
862.84	227.62
863.16	227.64
863.47	227.58
863.78	227.55
864.09	227.54
864.40	227.50
864.71	227.49
865.02	227.51
865.33	227.50
865.64	227.47
865.95	227.48
866.27	227.56
866.58	227.58
866.89	227.59
867.20	227.63
867.51	227.63
867.82	227.62
868.13	227.62
868.44	227.61
868.75	227.60
869.06	227.62
869.37	227.61
869.68	227.57
869.99	227.61
870.30	227.62
870.61	227.66
870.92	227.65
871.23	227.65
871.54	227.64
871.85	227.65
872.16	227.66
872.47	227.62
872.78	227.53
873.09	227.56
873.40	227.56
873.71	227.57
874.02	227.57
874.33	227.54
874.64	227.55
874.95	227.52
875.26	227.52
875.56	227.52
875.87	227.53
876.18	227.50
876.49	227.57
876.80	227.56
877.11	227.52
877.42	227.54
877.73	227.55
878.04	227.56
878.35	227.57
878.66	227.58
878.96	227.59
879.27	227.59
879.58	227.55
879.89	227.53
880.20	227.55
880.51	227.55
880.82	227.57
881.12	227.57
881.43	227.57
881.74	227.54
882.05	227.53
882.36	227.53
882.67	227.56
882.97	227.45
883.28	227.43
883.59	227.44
883.90	227.46
884.21	227.46
884.51	227.45
884.82	227.44
885.13	227.44
885.44	227.45
885.74	227.47
886.05	227.47
886.36	227.47
886.67	227.47
886.98	227.55
887.28	227.57
887.59	227.59
887.90	227.60
888.20	227.63
888.51	227.68
888.82	227.67
889.13	227.67
889.43	227.78
889.74	227.79
890.05	227.78
890.35	227.76
890.66	227.75
890.97	227.75
891.28	227.70
891.58	227.68
891.89	227.70
892.20	227.68
892.50	227.67
892.81	227.66
893.12	227.62
893.42	227.56
893.73	227.53
894.04	227.51
894.34	227.53
894.65	227.50
894.95	227.46
895.26	227.45
895.57	227.48
895.87	227.35
896.18	227.36
896.48	227.36
896.79	227.31
897.10	227.33
897.40	227.33
897.71	227.37
898.01	227.37
898.32	227.36
898.63	227.32
898.93	227.33
899.24	227.32
899.54	227.30
899.85	227.26
900.15	227.26
900.46	227.25
900.76	227.19
901.07	227.22
901.38	227.21
901.68	227.23
901.99	227.17
902.29	227.21
902.60	227.20
902.90	227.22
903.21	227.23
903.51	227.21
903.82	227.19
904.12	227.17
904.43	227.16
904.73	227.10
905.03	227.12
905.34	227.20
905.64	227.20
905.95	227.23
906.25	227.26
906.56	227.21
906.86	227.19
907.17	227.22
907.47	227.18
907.77	227.18
908.08	227.11
908.38	227.12
908.69	227.13
908.99	227.17
909.30	227.17
909.60	227.19
909.90	227.20
910.21	227.19
910.51	227.20
910.81	227.18
911.12	227.18
911.42	227.18
911.73	227.08
912.03	227.08
912.33	227.12
912.64	227.10
912.94	227.13
913.24	227.12
913.55	227.11
913.85	227.13
914.15	227.13
914.46	227.18
914.76	227.20
915.06	227.17
915.37	227.11
915.67	227.09
915.97	227.06
916.27	227.04
916.58	227.03
916.88	227.02
917.18	227.03
917.49	227.14
917.79	227.17
918.09	227.19
918.39	227.23
918.70	227.20
919.00	227.20
919.30	227.25
919.60	227.25
919.91	227.25
920.21	227.26
920.51	227.25
920.81	227.26
921.12	227.25
921.42	227.22
921.72	227.25
922.02	227.26
922.32	227.29
922.63	227.31
922.93	227.38
923.23	227.38
923.53	227.41
923.83	227.32
924.13	227.31
924.44	227.31
924.74	227.33
925.04	227.36
925.34	227.37
925.64	227.33
925.94	227.33
926.24	227.37
926.55	227.36
926.85	227.37
927.15	227.35
927.45	227.34
927.75	227.36
928.05	227.34
928.35	227.34
928.65	227.34
928.95	227.32
929.26	227.27
929.56	227.29
929.86	227.29
930.16	227.32
930.46	227.32
930.76	227.29
931.06	227.24
931.36	227.19
931.66	227.21
931.96	227.23
932.26	227.24
932.56	227.18
932.86	227.19
933.16	227.20
933.46	227.19
933.76	227.20
934.06	227.22
934.36	227.27
934.66	227.24
934.96	227.23
935.26	227.24
935.56	227.24
935.86	227.21
936.16	227.18
936.46	227.16
936.76	227.12
937.06	227.12
937.36	227.15
937.66	227.13
937.96	227.12
938.26	227.09
938.56	227.07
938.86	227.09
939.16	227.10
939.46	227.09
939.76	227.09
940.06	227.08
940.35	227.06
940.65	227.02
940.95	227.03
941.25	227.01
941.55	227.00
941.85	227.00
942.15	227.01
942.45	227.03
942.75	227.01
943.04	227.02
943.34	227.04
943.64	227.01
943.94	227.02
944.24	226.98
944.54	226.98
944.84	226.99
945.13	226.97
945.43	226.98
945.73	226.94
946.03	226.94
946.33	226.91
946.62	226.91
946.92	226.93
947.22	226.92
947.52	226.91
947.82	226.90
948.11	226.86
948.41	226.85
948.71	226.80
949.01	226.82
949.31	226.80
949.60	226.77
949.90	226.77
950.20	226.79
950.50	226.80
950.79	226.78
951.09	226.76
951.39	226.78
951.69	226.74
951.98	226.79
952.28	226.78
952.58	226.81
952.87	226.81
953.17	226.78
953.47	226.79
953.76	226.79
954.06	226.78
954.36	226.80
954.66	226.80
954.95	226.86
955.25	226.84
955.55	226.88
955.84	226.87
956.14	226.89
956.44	226.89
956.73	226.86
957.03	226.88
957.32	226.90
957.62	226.87
957.92	226.89
958.21	226.88
958.51	227.00
958.81	226.98
959.10	226.99
959.40	227.04
959.69	227.05
959.99	227.09
960.29	227.09
960.58	227.06
960.88	227.06
961.17	227.06
961.47	227.10
961.76	227.05
962.06	227.05
962.36	227.02
962.65	227.02
962.95	227.07
963.24	227.07
963.54	227.07
963.83	227.09
964.13	227.10
964.42	227.09
964.72	227.01
965.01	227.03
965.31	227.02
965.60	226.95
965.90	227.04
966.19	227.01
966.49	227.02
966.78	227.01
967.08	227.04
967.37	227.06
967.67	227.03
967.96	227.06
968.26	227.06
968.55	227.08
968.85	227.07
969.14	227.07
969.43	227.06
969.73	227.06
970.02	227.07
970.32	227.05
970.61	227.02
970.91	226.98
971.20	226.94
971.49	226.92
971.79	226.98
972.08	226.90
972.38	226.91
972.67	226.93
972.96	226.96
973.26	226.94
973.55	226.96
973.85	226.96
974.14	226.95
974.43	227.02
974.73	227.02
975.02	227.03
975.31	227.02
975.61	227.03
975.90	227.04
976.19	227.01
976.49	227.02
976.78	227.06
977.07	227.10
977.37	227.10
977.66	227.14
977.95	227.09
978.24	227.10
978.54	227.12
978.83	227.11
979.12	227.13
979.42	227.15
979.71	227.13
980.00	227.13
980.29	227.16
980.59	227.12
980.88	227.16
981.17	227.16
981.46	227.15
981.76	227.14
982.05	227.17
982.34	227.15
982.63	227.15
982.93	227.15
983.22	227.15
983.51	227.17
983.80	227.16
984.09	227.20
984.39	227.18
984.68	227.13
984.97	227.12
985.26	227.10
985.55	227.08
985.85	227.06
986.14	227.09
986.43	227.08
986.72	227.06
987.01	227.00
987.30	227.01
987.59	227.00
987.89	227.01
988.18	226.95
988.47	226.98
988.76	226.99
989.05	226.98
989.34	226.96
989.63	227.00
989.92	227.02
990.22	226.98
990.51	227.01
990.80	227.03
991.09	227.04
991.38	227.04
991.67	227.06
991.96	227.07
992.25	227.06
992.54	227.05
992.83	227.05
993.12	227.07
993.41	227.08
993.70	227.08
993.99	227.12
994.28	227.19
994.58	227.20
994.87	227.18
995.16	227.16
995.45	227.13
995.74	227.08
996.03	227.09
996.32	227.12
996.61	227.12
996.90	227.12
997.19	227.09
997.48	227.11
997.77	227.07
998.06	227.08
998.34	227.03
998.63	227.05
998.92	227.02
999.21	227.02
999.50	227.04
999.79	227.01
1000.08	226.98
1000.37	226.91
1000.66	226.91
1000.95	226.96
1001.24	226.98
1001.53	227.02
1001.82	227.01
1002.11	226.97
1002.40	226.98
1002.68	226.99
1002.97	227.05
1003.26	227.08
1003.55	227.04
1003.84	227.06
1004.13	227.07
1004.42	227.09
1004.71	227.07
1004.99	227.10
1005.28	227.14
1005.57	227.11
1005.86	227.10
1006.15	227.04
1006.44	227.03
1006.72	227.04
1007.01	227.00
1007.30	226.97
1007.59	226.96
1007.88	226.99
1008.17	226.98
1008.45	226.96
1008.74	226.91
1009.03	226.85
1009.32	226.81
1009.60	226.82
1009.89	226.79
1010.18	226.74
1010.47	226.72
1010.76	226.73
1011.04	226.68
1011.33	226.64
1011.62	226.66
1011.91	226.70
1012.19	226.71
1012.48	226.70
1012.77	226.71
1013.05	226.74
1013.34	226.73
1013.63	226.69
1013.92	226.68
1014.20	226.65
1014.49	226.66
1014.78	226.66
1015.06	226.61
1015.35	226.63
1015.64	226.64
1015.92	226.66
1016.21	226.67
1016.50	226.68
1016.78	226.69
1017.07	226.73
1017.36	226.73
1017.64	226.69
1017.93	226.69
1018.22	226.70
1018.50	226.71
1018.79	226.70
1019.08	226.67
1019.36	226.70
1019.65	226.71
1019.93	226.73
1020.22	226.78
1020.51	226.83
1020.79	226.85
1021.08	226.27
1021.36	226.64
1021.65	226.75
1021.94	226.96
1022.22	226.83
1022.51	226.54
1022.79	227.41
1023.08	227.42
1023.36	227.98
1023.65	226.66
>>>>>End Processed Spectral Data<<<<<
