SpectraSuite Data File
++++++++++++++++++++++++++++++++++++
Date: Fri Feb 01 15:33:59 EST 2013
User: group
Dark Spectrum Present: No
Reference Spectrum Present: No
Number of Sampled Component Spectra: 1
Spectrometers: USB2E7196
Integration Time (usec): 35000 (USB2E7196)
Spectra Averaged: 100 (USB2E7196)
Boxcar Smoothing: 10 (USB2E7196)
Correct for Electrical Dark: No (USB2E7196)
Strobe/Lamp Enabled: No (USB2E7196)
Correct for Detector Non-linearity: No (USB2E7196)
Correct for Stray Light: No (USB2E7196)
Number of Pixels in Processed Spectrum: 2048
>>>>>Begin Processed Spectral Data<<<<<
339.09	0.00
339.48	215.09
339.86	216.00
340.24	217.82
340.63	219.50
341.01	221.98
341.39	221.65
341.78	223.44
342.16	223.69
342.54	225.02
342.93	213.13
343.31	223.92
343.69	224.42
344.07	224.86
344.46	225.26
344.84	225.59
345.22	225.84
345.60	226.09
345.99	226.26
346.37	226.40
346.75	226.50
347.13	226.55
347.52	226.62
347.90	226.68
348.28	226.69
348.66	226.76
349.05	226.78
349.43	226.78
349.81	226.84
350.19	226.91
350.57	226.99
350.96	227.07
351.34	227.13
351.72	227.23
352.10	227.34
352.48	227.40
352.87	227.51
353.25	227.52
353.63	227.60
354.01	227.67
354.39	227.75
354.77	227.80
355.15	227.91
355.54	227.98
355.92	228.06
356.30	228.13
356.68	228.28
357.06	228.33
357.44	228.38
357.82	228.40
358.20	228.49
358.58	228.54
358.97	228.58
359.35	228.66
359.73	228.78
360.11	228.86
360.49	228.94
360.87	228.97
361.25	229.05
361.63	229.08
362.01	229.14
362.39	229.16
362.77	229.22
363.15	229.25
363.53	229.28
363.91	229.29
364.29	229.32
364.67	229.25
365.05	229.26
365.43	229.34
365.81	229.42
366.19	229.42
366.57	229.45
366.95	229.48
367.33	229.47
367.71	229.44
368.09	229.42
368.47	229.40
368.85	229.41
369.23	229.42
369.61	229.39
369.99	229.37
370.37	229.36
370.75	229.39
371.13	229.30
371.51	229.24
371.89	229.24
372.27	229.23
372.65	229.21
373.03	229.16
373.41	229.08
373.78	229.00
374.16	228.93
374.54	228.84
374.92	228.76
375.30	228.65
375.68	228.55
376.06	228.53
376.44	228.47
376.82	228.37
377.19	228.28
377.57	228.20
377.95	228.11
378.33	228.05
378.71	227.92
379.09	227.91
379.47	227.85
379.84	227.72
380.22	227.59
380.60	227.49
380.98	227.42
381.36	227.37
381.73	227.28
382.11	227.22
382.49	227.18
382.87	227.09
383.25	227.08
383.62	227.16
384.00	227.02
384.38	226.98
384.76	226.92
385.13	226.91
385.51	226.89
385.89	226.84
386.27	226.80
386.64	226.73
387.02	226.66
387.40	226.63
387.78	226.61
388.15	226.60
388.53	226.57
388.91	226.54
389.29	226.47
389.66	226.43
390.04	226.40
390.42	226.40
390.79	226.41
391.17	226.35
391.55	226.22
391.92	226.28
392.30	226.28
392.68	226.27
393.05	226.24
393.43	226.26
393.81	226.24
394.18	226.24
394.56	226.25
394.94	226.25
395.31	226.25
395.69	226.30
396.06	226.32
396.44	226.36
396.82	226.36
397.19	226.50
397.57	226.55
397.95	226.61
398.32	226.62
398.70	226.67
399.07	226.79
399.45	226.85
399.82	226.87
400.20	226.91
400.58	227.00
400.95	227.03
401.33	227.12
401.70	227.33
402.08	227.37
402.45	227.49
402.83	227.66
403.20	227.81
403.58	227.90
403.95	228.02
404.33	228.14
404.71	228.30
405.08	228.47
405.46	228.62
405.83	228.76
406.21	228.91
406.58	229.11
406.96	229.29
407.33	229.50
407.70	229.73
408.08	230.04
408.45	230.26
408.83	230.50
409.20	230.71
409.58	230.88
409.95	231.19
410.33	231.45
410.70	231.69
411.08	231.98
411.45	232.30
411.82	232.62
412.20	232.99
412.57	233.42
412.95	233.72
413.32	234.15
413.69	234.59
414.07	235.03
414.44	235.48
414.82	235.95
415.19	236.46
415.56	236.99
415.94	237.51
416.31	238.17
416.68	238.84
417.06	239.56
417.43	240.22
417.81	240.99
418.18	241.83
418.55	242.67
418.93	243.53
419.30	244.41
419.67	245.37
420.04	246.32
420.42	247.29
420.79	248.47
421.16	249.59
421.54	250.78
421.91	252.02
422.28	253.26
422.66	254.54
423.03	255.88
423.40	257.20
423.77	258.61
424.15	260.06
424.52	261.53
424.89	263.13
425.26	264.68
425.64	266.11
426.01	267.66
426.38	269.32
426.75	271.02
427.13	272.76
427.50	274.57
427.87	276.44
428.24	278.31
428.61	280.08
428.99	282.04
429.36	284.12
429.73	286.16
430.10	288.20
430.47	290.28
430.85	292.41
431.22	294.66
431.59	297.05
431.96	299.27
432.33	301.76
432.70	304.15
433.08	307.00
433.45	309.66
433.82	312.28
434.19	315.15
434.56	317.96
434.93	320.61
435.30	323.20
435.68	326.11
436.05	328.94
436.42	331.71
436.79	334.17
437.16	336.87
437.53	339.73
437.90	342.53
438.27	345.25
438.64	348.08
439.01	350.65
439.38	352.90
439.75	355.09
440.13	357.55
440.50	359.89
440.87	361.70
441.24	363.67
441.61	365.83
441.98	367.30
442.35	369.08
442.72	370.95
443.09	372.74
443.46	373.73
443.83	374.36
444.20	374.88
444.57	375.76
444.94	376.04
445.31	376.34
445.68	376.72
446.05	376.78
446.42	376.35
446.79	375.96
447.16	375.48
447.53	375.14
447.90	374.04
448.27	372.85
448.64	371.28
449.01	370.09
449.37	368.09
449.74	366.20
450.11	363.94
450.48	361.46
450.85	358.94
451.22	356.81
451.59	354.77
451.96	352.79
452.33	350.19
452.70	347.80
453.07	345.00
453.43	342.06
453.80	339.33
454.17	336.70
454.54	334.16
454.91	331.47
455.28	328.79
455.65	326.29
456.02	323.82
456.38	321.62
456.75	318.97
457.12	316.76
457.49	314.55
457.86	312.39
458.23	310.52
458.59	308.49
458.96	306.42
459.33	304.55
459.70	302.70
460.07	301.17
460.43	299.46
460.80	297.84
461.17	296.45
461.54	294.93
461.91	293.50
462.27	292.02
462.64	290.73
463.01	289.38
463.38	288.06
463.74	286.72
464.11	285.59
464.48	284.55
464.85	283.45
465.21	282.59
465.58	281.65
465.95	280.56
466.32	279.61
466.68	278.65
467.05	277.72
467.42	276.80
467.78	275.86
468.15	274.98
468.52	274.30
468.88	273.39
469.25	272.65
469.62	272.01
469.98	271.33
470.35	270.71
470.72	270.10
471.08	269.43
471.45	268.89
471.82	268.35
472.18	267.73
472.55	267.29
472.92	266.69
473.28	266.25
473.65	265.78
474.02	265.35
474.38	265.02
474.75	264.73
475.11	264.36
475.48	264.12
475.85	263.92
476.21	263.69
476.58	263.51
476.94	263.34
477.31	263.16
477.67	263.00
478.04	262.90
478.41	262.81
478.77	262.86
479.14	262.76
479.50	262.79
479.87	262.87
480.23	262.92
480.60	263.01
480.96	263.08
481.33	263.29
481.69	263.49
482.06	263.66
482.42	263.84
482.79	264.13
483.15	264.43
483.52	264.77
483.88	265.08
484.25	265.44
484.61	265.86
484.98	266.32
485.34	266.85
485.71	267.43
486.07	268.08
486.44	268.62
486.80	269.30
487.17	270.02
487.53	270.80
487.90	271.70
488.26	272.63
488.62	273.59
488.99	274.54
489.35	275.59
489.72	276.69
490.08	277.91
490.44	279.15
490.81	280.47
491.17	281.79
491.54	283.31
491.90	284.91
492.26	286.59
492.63	288.33
492.99	290.16
493.36	292.04
493.72	294.10
494.08	296.18
494.45	298.42
494.81	300.78
495.17	303.23
495.54	305.78
495.90	308.44
496.26	311.27
496.63	314.28
496.99	317.40
497.35	320.68
497.72	324.10
498.08	327.59
498.44	331.30
498.80	335.22
499.17	339.25
499.53	343.41
499.89	347.77
500.26	352.30
500.62	356.99
500.98	362.02
501.34	367.10
501.71	372.48
502.07	377.93
502.43	383.55
502.79	389.42
503.16	395.51
503.52	401.80
503.88	408.24
504.24	414.87
504.60	421.78
504.97	429.01
505.33	436.33
505.69	444.07
506.05	451.83
506.41	459.71
506.78	467.90
507.14	476.37
507.50	485.09
507.86	494.05
508.22	503.19
508.59	512.32
508.95	521.85
509.31	531.65
509.67	541.84
510.03	552.19
510.39	562.73
510.75	573.50
511.12	584.44
511.48	595.72
511.84	607.19
512.20	618.64
512.56	630.45
512.92	642.63
513.28	655.01
513.64	667.48
514.00	680.29
514.37	693.30
514.73	706.45
515.09	719.54
515.45	732.89
515.81	746.56
516.17	760.56
516.53	774.70
516.89	788.90
517.25	803.10
517.61	817.51
517.97	832.04
518.33	846.54
518.69	861.42
519.05	876.45
519.41	891.66
519.77	907.30
520.13	922.85
520.49	938.26
520.85	953.67
521.21	969.51
521.57	985.75
521.93	1001.47
522.29	1017.81
522.65	1034.11
523.01	1050.36
523.37	1066.33
523.73	1082.53
524.09	1098.70
524.45	1115.05
524.81	1131.72
525.17	1148.67
525.53	1165.48
525.89	1182.37
526.25	1199.15
526.61	1215.53
526.97	1232.24
527.33	1248.70
527.68	1265.38
528.04	1281.89
528.40	1298.58
528.76	1315.61
529.12	1332.32
529.48	1349.23
529.84	1365.20
530.20	1381.85
530.56	1398.86
530.91	1416.35
531.27	1433.19
531.63	1449.67
531.99	1466.42
532.35	1482.42
532.71	1498.13
533.07	1514.57
533.42	1530.45
533.78	1546.48
534.14	1562.97
534.50	1578.43
534.86	1594.39
535.21	1609.50
535.57	1625.51
535.93	1641.10
536.29	1655.96
536.65	1671.02
537.00	1685.99
537.36	1701.54
537.72	1716.13
538.08	1730.65
538.44	1744.54
538.79	1758.46
539.15	1772.31
539.51	1785.84
539.87	1800.10
540.22	1814.03
540.58	1827.78
540.94	1841.27
541.29	1854.25
541.65	1866.83
542.01	1880.19
542.37	1892.63
542.72	1905.15
543.08	1916.96
543.44	1929.41
543.79	1940.66
544.15	1951.68
544.51	1963.11
544.87	1974.08
545.22	1984.87
545.58	1995.00
545.94	2004.85
546.29	2014.76
546.65	2024.53
547.01	2034.04
547.36	2042.93
547.72	2051.40
548.07	2059.17
548.43	2067.28
548.79	2075.46
549.14	2082.94
549.50	2090.22
549.86	2097.88
550.21	2105.23
550.57	2112.51
550.92	2118.92
551.28	2125.92
551.64	2133.07
551.99	2139.74
552.35	2145.82
552.70	2152.03
553.06	2158.15
553.41	2164.53
553.77	2170.53
554.13	2176.65
554.48	2182.73
554.84	2188.02
555.19	2193.37
555.55	2198.53
555.90	2203.01
556.26	2207.81
556.61	2212.74
556.97	2216.98
557.32	2221.17
557.68	2225.26
558.03	2229.49
558.39	2233.32
558.74	2238.02
559.10	2241.81
559.45	2245.37
559.81	2249.85
560.16	2253.76
560.52	2256.96
560.87	2260.32
561.23	2263.01
561.58	2265.93
561.94	2268.36
562.29	2270.89
562.64	2273.59
563.00	2276.30
563.35	2279.90
563.71	2283.07
564.06	2286.14
564.42	2288.86
564.77	2291.21
565.12	2293.48
565.48	2295.30
565.83	2297.11
566.19	2298.41
566.54	2299.29
566.89	2300.34
567.25	2300.70
567.60	2302.01
567.96	2303.69
568.31	2304.49
568.66	2305.51
569.02	2306.12
569.37	2306.64
569.72	2307.45
570.08	2307.49
570.43	2307.39
570.78	2306.73
571.14	2305.11
571.49	2303.85
571.84	2303.65
572.20	2302.45
572.55	2301.32
572.90	2299.84
573.26	2298.37
573.61	2296.68
573.96	2294.81
574.31	2291.93
574.67	2288.94
575.02	2285.09
575.37	2281.63
575.72	2277.75
576.08	2274.38
576.43	2270.97
576.78	2267.03
577.13	2263.76
577.49	2260.59
577.84	2257.14
578.19	2253.24
578.54	2249.54
578.90	2245.16
579.25	2239.57
579.60	2234.65
579.95	2229.67
580.30	2224.54
580.66	2219.27
581.01	2214.21
581.36	2209.18
581.71	2204.86
582.06	2200.34
582.42	2195.89
582.77	2190.52
583.12	2185.89
583.47	2181.01
583.82	2175.90
584.17	2170.72
584.53	2165.13
584.88	2159.39
585.23	2153.50
585.58	2148.06
585.93	2142.44
586.28	2137.68
586.63	2132.44
586.98	2127.23
587.34	2122.56
587.69	2117.68
588.04	2112.36
588.39	2106.61
588.74	2100.16
589.09	2094.01
589.44	2087.03
589.79	2080.96
590.14	2075.37
590.49	2068.82
590.84	2062.59
591.19	2056.56
591.54	2049.93
591.89	2042.46
592.25	2035.81
592.60	2028.57
592.95	2021.02
593.30	2013.81
593.65	2006.01
594.00	1998.95
594.35	1991.72
594.70	1983.58
595.05	1976.13
595.40	1968.86
595.75	1961.39
596.10	1955.05
596.45	1948.20
596.80	1942.14
597.15	1935.38
597.50	1928.16
597.85	1921.73
598.19	1915.01
598.54	1907.86
598.89	1901.18
599.24	1895.35
599.59	1888.53
599.94	1882.34
600.29	1875.85
600.64	1869.18
600.99	1861.88
601.34	1855.01
601.69	1847.95
602.04	1840.92
602.39	1833.74
602.74	1826.88
603.08	1820.15
603.43	1813.42
603.78	1806.12
604.13	1798.90
604.48	1791.71
604.83	1784.91
605.18	1777.81
605.53	1769.69
605.87	1761.71
606.22	1754.58
606.57	1746.63
606.92	1739.23
607.27	1732.00
607.62	1725.09
607.96	1717.71
608.31	1711.03
608.66	1703.41
609.01	1695.92
609.36	1688.29
609.70	1680.20
610.05	1672.07
610.40	1664.27
610.75	1655.99
611.10	1648.22
611.44	1639.75
611.79	1631.67
612.14	1622.87
612.49	1613.72
612.83	1605.42
613.18	1597.23
613.53	1588.99
613.88	1580.43
614.22	1572.19
614.57	1563.66
614.92	1555.55
615.27	1547.98
615.61	1539.63
615.96	1531.53
616.31	1523.86
616.65	1516.57
617.00	1508.93
617.35	1501.32
617.70	1492.92
618.04	1484.41
618.39	1476.33
618.74	1468.70
619.08	1460.37
619.43	1452.85
619.78	1445.93
620.12	1438.61
620.47	1430.97
620.82	1422.84
621.16	1415.36
621.51	1407.78
621.85	1400.10
622.20	1391.64
622.55	1383.30
622.89	1375.40
623.24	1367.81
623.59	1360.41
623.93	1352.95
624.28	1345.77
624.62	1338.20
624.97	1331.06
625.32	1324.35
625.66	1317.27
626.01	1310.07
626.35	1302.67
626.70	1294.95
627.04	1287.12
627.39	1279.39
627.73	1272.05
628.08	1265.05
628.43	1257.76
628.77	1250.27
629.12	1242.67
629.46	1235.42
629.81	1227.94
630.15	1220.73
630.50	1213.33
630.84	1205.15
631.19	1197.17
631.53	1189.58
631.88	1182.02
632.22	1174.45
632.57	1167.12
632.91	1159.56
633.26	1152.13
633.60	1144.73
633.95	1137.67
634.29	1130.64
634.64	1124.03
634.98	1116.67
635.32	1109.61
635.67	1103.08
636.01	1096.40
636.36	1089.63
636.70	1083.10
637.05	1076.56
637.39	1070.15
637.73	1063.59
638.08	1057.67
638.42	1051.80
638.77	1045.36
639.11	1038.80
639.45	1032.32
639.80	1025.67
640.14	1019.21
640.49	1012.70
640.83	1006.37
641.17	1000.02
641.52	993.73
641.86	987.20
642.20	981.34
642.55	975.06
642.89	968.51
643.23	962.03
643.58	956.21
643.92	950.10
644.26	944.03
644.61	937.97
644.95	931.95
645.29	925.35
645.64	918.49
645.98	912.15
646.32	906.31
646.66	900.43
647.01	894.59
647.35	888.94
647.69	883.12
648.04	877.64
648.38	871.91
648.72	865.90
649.06	859.91
649.41	854.06
649.75	848.02
650.09	842.09
650.43	836.19
650.78	830.03
651.12	824.06
651.46	818.34
651.80	812.56
652.14	807.19
652.49	801.90
652.83	796.70
653.17	791.00
653.51	785.26
653.85	779.79
654.20	774.12
654.54	768.16
654.88	762.42
655.22	756.48
655.56	750.76
655.90	745.33
656.25	740.07
656.59	734.69
656.93	729.57
657.27	724.43
657.61	719.09
657.95	713.98
658.29	708.83
658.64	703.58
658.98	698.30
659.32	692.80
659.66	687.57
660.00	682.28
660.34	677.33
660.68	672.36
661.02	667.30
661.36	662.64
661.70	658.06
662.05	653.67
662.39	649.40
662.73	644.90
663.07	640.54
663.41	636.05
663.75	631.57
664.09	627.08
664.43	622.69
664.77	618.56
665.11	614.34
665.45	610.29
665.79	606.24
666.13	602.08
666.47	597.98
666.81	593.75
667.15	589.61
667.49	585.71
667.83	581.97
668.17	578.03
668.51	573.92
668.85	569.89
669.19	566.10
669.53	562.20
669.87	558.28
670.21	554.57
670.55	551.00
670.89	547.51
671.23	544.10
671.57	540.61
671.91	537.09
672.25	533.60
672.58	530.05
672.92	526.64
673.26	523.47
673.60	520.41
673.94	517.33
674.28	514.49
674.62	511.58
674.96	508.46
675.30	505.56
675.64	502.66
675.97	499.93
676.31	497.02
676.65	494.14
676.99	491.48
677.33	488.63
677.67	485.74
678.01	482.71
678.34	479.68
678.68	476.82
679.02	474.00
679.36	471.27
679.70	468.57
680.04	465.84
680.37	462.93
680.71	460.13
681.05	457.55
681.39	454.84
681.73	452.23
682.06	449.73
682.40	447.21
682.74	444.71
683.08	442.15
683.42	439.59
683.75	437.09
684.09	434.54
684.43	432.09
684.77	429.66
685.10	427.38
685.44	425.10
685.78	422.79
686.12	420.56
686.45	418.26
686.79	415.98
687.13	413.76
687.46	411.66
687.80	409.49
688.14	407.24
688.48	405.16
688.81	402.88
689.15	400.69
689.49	398.53
689.82	396.46
690.16	394.36
690.50	392.39
690.83	390.42
691.17	388.53
691.51	386.58
691.84	384.76
692.18	382.80
692.52	380.83
692.85	378.94
693.19	377.08
693.52	375.27
693.86	373.48
694.20	371.70
694.53	369.92
694.87	368.10
695.21	366.36
695.54	364.58
695.88	362.91
696.21	361.27
696.55	359.60
696.88	357.91
697.22	356.28
697.56	354.64
697.89	353.01
698.23	351.40
698.56	349.81
698.90	348.22
699.23	346.62
699.57	345.10
699.90	343.51
700.24	341.91
700.58	340.37
700.91	338.83
701.25	337.37
701.58	335.98
701.92	334.60
702.25	333.19
702.59	331.76
702.92	330.39
703.26	329.05
703.59	327.79
703.93	326.57
704.26	325.32
704.60	324.06
704.93	322.76
705.26	321.45
705.60	320.25
705.93	319.07
706.27	318.00
706.60	316.90
706.94	315.82
707.27	314.76
707.61	313.69
707.94	312.69
708.27	311.60
708.61	310.52
708.94	309.49
709.28	308.50
709.61	307.54
709.94	306.61
710.28	305.58
710.61	304.54
710.95	303.45
711.28	302.52
711.61	301.60
711.95	300.68
712.28	299.77
712.61	298.76
712.95	297.83
713.28	296.92
713.61	296.03
713.95	295.11
714.28	294.20
714.61	293.33
714.95	292.46
715.28	291.66
715.61	290.77
715.95	289.93
716.28	289.07
716.61	288.24
716.95	287.41
717.28	286.64
717.61	285.90
717.94	285.18
718.28	284.37
718.61	283.64
718.94	282.95
719.27	282.27
719.61	281.65
719.94	280.99
720.27	280.28
720.60	279.60
720.94	279.02
721.27	278.45
721.60	277.89
721.93	277.31
722.27	276.71
722.60	276.20
722.93	275.64
723.26	275.14
723.59	274.62
723.93	274.04
724.26	273.51
724.59	272.97
724.92	272.46
725.25	271.99
725.59	271.45
725.92	270.96
726.25	270.45
726.58	269.98
726.91	269.47
727.24	268.99
727.57	268.58
727.91	268.06
728.24	267.60
728.57	267.09
728.90	266.64
729.23	266.18
729.56	265.72
729.89	265.29
730.22	264.81
730.55	264.34
730.89	263.94
731.22	263.51
731.55	263.09
731.88	262.70
732.21	262.28
732.54	261.87
732.87	261.46
733.20	261.09
733.53	260.73
733.86	260.40
734.19	260.06
734.52	259.70
734.85	259.40
735.18	258.98
735.51	258.66
735.84	258.29
736.17	257.97
736.50	257.55
736.83	257.33
737.16	256.99
737.49	256.66
737.82	256.32
738.15	256.00
738.48	255.66
738.81	255.35
739.14	255.03
739.47	254.69
739.80	254.39
740.13	254.07
740.46	253.72
740.79	253.36
741.12	253.06
741.45	252.73
741.78	252.36
742.11	252.09
742.44	251.75
742.77	251.43
743.10	251.09
743.43	250.81
743.75	250.37
744.08	250.21
744.41	249.94
744.74	249.66
745.07	249.37
745.40	249.12
745.73	248.83
746.06	248.55
746.39	248.30
746.71	248.01
747.04	247.72
747.37	247.46
747.70	247.21
748.03	246.93
748.36	246.70
748.68	246.45
749.01	246.16
749.34	245.89
749.67	245.66
750.00	245.43
750.33	245.29
750.65	245.08
750.98	244.73
751.31	244.47
751.64	244.25
751.97	244.10
752.29	243.86
752.62	243.58
752.95	243.37
753.28	243.14
753.60	242.93
753.93	242.77
754.26	242.55
754.59	242.34
754.91	242.14
755.24	241.95
755.57	241.75
755.90	241.62
756.22	241.47
756.55	241.25
756.88	241.07
757.20	240.84
757.53	240.69
757.86	240.49
758.19	240.36
758.51	240.19
758.84	239.95
759.17	239.77
759.49	239.65
759.82	239.52
760.15	239.39
760.47	239.25
760.80	239.08
761.13	239.01
761.45	238.85
761.78	238.71
762.11	238.53
762.43	238.39
762.76	238.22
763.08	238.13
763.41	238.04
763.74	237.91
764.06	237.77
764.39	237.61
764.71	237.52
765.04	237.38
765.37	237.27
765.69	237.14
766.02	237.08
766.34	236.94
766.67	236.79
767.00	236.69
767.32	236.58
767.65	236.52
767.97	236.35
768.30	236.25
768.62	236.17
768.95	236.06
769.27	235.96
769.60	235.89
769.92	235.77
770.25	235.65
770.57	235.55
770.90	235.44
771.22	235.34
771.55	235.24
771.87	235.17
772.20	235.06
772.52	235.09
772.85	235.09
773.17	235.02
773.50	234.92
773.82	234.85
774.15	234.74
774.47	234.59
774.80	234.52
775.12	234.42
775.45	234.33
775.77	234.26
776.09	234.18
776.42	234.07
776.74	234.00
777.07	233.92
777.39	233.86
777.72	233.80
778.04	233.70
778.36	233.64
778.69	233.57
779.01	233.50
779.33	233.30
779.66	233.10
779.98	233.03
780.31	232.96
780.63	232.89
780.95	232.84
781.28	232.79
781.60	232.71
781.92	232.64
782.25	232.56
782.57	232.51
782.89	232.46
783.22	232.42
783.54	232.35
783.86	232.28
784.19	232.20
784.51	232.15
784.83	232.11
785.16	232.06
785.48	232.00
785.80	231.95
786.12	231.93
786.45	231.91
786.77	231.88
787.09	231.83
787.42	231.79
787.74	231.76
788.06	231.69
788.38	231.67
788.71	231.60
789.03	231.52
789.35	231.47
789.67	231.39
789.99	231.35
790.32	231.31
790.64	231.29
790.96	231.31
791.28	231.24
791.61	231.17
791.93	231.12
792.25	231.03
792.57	231.05
792.89	230.99
793.21	230.92
793.54	230.84
793.86	230.79
794.18	230.74
794.50	230.66
794.82	230.59
795.14	230.53
795.47	230.52
795.79	230.51
796.11	230.44
796.43	230.42
796.75	230.39
797.07	230.37
797.39	230.31
797.71	230.20
798.04	230.16
798.36	230.16
798.68	230.09
799.00	230.10
799.32	230.03
799.64	230.01
799.96	229.98
800.28	230.00
800.60	229.93
800.92	229.89
801.24	229.88
801.56	229.87
801.89	229.87
802.21	229.87
802.53	229.85
802.85	229.85
803.17	229.89
803.49	229.81
803.81	229.77
804.13	229.74
804.45	229.70
804.77	229.71
805.09	229.72
805.41	229.70
805.73	229.64
806.05	229.56
806.37	229.57
806.69	229.54
807.01	229.47
807.33	229.49
807.65	229.48
807.97	229.49
808.28	229.47
808.60	229.45
808.92	229.42
809.24	229.47
809.56	229.45
809.88	229.38
810.20	229.41
810.52	229.42
810.84	229.39
811.16	229.37
811.48	229.31
811.80	229.29
812.12	229.27
812.43	229.30
812.75	229.33
813.07	229.26
813.39	229.24
813.71	229.23
814.03	229.18
814.35	229.14
814.67	229.11
814.98	229.06
815.30	229.03
815.62	228.98
815.94	228.93
816.26	228.97
816.58	228.93
816.89	228.89
817.21	228.83
817.53	228.84
817.85	228.82
818.17	228.83
818.48	228.79
818.80	228.79
819.12	228.76
819.44	228.72
819.76	228.71
820.07	228.72
820.39	228.70
820.71	228.71
821.03	228.71
821.34	228.66
821.66	228.66
821.98	228.64
822.30	228.66
822.61	228.70
822.93	228.61
823.25	228.61
823.57	228.58
823.88	228.58
824.20	228.59
824.52	228.62
824.83	228.60
825.15	228.55
825.47	228.53
825.79	228.53
826.10	228.53
826.42	228.51
826.74	228.50
827.05	228.47
827.37	228.47
827.69	228.43
828.00	228.42
828.32	228.40
828.64	228.35
828.95	228.38
829.27	228.32
829.58	228.31
829.90	228.29
830.22	228.27
830.53	228.24
830.85	228.16
831.17	228.12
831.48	228.11
831.80	228.11
832.11	228.12
832.43	228.07
832.75	228.02
833.06	228.09
833.38	228.05
833.69	228.05
834.01	228.04
834.32	228.05
834.64	228.04
834.96	228.05
835.27	228.04
835.59	227.98
835.90	227.94
836.22	227.90
836.53	227.89
836.85	227.86
837.16	227.95
837.48	227.95
837.79	227.95
838.11	227.94
838.42	227.96
838.74	227.93
839.05	227.92
839.37	227.92
839.68	227.83
840.00	227.83
840.31	227.86
840.63	227.85
840.94	227.82
841.26	227.80
841.57	227.75
841.88	227.76
842.20	227.71
842.51	227.69
842.83	227.71
843.14	227.78
843.46	227.79
843.77	227.71
844.08	227.71
844.40	227.66
844.71	227.63
845.03	227.61
845.34	227.59
845.65	227.60
845.97	227.61
846.28	227.59
846.60	227.58
846.91	227.53
847.22	227.50
847.54	227.53
847.85	227.53
848.16	227.54
848.48	227.53
848.79	227.59
849.10	227.61
849.42	227.60
849.73	227.51
850.04	227.51
850.36	227.48
850.67	227.49
850.98	227.51
851.30	227.53
851.61	227.49
851.92	227.50
852.23	227.53
852.55	227.51
852.86	227.52
853.17	227.50
853.49	227.52
853.80	227.53
854.11	227.50
854.42	227.53
854.74	227.51
855.05	227.49
855.36	227.44
855.67	227.44
855.99	227.45
856.30	227.52
856.61	227.52
856.92	227.52
857.23	227.50
857.55	227.47
857.86	227.47
858.17	227.48
858.48	227.46
858.79	227.43
859.11	227.47
859.42	227.44
859.73	227.44
860.04	227.44
860.35	227.41
860.66	227.39
860.98	227.37
861.29	227.40
861.60	227.41
861.91	227.43
862.22	227.40
862.53	227.37
862.84	227.27
863.16	227.28
863.47	227.31
863.78	227.32
864.09	227.32
864.40	227.35
864.71	227.39
865.02	227.37
865.33	227.37
865.64	227.37
865.95	227.39
866.27	227.47
866.58	227.46
866.89	227.48
867.20	227.47
867.51	227.45
867.82	227.42
868.13	227.43
868.44	227.42
868.75	227.45
869.06	227.46
869.37	227.52
869.68	227.50
869.99	227.48
870.30	227.51
870.61	227.55
870.92	227.52
871.23	227.52
871.54	227.56
871.85	227.57
872.16	227.52
872.47	227.53
872.78	227.47
873.09	227.46
873.40	227.47
873.71	227.49
874.02	227.49
874.33	227.50
874.64	227.49
874.95	227.48
875.26	227.46
875.56	227.45
875.87	227.41
876.18	227.39
876.49	227.48
876.80	227.44
877.11	227.39
877.42	227.40
877.73	227.38
878.04	227.36
878.35	227.34
878.66	227.35
878.96	227.33
879.27	227.29
879.58	227.30
879.89	227.27
880.20	227.30
880.51	227.33
880.82	227.35
881.12	227.35
881.43	227.35
881.74	227.34
882.05	227.37
882.36	227.39
882.67	227.37
882.97	227.27
883.28	227.26
883.59	227.27
883.90	227.25
884.21	227.26
884.51	227.26
884.82	227.25
885.13	227.25
885.44	227.25
885.74	227.27
886.05	227.26
886.36	227.24
886.67	227.20
886.98	227.25
887.28	227.22
887.59	227.19
887.90	227.19
888.20	227.18
888.51	227.15
888.82	227.11
889.13	227.13
889.43	227.19
889.74	227.17
890.05	227.14
890.35	227.15
890.66	227.14
890.97	227.11
891.28	227.10
891.58	227.11
891.89	227.12
892.20	227.10
892.50	227.09
892.81	227.09
893.12	227.05
893.42	226.95
893.73	226.96
894.04	226.97
894.34	226.97
894.65	226.97
894.95	226.97
895.26	226.98
895.57	227.02
895.87	226.94
896.18	226.99
896.48	227.00
896.79	227.01
897.10	227.02
897.40	227.02
897.71	227.03
898.01	227.01
898.32	227.02
898.63	227.05
898.93	227.07
899.24	227.09
899.54	227.11
899.85	227.14
900.15	227.13
900.46	227.13
900.76	227.16
901.07	227.20
901.38	227.22
901.68	227.25
901.99	227.19
902.29	227.22
902.60	227.21
902.90	227.24
903.21	227.21
903.51	227.20
903.82	227.26
904.12	227.28
904.43	227.28
904.73	227.26
905.03	227.22
905.34	227.32
905.64	227.34
905.95	227.37
906.25	227.38
906.56	227.36
906.86	227.34
907.17	227.33
907.47	227.32
907.77	227.29
908.08	227.27
908.38	227.31
908.69	227.30
908.99	227.33
909.30	227.29
909.60	227.32
909.90	227.33
910.21	227.29
910.51	227.29
910.81	227.30
911.12	227.34
911.42	227.38
911.73	227.24
912.03	227.22
912.33	227.24
912.64	227.25
912.94	227.25
913.24	227.28
913.55	227.26
913.85	227.26
914.15	227.27
914.46	227.29
914.76	227.25
915.06	227.26
915.37	227.23
915.67	227.24
915.97	227.23
916.27	227.18
916.58	227.19
916.88	227.18
917.18	227.17
917.49	227.19
917.79	227.16
918.09	227.21
918.39	227.22
918.70	227.20
919.00	227.19
919.30	227.23
919.60	227.22
919.91	227.18
920.21	227.17
920.51	227.15
920.81	227.14
921.12	227.16
921.42	227.13
921.72	227.13
922.02	227.14
922.32	227.16
922.63	227.16
922.93	227.17
923.23	227.16
923.53	227.14
923.83	227.08
924.13	227.11
924.44	227.10
924.74	227.10
925.04	227.06
925.34	227.03
925.64	226.98
925.94	226.95
926.24	227.01
926.55	227.00
926.85	227.02
927.15	226.98
927.45	226.97
927.75	226.98
928.05	226.98
928.35	226.96
928.65	226.95
928.95	226.95
929.26	226.93
929.56	226.96
929.86	226.97
930.16	226.92
930.46	226.91
930.76	226.88
931.06	226.86
931.36	226.87
931.66	226.90
931.96	226.93
932.26	226.95
932.56	226.94
932.86	226.90
933.16	226.89
933.46	226.90
933.76	226.86
934.06	226.90
934.36	226.89
934.66	226.89
934.96	226.86
935.26	226.86
935.56	226.86
935.86	226.81
936.16	226.79
936.46	226.82
936.76	226.80
937.06	226.82
937.36	226.83
937.66	226.80
937.96	226.82
938.26	226.79
938.56	226.80
938.86	226.77
939.16	226.83
939.46	226.85
939.76	226.84
940.06	226.85
940.35	226.84
940.65	226.82
940.95	226.82
941.25	226.83
941.55	226.86
941.85	226.86
942.15	226.90
942.45	226.95
942.75	226.95
943.04	226.97
943.34	226.98
943.64	226.97
943.94	227.00
944.24	226.97
944.54	227.02
944.84	227.03
945.13	227.02
945.43	227.03
945.73	227.03
946.03	227.03
946.33	227.06
946.62	227.03
946.92	227.02
947.22	227.06
947.52	227.06
947.82	227.09
948.11	227.07
948.41	227.03
948.71	226.99
949.01	227.04
949.31	227.02
949.60	227.02
949.90	227.02
950.20	226.98
950.50	227.01
950.79	226.98
951.09	227.00
951.39	226.99
951.69	226.98
951.98	227.00
952.28	227.00
952.58	226.96
952.87	226.94
953.17	226.96
953.47	226.94
953.76	226.92
954.06	226.89
954.36	226.86
954.66	226.88
954.95	226.90
955.25	226.86
955.55	226.88
955.84	226.87
956.14	226.90
956.44	226.94
956.73	226.92
957.03	226.90
957.32	226.86
957.62	226.86
957.92	226.86
958.21	226.82
958.51	226.93
958.81	226.96
959.10	226.96
959.40	226.99
959.69	226.99
959.99	227.03
960.29	227.03
960.58	227.01
960.88	227.06
961.17	227.05
961.47	227.04
961.76	227.02
962.06	227.03
962.36	226.99
962.65	226.99
962.95	226.98
963.24	226.97
963.54	226.96
963.83	226.96
964.13	226.96
964.42	226.98
964.72	226.90
965.01	226.90
965.31	226.91
965.60	226.87
965.90	226.91
966.19	226.86
966.49	226.86
966.78	226.88
967.08	226.89
967.37	226.91
967.67	226.87
967.96	226.88
968.26	226.87
968.55	226.88
968.85	226.85
969.14	226.89
969.43	226.91
969.73	226.93
970.02	226.92
970.32	226.90
970.61	226.85
970.91	226.86
971.20	226.84
971.49	226.83
971.79	226.86
972.08	226.82
972.38	226.85
972.67	226.85
972.96	226.86
973.26	226.80
973.55	226.81
973.85	226.85
974.14	226.86
974.43	226.89
974.73	226.89
975.02	226.87
975.31	226.82
975.61	226.81
975.90	226.81
976.19	226.83
976.49	226.87
976.78	226.90
977.07	226.90
977.37	226.91
977.66	226.94
977.95	226.91
978.24	226.89
978.54	226.90
978.83	226.89
979.12	226.90
979.42	226.91
979.71	226.88
980.00	226.84
980.29	226.83
980.59	226.82
980.88	226.84
981.17	226.90
981.46	226.91
981.76	226.88
982.05	226.91
982.34	226.90
982.63	226.89
982.93	226.87
983.22	226.90
983.51	226.88
983.80	226.86
984.09	226.90
984.39	226.90
984.68	226.87
984.97	226.84
985.26	226.83
985.55	226.86
985.85	226.82
986.14	226.87
986.43	226.89
986.72	226.89
987.01	226.86
987.30	226.83
987.59	226.83
987.89	226.83
988.18	226.79
988.47	226.76
988.76	226.73
989.05	226.72
989.34	226.68
989.63	226.72
989.92	226.73
990.22	226.67
990.51	226.65
990.80	226.67
991.09	226.71
991.38	226.70
991.67	226.69
991.96	226.67
992.25	226.64
992.54	226.59
992.83	226.57
993.12	226.55
993.41	226.56
993.70	226.59
993.99	226.61
994.28	226.64
994.58	226.65
994.87	226.65
995.16	226.66
995.45	226.63
995.74	226.57
996.03	226.59
996.32	226.60
996.61	226.59
996.90	226.54
997.19	226.52
997.48	226.53
997.77	226.52
998.06	226.53
998.34	226.55
998.63	226.55
998.92	226.52
999.21	226.54
999.50	226.54
999.79	226.49
1000.08	226.48
1000.37	226.48
1000.66	226.49
1000.95	226.52
1001.24	226.52
1001.53	226.56
1001.82	226.58
1002.11	226.52
1002.40	226.58
1002.68	226.64
1002.97	226.74
1003.26	226.74
1003.55	226.72
1003.84	226.71
1004.13	226.80
1004.42	226.74
1004.71	226.73
1004.99	226.75
1005.28	226.76
1005.57	226.76
1005.86	226.79
1006.15	226.81
1006.44	226.79
1006.72	226.80
1007.01	226.77
1007.30	226.77
1007.59	226.69
1007.88	226.69
1008.17	226.73
1008.45	226.69
1008.74	226.63
1009.03	226.57
1009.32	226.58
1009.60	226.58
1009.89	226.60
1010.18	226.51
1010.47	226.56
1010.76	226.56
1011.04	226.55
1011.33	226.55
1011.62	226.56
1011.91	226.56
1012.19	226.53
1012.48	226.54
1012.77	226.54
1013.05	226.60
1013.34	226.58
1013.63	226.64
1013.92	226.68
1014.20	226.68
1014.49	226.68
1014.78	226.70
1015.06	226.68
1015.35	226.71
1015.64	226.69
1015.92	226.73
1016.21	226.75
1016.50	226.74
1016.78	226.79
1017.07	226.83
1017.36	226.83
1017.64	226.80
1017.93	226.81
1018.22	226.81
1018.50	226.80
1018.79	226.81
1019.08	226.73
1019.36	226.77
1019.65	226.72
1019.93	226.71
1020.22	226.70
1020.51	226.74
1020.79	226.76
1021.08	226.29
1021.36	226.62
1021.65	227.07
1021.94	226.14
1022.22	226.90
1022.51	226.00
1022.79	227.15
1023.08	226.69
1023.36	227.52
1023.65	226.89
>>>>>End Processed Spectral Data<<<<<
