SpectraSuite Data File
++++++++++++++++++++++++++++++++++++
Date: Fri Feb 01 15:02:22 EST 2013
User: group
Dark Spectrum Present: No
Reference Spectrum Present: No
Number of Sampled Component Spectra: 1
Spectrometers: USB2E7196
Integration Time (usec): 35000 (USB2E7196)
Spectra Averaged: 100 (USB2E7196)
Boxcar Smoothing: 10 (USB2E7196)
Correct for Electrical Dark: No (USB2E7196)
Strobe/Lamp Enabled: No (USB2E7196)
Correct for Detector Non-linearity: No (USB2E7196)
Correct for Stray Light: No (USB2E7196)
Number of Pixels in Processed Spectrum: 2048
>>>>>Begin Processed Spectral Data<<<<<
339.09	0.00
339.48	215.48
339.86	216.46
340.24	217.66
340.63	219.45
341.01	222.24
341.39	221.85
341.78	224.04
342.16	224.80
342.54	224.88
342.93	213.44
343.31	224.23
343.69	224.74
344.07	225.22
344.46	225.64
344.84	226.01
345.22	226.26
345.60	226.53
345.99	226.68
346.37	226.80
346.75	226.91
347.13	226.98
347.52	227.01
347.90	227.09
348.28	227.10
348.66	227.12
349.05	227.14
349.43	227.15
349.81	227.21
350.19	227.27
350.57	227.32
350.96	227.40
351.34	227.46
351.72	227.55
352.10	227.60
352.48	227.67
352.87	227.72
353.25	227.74
353.63	227.78
354.01	227.83
354.39	227.90
354.77	227.95
355.15	228.05
355.54	228.09
355.92	228.11
356.30	228.17
356.68	228.28
357.06	228.34
357.44	228.41
357.82	228.45
358.20	228.54
358.58	228.60
358.97	228.64
359.35	228.75
359.73	228.80
360.11	228.86
360.49	228.92
360.87	228.96
361.25	229.02
361.63	229.08
362.01	229.11
362.39	229.13
362.77	229.16
363.15	229.17
363.53	229.24
363.91	229.26
364.29	229.27
364.67	229.22
365.05	229.21
365.43	229.23
365.81	229.25
366.19	229.23
366.57	229.25
366.95	229.24
367.33	229.20
367.71	229.19
368.09	229.19
368.47	229.15
368.85	229.12
369.23	229.13
369.61	229.03
369.99	229.04
370.37	229.05
370.75	229.06
371.13	229.02
371.51	228.93
371.89	228.91
372.27	228.88
372.65	228.83
373.03	228.81
373.41	228.72
373.78	228.67
374.16	228.59
374.54	228.50
374.92	228.44
375.30	228.35
375.68	228.29
376.06	228.24
376.44	228.15
376.82	228.10
377.19	228.00
377.57	227.95
377.95	227.88
378.33	227.76
378.71	227.64
379.09	227.57
379.47	227.51
379.84	227.39
380.22	227.32
380.60	227.25
380.98	227.18
381.36	227.11
381.73	227.03
382.11	226.98
382.49	226.92
382.87	226.86
383.25	226.80
383.62	226.82
384.00	226.75
384.38	226.70
384.76	226.67
385.13	226.67
385.51	226.64
385.89	226.57
386.27	226.52
386.64	226.48
387.02	226.43
387.40	226.39
387.78	226.41
388.15	226.39
388.53	226.34
388.91	226.29
389.29	226.25
389.66	226.24
390.04	226.22
390.42	226.22
390.79	226.21
391.17	226.21
391.55	226.12
391.92	226.11
392.30	226.13
392.68	226.14
393.05	226.13
393.43	226.15
393.81	226.17
394.18	226.16
394.56	226.22
394.94	226.29
395.31	226.34
395.69	226.38
396.06	226.39
396.44	226.44
396.82	226.49
397.19	226.61
397.57	226.65
397.95	226.73
398.32	226.75
398.70	226.82
399.07	226.90
399.45	226.98
399.82	227.05
400.20	227.15
400.58	227.21
400.95	227.28
401.33	227.37
401.70	227.55
402.08	227.67
402.45	227.75
402.83	227.87
403.20	228.01
403.58	228.14
403.95	228.30
404.33	228.48
404.71	228.61
405.08	228.82
405.46	228.96
405.83	229.12
406.21	229.31
406.58	229.51
406.96	229.67
407.33	229.85
407.70	230.05
408.08	230.31
408.45	230.52
408.83	230.74
409.20	230.95
409.58	231.17
409.95	231.44
410.33	231.71
410.70	231.98
411.08	232.25
411.45	232.54
411.82	232.84
412.20	233.18
412.57	233.62
412.95	233.87
413.32	234.31
413.69	234.71
414.07	235.12
414.44	235.55
414.82	236.03
415.19	236.59
415.56	237.15
415.94	237.68
416.31	238.34
416.68	238.99
417.06	239.72
417.43	240.36
417.81	241.12
418.18	241.89
418.55	242.69
418.93	243.53
419.30	244.42
419.67	245.37
420.04	246.27
420.42	247.24
420.79	248.44
421.16	249.55
421.54	250.72
421.91	251.95
422.28	253.21
422.66	254.54
423.03	255.87
423.40	257.23
423.77	258.63
424.15	260.09
424.52	261.56
424.89	263.11
425.26	264.69
425.64	266.12
426.01	267.74
426.38	269.40
426.75	271.08
427.13	272.82
427.50	274.64
427.87	276.54
428.24	278.43
428.61	280.18
428.99	282.12
429.36	284.25
429.73	286.33
430.10	288.38
430.47	290.45
430.85	292.53
431.22	294.78
431.59	297.20
431.96	299.42
432.33	301.91
432.70	304.33
433.08	307.14
433.45	309.83
433.82	312.44
434.19	315.40
434.56	318.25
434.93	320.89
435.30	323.53
435.68	326.42
436.05	329.27
436.42	332.07
436.79	334.61
437.16	337.36
437.53	340.21
437.90	342.99
438.27	345.76
438.64	348.64
439.01	351.25
439.38	353.49
439.75	355.67
440.13	358.21
440.50	360.58
440.87	362.43
441.24	364.39
441.61	366.53
441.98	367.99
442.35	369.77
442.72	371.68
443.09	373.48
443.46	374.52
443.83	375.06
444.20	375.58
444.57	376.44
444.94	376.73
445.31	377.06
445.68	377.46
446.05	377.53
446.42	377.15
446.79	376.70
447.16	376.24
447.53	375.91
447.90	374.76
448.27	373.58
448.64	372.03
449.01	370.92
449.37	368.97
449.74	367.07
450.11	364.83
450.48	362.34
450.85	359.81
451.22	357.67
451.59	355.65
451.96	353.72
452.33	351.11
452.70	348.71
453.07	345.85
453.43	342.91
453.80	340.14
454.17	337.47
454.54	334.92
454.91	332.20
455.28	329.53
455.65	327.01
456.02	324.57
456.38	322.39
456.75	319.66
457.12	317.41
457.49	315.19
457.86	313.07
458.23	311.21
458.59	309.17
458.96	307.07
459.33	305.21
459.70	303.29
460.07	301.74
460.43	299.98
460.80	298.37
461.17	296.92
461.54	295.35
461.91	293.90
462.27	292.40
462.64	291.12
463.01	289.73
463.38	288.40
463.74	287.00
464.11	285.79
464.48	284.81
464.85	283.69
465.21	282.76
465.58	281.76
465.95	280.60
466.32	279.67
466.68	278.71
467.05	277.80
467.42	276.92
467.78	276.02
468.15	275.15
468.52	274.52
468.88	273.63
469.25	272.88
469.62	272.22
469.98	271.62
470.35	270.99
470.72	270.38
471.08	269.74
471.45	269.21
471.82	268.66
472.18	268.00
472.55	267.50
472.92	266.99
473.28	266.51
473.65	266.08
474.02	265.61
474.38	265.26
474.75	264.93
475.11	264.55
475.48	264.22
475.85	263.99
476.21	263.72
476.58	263.53
476.94	263.39
477.31	263.22
477.67	263.04
478.04	262.93
478.41	262.86
478.77	262.91
479.14	262.80
479.50	262.80
479.87	262.89
480.23	262.96
480.60	263.04
480.96	263.16
481.33	263.38
481.69	263.59
482.06	263.79
482.42	263.98
482.79	264.28
483.15	264.64
483.52	264.99
483.88	265.31
484.25	265.72
484.61	266.12
484.98	266.61
485.34	267.16
485.71	267.72
486.07	268.33
486.44	268.89
486.80	269.62
487.17	270.35
487.53	271.15
487.90	271.99
488.26	272.92
488.62	273.88
488.99	274.82
489.35	275.83
489.72	276.96
490.08	278.16
490.44	279.39
490.81	280.68
491.17	282.03
491.54	283.52
491.90	285.01
492.26	286.67
492.63	288.37
492.99	290.16
493.36	292.05
493.72	294.08
494.08	296.15
494.45	298.39
494.81	300.74
495.17	303.13
495.54	305.69
495.90	308.35
496.26	311.14
496.63	314.09
496.99	317.23
497.35	320.46
497.72	323.82
498.08	327.28
498.44	330.92
498.80	334.84
499.17	338.87
499.53	343.08
499.89	347.46
500.26	351.91
500.62	356.50
500.98	361.47
501.34	366.49
501.71	371.77
502.07	377.16
502.43	382.73
502.79	388.58
503.16	394.67
503.52	400.91
503.88	407.31
504.24	413.90
504.60	420.75
504.97	427.84
505.33	435.19
505.69	442.89
506.05	450.64
506.41	458.45
506.78	466.57
507.14	474.97
507.50	483.67
507.86	492.65
508.22	501.82
508.59	510.98
508.95	520.55
509.31	530.32
509.67	540.39
510.03	550.68
510.39	561.16
510.75	571.90
511.12	582.83
511.48	594.08
511.84	605.56
512.20	617.10
512.56	629.00
512.92	641.07
513.28	653.32
513.64	665.84
514.00	678.60
514.37	691.52
514.73	704.62
515.09	717.65
515.45	731.00
515.81	744.64
516.17	758.64
516.53	772.78
516.89	786.98
517.25	801.20
517.61	815.65
517.97	830.17
518.33	844.67
518.69	859.44
519.05	874.52
519.41	889.72
519.77	905.22
520.13	920.75
520.49	936.30
520.85	951.82
521.21	967.55
521.57	983.80
521.93	999.73
522.29	1016.17
522.65	1032.58
523.01	1048.80
523.37	1064.94
523.73	1081.18
524.09	1097.31
524.45	1113.68
524.81	1130.43
525.17	1147.45
525.53	1164.49
525.89	1181.44
526.25	1198.41
526.61	1214.85
526.97	1231.66
527.33	1248.25
527.68	1264.98
528.04	1281.43
528.40	1298.23
528.76	1315.44
529.12	1332.23
529.48	1349.10
529.84	1365.22
530.20	1381.78
530.56	1398.92
530.91	1416.42
531.27	1433.27
531.63	1449.81
531.99	1466.51
532.35	1482.49
532.71	1498.32
533.07	1514.58
533.42	1530.55
533.78	1546.60
534.14	1562.87
534.50	1578.18
534.86	1594.11
535.21	1609.31
535.57	1625.54
535.93	1640.95
536.29	1655.73
536.65	1670.79
537.00	1685.69
537.36	1701.01
537.72	1715.66
538.08	1730.09
538.44	1743.95
538.79	1757.83
539.15	1771.71
539.51	1785.55
539.87	1800.03
540.22	1813.82
540.58	1827.75
540.94	1841.21
541.29	1854.35
541.65	1867.18
542.01	1880.63
542.37	1892.97
542.72	1905.52
543.08	1917.19
543.44	1929.69
543.79	1940.99
544.15	1952.05
544.51	1963.57
544.87	1974.64
545.22	1985.53
545.58	1995.88
545.94	2005.61
546.29	2015.62
546.65	2025.39
547.01	2034.62
547.36	2043.31
547.72	2051.76
548.07	2059.56
548.43	2067.80
548.79	2075.82
549.14	2083.41
549.50	2090.85
549.86	2098.64
550.21	2105.91
550.57	2113.06
550.92	2119.68
551.28	2126.76
551.64	2133.83
551.99	2140.41
552.35	2146.53
552.70	2152.70
553.06	2158.55
553.41	2164.88
553.77	2170.89
554.13	2176.94
554.48	2183.02
554.84	2188.52
555.19	2193.96
555.55	2199.01
555.90	2203.37
556.26	2208.17
556.61	2212.83
556.97	2216.88
557.32	2220.92
557.68	2225.12
558.03	2229.51
558.39	2233.28
558.74	2237.83
559.10	2241.54
559.45	2245.25
559.81	2249.52
560.16	2253.15
560.52	2256.39
560.87	2259.80
561.23	2262.40
561.58	2265.30
561.94	2267.92
562.29	2270.25
562.64	2272.81
563.00	2275.44
563.35	2278.96
563.71	2282.01
564.06	2285.13
564.42	2287.96
564.77	2290.37
565.12	2292.49
565.48	2294.05
565.83	2295.68
566.19	2296.94
566.54	2297.94
566.89	2298.79
567.25	2299.24
567.60	2300.55
567.96	2302.08
568.31	2302.81
568.66	2303.81
569.02	2304.38
569.37	2304.43
569.72	2305.06
570.08	2305.06
570.43	2304.96
570.78	2304.03
571.14	2302.40
571.49	2300.94
571.84	2300.50
572.20	2299.10
572.55	2297.86
572.90	2296.37
573.26	2294.86
573.61	2293.08
573.96	2291.16
574.31	2288.06
574.67	2284.82
575.02	2281.01
575.37	2277.52
575.72	2273.51
576.08	2270.07
576.43	2266.55
576.78	2262.82
577.13	2259.65
577.49	2256.45
577.84	2252.95
578.19	2249.21
578.54	2245.22
578.90	2240.87
579.25	2235.26
579.60	2230.29
579.95	2225.20
580.30	2220.03
580.66	2214.87
581.01	2209.77
581.36	2204.59
581.71	2200.28
582.06	2195.81
582.42	2191.29
582.77	2185.98
583.12	2181.23
583.47	2176.20
583.82	2170.94
584.17	2165.56
584.53	2159.85
584.88	2153.99
585.23	2147.95
585.58	2142.54
585.93	2137.10
586.28	2132.32
586.63	2127.12
586.98	2121.99
587.34	2117.14
587.69	2112.06
588.04	2106.64
588.39	2100.80
588.74	2094.32
589.09	2088.09
589.44	2081.21
589.79	2075.10
590.14	2069.41
590.49	2062.80
590.84	2056.32
591.19	2050.24
591.54	2043.79
591.89	2036.16
592.25	2029.20
592.60	2021.88
592.95	2013.83
593.30	2006.40
593.65	1998.57
594.00	1991.43
594.35	1984.05
594.70	1975.97
595.05	1968.71
595.40	1961.32
595.75	1953.71
596.10	1947.35
596.45	1940.51
596.80	1934.15
597.15	1927.32
597.50	1920.05
597.85	1913.57
598.19	1906.94
598.54	1899.85
598.89	1893.00
599.24	1887.14
599.59	1880.53
599.94	1874.24
600.29	1868.03
600.64	1861.40
600.99	1853.86
601.34	1847.03
601.69	1840.02
602.04	1832.89
602.39	1825.47
602.74	1818.57
603.08	1811.89
603.43	1805.08
603.78	1797.89
604.13	1790.73
604.48	1783.39
604.83	1776.53
605.18	1769.43
605.53	1761.37
605.87	1753.19
606.22	1746.01
606.57	1738.19
606.92	1730.81
607.27	1723.63
607.62	1716.63
607.96	1709.17
608.31	1702.55
608.66	1694.78
609.01	1687.13
609.36	1679.80
609.70	1671.82
610.05	1663.64
610.40	1655.82
610.75	1647.48
611.10	1639.64
611.44	1631.25
611.79	1623.36
612.14	1614.55
612.49	1605.54
612.83	1597.33
613.18	1589.40
613.53	1581.38
613.88	1572.74
614.22	1564.51
614.57	1556.04
614.92	1548.02
615.27	1540.49
615.61	1532.20
615.96	1524.31
616.31	1516.75
616.65	1509.34
617.00	1501.81
617.35	1494.30
617.70	1485.98
618.04	1477.59
618.39	1469.41
618.74	1461.80
619.08	1453.56
619.43	1446.14
619.78	1439.17
620.12	1431.95
620.47	1424.32
620.82	1416.07
621.16	1408.73
621.51	1401.19
621.85	1393.60
622.20	1385.07
622.55	1376.89
622.89	1369.13
623.24	1361.59
623.59	1354.29
623.93	1346.90
624.28	1339.66
624.62	1332.22
624.97	1325.13
625.32	1318.45
625.66	1311.55
626.01	1304.38
626.35	1296.94
626.70	1289.27
627.04	1281.52
627.39	1273.82
627.73	1266.57
628.08	1259.77
628.43	1252.43
628.77	1245.03
629.12	1237.38
629.46	1230.31
629.81	1222.99
630.15	1215.80
630.50	1208.35
630.84	1200.16
631.19	1192.25
631.53	1184.95
631.88	1177.38
632.22	1169.83
632.57	1162.57
632.91	1155.01
633.26	1147.71
633.60	1140.48
633.95	1133.35
634.29	1126.42
634.64	1119.73
634.98	1112.42
635.32	1105.30
635.67	1098.84
636.01	1092.28
636.36	1085.56
636.70	1079.14
637.05	1072.56
637.39	1066.20
637.73	1059.67
638.08	1053.92
638.42	1047.96
638.77	1041.42
639.11	1034.76
639.45	1028.46
639.80	1021.77
640.14	1015.36
640.49	1008.79
640.83	1002.55
641.17	996.37
641.52	990.08
641.86	983.76
642.20	977.99
642.55	971.68
642.89	965.17
643.23	958.64
643.58	952.85
643.92	946.62
644.26	940.60
644.61	934.51
644.95	928.52
645.29	921.82
645.64	915.08
645.98	908.78
646.32	903.02
646.66	896.91
647.01	891.11
647.35	885.47
647.69	879.77
648.04	874.17
648.38	868.44
648.72	862.41
649.06	856.28
649.41	850.38
649.75	844.48
650.09	838.55
650.43	832.72
650.78	826.62
651.12	820.80
651.46	814.97
651.80	809.22
652.14	803.87
652.49	798.58
652.83	793.48
653.17	787.75
653.51	781.99
653.85	776.68
654.20	771.11
654.54	765.15
654.88	759.43
655.22	753.59
655.56	747.91
655.90	742.53
656.25	737.36
656.59	732.05
656.93	726.97
657.27	721.75
657.61	716.38
657.95	711.31
658.29	706.13
658.64	701.05
658.98	695.77
659.32	690.41
659.66	685.23
660.00	679.83
660.34	674.97
660.68	670.20
661.02	665.21
661.36	660.55
661.70	656.10
662.05	651.78
662.39	647.43
662.73	643.01
663.07	638.73
663.41	634.24
663.75	629.74
664.09	625.23
664.43	621.00
664.77	616.95
665.11	612.74
665.45	608.71
665.79	604.64
666.13	600.56
666.47	596.47
666.81	592.30
667.15	588.30
667.49	584.46
667.83	580.71
668.17	576.79
668.51	572.76
668.85	568.71
669.19	564.88
669.53	561.05
669.87	557.21
670.21	553.49
670.55	549.94
670.89	546.52
671.23	543.16
671.57	539.64
671.91	536.13
672.25	532.72
672.58	529.28
672.92	525.96
673.26	522.85
673.60	519.71
673.94	516.67
674.28	513.72
674.62	510.76
674.96	507.66
675.30	504.73
675.64	501.85
675.97	499.15
676.31	496.25
676.65	493.40
676.99	490.71
677.33	487.88
677.67	485.03
678.01	482.00
678.34	478.96
678.68	476.12
679.02	473.35
679.36	470.53
679.70	467.76
680.04	464.96
680.37	462.09
680.71	459.30
681.05	456.68
681.39	454.03
681.73	451.41
682.06	448.85
682.40	446.34
682.74	443.77
683.08	441.23
683.42	438.71
683.75	436.17
684.09	433.58
684.43	431.14
684.77	428.70
685.10	426.36
685.44	424.12
685.78	421.84
686.12	419.58
686.45	417.28
686.79	414.99
687.13	412.79
687.46	410.65
687.80	408.50
688.14	406.30
688.48	404.29
688.81	402.03
689.15	399.90
689.49	397.80
689.82	395.74
690.16	393.63
690.50	391.62
690.83	389.72
691.17	387.77
691.51	385.78
691.84	383.95
692.18	382.01
692.52	379.99
692.85	378.07
693.19	376.18
693.52	374.49
693.86	372.72
694.20	370.97
694.53	369.15
694.87	367.34
695.21	365.58
695.54	363.72
695.88	362.03
696.21	360.32
696.55	358.66
696.88	357.00
697.22	355.40
697.56	353.80
697.89	352.15
698.23	350.54
698.56	349.01
698.90	347.42
699.23	345.82
699.57	344.30
699.90	342.81
700.24	341.32
700.58	339.75
700.91	338.29
701.25	336.84
701.58	335.51
701.92	334.18
702.25	332.87
702.59	331.52
702.92	330.18
703.26	328.90
703.59	327.60
703.93	326.45
704.26	325.24
704.60	323.97
704.93	322.78
705.26	321.61
705.60	320.49
705.93	319.37
706.27	318.34
706.60	317.32
706.94	316.25
707.27	315.12
707.61	314.07
707.94	313.07
708.27	311.99
708.61	310.93
708.94	309.95
709.28	308.95
709.61	308.04
709.94	307.13
710.28	306.10
710.61	305.16
710.95	304.06
711.28	303.14
711.61	302.19
711.95	301.25
712.28	300.32
712.61	299.31
712.95	298.40
713.28	297.53
713.61	296.62
713.95	295.72
714.28	294.88
714.61	294.02
714.95	293.13
715.28	292.29
715.61	291.39
715.95	290.55
716.28	289.66
716.61	288.80
716.95	287.98
717.28	287.27
717.61	286.48
717.94	285.77
718.28	284.93
718.61	284.22
718.94	283.49
719.27	282.78
719.61	282.12
719.94	281.38
720.27	280.67
720.60	280.00
720.94	279.33
721.27	278.72
721.60	278.12
721.93	277.55
722.27	277.00
722.60	276.43
722.93	275.85
723.26	275.37
723.59	274.80
723.93	274.25
724.26	273.69
724.59	273.14
724.92	272.57
725.25	272.10
725.59	271.55
725.92	271.06
726.25	270.54
726.58	270.09
726.91	269.63
727.24	269.13
727.57	268.66
727.91	268.18
728.24	267.70
728.57	267.19
728.90	266.73
729.23	266.20
729.56	265.80
729.89	265.27
730.22	264.75
730.55	264.24
730.89	263.77
731.22	263.32
731.55	262.90
731.88	262.47
732.21	262.00
732.54	261.57
732.87	261.15
733.20	260.73
733.53	260.30
733.86	259.91
734.19	259.54
734.52	259.18
734.85	258.87
735.18	258.47
735.51	258.15
735.84	257.77
736.17	257.45
736.50	257.00
736.83	256.79
737.16	256.48
737.49	256.18
737.82	255.84
738.15	255.49
738.48	255.14
738.81	254.82
739.14	254.54
739.47	254.20
739.80	253.91
740.13	253.63
740.46	253.32
740.79	253.01
741.12	252.69
741.45	252.39
741.78	252.01
742.11	251.73
742.44	251.38
742.77	251.07
743.10	250.78
743.43	250.53
743.75	250.16
744.08	250.01
744.41	249.76
744.74	249.52
745.07	249.26
745.40	249.04
745.73	248.85
746.06	248.55
746.39	248.32
746.71	248.07
747.04	247.81
747.37	247.61
747.70	247.37
748.03	247.14
748.36	246.89
748.68	246.71
749.01	246.48
749.34	246.28
749.67	246.07
750.00	245.87
750.33	245.72
750.65	245.54
750.98	245.22
751.31	245.01
751.64	244.81
751.97	244.69
752.29	244.46
752.62	244.23
752.95	244.04
753.28	243.85
753.60	243.63
753.93	243.50
754.26	243.29
754.59	243.09
754.91	242.90
755.24	242.70
755.57	242.50
755.90	242.32
756.22	242.13
756.55	241.97
756.88	241.79
757.20	241.54
757.53	241.34
757.86	241.20
758.19	241.04
758.51	240.88
758.84	240.64
759.17	240.49
759.49	240.32
759.82	240.20
760.15	240.06
760.47	239.91
760.80	239.71
761.13	239.55
761.45	239.42
761.78	239.26
762.11	239.14
762.43	239.02
762.76	238.88
763.08	238.78
763.41	238.62
763.74	238.47
764.06	238.37
764.39	238.25
764.71	238.09
765.04	237.96
765.37	237.84
765.69	237.72
766.02	237.59
766.34	237.42
766.67	237.29
767.00	237.19
767.32	237.12
767.65	237.07
767.97	236.96
768.30	236.84
768.62	236.73
768.95	236.60
769.27	236.44
769.60	236.32
769.92	236.16
770.25	236.05
770.57	235.93
770.90	235.78
771.22	235.62
771.55	235.50
771.87	235.40
772.20	235.23
772.52	235.26
772.85	235.27
773.17	235.20
773.50	235.05
773.82	234.93
774.15	234.80
774.47	234.62
774.80	234.53
775.12	234.42
775.45	234.32
775.77	234.21
776.09	234.12
776.42	234.01
776.74	233.98
777.07	233.85
777.39	233.75
777.72	233.66
778.04	233.61
778.36	233.52
778.69	233.45
779.01	233.36
779.33	233.19
779.66	233.01
779.98	232.90
780.31	232.84
780.63	232.79
780.95	232.77
781.28	232.69
781.60	232.60
781.92	232.56
782.25	232.53
782.57	232.48
782.89	232.45
783.22	232.40
783.54	232.30
783.86	232.28
784.19	232.22
784.51	232.22
784.83	232.17
785.16	232.15
785.48	232.07
785.80	232.04
786.12	232.00
786.45	231.97
786.77	231.94
787.09	231.92
787.42	231.84
787.74	231.76
788.06	231.72
788.38	231.68
788.71	231.60
789.03	231.56
789.35	231.54
789.67	231.49
789.99	231.48
790.32	231.45
790.64	231.44
790.96	231.51
791.28	231.42
791.61	231.39
791.93	231.37
792.25	231.38
792.57	231.43
792.89	231.35
793.21	231.31
793.54	231.31
793.86	231.27
794.18	231.27
794.50	231.23
794.82	231.21
795.14	231.19
795.47	231.20
795.79	231.16
796.11	231.14
796.43	231.12
796.75	231.10
797.07	231.09
797.39	231.07
797.71	230.97
798.04	230.97
798.36	230.96
798.68	230.90
799.00	230.87
799.32	230.78
799.64	230.79
799.96	230.75
800.28	230.74
800.60	230.68
800.92	230.64
801.24	230.62
801.56	230.63
801.89	230.62
802.21	230.59
802.53	230.54
802.85	230.53
803.17	230.53
803.49	230.48
803.81	230.44
804.13	230.38
804.45	230.28
804.77	230.27
805.09	230.21
805.41	230.20
805.73	230.13
806.05	230.09
806.37	230.04
806.69	230.03
807.01	229.96
807.33	229.96
807.65	229.90
807.97	229.87
808.28	229.83
808.60	229.76
808.92	229.70
809.24	229.74
809.56	229.69
809.88	229.62
810.20	229.59
810.52	229.56
810.84	229.50
811.16	229.50
811.48	229.45
811.80	229.47
812.12	229.41
812.43	229.43
812.75	229.38
813.07	229.40
813.39	229.32
813.71	229.29
814.03	229.23
814.35	229.24
814.67	229.19
814.98	229.17
815.30	229.16
815.62	229.13
815.94	229.02
816.26	229.04
816.58	229.00
816.89	228.99
817.21	228.94
817.53	228.93
817.85	228.90
818.17	228.88
818.48	228.81
818.80	228.77
819.12	228.72
819.44	228.67
819.76	228.57
820.07	228.57
820.39	228.55
820.71	228.55
821.03	228.52
821.34	228.49
821.66	228.42
821.98	228.37
822.30	228.36
822.61	228.38
822.93	228.31
823.25	228.28
823.57	228.27
823.88	228.26
824.20	228.26
824.52	228.28
824.83	228.26
825.15	228.24
825.47	228.23
825.79	228.21
826.10	228.20
826.42	228.22
826.74	228.22
827.05	228.22
827.37	228.22
827.69	228.20
828.00	228.19
828.32	228.23
828.64	228.22
828.95	228.27
829.27	228.25
829.58	228.25
829.90	228.27
830.22	228.28
830.53	228.27
830.85	228.22
831.17	228.20
831.48	228.20
831.80	228.22
832.11	228.26
832.43	228.27
832.75	228.30
833.06	228.35
833.38	228.33
833.69	228.30
834.01	228.27
834.32	228.29
834.64	228.29
834.96	228.26
835.27	228.28
835.59	228.23
835.90	228.25
836.22	228.26
836.53	228.22
836.85	228.22
837.16	228.30
837.48	228.34
837.79	228.34
838.11	228.36
838.42	228.32
838.74	228.29
839.05	228.26
839.37	228.26
839.68	228.18
840.00	228.18
840.31	228.19
840.63	228.19
840.94	228.16
841.26	228.16
841.57	228.16
841.88	228.16
842.20	228.17
842.51	228.11
842.83	228.10
843.14	228.19
843.46	228.15
843.77	228.09
844.08	228.05
844.40	228.03
844.71	228.01
845.03	228.02
845.34	228.01
845.65	227.99
845.97	227.98
846.28	227.99
846.60	227.97
846.91	227.91
847.22	227.90
847.54	227.91
847.85	227.89
848.16	227.88
848.48	227.87
848.79	227.88
849.10	227.90
849.42	227.86
849.73	227.77
850.04	227.77
850.36	227.70
850.67	227.75
850.98	227.71
851.30	227.68
851.61	227.66
851.92	227.63
852.23	227.65
852.55	227.62
852.86	227.62
853.17	227.62
853.49	227.65
853.80	227.64
854.11	227.63
854.42	227.65
854.74	227.60
855.05	227.60
855.36	227.54
855.67	227.51
855.99	227.52
856.30	227.61
856.61	227.61
856.92	227.60
857.23	227.58
857.55	227.56
857.86	227.57
858.17	227.55
858.48	227.53
858.79	227.51
859.11	227.50
859.42	227.49
859.73	227.50
860.04	227.48
860.35	227.46
860.66	227.40
860.98	227.37
861.29	227.37
861.60	227.35
861.91	227.37
862.22	227.36
862.53	227.34
862.84	227.23
863.16	227.22
863.47	227.25
863.78	227.23
864.09	227.26
864.40	227.25
864.71	227.25
865.02	227.27
865.33	227.22
865.64	227.22
865.95	227.24
866.27	227.28
866.58	227.27
866.89	227.30
867.20	227.32
867.51	227.34
867.82	227.34
868.13	227.38
868.44	227.38
868.75	227.40
869.06	227.37
869.37	227.39
869.68	227.33
869.99	227.33
870.30	227.29
870.61	227.30
870.92	227.31
871.23	227.35
871.54	227.39
871.85	227.43
872.16	227.49
872.47	227.47
872.78	227.42
873.09	227.46
873.40	227.46
873.71	227.47
874.02	227.49
874.33	227.51
874.64	227.47
874.95	227.45
875.26	227.42
875.56	227.47
875.87	227.47
876.18	227.50
876.49	227.62
876.80	227.64
877.11	227.61
877.42	227.64
877.73	227.62
878.04	227.59
878.35	227.63
878.66	227.58
878.96	227.58
879.27	227.59
879.58	227.58
879.89	227.59
880.20	227.61
880.51	227.60
880.82	227.62
881.12	227.65
881.43	227.64
881.74	227.67
882.05	227.68
882.36	227.71
882.67	227.70
882.97	227.60
883.28	227.61
883.59	227.64
883.90	227.64
884.21	227.66
884.51	227.68
884.82	227.66
885.13	227.70
885.44	227.68
885.74	227.67
886.05	227.70
886.36	227.67
886.67	227.63
886.98	227.68
887.28	227.64
887.59	227.65
887.90	227.65
888.20	227.67
888.51	227.66
888.82	227.62
889.13	227.62
889.43	227.70
889.74	227.69
890.05	227.68
890.35	227.66
890.66	227.61
890.97	227.58
891.28	227.53
891.58	227.49
891.89	227.49
892.20	227.46
892.50	227.42
892.81	227.41
893.12	227.41
893.42	227.35
893.73	227.38
894.04	227.37
894.34	227.37
894.65	227.35
894.95	227.32
895.26	227.34
895.57	227.39
895.87	227.29
896.18	227.31
896.48	227.28
896.79	227.26
897.10	227.26
897.40	227.25
897.71	227.29
898.01	227.30
898.32	227.29
898.63	227.31
898.93	227.30
899.24	227.31
899.54	227.31
899.85	227.31
900.15	227.28
900.46	227.26
900.76	227.28
901.07	227.24
901.38	227.26
901.68	227.24
901.99	227.17
902.29	227.19
902.60	227.16
902.90	227.17
903.21	227.16
903.51	227.18
903.82	227.18
904.12	227.20
904.43	227.19
904.73	227.19
905.03	227.21
905.34	227.30
905.64	227.30
905.95	227.30
906.25	227.31
906.56	227.30
906.86	227.28
907.17	227.23
907.47	227.22
907.77	227.22
908.08	227.22
908.38	227.24
908.69	227.22
908.99	227.26
909.30	227.26
909.60	227.28
909.90	227.25
910.21	227.24
910.51	227.20
910.81	227.21
911.12	227.21
911.42	227.18
911.73	227.09
912.03	227.10
912.33	227.11
912.64	227.09
912.94	227.10
913.24	227.10
913.55	227.13
913.85	227.17
914.15	227.15
914.46	227.17
914.76	227.17
915.06	227.20
915.37	227.17
915.67	227.18
915.97	227.18
916.27	227.20
916.58	227.20
916.88	227.18
917.18	227.19
917.49	227.26
917.79	227.30
918.09	227.30
918.39	227.30
918.70	227.32
919.00	227.33
919.30	227.38
919.60	227.38
919.91	227.38
920.21	227.38
920.51	227.40
920.81	227.38
921.12	227.40
921.42	227.38
921.72	227.44
922.02	227.44
922.32	227.46
922.63	227.48
922.93	227.52
923.23	227.55
923.53	227.52
923.83	227.46
924.13	227.46
924.44	227.46
924.74	227.46
925.04	227.48
925.34	227.49
925.64	227.44
925.94	227.42
926.24	227.43
926.55	227.43
926.85	227.46
927.15	227.48
927.45	227.48
927.75	227.48
928.05	227.45
928.35	227.43
928.65	227.44
928.95	227.42
929.26	227.35
929.56	227.37
929.86	227.40
930.16	227.36
930.46	227.35
930.76	227.35
931.06	227.35
931.36	227.30
931.66	227.30
931.96	227.30
932.26	227.32
932.56	227.32
932.86	227.33
933.16	227.29
933.46	227.28
933.76	227.26
934.06	227.27
934.36	227.26
934.66	227.24
934.96	227.24
935.26	227.25
935.56	227.32
935.86	227.29
936.16	227.27
936.46	227.30
936.76	227.29
937.06	227.27
937.36	227.24
937.66	227.25
937.96	227.23
938.26	227.24
938.56	227.21
938.86	227.17
939.16	227.20
939.46	227.22
939.76	227.22
940.06	227.20
940.35	227.16
940.65	227.14
940.95	227.17
941.25	227.11
941.55	227.09
941.85	227.06
942.15	227.06
942.45	227.10
942.75	227.10
943.04	227.07
943.34	227.11
943.64	227.11
943.94	227.11
944.24	227.11
944.54	227.12
944.84	227.14
945.13	227.16
945.43	227.14
945.73	227.11
946.03	227.14
946.33	227.14
946.62	227.15
946.92	227.15
947.22	227.12
947.52	227.15
947.82	227.15
948.11	227.13
948.41	227.10
948.71	227.06
949.01	227.06
949.31	227.08
949.60	227.06
949.90	227.09
950.20	227.05
950.50	227.08
950.79	227.04
951.09	227.04
951.39	227.04
951.69	227.01
951.98	227.00
952.28	226.97
952.58	226.96
952.87	226.97
953.17	226.97
953.47	226.96
953.76	226.95
954.06	226.93
954.36	226.92
954.66	226.94
954.95	226.97
955.25	226.99
955.55	226.98
955.84	226.98
956.14	226.97
956.44	226.98
956.73	226.96
957.03	226.98
957.32	226.98
957.62	226.95
957.92	226.97
958.21	227.00
958.51	227.12
958.81	227.09
959.10	227.09
959.40	227.12
959.69	227.12
959.99	227.14
960.29	227.18
960.58	227.16
960.88	227.16
961.17	227.14
961.47	227.11
961.76	227.14
962.06	227.14
962.36	227.13
962.65	227.15
962.95	227.14
963.24	227.13
963.54	227.16
963.83	227.18
964.13	227.14
964.42	227.11
964.72	227.01
965.01	227.04
965.31	227.05
965.60	227.01
965.90	227.07
966.19	227.06
966.49	227.03
966.78	227.04
967.08	227.04
967.37	227.05
967.67	227.03
967.96	227.05
968.26	227.04
968.55	227.02
968.85	227.03
969.14	227.04
969.43	227.00
969.73	226.93
970.02	226.93
970.32	226.97
970.61	226.97
970.91	226.94
971.20	226.95
971.49	226.96
971.79	226.95
972.08	226.91
972.38	226.90
972.67	226.90
972.96	226.91
973.26	226.90
973.55	226.95
973.85	226.94
974.14	226.91
974.43	226.95
974.73	226.97
975.02	226.96
975.31	226.98
975.61	227.01
975.90	227.05
976.19	227.01
976.49	227.00
976.78	226.99
977.07	227.02
977.37	227.01
977.66	226.98
977.95	227.01
978.24	227.01
978.54	227.02
978.83	227.03
979.12	227.05
979.42	227.07
979.71	227.06
980.00	227.06
980.29	227.04
980.59	226.99
980.88	226.99
981.17	226.99
981.46	226.97
981.76	226.97
982.05	227.01
982.34	227.01
982.63	227.01
982.93	227.00
983.22	227.02
983.51	227.02
983.80	227.07
984.09	227.04
984.39	227.03
984.68	227.04
984.97	227.03
985.26	227.01
985.55	226.99
985.85	226.94
986.14	226.96
986.43	227.00
986.72	227.01
987.01	227.00
987.30	226.97
987.59	226.96
987.89	226.95
988.18	226.92
988.47	226.94
988.76	226.94
989.05	226.92
989.34	226.89
989.63	226.88
989.92	226.86
990.22	226.87
990.51	226.84
990.80	226.84
991.09	226.85
991.38	226.89
991.67	226.91
991.96	226.91
992.25	226.90
992.54	226.88
992.83	226.88
993.12	226.88
993.41	226.93
993.70	226.99
993.99	227.01
994.28	227.04
994.58	227.06
994.87	227.06
995.16	227.09
995.45	227.08
995.74	227.09
996.03	227.11
996.32	227.14
996.61	227.19
996.90	227.21
997.19	227.17
997.48	227.18
997.77	227.12
998.06	227.13
998.34	227.12
998.63	227.10
998.92	227.11
999.21	227.09
999.50	227.06
999.79	227.02
1000.08	227.02
1000.37	227.02
1000.66	227.00
1000.95	227.03
1001.24	227.06
1001.53	227.11
1001.82	227.10
1002.11	227.08
1002.40	227.05
1002.68	227.07
1002.97	227.11
1003.26	227.12
1003.55	227.10
1003.84	227.13
1004.13	227.17
1004.42	227.19
1004.71	227.15
1004.99	227.13
1005.28	227.17
1005.57	227.17
1005.86	227.18
1006.15	227.14
1006.44	227.13
1006.72	227.12
1007.01	227.13
1007.30	227.09
1007.59	227.07
1007.88	227.05
1008.17	227.04
1008.45	227.04
1008.74	227.01
1009.03	226.95
1009.32	226.98
1009.60	226.95
1009.89	226.93
1010.18	226.90
1010.47	226.90
1010.76	226.97
1011.04	226.97
1011.33	226.98
1011.62	227.02
1011.91	227.02
1012.19	227.05
1012.48	227.00
1012.77	227.02
1013.05	227.04
1013.34	227.05
1013.63	227.04
1013.92	227.07
1014.20	227.08
1014.49	227.09
1014.78	227.11
1015.06	227.11
1015.35	227.11
1015.64	227.14
1015.92	227.18
1016.21	227.19
1016.50	227.19
1016.78	227.19
1017.07	227.21
1017.36	227.18
1017.64	227.14
1017.93	227.14
1018.22	227.13
1018.50	227.16
1018.79	227.17
1019.08	227.11
1019.36	227.13
1019.65	227.12
1019.93	227.14
1020.22	227.16
1020.51	227.20
1020.79	227.18
1021.08	227.04
1021.36	227.07
1021.65	227.32
1021.94	226.75
1022.22	227.39
1022.51	226.80
1022.79	227.59
1023.08	227.50
1023.36	228.18
1023.65	226.92
>>>>>End Processed Spectral Data<<<<<
