SpectraSuite Data File
++++++++++++++++++++++++++++++++++++
Date: Fri Feb 01 16:52:56 EST 2013
User: group
Dark Spectrum Present: No
Reference Spectrum Present: No
Number of Sampled Component Spectra: 1
Spectrometers: USB2E7196
Integration Time (usec): 35000 (USB2E7196)
Spectra Averaged: 100 (USB2E7196)
Boxcar Smoothing: 10 (USB2E7196)
Correct for Electrical Dark: No (USB2E7196)
Strobe/Lamp Enabled: No (USB2E7196)
Correct for Detector Non-linearity: No (USB2E7196)
Correct for Stray Light: No (USB2E7196)
Number of Pixels in Processed Spectrum: 2048
>>>>>Begin Processed Spectral Data<<<<<
339.09	0.00
339.48	213.28
339.86	214.86
340.24	215.93
340.63	217.25
341.01	220.75
341.39	219.75
341.78	221.79
342.16	222.56
342.54	223.93
342.93	211.65
343.31	222.34
343.69	222.88
344.07	223.33
344.46	223.75
344.84	224.13
345.22	224.34
345.60	224.59
345.99	224.75
346.37	224.90
346.75	224.98
347.13	225.05
347.52	225.13
347.90	225.20
348.28	225.25
348.66	225.28
349.05	225.28
349.43	225.32
349.81	225.36
350.19	225.37
350.57	225.44
350.96	225.50
351.34	225.58
351.72	225.67
352.10	225.74
352.48	225.83
352.87	225.88
353.25	225.97
353.63	226.08
354.01	226.15
354.39	226.22
354.77	226.29
355.15	226.38
355.54	226.45
355.92	226.52
356.30	226.58
356.68	226.75
357.06	226.80
357.44	226.86
357.82	226.92
358.20	227.02
358.58	227.08
358.97	227.11
359.35	227.23
359.73	227.30
360.11	227.39
360.49	227.42
360.87	227.48
361.25	227.53
361.63	227.57
362.01	227.63
362.39	227.64
362.77	227.66
363.15	227.71
363.53	227.72
363.91	227.73
364.29	227.77
364.67	227.67
365.05	227.68
365.43	227.71
365.81	227.71
366.19	227.72
366.57	227.78
366.95	227.78
367.33	227.71
367.71	227.68
368.09	227.67
368.47	227.67
368.85	227.66
369.23	227.63
369.61	227.59
369.99	227.59
370.37	227.58
370.75	227.59
371.13	227.52
371.51	227.47
371.89	227.42
372.27	227.38
372.65	227.35
373.03	227.31
373.41	227.23
373.78	227.16
374.16	227.10
374.54	227.01
374.92	226.97
375.30	226.92
375.68	226.86
376.06	226.82
376.44	226.74
376.82	226.67
377.19	226.61
377.57	226.53
377.95	226.45
378.33	226.38
378.71	226.31
379.09	226.24
379.47	226.20
379.84	226.12
380.22	226.05
380.60	225.96
380.98	225.92
381.36	225.86
381.73	225.82
382.11	225.77
382.49	225.70
382.87	225.63
383.25	225.57
383.62	225.62
384.00	225.53
384.38	225.48
384.76	225.47
385.13	225.47
385.51	225.43
385.89	225.37
386.27	225.31
386.64	225.26
387.02	225.23
387.40	225.18
387.78	225.17
388.15	225.12
388.53	225.08
388.91	225.05
389.29	225.03
389.66	225.01
390.04	224.98
390.42	225.02
390.79	225.00
391.17	225.01
391.55	224.90
391.92	224.93
392.30	224.94
392.68	224.96
393.05	224.95
393.43	224.94
393.81	224.93
394.18	224.95
394.56	224.97
394.94	225.00
395.31	225.05
395.69	225.06
396.06	225.10
396.44	225.16
396.82	225.16
397.19	225.22
397.57	225.24
397.95	225.33
398.32	225.31
398.70	225.35
399.07	225.43
399.45	225.47
399.82	225.51
400.20	225.58
400.58	225.65
400.95	225.63
401.33	225.70
401.70	225.85
402.08	225.93
402.45	226.02
402.83	226.12
403.20	226.20
403.58	226.31
403.95	226.42
404.33	226.52
404.71	226.64
405.08	226.82
405.46	226.96
405.83	227.07
406.21	227.19
406.58	227.40
406.96	227.52
407.33	227.69
407.70	227.85
408.08	228.10
408.45	228.29
408.83	228.56
409.20	228.79
409.58	228.96
409.95	229.18
410.33	229.44
410.70	229.69
411.08	229.97
411.45	230.26
411.82	230.59
412.20	230.96
412.57	231.38
412.95	231.68
413.32	232.07
413.69	232.45
414.07	232.90
414.44	233.32
414.82	233.80
415.19	234.32
415.56	234.90
415.94	235.41
416.31	236.04
416.68	236.64
417.06	237.37
417.43	238.04
417.81	238.83
418.18	239.62
418.55	240.42
418.93	241.30
419.30	242.17
419.67	243.06
420.04	243.97
420.42	244.96
420.79	246.11
421.16	247.28
421.54	248.47
421.91	249.67
422.28	250.92
422.66	252.24
423.03	253.56
423.40	254.86
423.77	256.30
424.15	257.67
424.52	259.14
424.89	260.71
425.26	262.28
425.64	263.70
426.01	265.25
426.38	266.90
426.75	268.54
427.13	270.29
427.50	272.09
427.87	273.97
428.24	275.83
428.61	277.57
428.99	279.47
429.36	281.58
429.73	283.63
430.10	285.61
430.47	287.68
430.85	289.81
431.22	292.02
431.59	294.36
431.96	296.59
432.33	299.08
432.70	301.42
433.08	304.21
433.45	306.85
433.82	309.46
434.19	312.32
434.56	315.11
434.93	317.75
435.30	320.39
435.68	323.29
436.05	326.12
436.42	328.89
436.79	331.40
437.16	334.07
437.53	336.88
437.90	339.75
438.27	342.48
438.64	345.24
439.01	347.83
439.38	350.09
439.75	352.28
440.13	354.77
440.50	357.06
440.87	358.87
441.24	360.82
441.61	363.00
441.98	364.51
442.35	366.30
442.72	368.13
443.09	369.93
443.46	370.90
443.83	371.49
444.20	372.02
444.57	372.87
444.94	373.14
445.31	373.49
445.68	373.80
446.05	373.86
446.42	373.52
446.79	373.12
447.16	372.67
447.53	372.39
447.90	371.26
448.27	370.17
448.64	368.61
449.01	367.43
449.37	365.46
449.74	363.59
450.11	361.39
450.48	358.96
450.85	356.43
451.22	354.26
451.59	352.25
451.96	350.29
452.33	347.69
452.70	345.38
453.07	342.56
453.43	339.69
453.80	336.95
454.17	334.31
454.54	331.78
454.91	329.07
455.28	326.37
455.65	323.87
456.02	321.42
456.38	319.31
456.75	316.68
457.12	314.43
457.49	312.21
457.86	310.05
458.23	308.20
458.59	306.17
458.96	304.16
459.33	302.30
459.70	300.45
460.07	298.97
460.43	297.23
460.80	295.64
461.17	294.22
461.54	292.77
461.91	291.34
462.27	289.85
462.64	288.60
463.01	287.28
463.38	286.00
463.74	284.65
464.11	283.49
464.48	282.49
464.85	281.43
465.21	280.55
465.58	279.65
465.95	278.54
466.32	277.63
466.68	276.72
467.05	275.83
467.42	274.94
467.78	274.01
468.15	273.17
468.52	272.49
468.88	271.64
469.25	270.88
469.62	270.23
469.98	269.61
470.35	269.00
470.72	268.41
471.08	267.78
471.45	267.27
471.82	266.72
472.18	266.16
472.55	265.70
472.92	265.21
473.28	264.74
473.65	264.33
474.02	263.93
474.38	263.55
474.75	263.25
475.11	262.96
475.48	262.74
475.85	262.52
476.21	262.31
476.58	262.14
476.94	261.97
477.31	261.86
477.67	261.72
478.04	261.64
478.41	261.60
478.77	261.61
479.14	261.56
479.50	261.59
479.87	261.67
480.23	261.77
480.60	261.84
480.96	261.95
481.33	262.18
481.69	262.40
482.06	262.61
482.42	262.83
482.79	263.11
483.15	263.42
483.52	263.82
483.88	264.22
484.25	264.61
484.61	265.05
484.98	265.49
485.34	266.04
485.71	266.64
486.07	267.24
486.44	267.83
486.80	268.54
487.17	269.29
487.53	270.08
487.90	270.92
488.26	271.86
488.62	272.84
488.99	273.82
489.35	274.87
489.72	276.01
490.08	277.19
490.44	278.40
490.81	279.73
491.17	281.06
491.54	282.47
491.90	284.00
492.26	285.65
492.63	287.38
492.99	289.15
493.36	291.03
493.72	293.03
494.08	295.15
494.45	297.36
494.81	299.71
495.17	302.16
495.54	304.73
495.90	307.40
496.26	310.22
496.63	313.12
496.99	316.20
497.35	319.41
497.72	322.83
498.08	326.34
498.44	329.97
498.80	333.88
499.17	337.92
499.53	342.07
499.89	346.40
500.26	350.89
500.62	355.55
500.98	360.49
501.34	365.61
501.71	370.89
502.07	376.31
502.43	381.88
502.79	387.64
503.16	393.68
503.52	399.88
503.88	406.20
504.24	412.86
504.60	419.68
504.97	426.80
505.33	434.03
505.69	441.70
506.05	449.46
506.41	457.34
506.78	465.46
507.14	473.89
507.50	482.53
507.86	491.46
508.22	500.60
508.59	509.78
508.95	519.31
509.31	529.06
509.67	539.12
510.03	549.31
510.39	559.86
510.75	570.59
511.12	581.48
511.48	592.67
511.84	604.01
512.20	615.44
512.56	627.24
512.92	639.34
513.28	651.56
513.64	663.88
514.00	676.43
514.37	689.33
514.73	702.27
515.09	715.19
515.45	728.39
515.81	741.80
516.17	755.68
516.53	769.55
516.89	783.64
517.25	797.61
517.61	811.95
517.97	826.15
518.33	840.41
518.69	855.05
519.05	869.79
519.41	884.85
519.77	900.23
520.13	915.51
520.49	930.78
520.85	945.97
521.21	961.49
521.57	977.50
521.93	993.00
522.29	1009.10
522.65	1025.15
523.01	1041.06
523.37	1056.89
523.73	1072.72
524.09	1088.51
524.45	1104.52
524.81	1120.97
525.17	1137.48
525.53	1154.21
525.89	1170.88
526.25	1187.46
526.61	1203.77
526.97	1220.28
527.33	1236.46
527.68	1252.79
528.04	1268.93
528.40	1285.30
528.76	1302.10
529.12	1318.42
529.48	1335.12
529.84	1350.87
530.20	1367.22
530.56	1384.02
530.91	1401.22
531.27	1417.71
531.63	1434.10
531.99	1450.47
532.35	1466.19
532.71	1481.89
533.07	1497.79
533.42	1513.44
533.78	1529.21
534.14	1545.15
534.50	1560.21
534.86	1575.85
535.21	1590.79
535.57	1606.44
535.93	1621.63
536.29	1636.23
536.65	1650.99
537.00	1665.40
537.36	1680.61
537.72	1694.98
538.08	1709.11
538.44	1722.62
538.79	1736.48
539.15	1749.85
539.51	1763.43
539.87	1777.43
540.22	1790.96
540.58	1804.49
540.94	1817.59
541.29	1830.15
541.65	1842.68
542.01	1855.74
542.37	1867.92
542.72	1880.15
543.08	1891.78
543.44	1903.97
543.79	1915.12
544.15	1926.10
544.51	1937.55
544.87	1948.19
545.22	1958.81
545.58	1969.07
545.94	1978.73
546.29	1988.27
546.65	1998.03
547.01	2007.12
547.36	2015.68
547.72	2023.99
548.07	2031.85
548.43	2039.94
548.79	2048.06
549.14	2055.38
549.50	2062.42
549.86	2069.96
550.21	2077.18
550.57	2084.28
550.92	2090.87
551.28	2097.76
551.64	2104.73
551.99	2111.22
552.35	2117.41
552.70	2123.64
553.06	2129.48
553.41	2135.79
553.77	2141.70
554.13	2147.76
554.48	2153.96
554.84	2159.58
555.19	2164.73
555.55	2169.94
555.90	2174.39
556.26	2179.20
556.61	2184.03
556.97	2188.39
557.32	2192.48
557.68	2196.68
558.03	2201.07
558.39	2204.81
558.74	2209.53
559.10	2213.52
559.45	2217.26
559.81	2221.57
560.16	2225.35
560.52	2228.64
560.87	2232.13
561.23	2234.99
561.58	2237.90
561.94	2240.28
562.29	2242.64
562.64	2245.63
563.00	2248.19
563.35	2251.68
563.71	2254.67
564.06	2257.96
564.42	2260.99
564.77	2263.63
565.12	2266.12
565.48	2268.09
565.83	2270.01
566.19	2271.42
566.54	2272.40
566.89	2273.42
567.25	2274.16
567.60	2275.55
567.96	2277.43
568.31	2278.34
568.66	2279.60
569.02	2280.29
569.37	2280.84
569.72	2281.83
570.08	2281.93
570.43	2282.13
570.78	2281.80
571.14	2280.62
571.49	2279.39
571.84	2279.21
572.20	2278.31
572.55	2277.36
572.90	2275.94
573.26	2274.74
573.61	2273.02
573.96	2271.47
574.31	2268.83
574.67	2265.99
575.02	2262.50
575.37	2259.22
575.72	2255.66
576.08	2252.24
576.43	2249.15
576.78	2245.81
577.13	2242.84
577.49	2240.11
577.84	2236.80
578.19	2233.22
578.54	2229.89
578.90	2225.89
579.25	2220.41
579.60	2215.59
579.95	2210.68
580.30	2205.88
580.66	2200.86
581.01	2196.20
581.36	2191.40
581.71	2187.45
582.06	2183.25
582.42	2179.04
582.77	2173.95
583.12	2169.67
583.47	2165.40
583.82	2160.50
584.17	2155.30
584.53	2149.94
584.88	2144.26
585.23	2138.62
585.58	2133.36
585.93	2128.00
586.28	2123.24
586.63	2118.56
586.98	2113.63
587.34	2109.16
587.69	2104.31
588.04	2099.29
588.39	2093.79
588.74	2087.44
589.09	2081.42
589.44	2074.61
589.79	2068.63
590.14	2063.13
590.49	2056.50
590.84	2050.13
591.19	2044.26
591.54	2037.89
591.89	2030.76
592.25	2024.28
592.60	2017.24
592.95	2009.76
593.30	2002.52
593.65	1995.28
594.00	1988.31
594.35	1981.35
594.70	1973.46
595.05	1966.45
595.40	1959.18
595.75	1951.76
596.10	1945.71
596.45	1939.16
596.80	1933.30
597.15	1926.87
597.50	1920.02
597.85	1913.74
598.19	1907.23
598.54	1900.30
598.89	1893.74
599.24	1887.79
599.59	1881.08
599.94	1875.04
600.29	1868.80
600.64	1862.27
600.99	1854.84
601.34	1847.97
601.69	1841.03
602.04	1834.24
602.39	1826.91
602.74	1820.27
603.08	1813.75
603.43	1807.05
603.78	1799.68
604.13	1792.41
604.48	1785.20
604.83	1778.33
605.18	1771.57
605.53	1763.61
605.87	1755.79
606.22	1748.75
606.57	1740.99
606.92	1733.69
607.27	1726.57
607.62	1719.68
607.96	1712.51
608.31	1706.07
608.66	1698.56
609.01	1691.14
609.36	1683.64
609.70	1675.72
610.05	1667.64
610.40	1659.90
610.75	1651.62
611.10	1644.15
611.44	1635.86
611.79	1627.94
612.14	1619.35
612.49	1610.09
612.83	1601.77
613.18	1593.63
613.53	1585.52
613.88	1576.99
614.22	1568.85
614.57	1560.25
614.92	1552.30
615.27	1544.86
615.61	1536.52
615.96	1528.57
616.31	1520.84
616.65	1513.48
617.00	1506.04
617.35	1498.48
617.70	1490.22
618.04	1481.79
618.39	1473.38
618.74	1465.84
619.08	1457.55
619.43	1449.81
619.78	1442.93
620.12	1435.86
620.47	1428.38
620.82	1420.18
621.16	1412.69
621.51	1405.07
621.85	1397.45
622.20	1388.96
622.55	1380.62
622.89	1372.84
623.24	1365.17
623.59	1357.85
623.93	1350.32
624.28	1343.11
624.62	1335.71
624.97	1328.51
625.32	1321.75
625.66	1314.83
626.01	1307.73
626.35	1300.35
626.70	1292.76
627.04	1285.17
627.39	1277.41
627.73	1269.93
628.08	1263.11
628.43	1255.96
628.77	1248.73
629.12	1241.16
629.46	1234.09
629.81	1226.50
630.15	1219.22
630.50	1211.86
630.84	1203.71
631.19	1195.74
631.53	1188.13
631.88	1180.51
632.22	1172.96
632.57	1165.69
632.91	1158.17
633.26	1150.68
633.60	1143.19
633.95	1136.06
634.29	1128.99
634.64	1122.28
634.98	1114.95
635.32	1107.76
635.67	1101.15
636.01	1094.36
636.36	1087.68
636.70	1081.11
637.05	1074.62
637.39	1068.15
637.73	1061.69
638.08	1055.70
638.42	1049.78
638.77	1043.44
639.11	1036.89
639.45	1030.45
639.80	1023.80
640.14	1017.43
640.49	1010.89
640.83	1004.63
641.17	998.45
641.52	992.11
641.86	985.68
642.20	979.82
642.55	973.53
642.89	967.12
643.23	960.55
643.58	954.78
643.92	948.66
644.26	942.73
644.61	936.69
644.95	930.67
645.29	924.13
645.64	917.47
645.98	911.09
646.32	905.23
646.66	899.23
647.01	893.44
647.35	887.80
647.69	881.99
648.04	876.50
648.38	870.76
648.72	864.85
649.06	858.81
649.41	852.93
649.75	847.03
650.09	841.09
650.43	835.43
650.78	829.25
651.12	823.26
651.46	817.51
651.80	811.75
652.14	806.38
652.49	801.09
652.83	795.89
653.17	790.24
653.51	784.51
653.85	779.16
654.20	773.51
654.54	767.49
654.88	761.73
655.22	755.79
655.56	750.05
655.90	744.49
656.25	739.23
656.59	733.92
656.93	728.86
657.27	723.68
657.61	718.22
657.95	713.11
658.29	708.00
658.64	702.65
658.98	697.32
659.32	691.90
659.66	686.63
660.00	681.32
660.34	676.36
660.68	671.46
661.02	666.34
661.36	661.62
661.70	657.11
662.05	652.81
662.39	648.56
662.73	644.08
663.07	639.74
663.41	635.31
663.75	630.79
664.09	626.18
664.43	621.83
664.77	617.72
665.11	613.50
665.45	609.36
665.79	605.34
666.13	601.26
666.47	597.17
666.81	593.08
667.15	588.93
667.49	585.02
667.83	581.20
668.17	577.35
668.51	573.35
668.85	569.25
669.19	565.36
669.53	561.50
669.87	557.63
670.21	553.97
670.55	550.34
670.89	546.98
671.23	543.56
671.57	540.00
671.91	536.47
672.25	532.90
672.58	529.48
672.92	526.02
673.26	522.88
673.60	519.72
673.94	516.54
674.28	513.67
674.62	510.77
674.96	507.73
675.30	504.83
675.64	501.88
675.97	499.19
676.31	496.32
676.65	493.42
676.99	490.75
677.33	487.84
677.67	485.03
678.01	481.93
678.34	479.01
678.68	476.13
679.02	473.36
679.36	470.68
679.70	467.91
680.04	465.16
680.37	462.30
680.71	459.53
681.05	456.96
681.39	454.22
681.73	451.55
682.06	448.99
682.40	446.46
682.74	443.88
683.08	441.27
683.42	438.69
683.75	436.19
684.09	433.65
684.43	431.17
684.77	428.70
685.10	426.38
685.44	424.06
685.78	421.77
686.12	419.44
686.45	417.14
686.79	414.85
687.13	412.65
687.46	410.48
687.80	408.28
688.14	406.06
688.48	404.02
688.81	401.78
689.15	399.60
689.49	397.39
689.82	395.34
690.16	393.29
690.50	391.32
690.83	389.37
691.17	387.36
691.51	385.42
691.84	383.62
692.18	381.66
692.52	379.69
692.85	377.74
693.19	375.91
693.52	374.05
693.86	372.23
694.20	370.49
694.53	368.66
694.87	366.81
695.21	365.02
695.54	363.13
695.88	361.39
696.21	359.69
696.55	358.00
696.88	356.27
697.22	354.60
697.56	352.97
697.89	351.37
698.23	349.76
698.56	348.24
698.90	346.60
699.23	344.98
699.57	343.44
699.90	341.88
700.24	340.35
700.58	338.80
700.91	337.27
701.25	335.80
701.58	334.46
701.92	333.10
702.25	331.69
702.59	330.35
702.92	329.06
703.26	327.72
703.59	326.46
703.93	325.27
704.26	324.04
704.60	322.74
704.93	321.45
705.26	320.16
705.60	318.90
705.93	317.73
706.27	316.66
706.60	315.57
706.94	314.50
707.27	313.37
707.61	312.35
707.94	311.34
708.27	310.26
708.61	309.15
708.94	308.12
709.28	307.16
709.61	306.23
709.94	305.27
710.28	304.25
710.61	303.30
710.95	302.23
711.28	301.30
711.61	300.37
711.95	299.44
712.28	298.54
712.61	297.59
712.95	296.69
713.28	295.83
713.61	294.93
713.95	294.08
714.28	293.22
714.61	292.35
714.95	291.47
715.28	290.62
715.61	289.76
715.95	288.94
716.28	288.09
716.61	287.24
716.95	286.46
717.28	285.74
717.61	284.98
717.94	284.28
718.28	283.45
718.61	282.76
718.94	282.05
719.27	281.38
719.61	280.76
719.94	280.11
720.27	279.40
720.60	278.73
720.94	278.10
721.27	277.51
721.60	276.94
721.93	276.36
722.27	275.83
722.60	275.28
722.93	274.69
723.26	274.14
723.59	273.57
723.93	273.00
724.26	272.39
724.59	271.80
724.92	271.29
725.25	270.80
725.59	270.24
725.92	269.76
726.25	269.27
726.58	268.77
726.91	268.24
727.24	267.77
727.57	267.29
727.91	266.75
728.24	266.28
728.57	265.80
728.90	265.35
729.23	264.82
729.56	264.38
729.89	263.90
730.22	263.40
730.55	262.95
730.89	262.51
731.22	262.10
731.55	261.66
731.88	261.21
732.21	260.79
732.54	260.37
732.87	259.91
733.20	259.48
733.53	259.08
733.86	258.70
734.19	258.26
734.52	257.89
734.85	257.57
735.18	257.12
735.51	256.70
735.84	256.29
736.17	255.91
736.50	255.53
736.83	255.31
737.16	254.97
737.49	254.62
737.82	254.21
738.15	253.89
738.48	253.57
738.81	253.24
739.14	252.89
739.47	252.59
739.80	252.27
740.13	251.97
740.46	251.62
740.79	251.28
741.12	250.99
741.45	250.65
741.78	250.28
742.11	250.03
742.44	249.77
742.77	249.52
743.10	249.25
743.43	248.94
743.75	248.55
744.08	248.40
744.41	248.13
744.74	247.89
745.07	247.57
745.40	247.32
745.73	247.09
746.06	246.83
746.39	246.53
746.71	246.24
747.04	245.96
747.37	245.72
747.70	245.50
748.03	245.26
748.36	245.03
748.68	244.84
749.01	244.56
749.34	244.31
749.67	244.05
750.00	243.83
750.33	243.66
750.65	243.43
750.98	243.10
751.31	242.91
751.64	242.72
751.97	242.60
752.29	242.38
752.62	242.11
752.95	241.88
753.28	241.68
753.60	241.47
753.93	241.31
754.26	241.12
754.59	240.88
754.91	240.66
755.24	240.48
755.57	240.26
755.90	240.08
756.22	239.88
756.55	239.67
756.88	239.50
757.20	239.30
757.53	239.09
757.86	238.90
758.19	238.72
758.51	238.54
758.84	238.33
759.17	238.15
759.49	238.01
759.82	237.91
760.15	237.78
760.47	237.66
760.80	237.47
761.13	237.33
761.45	237.17
761.78	237.03
762.11	236.90
762.43	236.77
762.76	236.64
763.08	236.53
763.41	236.41
763.74	236.27
764.06	236.12
764.39	236.01
764.71	235.87
765.04	235.73
765.37	235.57
765.69	235.42
766.02	235.29
766.34	235.16
766.67	235.02
767.00	234.92
767.32	234.87
767.65	234.83
767.97	234.73
768.30	234.63
768.62	234.54
768.95	234.37
769.27	234.25
769.60	234.13
769.92	233.99
770.25	233.87
770.57	233.74
770.90	233.64
771.22	233.52
771.55	233.44
771.87	233.36
772.20	233.26
772.52	233.27
772.85	233.28
773.17	233.20
773.50	233.08
773.82	232.96
774.15	232.78
774.47	232.63
774.80	232.51
775.12	232.40
775.45	232.30
775.77	232.24
776.09	232.17
776.42	232.09
776.74	232.04
777.07	231.98
777.39	231.88
777.72	231.81
778.04	231.72
778.36	231.62
778.69	231.54
779.01	231.45
779.33	231.28
779.66	231.11
779.98	231.03
780.31	230.99
780.63	230.98
780.95	230.95
781.28	230.89
781.60	230.82
781.92	230.76
782.25	230.69
782.57	230.63
782.89	230.56
783.22	230.50
783.54	230.43
783.86	230.37
784.19	230.31
784.51	230.26
784.83	230.24
785.16	230.17
785.48	230.12
785.80	230.09
786.12	230.04
786.45	230.00
786.77	229.96
787.09	229.89
787.42	229.81
787.74	229.73
788.06	229.71
788.38	229.68
788.71	229.64
789.03	229.59
789.35	229.58
789.67	229.53
789.99	229.50
790.32	229.44
790.64	229.39
790.96	229.44
791.28	229.36
791.61	229.28
791.93	229.27
792.25	229.24
792.57	229.27
792.89	229.24
793.21	229.19
793.54	229.14
793.86	229.09
794.18	229.06
794.50	229.06
794.82	229.01
795.14	228.98
795.47	228.98
795.79	228.94
796.11	228.87
796.43	228.83
796.75	228.80
797.07	228.79
797.39	228.75
797.71	228.70
798.04	228.68
798.36	228.69
798.68	228.65
799.00	228.62
799.32	228.53
799.64	228.54
799.96	228.52
800.28	228.51
800.60	228.49
800.92	228.44
801.24	228.38
801.56	228.33
801.89	228.32
802.21	228.31
802.53	228.28
802.85	228.29
803.17	228.32
803.49	228.29
803.81	228.24
804.13	228.22
804.45	228.17
804.77	228.17
805.09	228.15
805.41	228.13
805.73	228.06
806.05	228.04
806.37	227.99
806.69	227.96
807.01	227.90
807.33	227.88
807.65	227.87
807.97	227.92
808.28	227.89
808.60	227.84
808.92	227.78
809.24	227.82
809.56	227.79
809.88	227.71
810.20	227.68
810.52	227.68
810.84	227.63
811.16	227.57
811.48	227.53
811.80	227.54
812.12	227.51
812.43	227.54
812.75	227.51
813.07	227.46
813.39	227.45
813.71	227.42
814.03	227.43
814.35	227.36
814.67	227.28
814.98	227.25
815.30	227.25
815.62	227.22
815.94	227.14
816.26	227.15
816.58	227.11
816.89	227.10
817.21	227.04
817.53	227.05
817.85	227.05
818.17	227.02
818.48	226.96
818.80	226.97
819.12	226.91
819.44	226.85
819.76	226.84
820.07	226.80
820.39	226.78
820.71	226.76
821.03	226.76
821.34	226.73
821.66	226.73
821.98	226.69
822.30	226.67
822.61	226.71
822.93	226.63
823.25	226.66
823.57	226.66
823.88	226.69
824.20	226.64
824.52	226.64
824.83	226.65
825.15	226.63
825.47	226.60
825.79	226.60
826.10	226.60
826.42	226.60
826.74	226.62
827.05	226.58
827.37	226.55
827.69	226.53
828.00	226.52
828.32	226.52
828.64	226.52
828.95	226.58
829.27	226.54
829.58	226.56
829.90	226.55
830.22	226.54
830.53	226.51
830.85	226.52
831.17	226.47
831.48	226.48
831.80	226.48
832.11	226.49
832.43	226.47
832.75	226.47
833.06	226.53
833.38	226.48
833.69	226.49
834.01	226.53
834.32	226.52
834.64	226.55
834.96	226.55
835.27	226.56
835.59	226.53
835.90	226.51
836.22	226.52
836.53	226.48
836.85	226.46
837.16	226.54
837.48	226.56
837.79	226.62
838.11	226.60
838.42	226.60
838.74	226.60
839.05	226.63
839.37	226.63
839.68	226.52
840.00	226.51
840.31	226.49
840.63	226.43
840.94	226.45
841.26	226.39
841.57	226.36
841.88	226.36
842.20	226.32
842.51	226.31
842.83	226.29
843.14	226.38
843.46	226.38
843.77	226.32
844.08	226.28
844.40	226.22
844.71	226.20
845.03	226.20
845.34	226.19
845.65	226.15
845.97	226.12
846.28	226.13
846.60	226.15
846.91	226.18
847.22	226.18
847.54	226.16
847.85	226.16
848.16	226.15
848.48	226.11
848.79	226.17
849.10	226.12
849.42	226.10
849.73	226.00
850.04	225.96
850.36	225.92
850.67	225.95
850.98	225.95
851.30	225.93
851.61	225.90
851.92	225.88
852.23	225.90
852.55	225.89
852.86	225.89
853.17	225.88
853.49	225.87
853.80	225.91
854.11	225.93
854.42	225.94
854.74	225.94
855.05	225.94
855.36	225.88
855.67	225.92
855.99	225.94
856.30	226.06
856.61	226.03
856.92	226.04
857.23	226.03
857.55	226.00
857.86	226.00
858.17	225.97
858.48	225.96
858.79	225.92
859.11	225.95
859.42	225.97
859.73	225.97
860.04	225.93
860.35	225.91
860.66	225.86
860.98	225.88
861.29	225.86
861.60	225.82
861.91	225.82
862.22	225.81
862.53	225.77
862.84	225.62
863.16	225.68
863.47	225.65
863.78	225.64
864.09	225.65
864.40	225.67
864.71	225.72
865.02	225.74
865.33	225.73
865.64	225.69
865.95	225.68
866.27	225.73
866.58	225.76
866.89	225.76
867.20	225.77
867.51	225.74
867.82	225.77
868.13	225.82
868.44	225.81
868.75	225.85
869.06	225.87
869.37	225.91
869.68	225.88
869.99	225.92
870.30	225.96
870.61	225.98
870.92	225.96
871.23	225.94
871.54	225.94
871.85	225.95
872.16	226.00
872.47	225.98
872.78	225.89
873.09	225.86
873.40	225.81
873.71	225.81
874.02	225.82
874.33	225.80
874.64	225.80
874.95	225.82
875.26	225.81
875.56	225.81
875.87	225.80
876.18	225.78
876.49	225.87
876.80	225.84
877.11	225.79
877.42	225.77
877.73	225.76
878.04	225.74
878.35	225.75
878.66	225.75
878.96	225.75
879.27	225.78
879.58	225.80
879.89	225.83
880.20	225.85
880.51	225.86
880.82	225.85
881.12	225.83
881.43	225.81
881.74	225.74
882.05	225.71
882.36	225.69
882.67	225.73
882.97	225.62
883.28	225.63
883.59	225.63
883.90	225.64
884.21	225.66
884.51	225.66
884.82	225.67
885.13	225.63
885.44	225.65
885.74	225.63
886.05	225.62
886.36	225.59
886.67	225.56
886.98	225.59
887.28	225.58
887.59	225.56
887.90	225.52
888.20	225.57
888.51	225.58
888.82	225.58
889.13	225.57
889.43	225.61
889.74	225.58
890.05	225.57
890.35	225.56
890.66	225.54
890.97	225.50
891.28	225.45
891.58	225.44
891.89	225.44
892.20	225.45
892.50	225.43
892.81	225.43
893.12	225.42
893.42	225.37
893.73	225.40
894.04	225.41
894.34	225.43
894.65	225.39
894.95	225.38
895.26	225.41
895.57	225.43
895.87	225.36
896.18	225.36
896.48	225.39
896.79	225.41
897.10	225.43
897.40	225.48
897.71	225.52
898.01	225.52
898.32	225.52
898.63	225.52
898.93	225.53
899.24	225.57
899.54	225.59
899.85	225.58
900.15	225.57
900.46	225.57
900.76	225.57
901.07	225.59
901.38	225.60
901.68	225.61
901.99	225.56
902.29	225.55
902.60	225.55
902.90	225.51
903.21	225.54
903.51	225.51
903.82	225.50
904.12	225.53
904.43	225.53
904.73	225.55
905.03	225.57
905.34	225.66
905.64	225.64
905.95	225.60
906.25	225.62
906.56	225.60
906.86	225.60
907.17	225.58
907.47	225.58
907.77	225.56
908.08	225.51
908.38	225.49
908.69	225.52
908.99	225.53
909.30	225.55
909.60	225.50
909.90	225.52
910.21	225.49
910.51	225.42
910.81	225.40
911.12	225.38
911.42	225.34
911.73	225.25
912.03	225.25
912.33	225.31
912.64	225.32
912.94	225.32
913.24	225.30
913.55	225.34
913.85	225.34
914.15	225.38
914.46	225.37
914.76	225.41
915.06	225.39
915.37	225.37
915.67	225.35
915.97	225.33
916.27	225.32
916.58	225.29
916.88	225.31
917.18	225.31
917.49	225.39
917.79	225.40
918.09	225.40
918.39	225.42
918.70	225.39
919.00	225.37
919.30	225.43
919.60	225.41
919.91	225.37
920.21	225.36
920.51	225.30
920.81	225.29
921.12	225.29
921.42	225.27
921.72	225.30
922.02	225.31
922.32	225.37
922.63	225.36
922.93	225.42
923.23	225.41
923.53	225.41
923.83	225.34
924.13	225.35
924.44	225.33
924.74	225.31
925.04	225.35
925.34	225.33
925.64	225.28
925.94	225.32
926.24	225.38
926.55	225.37
926.85	225.42
927.15	225.44
927.45	225.43
927.75	225.46
928.05	225.46
928.35	225.46
928.65	225.45
928.95	225.44
929.26	225.41
929.56	225.43
929.86	225.43
930.16	225.39
930.46	225.38
930.76	225.41
931.06	225.37
931.36	225.30
931.66	225.34
931.96	225.35
932.26	225.33
932.56	225.29
932.86	225.30
933.16	225.28
933.46	225.29
933.76	225.28
934.06	225.31
934.36	225.32
934.66	225.32
934.96	225.29
935.26	225.32
935.56	225.34
935.86	225.32
936.16	225.34
936.46	225.38
936.76	225.37
937.06	225.33
937.36	225.37
937.66	225.41
937.96	225.38
938.26	225.36
938.56	225.37
938.86	225.38
939.16	225.38
939.46	225.40
939.76	225.41
940.06	225.42
940.35	225.40
940.65	225.38
940.95	225.39
941.25	225.39
941.55	225.36
941.85	225.35
942.15	225.37
942.45	225.36
942.75	225.35
943.04	225.37
943.34	225.42
943.64	225.41
943.94	225.40
944.24	225.43
944.54	225.46
944.84	225.43
945.13	225.41
945.43	225.44
945.73	225.45
946.03	225.41
946.33	225.40
946.62	225.38
946.92	225.40
947.22	225.42
947.52	225.43
947.82	225.48
948.11	225.46
948.41	225.43
948.71	225.43
949.01	225.42
949.31	225.41
949.60	225.37
949.90	225.39
950.20	225.36
950.50	225.34
950.79	225.29
951.09	225.35
951.39	225.36
951.69	225.30
951.98	225.28
952.28	225.29
952.58	225.28
952.87	225.26
953.17	225.25
953.47	225.22
953.76	225.22
954.06	225.17
954.36	225.16
954.66	225.16
954.95	225.16
955.25	225.16
955.55	225.16
955.84	225.15
956.14	225.14
956.44	225.16
956.73	225.13
957.03	225.16
957.32	225.13
957.62	225.10
957.92	225.15
958.21	225.14
958.51	225.25
958.81	225.22
959.10	225.21
959.40	225.17
959.69	225.16
959.99	225.14
960.29	225.16
960.58	225.11
960.88	225.14
961.17	225.14
961.47	225.16
961.76	225.12
962.06	225.11
962.36	225.10
962.65	225.10
962.95	225.13
963.24	225.12
963.54	225.11
963.83	225.11
964.13	225.06
964.42	225.04
964.72	224.94
965.01	224.99
965.31	225.01
965.60	224.99
965.90	225.07
966.19	225.08
966.49	225.09
966.78	225.13
967.08	225.14
967.37	225.13
967.67	225.12
967.96	225.17
968.26	225.18
968.55	225.18
968.85	225.18
969.14	225.18
969.43	225.17
969.73	225.17
970.02	225.14
970.32	225.18
970.61	225.18
970.91	225.17
971.20	225.13
971.49	225.17
971.79	225.21
972.08	225.11
972.38	225.12
972.67	225.08
972.96	225.10
973.26	225.04
973.55	225.11
973.85	225.10
974.14	225.07
974.43	225.09
974.73	225.07
975.02	225.05
975.31	225.06
975.61	225.03
975.90	225.04
976.19	225.07
976.49	225.07
976.78	225.10
977.07	225.13
977.37	225.16
977.66	225.11
977.95	225.11
978.24	225.15
978.54	225.19
978.83	225.18
979.12	225.19
979.42	225.21
979.71	225.15
980.00	225.14
980.29	225.15
980.59	225.13
980.88	225.15
981.17	225.14
981.46	225.15
981.76	225.20
982.05	225.22
982.34	225.19
982.63	225.17
982.93	225.16
983.22	225.19
983.51	225.17
983.80	225.21
984.09	225.20
984.39	225.19
984.68	225.16
984.97	225.17
985.26	225.14
985.55	225.14
985.85	225.13
986.14	225.15
986.43	225.15
986.72	225.13
987.01	225.13
987.30	225.16
987.59	225.11
987.89	225.10
988.18	225.04
988.47	225.06
988.76	225.05
989.05	225.05
989.34	225.03
989.63	225.05
989.92	225.01
990.22	225.03
990.51	225.00
990.80	224.99
991.09	224.99
991.38	225.03
991.67	225.02
991.96	225.05
992.25	225.02
992.54	225.02
992.83	225.03
993.12	225.02
993.41	225.00
993.70	225.04
993.99	225.05
994.28	225.08
994.58	225.10
994.87	225.09
995.16	225.07
995.45	225.03
995.74	224.98
996.03	224.98
996.32	225.02
996.61	225.08
996.90	225.09
997.19	225.13
997.48	225.09
997.77	225.08
998.06	225.06
998.34	225.10
998.63	225.11
998.92	225.10
999.21	225.09
999.50	225.11
999.79	225.11
1000.08	225.14
1000.37	225.15
1000.66	225.12
1000.95	225.19
1001.24	225.20
1001.53	225.24
1001.82	225.30
1002.11	225.28
1002.40	225.27
1002.68	225.28
1002.97	225.33
1003.26	225.30
1003.55	225.29
1003.84	225.32
1004.13	225.36
1004.42	225.35
1004.71	225.34
1004.99	225.33
1005.28	225.35
1005.57	225.36
1005.86	225.33
1006.15	225.31
1006.44	225.27
1006.72	225.30
1007.01	225.26
1007.30	225.26
1007.59	225.25
1007.88	225.25
1008.17	225.25
1008.45	225.20
1008.74	225.18
1009.03	225.13
1009.32	225.11
1009.60	225.13
1009.89	225.12
1010.18	225.06
1010.47	225.05
1010.76	225.06
1011.04	225.06
1011.33	225.09
1011.62	225.10
1011.91	225.12
1012.19	225.15
1012.48	225.16
1012.77	225.14
1013.05	225.18
1013.34	225.18
1013.63	225.15
1013.92	225.14
1014.20	225.19
1014.49	225.22
1014.78	225.19
1015.06	225.16
1015.35	225.18
1015.64	225.20
1015.92	225.20
1016.21	225.21
1016.50	225.18
1016.78	225.19
1017.07	225.22
1017.36	225.18
1017.64	225.16
1017.93	225.16
1018.22	225.12
1018.50	225.11
1018.79	225.13
1019.08	225.05
1019.36	225.05
1019.65	225.07
1019.93	225.11
1020.22	225.08
1020.51	225.11
1020.79	225.13
1021.08	225.00
1021.36	224.38
1021.65	225.29
1021.94	224.66
1022.22	224.94
1022.51	225.18
1022.79	226.07
1023.08	225.08
1023.36	226.29
1023.65	225.23
>>>>>End Processed Spectral Data<<<<<
