SpectraSuite Data File
++++++++++++++++++++++++++++++++++++
Date: Fri Feb 01 17:26:26 EST 2013
User: group
Dark Spectrum Present: No
Reference Spectrum Present: No
Number of Sampled Component Spectra: 1
Spectrometers: USB2E7196
Integration Time (usec): 35000 (USB2E7196)
Spectra Averaged: 100 (USB2E7196)
Boxcar Smoothing: 10 (USB2E7196)
Correct for Electrical Dark: No (USB2E7196)
Strobe/Lamp Enabled: No (USB2E7196)
Correct for Detector Non-linearity: No (USB2E7196)
Correct for Stray Light: No (USB2E7196)
Number of Pixels in Processed Spectrum: 2048
>>>>>Begin Processed Spectral Data<<<<<
339.09	0.00
339.48	212.81
339.86	214.62
340.24	216.20
340.63	217.12
341.01	219.82
341.39	219.69
341.78	221.39
342.16	222.28
342.54	222.65
342.93	211.26
343.31	221.95
343.69	222.50
344.07	222.95
344.46	223.32
344.84	223.71
345.22	223.97
345.60	224.22
345.99	224.40
346.37	224.53
346.75	224.66
347.13	224.72
347.52	224.80
347.90	224.88
348.28	224.92
348.66	224.96
349.05	224.96
349.43	224.99
349.81	225.02
350.19	225.08
350.57	225.12
350.96	225.20
351.34	225.30
351.72	225.35
352.10	225.44
352.48	225.55
352.87	225.59
353.25	225.65
353.63	225.71
354.01	225.77
354.39	225.85
354.77	225.91
355.15	226.03
355.54	226.07
355.92	226.12
356.30	226.20
356.68	226.33
357.06	226.45
357.44	226.51
357.82	226.57
358.20	226.63
358.58	226.72
358.97	226.81
359.35	226.85
359.73	226.93
360.11	227.00
360.49	227.05
360.87	227.10
361.25	227.13
361.63	227.23
362.01	227.29
362.39	227.31
362.77	227.33
363.15	227.30
363.53	227.36
363.91	227.40
364.29	227.44
364.67	227.38
365.05	227.38
365.43	227.39
365.81	227.41
366.19	227.43
366.57	227.48
366.95	227.42
367.33	227.43
367.71	227.45
368.09	227.46
368.47	227.44
368.85	227.42
369.23	227.47
369.61	227.41
369.99	227.40
370.37	227.37
370.75	227.43
371.13	227.40
371.51	227.34
371.89	227.29
372.27	227.23
372.65	227.20
373.03	227.18
373.41	227.11
373.78	227.05
374.16	226.94
374.54	226.84
374.92	226.81
375.30	226.76
375.68	226.68
376.06	226.61
376.44	226.52
376.82	226.51
377.19	226.41
377.57	226.34
377.95	226.25
378.33	226.18
378.71	226.03
379.09	225.99
379.47	225.94
379.84	225.85
380.22	225.80
380.60	225.71
380.98	225.62
381.36	225.59
381.73	225.50
382.11	225.51
382.49	225.45
382.87	225.35
383.25	225.26
383.62	225.33
384.00	225.25
384.38	225.22
384.76	225.15
385.13	225.10
385.51	225.05
385.89	224.97
386.27	224.96
386.64	224.94
387.02	224.87
387.40	224.82
387.78	224.79
388.15	224.76
388.53	224.73
388.91	224.67
389.29	224.62
389.66	224.63
390.04	224.55
390.42	224.54
390.79	224.58
391.17	224.56
391.55	224.41
391.92	224.40
392.30	224.39
392.68	224.39
393.05	224.37
393.43	224.39
393.81	224.42
394.18	224.40
394.56	224.42
394.94	224.47
395.31	224.46
395.69	224.51
396.06	224.53
396.44	224.52
396.82	224.58
397.19	224.65
397.57	224.64
397.95	224.73
398.32	224.77
398.70	224.81
399.07	224.88
399.45	224.91
399.82	224.98
400.20	225.00
400.58	225.08
400.95	225.12
401.33	225.23
401.70	225.38
402.08	225.49
402.45	225.57
402.83	225.66
403.20	225.79
403.58	225.86
403.95	225.97
404.33	226.15
404.71	226.24
405.08	226.44
405.46	226.57
405.83	226.68
406.21	226.81
406.58	226.98
406.96	227.13
407.33	227.35
407.70	227.53
408.08	227.83
408.45	228.04
408.83	228.30
409.20	228.46
409.58	228.64
409.95	228.87
410.33	229.14
410.70	229.42
411.08	229.69
411.45	230.03
411.82	230.32
412.20	230.65
412.57	231.10
412.95	231.38
413.32	231.83
413.69	232.28
414.07	232.74
414.44	233.19
414.82	233.70
415.19	234.26
415.56	234.84
415.94	235.41
416.31	236.05
416.68	236.68
417.06	237.42
417.43	238.11
417.81	238.92
418.18	239.73
418.55	240.55
418.93	241.43
419.30	242.38
419.67	243.36
420.04	244.37
420.42	245.37
420.79	246.62
421.16	247.80
421.54	249.00
421.91	250.25
422.28	251.56
422.66	252.93
423.03	254.30
423.40	255.68
423.77	257.15
424.15	258.60
424.52	260.13
424.89	261.80
425.26	263.44
425.64	264.94
426.01	266.59
426.38	268.33
426.75	270.13
427.13	271.92
427.50	273.81
427.87	275.75
428.24	277.73
428.61	279.51
428.99	281.53
429.36	283.74
429.73	285.88
430.10	287.97
430.47	290.11
430.85	292.28
431.22	294.58
431.59	297.06
431.96	299.43
432.33	302.00
432.70	304.49
433.08	307.41
433.45	310.15
433.82	312.84
434.19	315.85
434.56	318.76
434.93	321.50
435.30	324.22
435.68	327.22
436.05	330.19
436.42	333.11
436.79	335.72
437.16	338.54
437.53	341.50
437.90	344.40
438.27	347.26
438.64	350.21
439.01	352.96
439.38	355.28
439.75	357.49
440.13	360.11
440.50	362.51
440.87	364.40
441.24	366.43
441.61	368.70
441.98	370.25
442.35	372.09
442.72	374.04
443.09	375.95
443.46	376.96
443.83	377.56
444.20	378.08
444.57	378.93
444.94	379.22
445.31	379.59
445.68	380.02
446.05	380.15
446.42	379.79
446.79	379.36
447.16	378.87
447.53	378.62
447.90	377.48
448.27	376.31
448.64	374.72
449.01	373.55
449.37	371.57
449.74	369.61
450.11	367.38
450.48	364.84
450.85	362.21
451.22	360.01
451.59	357.92
451.96	355.93
452.33	353.27
452.70	350.85
453.07	347.95
453.43	344.94
453.80	342.06
454.17	339.27
454.54	336.64
454.91	333.85
455.28	331.03
455.65	328.44
456.02	325.89
456.38	323.64
456.75	320.87
457.12	318.50
457.49	316.18
457.86	313.91
458.23	311.93
458.59	309.80
458.96	307.66
459.33	305.73
459.70	303.78
460.07	302.22
460.43	300.42
460.80	298.70
461.17	297.17
461.54	295.63
461.91	294.13
462.27	292.61
462.64	291.31
463.01	289.92
463.38	288.54
463.74	287.12
464.11	285.90
464.48	284.85
464.85	283.67
465.21	282.77
465.58	281.78
465.95	280.65
466.32	279.71
466.68	278.74
467.05	277.78
467.42	276.87
467.78	275.88
468.15	274.95
468.52	274.28
468.88	273.38
469.25	272.54
469.62	271.90
469.98	271.16
470.35	270.48
470.72	269.81
471.08	269.14
471.45	268.59
471.82	268.01
472.18	267.39
472.55	266.97
472.92	266.40
473.28	265.92
473.65	265.43
474.02	264.98
474.38	264.60
474.75	264.31
475.11	263.99
475.48	263.72
475.85	263.50
476.21	263.22
476.58	263.04
476.94	262.92
477.31	262.72
477.67	262.60
478.04	262.50
478.41	262.47
478.77	262.53
479.14	262.44
479.50	262.43
479.87	262.45
480.23	262.52
480.60	262.61
480.96	262.70
481.33	262.92
481.69	263.12
482.06	263.30
482.42	263.48
482.79	263.72
483.15	264.06
483.52	264.43
483.88	264.79
484.25	265.19
484.61	265.59
484.98	266.07
485.34	266.64
485.71	267.22
486.07	267.85
486.44	268.41
486.80	269.15
487.17	269.91
487.53	270.78
487.90	271.64
488.26	272.61
488.62	273.62
488.99	274.57
489.35	275.59
489.72	276.70
490.08	277.89
490.44	279.12
490.81	280.46
491.17	281.83
491.54	283.34
491.90	284.85
492.26	286.52
492.63	288.24
492.99	290.00
493.36	291.87
493.72	293.86
494.08	295.95
494.45	298.19
494.81	300.53
495.17	302.92
495.54	305.45
495.90	308.09
496.26	310.83
496.63	313.80
496.99	316.90
497.35	320.19
497.72	323.62
498.08	327.10
498.44	330.72
498.80	334.58
499.17	338.55
499.53	342.68
499.89	347.00
500.26	351.46
500.62	356.08
500.98	361.01
501.34	366.05
501.71	371.28
502.07	376.64
502.43	382.19
502.79	387.98
503.16	393.94
503.52	400.12
503.88	406.48
504.24	413.07
504.60	419.81
504.97	426.79
505.33	433.94
505.69	441.55
506.05	449.17
506.41	456.92
506.78	464.93
507.14	473.27
507.50	481.84
507.86	490.72
508.22	499.76
508.59	508.80
508.95	518.16
509.31	527.82
509.67	537.68
510.03	547.77
510.39	558.04
510.75	568.65
511.12	579.30
511.48	590.29
511.84	601.45
512.20	612.75
512.56	624.43
512.92	636.32
513.28	648.43
513.64	660.67
514.00	673.09
514.37	685.75
514.73	698.48
515.09	711.19
515.45	724.12
515.81	737.43
516.17	751.03
516.53	764.87
516.89	778.69
517.25	792.52
517.61	806.57
517.97	820.75
518.33	834.77
518.69	849.25
519.05	863.84
519.41	878.61
519.77	893.68
520.13	908.74
520.49	923.81
520.85	938.72
521.21	953.93
521.57	969.66
521.93	985.02
522.29	1000.91
522.65	1016.74
523.01	1032.43
523.37	1047.98
523.73	1063.67
524.09	1079.32
524.45	1095.17
524.81	1111.37
525.17	1127.69
525.53	1144.13
525.89	1160.63
526.25	1176.98
526.61	1193.01
526.97	1209.36
527.33	1225.45
527.68	1241.62
528.04	1257.57
528.40	1273.69
528.76	1290.38
529.12	1306.51
529.48	1322.91
529.84	1338.48
530.20	1354.56
530.56	1371.18
530.91	1388.14
531.27	1404.47
531.63	1420.48
531.99	1436.66
532.35	1452.35
532.71	1467.89
533.07	1483.76
533.42	1499.23
533.78	1514.94
534.14	1530.72
534.50	1545.67
534.86	1561.18
535.21	1575.99
535.57	1591.50
535.93	1606.73
536.29	1621.19
536.65	1635.97
537.00	1650.46
537.36	1665.52
537.72	1679.93
538.08	1694.18
538.44	1707.71
538.79	1721.54
539.15	1734.93
539.51	1748.48
539.87	1762.48
540.22	1775.97
540.58	1789.45
540.94	1802.51
541.29	1815.06
541.65	1827.72
542.01	1840.84
542.37	1853.08
542.72	1865.41
543.08	1877.29
543.44	1889.77
543.79	1901.07
544.15	1912.09
544.51	1923.67
544.87	1934.53
545.22	1945.35
545.58	1955.54
545.94	1965.40
546.29	1975.28
546.65	1985.26
547.01	1994.65
547.36	2003.55
547.72	2012.11
548.07	2020.20
548.43	2028.63
548.79	2036.67
549.14	2044.45
549.50	2051.86
549.86	2059.63
550.21	2067.05
550.57	2074.40
550.92	2080.94
551.28	2088.14
551.64	2095.33
551.99	2102.02
552.35	2108.54
552.70	2114.80
553.06	2121.07
553.41	2127.59
553.77	2133.79
554.13	2140.16
554.48	2146.55
554.84	2152.37
555.19	2157.96
555.55	2163.34
555.90	2168.06
556.26	2173.63
556.61	2178.49
556.97	2183.28
557.32	2187.88
557.68	2192.45
558.03	2197.01
558.39	2201.04
558.74	2206.03
559.10	2210.39
559.45	2214.30
559.81	2218.73
560.16	2222.99
560.52	2226.64
560.87	2230.37
561.23	2233.29
561.58	2236.33
561.94	2239.02
562.29	2241.63
562.64	2244.85
563.00	2247.76
563.35	2251.56
563.71	2254.93
564.06	2258.51
564.42	2261.76
564.77	2264.64
565.12	2267.41
565.48	2269.68
565.83	2272.04
566.19	2273.75
566.54	2274.89
566.89	2276.47
567.25	2277.72
567.60	2279.34
567.96	2281.44
568.31	2282.78
568.66	2284.47
569.02	2285.52
569.37	2286.26
569.72	2287.52
570.08	2288.00
570.43	2288.45
570.78	2288.40
571.14	2287.29
571.49	2286.30
571.84	2286.30
572.20	2285.53
572.55	2284.73
572.90	2283.43
573.26	2282.49
573.61	2281.03
573.96	2279.74
574.31	2277.22
574.67	2274.45
575.02	2271.27
575.37	2268.13
575.72	2264.79
576.08	2261.65
576.43	2258.68
576.78	2255.68
577.13	2252.69
577.49	2249.78
577.84	2246.72
578.19	2243.28
578.54	2240.15
578.90	2236.67
579.25	2231.35
579.60	2226.83
579.95	2222.11
580.30	2217.46
580.66	2212.62
581.01	2208.05
581.36	2203.38
581.71	2199.65
582.06	2195.66
582.42	2191.66
582.77	2186.77
583.12	2182.46
583.47	2178.19
583.82	2173.76
584.17	2168.92
584.53	2163.88
584.88	2158.62
585.23	2153.30
585.58	2148.07
585.93	2142.70
586.28	2137.82
586.63	2133.21
586.98	2128.32
587.34	2123.93
587.69	2119.36
588.04	2114.40
588.39	2109.01
588.74	2102.93
589.09	2097.00
589.44	2090.51
589.79	2084.37
590.14	2078.90
590.49	2072.45
590.84	2066.16
591.19	2060.33
591.54	2053.86
591.89	2046.77
592.25	2040.29
592.60	2033.19
592.95	2025.94
593.30	2018.84
593.65	2011.49
594.00	2004.50
594.35	1997.31
594.70	1989.45
595.05	1982.60
595.40	1975.44
595.75	1968.01
596.10	1961.91
596.45	1955.37
596.80	1949.35
597.15	1943.15
597.50	1936.45
597.85	1930.10
598.19	1923.59
598.54	1916.59
598.89	1910.01
599.24	1904.24
599.59	1897.84
599.94	1891.75
600.29	1885.38
600.64	1878.77
600.99	1871.60
601.34	1864.94
601.69	1858.17
602.04	1851.40
602.39	1843.98
602.74	1837.15
603.08	1830.58
603.43	1823.88
603.78	1816.53
604.13	1809.38
604.48	1802.14
604.83	1795.20
605.18	1788.51
605.53	1780.71
605.87	1772.68
606.22	1765.47
606.57	1757.60
606.92	1749.92
607.27	1742.85
607.62	1736.22
607.96	1729.22
608.31	1722.63
608.66	1714.91
609.01	1707.41
609.36	1699.97
609.70	1692.01
610.05	1684.14
610.40	1676.45
610.75	1668.18
611.10	1660.55
611.44	1651.98
611.79	1643.87
612.14	1635.24
612.49	1625.82
612.83	1617.30
613.18	1609.20
613.53	1601.11
613.88	1592.53
614.22	1584.33
614.57	1575.50
614.92	1567.19
615.27	1559.55
615.61	1551.04
615.96	1542.95
616.31	1535.17
616.65	1527.60
617.00	1519.95
617.35	1512.07
617.70	1503.68
618.04	1495.12
618.39	1486.71
618.74	1479.09
619.08	1470.72
619.43	1463.00
619.78	1456.11
620.12	1448.97
620.47	1441.33
620.82	1432.94
621.16	1425.27
621.51	1417.52
621.85	1409.76
622.20	1401.26
622.55	1392.72
622.89	1384.74
623.24	1376.97
623.59	1369.43
623.93	1361.89
624.28	1354.64
624.62	1347.02
624.97	1339.79
625.32	1332.81
625.66	1325.72
626.01	1318.48
626.35	1311.06
626.70	1303.09
627.04	1295.36
627.39	1287.41
627.73	1279.80
628.08	1272.92
628.43	1265.64
628.77	1258.19
629.12	1250.66
629.46	1243.32
629.81	1235.71
630.15	1228.34
630.50	1220.94
630.84	1212.68
631.19	1204.54
631.53	1196.79
631.88	1189.15
632.22	1181.50
632.57	1174.13
632.91	1166.56
633.26	1159.07
633.60	1151.48
633.95	1144.21
634.29	1136.98
634.64	1130.17
634.98	1122.84
635.32	1115.65
635.67	1108.94
636.01	1102.41
636.36	1095.59
636.70	1089.02
637.05	1082.46
637.39	1076.04
637.73	1069.50
638.08	1063.55
638.42	1057.61
638.77	1051.15
639.11	1044.61
639.45	1038.13
639.80	1031.44
640.14	1025.05
640.49	1018.49
640.83	1012.21
641.17	1006.17
641.52	999.89
641.86	993.40
642.20	987.47
642.55	980.94
642.89	974.40
643.23	967.57
643.58	961.74
643.92	955.49
644.26	949.49
644.61	943.30
644.95	937.27
645.29	930.75
645.64	923.95
645.98	917.61
646.32	911.59
646.66	905.50
647.01	899.70
647.35	893.86
647.69	887.96
648.04	882.38
648.38	876.48
648.72	870.51
649.06	864.52
649.41	858.61
649.75	852.83
650.09	846.84
650.43	841.12
650.78	834.93
651.12	828.95
651.46	823.11
651.80	817.53
652.14	812.11
652.49	806.71
652.83	801.51
653.17	795.91
653.51	790.22
653.85	784.78
654.20	779.16
654.54	773.18
654.88	767.36
655.22	761.36
655.56	755.60
655.90	749.95
656.25	744.63
656.59	739.22
656.93	734.01
657.27	728.97
657.61	723.50
657.95	718.32
658.29	713.20
658.64	707.90
658.98	702.41
659.32	696.86
659.66	691.61
660.00	686.27
660.34	681.22
660.68	676.31
661.02	671.19
661.36	666.40
661.70	661.90
662.05	657.56
662.39	653.30
662.73	648.82
663.07	644.53
663.41	640.09
663.75	635.69
664.09	631.10
664.43	626.62
664.77	622.52
665.11	618.28
665.45	614.14
665.79	610.02
666.13	605.89
666.47	601.79
666.81	597.60
667.15	593.48
667.49	589.49
667.83	585.56
668.17	581.61
668.51	577.53
668.85	573.43
669.19	569.48
669.53	565.60
669.87	561.72
670.21	557.92
670.55	554.20
670.89	550.66
671.23	547.19
671.57	543.58
671.91	540.08
672.25	536.51
672.58	532.97
672.92	529.51
673.26	526.30
673.60	523.08
673.94	520.00
674.28	517.03
674.62	514.12
674.96	511.02
675.30	508.14
675.64	505.20
675.97	502.35
676.31	499.51
676.65	496.56
676.99	493.82
677.33	490.96
677.67	488.08
678.01	485.04
678.34	482.07
678.68	479.16
679.02	476.28
679.36	473.49
679.70	470.70
680.04	467.95
680.37	465.10
680.71	462.28
681.05	459.64
681.39	456.88
681.73	454.18
682.06	451.62
682.40	449.09
682.74	446.52
683.08	443.97
683.42	441.36
683.75	438.79
684.09	436.17
684.43	433.65
684.77	431.20
685.10	428.81
685.44	426.47
685.78	424.18
686.12	421.90
686.45	419.60
686.79	417.31
687.13	415.08
687.46	412.84
687.80	410.68
688.14	408.37
688.48	406.23
688.81	403.96
689.15	401.79
689.49	399.49
689.82	397.33
690.16	395.24
690.50	393.19
690.83	391.30
691.17	389.30
691.51	387.39
691.84	385.55
692.18	383.67
692.52	381.69
692.85	379.70
693.19	377.76
693.52	375.91
693.86	373.97
694.20	372.17
694.53	370.41
694.87	368.53
695.21	366.72
695.54	364.89
695.88	363.11
696.21	361.35
696.55	359.72
696.88	358.06
697.22	356.36
697.56	354.73
697.89	353.05
698.23	351.49
698.56	349.87
698.90	348.28
699.23	346.57
699.57	344.98
699.90	343.43
700.24	341.88
700.58	340.31
700.91	338.88
701.25	337.39
701.58	335.98
701.92	334.59
702.25	333.25
702.59	331.86
702.92	330.55
703.26	329.21
703.59	327.88
703.93	326.64
704.26	325.38
704.60	324.08
704.93	322.77
705.26	321.49
705.60	320.23
705.93	318.99
706.27	317.94
706.60	316.87
706.94	315.77
707.27	314.64
707.61	313.52
707.94	312.50
708.27	311.45
708.61	310.32
708.94	309.28
709.28	308.22
709.61	307.28
709.94	306.30
710.28	305.28
710.61	304.29
710.95	303.21
711.28	302.31
711.61	301.34
711.95	300.38
712.28	299.41
712.61	298.48
712.95	297.56
713.28	296.63
713.61	295.70
713.95	294.82
714.28	293.95
714.61	293.14
714.95	292.24
715.28	291.35
715.61	290.46
715.95	289.64
716.28	288.81
716.61	287.91
716.95	287.07
717.28	286.31
717.61	285.54
717.94	284.80
718.28	283.94
718.61	283.22
718.94	282.53
719.27	281.85
719.61	281.19
719.94	280.50
720.27	279.80
720.60	279.08
720.94	278.43
721.27	277.82
721.60	277.20
721.93	276.60
722.27	276.05
722.60	275.54
722.93	274.91
723.26	274.35
723.59	273.84
723.93	273.30
724.26	272.74
724.59	272.13
724.92	271.54
725.25	271.05
725.59	270.50
725.92	269.99
726.25	269.48
726.58	268.98
726.91	268.50
727.24	267.98
727.57	267.55
727.91	267.01
728.24	266.50
728.57	266.00
728.90	265.52
729.23	264.97
729.56	264.54
729.89	264.04
730.22	263.54
730.55	262.98
730.89	262.48
731.22	262.01
731.55	261.59
731.88	261.17
732.21	260.71
732.54	260.25
732.87	259.79
733.20	259.37
733.53	258.94
733.86	258.52
734.19	258.14
734.52	257.71
734.85	257.36
735.18	256.97
735.51	256.59
735.84	256.23
736.17	255.88
736.50	255.42
736.83	255.19
737.16	254.85
737.49	254.55
737.82	254.23
738.15	253.87
738.48	253.53
738.81	253.18
739.14	252.87
739.47	252.54
739.80	252.22
740.13	251.91
740.46	251.57
740.79	251.19
741.12	250.85
741.45	250.57
741.78	250.22
742.11	249.95
742.44	249.63
742.77	249.34
743.10	249.03
743.43	248.77
743.75	248.36
744.08	248.18
744.41	247.90
744.74	247.63
745.07	247.35
745.40	247.07
745.73	246.86
746.06	246.59
746.39	246.33
746.71	246.09
747.04	245.79
747.37	245.52
747.70	245.33
748.03	245.07
748.36	244.83
748.68	244.57
749.01	244.29
749.34	244.08
749.67	243.80
750.00	243.60
750.33	243.39
750.65	243.20
750.98	242.90
751.31	242.71
751.64	242.52
751.97	242.34
752.29	242.17
752.62	241.93
752.95	241.71
753.28	241.50
753.60	241.27
753.93	241.14
754.26	240.95
754.59	240.70
754.91	240.49
755.24	240.29
755.57	240.11
755.90	239.95
756.22	239.74
756.55	239.57
756.88	239.38
757.20	239.17
757.53	238.96
757.86	238.78
758.19	238.59
758.51	238.39
758.84	238.19
759.17	237.96
759.49	237.80
759.82	237.71
760.15	237.53
760.47	237.37
760.80	237.17
761.13	237.07
761.45	236.93
761.78	236.82
762.11	236.69
762.43	236.52
762.76	236.34
763.08	236.19
763.41	236.07
763.74	235.93
764.06	235.76
764.39	235.63
764.71	235.50
765.04	235.33
765.37	235.19
765.69	235.06
766.02	234.94
766.34	234.81
766.67	234.63
767.00	234.55
767.32	234.49
767.65	234.46
767.97	234.29
768.30	234.18
768.62	234.03
768.95	233.91
769.27	233.82
769.60	233.75
769.92	233.63
770.25	233.49
770.57	233.39
770.90	233.30
771.22	233.19
771.55	233.08
771.87	233.01
772.20	232.93
772.52	232.97
772.85	233.04
773.17	232.95
773.50	232.86
773.82	232.76
774.15	232.62
774.47	232.45
774.80	232.37
775.12	232.29
775.45	232.21
775.77	232.13
776.09	232.07
776.42	231.98
776.74	231.96
777.07	231.88
777.39	231.81
777.72	231.73
778.04	231.68
778.36	231.63
778.69	231.56
779.01	231.50
779.33	231.32
779.66	231.11
779.98	231.07
780.31	230.99
780.63	230.94
780.95	230.91
781.28	230.86
781.60	230.81
781.92	230.75
782.25	230.71
782.57	230.61
782.89	230.55
783.22	230.48
783.54	230.38
783.86	230.32
784.19	230.28
784.51	230.25
784.83	230.16
785.16	230.07
785.48	230.03
785.80	229.95
786.12	229.94
786.45	229.90
786.77	229.82
787.09	229.80
787.42	229.72
787.74	229.67
788.06	229.62
788.38	229.56
788.71	229.55
789.03	229.53
789.35	229.54
789.67	229.48
789.99	229.48
790.32	229.46
790.64	229.46
790.96	229.48
791.28	229.44
791.61	229.44
791.93	229.42
792.25	229.38
792.57	229.44
792.89	229.39
793.21	229.34
793.54	229.32
793.86	229.22
794.18	229.22
794.50	229.19
794.82	229.17
795.14	229.12
795.47	229.08
795.79	229.02
796.11	228.96
796.43	228.93
796.75	228.88
797.07	228.87
797.39	228.81
797.71	228.73
798.04	228.70
798.36	228.67
798.68	228.63
799.00	228.58
799.32	228.52
799.64	228.48
799.96	228.46
800.28	228.43
800.60	228.44
800.92	228.43
801.24	228.40
801.56	228.36
801.89	228.36
802.21	228.34
802.53	228.31
802.85	228.28
803.17	228.32
803.49	228.25
803.81	228.21
804.13	228.19
804.45	228.11
804.77	228.07
805.09	228.07
805.41	228.04
805.73	228.02
806.05	227.93
806.37	227.88
806.69	227.81
807.01	227.75
807.33	227.71
807.65	227.62
807.97	227.62
808.28	227.56
808.60	227.53
808.92	227.47
809.24	227.48
809.56	227.47
809.88	227.40
810.20	227.39
810.52	227.35
810.84	227.27
811.16	227.25
811.48	227.18
811.80	227.17
812.12	227.11
812.43	227.10
812.75	227.10
813.07	227.08
813.39	227.08
813.71	227.05
814.03	227.04
814.35	226.98
814.67	226.90
814.98	226.89
815.30	226.86
815.62	226.83
815.94	226.77
816.26	226.75
816.58	226.71
816.89	226.68
817.21	226.62
817.53	226.63
817.85	226.59
818.17	226.62
818.48	226.53
818.80	226.57
819.12	226.54
819.44	226.50
819.76	226.47
820.07	226.47
820.39	226.45
820.71	226.40
821.03	226.39
821.34	226.41
821.66	226.41
821.98	226.41
822.30	226.37
822.61	226.40
822.93	226.37
823.25	226.38
823.57	226.38
823.88	226.45
824.20	226.41
824.52	226.45
824.83	226.43
825.15	226.42
825.47	226.39
825.79	226.37
826.10	226.33
826.42	226.30
826.74	226.28
827.05	226.27
827.37	226.27
827.69	226.27
828.00	226.25
828.32	226.24
828.64	226.19
828.95	226.26
829.27	226.21
829.58	226.18
829.90	226.15
830.22	226.14
830.53	226.08
830.85	226.09
831.17	226.05
831.48	226.02
831.80	226.03
832.11	226.01
832.43	225.98
832.75	225.98
833.06	226.07
833.38	226.06
833.69	226.05
834.01	226.03
834.32	226.00
834.64	225.94
834.96	225.94
835.27	225.95
835.59	225.91
835.90	225.87
836.22	225.85
836.53	225.85
836.85	225.81
837.16	225.91
837.48	225.89
837.79	225.94
838.11	225.93
838.42	225.88
838.74	225.87
839.05	225.85
839.37	225.85
839.68	225.76
840.00	225.73
840.31	225.75
840.63	225.76
840.94	225.76
841.26	225.77
841.57	225.73
841.88	225.76
842.20	225.72
842.51	225.73
842.83	225.73
843.14	225.78
843.46	225.79
843.77	225.71
844.08	225.68
844.40	225.62
844.71	225.62
845.03	225.63
845.34	225.62
845.65	225.61
845.97	225.60
846.28	225.58
846.60	225.62
846.91	225.59
847.22	225.55
847.54	225.57
847.85	225.57
848.16	225.58
848.48	225.53
848.79	225.58
849.10	225.57
849.42	225.58
849.73	225.47
850.04	225.47
850.36	225.44
850.67	225.44
850.98	225.44
851.30	225.43
851.61	225.42
851.92	225.43
852.23	225.48
852.55	225.47
852.86	225.47
853.17	225.42
853.49	225.47
853.80	225.47
854.11	225.50
854.42	225.52
854.74	225.51
855.05	225.52
855.36	225.43
855.67	225.43
855.99	225.42
856.30	225.54
856.61	225.53
856.92	225.52
857.23	225.52
857.55	225.50
857.86	225.47
858.17	225.50
858.48	225.44
858.79	225.40
859.11	225.45
859.42	225.44
859.73	225.45
860.04	225.42
860.35	225.43
860.66	225.37
860.98	225.31
861.29	225.29
861.60	225.28
861.91	225.33
862.22	225.31
862.53	225.28
862.84	225.16
863.16	225.18
863.47	225.17
863.78	225.17
864.09	225.19
864.40	225.21
864.71	225.20
865.02	225.21
865.33	225.21
865.64	225.16
865.95	225.15
866.27	225.21
866.58	225.18
866.89	225.17
867.20	225.17
867.51	225.15
867.82	225.13
868.13	225.16
868.44	225.14
868.75	225.18
869.06	225.19
869.37	225.21
869.68	225.20
869.99	225.18
870.30	225.19
870.61	225.18
870.92	225.19
871.23	225.20
871.54	225.23
871.85	225.28
872.16	225.31
872.47	225.30
872.78	225.23
873.09	225.26
873.40	225.25
873.71	225.29
874.02	225.29
874.33	225.32
874.64	225.28
874.95	225.27
875.26	225.24
875.56	225.24
875.87	225.25
876.18	225.21
876.49	225.34
876.80	225.31
877.11	225.28
877.42	225.27
877.73	225.25
878.04	225.26
878.35	225.23
878.66	225.22
878.96	225.22
879.27	225.22
879.58	225.24
879.89	225.23
880.20	225.22
880.51	225.22
880.82	225.25
881.12	225.26
881.43	225.25
881.74	225.23
882.05	225.23
882.36	225.22
882.67	225.20
882.97	225.07
883.28	225.07
883.59	225.07
883.90	225.10
884.21	225.09
884.51	225.04
884.82	225.01
885.13	225.00
885.44	224.99
885.74	224.99
886.05	224.95
886.36	224.97
886.67	224.95
886.98	225.00
887.28	225.00
887.59	224.98
887.90	225.00
888.20	225.00
888.51	225.01
888.82	225.01
889.13	225.03
889.43	225.13
889.74	225.12
890.05	225.13
890.35	225.13
890.66	225.13
890.97	225.15
891.28	225.11
891.58	225.09
891.89	225.08
892.20	225.06
892.50	225.11
892.81	225.10
893.12	225.11
893.42	225.09
893.73	225.08
894.04	225.10
894.34	225.11
894.65	225.15
894.95	225.13
895.26	225.13
895.57	225.17
895.87	225.07
896.18	225.11
896.48	225.10
896.79	225.04
897.10	225.07
897.40	225.07
897.71	225.11
898.01	225.13
898.32	225.15
898.63	225.15
898.93	225.12
899.24	225.13
899.54	225.13
899.85	225.09
900.15	225.08
900.46	225.03
900.76	225.03
901.07	225.01
901.38	225.02
901.68	225.02
901.99	224.98
902.29	225.01
902.60	224.96
902.90	224.98
903.21	225.01
903.51	224.98
903.82	225.01
904.12	224.99
904.43	225.00
904.73	225.01
905.03	225.00
905.34	225.11
905.64	225.07
905.95	225.06
906.25	225.06
906.56	225.01
906.86	225.03
907.17	225.01
907.47	225.00
907.77	224.99
908.08	224.97
908.38	224.98
908.69	224.97
908.99	225.00
909.30	224.97
909.60	224.95
909.90	224.97
910.21	224.91
910.51	224.94
910.81	224.90
911.12	224.89
911.42	224.91
911.73	224.80
912.03	224.83
912.33	224.83
912.64	224.83
912.94	224.84
913.24	224.81
913.55	224.78
913.85	224.76
914.15	224.79
914.46	224.79
914.76	224.77
915.06	224.75
915.37	224.75
915.67	224.76
915.97	224.74
916.27	224.73
916.58	224.73
916.88	224.70
917.18	224.72
917.49	224.77
917.79	224.77
918.09	224.79
918.39	224.80
918.70	224.83
919.00	224.82
919.30	224.89
919.60	224.93
919.91	224.95
920.21	224.97
920.51	224.94
920.81	224.95
921.12	224.97
921.42	224.98
921.72	224.97
922.02	224.97
922.32	225.01
922.63	225.01
922.93	225.08
923.23	225.10
923.53	225.09
923.83	225.03
924.13	225.03
924.44	225.01
924.74	225.03
925.04	225.07
925.34	225.08
925.64	225.04
925.94	225.02
926.24	225.06
926.55	225.04
926.85	225.07
927.15	225.03
927.45	225.04
927.75	225.06
928.05	225.07
928.35	225.07
928.65	225.08
928.95	225.05
929.26	225.00
929.56	225.03
929.86	225.07
930.16	225.06
930.46	225.04
930.76	225.05
931.06	225.00
931.36	224.98
931.66	225.00
931.96	225.02
932.26	225.04
932.56	225.04
932.86	225.05
933.16	225.05
933.46	225.09
933.76	225.09
934.06	225.14
934.36	225.16
934.66	225.16
934.96	225.13
935.26	225.14
935.56	225.15
935.86	225.11
936.16	225.09
936.46	225.10
936.76	225.11
937.06	225.09
937.36	225.10
937.66	225.07
937.96	225.06
938.26	225.05
938.56	225.03
938.86	225.02
939.16	225.05
939.46	225.04
939.76	225.02
940.06	224.98
940.35	224.94
940.65	224.90
940.95	224.89
941.25	224.88
941.55	224.89
941.85	224.90
942.15	224.91
942.45	224.93
942.75	224.92
943.04	224.89
943.34	224.89
943.64	224.89
943.94	224.87
944.24	224.89
944.54	224.89
944.84	224.86
945.13	224.82
945.43	224.78
945.73	224.77
946.03	224.75
946.33	224.74
946.62	224.72
946.92	224.71
947.22	224.75
947.52	224.77
947.82	224.78
948.11	224.76
948.41	224.70
948.71	224.63
949.01	224.63
949.31	224.60
949.60	224.57
949.90	224.57
950.20	224.54
950.50	224.48
950.79	224.48
951.09	224.51
951.39	224.52
951.69	224.54
951.98	224.56
952.28	224.58
952.58	224.62
952.87	224.62
953.17	224.64
953.47	224.60
953.76	224.57
954.06	224.55
954.36	224.51
954.66	224.56
954.95	224.59
955.25	224.60
955.55	224.62
955.84	224.61
956.14	224.65
956.44	224.67
956.73	224.67
957.03	224.67
957.32	224.66
957.62	224.64
957.92	224.66
958.21	224.66
958.51	224.77
958.81	224.75
959.10	224.75
959.40	224.76
959.69	224.77
959.99	224.83
960.29	224.82
960.58	224.84
960.88	224.86
961.17	224.88
961.47	224.91
961.76	224.91
962.06	224.96
962.36	224.97
962.65	225.01
962.95	225.04
963.24	225.04
963.54	225.07
963.83	225.09
964.13	225.07
964.42	225.03
964.72	224.94
965.01	224.92
965.31	224.92
965.60	224.91
965.90	224.96
966.19	224.89
966.49	224.90
966.78	224.91
967.08	224.92
967.37	224.91
967.67	224.85
967.96	224.87
968.26	224.86
968.55	224.86
968.85	224.83
969.14	224.80
969.43	224.78
969.73	224.74
970.02	224.73
970.32	224.72
970.61	224.71
970.91	224.67
971.20	224.68
971.49	224.65
971.79	224.64
972.08	224.59
972.38	224.62
972.67	224.63
972.96	224.63
973.26	224.60
973.55	224.66
973.85	224.66
974.14	224.67
974.43	224.70
974.73	224.68
975.02	224.69
975.31	224.70
975.61	224.68
975.90	224.69
976.19	224.68
976.49	224.68
976.78	224.73
977.07	224.74
977.37	224.74
977.66	224.73
977.95	224.72
978.24	224.71
978.54	224.70
978.83	224.70
979.12	224.68
979.42	224.67
979.71	224.64
980.00	224.65
980.29	224.66
980.59	224.60
980.88	224.61
981.17	224.59
981.46	224.58
981.76	224.58
982.05	224.60
982.34	224.59
982.63	224.58
982.93	224.54
983.22	224.56
983.51	224.60
983.80	224.66
984.09	224.69
984.39	224.69
984.68	224.71
984.97	224.67
985.26	224.68
985.55	224.68
985.85	224.66
986.14	224.64
986.43	224.63
986.72	224.62
987.01	224.58
987.30	224.60
987.59	224.59
987.89	224.62
988.18	224.58
988.47	224.57
988.76	224.60
989.05	224.60
989.34	224.57
989.63	224.57
989.92	224.56
990.22	224.53
990.51	224.53
990.80	224.54
991.09	224.58
991.38	224.62
991.67	224.63
991.96	224.61
992.25	224.62
992.54	224.59
992.83	224.59
993.12	224.60
993.41	224.61
993.70	224.68
993.99	224.68
994.28	224.71
994.58	224.73
994.87	224.68
995.16	224.67
995.45	224.65
995.74	224.62
996.03	224.64
996.32	224.65
996.61	224.67
996.90	224.64
997.19	224.59
997.48	224.60
997.77	224.59
998.06	224.56
998.34	224.57
998.63	224.61
998.92	224.65
999.21	224.68
999.50	224.67
999.79	224.61
1000.08	224.64
1000.37	224.66
1000.66	224.69
1000.95	224.75
1001.24	224.76
1001.53	224.81
1001.82	224.81
1002.11	224.77
1002.40	224.77
1002.68	224.80
1002.97	224.86
1003.26	224.92
1003.55	224.92
1003.84	224.93
1004.13	224.99
1004.42	224.96
1004.71	224.96
1004.99	224.98
1005.28	224.98
1005.57	225.00
1005.86	225.02
1006.15	225.00
1006.44	224.97
1006.72	224.97
1007.01	224.95
1007.30	224.96
1007.59	224.97
1007.88	224.96
1008.17	224.97
1008.45	224.96
1008.74	224.93
1009.03	224.92
1009.32	224.87
1009.60	224.84
1009.89	224.83
1010.18	224.78
1010.47	224.82
1010.76	224.81
1011.04	224.79
1011.33	224.79
1011.62	224.77
1011.91	224.78
1012.19	224.77
1012.48	224.77
1012.77	224.74
1013.05	224.81
1013.34	224.80
1013.63	224.78
1013.92	224.82
1014.20	224.80
1014.49	224.80
1014.78	224.77
1015.06	224.71
1015.35	224.70
1015.64	224.71
1015.92	224.71
1016.21	224.72
1016.50	224.69
1016.78	224.69
1017.07	224.68
1017.36	224.65
1017.64	224.64
1017.93	224.61
1018.22	224.62
1018.50	224.59
1018.79	224.60
1019.08	224.51
1019.36	224.52
1019.65	224.48
1019.93	224.48
1020.22	224.50
1020.51	224.54
1020.79	224.53
1021.08	224.60
1021.36	224.02
1021.65	224.73
1021.94	224.20
1022.22	224.73
1022.51	223.98
1022.79	225.15
1023.08	224.74
1023.36	225.50
1023.65	224.20
>>>>>End Processed Spectral Data<<<<<
