SpectraSuite Data File
++++++++++++++++++++++++++++++++++++
Date: Fri Feb 01 15:48:20 EST 2013
User: group
Dark Spectrum Present: No
Reference Spectrum Present: No
Number of Sampled Component Spectra: 1
Spectrometers: USB2E7196
Integration Time (usec): 35000 (USB2E7196)
Spectra Averaged: 100 (USB2E7196)
Boxcar Smoothing: 10 (USB2E7196)
Correct for Electrical Dark: No (USB2E7196)
Strobe/Lamp Enabled: No (USB2E7196)
Correct for Detector Non-linearity: No (USB2E7196)
Correct for Stray Light: No (USB2E7196)
Number of Pixels in Processed Spectrum: 2048
>>>>>Begin Processed Spectral Data<<<<<
339.09	0.00
339.48	214.60
339.86	216.48
340.24	218.55
340.63	218.98
341.01	221.40
341.39	222.39
341.78	223.62
342.16	224.64
342.54	224.48
342.93	213.38
343.31	224.17
343.69	224.76
344.07	225.18
344.46	225.55
344.84	225.94
345.22	226.20
345.60	226.41
345.99	226.58
346.37	226.72
346.75	226.84
347.13	226.93
347.52	226.94
347.90	227.03
348.28	227.07
348.66	227.13
349.05	227.13
349.43	227.19
349.81	227.22
350.19	227.25
350.57	227.28
350.96	227.36
351.34	227.43
351.72	227.47
352.10	227.61
352.48	227.69
352.87	227.75
353.25	227.84
353.63	227.91
354.01	227.98
354.39	228.02
354.77	228.09
355.15	228.13
355.54	228.22
355.92	228.22
356.30	228.29
356.68	228.41
357.06	228.47
357.44	228.49
357.82	228.58
358.20	228.67
358.58	228.75
358.97	228.81
359.35	228.86
359.73	228.91
360.11	228.94
360.49	229.01
360.87	229.04
361.25	229.08
361.63	229.14
362.01	229.16
362.39	229.20
362.77	229.23
363.15	229.29
363.53	229.29
363.91	229.37
364.29	229.35
364.67	229.28
365.05	229.29
365.43	229.32
365.81	229.35
366.19	229.37
366.57	229.39
366.95	229.39
367.33	229.41
367.71	229.41
368.09	229.40
368.47	229.37
368.85	229.34
369.23	229.36
369.61	229.30
369.99	229.30
370.37	229.27
370.75	229.27
371.13	229.18
371.51	229.13
371.89	229.09
372.27	229.07
372.65	229.05
373.03	228.99
373.41	228.91
373.78	228.80
374.16	228.71
374.54	228.62
374.92	228.52
375.30	228.41
375.68	228.33
376.06	228.31
376.44	228.24
376.82	228.15
377.19	228.08
377.57	228.00
377.95	227.90
378.33	227.82
378.71	227.70
379.09	227.69
379.47	227.60
379.84	227.48
380.22	227.41
380.60	227.31
380.98	227.22
381.36	227.18
381.73	227.09
382.11	227.04
382.49	226.98
382.87	226.93
383.25	226.89
383.62	226.95
384.00	226.86
384.38	226.81
384.76	226.82
385.13	226.81
385.51	226.76
385.89	226.72
386.27	226.68
386.64	226.62
387.02	226.53
387.40	226.50
387.78	226.47
388.15	226.42
388.53	226.37
388.91	226.36
389.29	226.31
389.66	226.33
390.04	226.30
390.42	226.30
390.79	226.29
391.17	226.30
391.55	226.18
391.92	226.13
392.30	226.16
392.68	226.13
393.05	226.13
393.43	226.13
393.81	226.14
394.18	226.15
394.56	226.21
394.94	226.28
395.31	226.32
395.69	226.37
396.06	226.42
396.44	226.47
396.82	226.50
397.19	226.57
397.57	226.61
397.95	226.66
398.32	226.65
398.70	226.72
399.07	226.79
399.45	226.83
399.82	226.90
400.20	226.93
400.58	227.00
400.95	226.97
401.33	227.07
401.70	227.20
402.08	227.27
402.45	227.32
402.83	227.43
403.20	227.50
403.58	227.59
403.95	227.72
404.33	227.84
404.71	227.94
405.08	228.14
405.46	228.23
405.83	228.39
406.21	228.55
406.58	228.68
406.96	228.85
407.33	229.05
407.70	229.28
408.08	229.54
408.45	229.74
408.83	230.02
409.20	230.22
409.58	230.43
409.95	230.70
410.33	231.00
410.70	231.21
411.08	231.50
411.45	231.82
411.82	232.13
412.20	232.48
412.57	232.94
412.95	233.24
413.32	233.70
413.69	234.10
414.07	234.58
414.44	235.06
414.82	235.53
415.19	236.09
415.56	236.63
415.94	237.19
416.31	237.85
416.68	238.49
417.06	239.21
417.43	239.89
417.81	240.66
418.18	241.42
418.55	242.29
418.93	243.19
419.30	244.10
419.67	245.00
420.04	245.98
420.42	246.97
420.79	248.14
421.16	249.27
421.54	250.42
421.91	251.62
422.28	252.89
422.66	254.21
423.03	255.50
423.40	256.79
423.77	258.22
424.15	259.65
424.52	261.16
424.89	262.74
425.26	264.33
425.64	265.82
426.01	267.43
426.38	269.11
426.75	270.76
427.13	272.50
427.50	274.34
427.87	276.20
428.24	278.06
428.61	279.84
428.99	281.79
429.36	283.91
429.73	286.00
430.10	288.01
430.47	290.07
430.85	292.22
431.22	294.48
431.59	296.85
431.96	299.07
432.33	301.56
432.70	303.98
433.08	306.79
433.45	309.41
433.82	312.04
434.19	314.90
434.56	317.74
434.93	320.42
435.30	323.07
435.68	325.98
436.05	328.74
436.42	331.48
436.79	333.98
437.16	336.69
437.53	339.51
437.90	342.33
438.27	345.05
438.64	347.86
439.01	350.48
439.38	352.72
439.75	354.92
440.13	357.37
440.50	359.67
440.87	361.47
441.24	363.41
441.61	365.55
441.98	367.05
442.35	368.84
442.72	370.64
443.09	372.42
443.46	373.41
443.83	374.04
444.20	374.58
444.57	375.41
444.94	375.70
445.31	376.00
445.68	376.33
446.05	376.46
446.42	376.08
446.79	375.65
447.16	375.21
447.53	374.83
447.90	373.66
448.27	372.51
448.64	370.90
449.01	369.73
449.37	367.77
449.74	365.88
450.11	363.67
450.48	361.21
450.85	358.64
451.22	356.46
451.59	354.43
451.96	352.52
452.33	349.92
452.70	347.53
453.07	344.70
453.43	341.83
453.80	339.01
454.17	336.32
454.54	333.76
454.91	331.02
455.28	328.39
455.65	325.89
456.02	323.42
456.38	321.29
456.75	318.65
457.12	316.40
457.49	314.12
457.86	311.95
458.23	310.10
458.59	308.12
458.96	306.05
459.33	304.23
459.70	302.39
460.07	300.90
460.43	299.19
460.80	297.62
461.17	296.18
461.54	294.70
461.91	293.27
462.27	291.83
462.64	290.56
463.01	289.20
463.38	287.93
463.74	286.58
464.11	285.42
464.48	284.40
464.85	283.29
465.21	282.43
465.58	281.51
465.95	280.40
466.32	279.46
466.68	278.57
467.05	277.65
467.42	276.73
467.78	275.80
468.15	274.93
468.52	274.24
468.88	273.35
469.25	272.57
469.62	271.97
469.98	271.27
470.35	270.64
470.72	270.06
471.08	269.41
471.45	268.90
471.82	268.36
472.18	267.79
472.55	267.33
472.92	266.82
473.28	266.32
473.65	265.86
474.02	265.40
474.38	265.03
474.75	264.69
475.11	264.34
475.48	264.05
475.85	263.86
476.21	263.59
476.58	263.45
476.94	263.32
477.31	263.15
477.67	263.02
478.04	262.94
478.41	262.89
478.77	262.95
479.14	262.92
479.50	262.94
479.87	262.94
480.23	263.07
480.60	263.13
480.96	263.23
481.33	263.44
481.69	263.66
482.06	263.84
482.42	264.04
482.79	264.27
483.15	264.57
483.52	264.92
483.88	265.33
484.25	265.68
484.61	266.09
484.98	266.55
485.34	267.11
485.71	267.69
486.07	268.31
486.44	268.83
486.80	269.52
487.17	270.25
487.53	271.11
487.90	271.93
488.26	272.87
488.62	273.86
488.99	274.85
489.35	275.89
489.72	277.04
490.08	278.25
490.44	279.54
490.81	280.91
491.17	282.27
491.54	283.78
491.90	285.36
492.26	287.02
492.63	288.76
492.99	290.52
493.36	292.45
493.72	294.46
494.08	296.64
494.45	298.86
494.81	301.22
495.17	303.68
495.54	306.28
495.90	308.99
496.26	311.82
496.63	314.77
496.99	317.90
497.35	321.17
497.72	324.57
498.08	328.13
498.44	331.79
498.80	335.67
499.17	339.65
499.53	343.80
499.89	348.19
500.26	352.68
500.62	357.39
500.98	362.32
501.34	367.38
501.71	372.67
502.07	378.14
502.43	383.78
502.79	389.59
503.16	395.66
503.52	401.91
503.88	408.30
504.24	414.96
504.60	421.88
504.97	428.97
505.33	436.33
505.69	444.03
506.05	451.81
506.41	459.75
506.78	467.96
507.14	476.44
507.50	485.15
507.86	494.20
508.22	503.39
508.59	512.63
508.95	522.23
509.31	532.04
509.67	542.16
510.03	552.48
510.39	562.98
510.75	573.74
511.12	584.67
511.48	596.00
511.84	607.42
512.20	618.90
512.56	630.91
512.92	643.07
513.28	655.38
513.64	667.92
514.00	680.58
514.37	693.47
514.73	706.49
515.09	719.51
515.45	732.86
515.81	746.40
516.17	760.40
516.53	774.54
516.89	788.77
517.25	802.81
517.61	817.20
517.97	831.75
518.33	846.24
518.69	861.05
519.05	876.01
519.41	891.17
519.77	906.75
520.13	922.18
520.49	937.54
520.85	952.97
521.21	968.66
521.57	985.00
521.93	1000.81
522.29	1017.23
522.65	1033.44
523.01	1049.67
523.37	1065.79
523.73	1081.97
524.09	1097.98
524.45	1114.32
524.81	1131.06
525.17	1148.02
525.53	1164.87
525.89	1181.78
526.25	1198.60
526.61	1215.07
526.97	1231.80
527.33	1248.23
527.68	1264.86
528.04	1281.34
528.40	1297.92
528.76	1314.96
529.12	1331.51
529.48	1348.42
529.84	1364.40
530.20	1381.05
530.56	1398.03
530.91	1415.42
531.27	1432.14
531.63	1448.67
531.99	1465.20
532.35	1481.17
532.71	1496.84
533.07	1513.00
533.42	1528.84
533.78	1544.95
534.14	1561.18
534.50	1576.48
534.86	1592.41
535.21	1607.41
535.57	1623.42
535.93	1639.01
536.29	1653.77
536.65	1668.77
537.00	1683.55
537.36	1698.90
537.72	1713.44
538.08	1727.65
538.44	1741.43
538.79	1755.23
539.15	1768.96
539.51	1782.63
539.87	1796.89
540.22	1810.80
540.58	1824.58
540.94	1837.93
541.29	1850.72
541.65	1863.35
542.01	1876.59
542.37	1889.04
542.72	1901.72
543.08	1913.43
543.44	1925.59
543.79	1936.71
544.15	1947.69
544.51	1959.13
544.87	1970.13
545.22	1980.87
545.58	1991.10
545.94	2000.86
546.29	2010.73
546.65	2020.50
547.01	2029.69
547.36	2038.39
547.72	2046.69
548.07	2054.48
548.43	2062.60
548.79	2070.73
549.14	2078.19
549.50	2085.50
549.86	2092.90
550.21	2100.04
550.57	2107.17
550.92	2113.87
551.28	2121.07
551.64	2128.11
551.99	2134.63
552.35	2140.72
552.70	2146.94
553.06	2152.92
553.41	2159.31
553.77	2165.45
554.13	2171.63
554.48	2177.88
554.84	2183.33
555.19	2188.81
555.55	2194.00
555.90	2198.39
556.26	2203.15
556.61	2208.01
556.97	2212.33
557.32	2216.58
557.68	2220.76
558.03	2225.10
558.39	2228.77
558.74	2233.31
559.10	2237.22
559.45	2240.99
559.81	2245.41
560.16	2249.20
560.52	2252.50
560.87	2255.82
561.23	2258.40
561.58	2261.38
561.94	2263.90
562.29	2266.32
562.64	2268.87
563.00	2271.55
563.35	2275.17
563.71	2278.24
564.06	2281.42
564.42	2284.12
564.77	2286.50
565.12	2288.81
565.48	2290.76
565.83	2292.62
566.19	2293.87
566.54	2294.78
566.89	2295.84
567.25	2296.37
567.60	2297.78
567.96	2299.43
568.31	2300.34
568.66	2301.54
569.02	2302.00
569.37	2302.24
569.72	2303.08
570.08	2303.13
570.43	2302.96
570.78	2302.37
571.14	2300.89
571.49	2299.42
571.84	2299.28
572.20	2298.18
572.55	2297.21
572.90	2295.54
573.26	2294.20
573.61	2292.52
573.96	2290.75
574.31	2287.78
574.67	2284.63
575.02	2280.95
575.37	2277.70
575.72	2273.81
576.08	2270.43
576.43	2267.15
576.78	2263.59
577.13	2260.51
577.49	2257.51
577.84	2254.03
578.19	2250.20
578.54	2246.57
578.90	2242.48
579.25	2236.97
579.60	2232.02
579.95	2226.94
580.30	2221.93
580.66	2216.72
581.01	2211.88
581.36	2207.00
581.71	2202.71
582.06	2198.29
582.42	2193.82
582.77	2188.46
583.12	2183.99
583.47	2179.06
583.82	2173.89
584.17	2168.52
584.53	2162.89
584.88	2157.22
585.23	2151.65
585.58	2146.17
585.93	2140.78
586.28	2136.03
586.63	2130.75
586.98	2125.64
587.34	2120.76
587.69	2115.96
588.04	2110.67
588.39	2105.01
588.74	2098.55
589.09	2092.42
589.44	2085.65
589.79	2079.63
590.14	2074.08
590.49	2067.41
590.84	2061.21
591.19	2055.21
591.54	2048.65
591.89	2041.34
592.25	2034.45
592.60	2027.21
592.95	2019.68
593.30	2012.24
593.65	2004.59
594.00	1997.73
594.35	1990.52
594.70	1982.59
595.05	1975.26
595.40	1968.01
595.75	1960.40
596.10	1954.07
596.45	1947.39
596.80	1941.20
597.15	1934.52
597.50	1927.48
597.85	1921.13
598.19	1914.45
598.54	1907.24
598.89	1900.66
599.24	1894.77
599.59	1888.04
599.94	1881.71
600.29	1875.31
600.64	1868.79
600.99	1861.41
601.34	1854.48
601.69	1847.51
602.04	1840.59
602.39	1833.28
602.74	1826.41
603.08	1819.71
603.43	1812.96
603.78	1805.65
604.13	1798.29
604.48	1790.98
604.83	1783.96
605.18	1776.85
605.53	1768.78
605.87	1760.89
606.22	1753.68
606.57	1745.71
606.92	1738.57
607.27	1731.50
607.62	1724.69
607.96	1717.29
608.31	1710.58
608.66	1702.99
609.01	1695.41
609.36	1687.80
609.70	1679.81
610.05	1671.66
610.40	1663.84
610.75	1655.45
611.10	1647.81
611.44	1639.56
611.79	1631.64
612.14	1622.89
612.49	1613.81
612.83	1605.51
613.18	1597.37
613.53	1589.25
613.88	1580.65
614.22	1572.26
614.57	1563.62
614.92	1555.41
615.27	1547.91
615.61	1539.42
615.96	1531.43
616.31	1523.74
616.65	1516.40
617.00	1508.84
617.35	1501.26
617.70	1492.96
618.04	1484.54
618.39	1476.26
618.74	1468.69
619.08	1460.25
619.43	1452.82
619.78	1445.94
620.12	1438.72
620.47	1431.16
620.82	1423.05
621.16	1415.71
621.51	1408.10
621.85	1400.40
622.20	1391.81
622.55	1383.35
622.89	1375.66
623.24	1368.04
623.59	1360.72
623.93	1353.23
624.28	1345.92
624.62	1338.30
624.97	1331.12
625.32	1324.42
625.66	1317.43
626.01	1310.17
626.35	1302.70
626.70	1294.89
627.04	1287.02
627.39	1279.24
627.73	1271.82
628.08	1264.91
628.43	1257.61
628.77	1250.29
629.12	1242.81
629.46	1235.81
629.81	1228.48
630.15	1221.16
630.50	1213.74
630.84	1205.49
631.19	1197.60
631.53	1190.09
631.88	1182.61
632.22	1175.04
632.57	1167.67
632.91	1160.06
633.26	1152.60
633.60	1145.36
633.95	1138.36
634.29	1131.46
634.64	1124.86
634.98	1117.55
635.32	1110.36
635.67	1103.72
636.01	1097.06
636.36	1090.26
636.70	1083.72
637.05	1077.23
637.39	1070.81
637.73	1064.18
638.08	1058.40
638.42	1052.36
638.77	1045.93
639.11	1039.33
639.45	1032.95
639.80	1026.30
640.14	1019.89
640.49	1013.40
640.83	1007.04
641.17	1000.66
641.52	994.25
641.86	987.75
642.20	981.92
642.55	975.54
642.89	969.11
643.23	962.65
643.58	956.85
643.92	950.69
644.26	944.53
644.61	938.50
644.95	932.50
645.29	925.82
645.64	919.16
645.98	912.92
646.32	907.15
646.66	901.08
647.01	895.26
647.35	889.56
647.69	883.69
648.04	878.22
648.38	872.48
648.72	866.43
649.06	860.38
649.41	854.45
649.75	848.57
650.09	842.58
650.43	836.72
650.78	830.51
651.12	824.51
651.46	818.83
651.80	813.09
652.14	807.74
652.49	802.43
652.83	797.18
653.17	791.36
653.51	785.59
653.85	780.23
654.20	774.56
654.54	768.72
654.88	763.02
655.22	757.06
655.56	751.34
655.90	745.94
656.25	740.65
656.59	735.33
656.93	730.20
657.27	725.05
657.61	719.55
657.95	714.49
658.29	709.44
658.64	704.14
658.98	698.78
659.32	693.33
659.66	688.11
660.00	682.80
660.34	677.90
660.68	672.99
661.02	667.98
661.36	663.31
661.70	658.64
662.05	654.28
662.39	650.02
662.73	645.52
663.07	641.10
663.41	636.63
663.75	632.06
664.09	627.52
664.43	623.18
664.77	619.07
665.11	614.83
665.45	610.68
665.79	606.60
666.13	602.50
666.47	598.37
666.81	594.19
667.15	590.09
667.49	586.17
667.83	582.38
668.17	578.41
668.51	574.32
668.85	570.35
669.19	566.53
669.53	562.64
669.87	558.81
670.21	555.18
670.55	551.54
670.89	548.15
671.23	544.71
671.57	541.16
671.91	537.61
672.25	534.07
672.58	530.52
672.92	527.12
673.26	524.00
673.60	520.87
673.94	517.78
674.28	514.88
674.62	511.91
674.96	508.80
675.30	505.84
675.64	502.90
675.97	500.12
676.31	497.21
676.65	494.25
676.99	491.55
677.33	488.72
677.67	485.92
678.01	482.90
678.34	479.89
678.68	477.02
679.02	474.22
679.36	471.51
679.70	468.84
680.04	466.08
680.37	463.09
680.71	460.30
681.05	457.66
681.39	454.83
681.73	452.22
682.06	449.68
682.40	447.18
682.74	444.70
683.08	442.11
683.42	439.51
683.75	437.03
684.09	434.46
684.43	431.93
684.77	429.49
685.10	427.14
685.44	424.86
685.78	422.60
686.12	420.39
686.45	418.10
686.79	415.80
687.13	413.64
687.46	411.58
687.80	409.42
688.14	407.22
688.48	405.25
688.81	402.97
689.15	400.80
689.49	398.70
689.82	396.58
690.16	394.54
690.50	392.59
690.83	390.65
691.17	388.69
691.51	386.81
691.84	384.97
692.18	383.05
692.52	381.03
692.85	379.10
693.19	377.22
693.52	375.41
693.86	373.61
694.20	371.84
694.53	370.02
694.87	368.21
695.21	366.46
695.54	364.63
695.88	362.95
696.21	361.24
696.55	359.52
696.88	357.85
697.22	356.18
697.56	354.58
697.89	352.91
698.23	351.30
698.56	349.65
698.90	348.05
699.23	346.38
699.57	344.86
699.90	343.30
700.24	341.72
700.58	340.15
700.91	338.65
701.25	337.18
701.58	335.78
701.92	334.40
702.25	333.01
702.59	331.65
702.92	330.33
703.26	329.04
703.59	327.73
703.93	326.55
704.26	325.35
704.60	324.06
704.93	322.79
705.26	321.53
705.60	320.38
705.93	319.22
706.27	318.25
706.60	317.17
706.94	316.10
707.27	315.01
707.61	314.03
707.94	312.97
708.27	311.89
708.61	310.79
708.94	309.81
709.28	308.79
709.61	307.78
709.94	306.81
710.28	305.80
710.61	304.85
710.95	303.77
711.28	302.80
711.61	301.81
711.95	300.90
712.28	299.96
712.61	298.99
712.95	298.02
713.28	297.09
713.61	296.19
713.95	295.26
714.28	294.36
714.61	293.45
714.95	292.63
715.28	291.73
715.61	290.88
715.95	290.01
716.28	289.15
716.61	288.33
716.95	287.49
717.28	286.70
717.61	285.92
717.94	285.20
718.28	284.37
718.61	283.67
718.94	282.99
719.27	282.32
719.61	281.65
719.94	281.04
720.27	280.33
720.60	279.68
720.94	279.13
721.27	278.59
721.60	278.02
721.93	277.44
722.27	276.90
722.60	276.34
722.93	275.80
723.26	275.27
723.59	274.73
723.93	274.21
724.26	273.67
724.59	273.13
724.92	272.59
725.25	272.14
725.59	271.67
725.92	271.17
726.25	270.69
726.58	270.22
726.91	269.71
727.24	269.25
727.57	268.75
727.91	268.20
728.24	267.74
728.57	267.26
728.90	266.78
729.23	266.32
729.56	265.91
729.89	265.43
730.22	264.97
730.55	264.51
730.89	264.06
731.22	263.63
731.55	263.21
731.88	262.83
732.21	262.39
732.54	261.95
732.87	261.53
733.20	261.10
733.53	260.72
733.86	260.34
734.19	259.94
734.52	259.60
734.85	259.31
735.18	258.88
735.51	258.50
735.84	258.13
736.17	257.77
736.50	257.36
736.83	257.17
737.16	256.84
737.49	256.51
737.82	256.18
738.15	255.88
738.48	255.53
738.81	255.17
739.14	254.86
739.47	254.52
739.80	254.18
740.13	253.91
740.46	253.57
740.79	253.25
741.12	252.94
741.45	252.61
741.78	252.24
742.11	251.96
742.44	251.65
742.77	251.35
743.10	251.06
743.43	250.73
743.75	250.28
744.08	250.15
744.41	249.87
744.74	249.58
745.07	249.28
745.40	249.06
745.73	248.83
746.06	248.56
746.39	248.30
746.71	248.03
747.04	247.74
747.37	247.46
747.70	247.22
748.03	247.00
748.36	246.81
748.68	246.60
749.01	246.34
749.34	246.09
749.67	245.88
750.00	245.63
750.33	245.49
750.65	245.28
750.98	244.93
751.31	244.69
751.64	244.49
751.97	244.29
752.29	244.06
752.62	243.80
752.95	243.59
753.28	243.38
753.60	243.17
753.93	242.99
754.26	242.82
754.59	242.58
754.91	242.35
755.24	242.11
755.57	241.91
755.90	241.73
756.22	241.54
756.55	241.31
756.88	241.10
757.20	240.88
757.53	240.64
757.86	240.44
758.19	240.31
758.51	240.13
758.84	239.93
759.17	239.75
759.49	239.57
759.82	239.47
760.15	239.34
760.47	239.22
760.80	239.03
761.13	238.89
761.45	238.76
761.78	238.61
762.11	238.48
762.43	238.29
762.76	238.11
763.08	237.97
763.41	237.82
763.74	237.70
764.06	237.56
764.39	237.49
764.71	237.35
765.04	237.19
765.37	237.05
765.69	236.95
766.02	236.81
766.34	236.68
766.67	236.49
767.00	236.37
767.32	236.30
767.65	236.25
767.97	236.14
768.30	236.03
768.62	235.91
768.95	235.80
769.27	235.72
769.60	235.66
769.92	235.59
770.25	235.46
770.57	235.39
770.90	235.27
771.22	235.17
771.55	235.07
771.87	234.99
772.20	234.91
772.52	234.89
772.85	234.97
773.17	234.90
773.50	234.80
773.82	234.67
774.15	234.55
774.47	234.41
774.80	234.32
775.12	234.23
775.45	234.13
775.77	234.05
776.09	233.97
776.42	233.91
776.74	233.84
777.07	233.83
777.39	233.76
777.72	233.69
778.04	233.61
778.36	233.57
778.69	233.48
779.01	233.42
779.33	233.31
779.66	233.10
779.98	233.06
780.31	233.02
780.63	232.99
780.95	232.95
781.28	232.88
781.60	232.84
781.92	232.79
782.25	232.77
782.57	232.71
782.89	232.65
783.22	232.55
783.54	232.45
783.86	232.37
784.19	232.31
784.51	232.31
784.83	232.26
785.16	232.21
785.48	232.19
785.80	232.17
786.12	232.12
786.45	232.05
786.77	231.96
787.09	231.89
787.42	231.83
787.74	231.76
788.06	231.71
788.38	231.62
788.71	231.56
789.03	231.51
789.35	231.48
789.67	231.43
789.99	231.41
790.32	231.36
790.64	231.34
790.96	231.36
791.28	231.27
791.61	231.21
791.93	231.17
792.25	231.11
792.57	231.11
792.89	231.02
793.21	231.00
793.54	230.98
793.86	230.93
794.18	230.90
794.50	230.85
794.82	230.82
795.14	230.80
795.47	230.78
795.79	230.72
796.11	230.66
796.43	230.62
796.75	230.57
797.07	230.52
797.39	230.48
797.71	230.37
798.04	230.31
798.36	230.30
798.68	230.24
799.00	230.18
799.32	230.11
799.64	230.11
799.96	230.07
800.28	230.04
800.60	230.03
800.92	229.96
801.24	229.92
801.56	229.88
801.89	229.84
802.21	229.82
802.53	229.77
802.85	229.76
803.17	229.76
803.49	229.71
803.81	229.70
804.13	229.63
804.45	229.58
804.77	229.58
805.09	229.54
805.41	229.53
805.73	229.53
806.05	229.49
806.37	229.43
806.69	229.40
807.01	229.37
807.33	229.33
807.65	229.31
807.97	229.33
808.28	229.33
808.60	229.29
808.92	229.26
809.24	229.29
809.56	229.24
809.88	229.17
810.20	229.21
810.52	229.22
810.84	229.16
811.16	229.17
811.48	229.15
811.80	229.16
812.12	229.15
812.43	229.11
812.75	229.07
813.07	229.03
813.39	229.04
813.71	229.00
814.03	228.95
814.35	228.92
814.67	228.85
814.98	228.80
815.30	228.79
815.62	228.73
815.94	228.64
816.26	228.69
816.58	228.67
816.89	228.64
817.21	228.60
817.53	228.62
817.85	228.58
818.17	228.53
818.48	228.48
818.80	228.44
819.12	228.41
819.44	228.38
819.76	228.37
820.07	228.34
820.39	228.31
820.71	228.33
821.03	228.34
821.34	228.34
821.66	228.33
821.98	228.32
822.30	228.32
822.61	228.36
822.93	228.30
823.25	228.32
823.57	228.30
823.88	228.28
824.20	228.29
824.52	228.28
824.83	228.29
825.15	228.25
825.47	228.25
825.79	228.23
826.10	228.23
826.42	228.25
826.74	228.25
827.05	228.24
827.37	228.24
827.69	228.23
828.00	228.25
828.32	228.26
828.64	228.25
828.95	228.29
829.27	228.28
829.58	228.28
829.90	228.25
830.22	228.23
830.53	228.21
830.85	228.15
831.17	228.14
831.48	228.15
831.80	228.15
832.11	228.15
832.43	228.14
832.75	228.14
833.06	228.16
833.38	228.14
833.69	228.13
834.01	228.12
834.32	228.10
834.64	228.09
834.96	228.06
835.27	228.08
835.59	228.04
835.90	227.99
836.22	227.97
836.53	227.95
836.85	227.97
837.16	228.06
837.48	228.10
837.79	228.18
838.11	228.14
838.42	228.15
838.74	228.16
839.05	228.13
839.37	228.11
839.68	228.04
840.00	228.05
840.31	228.05
840.63	228.05
840.94	228.02
841.26	227.97
841.57	227.94
841.88	227.90
842.20	227.87
842.51	227.84
842.83	227.84
843.14	227.91
843.46	227.88
843.77	227.82
844.08	227.78
844.40	227.68
844.71	227.67
845.03	227.64
845.34	227.60
845.65	227.63
845.97	227.63
846.28	227.61
846.60	227.60
846.91	227.61
847.22	227.60
847.54	227.61
847.85	227.61
848.16	227.62
848.48	227.60
848.79	227.63
849.10	227.67
849.42	227.67
849.73	227.56
850.04	227.54
850.36	227.51
850.67	227.52
850.98	227.54
851.30	227.56
851.61	227.55
851.92	227.55
852.23	227.54
852.55	227.54
852.86	227.52
853.17	227.50
853.49	227.48
853.80	227.46
854.11	227.50
854.42	227.49
854.74	227.46
855.05	227.47
855.36	227.41
855.67	227.39
855.99	227.42
856.30	227.54
856.61	227.54
856.92	227.50
857.23	227.45
857.55	227.45
857.86	227.43
858.17	227.43
858.48	227.41
858.79	227.39
859.11	227.38
859.42	227.38
859.73	227.35
860.04	227.33
860.35	227.29
860.66	227.24
860.98	227.25
861.29	227.27
861.60	227.22
861.91	227.25
862.22	227.24
862.53	227.19
862.84	227.08
863.16	227.10
863.47	227.09
863.78	227.11
864.09	227.07
864.40	227.09
864.71	227.08
865.02	227.10
865.33	227.08
865.64	227.06
865.95	227.08
866.27	227.16
866.58	227.19
866.89	227.22
867.20	227.22
867.51	227.23
867.82	227.19
868.13	227.24
868.44	227.21
868.75	227.20
869.06	227.20
869.37	227.20
869.68	227.15
869.99	227.16
870.30	227.18
870.61	227.25
870.92	227.24
871.23	227.26
871.54	227.26
871.85	227.32
872.16	227.34
872.47	227.32
872.78	227.28
873.09	227.29
873.40	227.27
873.71	227.26
874.02	227.26
874.33	227.28
874.64	227.30
874.95	227.34
875.26	227.38
875.56	227.38
875.87	227.39
876.18	227.41
876.49	227.50
876.80	227.49
877.11	227.41
877.42	227.39
877.73	227.36
878.04	227.37
878.35	227.33
878.66	227.37
878.96	227.37
879.27	227.35
879.58	227.33
879.89	227.33
880.20	227.38
880.51	227.36
880.82	227.35
881.12	227.34
881.43	227.33
881.74	227.29
882.05	227.33
882.36	227.32
882.67	227.34
882.97	227.25
883.28	227.28
883.59	227.29
883.90	227.32
884.21	227.37
884.51	227.37
884.82	227.35
885.13	227.35
885.44	227.34
885.74	227.35
886.05	227.37
886.36	227.38
886.67	227.35
886.98	227.42
887.28	227.42
887.59	227.43
887.90	227.40
888.20	227.40
888.51	227.38
888.82	227.38
889.13	227.39
889.43	227.47
889.74	227.45
890.05	227.45
890.35	227.43
890.66	227.35
890.97	227.35
891.28	227.37
891.58	227.35
891.89	227.35
892.20	227.36
892.50	227.32
892.81	227.31
893.12	227.27
893.42	227.22
893.73	227.26
894.04	227.22
894.34	227.24
894.65	227.23
894.95	227.22
895.26	227.19
895.57	227.19
895.87	227.08
896.18	227.08
896.48	227.07
896.79	227.08
897.10	227.14
897.40	227.13
897.71	227.09
898.01	227.10
898.32	227.10
898.63	227.09
898.93	227.09
899.24	227.10
899.54	227.10
899.85	227.12
900.15	227.07
900.46	227.09
900.76	227.08
901.07	227.04
901.38	227.04
901.68	227.08
901.99	227.03
902.29	227.02
902.60	227.05
902.90	227.05
903.21	227.00
903.51	226.98
903.82	226.98
904.12	227.02
904.43	227.00
904.73	226.96
905.03	226.94
905.34	227.04
905.64	226.99
905.95	226.99
906.25	226.95
906.56	226.95
906.86	226.94
907.17	226.93
907.47	226.94
907.77	226.93
908.08	226.90
908.38	226.90
908.69	226.92
908.99	226.91
909.30	226.88
909.60	226.88
909.90	226.87
910.21	226.86
910.51	226.83
910.81	226.83
911.12	226.89
911.42	226.90
911.73	226.77
912.03	226.81
912.33	226.81
912.64	226.79
912.94	226.81
913.24	226.80
913.55	226.78
913.85	226.75
914.15	226.78
914.46	226.79
914.76	226.81
915.06	226.81
915.37	226.78
915.67	226.80
915.97	226.81
916.27	226.81
916.58	226.83
916.88	226.83
917.18	226.82
917.49	226.86
917.79	226.87
918.09	226.89
918.39	226.92
918.70	226.94
919.00	226.97
919.30	226.99
919.60	226.98
919.91	227.02
920.21	227.08
920.51	227.05
920.81	227.06
921.12	227.09
921.42	227.08
921.72	227.10
922.02	227.10
922.32	227.14
922.63	227.14
922.93	227.17
923.23	227.21
923.53	227.20
923.83	227.18
924.13	227.19
924.44	227.21
924.74	227.24
925.04	227.27
925.34	227.23
925.64	227.20
925.94	227.19
926.24	227.21
926.55	227.17
926.85	227.20
927.15	227.19
927.45	227.15
927.75	227.16
928.05	227.14
928.35	227.17
928.65	227.20
928.95	227.20
929.26	227.14
929.56	227.12
929.86	227.14
930.16	227.08
930.46	227.06
930.76	227.02
931.06	226.96
931.36	226.93
931.66	226.95
931.96	226.94
932.26	226.96
932.56	226.91
932.86	226.95
933.16	226.89
933.46	226.89
933.76	226.89
934.06	226.88
934.36	226.89
934.66	226.85
934.96	226.80
935.26	226.81
935.56	226.84
935.86	226.81
936.16	226.78
936.46	226.79
936.76	226.77
937.06	226.79
937.36	226.78
937.66	226.77
937.96	226.76
938.26	226.74
938.56	226.70
938.86	226.73
939.16	226.73
939.46	226.73
939.76	226.71
940.06	226.70
940.35	226.69
940.65	226.65
940.95	226.68
941.25	226.65
941.55	226.63
941.85	226.59
942.15	226.61
942.45	226.67
942.75	226.67
943.04	226.67
943.34	226.66
943.64	226.66
943.94	226.66
944.24	226.66
944.54	226.69
944.84	226.71
945.13	226.69
945.43	226.65
945.73	226.67
946.03	226.69
946.33	226.68
946.62	226.67
946.92	226.69
947.22	226.70
947.52	226.72
947.82	226.73
948.11	226.75
948.41	226.76
948.71	226.70
949.01	226.70
949.31	226.72
949.60	226.73
949.90	226.77
950.20	226.77
950.50	226.79
950.79	226.78
951.09	226.80
951.39	226.80
951.69	226.84
951.98	226.87
952.28	226.90
952.58	226.91
952.87	226.94
953.17	226.95
953.47	226.95
953.76	226.95
954.06	226.96
954.36	226.95
954.66	226.97
954.95	226.99
955.25	226.98
955.55	227.00
955.84	226.99
956.14	226.97
956.44	226.99
956.73	226.97
957.03	226.98
957.32	227.00
957.62	227.00
957.92	227.06
958.21	227.07
958.51	227.16
958.81	227.19
959.10	227.20
959.40	227.22
959.69	227.20
959.99	227.24
960.29	227.25
960.58	227.27
960.88	227.32
961.17	227.33
961.47	227.38
961.76	227.37
962.06	227.38
962.36	227.40
962.65	227.39
962.95	227.40
963.24	227.38
963.54	227.36
963.83	227.37
964.13	227.30
964.42	227.25
964.72	227.17
965.01	227.14
965.31	227.11
965.60	227.07
965.90	227.14
966.19	227.10
966.49	227.10
966.78	227.05
967.08	226.98
967.37	226.95
967.67	226.89
967.96	226.88
968.26	226.85
968.55	226.81
968.85	226.79
969.14	226.76
969.43	226.72
969.73	226.69
970.02	226.67
970.32	226.65
970.61	226.63
970.91	226.55
971.20	226.53
971.49	226.55
971.79	226.54
972.08	226.46
972.38	226.45
972.67	226.40
972.96	226.42
973.26	226.38
973.55	226.40
973.85	226.40
974.14	226.41
974.43	226.41
974.73	226.38
975.02	226.35
975.31	226.37
975.61	226.38
975.90	226.38
976.19	226.37
976.49	226.36
976.78	226.36
977.07	226.34
977.37	226.31
977.66	226.25
977.95	226.26
978.24	226.27
978.54	226.29
978.83	226.27
979.12	226.25
979.42	226.24
979.71	226.22
980.00	226.19
980.29	226.20
980.59	226.17
980.88	226.24
981.17	226.26
981.46	226.25
981.76	226.26
982.05	226.29
982.34	226.26
982.63	226.29
982.93	226.28
983.22	226.36
983.51	226.38
983.80	226.42
984.09	226.39
984.39	226.39
984.68	226.37
984.97	226.39
985.26	226.39
985.55	226.44
985.85	226.44
986.14	226.48
986.43	226.47
986.72	226.51
987.01	226.48
987.30	226.48
987.59	226.49
987.89	226.52
988.18	226.50
988.47	226.51
988.76	226.50
989.05	226.52
989.34	226.49
989.63	226.56
989.92	226.58
990.22	226.61
990.51	226.60
990.80	226.62
991.09	226.66
991.38	226.70
991.67	226.73
991.96	226.75
992.25	226.75
992.54	226.76
992.83	226.75
993.12	226.79
993.41	226.83
993.70	226.84
993.99	226.89
994.28	226.92
994.58	226.93
994.87	226.90
995.16	226.93
995.45	226.94
995.74	226.90
996.03	226.92
996.32	226.96
996.61	227.01
996.90	227.01
997.19	227.01
997.48	226.99
997.77	226.96
998.06	226.95
998.34	226.97
998.63	226.97
998.92	226.96
999.21	226.91
999.50	226.90
999.79	226.87
1000.08	226.84
1000.37	226.86
1000.66	226.87
1000.95	226.92
1001.24	226.90
1001.53	226.91
1001.82	226.90
1002.11	226.85
1002.40	226.85
1002.68	226.86
1002.97	226.95
1003.26	226.94
1003.55	226.92
1003.84	226.94
1004.13	226.97
1004.42	226.93
1004.71	226.92
1004.99	226.90
1005.28	226.93
1005.57	226.93
1005.86	226.92
1006.15	226.89
1006.44	226.86
1006.72	226.88
1007.01	226.83
1007.30	226.83
1007.59	226.83
1007.88	226.82
1008.17	226.80
1008.45	226.77
1008.74	226.71
1009.03	226.61
1009.32	226.60
1009.60	226.58
1009.89	226.53
1010.18	226.46
1010.47	226.45
1010.76	226.45
1011.04	226.46
1011.33	226.42
1011.62	226.42
1011.91	226.44
1012.19	226.44
1012.48	226.43
1012.77	226.39
1013.05	226.47
1013.34	226.46
1013.63	226.42
1013.92	226.43
1014.20	226.43
1014.49	226.43
1014.78	226.42
1015.06	226.41
1015.35	226.43
1015.64	226.47
1015.92	226.51
1016.21	226.51
1016.50	226.50
1016.78	226.52
1017.07	226.54
1017.36	226.55
1017.64	226.51
1017.93	226.53
1018.22	226.53
1018.50	226.51
1018.79	226.54
1019.08	226.49
1019.36	226.49
1019.65	226.50
1019.93	226.55
1020.22	226.60
1020.51	226.62
1020.79	226.64
1021.08	226.57
1021.36	226.07
1021.65	226.82
1021.94	226.60
1022.22	226.60
1022.51	226.21
1022.79	227.63
1023.08	227.05
1023.36	227.38
1023.65	226.58
>>>>>End Processed Spectral Data<<<<<
