SpectraSuite Data File
++++++++++++++++++++++++++++++++++++
Date: Fri Feb 01 16:21:50 EST 2013
User: group
Dark Spectrum Present: No
Reference Spectrum Present: No
Number of Sampled Component Spectra: 1
Spectrometers: USB2E7196
Integration Time (usec): 35000 (USB2E7196)
Spectra Averaged: 100 (USB2E7196)
Boxcar Smoothing: 10 (USB2E7196)
Correct for Electrical Dark: No (USB2E7196)
Strobe/Lamp Enabled: No (USB2E7196)
Correct for Detector Non-linearity: No (USB2E7196)
Correct for Stray Light: No (USB2E7196)
Number of Pixels in Processed Spectrum: 2048
>>>>>Begin Processed Spectral Data<<<<<
339.09	0.00
339.48	214.12
339.86	215.15
340.24	216.65
340.63	218.15
341.01	220.43
341.39	221.12
341.78	222.87
342.16	223.73
342.54	224.35
342.93	212.48
343.31	223.22
343.69	223.74
344.07	224.25
344.46	224.69
344.84	225.09
345.22	225.32
345.60	225.57
345.99	225.73
346.37	225.86
346.75	225.93
347.13	226.00
347.52	226.07
347.90	226.13
348.28	226.15
348.66	226.18
349.05	226.17
349.43	226.19
349.81	226.22
350.19	226.27
350.57	226.34
350.96	226.43
351.34	226.50
351.72	226.59
352.10	226.66
352.48	226.72
352.87	226.78
353.25	226.86
353.63	226.92
354.01	226.97
354.39	227.04
354.77	227.11
355.15	227.23
355.54	227.30
355.92	227.34
356.30	227.40
356.68	227.51
357.06	227.58
357.44	227.63
357.82	227.71
358.20	227.78
358.58	227.83
358.97	227.89
359.35	227.97
359.73	228.03
360.11	228.09
360.49	228.16
360.87	228.20
361.25	228.26
361.63	228.33
362.01	228.38
362.39	228.40
362.77	228.44
363.15	228.42
363.53	228.46
363.91	228.50
364.29	228.52
364.67	228.45
365.05	228.46
365.43	228.49
365.81	228.48
366.19	228.54
366.57	228.57
366.95	228.54
367.33	228.50
367.71	228.52
368.09	228.50
368.47	228.45
368.85	228.42
369.23	228.43
369.61	228.36
369.99	228.33
370.37	228.32
370.75	228.36
371.13	228.32
371.51	228.25
371.89	228.22
372.27	228.20
372.65	228.17
373.03	228.13
373.41	228.06
373.78	228.00
374.16	227.91
374.54	227.86
374.92	227.79
375.30	227.73
375.68	227.63
376.06	227.59
376.44	227.53
376.82	227.45
377.19	227.39
377.57	227.34
377.95	227.28
378.33	227.25
378.71	227.09
379.09	227.04
379.47	226.99
379.84	226.90
380.22	226.82
380.60	226.74
380.98	226.69
381.36	226.65
381.73	226.59
382.11	226.54
382.49	226.48
382.87	226.42
383.25	226.36
383.62	226.45
384.00	226.39
384.38	226.35
384.76	226.33
385.13	226.34
385.51	226.29
385.89	226.24
386.27	226.16
386.64	226.16
387.02	226.10
387.40	226.05
387.78	226.03
388.15	225.99
388.53	225.97
388.91	225.95
389.29	225.89
389.66	225.87
390.04	225.84
390.42	225.82
390.79	225.81
391.17	225.77
391.55	225.65
391.92	225.62
392.30	225.63
392.68	225.63
393.05	225.59
393.43	225.58
393.81	225.55
394.18	225.54
394.56	225.55
394.94	225.56
395.31	225.56
395.69	225.59
396.06	225.61
396.44	225.65
396.82	225.66
397.19	225.74
397.57	225.78
397.95	225.81
398.32	225.80
398.70	225.86
399.07	225.96
399.45	225.99
399.82	226.06
400.20	226.09
400.58	226.15
400.95	226.19
401.33	226.28
401.70	226.46
402.08	226.57
402.45	226.65
402.83	226.77
403.20	226.88
403.58	226.98
403.95	227.12
404.33	227.24
404.71	227.36
405.08	227.53
405.46	227.67
405.83	227.79
406.21	227.96
406.58	228.14
406.96	228.30
407.33	228.47
407.70	228.65
408.08	228.92
408.45	229.14
408.83	229.38
409.20	229.59
409.58	229.78
409.95	230.02
410.33	230.27
410.70	230.53
411.08	230.81
411.45	231.15
411.82	231.44
412.20	231.79
412.57	232.19
412.95	232.47
413.32	232.86
413.69	233.29
414.07	233.71
414.44	234.18
414.82	234.64
415.19	235.19
415.56	235.74
415.94	236.28
416.31	236.92
416.68	237.52
417.06	238.22
417.43	238.91
417.81	239.69
418.18	240.47
418.55	241.32
418.93	242.20
419.30	243.08
419.67	244.02
420.04	244.97
420.42	245.97
420.79	247.21
421.16	248.37
421.54	249.59
421.91	250.85
422.28	252.12
422.66	253.45
423.03	254.77
423.40	256.11
423.77	257.53
424.15	258.92
424.52	260.40
424.89	262.00
425.26	263.54
425.64	265.02
426.01	266.64
426.38	268.29
426.75	269.98
427.13	271.70
427.50	273.51
427.87	275.36
428.24	277.18
428.61	278.88
428.99	280.84
429.36	282.93
429.73	284.96
430.10	286.98
430.47	289.05
430.85	291.15
431.22	293.40
431.59	295.77
431.96	298.07
432.33	300.53
432.70	302.88
433.08	305.67
433.45	308.26
433.82	310.81
434.19	313.67
434.56	316.49
434.93	319.14
435.30	321.73
435.68	324.64
436.05	327.55
436.42	330.32
436.79	332.83
437.16	335.47
437.53	338.30
437.90	341.06
438.27	343.81
438.64	346.60
439.01	349.11
439.38	351.35
439.75	353.48
440.13	356.01
440.50	358.40
440.87	360.24
441.24	362.19
441.61	364.39
441.98	365.89
442.35	367.68
442.72	369.53
443.09	371.36
443.46	372.30
443.83	372.86
444.20	373.38
444.57	374.20
444.94	374.50
445.31	374.83
445.68	375.18
446.05	375.24
446.42	374.86
446.79	374.46
447.16	373.99
447.53	373.66
447.90	372.49
448.27	371.31
448.64	369.72
449.01	368.59
449.37	366.65
449.74	364.73
450.11	362.46
450.48	359.97
450.85	357.41
451.22	355.32
451.59	353.26
451.96	351.30
452.33	348.70
452.70	346.33
453.07	343.54
453.43	340.64
453.80	337.88
454.17	335.21
454.54	332.76
454.91	330.07
455.28	327.43
455.65	324.94
456.02	322.48
456.38	320.36
456.75	317.69
457.12	315.39
457.49	313.20
457.86	311.04
458.23	309.20
458.59	307.20
458.96	305.09
459.33	303.25
459.70	301.39
460.07	299.92
460.43	298.21
460.80	296.59
461.17	295.13
461.54	293.64
461.91	292.26
462.27	290.75
462.64	289.49
463.01	288.15
463.38	286.89
463.74	285.54
464.11	284.36
464.48	283.32
464.85	282.24
465.21	281.37
465.58	280.42
465.95	279.33
466.32	278.41
466.68	277.53
467.05	276.70
467.42	275.83
467.78	274.88
468.15	274.04
468.52	273.38
468.88	272.56
469.25	271.79
469.62	271.16
469.98	270.50
470.35	269.88
470.72	269.26
471.08	268.61
471.45	268.08
471.82	267.55
472.18	266.99
472.55	266.57
472.92	266.06
473.28	265.62
473.65	265.20
474.02	264.79
474.38	264.44
474.75	264.05
475.11	263.70
475.48	263.45
475.85	263.23
476.21	262.99
476.58	262.81
476.94	262.69
477.31	262.49
477.67	262.37
478.04	262.28
478.41	262.25
478.77	262.28
479.14	262.20
479.50	262.23
479.87	262.30
480.23	262.40
480.60	262.50
480.96	262.59
481.33	262.84
481.69	263.00
482.06	263.19
482.42	263.44
482.79	263.69
483.15	264.02
483.52	264.40
483.88	264.76
484.25	265.16
484.61	265.60
484.98	266.08
485.34	266.66
485.71	267.22
486.07	267.82
486.44	268.40
486.80	269.14
487.17	269.86
487.53	270.66
487.90	271.51
488.26	272.44
488.62	273.45
488.99	274.40
489.35	275.47
489.72	276.61
490.08	277.81
490.44	279.10
490.81	280.43
491.17	281.78
491.54	283.29
491.90	284.88
492.26	286.53
492.63	288.28
492.99	290.04
493.36	291.97
493.72	294.01
494.08	296.12
494.45	298.36
494.81	300.79
495.17	303.24
495.54	305.81
495.90	308.54
496.26	311.34
496.63	314.35
496.99	317.48
497.35	320.75
497.72	324.11
498.08	327.60
498.44	331.30
498.80	335.22
499.17	339.25
499.53	343.45
499.89	347.81
500.26	352.30
500.62	356.96
500.98	361.90
501.34	367.03
501.71	372.35
502.07	377.83
502.43	383.32
502.79	389.16
503.16	395.22
503.52	401.45
503.88	407.87
504.24	414.48
504.60	421.35
504.97	428.47
505.33	435.82
505.69	443.54
506.05	451.29
506.41	459.25
506.78	467.40
507.14	475.81
507.50	484.49
507.86	493.50
508.22	502.72
508.59	511.92
508.95	521.52
509.31	531.27
509.67	541.32
510.03	551.70
510.39	562.26
510.75	573.08
511.12	584.00
511.48	595.25
511.84	606.68
512.20	618.19
512.56	630.17
512.92	642.39
513.28	654.73
513.64	667.24
514.00	679.85
514.37	692.71
514.73	705.80
515.09	718.83
515.45	732.19
515.81	745.70
516.17	759.72
516.53	773.76
516.89	788.03
517.25	802.19
517.61	816.62
517.97	831.01
518.33	845.34
518.69	860.11
519.05	875.07
519.41	890.26
519.77	905.77
520.13	921.11
520.49	936.45
520.85	951.82
521.21	967.48
521.57	983.74
521.93	999.48
522.29	1015.83
522.65	1032.05
523.01	1048.13
523.37	1064.12
523.73	1080.16
524.09	1096.21
524.45	1112.40
524.81	1128.99
525.17	1145.71
525.53	1162.58
525.89	1179.52
526.25	1196.34
526.61	1212.62
526.97	1229.24
527.33	1245.69
527.68	1262.24
528.04	1278.66
528.40	1295.11
528.76	1312.06
529.12	1328.49
529.48	1345.41
529.84	1361.35
530.20	1377.85
530.56	1394.83
530.91	1412.22
531.27	1428.87
531.63	1445.30
531.99	1461.80
532.35	1477.72
532.71	1493.52
533.07	1509.71
533.42	1525.52
533.78	1541.58
534.14	1557.89
534.50	1573.22
534.86	1588.97
535.21	1604.00
535.57	1619.85
535.93	1635.46
536.29	1650.34
536.65	1665.37
537.00	1680.04
537.36	1695.23
537.72	1709.82
538.08	1724.24
538.44	1738.07
538.79	1751.89
539.15	1765.37
539.51	1779.05
539.87	1793.28
540.22	1806.93
540.58	1820.60
540.94	1833.85
541.29	1846.54
541.65	1859.05
542.01	1872.13
542.37	1884.37
542.72	1896.95
543.08	1908.63
543.44	1920.85
543.79	1931.95
544.15	1942.86
544.51	1954.42
544.87	1965.40
545.22	1976.16
545.58	1986.33
545.94	1995.95
546.29	2005.89
546.65	2015.88
547.01	2025.09
547.36	2033.78
547.72	2042.21
548.07	2049.98
548.43	2058.14
548.79	2066.14
549.14	2073.67
549.50	2080.94
549.86	2088.65
550.21	2095.87
550.57	2103.02
550.92	2109.62
551.28	2116.56
551.64	2123.67
551.99	2130.05
552.35	2136.09
552.70	2142.14
553.06	2147.97
553.41	2154.37
553.77	2160.35
554.13	2166.34
554.48	2172.50
554.84	2177.95
555.19	2183.29
555.55	2188.54
555.90	2192.94
556.26	2197.62
556.61	2202.33
556.97	2206.74
557.32	2210.72
557.68	2214.75
558.03	2219.08
558.39	2222.65
558.74	2227.15
559.10	2231.04
559.45	2234.81
559.81	2239.17
560.16	2243.05
560.52	2246.34
560.87	2249.71
561.23	2252.33
561.58	2255.20
561.94	2257.63
562.29	2260.03
562.64	2262.68
563.00	2265.22
563.35	2268.68
563.71	2271.93
564.06	2275.19
564.42	2278.01
564.77	2280.61
565.12	2282.92
565.48	2284.90
565.83	2286.92
566.19	2288.52
566.54	2289.22
566.89	2290.36
567.25	2290.87
567.60	2292.12
567.96	2293.78
568.31	2294.52
568.66	2295.71
569.02	2296.35
569.37	2296.72
569.72	2297.72
570.08	2297.91
570.43	2297.92
570.78	2297.44
571.14	2295.95
571.49	2294.75
571.84	2294.41
572.20	2293.32
572.55	2292.24
572.90	2290.59
573.26	2289.15
573.61	2287.53
573.96	2286.12
574.31	2283.26
574.67	2280.35
575.02	2276.83
575.37	2273.41
575.72	2269.69
576.08	2266.31
576.43	2263.07
576.78	2259.55
577.13	2256.46
577.49	2253.25
577.84	2249.79
578.19	2246.15
578.54	2242.71
578.90	2238.44
579.25	2232.94
579.60	2227.99
579.95	2223.07
580.30	2218.18
580.66	2213.06
581.01	2207.95
581.36	2203.03
581.71	2198.83
582.06	2194.41
582.42	2189.95
582.77	2184.95
583.12	2180.52
583.47	2175.90
583.82	2170.86
584.17	2165.61
584.53	2159.95
584.88	2154.50
585.23	2148.97
585.58	2143.46
585.93	2137.94
586.28	2133.23
586.63	2128.32
586.98	2123.37
587.34	2118.79
587.69	2113.88
588.04	2108.74
588.39	2103.12
588.74	2096.67
589.09	2090.47
589.44	2083.83
589.79	2077.96
590.14	2072.49
590.49	2065.99
590.84	2059.63
591.19	2053.69
591.54	2047.30
591.89	2040.12
592.25	2033.35
592.60	2026.09
592.95	2018.62
593.30	2011.25
593.65	2003.66
594.00	1996.63
594.35	1989.46
594.70	1981.47
595.05	1974.36
595.40	1967.10
595.75	1959.80
596.10	1953.55
596.45	1946.91
596.80	1940.73
597.15	1934.03
597.50	1926.84
597.85	1920.40
598.19	1913.88
598.54	1906.77
598.89	1900.21
599.24	1894.30
599.59	1887.67
599.94	1881.50
600.29	1875.19
600.64	1868.65
600.99	1861.43
601.34	1854.60
601.69	1847.67
602.04	1840.82
602.39	1833.55
602.74	1826.78
603.08	1819.94
603.43	1813.30
603.78	1805.93
604.13	1798.65
604.48	1791.37
604.83	1784.48
605.18	1777.52
605.53	1769.50
605.87	1761.61
606.22	1754.36
606.57	1746.33
606.92	1739.09
607.27	1732.02
607.62	1725.13
607.96	1717.93
608.31	1711.20
608.66	1703.64
609.01	1696.15
609.36	1688.54
609.70	1680.51
610.05	1672.46
610.40	1664.79
610.75	1656.39
611.10	1648.89
611.44	1640.63
611.79	1632.60
612.14	1624.04
612.49	1614.80
612.83	1606.40
613.18	1598.21
613.53	1590.06
613.88	1581.53
614.22	1573.11
614.57	1564.47
614.92	1556.43
615.27	1548.92
615.61	1540.60
615.96	1532.45
616.31	1524.64
616.65	1517.34
617.00	1509.69
617.35	1501.88
617.70	1493.52
618.04	1485.03
618.39	1476.84
618.74	1469.23
619.08	1460.94
619.43	1453.27
619.78	1446.48
620.12	1439.35
620.47	1431.85
620.82	1423.70
621.16	1416.39
621.51	1408.85
621.85	1401.22
622.20	1392.69
622.55	1384.21
622.89	1376.37
623.24	1368.72
623.59	1361.42
623.93	1353.90
624.28	1346.68
624.62	1339.27
624.97	1332.20
625.32	1325.41
625.66	1318.34
626.01	1311.08
626.35	1303.66
626.70	1295.91
627.04	1288.11
627.39	1280.30
627.73	1272.94
628.08	1266.07
628.43	1258.72
628.77	1251.38
629.12	1243.76
629.46	1236.55
629.81	1229.19
630.15	1221.94
630.50	1214.65
630.84	1206.42
631.19	1198.45
631.53	1191.04
631.88	1183.47
632.22	1175.83
632.57	1168.53
632.91	1160.90
633.26	1153.62
633.60	1146.26
633.95	1139.12
634.29	1132.09
634.64	1125.43
634.98	1118.04
635.32	1110.81
635.67	1104.19
636.01	1097.54
636.36	1090.71
636.70	1084.15
637.05	1077.64
637.39	1071.20
637.73	1064.61
638.08	1058.69
638.42	1052.60
638.77	1046.09
639.11	1039.43
639.45	1032.94
639.80	1026.22
640.14	1019.83
640.49	1013.22
640.83	1006.85
641.17	1000.60
641.52	994.24
641.86	987.69
642.20	981.73
642.55	975.48
642.89	968.94
643.23	962.37
643.58	956.64
643.92	950.51
644.26	944.36
644.61	938.27
644.95	932.26
645.29	925.67
645.64	919.03
645.98	912.69
646.32	906.92
646.66	900.92
647.01	895.17
647.35	889.43
647.69	883.55
648.04	878.04
648.38	872.25
648.72	866.25
649.06	860.26
649.41	854.50
649.75	848.58
650.09	842.74
650.43	836.93
650.78	830.81
651.12	824.84
651.46	819.19
651.80	813.46
652.14	808.08
652.49	802.78
652.83	797.64
653.17	791.89
653.51	786.17
653.85	780.77
654.20	775.18
654.54	769.22
654.88	763.46
655.22	757.51
655.56	751.81
655.90	746.37
656.25	741.15
656.59	735.67
656.93	730.46
657.27	725.27
657.61	719.82
657.95	714.68
658.29	709.53
658.64	704.19
658.98	698.88
659.32	693.37
659.66	688.06
660.00	682.71
660.34	677.78
660.68	672.81
661.02	667.80
661.36	663.08
661.70	658.53
662.05	654.25
662.39	650.00
662.73	645.56
663.07	641.16
663.41	636.73
663.75	632.23
664.09	627.73
664.43	623.41
664.77	619.30
665.11	615.08
665.45	610.98
665.79	606.89
666.13	602.74
666.47	598.64
666.81	594.56
667.15	590.43
667.49	586.52
667.83	582.64
668.17	578.74
668.51	574.64
668.85	570.63
669.19	566.76
669.53	562.94
669.87	559.09
670.21	555.38
670.55	551.73
670.89	548.33
671.23	544.83
671.57	541.19
671.91	537.64
672.25	534.07
672.58	530.54
672.92	527.13
673.26	523.96
673.60	520.78
673.94	517.59
674.28	514.65
674.62	511.76
674.96	508.75
675.30	505.79
675.64	502.88
675.97	500.08
676.31	497.18
676.65	494.23
676.99	491.51
677.33	488.63
677.67	485.76
678.01	482.66
678.34	479.68
678.68	476.90
679.02	474.09
679.36	471.33
679.70	468.59
680.04	465.88
680.37	463.02
680.71	460.28
681.05	457.74
681.39	455.02
681.73	452.31
682.06	449.75
682.40	447.19
682.74	444.63
683.08	442.08
683.42	439.44
683.75	436.95
684.09	434.35
684.43	431.88
684.77	429.41
685.10	427.09
685.44	424.84
685.78	422.53
686.12	420.24
686.45	417.98
686.79	415.76
687.13	413.57
687.46	411.37
687.80	409.22
688.14	406.97
688.48	404.92
688.81	402.70
689.15	400.52
689.49	398.40
689.82	396.29
690.16	394.22
690.50	392.32
690.83	390.38
691.17	388.40
691.51	386.50
691.84	384.58
692.18	382.69
692.52	380.68
692.85	378.71
693.19	376.86
693.52	374.98
693.86	373.08
694.20	371.23
694.53	369.48
694.87	367.65
695.21	365.82
695.54	363.98
695.88	362.20
696.21	360.43
696.55	358.70
696.88	357.00
697.22	355.29
697.56	353.67
697.89	352.02
698.23	350.46
698.56	348.82
698.90	347.29
699.23	345.62
699.57	344.09
699.90	342.54
700.24	340.99
700.58	339.52
700.91	338.02
701.25	336.58
701.58	335.19
701.92	333.81
702.25	332.42
702.59	331.01
702.92	329.73
703.26	328.47
703.59	327.20
703.93	326.01
704.26	324.81
704.60	323.47
704.93	322.15
705.26	320.88
705.60	319.71
705.93	318.52
706.27	317.45
706.60	316.34
706.94	315.24
707.27	314.09
707.61	312.96
707.94	311.93
708.27	310.80
708.61	309.71
708.94	308.68
709.28	307.74
709.61	306.83
709.94	305.85
710.28	304.84
710.61	303.86
710.95	302.80
711.28	301.87
711.61	300.94
711.95	300.08
712.28	299.09
712.61	298.10
712.95	297.15
713.28	296.35
713.61	295.47
713.95	294.61
714.28	293.77
714.61	292.93
714.95	292.10
715.28	291.28
715.61	290.41
715.95	289.54
716.28	288.66
716.61	287.80
716.95	286.99
717.28	286.23
717.61	285.44
717.94	284.70
718.28	283.90
718.61	283.18
718.94	282.45
719.27	281.81
719.61	281.19
719.94	280.52
720.27	279.79
720.60	279.10
720.94	278.43
721.27	277.83
721.60	277.25
721.93	276.68
722.27	276.13
722.60	275.56
722.93	275.01
723.26	274.49
723.59	273.97
723.93	273.43
724.26	272.88
724.59	272.33
724.92	271.79
725.25	271.30
725.59	270.74
725.92	270.21
726.25	269.69
726.58	269.20
726.91	268.70
727.24	268.24
727.57	267.76
727.91	267.27
728.24	266.78
728.57	266.27
728.90	265.77
729.23	265.22
729.56	264.80
729.89	264.33
730.22	263.83
730.55	263.33
730.89	262.86
731.22	262.42
731.55	261.97
731.88	261.54
732.21	261.07
732.54	260.66
732.87	260.25
733.20	259.86
733.53	259.48
733.86	259.10
734.19	258.70
734.52	258.37
734.85	258.06
735.18	257.68
735.51	257.30
735.84	256.95
736.17	256.62
736.50	256.21
736.83	255.96
737.16	255.65
737.49	255.37
737.82	255.05
738.15	254.73
738.48	254.40
738.81	254.10
739.14	253.77
739.47	253.42
739.80	253.12
740.13	252.80
740.46	252.51
740.79	252.21
741.12	251.90
741.45	251.55
741.78	251.19
742.11	250.90
742.44	250.59
742.77	250.28
743.10	250.00
743.43	249.69
743.75	249.30
744.08	249.13
744.41	248.83
744.74	248.54
745.07	248.24
745.40	248.03
745.73	247.77
746.06	247.57
746.39	247.29
746.71	247.02
747.04	246.73
747.37	246.39
747.70	246.13
748.03	245.87
748.36	245.64
748.68	245.44
749.01	245.20
749.34	244.99
749.67	244.78
750.00	244.55
750.33	244.43
750.65	244.23
750.98	243.89
751.31	243.67
751.64	243.45
751.97	243.34
752.29	243.11
752.62	242.88
752.95	242.63
753.28	242.48
753.60	242.27
753.93	242.14
754.26	241.99
754.59	241.79
754.91	241.59
755.24	241.39
755.57	241.20
755.90	241.00
756.22	240.81
756.55	240.62
756.88	240.42
757.20	240.19
757.53	240.02
757.86	239.88
758.19	239.70
758.51	239.53
758.84	239.31
759.17	239.10
759.49	238.95
759.82	238.85
760.15	238.68
760.47	238.53
760.80	238.34
761.13	238.22
761.45	238.04
761.78	237.90
762.11	237.75
762.43	237.62
762.76	237.47
763.08	237.36
763.41	237.27
763.74	237.16
764.06	237.01
764.39	236.86
764.71	236.69
765.04	236.56
765.37	236.42
765.69	236.30
766.02	236.21
766.34	236.08
766.67	235.90
767.00	235.81
767.32	235.75
767.65	235.70
767.97	235.60
768.30	235.51
768.62	235.42
768.95	235.31
769.27	235.17
769.60	235.09
769.92	234.96
770.25	234.80
770.57	234.67
770.90	234.59
771.22	234.49
771.55	234.41
771.87	234.37
772.20	234.27
772.52	234.24
772.85	234.22
773.17	234.15
773.50	234.07
773.82	233.95
774.15	233.83
774.47	233.67
774.80	233.53
775.12	233.45
775.45	233.33
775.77	233.24
776.09	233.20
776.42	233.14
776.74	233.11
777.07	233.04
777.39	232.98
777.72	232.88
778.04	232.82
778.36	232.74
778.69	232.65
779.01	232.58
779.33	232.40
779.66	232.30
779.98	232.17
780.31	232.13
780.63	232.11
780.95	232.05
781.28	231.98
781.60	231.91
781.92	231.85
782.25	231.80
782.57	231.75
782.89	231.66
783.22	231.58
783.54	231.46
783.86	231.44
784.19	231.37
784.51	231.33
784.83	231.28
785.16	231.23
785.48	231.18
785.80	231.13
786.12	231.10
786.45	230.99
786.77	230.97
787.09	230.88
787.42	230.79
787.74	230.75
788.06	230.69
788.38	230.64
788.71	230.60
789.03	230.54
789.35	230.50
789.67	230.45
789.99	230.40
790.32	230.37
790.64	230.30
790.96	230.35
791.28	230.25
791.61	230.19
791.93	230.17
792.25	230.09
792.57	230.14
792.89	230.07
793.21	230.02
793.54	229.97
793.86	229.94
794.18	229.90
794.50	229.85
794.82	229.85
795.14	229.85
795.47	229.81
795.79	229.77
796.11	229.71
796.43	229.69
796.75	229.66
797.07	229.63
797.39	229.59
797.71	229.46
798.04	229.45
798.36	229.45
798.68	229.41
799.00	229.37
799.32	229.30
799.64	229.30
799.96	229.27
800.28	229.23
800.60	229.22
800.92	229.18
801.24	229.11
801.56	229.10
801.89	229.01
802.21	229.00
802.53	228.97
802.85	228.96
803.17	228.96
803.49	228.92
803.81	228.88
804.13	228.85
804.45	228.80
804.77	228.81
805.09	228.74
805.41	228.68
805.73	228.66
806.05	228.59
806.37	228.54
806.69	228.56
807.01	228.57
807.33	228.54
807.65	228.50
807.97	228.57
808.28	228.53
808.60	228.54
808.92	228.49
809.24	228.52
809.56	228.49
809.88	228.42
810.20	228.44
810.52	228.44
810.84	228.43
811.16	228.41
811.48	228.36
811.80	228.43
812.12	228.42
812.43	228.41
812.75	228.39
813.07	228.36
813.39	228.32
813.71	228.30
814.03	228.26
814.35	228.23
814.67	228.16
814.98	228.11
815.30	228.11
815.62	228.06
815.94	227.99
816.26	228.01
816.58	227.96
816.89	227.93
817.21	227.87
817.53	227.86
817.85	227.86
818.17	227.85
818.48	227.77
818.80	227.77
819.12	227.74
819.44	227.72
819.76	227.73
820.07	227.73
820.39	227.69
820.71	227.67
821.03	227.67
821.34	227.62
821.66	227.62
821.98	227.61
822.30	227.61
822.61	227.66
822.93	227.60
823.25	227.64
823.57	227.61
823.88	227.64
824.20	227.61
824.52	227.65
824.83	227.64
825.15	227.59
825.47	227.59
825.79	227.60
826.10	227.57
826.42	227.54
826.74	227.49
827.05	227.50
827.37	227.50
827.69	227.44
828.00	227.43
828.32	227.43
828.64	227.40
828.95	227.43
829.27	227.40
829.58	227.38
829.90	227.37
830.22	227.35
830.53	227.30
830.85	227.27
831.17	227.19
831.48	227.16
831.80	227.15
832.11	227.07
832.43	227.03
832.75	227.03
833.06	227.08
833.38	227.06
833.69	227.03
834.01	227.01
834.32	227.03
834.64	227.02
834.96	226.99
835.27	226.96
835.59	226.91
835.90	226.88
836.22	226.85
836.53	226.82
836.85	226.77
837.16	226.85
837.48	226.83
837.79	226.88
838.11	226.87
838.42	226.87
838.74	226.91
839.05	226.90
839.37	226.90
839.68	226.82
840.00	226.83
840.31	226.83
840.63	226.81
840.94	226.80
841.26	226.81
841.57	226.80
841.88	226.84
842.20	226.87
842.51	226.84
842.83	226.83
843.14	226.94
843.46	226.95
843.77	226.87
844.08	226.88
844.40	226.84
844.71	226.84
845.03	226.82
845.34	226.79
845.65	226.79
845.97	226.76
846.28	226.81
846.60	226.81
846.91	226.77
847.22	226.79
847.54	226.81
847.85	226.81
848.16	226.76
848.48	226.72
848.79	226.74
849.10	226.73
849.42	226.76
849.73	226.64
850.04	226.64
850.36	226.63
850.67	226.64
850.98	226.64
851.30	226.64
851.61	226.64
851.92	226.63
852.23	226.72
852.55	226.71
852.86	226.67
853.17	226.65
853.49	226.68
853.80	226.71
854.11	226.70
854.42	226.72
854.74	226.74
855.05	226.73
855.36	226.65
855.67	226.66
855.99	226.63
856.30	226.75
856.61	226.77
856.92	226.74
857.23	226.68
857.55	226.68
857.86	226.67
858.17	226.65
858.48	226.66
858.79	226.55
859.11	226.57
859.42	226.56
859.73	226.57
860.04	226.56
860.35	226.48
860.66	226.44
860.98	226.41
861.29	226.39
861.60	226.38
861.91	226.44
862.22	226.40
862.53	226.38
862.84	226.24
863.16	226.22
863.47	226.21
863.78	226.24
864.09	226.20
864.40	226.20
864.71	226.23
865.02	226.23
865.33	226.22
865.64	226.19
865.95	226.16
866.27	226.21
866.58	226.23
866.89	226.25
867.20	226.25
867.51	226.24
867.82	226.26
868.13	226.31
868.44	226.25
868.75	226.30
869.06	226.32
869.37	226.33
869.68	226.31
869.99	226.35
870.30	226.31
870.61	226.32
870.92	226.32
871.23	226.29
871.54	226.29
871.85	226.34
872.16	226.34
872.47	226.34
872.78	226.26
873.09	226.22
873.40	226.21
873.71	226.23
874.02	226.20
874.33	226.20
874.64	226.16
874.95	226.17
875.26	226.11
875.56	226.10
875.87	226.07
876.18	226.08
876.49	226.17
876.80	226.19
877.11	226.17
877.42	226.13
877.73	226.14
878.04	226.15
878.35	226.15
878.66	226.16
878.96	226.20
879.27	226.20
879.58	226.22
879.89	226.21
880.20	226.24
880.51	226.26
880.82	226.24
881.12	226.26
881.43	226.24
881.74	226.26
882.05	226.26
882.36	226.29
882.67	226.30
882.97	226.22
883.28	226.21
883.59	226.21
883.90	226.26
884.21	226.27
884.51	226.26
884.82	226.25
885.13	226.25
885.44	226.22
885.74	226.24
886.05	226.20
886.36	226.19
886.67	226.17
886.98	226.21
887.28	226.25
887.59	226.25
887.90	226.25
888.20	226.25
888.51	226.29
888.82	226.28
889.13	226.27
889.43	226.34
889.74	226.33
890.05	226.36
890.35	226.35
890.66	226.36
890.97	226.36
891.28	226.37
891.58	226.37
891.89	226.39
892.20	226.39
892.50	226.38
892.81	226.38
893.12	226.35
893.42	226.32
893.73	226.32
894.04	226.32
894.34	226.32
894.65	226.35
894.95	226.32
895.26	226.33
895.57	226.38
895.87	226.28
896.18	226.29
896.48	226.30
896.79	226.29
897.10	226.28
897.40	226.29
897.71	226.29
898.01	226.27
898.32	226.28
898.63	226.26
898.93	226.28
899.24	226.30
899.54	226.32
899.85	226.29
900.15	226.30
900.46	226.27
900.76	226.30
901.07	226.27
901.38	226.29
901.68	226.31
901.99	226.27
902.29	226.30
902.60	226.30
902.90	226.30
903.21	226.32
903.51	226.28
903.82	226.30
904.12	226.30
904.43	226.32
904.73	226.31
905.03	226.30
905.34	226.39
905.64	226.39
905.95	226.38
906.25	226.35
906.56	226.35
906.86	226.33
907.17	226.31
907.47	226.33
907.77	226.29
908.08	226.21
908.38	226.20
908.69	226.17
908.99	226.19
909.30	226.15
909.60	226.12
909.90	226.13
910.21	226.11
910.51	226.09
910.81	226.08
911.12	226.09
911.42	226.09
911.73	226.01
912.03	226.01
912.33	226.01
912.64	226.03
912.94	225.99
913.24	225.99
913.55	226.00
913.85	225.98
914.15	226.03
914.46	226.08
914.76	226.08
915.06	226.09
915.37	226.03
915.67	226.03
915.97	226.05
916.27	226.04
916.58	226.02
916.88	226.02
917.18	226.03
917.49	226.10
917.79	226.10
918.09	226.08
918.39	226.09
918.70	226.11
919.00	226.12
919.30	226.19
919.60	226.18
919.91	226.16
920.21	226.16
920.51	226.12
920.81	226.11
921.12	226.10
921.42	226.11
921.72	226.17
922.02	226.18
922.32	226.18
922.63	226.21
922.93	226.28
923.23	226.28
923.53	226.25
923.83	226.20
924.13	226.20
924.44	226.21
924.74	226.25
925.04	226.26
925.34	226.25
925.64	226.19
925.94	226.22
926.24	226.25
926.55	226.25
926.85	226.26
927.15	226.27
927.45	226.28
927.75	226.27
928.05	226.22
928.35	226.24
928.65	226.24
928.95	226.23
929.26	226.16
929.56	226.17
929.86	226.18
930.16	226.16
930.46	226.17
930.76	226.18
931.06	226.11
931.36	226.10
931.66	226.13
931.96	226.13
932.26	226.13
932.56	226.11
932.86	226.13
933.16	226.12
933.46	226.08
933.76	226.07
934.06	226.07
934.36	226.12
934.66	226.12
934.96	226.12
935.26	226.12
935.56	226.16
935.86	226.12
936.16	226.12
936.46	226.11
936.76	226.08
937.06	226.05
937.36	226.07
937.66	226.06
937.96	226.02
938.26	226.01
938.56	225.99
938.86	225.96
939.16	226.00
939.46	226.01
939.76	226.05
940.06	226.04
940.35	226.05
940.65	225.98
940.95	225.96
941.25	225.94
941.55	225.93
941.85	225.93
942.15	225.97
942.45	225.99
942.75	226.00
943.04	226.01
943.34	226.05
943.64	226.04
943.94	226.04
944.24	226.03
944.54	226.04
944.84	226.04
945.13	226.07
945.43	226.04
945.73	226.06
946.03	226.02
946.33	226.00
946.62	225.97
946.92	225.97
947.22	225.95
947.52	225.98
947.82	226.00
948.11	225.95
948.41	225.90
948.71	225.86
949.01	225.84
949.31	225.82
949.60	225.79
949.90	225.81
950.20	225.78
950.50	225.79
950.79	225.78
951.09	225.79
951.39	225.73
951.69	225.72
951.98	225.74
952.28	225.78
952.58	225.78
952.87	225.80
953.17	225.82
953.47	225.82
953.76	225.81
954.06	225.81
954.36	225.82
954.66	225.84
954.95	225.90
955.25	225.95
955.55	225.96
955.84	225.96
956.14	225.97
956.44	226.01
956.73	226.01
957.03	226.04
957.32	226.07
957.62	226.10
957.92	226.12
958.21	226.06
958.51	226.15
958.81	226.17
959.10	226.18
959.40	226.22
959.69	226.27
959.99	226.29
960.29	226.26
960.58	226.28
960.88	226.32
961.17	226.27
961.47	226.24
961.76	226.27
962.06	226.28
962.36	226.28
962.65	226.25
962.95	226.23
963.24	226.21
963.54	226.20
963.83	226.19
964.13	226.19
964.42	226.20
964.72	226.12
965.01	226.12
965.31	226.09
965.60	226.09
965.90	226.16
966.19	226.14
966.49	226.17
966.78	226.15
967.08	226.11
967.37	226.12
967.67	226.10
967.96	226.11
968.26	226.11
968.55	226.12
968.85	226.16
969.14	226.19
969.43	226.19
969.73	226.19
970.02	226.22
970.32	226.20
970.61	226.20
970.91	226.16
971.20	226.13
971.49	226.17
971.79	226.09
972.08	225.98
972.38	225.97
972.67	225.93
972.96	225.95
973.26	225.96
973.55	225.98
973.85	225.99
974.14	225.98
974.43	225.97
974.73	225.98
975.02	225.92
975.31	225.93
975.61	225.91
975.90	225.88
976.19	225.86
976.49	225.85
976.78	225.86
977.07	225.84
977.37	225.87
977.66	225.85
977.95	225.88
978.24	225.91
978.54	225.90
978.83	225.90
979.12	225.88
979.42	225.89
979.71	225.86
980.00	225.86
980.29	225.87
980.59	225.82
980.88	225.82
981.17	225.83
981.46	225.79
981.76	225.79
982.05	225.83
982.34	225.85
982.63	225.85
982.93	225.88
983.22	225.91
983.51	225.91
983.80	225.92
984.09	225.97
984.39	225.95
984.68	225.95
984.97	225.95
985.26	225.96
985.55	225.94
985.85	225.95
986.14	225.95
986.43	225.96
986.72	225.99
987.01	225.94
987.30	225.95
987.59	225.95
987.89	225.95
988.18	225.93
988.47	225.94
988.76	225.92
989.05	225.88
989.34	225.88
989.63	225.91
989.92	225.93
990.22	225.90
990.51	225.89
990.80	225.89
991.09	225.92
991.38	225.94
991.67	225.91
991.96	225.92
992.25	225.95
992.54	225.92
992.83	225.93
993.12	225.91
993.41	225.93
993.70	225.99
993.99	226.01
994.28	226.05
994.58	226.03
994.87	226.01
995.16	226.03
995.45	226.03
995.74	226.01
996.03	226.00
996.32	225.98
996.61	226.03
996.90	226.03
997.19	226.02
997.48	226.01
997.77	226.05
998.06	226.03
998.34	226.01
998.63	226.02
998.92	226.03
999.21	226.06
999.50	226.05
999.79	226.04
1000.08	226.06
1000.37	226.04
1000.66	226.01
1000.95	226.03
1001.24	226.00
1001.53	226.00
1001.82	226.01
1002.11	225.96
1002.40	225.97
1002.68	225.96
1002.97	226.02
1003.26	226.01
1003.55	226.00
1003.84	225.98
1004.13	226.02
1004.42	226.00
1004.71	225.99
1004.99	225.97
1005.28	226.02
1005.57	226.00
1005.86	225.96
1006.15	225.91
1006.44	225.91
1006.72	225.95
1007.01	225.94
1007.30	225.95
1007.59	225.95
1007.88	225.93
1008.17	225.98
1008.45	225.96
1008.74	225.96
1009.03	225.91
1009.32	225.91
1009.60	225.91
1009.89	225.98
1010.18	225.95
1010.47	225.93
1010.76	225.93
1011.04	225.92
1011.33	225.90
1011.62	225.92
1011.91	225.93
1012.19	225.95
1012.48	225.94
1012.77	225.94
1013.05	226.01
1013.34	226.01
1013.63	225.99
1013.92	225.99
1014.20	225.95
1014.49	225.94
1014.78	225.95
1015.06	225.91
1015.35	225.88
1015.64	225.89
1015.92	225.85
1016.21	225.85
1016.50	225.85
1016.78	225.87
1017.07	225.88
1017.36	225.88
1017.64	225.83
1017.93	225.86
1018.22	225.86
1018.50	225.85
1018.79	225.86
1019.08	225.79
1019.36	225.77
1019.65	225.76
1019.93	225.80
1020.22	225.84
1020.51	225.87
1020.79	225.80
1021.08	226.17
1021.36	225.60
1021.65	226.21
1021.94	225.44
1022.22	225.49
1022.51	225.41
1022.79	226.61
1023.08	226.13
1023.36	226.40
1023.65	225.04
>>>>>End Processed Spectral Data<<<<<
