SpectraSuite Data File
++++++++++++++++++++++++++++++++++++
Date: Fri Feb 01 15:40:50 EST 2013
User: group
Dark Spectrum Present: No
Reference Spectrum Present: No
Number of Sampled Component Spectra: 1
Spectrometers: USB2E7196
Integration Time (usec): 35000 (USB2E7196)
Spectra Averaged: 100 (USB2E7196)
Boxcar Smoothing: 10 (USB2E7196)
Correct for Electrical Dark: No (USB2E7196)
Strobe/Lamp Enabled: No (USB2E7196)
Correct for Detector Non-linearity: No (USB2E7196)
Correct for Stray Light: No (USB2E7196)
Number of Pixels in Processed Spectrum: 2048
>>>>>Begin Processed Spectral Data<<<<<
339.09	0.00
339.48	214.93
339.86	216.26
340.24	218.07
340.63	219.32
341.01	221.80
341.39	221.51
341.78	223.03
342.16	224.42
342.54	225.30
342.93	213.28
343.31	224.07
343.69	224.59
344.07	225.06
344.46	225.47
344.84	225.83
345.22	226.09
345.60	226.36
345.99	226.52
346.37	226.64
346.75	226.72
347.13	226.76
347.52	226.81
347.90	226.88
348.28	226.89
348.66	226.91
349.05	226.87
349.43	226.89
349.81	226.93
350.19	226.97
350.57	227.02
350.96	227.08
351.34	227.15
351.72	227.25
352.10	227.33
352.48	227.40
352.87	227.44
353.25	227.47
353.63	227.52
354.01	227.57
354.39	227.66
354.77	227.71
355.15	227.80
355.54	227.89
355.92	227.95
356.30	228.04
356.68	228.20
357.06	228.28
357.44	228.33
357.82	228.37
358.20	228.45
358.58	228.50
358.97	228.57
359.35	228.65
359.73	228.72
360.11	228.79
360.49	228.82
360.87	228.88
361.25	228.96
361.63	229.05
362.01	229.13
362.39	229.15
362.77	229.23
363.15	229.26
363.53	229.29
363.91	229.29
364.29	229.31
364.67	229.21
365.05	229.23
365.43	229.25
365.81	229.27
366.19	229.32
366.57	229.35
366.95	229.37
367.33	229.34
367.71	229.33
368.09	229.32
368.47	229.31
368.85	229.30
369.23	229.29
369.61	229.20
369.99	229.18
370.37	229.14
370.75	229.15
371.13	229.07
371.51	229.02
371.89	229.00
372.27	228.96
372.65	228.93
373.03	228.87
373.41	228.81
373.78	228.78
374.16	228.67
374.54	228.57
374.92	228.47
375.30	228.42
375.68	228.37
376.06	228.31
376.44	228.23
376.82	228.18
377.19	228.10
377.57	228.05
377.95	228.00
378.33	227.94
378.71	227.83
379.09	227.80
379.47	227.74
379.84	227.65
380.22	227.57
380.60	227.48
380.98	227.40
381.36	227.34
381.73	227.27
382.11	227.22
382.49	227.19
382.87	227.16
383.25	227.10
383.62	227.11
384.00	227.02
384.38	227.01
384.76	226.97
385.13	226.95
385.51	226.91
385.89	226.84
386.27	226.79
386.64	226.74
387.02	226.67
387.40	226.64
387.78	226.63
388.15	226.58
388.53	226.57
388.91	226.55
389.29	226.50
389.66	226.51
390.04	226.46
390.42	226.46
390.79	226.39
391.17	226.37
391.55	226.25
391.92	226.28
392.30	226.28
392.68	226.24
393.05	226.20
393.43	226.22
393.81	226.25
394.18	226.25
394.56	226.27
394.94	226.33
395.31	226.31
395.69	226.32
396.06	226.37
396.44	226.41
396.82	226.43
397.19	226.55
397.57	226.56
397.95	226.66
398.32	226.68
398.70	226.78
399.07	226.86
399.45	226.90
399.82	226.96
400.20	227.02
400.58	227.14
400.95	227.23
401.33	227.33
401.70	227.46
402.08	227.60
402.45	227.69
402.83	227.84
403.20	227.97
403.58	228.08
403.95	228.22
404.33	228.35
404.71	228.48
405.08	228.68
405.46	228.79
405.83	228.91
406.21	229.09
406.58	229.25
406.96	229.42
407.33	229.62
407.70	229.84
408.08	230.05
408.45	230.26
408.83	230.49
409.20	230.72
409.58	230.95
409.95	231.14
410.33	231.43
410.70	231.64
411.08	231.93
411.45	232.26
411.82	232.56
412.20	232.92
412.57	233.35
412.95	233.59
413.32	234.05
413.69	234.46
414.07	234.86
414.44	235.30
414.82	235.76
415.19	236.32
415.56	236.85
415.94	237.42
416.31	238.03
416.68	238.63
417.06	239.29
417.43	239.93
417.81	240.77
418.18	241.54
418.55	242.42
418.93	243.29
419.30	244.17
419.67	245.10
420.04	246.05
420.42	247.04
420.79	248.26
421.16	249.36
421.54	250.56
421.91	251.81
422.28	253.10
422.66	254.47
423.03	255.78
423.40	257.10
423.77	258.52
424.15	259.94
424.52	261.45
424.89	263.06
425.26	264.61
425.64	266.04
426.01	267.64
426.38	269.26
426.75	270.92
427.13	272.64
427.50	274.45
427.87	276.32
428.24	278.20
428.61	279.89
428.99	281.86
429.36	284.01
429.73	286.10
430.10	288.11
430.47	290.12
430.85	292.24
431.22	294.50
431.59	296.89
431.96	299.15
432.33	301.61
432.70	304.05
433.08	306.87
433.45	309.51
433.82	312.13
434.19	315.03
434.56	317.89
434.93	320.53
435.30	323.15
435.68	326.01
436.05	328.88
436.42	331.70
436.79	334.21
437.16	336.84
437.53	339.67
437.90	342.45
438.27	345.21
438.64	348.07
439.01	350.63
439.38	352.84
439.75	355.00
440.13	357.53
440.50	359.83
440.87	361.68
441.24	363.61
441.61	365.75
441.98	367.21
442.35	368.98
442.72	370.85
443.09	372.67
443.46	373.71
443.83	374.26
444.20	374.75
444.57	375.56
444.94	375.80
445.31	376.13
445.68	376.54
446.05	376.62
446.42	376.21
446.79	375.79
447.16	375.41
447.53	375.10
447.90	373.90
448.27	372.74
448.64	371.16
449.01	370.02
449.37	368.04
449.74	366.17
450.11	363.90
450.48	361.46
450.85	358.93
451.22	356.73
451.59	354.70
451.96	352.78
452.33	350.25
452.70	347.95
453.07	345.10
453.43	342.15
453.80	339.37
454.17	336.65
454.54	334.06
454.91	331.27
455.28	328.59
455.65	326.12
456.02	323.66
456.38	321.49
456.75	318.83
457.12	316.58
457.49	314.34
457.86	312.19
458.23	310.32
458.59	308.24
458.96	306.15
459.33	304.26
459.70	302.40
460.07	300.83
460.43	299.11
460.80	297.46
461.17	296.02
461.54	294.52
461.91	293.13
462.27	291.72
462.64	290.49
463.01	289.16
463.38	287.88
463.74	286.51
464.11	285.36
464.48	284.33
464.85	283.22
465.21	282.35
465.58	281.42
465.95	280.29
466.32	279.37
466.68	278.51
467.05	277.63
467.42	276.73
467.78	275.81
468.15	274.93
468.52	274.28
468.88	273.43
469.25	272.64
469.62	272.00
469.98	271.30
470.35	270.66
470.72	270.03
471.08	269.34
471.45	268.82
471.82	268.23
472.18	267.63
472.55	267.18
472.92	266.64
473.28	266.17
473.65	265.74
474.02	265.33
474.38	265.01
474.75	264.67
475.11	264.31
475.48	264.02
475.85	263.77
476.21	263.53
476.58	263.34
476.94	263.23
477.31	263.07
477.67	262.93
478.04	262.80
478.41	262.75
478.77	262.79
479.14	262.70
479.50	262.71
479.87	262.75
480.23	262.83
480.60	262.91
480.96	262.97
481.33	263.18
481.69	263.36
482.06	263.51
482.42	263.70
482.79	263.97
483.15	264.34
483.52	264.72
483.88	265.07
484.25	265.51
484.61	265.94
484.98	266.37
485.34	266.94
485.71	267.57
486.07	268.18
486.44	268.78
486.80	269.50
487.17	270.26
487.53	271.10
487.90	271.95
488.26	272.89
488.62	273.87
488.99	274.82
489.35	275.88
489.72	277.00
490.08	278.23
490.44	279.47
490.81	280.78
491.17	282.16
491.54	283.70
491.90	285.17
492.26	286.79
492.63	288.56
492.99	290.36
493.36	292.26
493.72	294.29
494.08	296.38
494.45	298.64
494.81	300.96
495.17	303.43
495.54	306.04
495.90	308.72
496.26	311.53
496.63	314.50
496.99	317.55
497.35	320.82
497.72	324.25
498.08	327.76
498.44	331.45
498.80	335.35
499.17	339.31
499.53	343.51
499.89	347.89
500.26	352.38
500.62	357.04
500.98	362.00
501.34	367.10
501.71	372.42
502.07	377.86
502.43	383.51
502.79	389.27
503.16	395.32
503.52	401.59
503.88	408.04
504.24	414.70
504.60	421.63
504.97	428.72
505.33	436.01
505.69	443.73
506.05	451.51
506.41	459.41
506.78	467.65
507.14	476.07
507.50	484.82
507.86	493.84
508.22	503.03
508.59	512.23
508.95	521.77
509.31	531.54
509.67	541.63
510.03	551.89
510.39	562.44
510.75	573.22
511.12	584.17
511.48	595.51
511.84	606.95
512.20	618.47
512.56	630.46
512.92	642.65
513.28	654.97
513.64	667.44
514.00	680.14
514.37	693.07
514.73	706.13
515.09	719.17
515.45	732.42
515.81	745.98
516.17	759.98
516.53	774.10
516.89	788.35
517.25	802.57
517.61	816.97
517.97	831.48
518.33	845.88
518.69	860.56
519.05	875.49
519.41	890.72
519.77	906.31
520.13	921.73
520.49	937.11
520.85	952.66
521.21	968.42
521.57	984.66
521.93	1000.42
522.29	1016.81
522.65	1033.05
523.01	1049.40
523.37	1065.46
523.73	1081.59
524.09	1097.64
524.45	1113.88
524.81	1130.60
525.17	1147.54
525.53	1164.47
525.89	1181.36
526.25	1198.19
526.61	1214.54
526.97	1231.22
527.33	1247.65
527.68	1264.29
528.04	1280.71
528.40	1297.26
528.76	1314.32
529.12	1330.98
529.48	1348.04
529.84	1364.16
530.20	1380.77
530.56	1397.75
530.91	1415.22
531.27	1432.05
531.63	1448.56
531.99	1465.30
532.35	1481.22
532.71	1497.07
533.07	1513.29
533.42	1529.16
533.78	1545.26
534.14	1561.63
534.50	1577.02
534.86	1593.01
535.21	1608.25
535.57	1624.33
535.93	1639.76
536.29	1654.55
536.65	1669.62
537.00	1684.13
537.36	1699.41
537.72	1713.96
538.08	1728.40
538.44	1742.16
538.79	1756.04
539.15	1769.88
539.51	1783.49
539.87	1797.84
540.22	1811.59
540.58	1825.30
540.94	1838.77
541.29	1851.76
541.65	1864.36
542.01	1877.69
542.37	1889.98
542.72	1902.42
543.08	1914.07
543.44	1926.58
543.79	1937.77
544.15	1948.70
544.51	1960.36
544.87	1971.35
545.22	1982.16
545.58	1992.27
545.94	2002.04
546.29	2011.92
546.65	2021.69
547.01	2031.04
547.36	2039.79
547.72	2048.29
548.07	2056.25
548.43	2064.43
548.79	2072.46
549.14	2079.96
549.50	2087.22
549.86	2094.83
550.21	2102.12
550.57	2109.41
550.92	2115.81
551.28	2122.91
551.64	2129.98
551.99	2136.49
552.35	2142.66
552.70	2148.81
553.06	2154.85
553.41	2161.23
553.77	2167.28
554.13	2173.28
554.48	2179.42
554.84	2184.74
555.19	2190.04
555.55	2195.00
555.90	2199.42
556.26	2204.10
556.61	2208.96
556.97	2213.17
557.32	2217.32
557.68	2221.53
558.03	2225.82
558.39	2229.65
558.74	2234.22
559.10	2238.04
559.45	2241.69
559.81	2246.00
560.16	2249.84
560.52	2253.04
560.87	2256.38
561.23	2259.01
561.58	2262.02
561.94	2264.46
562.29	2266.89
562.64	2269.52
563.00	2272.32
563.35	2275.72
563.71	2279.00
564.06	2282.25
564.42	2285.04
564.77	2287.44
565.12	2289.58
565.48	2291.29
565.83	2293.09
566.19	2294.32
566.54	2295.26
566.89	2296.41
567.25	2296.81
567.60	2298.12
567.96	2299.87
568.31	2300.74
568.66	2301.71
569.02	2302.15
569.37	2302.41
569.72	2303.20
570.08	2303.31
570.43	2303.18
570.78	2302.76
571.14	2301.21
571.49	2299.81
571.84	2299.52
572.20	2298.41
572.55	2297.38
572.90	2295.90
573.26	2294.65
573.61	2293.05
573.96	2291.24
574.31	2288.29
574.67	2285.41
575.02	2281.73
575.37	2278.34
575.72	2274.55
576.08	2271.23
576.43	2268.02
576.78	2264.30
577.13	2261.30
577.49	2258.20
577.84	2254.82
578.19	2251.05
578.54	2247.37
578.90	2242.98
579.25	2237.41
579.60	2232.49
579.95	2227.38
580.30	2222.31
580.66	2216.98
581.01	2211.93
581.36	2206.97
581.71	2202.59
582.06	2198.00
582.42	2193.39
582.77	2188.03
583.12	2183.35
583.47	2178.59
583.82	2173.53
584.17	2168.33
584.53	2162.78
584.88	2157.08
585.23	2151.10
585.58	2145.55
585.93	2140.10
586.28	2135.40
586.63	2130.33
586.98	2125.27
587.34	2120.60
587.69	2115.69
588.04	2110.36
588.39	2104.70
588.74	2098.26
589.09	2092.07
589.44	2085.23
589.79	2079.43
590.14	2073.87
590.49	2067.31
590.84	2061.01
591.19	2054.95
591.54	2048.37
591.89	2040.72
592.25	2033.97
592.60	2026.79
592.95	2019.10
593.30	2011.77
593.65	2004.21
594.00	1997.13
594.35	1989.94
594.70	1981.87
595.05	1974.51
595.40	1967.29
595.75	1959.71
596.10	1953.47
596.45	1946.86
596.80	1940.75
597.15	1933.87
597.50	1926.65
597.85	1920.21
598.19	1913.55
598.54	1906.37
598.89	1899.89
599.24	1894.05
599.59	1887.22
599.94	1881.12
600.29	1874.82
600.64	1868.22
600.99	1860.67
601.34	1853.83
601.69	1846.75
602.04	1839.89
602.39	1832.62
602.74	1825.77
603.08	1818.99
603.43	1812.35
603.78	1804.99
604.13	1797.74
604.48	1790.46
604.83	1783.50
605.18	1776.45
605.53	1768.29
605.87	1760.25
606.22	1752.99
606.57	1745.07
606.92	1737.71
607.27	1730.40
607.62	1723.42
607.96	1715.99
608.31	1709.40
608.66	1701.77
609.01	1694.15
609.36	1686.51
609.70	1678.56
610.05	1670.40
610.40	1662.64
610.75	1654.26
611.10	1646.61
611.44	1638.16
611.79	1630.23
612.14	1621.73
612.49	1612.61
612.83	1604.30
613.18	1596.20
613.53	1588.00
613.88	1579.45
614.22	1571.26
614.57	1562.63
614.92	1554.65
615.27	1547.15
615.61	1538.83
615.96	1530.88
616.31	1523.26
616.65	1515.83
617.00	1508.24
617.35	1500.55
617.70	1492.33
618.04	1483.77
618.39	1475.53
618.74	1468.01
619.08	1459.72
619.43	1452.01
619.78	1445.07
620.12	1437.97
620.47	1430.48
620.82	1422.29
621.16	1414.95
621.51	1407.35
621.85	1399.84
622.20	1391.25
622.55	1382.96
622.89	1375.09
623.24	1367.45
623.59	1360.15
623.93	1352.75
624.28	1345.63
624.62	1338.17
624.97	1330.98
625.32	1324.24
625.66	1317.17
626.01	1310.06
626.35	1302.54
626.70	1294.85
627.04	1287.13
627.39	1279.39
627.73	1271.94
628.08	1265.11
628.43	1257.67
628.77	1250.28
629.12	1242.76
629.46	1235.69
629.81	1228.26
630.15	1221.01
630.50	1213.53
630.84	1205.40
631.19	1197.43
631.53	1189.88
631.88	1182.32
632.22	1174.62
632.57	1167.38
632.91	1159.96
633.26	1152.49
633.60	1145.23
633.95	1138.16
634.29	1131.12
634.64	1124.29
634.98	1116.98
635.32	1109.81
635.67	1103.41
636.01	1096.77
636.36	1089.87
636.70	1083.33
637.05	1076.72
637.39	1070.33
637.73	1063.91
638.08	1058.00
638.42	1052.06
638.77	1045.58
639.11	1039.01
639.45	1032.74
639.80	1026.01
640.14	1019.51
640.49	1012.91
640.83	1006.54
641.17	1000.25
641.52	993.95
641.86	987.60
642.20	981.71
642.55	975.41
642.89	968.81
643.23	962.22
643.58	956.42
643.92	950.16
644.26	944.05
644.61	938.02
644.95	931.91
645.29	925.25
645.64	918.44
645.98	912.07
646.32	906.20
646.66	900.20
647.01	894.41
647.35	888.68
647.69	882.95
648.04	877.49
648.38	871.80
648.72	865.70
649.06	859.68
649.41	853.79
649.75	847.73
650.09	841.87
650.43	836.17
650.78	830.04
651.12	824.09
651.46	818.46
651.80	812.58
652.14	807.13
652.49	801.76
652.83	796.61
653.17	790.92
653.51	785.20
653.85	779.77
654.20	774.15
654.54	768.17
654.88	762.35
655.22	756.40
655.56	750.60
655.90	745.26
656.25	739.90
656.59	734.56
656.93	729.58
657.27	724.33
657.61	718.82
657.95	713.79
658.29	708.80
658.64	703.51
658.98	698.25
659.32	692.85
659.66	687.57
660.00	682.26
660.34	677.31
660.68	672.40
661.02	667.33
661.36	662.55
661.70	658.01
662.05	653.70
662.39	649.41
662.73	645.05
663.07	640.62
663.41	636.20
663.75	631.70
664.09	627.09
664.43	622.75
664.77	618.65
665.11	614.37
665.45	610.24
665.79	606.13
666.13	602.07
666.47	597.96
666.81	593.81
667.15	589.69
667.49	585.81
667.83	582.07
668.17	578.16
668.51	574.14
668.85	570.17
669.19	566.36
669.53	562.46
669.87	558.53
670.21	554.86
670.55	551.30
670.89	547.91
671.23	544.50
671.57	541.01
671.91	537.47
672.25	533.95
672.58	530.43
672.92	527.10
673.26	523.93
673.60	520.76
673.94	517.66
674.28	514.78
674.62	511.80
674.96	508.70
675.30	505.79
675.64	502.86
675.97	500.10
676.31	497.19
676.65	494.30
676.99	491.61
677.33	488.72
677.67	485.90
678.01	482.83
678.34	479.84
678.68	476.98
679.02	474.16
679.36	471.40
679.70	468.68
680.04	465.92
680.37	463.06
680.71	460.27
681.05	457.68
681.39	454.93
681.73	452.35
682.06	449.81
682.40	447.24
682.74	444.73
683.08	442.17
683.42	439.58
683.75	437.10
684.09	434.60
684.43	432.18
684.77	429.70
685.10	427.43
685.44	425.13
685.78	422.82
686.12	420.58
686.45	418.30
686.79	415.97
687.13	413.76
687.46	411.57
687.80	409.44
688.14	407.23
688.48	405.20
688.81	402.95
689.15	400.78
689.49	398.66
689.82	396.59
690.16	394.53
690.50	392.54
690.83	390.55
691.17	388.51
691.51	386.57
691.84	384.71
692.18	382.69
692.52	380.70
692.85	378.80
693.19	376.98
693.52	375.14
693.86	373.38
694.20	371.58
694.53	369.79
694.87	367.98
695.21	366.20
695.54	364.38
695.88	362.63
696.21	360.95
696.55	359.24
696.88	357.54
697.22	355.87
697.56	354.24
697.89	352.58
698.23	351.01
698.56	349.42
698.90	347.87
699.23	346.28
699.57	344.72
699.90	343.18
700.24	341.60
700.58	340.09
700.91	338.57
701.25	337.12
701.58	335.73
701.92	334.38
702.25	333.00
702.59	331.61
702.92	330.32
703.26	328.95
703.59	327.72
703.93	326.53
704.26	325.31
704.60	324.08
704.93	322.87
705.26	321.62
705.60	320.48
705.93	319.29
706.27	318.24
706.60	317.24
706.94	316.15
707.27	314.99
707.61	313.95
707.94	312.95
708.27	311.84
708.61	310.78
708.94	309.79
709.28	308.84
709.61	307.89
709.94	306.95
710.28	305.98
710.61	305.02
710.95	303.95
711.28	303.04
711.61	302.04
711.95	301.08
712.28	300.13
712.61	299.14
712.95	298.21
713.28	297.30
713.61	296.40
713.95	295.50
714.28	294.69
714.61	293.84
714.95	292.99
715.28	292.14
715.61	291.27
715.95	290.41
716.28	289.52
716.61	288.70
716.95	287.87
717.28	287.14
717.61	286.35
717.94	285.61
718.28	284.81
718.61	284.12
718.94	283.43
719.27	282.80
719.61	282.18
719.94	281.52
720.27	280.82
720.60	280.16
720.94	279.58
721.27	278.99
721.60	278.36
721.93	277.75
722.27	277.25
722.60	276.70
722.93	276.14
723.26	275.62
723.59	275.05
723.93	274.48
724.26	273.92
724.59	273.34
724.92	272.81
725.25	272.28
725.59	271.77
725.92	271.28
726.25	270.75
726.58	270.20
726.91	269.72
727.24	269.25
727.57	268.79
727.91	268.25
728.24	267.76
728.57	267.29
728.90	266.82
729.23	266.31
729.56	265.90
729.89	265.41
730.22	264.93
730.55	264.50
730.89	264.07
731.22	263.62
731.55	263.18
731.88	262.77
732.21	262.31
732.54	261.92
732.87	261.48
733.20	261.06
733.53	260.69
733.86	260.28
734.19	259.91
734.52	259.52
734.85	259.21
735.18	258.82
735.51	258.45
735.84	258.12
736.17	257.74
736.50	257.31
736.83	257.09
737.16	256.75
737.49	256.38
737.82	256.04
738.15	255.72
738.48	255.40
738.81	255.08
739.14	254.77
739.47	254.41
739.80	254.10
740.13	253.78
740.46	253.42
740.79	253.15
741.12	252.81
741.45	252.48
741.78	252.11
742.11	251.81
742.44	251.49
742.77	251.20
743.10	250.94
743.43	250.67
743.75	250.25
744.08	250.10
744.41	249.83
744.74	249.57
745.07	249.31
745.40	249.07
745.73	248.83
746.06	248.54
746.39	248.28
746.71	248.04
747.04	247.75
747.37	247.52
747.70	247.27
748.03	247.06
748.36	246.85
748.68	246.62
749.01	246.38
749.34	246.15
749.67	245.89
750.00	245.66
750.33	245.48
750.65	245.34
750.98	245.00
751.31	244.81
751.64	244.60
751.97	244.40
752.29	244.18
752.62	243.94
752.95	243.72
753.28	243.51
753.60	243.29
753.93	243.12
754.26	242.92
754.59	242.66
754.91	242.42
755.24	242.24
755.57	242.06
755.90	241.88
756.22	241.69
756.55	241.50
756.88	241.29
757.20	241.07
757.53	240.82
757.86	240.65
758.19	240.48
758.51	240.32
758.84	240.12
759.17	239.96
759.49	239.81
759.82	239.73
760.15	239.58
760.47	239.43
760.80	239.25
761.13	239.15
761.45	239.00
761.78	238.86
762.11	238.72
762.43	238.60
762.76	238.48
763.08	238.32
763.41	238.20
763.74	238.06
764.06	237.90
764.39	237.76
764.71	237.63
765.04	237.49
765.37	237.35
765.69	237.22
766.02	237.09
766.34	236.97
766.67	236.81
767.00	236.70
767.32	236.65
767.65	236.62
767.97	236.48
768.30	236.37
768.62	236.26
768.95	236.12
769.27	235.97
769.60	235.85
769.92	235.73
770.25	235.60
770.57	235.51
770.90	235.41
771.22	235.29
771.55	235.17
771.87	235.06
772.20	234.94
772.52	234.90
772.85	234.89
773.17	234.79
773.50	234.69
773.82	234.60
774.15	234.44
774.47	234.29
774.80	234.19
775.12	234.12
775.45	234.02
775.77	233.93
776.09	233.85
776.42	233.78
776.74	233.76
777.07	233.64
777.39	233.56
777.72	233.47
778.04	233.44
778.36	233.36
778.69	233.30
779.01	233.27
779.33	233.13
779.66	232.97
779.98	232.88
780.31	232.81
780.63	232.79
780.95	232.76
781.28	232.67
781.60	232.64
781.92	232.55
782.25	232.47
782.57	232.41
782.89	232.34
783.22	232.27
783.54	232.19
783.86	232.18
784.19	232.13
784.51	232.10
784.83	232.01
785.16	231.99
785.48	231.94
785.80	231.87
786.12	231.86
786.45	231.80
786.77	231.80
787.09	231.76
787.42	231.67
787.74	231.62
788.06	231.58
788.38	231.48
788.71	231.44
789.03	231.43
789.35	231.42
789.67	231.38
789.99	231.35
790.32	231.29
790.64	231.24
790.96	231.28
791.28	231.21
791.61	231.19
791.93	231.15
792.25	231.10
792.57	231.12
792.89	231.02
793.21	230.99
793.54	230.93
793.86	230.89
794.18	230.85
794.50	230.80
794.82	230.79
795.14	230.79
795.47	230.78
795.79	230.77
796.11	230.71
796.43	230.67
796.75	230.61
797.07	230.62
797.39	230.62
797.71	230.52
798.04	230.51
798.36	230.52
798.68	230.45
799.00	230.42
799.32	230.34
799.64	230.34
799.96	230.32
800.28	230.29
800.60	230.23
800.92	230.23
801.24	230.17
801.56	230.14
801.89	230.11
802.21	230.09
802.53	230.05
802.85	230.04
803.17	230.05
803.49	230.05
803.81	230.00
804.13	229.93
804.45	229.90
804.77	229.89
805.09	229.83
805.41	229.83
805.73	229.81
806.05	229.78
806.37	229.78
806.69	229.78
807.01	229.79
807.33	229.79
807.65	229.73
807.97	229.76
808.28	229.76
808.60	229.72
808.92	229.69
809.24	229.73
809.56	229.70
809.88	229.63
810.20	229.64
810.52	229.64
810.84	229.63
811.16	229.57
811.48	229.52
811.80	229.56
812.12	229.53
812.43	229.54
812.75	229.51
813.07	229.46
813.39	229.39
813.71	229.32
814.03	229.30
814.35	229.28
814.67	229.24
814.98	229.20
815.30	229.17
815.62	229.11
815.94	229.01
816.26	229.03
816.58	228.97
816.89	228.91
817.21	228.84
817.53	228.84
817.85	228.84
818.17	228.80
818.48	228.73
818.80	228.74
819.12	228.66
819.44	228.63
819.76	228.60
820.07	228.58
820.39	228.53
820.71	228.50
821.03	228.46
821.34	228.39
821.66	228.37
821.98	228.36
822.30	228.33
822.61	228.35
822.93	228.29
823.25	228.27
823.57	228.23
823.88	228.22
824.20	228.18
824.52	228.14
824.83	228.13
825.15	228.11
825.47	228.06
825.79	228.06
826.10	228.04
826.42	227.98
826.74	227.98
827.05	227.95
827.37	227.95
827.69	227.94
828.00	227.95
828.32	227.94
828.64	227.93
828.95	227.97
829.27	227.93
829.58	227.89
829.90	227.92
830.22	227.91
830.53	227.91
830.85	227.90
831.17	227.86
831.48	227.87
831.80	227.88
832.11	227.85
832.43	227.81
832.75	227.80
833.06	227.88
833.38	227.87
833.69	227.87
834.01	227.84
834.32	227.86
834.64	227.84
834.96	227.84
835.27	227.83
835.59	227.79
835.90	227.78
836.22	227.80
836.53	227.77
836.85	227.76
837.16	227.83
837.48	227.83
837.79	227.86
838.11	227.85
838.42	227.83
838.74	227.87
839.05	227.87
839.37	227.90
839.68	227.85
840.00	227.86
840.31	227.92
840.63	227.93
840.94	227.88
841.26	227.91
841.57	227.90
841.88	227.91
842.20	227.92
842.51	227.92
842.83	227.91
843.14	228.01
843.46	228.05
843.77	228.02
844.08	228.03
844.40	228.05
844.71	228.02
845.03	228.02
845.34	227.99
845.65	228.02
845.97	227.99
846.28	227.97
846.60	227.97
846.91	227.95
847.22	227.95
847.54	228.00
847.85	227.99
848.16	227.98
848.48	227.94
848.79	227.97
849.10	227.99
849.42	228.01
849.73	227.91
850.04	227.88
850.36	227.80
850.67	227.79
850.98	227.73
851.30	227.73
851.61	227.73
851.92	227.71
852.23	227.74
852.55	227.73
852.86	227.74
853.17	227.76
853.49	227.74
853.80	227.73
854.11	227.73
854.42	227.72
854.74	227.69
855.05	227.70
855.36	227.61
855.67	227.61
855.99	227.58
856.30	227.69
856.61	227.68
856.92	227.71
857.23	227.70
857.55	227.71
857.86	227.72
858.17	227.71
858.48	227.67
858.79	227.66
859.11	227.64
859.42	227.63
859.73	227.57
860.04	227.57
860.35	227.53
860.66	227.49
860.98	227.51
861.29	227.52
861.60	227.48
861.91	227.53
862.22	227.47
862.53	227.44
862.84	227.28
863.16	227.29
863.47	227.25
863.78	227.24
864.09	227.22
864.40	227.23
864.71	227.19
865.02	227.23
865.33	227.20
865.64	227.17
865.95	227.14
866.27	227.20
866.58	227.15
866.89	227.18
867.20	227.14
867.51	227.08
867.82	227.07
868.13	227.10
868.44	227.06
868.75	227.09
869.06	227.10
869.37	227.13
869.68	227.06
869.99	227.07
870.30	227.04
870.61	227.09
870.92	227.07
871.23	227.09
871.54	227.09
871.85	227.08
872.16	227.11
872.47	227.13
872.78	227.06
873.09	227.08
873.40	227.05
873.71	227.08
874.02	227.09
874.33	227.08
874.64	227.08
874.95	227.09
875.26	227.11
875.56	227.14
875.87	227.17
876.18	227.20
876.49	227.30
876.80	227.31
877.11	227.27
877.42	227.31
877.73	227.30
878.04	227.30
878.35	227.32
878.66	227.30
878.96	227.32
879.27	227.32
879.58	227.33
879.89	227.37
880.20	227.42
880.51	227.42
880.82	227.44
881.12	227.42
881.43	227.41
881.74	227.37
882.05	227.37
882.36	227.37
882.67	227.37
882.97	227.27
883.28	227.26
883.59	227.26
883.90	227.28
884.21	227.32
884.51	227.28
884.82	227.28
885.13	227.31
885.44	227.31
885.74	227.33
886.05	227.32
886.36	227.29
886.67	227.23
886.98	227.29
887.28	227.29
887.59	227.32
887.90	227.34
888.20	227.33
888.51	227.29
888.82	227.28
889.13	227.31
889.43	227.41
889.74	227.44
890.05	227.44
890.35	227.38
890.66	227.37
890.97	227.37
891.28	227.37
891.58	227.37
891.89	227.35
892.20	227.34
892.50	227.35
892.81	227.33
893.12	227.33
893.42	227.27
893.73	227.28
894.04	227.27
894.34	227.28
894.65	227.30
894.95	227.30
895.26	227.28
895.57	227.31
895.87	227.15
896.18	227.15
896.48	227.16
896.79	227.13
897.10	227.10
897.40	227.12
897.71	227.08
898.01	227.05
898.32	227.07
898.63	227.06
898.93	227.06
899.24	227.10
899.54	227.09
899.85	227.05
900.15	227.01
900.46	227.02
900.76	227.00
901.07	227.01
901.38	227.02
901.68	227.03
901.99	226.99
902.29	227.04
902.60	227.03
902.90	227.00
903.21	227.03
903.51	227.03
903.82	227.03
904.12	227.05
904.43	227.05
904.73	226.99
905.03	227.01
905.34	227.11
905.64	227.06
905.95	227.04
906.25	227.06
906.56	227.04
906.86	227.05
907.17	227.04
907.47	227.02
907.77	226.99
908.08	226.96
908.38	226.93
908.69	226.93
908.99	226.93
909.30	226.93
909.60	226.92
909.90	226.91
910.21	226.90
910.51	226.87
910.81	226.87
911.12	226.90
911.42	226.86
911.73	226.73
912.03	226.76
912.33	226.75
912.64	226.76
912.94	226.78
913.24	226.71
913.55	226.71
913.85	226.69
914.15	226.72
914.46	226.74
914.76	226.76
915.06	226.74
915.37	226.73
915.67	226.71
915.97	226.70
916.27	226.69
916.58	226.71
916.88	226.73
917.18	226.72
917.49	226.79
917.79	226.81
918.09	226.80
918.39	226.83
918.70	226.83
919.00	226.84
919.30	226.88
919.60	226.88
919.91	226.88
920.21	226.91
920.51	226.85
920.81	226.88
921.12	226.89
921.42	226.89
921.72	226.92
922.02	226.95
922.32	227.01
922.63	227.01
922.93	227.06
923.23	227.05
923.53	227.07
923.83	227.00
924.13	227.01
924.44	227.04
924.74	227.08
925.04	227.10
925.34	227.14
925.64	227.13
925.94	227.16
926.24	227.22
926.55	227.18
926.85	227.25
927.15	227.24
927.45	227.23
927.75	227.26
928.05	227.25
928.35	227.27
928.65	227.27
928.95	227.27
929.26	227.22
929.56	227.24
929.86	227.25
930.16	227.27
930.46	227.25
930.76	227.27
931.06	227.21
931.36	227.19
931.66	227.18
931.96	227.15
932.26	227.16
932.56	227.10
932.86	227.15
933.16	227.15
933.46	227.13
933.76	227.10
934.06	227.11
934.36	227.14
934.66	227.11
934.96	227.08
935.26	227.10
935.56	227.10
935.86	227.07
936.16	227.03
936.46	227.02
936.76	227.01
937.06	226.97
937.36	226.95
937.66	226.96
937.96	226.95
938.26	226.93
938.56	226.92
938.86	226.95
939.16	226.94
939.46	226.93
939.76	226.93
940.06	226.93
940.35	226.88
940.65	226.83
940.95	226.84
941.25	226.83
941.55	226.81
941.85	226.81
942.15	226.85
942.45	226.88
942.75	226.86
943.04	226.87
943.34	226.91
943.64	226.93
943.94	226.91
944.24	226.90
944.54	226.92
944.84	226.92
945.13	226.92
945.43	226.91
945.73	226.90
946.03	226.89
946.33	226.88
946.62	226.90
946.92	226.93
947.22	226.91
947.52	226.92
947.82	226.93
948.11	226.95
948.41	226.91
948.71	226.90
949.01	226.89
949.31	226.90
949.60	226.89
949.90	226.90
950.20	226.91
950.50	226.92
950.79	226.91
951.09	226.93
951.39	226.90
951.69	226.89
951.98	226.92
952.28	226.92
952.58	226.94
952.87	226.94
953.17	226.94
953.47	226.95
953.76	226.95
954.06	226.96
954.36	226.93
954.66	226.93
954.95	226.96
955.25	226.96
955.55	226.96
955.84	226.94
956.14	226.95
956.44	226.97
956.73	226.98
957.03	227.00
957.32	227.01
957.62	227.03
957.92	227.05
958.21	227.04
958.51	227.18
958.81	227.18
959.10	227.20
959.40	227.21
959.69	227.22
959.99	227.25
960.29	227.20
960.58	227.18
960.88	227.22
961.17	227.20
961.47	227.22
961.76	227.21
962.06	227.24
962.36	227.21
962.65	227.18
962.95	227.18
963.24	227.17
963.54	227.16
963.83	227.13
964.13	227.13
964.42	227.09
964.72	227.00
965.01	227.00
965.31	226.94
965.60	226.93
965.90	226.96
966.19	226.91
966.49	226.93
966.78	226.93
967.08	226.92
967.37	226.90
967.67	226.88
967.96	226.90
968.26	226.84
968.55	226.87
968.85	226.88
969.14	226.87
969.43	226.85
969.73	226.83
970.02	226.79
970.32	226.77
970.61	226.75
970.91	226.68
971.20	226.65
971.49	226.68
971.79	226.69
972.08	226.61
972.38	226.61
972.67	226.58
972.96	226.59
973.26	226.56
973.55	226.62
973.85	226.63
974.14	226.61
974.43	226.62
974.73	226.57
975.02	226.53
975.31	226.52
975.61	226.50
975.90	226.46
976.19	226.47
976.49	226.46
976.78	226.45
977.07	226.47
977.37	226.49
977.66	226.51
977.95	226.48
978.24	226.53
978.54	226.59
978.83	226.60
979.12	226.62
979.42	226.65
979.71	226.59
980.00	226.55
980.29	226.55
980.59	226.53
980.88	226.60
981.17	226.61
981.46	226.63
981.76	226.63
982.05	226.65
982.34	226.68
982.63	226.71
982.93	226.75
983.22	226.78
983.51	226.79
983.80	226.78
984.09	226.82
984.39	226.78
984.68	226.72
984.97	226.74
985.26	226.72
985.55	226.69
985.85	226.70
986.14	226.72
986.43	226.75
986.72	226.78
987.01	226.72
987.30	226.73
987.59	226.73
987.89	226.77
988.18	226.78
988.47	226.78
988.76	226.78
989.05	226.76
989.34	226.73
989.63	226.74
989.92	226.74
990.22	226.73
990.51	226.76
990.80	226.80
991.09	226.81
991.38	226.82
991.67	226.85
991.96	226.85
992.25	226.88
992.54	226.87
992.83	226.87
993.12	226.87
993.41	226.89
993.70	226.92
993.99	226.95
994.28	226.96
994.58	226.98
994.87	226.98
995.16	226.99
995.45	227.02
995.74	226.99
996.03	226.98
996.32	227.00
996.61	226.98
996.90	226.98
997.19	226.96
997.48	226.97
997.77	226.96
998.06	226.96
998.34	226.94
998.63	226.93
998.92	226.95
999.21	226.96
999.50	226.97
999.79	226.91
1000.08	226.91
1000.37	226.88
1000.66	226.89
1000.95	226.88
1001.24	226.88
1001.53	226.87
1001.82	226.88
1002.11	226.86
1002.40	226.83
1002.68	226.90
1002.97	226.97
1003.26	226.96
1003.55	226.90
1003.84	226.90
1004.13	226.91
1004.42	226.89
1004.71	226.87
1004.99	226.83
1005.28	226.89
1005.57	226.84
1005.86	226.84
1006.15	226.81
1006.44	226.80
1006.72	226.78
1007.01	226.79
1007.30	226.79
1007.59	226.75
1007.88	226.74
1008.17	226.76
1008.45	226.71
1008.74	226.63
1009.03	226.53
1009.32	226.54
1009.60	226.58
1009.89	226.56
1010.18	226.55
1010.47	226.53
1010.76	226.54
1011.04	226.56
1011.33	226.51
1011.62	226.56
1011.91	226.53
1012.19	226.52
1012.48	226.51
1012.77	226.49
1013.05	226.52
1013.34	226.52
1013.63	226.52
1013.92	226.52
1014.20	226.49
1014.49	226.51
1014.78	226.51
1015.06	226.49
1015.35	226.45
1015.64	226.41
1015.92	226.42
1016.21	226.39
1016.50	226.39
1016.78	226.39
1017.07	226.36
1017.36	226.34
1017.64	226.27
1017.93	226.29
1018.22	226.29
1018.50	226.29
1018.79	226.31
1019.08	226.25
1019.36	226.23
1019.65	226.22
1019.93	226.27
1020.22	226.27
1020.51	226.34
1020.79	226.35
1021.08	226.25
1021.36	226.28
1021.65	226.63
1021.94	226.28
1022.22	226.14
1022.51	226.10
1022.79	227.26
1023.08	226.29
1023.36	227.63
1023.65	226.79
>>>>>End Processed Spectral Data<<<<<
