SpectraSuite Data File
++++++++++++++++++++++++++++++++++++
Date: Fri Feb 01 16:14:50 EST 2013
User: group
Dark Spectrum Present: No
Reference Spectrum Present: No
Number of Sampled Component Spectra: 1
Spectrometers: USB2E7196
Integration Time (usec): 35000 (USB2E7196)
Spectra Averaged: 100 (USB2E7196)
Boxcar Smoothing: 10 (USB2E7196)
Correct for Electrical Dark: No (USB2E7196)
Strobe/Lamp Enabled: No (USB2E7196)
Correct for Detector Non-linearity: No (USB2E7196)
Correct for Stray Light: No (USB2E7196)
Number of Pixels in Processed Spectrum: 2048
>>>>>Begin Processed Spectral Data<<<<<
339.09	0.00
339.48	214.44
339.86	215.66
340.24	216.79
340.63	218.42
341.01	221.17
341.39	220.88
341.78	222.70
342.16	223.61
342.54	224.05
342.93	212.63
343.31	223.38
343.69	223.93
344.07	224.40
344.46	224.84
344.84	225.24
345.22	225.47
345.60	225.75
345.99	225.91
346.37	226.05
346.75	226.13
347.13	226.24
347.52	226.27
347.90	226.35
348.28	226.34
348.66	226.36
349.05	226.35
349.43	226.41
349.81	226.48
350.19	226.54
350.57	226.61
350.96	226.70
351.34	226.80
351.72	226.87
352.10	226.98
352.48	227.06
352.87	227.11
353.25	227.18
353.63	227.26
354.01	227.34
354.39	227.41
354.77	227.52
355.15	227.58
355.54	227.65
355.92	227.69
356.30	227.78
356.68	227.95
357.06	228.02
357.44	228.07
357.82	228.12
358.20	228.21
358.58	228.27
358.97	228.29
359.35	228.38
359.73	228.47
360.11	228.51
360.49	228.57
360.87	228.59
361.25	228.66
361.63	228.72
362.01	228.75
362.39	228.78
362.77	228.82
363.15	228.85
363.53	228.87
363.91	228.90
364.29	228.95
364.67	228.83
365.05	228.85
365.43	228.89
365.81	228.94
366.19	228.96
366.57	228.96
366.95	228.97
367.33	228.91
367.71	228.88
368.09	228.88
368.47	228.87
368.85	228.87
369.23	228.87
369.61	228.80
369.99	228.81
370.37	228.79
370.75	228.82
371.13	228.77
371.51	228.72
371.89	228.66
372.27	228.60
372.65	228.58
373.03	228.53
373.41	228.45
373.78	228.37
374.16	228.25
374.54	228.20
374.92	228.13
375.30	228.09
375.68	228.03
376.06	227.94
376.44	227.85
376.82	227.77
377.19	227.69
377.57	227.62
377.95	227.52
378.33	227.42
378.71	227.28
379.09	227.21
379.47	227.13
379.84	227.06
380.22	226.96
380.60	226.87
380.98	226.80
381.36	226.77
381.73	226.71
382.11	226.62
382.49	226.53
382.87	226.46
383.25	226.37
383.62	226.42
384.00	226.35
384.38	226.28
384.76	226.27
385.13	226.22
385.51	226.16
385.89	226.08
386.27	226.04
386.64	226.02
387.02	225.97
387.40	225.92
387.78	225.89
388.15	225.85
388.53	225.79
388.91	225.77
389.29	225.67
389.66	225.64
390.04	225.64
390.42	225.65
390.79	225.62
391.17	225.58
391.55	225.43
391.92	225.44
392.30	225.44
392.68	225.41
393.05	225.39
393.43	225.38
393.81	225.40
394.18	225.41
394.56	225.41
394.94	225.45
395.31	225.47
395.69	225.50
396.06	225.54
396.44	225.59
396.82	225.58
397.19	225.68
397.57	225.71
397.95	225.77
398.32	225.79
398.70	225.87
399.07	225.96
399.45	226.03
399.82	226.10
400.20	226.15
400.58	226.23
400.95	226.30
401.33	226.40
401.70	226.57
402.08	226.67
402.45	226.75
402.83	226.87
403.20	226.98
403.58	227.08
403.95	227.23
404.33	227.37
404.71	227.52
405.08	227.72
405.46	227.86
405.83	228.00
406.21	228.15
406.58	228.31
406.96	228.48
407.33	228.63
407.70	228.80
408.08	229.09
408.45	229.30
408.83	229.55
409.20	229.75
409.58	229.92
409.95	230.16
410.33	230.44
410.70	230.68
411.08	230.96
411.45	231.29
411.82	231.59
412.20	231.94
412.57	232.35
412.95	232.64
413.32	233.01
413.69	233.42
414.07	233.87
414.44	234.30
414.82	234.79
415.19	235.37
415.56	235.94
415.94	236.47
416.31	237.10
416.68	237.68
417.06	238.43
417.43	239.09
417.81	239.86
418.18	240.63
418.55	241.44
418.93	242.32
419.30	243.20
419.67	244.18
420.04	245.10
420.42	246.08
420.79	247.26
421.16	248.43
421.54	249.63
421.91	250.80
422.28	252.06
422.66	253.37
423.03	254.69
423.40	256.02
423.77	257.43
424.15	258.89
424.52	260.38
424.89	261.94
425.26	263.53
425.64	265.00
426.01	266.54
426.38	268.20
426.75	269.88
427.13	271.60
427.50	273.40
427.87	275.26
428.24	277.13
428.61	278.84
428.99	280.75
429.36	282.85
429.73	284.92
430.10	286.95
430.47	289.02
430.85	291.11
431.22	293.37
431.59	295.74
431.96	297.94
432.33	300.47
432.70	302.87
433.08	305.68
433.45	308.28
433.82	310.93
434.19	313.81
434.56	316.56
434.93	319.19
435.30	321.79
435.68	324.66
436.05	327.46
436.42	330.28
436.79	332.78
437.16	335.44
437.53	338.27
437.90	341.04
438.27	343.73
438.64	346.56
439.01	349.12
439.38	351.36
439.75	353.54
440.13	355.99
440.50	358.29
440.87	360.09
441.24	362.01
441.61	364.14
441.98	365.70
442.35	367.54
442.72	369.39
443.09	371.20
443.46	372.21
443.83	372.82
444.20	373.35
444.57	374.24
444.94	374.54
445.31	374.92
445.68	375.27
446.05	375.38
446.42	375.02
446.79	374.58
447.16	374.11
447.53	373.78
447.90	372.61
448.27	371.47
448.64	369.94
449.01	368.82
449.37	366.84
449.74	364.90
450.11	362.68
450.48	360.24
450.85	357.68
451.22	355.58
451.59	353.53
451.96	351.58
452.33	348.96
452.70	346.57
453.07	343.72
453.43	340.86
453.80	338.07
454.17	335.38
454.54	332.87
454.91	330.17
455.28	327.51
455.65	325.04
456.02	322.57
456.38	320.37
456.75	317.73
457.12	315.53
457.49	313.33
457.86	311.13
458.23	309.30
458.59	307.27
458.96	305.14
459.33	303.28
459.70	301.41
460.07	299.93
460.43	298.22
460.80	296.59
461.17	295.15
461.54	293.68
461.91	292.31
462.27	290.85
462.64	289.59
463.01	288.25
463.38	286.97
463.74	285.66
464.11	284.56
464.48	283.53
464.85	282.47
465.21	281.58
465.58	280.68
465.95	279.54
466.32	278.62
466.68	277.73
467.05	276.88
467.42	275.96
467.78	275.07
468.15	274.21
468.52	273.55
468.88	272.68
469.25	271.90
469.62	271.22
469.98	270.53
470.35	269.89
470.72	269.32
471.08	268.67
471.45	268.13
471.82	267.56
472.18	266.99
472.55	266.49
472.92	265.96
473.28	265.50
473.65	265.10
474.02	264.67
474.38	264.30
474.75	263.96
475.11	263.60
475.48	263.32
475.85	263.09
476.21	262.89
476.58	262.73
476.94	262.61
477.31	262.47
477.67	262.34
478.04	262.24
478.41	262.18
478.77	262.19
479.14	262.10
479.50	262.12
479.87	262.18
480.23	262.31
480.60	262.40
480.96	262.51
481.33	262.70
481.69	262.94
482.06	263.17
482.42	263.39
482.79	263.70
483.15	264.04
483.52	264.46
483.88	264.81
484.25	265.21
484.61	265.61
484.98	266.06
485.34	266.60
485.71	267.22
486.07	267.83
486.44	268.45
486.80	269.16
487.17	269.90
487.53	270.70
487.90	271.54
488.26	272.47
488.62	273.44
488.99	274.41
489.35	275.47
489.72	276.60
490.08	277.82
490.44	279.09
490.81	280.39
491.17	281.75
491.54	283.26
491.90	284.78
492.26	286.44
492.63	288.17
492.99	289.98
493.36	291.88
493.72	293.93
494.08	296.01
494.45	298.30
494.81	300.69
495.17	303.15
495.54	305.72
495.90	308.39
496.26	311.19
496.63	314.18
496.99	317.29
497.35	320.53
497.72	323.92
498.08	327.42
498.44	331.09
498.80	335.03
499.17	339.06
499.53	343.27
499.89	347.65
500.26	352.17
500.62	356.81
500.98	361.76
501.34	366.84
501.71	372.20
502.07	377.68
502.43	383.25
502.79	389.08
503.16	395.16
503.52	401.49
503.88	407.92
504.24	414.54
504.60	421.44
504.97	428.56
505.33	435.90
505.69	443.59
506.05	451.41
506.41	459.28
506.78	467.49
507.14	475.91
507.50	484.64
507.86	493.70
508.22	502.92
508.59	512.08
508.95	521.62
509.31	531.41
509.67	541.45
510.03	551.81
510.39	562.36
510.75	573.12
511.12	584.04
511.48	595.30
511.84	606.72
512.20	618.22
512.56	630.12
512.92	642.29
513.28	654.70
513.64	667.18
514.00	679.88
514.37	692.72
514.73	705.83
515.09	718.85
515.45	732.12
515.81	745.70
516.17	759.76
516.53	773.86
516.89	788.11
517.25	802.25
517.61	816.63
517.97	831.07
518.33	845.50
518.69	860.22
519.05	875.25
519.41	890.38
519.77	905.78
520.13	921.34
520.49	936.66
520.85	952.01
521.21	967.63
521.57	983.82
521.93	999.63
522.29	1015.86
522.65	1032.08
523.01	1048.21
523.37	1064.14
523.73	1080.21
524.09	1096.35
524.45	1112.54
524.81	1129.13
525.17	1145.82
525.53	1162.66
525.89	1179.51
526.25	1196.27
526.61	1212.60
526.97	1229.28
527.33	1245.85
527.68	1262.30
528.04	1278.77
528.40	1295.26
528.76	1312.27
529.12	1328.73
529.48	1345.49
529.84	1361.48
530.20	1377.99
530.56	1394.90
530.91	1412.29
531.27	1429.04
531.63	1445.41
531.99	1461.85
532.35	1477.75
532.71	1493.59
533.07	1509.76
533.42	1525.53
533.78	1541.59
534.14	1557.71
534.50	1572.96
534.86	1588.68
535.21	1603.76
535.57	1619.53
535.93	1634.90
536.29	1649.64
536.65	1664.65
537.00	1679.31
537.36	1694.58
537.72	1709.08
538.08	1723.38
538.44	1737.08
538.79	1750.84
539.15	1764.33
539.51	1778.11
539.87	1792.53
540.22	1806.17
540.58	1819.77
540.94	1833.02
541.29	1845.76
541.65	1858.37
542.01	1871.58
542.37	1883.89
542.72	1896.39
543.08	1908.17
543.44	1920.58
543.79	1931.71
544.15	1942.70
544.51	1954.28
544.87	1965.11
545.22	1975.90
545.58	1986.28
545.94	1996.01
546.29	2005.79
546.65	2015.75
547.01	2024.90
547.36	2033.36
547.72	2041.75
548.07	2049.66
548.43	2057.91
548.79	2065.84
549.14	2073.42
549.50	2080.77
549.86	2088.28
550.21	2095.44
550.57	2102.66
550.92	2109.19
551.28	2116.24
551.64	2123.15
551.99	2129.65
552.35	2135.85
552.70	2141.97
553.06	2147.74
553.41	2153.99
553.77	2160.14
554.13	2166.09
554.48	2172.09
554.84	2177.71
555.19	2182.94
555.55	2188.02
555.90	2192.46
556.26	2197.43
556.61	2202.14
556.97	2206.41
557.32	2210.57
557.68	2214.80
558.03	2218.98
558.39	2222.66
558.74	2227.22
559.10	2231.11
559.45	2234.76
559.81	2238.93
560.16	2242.68
560.52	2245.97
560.87	2249.49
561.23	2252.07
561.58	2255.08
561.94	2257.79
562.29	2260.00
562.64	2262.88
563.00	2265.42
563.35	2268.80
563.71	2271.88
564.06	2275.10
564.42	2278.04
564.77	2280.60
565.12	2282.94
565.48	2284.89
565.83	2286.83
566.19	2288.15
566.54	2289.14
566.89	2290.34
567.25	2291.12
567.60	2292.57
567.96	2294.35
568.31	2295.10
568.66	2296.18
569.02	2296.77
569.37	2296.93
569.72	2297.97
570.08	2298.15
570.43	2298.18
570.78	2297.77
571.14	2296.25
571.49	2294.83
571.84	2294.44
572.20	2293.38
572.55	2292.27
572.90	2290.57
573.26	2289.12
573.61	2287.50
573.96	2285.78
574.31	2282.86
574.67	2279.92
575.02	2276.21
575.37	2272.84
575.72	2269.11
576.08	2265.78
576.43	2262.46
576.78	2258.99
577.13	2255.62
577.49	2252.44
577.84	2249.08
578.19	2245.26
578.54	2241.74
578.90	2237.66
579.25	2232.17
579.60	2227.35
579.95	2222.23
580.30	2217.29
580.66	2212.20
581.01	2207.30
581.36	2202.63
581.71	2198.40
582.06	2193.97
582.42	2189.55
582.77	2184.36
583.12	2179.97
583.47	2175.32
583.82	2170.42
584.17	2165.18
584.53	2159.89
584.88	2154.28
585.23	2148.54
585.58	2143.18
585.93	2137.67
586.28	2132.85
586.63	2127.81
586.98	2122.60
587.34	2118.12
587.69	2113.46
588.04	2108.21
588.39	2102.73
588.74	2096.13
589.09	2089.99
589.44	2083.23
589.79	2077.16
590.14	2071.56
590.49	2064.92
590.84	2058.47
591.19	2052.40
591.54	2046.05
591.89	2038.79
592.25	2032.07
592.60	2024.98
592.95	2017.51
593.30	2010.24
593.65	2002.70
594.00	1995.75
594.35	1988.51
594.70	1980.41
595.05	1973.15
595.40	1965.95
595.75	1958.18
596.10	1951.98
596.45	1945.41
596.80	1939.21
597.15	1932.70
597.50	1925.74
597.85	1919.29
598.19	1912.76
598.54	1905.87
598.89	1899.25
599.24	1893.33
599.59	1886.91
599.94	1880.67
600.29	1874.22
600.64	1867.63
600.99	1860.22
601.34	1853.43
601.69	1846.53
602.04	1839.63
602.39	1832.36
602.74	1825.56
603.08	1819.04
603.43	1812.38
603.78	1805.08
604.13	1797.91
604.48	1790.67
604.83	1783.81
605.18	1777.02
605.53	1769.16
605.87	1761.04
606.22	1753.78
606.57	1745.77
606.92	1738.22
607.27	1731.14
607.62	1724.40
607.96	1717.15
608.31	1710.66
608.66	1702.94
609.01	1695.50
609.36	1688.11
609.70	1680.08
610.05	1672.14
610.40	1664.48
610.75	1656.17
611.10	1648.44
611.44	1639.98
611.79	1632.04
612.14	1623.18
612.49	1613.88
612.83	1605.40
613.18	1597.24
613.53	1589.04
613.88	1580.50
614.22	1572.25
614.57	1563.51
614.92	1555.45
615.27	1548.12
615.61	1539.77
615.96	1531.80
616.31	1524.09
616.65	1516.64
617.00	1509.04
617.35	1501.31
617.70	1492.97
618.04	1484.48
618.39	1476.32
618.74	1468.86
619.08	1460.50
619.43	1453.06
619.78	1446.18
620.12	1439.12
620.47	1431.57
620.82	1423.44
621.16	1416.07
621.51	1408.49
621.85	1400.90
622.20	1392.31
622.55	1383.82
622.89	1375.92
623.24	1368.23
623.59	1360.83
623.93	1353.39
624.28	1346.29
624.62	1338.78
624.97	1331.52
625.32	1324.70
625.66	1317.61
626.01	1310.35
626.35	1302.96
626.70	1295.16
627.04	1287.46
627.39	1279.55
627.73	1272.12
628.08	1265.29
628.43	1258.01
628.77	1250.62
629.12	1243.08
629.46	1235.98
629.81	1228.51
630.15	1221.30
630.50	1213.90
630.84	1205.73
631.19	1197.64
631.53	1190.00
631.88	1182.41
632.22	1174.81
632.57	1167.52
632.91	1159.99
633.26	1152.59
633.60	1145.13
633.95	1137.98
634.29	1130.82
634.64	1124.20
634.98	1116.98
635.32	1109.80
635.67	1103.13
636.01	1096.51
636.36	1089.72
636.70	1083.09
637.05	1076.49
637.39	1069.99
637.73	1063.52
638.08	1057.55
638.42	1051.58
638.77	1045.15
639.11	1038.49
639.45	1032.03
639.80	1025.42
640.14	1019.12
640.49	1012.59
640.83	1006.31
641.17	1000.07
641.52	993.87
641.86	987.35
642.20	981.47
642.55	975.08
642.89	968.65
643.23	962.08
643.58	956.32
643.92	950.17
644.26	944.27
644.61	938.18
644.95	932.20
645.29	925.79
645.64	919.11
645.98	912.75
646.32	906.99
646.66	901.10
647.01	895.21
647.35	889.41
647.69	883.53
648.04	878.03
648.38	872.37
648.72	866.36
649.06	860.32
649.41	854.42
649.75	848.48
650.09	842.50
650.43	836.70
650.78	830.54
651.12	824.54
651.46	818.72
651.80	813.00
652.14	807.55
652.49	802.06
652.83	796.87
653.17	791.24
653.51	785.50
653.85	780.07
654.20	774.49
654.54	768.44
654.88	762.78
655.22	756.85
655.56	751.07
655.90	745.57
656.25	740.35
656.59	735.03
656.93	729.90
657.27	724.76
657.61	719.25
657.95	714.18
658.29	709.12
658.64	703.83
658.98	698.47
659.32	692.99
659.66	687.83
660.00	682.51
660.34	677.55
660.68	672.61
661.02	667.54
661.36	662.80
661.70	658.36
662.05	654.01
662.39	649.64
662.73	645.09
663.07	640.67
663.41	636.20
663.75	631.64
664.09	627.11
664.43	622.75
664.77	618.73
665.11	614.49
665.45	610.36
665.79	606.28
666.13	602.17
666.47	598.12
666.81	593.98
667.15	589.83
667.49	585.89
667.83	582.03
668.17	578.15
668.51	574.10
668.85	570.06
669.19	566.11
669.53	562.33
669.87	558.54
670.21	554.95
670.55	551.28
670.89	547.86
671.23	544.45
671.57	540.98
671.91	537.42
672.25	533.93
672.58	530.39
672.92	526.96
673.26	523.81
673.60	520.67
673.94	517.58
674.28	514.75
674.62	511.79
674.96	508.70
675.30	505.81
675.64	502.81
675.97	499.98
676.31	497.14
676.65	494.17
676.99	491.49
677.33	488.51
677.67	485.70
678.01	482.68
678.34	479.75
678.68	476.76
679.02	474.01
679.36	471.19
679.70	468.51
680.04	465.79
680.37	462.87
680.71	460.02
681.05	457.36
681.39	454.60
681.73	451.92
682.06	449.42
682.40	446.78
682.74	444.30
683.08	441.75
683.42	439.11
683.75	436.61
684.09	434.07
684.43	431.68
684.77	429.23
685.10	426.90
685.44	424.59
685.78	422.29
686.12	420.00
686.45	417.72
686.79	415.43
687.13	413.23
687.46	411.11
687.80	409.01
688.14	406.78
688.48	404.76
688.81	402.60
689.15	400.46
689.49	398.30
689.82	396.19
690.16	394.14
690.50	392.21
690.83	390.30
691.17	388.32
691.51	386.40
691.84	384.53
692.18	382.60
692.52	380.55
692.85	378.64
693.19	376.78
693.52	374.92
693.86	373.04
694.20	371.26
694.53	369.46
694.87	367.59
695.21	365.82
695.54	363.97
695.88	362.20
696.21	360.44
696.55	358.79
696.88	357.12
697.22	355.44
697.56	353.84
697.89	352.19
698.23	350.57
698.56	348.99
698.90	347.48
699.23	345.85
699.57	344.35
699.90	342.80
700.24	341.23
700.58	339.78
700.91	338.36
701.25	336.95
701.58	335.60
701.92	334.22
702.25	332.85
702.59	331.50
702.92	330.17
703.26	328.90
703.59	327.63
703.93	326.50
704.26	325.32
704.60	324.01
704.93	322.72
705.26	321.49
705.60	320.29
705.93	319.08
706.27	318.03
706.60	316.96
706.94	315.94
707.27	314.83
707.61	313.71
707.94	312.68
708.27	311.59
708.61	310.49
708.94	309.49
709.28	308.50
709.61	307.52
709.94	306.58
710.28	305.53
710.61	304.55
710.95	303.47
711.28	302.56
711.61	301.61
711.95	300.71
712.28	299.76
712.61	298.80
712.95	297.91
713.28	297.02
713.61	296.13
713.95	295.17
714.28	294.35
714.61	293.49
714.95	292.64
715.28	291.75
715.61	290.87
715.95	289.98
716.28	289.12
716.61	288.24
716.95	287.44
717.28	286.66
717.61	285.91
717.94	285.15
718.28	284.29
718.61	283.56
718.94	282.87
719.27	282.20
719.61	281.50
719.94	280.81
720.27	280.07
720.60	279.40
720.94	278.80
721.27	278.20
721.60	277.63
721.93	277.01
722.27	276.44
722.60	275.90
722.93	275.37
723.26	274.85
723.59	274.31
723.93	273.75
724.26	273.23
724.59	272.63
724.92	272.06
725.25	271.62
725.59	271.09
725.92	270.56
726.25	270.05
726.58	269.58
726.91	269.06
727.24	268.60
727.57	268.12
727.91	267.59
728.24	267.08
728.57	266.58
728.90	266.13
729.23	265.63
729.56	265.20
729.89	264.72
730.22	264.22
730.55	263.74
730.89	263.27
731.22	262.80
731.55	262.38
731.88	261.96
732.21	261.48
732.54	261.06
732.87	260.61
733.20	260.19
733.53	259.76
733.86	259.37
734.19	258.98
734.52	258.60
734.85	258.31
735.18	257.91
735.51	257.55
735.84	257.17
736.17	256.84
736.50	256.46
736.83	256.27
737.16	255.95
737.49	255.65
737.82	255.30
738.15	254.99
738.48	254.65
738.81	254.32
739.14	254.01
739.47	253.70
739.80	253.37
740.13	253.08
740.46	252.77
740.79	252.48
741.12	252.14
741.45	251.84
741.78	251.54
742.11	251.25
742.44	250.92
742.77	250.62
743.10	250.32
743.43	250.02
743.75	249.62
744.08	249.48
744.41	249.18
744.74	248.91
745.07	248.63
745.40	248.39
745.73	248.16
746.06	247.89
746.39	247.65
746.71	247.43
747.04	247.16
747.37	246.93
747.70	246.69
748.03	246.45
748.36	246.20
748.68	245.93
749.01	245.70
749.34	245.46
749.67	245.26
750.00	245.04
750.33	244.86
750.65	244.62
750.98	244.29
751.31	244.09
751.64	243.91
751.97	243.72
752.29	243.49
752.62	243.24
752.95	243.03
753.28	242.76
753.60	242.55
753.93	242.39
754.26	242.21
754.59	241.94
754.91	241.76
755.24	241.54
755.57	241.36
755.90	241.18
756.22	241.00
756.55	240.78
756.88	240.60
757.20	240.36
757.53	240.17
757.86	239.97
758.19	239.81
758.51	239.65
758.84	239.45
759.17	239.27
759.49	239.11
759.82	238.97
760.15	238.81
760.47	238.63
760.80	238.42
761.13	238.28
761.45	238.18
761.78	238.01
762.11	237.88
762.43	237.71
762.76	237.55
763.08	237.41
763.41	237.25
763.74	237.09
764.06	236.96
764.39	236.81
764.71	236.65
765.04	236.48
765.37	236.30
765.69	236.16
766.02	236.02
766.34	235.90
766.67	235.74
767.00	235.66
767.32	235.60
767.65	235.56
767.97	235.42
768.30	235.28
768.62	235.17
768.95	235.02
769.27	234.92
769.60	234.82
769.92	234.72
770.25	234.61
770.57	234.48
770.90	234.36
771.22	234.27
771.55	234.17
771.87	234.07
772.20	233.96
772.52	233.94
772.85	233.96
773.17	233.86
773.50	233.75
773.82	233.63
774.15	233.49
774.47	233.32
774.80	233.24
775.12	233.15
775.45	233.05
775.77	232.97
776.09	232.88
776.42	232.79
776.74	232.74
777.07	232.67
777.39	232.62
777.72	232.54
778.04	232.50
778.36	232.44
778.69	232.39
779.01	232.36
779.33	232.21
779.66	232.06
779.98	232.03
780.31	231.98
780.63	231.94
780.95	231.92
781.28	231.91
781.60	231.85
781.92	231.79
782.25	231.75
782.57	231.68
782.89	231.63
783.22	231.58
783.54	231.49
783.86	231.46
784.19	231.40
784.51	231.38
784.83	231.34
785.16	231.31
785.48	231.23
785.80	231.18
786.12	231.16
786.45	231.10
786.77	231.06
787.09	231.03
787.42	230.97
787.74	230.94
788.06	230.87
788.38	230.81
788.71	230.73
789.03	230.69
789.35	230.66
789.67	230.60
789.99	230.54
790.32	230.52
790.64	230.48
790.96	230.51
791.28	230.44
791.61	230.39
791.93	230.33
792.25	230.33
792.57	230.35
792.89	230.27
793.21	230.26
793.54	230.22
793.86	230.16
794.18	230.13
794.50	230.04
794.82	229.99
795.14	229.93
795.47	229.97
795.79	229.95
796.11	229.92
796.43	229.91
796.75	229.90
797.07	229.87
797.39	229.82
797.71	229.75
798.04	229.75
798.36	229.68
798.68	229.65
799.00	229.62
799.32	229.54
799.64	229.58
799.96	229.56
800.28	229.51
800.60	229.48
800.92	229.44
801.24	229.41
801.56	229.38
801.89	229.41
802.21	229.35
802.53	229.32
802.85	229.33
803.17	229.32
803.49	229.26
803.81	229.18
804.13	229.15
804.45	229.09
804.77	229.04
805.09	229.05
805.41	229.05
805.73	228.99
806.05	228.92
806.37	228.84
806.69	228.79
807.01	228.76
807.33	228.75
807.65	228.69
807.97	228.74
808.28	228.71
808.60	228.67
808.92	228.62
809.24	228.67
809.56	228.61
809.88	228.53
810.20	228.56
810.52	228.59
810.84	228.55
811.16	228.55
811.48	228.50
811.80	228.50
812.12	228.44
812.43	228.46
812.75	228.45
813.07	228.44
813.39	228.44
813.71	228.40
814.03	228.36
814.35	228.32
814.67	228.23
814.98	228.23
815.30	228.18
815.62	228.17
815.94	228.04
816.26	228.05
816.58	228.04
816.89	228.02
817.21	227.94
817.53	227.93
817.85	227.89
818.17	227.88
818.48	227.82
818.80	227.85
819.12	227.77
819.44	227.76
819.76	227.69
820.07	227.67
820.39	227.63
820.71	227.65
821.03	227.67
821.34	227.67
821.66	227.63
821.98	227.64
822.30	227.60
822.61	227.65
822.93	227.61
823.25	227.60
823.57	227.56
823.88	227.58
824.20	227.58
824.52	227.59
824.83	227.59
825.15	227.60
825.47	227.60
825.79	227.61
826.10	227.61
826.42	227.63
826.74	227.61
827.05	227.57
827.37	227.54
827.69	227.49
828.00	227.45
828.32	227.46
828.64	227.47
828.95	227.53
829.27	227.49
829.58	227.47
829.90	227.49
830.22	227.50
830.53	227.51
830.85	227.47
831.17	227.44
831.48	227.45
831.80	227.42
832.11	227.37
832.43	227.38
832.75	227.38
833.06	227.42
833.38	227.42
833.69	227.45
834.01	227.47
834.32	227.49
834.64	227.47
834.96	227.45
835.27	227.42
835.59	227.40
835.90	227.38
836.22	227.39
836.53	227.35
836.85	227.31
837.16	227.38
837.48	227.38
837.79	227.41
838.11	227.39
838.42	227.37
838.74	227.37
839.05	227.32
839.37	227.30
839.68	227.23
840.00	227.21
840.31	227.20
840.63	227.20
840.94	227.22
841.26	227.25
841.57	227.21
841.88	227.24
842.20	227.21
842.51	227.18
842.83	227.17
843.14	227.26
843.46	227.28
843.77	227.23
844.08	227.24
844.40	227.20
844.71	227.20
845.03	227.22
845.34	227.20
845.65	227.21
845.97	227.20
846.28	227.18
846.60	227.15
846.91	227.14
847.22	227.11
847.54	227.13
847.85	227.12
848.16	227.14
848.48	227.10
848.79	227.11
849.10	227.14
849.42	227.15
849.73	227.01
850.04	226.99
850.36	226.96
850.67	226.96
850.98	226.97
851.30	227.00
851.61	227.01
851.92	226.97
852.23	226.98
852.55	226.98
852.86	226.98
853.17	227.01
853.49	227.03
853.80	227.04
854.11	226.99
854.42	226.99
854.74	226.96
855.05	226.94
855.36	226.91
855.67	226.90
855.99	226.87
856.30	226.98
856.61	226.95
856.92	226.92
857.23	226.89
857.55	226.83
857.86	226.77
858.17	226.73
858.48	226.75
858.79	226.74
859.11	226.74
859.42	226.76
859.73	226.77
860.04	226.74
860.35	226.71
860.66	226.68
860.98	226.66
861.29	226.68
861.60	226.65
861.91	226.63
862.22	226.62
862.53	226.59
862.84	226.51
863.16	226.57
863.47	226.57
863.78	226.56
864.09	226.60
864.40	226.61
864.71	226.64
865.02	226.66
865.33	226.67
865.64	226.67
865.95	226.66
866.27	226.71
866.58	226.72
866.89	226.72
867.20	226.70
867.51	226.68
867.82	226.67
868.13	226.72
868.44	226.74
868.75	226.75
869.06	226.77
869.37	226.75
869.68	226.69
869.99	226.72
870.30	226.70
870.61	226.71
870.92	226.71
871.23	226.70
871.54	226.64
871.85	226.65
872.16	226.66
872.47	226.66
872.78	226.60
873.09	226.61
873.40	226.58
873.71	226.60
874.02	226.63
874.33	226.66
874.64	226.63
874.95	226.64
875.26	226.63
875.56	226.64
875.87	226.67
876.18	226.67
876.49	226.75
876.80	226.75
877.11	226.72
877.42	226.74
877.73	226.74
878.04	226.77
878.35	226.74
878.66	226.73
878.96	226.73
879.27	226.71
879.58	226.68
879.89	226.70
880.20	226.75
880.51	226.72
880.82	226.67
881.12	226.68
881.43	226.65
881.74	226.62
882.05	226.60
882.36	226.61
882.67	226.61
882.97	226.50
883.28	226.51
883.59	226.48
883.90	226.47
884.21	226.49
884.51	226.50
884.82	226.47
885.13	226.46
885.44	226.42
885.74	226.43
886.05	226.42
886.36	226.42
886.67	226.40
886.98	226.45
887.28	226.48
887.59	226.49
887.90	226.50
888.20	226.49
888.51	226.51
888.82	226.47
889.13	226.47
889.43	226.53
889.74	226.51
890.05	226.55
890.35	226.50
890.66	226.47
890.97	226.43
891.28	226.45
891.58	226.43
891.89	226.45
892.20	226.44
892.50	226.40
892.81	226.38
893.12	226.33
893.42	226.27
893.73	226.27
894.04	226.26
894.34	226.28
894.65	226.28
894.95	226.22
895.26	226.23
895.57	226.29
895.87	226.23
896.18	226.23
896.48	226.26
896.79	226.26
897.10	226.24
897.40	226.27
897.71	226.26
898.01	226.28
898.32	226.28
898.63	226.28
898.93	226.34
899.24	226.34
899.54	226.38
899.85	226.37
900.15	226.37
900.46	226.38
900.76	226.36
901.07	226.38
901.38	226.39
901.68	226.42
901.99	226.37
902.29	226.37
902.60	226.36
902.90	226.32
903.21	226.30
903.51	226.34
903.82	226.35
904.12	226.36
904.43	226.35
904.73	226.36
905.03	226.35
905.34	226.44
905.64	226.46
905.95	226.47
906.25	226.47
906.56	226.48
906.86	226.48
907.17	226.50
907.47	226.51
907.77	226.52
908.08	226.50
908.38	226.49
908.69	226.52
908.99	226.59
909.30	226.62
909.60	226.63
909.90	226.64
910.21	226.59
910.51	226.59
910.81	226.61
911.12	226.63
911.42	226.67
911.73	226.57
912.03	226.57
912.33	226.56
912.64	226.56
912.94	226.52
913.24	226.50
913.55	226.47
913.85	226.46
914.15	226.47
914.46	226.47
914.76	226.46
915.06	226.44
915.37	226.39
915.67	226.38
915.97	226.42
916.27	226.38
916.58	226.41
916.88	226.41
917.18	226.42
917.49	226.49
917.79	226.44
918.09	226.42
918.39	226.46
918.70	226.46
919.00	226.46
919.30	226.53
919.60	226.53
919.91	226.53
920.21	226.49
920.51	226.47
920.81	226.46
921.12	226.46
921.42	226.45
921.72	226.46
922.02	226.43
922.32	226.42
922.63	226.42
922.93	226.45
923.23	226.45
923.53	226.42
923.83	226.33
924.13	226.35
924.44	226.39
924.74	226.36
925.04	226.37
925.34	226.36
925.64	226.29
925.94	226.29
926.24	226.32
926.55	226.33
926.85	226.36
927.15	226.37
927.45	226.37
927.75	226.37
928.05	226.37
928.35	226.38
928.65	226.39
928.95	226.42
929.26	226.36
929.56	226.37
929.86	226.35
930.16	226.36
930.46	226.36
930.76	226.38
931.06	226.35
931.36	226.32
931.66	226.32
931.96	226.38
932.26	226.39
932.56	226.37
932.86	226.35
933.16	226.33
933.46	226.31
933.76	226.32
934.06	226.34
934.36	226.37
934.66	226.34
934.96	226.35
935.26	226.29
935.56	226.34
935.86	226.36
936.16	226.38
936.46	226.35
936.76	226.36
937.06	226.31
937.36	226.31
937.66	226.32
937.96	226.34
938.26	226.28
938.56	226.24
938.86	226.26
939.16	226.29
939.46	226.30
939.76	226.30
940.06	226.29
940.35	226.29
940.65	226.23
940.95	226.28
941.25	226.22
941.55	226.26
941.85	226.22
942.15	226.22
942.45	226.25
942.75	226.23
943.04	226.21
943.34	226.22
943.64	226.22
943.94	226.21
944.24	226.21
944.54	226.25
944.84	226.26
945.13	226.24
945.43	226.24
945.73	226.24
946.03	226.25
946.33	226.25
946.62	226.23
946.92	226.25
947.22	226.23
947.52	226.28
947.82	226.26
948.11	226.26
948.41	226.22
948.71	226.15
949.01	226.16
949.31	226.16
949.60	226.15
949.90	226.17
950.20	226.16
950.50	226.12
950.79	226.13
951.09	226.14
951.39	226.15
951.69	226.14
951.98	226.15
952.28	226.13
952.58	226.13
952.87	226.15
953.17	226.15
953.47	226.13
953.76	226.14
954.06	226.12
954.36	226.10
954.66	226.11
954.95	226.15
955.25	226.15
955.55	226.13
955.84	226.10
956.14	226.10
956.44	226.10
956.73	226.10
957.03	226.08
957.32	226.07
957.62	226.04
957.92	226.04
958.21	226.04
958.51	226.17
958.81	226.13
959.10	226.12
959.40	226.13
959.69	226.11
959.99	226.09
960.29	226.12
960.58	226.11
960.88	226.14
961.17	226.14
961.47	226.13
961.76	226.16
962.06	226.20
962.36	226.17
962.65	226.16
962.95	226.20
963.24	226.18
963.54	226.19
963.83	226.21
964.13	226.22
964.42	226.20
964.72	226.12
965.01	226.14
965.31	226.16
965.60	226.12
965.90	226.21
966.19	226.20
966.49	226.22
966.78	226.24
967.08	226.22
967.37	226.21
967.67	226.23
967.96	226.23
968.26	226.23
968.55	226.25
968.85	226.29
969.14	226.28
969.43	226.29
969.73	226.25
970.02	226.25
970.32	226.23
970.61	226.20
970.91	226.17
971.20	226.18
971.49	226.16
971.79	226.18
972.08	226.12
972.38	226.13
972.67	226.12
972.96	226.14
973.26	226.12
973.55	226.17
973.85	226.16
974.14	226.12
974.43	226.14
974.73	226.10
975.02	226.04
975.31	226.03
975.61	226.02
975.90	226.03
976.19	226.04
976.49	226.04
976.78	226.08
977.07	226.08
977.37	226.11
977.66	226.11
977.95	226.10
978.24	226.13
978.54	226.18
978.83	226.18
979.12	226.17
979.42	226.19
979.71	226.19
980.00	226.20
980.29	226.27
980.59	226.25
980.88	226.30
981.17	226.34
981.46	226.32
981.76	226.32
982.05	226.35
982.34	226.39
982.63	226.39
982.93	226.39
983.22	226.45
983.51	226.41
983.80	226.44
984.09	226.43
984.39	226.38
984.68	226.33
984.97	226.30
985.26	226.28
985.55	226.25
985.85	226.18
986.14	226.21
986.43	226.21
986.72	226.16
987.01	226.13
987.30	226.12
987.59	226.11
987.89	226.12
988.18	226.11
988.47	226.04
988.76	226.05
989.05	226.00
989.34	225.96
989.63	226.01
989.92	225.98
990.22	226.01
990.51	226.03
990.80	226.03
991.09	226.05
991.38	226.05
991.67	226.05
991.96	226.04
992.25	226.03
992.54	225.97
992.83	225.99
993.12	225.99
993.41	225.99
993.70	226.06
993.99	226.05
994.28	226.07
994.58	226.12
994.87	226.08
995.16	226.09
995.45	226.07
995.74	226.00
996.03	226.03
996.32	226.00
996.61	226.02
996.90	225.99
997.19	226.01
997.48	226.05
997.77	226.03
998.06	226.06
998.34	226.03
998.63	226.03
998.92	226.06
999.21	226.05
999.50	226.05
999.79	226.00
1000.08	225.98
1000.37	225.98
1000.66	225.93
1000.95	225.98
1001.24	225.98
1001.53	226.00
1001.82	226.03
1002.11	225.99
1002.40	226.00
1002.68	226.01
1002.97	226.10
1003.26	226.07
1003.55	226.03
1003.84	226.05
1004.13	226.07
1004.42	226.08
1004.71	226.09
1004.99	226.07
1005.28	226.09
1005.57	226.11
1005.86	226.09
1006.15	226.11
1006.44	226.10
1006.72	226.13
1007.01	226.12
1007.30	226.14
1007.59	226.15
1007.88	226.16
1008.17	226.15
1008.45	226.16
1008.74	226.11
1009.03	226.06
1009.32	226.07
1009.60	226.07
1009.89	226.08
1010.18	226.06
1010.47	226.04
1010.76	226.07
1011.04	226.10
1011.33	226.14
1011.62	226.10
1011.91	226.14
1012.19	226.18
1012.48	226.19
1012.77	226.18
1013.05	226.22
1013.34	226.21
1013.63	226.18
1013.92	226.15
1014.20	226.14
1014.49	226.11
1014.78	226.13
1015.06	226.10
1015.35	226.09
1015.64	226.13
1015.92	226.10
1016.21	226.10
1016.50	226.11
1016.78	226.11
1017.07	226.09
1017.36	226.06
1017.64	226.07
1017.93	226.07
1018.22	226.02
1018.50	226.03
1018.79	226.03
1019.08	226.00
1019.36	226.02
1019.65	226.00
1019.93	226.04
1020.22	226.08
1020.51	226.14
1020.79	226.10
1021.08	225.62
1021.36	226.14
1021.65	226.02
1021.94	226.47
1022.22	226.35
1022.51	225.89
1022.79	226.30
1023.08	226.34
1023.36	227.02
1023.65	225.17
>>>>>End Processed Spectral Data<<<<<
