SpectraSuite Data File
++++++++++++++++++++++++++++++++++++
Date: Fri Feb 01 15:59:36 EST 2013
User: group
Dark Spectrum Present: No
Reference Spectrum Present: No
Number of Sampled Component Spectra: 1
Spectrometers: USB2E7196
Integration Time (usec): 35000 (USB2E7196)
Spectra Averaged: 100 (USB2E7196)
Boxcar Smoothing: 10 (USB2E7196)
Correct for Electrical Dark: No (USB2E7196)
Strobe/Lamp Enabled: No (USB2E7196)
Correct for Detector Non-linearity: No (USB2E7196)
Correct for Stray Light: No (USB2E7196)
Number of Pixels in Processed Spectrum: 2048
>>>>>Begin Processed Spectral Data<<<<<
339.09	0.00
339.48	214.53
339.86	215.91
340.24	217.13
340.63	219.04
341.01	221.81
341.39	221.45
341.78	222.89
342.16	224.47
342.54	225.56
342.93	213.16
343.31	223.94
343.69	224.50
344.07	224.98
344.46	225.43
344.84	225.80
345.22	226.04
345.60	226.29
345.99	226.49
346.37	226.62
346.75	226.68
347.13	226.79
347.52	226.85
347.90	226.91
348.28	226.96
348.66	226.99
349.05	227.00
349.43	227.02
349.81	227.02
350.19	227.04
350.57	227.10
350.96	227.17
351.34	227.24
351.72	227.30
352.10	227.41
352.48	227.50
352.87	227.55
353.25	227.64
353.63	227.70
354.01	227.76
354.39	227.84
354.77	227.90
355.15	227.97
355.54	228.04
355.92	228.10
356.30	228.15
356.68	228.28
357.06	228.36
357.44	228.42
357.82	228.49
358.20	228.59
358.58	228.63
358.97	228.69
359.35	228.76
359.73	228.86
360.11	228.89
360.49	228.93
360.87	228.97
361.25	229.03
361.63	229.13
362.01	229.17
362.39	229.20
362.77	229.28
363.15	229.30
363.53	229.32
363.91	229.37
364.29	229.40
364.67	229.30
365.05	229.33
365.43	229.38
365.81	229.41
366.19	229.42
366.57	229.47
366.95	229.47
367.33	229.47
367.71	229.44
368.09	229.46
368.47	229.41
368.85	229.40
369.23	229.39
369.61	229.36
369.99	229.37
370.37	229.32
370.75	229.31
371.13	229.24
371.51	229.20
371.89	229.16
372.27	229.11
372.65	229.09
373.03	229.03
373.41	228.93
373.78	228.86
374.16	228.76
374.54	228.68
374.92	228.61
375.30	228.53
375.68	228.48
376.06	228.39
376.44	228.37
376.82	228.34
377.19	228.25
377.57	228.17
377.95	228.05
378.33	228.00
378.71	227.87
379.09	227.82
379.47	227.76
379.84	227.67
380.22	227.61
380.60	227.52
380.98	227.45
381.36	227.40
381.73	227.34
382.11	227.30
382.49	227.26
382.87	227.16
383.25	227.07
383.62	227.09
384.00	227.03
384.38	226.98
384.76	226.90
385.13	226.90
385.51	226.83
385.89	226.79
386.27	226.75
386.64	226.72
387.02	226.70
387.40	226.66
387.78	226.65
388.15	226.63
388.53	226.62
388.91	226.57
389.29	226.53
389.66	226.52
390.04	226.42
390.42	226.39
390.79	226.36
391.17	226.39
391.55	226.27
391.92	226.26
392.30	226.22
392.68	226.22
393.05	226.17
393.43	226.18
393.81	226.17
394.18	226.17
394.56	226.16
394.94	226.16
395.31	226.13
395.69	226.15
396.06	226.18
396.44	226.22
396.82	226.25
397.19	226.32
397.57	226.36
397.95	226.48
398.32	226.50
398.70	226.58
399.07	226.63
399.45	226.65
399.82	226.73
400.20	226.84
400.58	226.92
400.95	226.95
401.33	227.02
401.70	227.18
402.08	227.27
402.45	227.39
402.83	227.52
403.20	227.66
403.58	227.74
403.95	227.85
404.33	227.94
404.71	228.09
405.08	228.28
405.46	228.39
405.83	228.51
406.21	228.65
406.58	228.82
406.96	228.99
407.33	229.17
407.70	229.35
408.08	229.59
408.45	229.79
408.83	230.03
409.20	230.25
409.58	230.42
409.95	230.66
410.33	230.91
410.70	231.15
411.08	231.43
411.45	231.74
411.82	232.03
412.20	232.36
412.57	232.76
412.95	233.02
413.32	233.43
413.69	233.83
414.07	234.29
414.44	234.72
414.82	235.18
415.19	235.76
415.56	236.30
415.94	236.84
416.31	237.47
416.68	238.08
417.06	238.80
417.43	239.46
417.81	240.23
418.18	241.01
418.55	241.85
418.93	242.72
419.30	243.65
419.67	244.59
420.04	245.57
420.42	246.58
420.79	247.80
421.16	248.95
421.54	250.15
421.91	251.34
422.28	252.61
422.66	253.93
423.03	255.20
423.40	256.56
423.77	257.99
424.15	259.40
424.52	260.90
424.89	262.49
425.26	264.03
425.64	265.47
426.01	267.05
426.38	268.72
426.75	270.39
427.13	272.11
427.50	273.92
427.87	275.78
428.24	277.64
428.61	279.40
428.99	281.35
429.36	283.45
429.73	285.56
430.10	287.59
430.47	289.70
430.85	291.84
431.22	294.07
431.59	296.43
431.96	298.68
432.33	301.21
432.70	303.60
433.08	306.45
433.45	309.11
433.82	311.76
434.19	314.65
434.56	317.47
434.93	320.15
435.30	322.79
435.68	325.68
436.05	328.47
436.42	331.24
436.79	333.73
437.16	336.48
437.53	339.27
437.90	342.10
438.27	344.82
438.64	347.67
439.01	350.23
439.38	352.48
439.75	354.70
440.13	357.17
440.50	359.47
440.87	361.30
441.24	363.26
441.61	365.39
441.98	366.87
442.35	368.68
442.72	370.50
443.09	372.26
443.46	373.29
443.83	373.87
444.20	374.38
444.57	375.24
444.94	375.49
445.31	375.86
445.68	376.21
446.05	376.24
446.42	375.83
446.79	375.45
447.16	374.96
447.53	374.59
447.90	373.40
448.27	372.24
448.64	370.70
449.01	369.52
449.37	367.57
449.74	365.69
450.11	363.46
450.48	361.00
450.85	358.50
451.22	356.35
451.59	354.31
451.96	352.36
452.33	349.74
452.70	347.38
453.07	344.56
453.43	341.62
453.80	338.90
454.17	336.25
454.54	333.70
454.91	330.99
455.28	328.32
455.65	325.84
456.02	323.43
456.38	321.27
456.75	318.62
457.12	316.35
457.49	314.10
457.86	311.94
458.23	310.10
458.59	308.07
458.96	306.01
459.33	304.19
459.70	302.32
460.07	300.81
460.43	299.12
460.80	297.51
461.17	296.11
461.54	294.61
461.91	293.16
462.27	291.73
462.64	290.49
463.01	289.18
463.38	287.90
463.74	286.53
464.11	285.38
464.48	284.38
464.85	283.30
465.21	282.46
465.58	281.52
465.95	280.40
466.32	279.49
466.68	278.57
467.05	277.67
467.42	276.81
467.78	275.92
468.15	275.03
468.52	274.35
468.88	273.51
469.25	272.76
469.62	272.19
469.98	271.50
470.35	270.88
470.72	270.27
471.08	269.65
471.45	269.11
471.82	268.55
472.18	267.97
472.55	267.54
472.92	267.02
473.28	266.54
473.65	266.12
474.02	265.70
474.38	265.36
474.75	265.07
475.11	264.72
475.48	264.46
475.85	264.25
476.21	264.03
476.58	263.83
476.94	263.66
477.31	263.47
477.67	263.32
478.04	263.23
478.41	263.16
478.77	263.19
479.14	263.12
479.50	263.14
479.87	263.21
480.23	263.28
480.60	263.32
480.96	263.41
481.33	263.63
481.69	263.81
482.06	263.96
482.42	264.12
482.79	264.37
483.15	264.67
483.52	265.05
483.88	265.38
484.25	265.74
484.61	266.20
484.98	266.64
485.34	267.21
485.71	267.75
486.07	268.34
486.44	268.92
486.80	269.66
487.17	270.34
487.53	271.14
487.90	271.99
488.26	272.92
488.62	273.93
488.99	274.89
489.35	275.92
489.72	277.05
490.08	278.26
490.44	279.50
490.81	280.83
491.17	282.18
491.54	283.66
491.90	285.23
492.26	286.87
492.63	288.63
492.99	290.38
493.36	292.32
493.72	294.36
494.08	296.44
494.45	298.62
494.81	301.03
495.17	303.44
495.54	306.03
495.90	308.77
496.26	311.57
496.63	314.53
496.99	317.65
497.35	320.90
497.72	324.28
498.08	327.79
498.44	331.48
498.80	335.38
499.17	339.40
499.53	343.54
499.89	347.89
500.26	352.38
500.62	357.09
500.98	362.04
501.34	367.13
501.71	372.51
502.07	378.00
502.43	383.60
502.79	389.46
503.16	395.53
503.52	401.77
503.88	408.14
504.24	414.80
504.60	421.72
504.97	428.91
505.33	436.28
505.69	444.01
506.05	451.80
506.41	459.70
506.78	467.88
507.14	476.33
507.50	485.05
507.86	494.05
508.22	503.24
508.59	512.42
508.95	521.97
509.31	531.77
509.67	541.84
510.03	552.14
510.39	562.68
510.75	573.51
511.12	584.43
511.48	595.78
511.84	607.19
512.20	618.68
512.56	630.60
512.92	642.80
513.28	655.15
513.64	667.61
514.00	680.25
514.37	693.20
514.73	706.25
515.09	719.30
515.45	732.63
515.81	746.19
516.17	760.22
516.53	774.36
516.89	788.49
517.25	802.68
517.61	817.10
517.97	831.57
518.33	846.02
518.69	860.81
519.05	875.83
519.41	890.94
519.77	906.44
520.13	921.83
520.49	937.21
520.85	952.53
521.21	968.23
521.57	984.42
521.93	1000.12
522.29	1016.49
522.65	1032.66
523.01	1048.88
523.37	1064.85
523.73	1081.02
524.09	1097.12
524.45	1113.38
524.81	1130.06
525.17	1146.92
525.53	1163.79
525.89	1180.55
526.25	1197.30
526.61	1213.54
526.97	1230.31
527.33	1246.77
527.68	1263.42
528.04	1279.78
528.40	1296.39
528.76	1313.50
529.12	1330.18
529.48	1347.09
529.84	1363.09
530.20	1379.84
530.56	1396.86
530.91	1414.33
531.27	1431.01
531.63	1447.45
531.99	1464.07
532.35	1479.89
532.71	1495.59
533.07	1511.70
533.42	1527.58
533.78	1543.59
534.14	1559.97
534.50	1575.28
534.86	1591.20
535.21	1606.37
535.57	1622.31
535.93	1637.80
536.29	1652.47
536.65	1667.48
537.00	1682.25
537.36	1697.56
537.72	1711.91
538.08	1726.15
538.44	1739.91
538.79	1753.77
539.15	1767.34
539.51	1780.94
539.87	1795.18
540.22	1808.90
540.58	1822.65
540.94	1835.95
541.29	1848.81
541.65	1861.34
542.01	1874.52
542.37	1886.70
542.72	1899.07
543.08	1910.86
543.44	1923.26
543.79	1934.41
544.15	1945.41
544.51	1956.81
544.87	1967.77
545.22	1978.55
545.58	1988.78
545.94	1998.44
546.29	2008.19
546.65	2018.08
547.01	2027.31
547.36	2036.10
547.72	2044.61
548.07	2052.44
548.43	2060.61
548.79	2068.63
549.14	2076.08
549.50	2083.29
549.86	2091.00
550.21	2098.25
550.57	2105.33
550.92	2111.83
551.28	2118.93
551.64	2125.91
551.99	2132.51
552.35	2138.66
552.70	2144.98
553.06	2150.99
553.41	2157.41
553.77	2163.46
554.13	2169.53
554.48	2175.83
554.84	2181.22
555.19	2186.48
555.55	2191.69
555.90	2196.05
556.26	2201.00
556.61	2205.88
556.97	2210.32
557.32	2214.42
557.68	2218.69
558.03	2223.02
558.39	2226.78
558.74	2231.34
559.10	2235.24
559.45	2238.98
559.81	2243.26
560.16	2246.97
560.52	2250.16
560.87	2253.53
561.23	2256.18
561.58	2259.25
561.94	2261.73
562.29	2264.26
562.64	2267.01
563.00	2269.48
563.35	2273.08
563.71	2276.17
564.06	2279.36
564.42	2282.24
564.77	2284.85
565.12	2287.04
565.48	2289.03
565.83	2290.85
566.19	2292.18
566.54	2292.96
566.89	2294.02
567.25	2294.66
567.60	2295.88
567.96	2297.51
568.31	2298.35
568.66	2299.44
569.02	2299.79
569.37	2300.08
569.72	2300.91
570.08	2301.04
570.43	2301.28
570.78	2300.65
571.14	2299.11
571.49	2297.73
571.84	2297.49
572.20	2296.27
572.55	2295.11
572.90	2293.43
573.26	2292.07
573.61	2290.53
573.96	2288.85
574.31	2285.85
574.67	2282.77
575.02	2279.19
575.37	2275.94
575.72	2272.19
576.08	2268.99
576.43	2265.83
576.78	2262.17
577.13	2259.02
577.49	2255.96
577.84	2252.51
578.19	2248.93
578.54	2245.30
578.90	2241.09
579.25	2235.42
579.60	2230.31
579.95	2225.38
580.30	2220.41
580.66	2215.34
581.01	2210.41
581.36	2205.63
581.71	2201.43
582.06	2196.93
582.42	2192.57
582.77	2187.40
583.12	2182.95
583.47	2178.21
583.82	2173.10
584.17	2167.88
584.53	2162.39
584.88	2156.79
585.23	2150.89
585.58	2145.32
585.93	2139.90
586.28	2135.20
586.63	2130.07
586.98	2125.18
587.34	2120.47
587.69	2115.67
588.04	2110.22
588.39	2104.49
588.74	2097.96
589.09	2091.86
589.44	2085.16
589.79	2079.14
590.14	2073.47
590.49	2066.70
590.84	2060.38
591.19	2054.37
591.54	2047.92
591.89	2040.50
592.25	2033.55
592.60	2026.47
592.95	2018.92
593.30	2011.45
593.65	2003.76
594.00	1996.84
594.35	1989.55
594.70	1981.57
595.05	1974.22
595.40	1967.05
595.75	1959.55
596.10	1953.24
596.45	1946.65
596.80	1940.50
597.15	1933.90
597.50	1926.84
597.85	1920.61
598.19	1913.84
598.54	1906.75
598.89	1900.02
599.24	1894.03
599.59	1887.34
599.94	1881.10
600.29	1874.73
600.64	1868.21
600.99	1860.97
601.34	1854.00
601.69	1847.13
602.04	1840.22
602.39	1832.86
602.74	1826.09
603.08	1819.33
603.43	1812.74
603.78	1805.29
604.13	1798.07
604.48	1790.69
604.83	1783.83
605.18	1776.65
605.53	1768.64
605.87	1760.69
606.22	1753.45
606.57	1745.65
606.92	1738.46
607.27	1731.31
607.62	1724.44
607.96	1717.24
608.31	1710.53
608.66	1703.05
609.01	1695.39
609.36	1687.91
609.70	1679.94
610.05	1671.87
610.40	1664.21
610.75	1655.86
611.10	1648.11
611.44	1639.68
611.79	1631.61
612.14	1622.79
612.49	1613.72
612.83	1605.29
613.18	1597.09
613.53	1589.09
613.88	1580.53
614.22	1572.20
614.57	1563.57
614.92	1555.48
615.27	1547.93
615.61	1539.48
615.96	1531.47
616.31	1523.88
616.65	1516.43
617.00	1508.98
617.35	1501.22
617.70	1492.84
618.04	1484.37
618.39	1476.29
618.74	1468.73
619.08	1460.54
619.43	1453.07
619.78	1446.13
620.12	1439.08
620.47	1431.60
620.82	1423.41
621.16	1416.00
621.51	1408.46
621.85	1400.85
622.20	1392.36
622.55	1383.94
622.89	1376.21
623.24	1368.66
623.59	1361.35
623.93	1353.83
624.28	1346.51
624.62	1339.07
624.97	1331.87
625.32	1325.10
625.66	1318.08
626.01	1310.94
626.35	1303.54
626.70	1295.73
627.04	1288.05
627.39	1280.27
627.73	1272.96
628.08	1266.05
628.43	1258.81
628.77	1251.33
629.12	1243.69
629.46	1236.59
629.81	1229.20
630.15	1221.90
630.50	1214.48
630.84	1206.21
631.19	1198.27
631.53	1190.72
631.88	1183.12
632.22	1175.55
632.57	1168.23
632.91	1160.64
633.26	1153.15
633.60	1145.68
633.95	1138.66
634.29	1131.62
634.64	1124.99
634.98	1117.52
635.32	1110.38
635.67	1103.64
636.01	1096.98
636.36	1090.22
636.70	1083.60
637.05	1076.94
637.39	1070.46
637.73	1063.86
638.08	1058.01
638.42	1052.08
638.77	1045.60
639.11	1039.03
639.45	1032.74
639.80	1026.01
640.14	1019.62
640.49	1013.13
640.83	1006.88
641.17	1000.61
641.52	994.21
641.86	987.78
642.20	981.93
642.55	975.55
642.89	969.11
643.23	962.72
643.58	956.90
643.92	950.70
644.26	944.67
644.61	938.63
644.95	932.60
645.29	925.94
645.64	919.13
645.98	912.92
646.32	907.07
646.66	901.00
647.01	895.28
647.35	889.55
647.69	883.70
648.04	878.17
648.38	872.35
648.72	866.39
649.06	860.29
649.41	854.43
649.75	848.56
650.09	842.66
650.43	836.72
650.78	830.62
651.12	824.73
651.46	818.98
651.80	813.21
652.14	807.83
652.49	802.55
652.83	797.46
653.17	791.68
653.51	785.92
653.85	780.45
654.20	774.77
654.54	768.72
654.88	763.01
655.22	757.08
655.56	751.39
655.90	745.89
656.25	740.66
656.59	735.26
656.93	730.14
657.27	724.95
657.61	719.60
657.95	714.52
658.29	709.42
658.64	704.23
658.98	699.03
659.32	693.51
659.66	688.27
660.00	682.86
660.34	677.99
660.68	673.11
661.02	668.07
661.36	663.34
661.70	658.85
662.05	654.46
662.39	650.18
662.73	645.76
663.07	641.42
663.41	636.87
663.75	632.35
664.09	627.79
664.43	623.32
664.77	619.16
665.11	614.85
665.45	610.71
665.79	606.60
666.13	602.38
666.47	598.38
666.81	594.22
667.15	590.11
667.49	586.23
667.83	582.38
668.17	578.46
668.51	574.33
668.85	570.34
669.19	566.48
669.53	562.60
669.87	558.68
670.21	555.05
670.55	551.39
670.89	548.01
671.23	544.59
671.57	541.17
671.91	537.64
672.25	534.16
672.58	530.63
672.92	527.22
673.26	524.09
673.60	520.93
673.94	517.76
674.28	514.91
674.62	511.93
674.96	508.87
675.30	506.01
675.64	503.11
675.97	500.38
676.31	497.47
676.65	494.53
676.99	491.82
677.33	488.90
677.67	486.12
678.01	483.06
678.34	480.00
678.68	477.13
679.02	474.26
679.36	471.50
679.70	468.80
680.04	466.10
680.37	463.24
680.71	460.40
681.05	457.80
681.39	455.05
681.73	452.37
682.06	449.84
682.40	447.26
682.74	444.67
683.08	442.11
683.42	439.51
683.75	436.99
684.09	434.45
684.43	431.99
684.77	429.59
685.10	427.27
685.44	425.01
685.78	422.66
686.12	420.47
686.45	418.19
686.79	415.90
687.13	413.67
687.46	411.49
687.80	409.38
688.14	407.15
688.48	405.10
688.81	402.87
689.15	400.66
689.49	398.45
689.82	396.48
690.16	394.32
690.50	392.38
690.83	390.46
691.17	388.49
691.51	386.57
691.84	384.74
692.18	382.81
692.52	380.87
692.85	378.97
693.19	377.10
693.52	375.25
693.86	373.44
694.20	371.65
694.53	369.85
694.87	367.99
695.21	366.25
695.54	364.41
695.88	362.68
696.21	360.97
696.55	359.33
696.88	357.61
697.22	356.00
697.56	354.41
697.89	352.76
698.23	351.14
698.56	349.55
698.90	347.90
699.23	346.24
699.57	344.69
699.90	343.12
700.24	341.56
700.58	340.00
700.91	338.49
701.25	337.04
701.58	335.69
701.92	334.32
702.25	332.92
702.59	331.57
702.92	330.21
703.26	328.94
703.59	327.67
703.93	326.47
704.26	325.27
704.60	323.98
704.93	322.69
705.26	321.46
705.60	320.27
705.93	319.14
706.27	318.10
706.60	317.03
706.94	315.96
707.27	314.86
707.61	313.80
707.94	312.79
708.27	311.68
708.61	310.58
708.94	309.55
709.28	308.61
709.61	307.64
709.94	306.71
710.28	305.68
710.61	304.70
710.95	303.66
711.28	302.74
711.61	301.77
711.95	300.89
712.28	299.95
712.61	299.00
712.95	298.05
713.28	297.17
713.61	296.29
713.95	295.40
714.28	294.55
714.61	293.72
714.95	292.87
715.28	292.04
715.61	291.16
715.95	290.36
716.28	289.47
716.61	288.68
716.95	287.89
717.28	287.15
717.61	286.39
717.94	285.67
718.28	284.87
718.61	284.15
718.94	283.45
719.27	282.77
719.61	282.11
719.94	281.44
720.27	280.73
720.60	280.04
720.94	279.43
721.27	278.84
721.60	278.27
721.93	277.67
722.27	277.13
722.60	276.58
722.93	275.98
723.26	275.45
723.59	274.83
723.93	274.26
724.26	273.71
724.59	273.14
724.92	272.61
725.25	272.10
725.59	271.57
725.92	271.07
726.25	270.55
726.58	270.04
726.91	269.58
727.24	269.08
727.57	268.63
727.91	268.11
728.24	267.65
728.57	267.15
728.90	266.68
729.23	266.17
729.56	265.76
729.89	265.28
730.22	264.79
730.55	264.34
730.89	263.86
731.22	263.41
731.55	262.95
731.88	262.51
732.21	262.05
732.54	261.63
732.87	261.19
733.20	260.78
733.53	260.42
733.86	260.06
734.19	259.69
734.52	259.27
734.85	258.96
735.18	258.52
735.51	258.14
735.84	257.81
736.17	257.46
736.50	257.05
736.83	256.81
737.16	256.50
737.49	256.16
737.82	255.85
738.15	255.53
738.48	255.18
738.81	254.87
739.14	254.56
739.47	254.26
739.80	253.96
740.13	253.67
740.46	253.30
740.79	252.89
741.12	252.59
741.45	252.30
741.78	251.95
742.11	251.69
742.44	251.39
742.77	251.07
743.10	250.77
743.43	250.46
743.75	250.11
744.08	249.94
744.41	249.66
744.74	249.39
745.07	249.10
745.40	248.85
745.73	248.59
746.06	248.31
746.39	248.03
746.71	247.77
747.04	247.48
747.37	247.22
747.70	247.02
748.03	246.77
748.36	246.55
748.68	246.30
749.01	246.01
749.34	245.80
749.67	245.55
750.00	245.33
750.33	245.20
750.65	244.94
750.98	244.62
751.31	244.40
751.64	244.20
751.97	244.06
752.29	243.86
752.62	243.59
752.95	243.40
753.28	243.18
753.60	242.96
753.93	242.76
754.26	242.62
754.59	242.39
754.91	242.18
755.24	241.99
755.57	241.82
755.90	241.65
756.22	241.46
756.55	241.27
756.88	241.10
757.20	240.86
757.53	240.68
757.86	240.50
758.19	240.36
758.51	240.19
758.84	239.95
759.17	239.77
759.49	239.62
759.82	239.46
760.15	239.32
760.47	239.18
760.80	239.05
761.13	238.87
761.45	238.70
761.78	238.56
762.11	238.40
762.43	238.24
762.76	238.10
763.08	237.97
763.41	237.89
763.74	237.76
764.06	237.60
764.39	237.46
764.71	237.35
765.04	237.18
765.37	237.04
765.69	236.94
766.02	236.84
766.34	236.74
766.67	236.59
767.00	236.48
767.32	236.42
767.65	236.37
767.97	236.27
768.30	236.21
768.62	236.10
768.95	235.99
769.27	235.85
769.60	235.75
769.92	235.62
770.25	235.48
770.57	235.34
770.90	235.22
771.22	235.13
771.55	235.02
771.87	234.97
772.20	234.86
772.52	234.82
772.85	234.83
773.17	234.74
773.50	234.65
773.82	234.59
774.15	234.43
774.47	234.21
774.80	234.10
775.12	233.99
775.45	233.91
775.77	233.81
776.09	233.77
776.42	233.67
776.74	233.60
777.07	233.53
777.39	233.47
777.72	233.41
778.04	233.36
778.36	233.27
778.69	233.19
779.01	233.18
779.33	233.05
779.66	232.86
779.98	232.75
780.31	232.70
780.63	232.61
780.95	232.57
781.28	232.53
781.60	232.46
781.92	232.40
782.25	232.33
782.57	232.30
782.89	232.23
783.22	232.16
783.54	232.07
783.86	232.03
784.19	231.94
784.51	231.93
784.83	231.84
785.16	231.77
785.48	231.70
785.80	231.62
786.12	231.56
786.45	231.55
786.77	231.55
787.09	231.46
787.42	231.40
787.74	231.38
788.06	231.35
788.38	231.33
788.71	231.28
789.03	231.24
789.35	231.20
789.67	231.17
789.99	231.14
790.32	231.11
790.64	231.06
790.96	231.13
791.28	231.05
791.61	231.03
791.93	231.00
792.25	230.98
792.57	231.02
792.89	230.96
793.21	230.92
793.54	230.85
793.86	230.84
794.18	230.79
794.50	230.71
794.82	230.70
795.14	230.67
795.47	230.67
795.79	230.65
796.11	230.58
796.43	230.51
796.75	230.50
797.07	230.48
797.39	230.41
797.71	230.31
798.04	230.28
798.36	230.25
798.68	230.23
799.00	230.16
799.32	230.05
799.64	230.05
799.96	229.99
800.28	229.98
800.60	229.91
800.92	229.89
801.24	229.87
801.56	229.84
801.89	229.79
802.21	229.75
802.53	229.69
802.85	229.71
803.17	229.74
803.49	229.70
803.81	229.67
804.13	229.65
804.45	229.60
804.77	229.57
805.09	229.53
805.41	229.49
805.73	229.49
806.05	229.48
806.37	229.43
806.69	229.42
807.01	229.37
807.33	229.38
807.65	229.31
807.97	229.35
808.28	229.27
808.60	229.27
808.92	229.22
809.24	229.28
809.56	229.23
809.88	229.16
810.20	229.16
810.52	229.17
810.84	229.16
811.16	229.14
811.48	229.11
811.80	229.11
812.12	229.10
812.43	229.05
812.75	229.05
813.07	229.04
813.39	229.04
813.71	229.02
814.03	229.02
814.35	229.02
814.67	228.94
814.98	228.95
815.30	228.91
815.62	228.86
815.94	228.74
816.26	228.77
816.58	228.76
816.89	228.71
817.21	228.68
817.53	228.63
817.85	228.60
818.17	228.58
818.48	228.53
818.80	228.55
819.12	228.51
819.44	228.41
819.76	228.35
820.07	228.31
820.39	228.30
820.71	228.27
821.03	228.25
821.34	228.24
821.66	228.23
821.98	228.23
822.30	228.26
822.61	228.32
822.93	228.26
823.25	228.20
823.57	228.16
823.88	228.12
824.20	228.12
824.52	228.14
824.83	228.11
825.15	228.08
825.47	228.02
825.79	228.02
826.10	228.05
826.42	228.06
826.74	228.05
827.05	228.00
827.37	228.01
827.69	227.98
828.00	227.96
828.32	227.93
828.64	227.92
828.95	227.94
829.27	227.89
829.58	227.85
829.90	227.92
830.22	227.91
830.53	227.90
830.85	227.91
831.17	227.86
831.48	227.87
831.80	227.88
832.11	227.88
832.43	227.87
832.75	227.85
833.06	227.87
833.38	227.85
833.69	227.85
834.01	227.80
834.32	227.82
834.64	227.76
834.96	227.77
835.27	227.74
835.59	227.68
835.90	227.66
836.22	227.68
836.53	227.64
836.85	227.65
837.16	227.73
837.48	227.67
837.79	227.68
838.11	227.67
838.42	227.68
838.74	227.69
839.05	227.67
839.37	227.66
839.68	227.63
840.00	227.59
840.31	227.60
840.63	227.63
840.94	227.58
841.26	227.61
841.57	227.57
841.88	227.59
842.20	227.56
842.51	227.56
842.83	227.52
843.14	227.60
843.46	227.60
843.77	227.55
844.08	227.57
844.40	227.52
844.71	227.51
845.03	227.47
845.34	227.45
845.65	227.45
845.97	227.48
846.28	227.47
846.60	227.48
846.91	227.48
847.22	227.44
847.54	227.48
847.85	227.45
848.16	227.45
848.48	227.42
848.79	227.48
849.10	227.49
849.42	227.49
849.73	227.41
850.04	227.42
850.36	227.37
850.67	227.39
850.98	227.40
851.30	227.43
851.61	227.41
851.92	227.40
852.23	227.43
852.55	227.40
852.86	227.38
853.17	227.40
853.49	227.41
853.80	227.41
854.11	227.41
854.42	227.43
854.74	227.45
855.05	227.48
855.36	227.43
855.67	227.41
855.99	227.42
856.30	227.53
856.61	227.51
856.92	227.54
857.23	227.54
857.55	227.53
857.86	227.53
858.17	227.58
858.48	227.57
858.79	227.56
859.11	227.58
859.42	227.59
859.73	227.61
860.04	227.61
860.35	227.62
860.66	227.63
860.98	227.64
861.29	227.63
861.60	227.61
861.91	227.63
862.22	227.63
862.53	227.62
862.84	227.51
863.16	227.56
863.47	227.51
863.78	227.51
864.09	227.56
864.40	227.57
864.71	227.56
865.02	227.58
865.33	227.54
865.64	227.52
865.95	227.53
866.27	227.57
866.58	227.53
866.89	227.54
867.20	227.50
867.51	227.49
867.82	227.51
868.13	227.54
868.44	227.49
868.75	227.49
869.06	227.53
869.37	227.53
869.68	227.47
869.99	227.49
870.30	227.48
870.61	227.46
870.92	227.42
871.23	227.44
871.54	227.44
871.85	227.49
872.16	227.50
872.47	227.48
872.78	227.46
873.09	227.47
873.40	227.44
873.71	227.45
874.02	227.42
874.33	227.38
874.64	227.32
874.95	227.34
875.26	227.34
875.56	227.30
875.87	227.30
876.18	227.28
876.49	227.35
876.80	227.33
877.11	227.32
877.42	227.30
877.73	227.25
878.04	227.24
878.35	227.22
878.66	227.21
878.96	227.22
879.27	227.19
879.58	227.20
879.89	227.20
880.20	227.22
880.51	227.23
880.82	227.23
881.12	227.27
881.43	227.27
881.74	227.26
882.05	227.25
882.36	227.22
882.67	227.21
882.97	227.10
883.28	227.08
883.59	227.08
883.90	227.11
884.21	227.13
884.51	227.11
884.82	227.09
885.13	227.06
885.44	227.05
885.74	227.05
886.05	227.02
886.36	227.00
886.67	226.97
886.98	227.00
887.28	227.01
887.59	226.98
887.90	226.97
888.20	226.95
888.51	226.97
888.82	226.96
889.13	226.99
889.43	227.09
889.74	227.10
890.05	227.08
890.35	227.06
890.66	227.03
890.97	227.00
891.28	226.97
891.58	227.00
891.89	227.01
892.20	227.01
892.50	227.00
892.81	227.03
893.12	227.03
893.42	226.99
893.73	227.01
894.04	227.00
894.34	227.00
894.65	227.00
894.95	226.97
895.26	226.98
895.57	227.00
895.87	226.91
896.18	226.91
896.48	226.92
896.79	226.93
897.10	226.98
897.40	227.02
897.71	227.08
898.01	227.05
898.32	227.04
898.63	226.98
898.93	227.00
899.24	226.95
899.54	226.95
899.85	226.94
900.15	226.94
900.46	226.95
900.76	226.99
901.07	227.00
901.38	226.99
901.68	226.99
901.99	226.98
902.29	227.03
902.60	227.03
902.90	227.04
903.21	227.02
903.51	227.00
903.82	227.03
904.12	227.03
904.43	227.01
904.73	227.03
905.03	227.06
905.34	227.18
905.64	227.21
905.95	227.21
906.25	227.26
906.56	227.25
906.86	227.29
907.17	227.26
907.47	227.25
907.77	227.25
908.08	227.25
908.38	227.25
908.69	227.20
908.99	227.22
909.30	227.23
909.60	227.25
909.90	227.24
910.21	227.21
910.51	227.17
910.81	227.18
911.12	227.19
911.42	227.19
911.73	227.06
912.03	227.07
912.33	227.11
912.64	227.04
912.94	227.02
913.24	226.98
913.55	226.98
913.85	226.95
914.15	226.94
914.46	226.93
914.76	226.88
915.06	226.89
915.37	226.87
915.67	226.87
915.97	226.83
916.27	226.86
916.58	226.84
916.88	226.84
917.18	226.83
917.49	226.84
917.79	226.83
918.09	226.82
918.39	226.83
918.70	226.79
919.00	226.82
919.30	226.86
919.60	226.82
919.91	226.82
920.21	226.84
920.51	226.84
920.81	226.83
921.12	226.86
921.42	226.86
921.72	226.84
922.02	226.83
922.32	226.84
922.63	226.81
922.93	226.88
923.23	226.86
923.53	226.86
923.83	226.80
924.13	226.82
924.44	226.83
924.74	226.84
925.04	226.87
925.34	226.85
925.64	226.85
925.94	226.86
926.24	226.89
926.55	226.89
926.85	226.89
927.15	226.89
927.45	226.90
927.75	226.87
928.05	226.89
928.35	226.86
928.65	226.87
928.95	226.87
929.26	226.80
929.56	226.83
929.86	226.86
930.16	226.82
930.46	226.81
930.76	226.82
931.06	226.81
931.36	226.75
931.66	226.77
931.96	226.73
932.26	226.75
932.56	226.70
932.86	226.68
933.16	226.70
933.46	226.69
933.76	226.69
934.06	226.74
934.36	226.74
934.66	226.74
934.96	226.73
935.26	226.75
935.56	226.78
935.86	226.74
936.16	226.73
936.46	226.76
936.76	226.75
937.06	226.73
937.36	226.69
937.66	226.72
937.96	226.75
938.26	226.74
938.56	226.76
938.86	226.76
939.16	226.82
939.46	226.83
939.76	226.88
940.06	226.84
940.35	226.83
940.65	226.81
940.95	226.84
941.25	226.82
941.55	226.78
941.85	226.78
942.15	226.80
942.45	226.85
942.75	226.83
943.04	226.85
943.34	226.88
943.64	226.88
943.94	226.87
944.24	226.85
944.54	226.88
944.84	226.89
945.13	226.90
945.43	226.88
945.73	226.86
946.03	226.83
946.33	226.84
946.62	226.83
946.92	226.80
947.22	226.79
947.52	226.83
947.82	226.84
948.11	226.87
948.41	226.85
948.71	226.81
949.01	226.86
949.31	226.86
949.60	226.85
949.90	226.89
950.20	226.89
950.50	226.89
950.79	226.87
951.09	226.87
951.39	226.85
951.69	226.81
951.98	226.86
952.28	226.88
952.58	226.86
952.87	226.89
953.17	226.93
953.47	226.93
953.76	226.91
954.06	226.90
954.36	226.88
954.66	226.87
954.95	226.90
955.25	226.89
955.55	226.91
955.84	226.89
956.14	226.90
956.44	226.90
956.73	226.89
957.03	226.91
957.32	226.88
957.62	226.86
957.92	226.93
958.21	226.90
958.51	226.99
958.81	227.01
959.10	226.99
959.40	226.99
959.69	226.96
959.99	226.99
960.29	227.00
960.58	226.97
960.88	227.01
961.17	226.98
961.47	226.95
961.76	226.93
962.06	226.97
962.36	226.94
962.65	226.91
962.95	226.89
963.24	226.86
963.54	226.85
963.83	226.89
964.13	226.83
964.42	226.81
964.72	226.71
965.01	226.70
965.31	226.67
965.60	226.66
965.90	226.72
966.19	226.68
966.49	226.69
966.78	226.67
967.08	226.64
967.37	226.62
967.67	226.62
967.96	226.62
968.26	226.57
968.55	226.57
968.85	226.57
969.14	226.54
969.43	226.52
969.73	226.54
970.02	226.51
970.32	226.53
970.61	226.53
970.91	226.52
971.20	226.52
971.49	226.53
971.79	226.56
972.08	226.51
972.38	226.50
972.67	226.49
972.96	226.50
973.26	226.50
973.55	226.55
973.85	226.54
974.14	226.52
974.43	226.56
974.73	226.54
975.02	226.54
975.31	226.57
975.61	226.57
975.90	226.53
976.19	226.49
976.49	226.47
976.78	226.46
977.07	226.43
977.37	226.43
977.66	226.42
977.95	226.38
978.24	226.40
978.54	226.42
978.83	226.40
979.12	226.41
979.42	226.39
979.71	226.36
980.00	226.38
980.29	226.39
980.59	226.38
980.88	226.43
981.17	226.42
981.46	226.43
981.76	226.46
982.05	226.51
982.34	226.54
982.63	226.58
982.93	226.60
983.22	226.64
983.51	226.65
983.80	226.69
984.09	226.74
984.39	226.71
984.68	226.72
984.97	226.74
985.26	226.76
985.55	226.81
985.85	226.79
986.14	226.80
986.43	226.81
986.72	226.83
987.01	226.80
987.30	226.84
987.59	226.84
987.89	226.82
988.18	226.84
988.47	226.86
988.76	226.86
989.05	226.86
989.34	226.86
989.63	226.91
989.92	226.91
990.22	226.89
990.51	226.90
990.80	226.89
991.09	226.93
991.38	226.96
991.67	226.95
991.96	226.96
992.25	226.97
992.54	226.96
992.83	226.97
993.12	226.98
993.41	227.00
993.70	227.05
993.99	227.08
994.28	227.05
994.58	227.04
994.87	227.01
995.16	227.01
995.45	227.03
995.74	227.02
996.03	227.02
996.32	227.04
996.61	227.06
996.90	227.01
997.19	227.00
997.48	226.97
997.77	226.96
998.06	226.95
998.34	226.96
998.63	226.96
998.92	226.94
999.21	226.93
999.50	226.91
999.79	226.83
1000.08	226.81
1000.37	226.81
1000.66	226.81
1000.95	226.84
1001.24	226.82
1001.53	226.80
1001.82	226.77
1002.11	226.73
1002.40	226.74
1002.68	226.76
1002.97	226.86
1003.26	226.83
1003.55	226.82
1003.84	226.79
1004.13	226.84
1004.42	226.80
1004.71	226.80
1004.99	226.79
1005.28	226.80
1005.57	226.79
1005.86	226.77
1006.15	226.78
1006.44	226.74
1006.72	226.75
1007.01	226.69
1007.30	226.71
1007.59	226.69
1007.88	226.68
1008.17	226.70
1008.45	226.65
1008.74	226.61
1009.03	226.58
1009.32	226.56
1009.60	226.55
1009.89	226.56
1010.18	226.53
1010.47	226.54
1010.76	226.49
1011.04	226.50
1011.33	226.48
1011.62	226.49
1011.91	226.53
1012.19	226.52
1012.48	226.54
1012.77	226.54
1013.05	226.59
1013.34	226.57
1013.63	226.56
1013.92	226.54
1014.20	226.52
1014.49	226.52
1014.78	226.50
1015.06	226.47
1015.35	226.48
1015.64	226.49
1015.92	226.48
1016.21	226.43
1016.50	226.43
1016.78	226.48
1017.07	226.46
1017.36	226.45
1017.64	226.41
1017.93	226.39
1018.22	226.39
1018.50	226.43
1018.79	226.41
1019.08	226.37
1019.36	226.38
1019.65	226.36
1019.93	226.40
1020.22	226.44
1020.51	226.49
1020.79	226.49
1021.08	226.56
1021.36	227.12
1021.65	226.20
1021.94	226.58
1022.22	226.40
1022.51	225.82
1022.79	227.05
1023.08	227.07
1023.36	227.60
1023.65	226.14
>>>>>End Processed Spectral Data<<<<<
