SpectraSuite Data File
++++++++++++++++++++++++++++++++++++
Date: Fri Feb 01 18:06:32 EST 2013
User: group
Dark Spectrum Present: No
Reference Spectrum Present: No
Number of Sampled Component Spectra: 1
Spectrometers: USB2E7196
Integration Time (usec): 35000 (USB2E7196)
Spectra Averaged: 100 (USB2E7196)
Boxcar Smoothing: 10 (USB2E7196)
Correct for Electrical Dark: No (USB2E7196)
Strobe/Lamp Enabled: No (USB2E7196)
Correct for Detector Non-linearity: No (USB2E7196)
Correct for Stray Light: No (USB2E7196)
Number of Pixels in Processed Spectrum: 2048
>>>>>Begin Processed Spectral Data<<<<<
339.09	0.00
339.48	212.90
339.86	214.31
340.24	215.19
340.63	217.15
341.01	219.84
341.39	219.86
341.78	220.65
342.16	221.98
342.54	223.15
342.93	211.12
343.31	221.81
343.69	222.34
344.07	222.79
344.46	223.26
344.84	223.63
345.22	223.87
345.60	224.09
345.99	224.27
346.37	224.43
346.75	224.51
347.13	224.61
347.52	224.70
347.90	224.84
348.28	224.89
348.66	224.97
349.05	224.99
349.43	225.09
349.81	225.18
350.19	225.22
350.57	225.31
350.96	225.35
351.34	225.43
351.72	225.53
352.10	225.65
352.48	225.72
352.87	225.84
353.25	225.95
353.63	226.04
354.01	226.17
354.39	226.26
354.77	226.36
355.15	226.48
355.54	226.54
355.92	226.57
356.30	226.64
356.68	226.79
357.06	226.89
357.44	226.90
357.82	226.97
358.20	227.04
358.58	227.11
358.97	227.21
359.35	227.29
359.73	227.37
360.11	227.44
360.49	227.48
360.87	227.50
361.25	227.55
361.63	227.67
362.01	227.72
362.39	227.75
362.77	227.79
363.15	227.80
363.53	227.84
363.91	227.85
364.29	227.88
364.67	227.80
365.05	227.81
365.43	227.84
365.81	227.84
366.19	227.91
366.57	227.95
366.95	228.00
367.33	227.98
367.71	227.98
368.09	228.01
368.47	228.02
368.85	228.01
369.23	228.00
369.61	227.92
369.99	227.94
370.37	227.93
370.75	227.94
371.13	227.90
371.51	227.86
371.89	227.84
372.27	227.81
372.65	227.81
373.03	227.78
373.41	227.73
373.78	227.67
374.16	227.53
374.54	227.44
374.92	227.32
375.30	227.28
375.68	227.20
376.06	227.10
376.44	227.02
376.82	226.96
377.19	226.86
377.57	226.77
377.95	226.64
378.33	226.59
378.71	226.47
379.09	226.43
379.47	226.37
379.84	226.31
380.22	226.21
380.60	226.13
380.98	226.05
381.36	225.96
381.73	225.90
382.11	225.88
382.49	225.86
382.87	225.82
383.25	225.76
383.62	225.84
384.00	225.75
384.38	225.69
384.76	225.67
385.13	225.69
385.51	225.64
385.89	225.58
386.27	225.51
386.64	225.50
387.02	225.43
387.40	225.38
387.78	225.34
388.15	225.32
388.53	225.24
388.91	225.22
389.29	225.19
389.66	225.18
390.04	225.14
390.42	225.12
390.79	225.08
391.17	225.04
391.55	224.92
391.92	224.94
392.30	224.97
392.68	224.94
393.05	224.92
393.43	224.94
393.81	224.96
394.18	224.94
394.56	224.92
394.94	224.94
395.31	224.94
395.69	224.97
396.06	224.97
396.44	225.04
396.82	225.06
397.19	225.16
397.57	225.18
397.95	225.25
398.32	225.23
398.70	225.30
399.07	225.34
399.45	225.39
399.82	225.44
400.20	225.49
400.58	225.59
400.95	225.61
401.33	225.70
401.70	225.84
402.08	225.96
402.45	226.07
402.83	226.18
403.20	226.33
403.58	226.45
403.95	226.63
404.33	226.74
404.71	226.86
405.08	227.03
405.46	227.19
405.83	227.37
406.21	227.57
406.58	227.75
406.96	227.97
407.33	228.19
407.70	228.42
408.08	228.74
408.45	228.96
408.83	229.25
409.20	229.53
409.58	229.79
409.95	230.09
410.33	230.46
410.70	230.80
411.08	231.18
411.45	231.58
411.82	231.95
412.20	232.39
412.57	232.94
412.95	233.33
413.32	233.88
413.69	234.43
414.07	234.99
414.44	235.63
414.82	236.25
415.19	236.96
415.56	237.70
415.94	238.40
416.31	239.27
416.68	240.11
417.06	241.04
417.43	241.94
417.81	242.97
418.18	243.98
418.55	245.08
418.93	246.24
419.30	247.44
419.67	248.71
420.04	250.05
420.42	251.40
420.79	252.97
421.16	254.52
421.54	256.09
421.91	257.75
422.28	259.45
422.66	261.26
423.03	263.00
423.40	264.81
423.77	266.75
424.15	268.70
424.52	270.74
424.89	272.94
425.26	275.10
425.64	277.06
426.01	279.23
426.38	281.52
426.75	283.77
427.13	286.13
427.50	288.64
427.87	291.17
428.24	293.70
428.61	296.13
428.99	298.78
429.36	301.70
429.73	304.55
430.10	307.33
430.47	310.15
430.85	313.10
431.22	316.15
431.59	319.34
431.96	322.37
432.33	325.74
432.70	328.98
433.08	332.72
433.45	336.28
433.82	339.81
434.19	343.71
434.56	347.55
434.93	351.14
435.30	354.66
435.68	358.57
436.05	362.42
436.42	366.23
436.79	369.62
437.16	373.26
437.53	377.09
437.90	380.87
438.27	384.62
438.64	388.42
439.01	391.90
439.38	395.01
439.75	397.99
440.13	401.36
440.50	404.52
440.87	407.10
441.24	409.80
441.61	412.80
441.98	414.88
442.35	417.36
442.72	419.89
443.09	422.35
443.46	423.77
443.83	424.57
444.20	425.28
444.57	426.48
444.94	426.85
445.31	427.33
445.68	427.74
446.05	427.78
446.42	427.31
446.79	426.78
447.16	426.13
447.53	425.70
447.90	424.15
448.27	422.57
448.64	420.38
449.01	418.83
449.37	416.13
449.74	413.50
450.11	410.38
450.48	407.00
450.85	403.56
451.22	400.64
451.59	397.89
451.96	395.21
452.33	391.64
452.70	388.47
453.07	384.59
453.43	380.72
453.80	377.00
454.17	373.31
454.54	369.86
454.91	366.19
455.28	362.53
455.65	359.13
456.02	355.74
456.38	352.84
456.75	349.16
457.12	346.07
457.49	343.00
457.86	340.10
458.23	337.54
458.59	334.78
458.96	331.88
459.33	329.33
459.70	326.77
460.07	324.69
460.43	322.29
460.80	320.02
461.17	318.04
461.54	315.97
461.91	314.01
462.27	311.99
462.64	310.26
463.01	308.39
463.38	306.59
463.74	304.79
464.11	303.13
464.48	301.76
464.85	300.21
465.21	299.02
465.58	297.72
465.95	296.22
466.32	294.95
466.68	293.71
467.05	292.48
467.42	291.25
467.78	289.97
468.15	288.76
468.52	287.88
468.88	286.68
469.25	285.62
469.62	284.76
469.98	283.84
470.35	282.95
470.72	282.12
471.08	281.21
471.45	280.47
471.82	279.69
472.18	278.89
472.55	278.31
472.92	277.60
473.28	276.93
473.65	276.31
474.02	275.70
474.38	275.18
474.75	274.68
475.11	274.17
475.48	273.81
475.85	273.45
476.21	273.13
476.58	272.85
476.94	272.61
477.31	272.35
477.67	272.08
478.04	271.88
478.41	271.75
478.77	271.74
479.14	271.55
479.50	271.50
479.87	271.52
480.23	271.48
480.60	271.50
480.96	271.54
481.33	271.70
481.69	271.85
482.06	272.01
482.42	272.16
482.79	272.39
483.15	272.66
483.52	273.05
483.88	273.36
484.25	273.71
484.61	274.14
484.98	274.57
485.34	275.11
485.71	275.70
486.07	276.32
486.44	276.89
486.80	277.59
487.17	278.35
487.53	279.17
487.90	280.10
488.26	281.07
488.62	282.08
488.99	283.11
489.35	284.16
489.72	285.32
490.08	286.59
490.44	287.87
490.81	289.27
491.17	290.64
491.54	292.22
491.90	293.84
492.26	295.53
492.63	297.31
492.99	299.20
493.36	301.22
493.72	303.35
494.08	305.59
494.45	308.01
494.81	310.55
495.17	313.12
495.54	315.82
495.90	318.68
496.26	321.65
496.63	324.78
496.99	328.10
497.35	331.59
497.72	335.20
498.08	338.98
498.44	342.90
498.80	347.07
499.17	351.36
499.53	355.77
499.89	360.46
500.26	365.28
500.62	370.21
500.98	375.47
501.34	380.87
501.71	386.49
502.07	392.25
502.43	398.15
502.79	404.37
503.16	410.86
503.52	417.52
503.88	424.34
504.24	431.40
504.60	438.70
504.97	446.23
505.33	454.02
505.69	462.23
506.05	470.48
506.41	478.93
506.78	487.58
507.14	496.60
507.50	505.88
507.86	515.49
508.22	525.40
508.59	535.29
508.95	545.46
509.31	555.97
509.67	566.76
510.03	577.74
510.39	589.01
510.75	600.58
511.12	612.34
511.48	624.42
511.84	636.72
512.20	649.12
512.56	661.91
512.92	674.97
513.28	688.23
513.64	701.71
514.00	715.39
514.37	729.33
514.73	743.40
515.09	757.46
515.45	771.75
515.81	786.37
516.17	801.47
516.53	816.86
516.89	832.18
517.25	847.63
517.61	863.36
517.97	879.15
518.33	894.75
518.69	910.81
519.05	927.06
519.41	943.56
519.77	960.53
520.13	977.51
520.49	994.33
520.85	1011.13
521.21	1028.28
521.57	1046.07
521.93	1063.35
522.29	1081.31
522.65	1099.18
523.01	1117.03
523.37	1134.70
523.73	1152.42
524.09	1170.20
524.45	1188.19
524.81	1206.53
525.17	1224.98
525.53	1243.55
525.89	1262.30
526.25	1280.85
526.61	1299.04
526.97	1317.60
527.33	1335.84
527.68	1354.24
528.04	1372.54
528.40	1391.07
528.76	1410.09
529.12	1428.54
529.48	1447.46
529.84	1465.40
530.20	1484.04
530.56	1503.09
530.91	1522.60
531.27	1541.56
531.63	1559.96
531.99	1578.56
532.35	1596.56
532.71	1614.58
533.07	1633.06
533.42	1651.09
533.78	1669.32
534.14	1687.84
534.50	1705.35
534.86	1723.40
535.21	1740.74
535.57	1759.01
535.93	1776.80
536.29	1793.82
536.65	1811.10
537.00	1827.93
537.36	1845.54
537.72	1862.22
538.08	1878.92
538.44	1894.81
538.79	1910.87
539.15	1926.78
539.51	1942.69
539.87	1959.35
540.22	1975.25
540.58	1991.31
540.94	2006.91
541.29	2021.89
541.65	2036.85
542.01	2052.42
542.37	2067.17
542.72	2081.87
543.08	2095.94
543.44	2110.59
543.79	2124.01
544.15	2137.27
544.51	2151.36
544.87	2164.59
545.22	2177.66
545.58	2190.04
545.94	2202.22
546.29	2214.28
546.65	2226.43
547.01	2238.06
547.36	2248.82
547.72	2259.60
548.07	2269.51
548.43	2279.76
548.79	2289.97
549.14	2299.64
549.50	2308.81
549.86	2318.36
550.21	2327.71
550.57	2336.89
550.92	2345.50
551.28	2354.76
551.64	2363.97
551.99	2372.46
552.35	2380.73
552.70	2388.92
553.06	2396.96
553.41	2405.13
553.77	2413.22
554.13	2421.17
554.48	2429.44
554.84	2437.02
555.19	2444.15
555.55	2451.21
555.90	2457.54
556.26	2464.54
556.61	2471.16
556.97	2477.43
557.32	2483.35
557.68	2489.27
558.03	2495.30
558.39	2500.50
558.74	2506.70
559.10	2512.21
559.45	2517.29
559.81	2522.88
560.16	2528.24
560.52	2532.97
560.87	2537.95
561.23	2541.90
561.58	2546.21
561.94	2549.93
562.29	2553.52
562.64	2557.60
563.00	2561.40
563.35	2566.23
563.71	2570.54
564.06	2575.05
564.42	2579.35
564.77	2583.25
565.12	2586.98
565.48	2590.14
565.83	2593.34
566.19	2595.96
566.54	2597.73
566.89	2600.22
567.25	2602.07
567.60	2604.45
567.96	2607.37
568.31	2609.09
568.66	2611.41
569.02	2612.98
569.37	2614.20
569.72	2616.27
570.08	2617.37
570.43	2618.22
570.78	2618.46
571.14	2617.47
571.49	2616.59
571.84	2616.94
572.20	2616.54
572.55	2615.99
572.90	2614.79
573.26	2613.95
573.61	2612.57
573.96	2611.43
574.31	2608.51
574.67	2605.73
575.02	2602.37
575.37	2599.01
575.72	2595.51
576.08	2592.10
576.43	2588.87
576.78	2585.29
577.13	2582.03
577.49	2578.77
577.84	2575.48
578.19	2571.73
578.54	2568.15
578.90	2563.97
579.25	2558.01
579.60	2552.70
579.95	2547.43
580.30	2542.18
580.66	2536.55
581.01	2531.18
581.36	2525.91
581.71	2521.49
582.06	2516.94
582.42	2512.12
582.77	2506.57
583.12	2501.60
583.47	2496.63
583.82	2491.34
584.17	2485.70
584.53	2479.74
584.88	2473.75
585.23	2467.38
585.58	2461.30
585.93	2455.44
586.28	2450.18
586.63	2444.71
586.98	2439.15
587.34	2433.90
587.69	2428.58
588.04	2423.00
588.39	2416.92
588.74	2409.71
589.09	2403.00
589.44	2395.32
589.79	2388.51
590.14	2382.02
590.49	2374.70
590.84	2367.59
591.19	2360.85
591.54	2353.67
591.89	2345.39
592.25	2337.82
592.60	2329.62
592.95	2321.11
593.30	2312.66
593.65	2303.94
594.00	2295.80
594.35	2287.53
594.70	2278.38
595.05	2270.13
595.40	2261.70
595.75	2252.87
596.10	2245.75
596.45	2238.19
596.80	2231.19
597.15	2223.69
597.50	2215.86
597.85	2208.40
598.19	2200.65
598.54	2192.49
598.89	2184.76
599.24	2177.90
599.59	2170.12
599.94	2162.93
600.29	2155.61
600.64	2148.10
600.99	2139.59
601.34	2131.78
601.69	2123.64
602.04	2115.85
602.39	2107.36
602.74	2099.51
603.08	2091.80
603.43	2084.00
603.78	2075.31
604.13	2066.82
604.48	2058.31
604.83	2050.23
605.18	2042.25
605.53	2033.01
605.87	2023.69
606.22	2015.10
606.57	2005.74
606.92	1997.01
607.27	1988.58
607.62	1980.58
607.96	1971.95
608.31	1964.33
608.66	1955.39
609.01	1946.56
609.36	1937.51
609.70	1928.04
610.05	1918.43
610.40	1909.42
610.75	1899.59
611.10	1890.52
611.44	1880.52
611.79	1871.08
612.14	1860.85
612.49	1849.83
612.83	1839.93
613.18	1830.29
613.53	1820.79
613.88	1810.76
614.22	1801.13
614.57	1790.90
614.92	1781.42
615.27	1772.58
615.61	1762.55
615.96	1753.03
616.31	1743.95
616.65	1735.28
617.00	1726.34
617.35	1717.33
617.70	1707.44
618.04	1697.46
618.39	1687.82
618.74	1678.93
619.08	1669.15
619.43	1660.09
619.78	1651.95
620.12	1643.45
620.47	1634.54
620.82	1624.93
621.16	1616.11
621.51	1607.10
621.85	1598.23
622.20	1588.06
622.55	1578.18
622.89	1568.99
623.24	1559.90
623.59	1551.03
623.93	1542.07
624.28	1533.51
624.62	1524.64
624.97	1516.10
625.32	1507.93
625.66	1499.61
626.01	1491.13
626.35	1482.33
626.70	1473.17
627.04	1464.13
627.39	1454.90
627.73	1446.13
628.08	1437.93
628.43	1429.36
628.77	1420.61
629.12	1411.63
629.46	1403.18
629.81	1394.28
630.15	1385.59
630.50	1376.96
630.84	1367.39
631.19	1358.00
631.53	1349.14
631.88	1340.24
632.22	1331.35
632.57	1322.75
632.91	1313.77
633.26	1305.08
633.60	1296.35
633.95	1287.92
634.29	1279.60
634.64	1271.59
634.98	1262.94
635.32	1254.39
635.67	1246.49
636.01	1238.72
636.36	1230.76
636.70	1223.08
637.05	1215.33
637.39	1207.80
637.73	1200.08
638.08	1193.20
638.42	1186.06
638.77	1178.53
639.11	1170.79
639.45	1163.31
639.80	1155.58
640.14	1147.98
640.49	1140.37
640.83	1132.92
641.17	1125.70
641.52	1118.17
641.86	1110.61
642.20	1103.72
642.55	1096.38
642.89	1088.98
643.23	1081.25
643.58	1074.45
643.92	1067.14
644.26	1060.11
644.61	1052.99
644.95	1045.93
645.29	1038.27
645.64	1030.46
645.98	1022.98
646.32	1016.04
646.66	1009.03
647.01	1002.23
647.35	995.68
647.69	988.75
648.04	982.30
648.38	975.56
648.72	968.63
649.06	961.71
649.41	954.85
649.75	947.95
650.09	940.91
650.43	934.23
650.78	927.06
651.12	920.14
651.46	913.45
651.80	906.87
652.14	900.63
652.49	894.41
652.83	888.33
653.17	881.78
653.51	875.25
653.85	868.89
654.20	862.40
654.54	855.38
654.88	848.68
655.22	841.86
655.56	835.16
655.90	828.82
656.25	822.71
656.59	816.51
656.93	810.54
657.27	804.58
657.61	798.23
657.95	792.36
658.29	786.42
658.64	780.29
658.98	774.02
659.32	767.65
659.66	761.57
660.00	755.40
660.34	749.66
660.68	743.90
661.02	738.02
661.36	732.49
661.70	727.30
662.05	722.28
662.39	717.26
662.73	712.07
663.07	706.95
663.41	701.75
663.75	696.49
664.09	691.20
664.43	686.08
664.77	681.27
665.11	676.33
665.45	671.54
665.79	666.90
666.13	662.19
666.47	657.44
666.81	652.58
667.15	647.91
667.49	643.33
667.83	638.82
668.17	634.29
668.51	629.57
668.85	624.84
669.19	620.41
669.53	616.01
669.87	611.54
670.21	607.29
670.55	603.09
670.89	599.16
671.23	595.23
671.57	591.18
671.91	587.07
672.25	582.96
672.58	578.85
672.92	574.80
673.26	571.05
673.60	567.37
673.94	563.78
674.28	560.30
674.62	556.93
674.96	553.44
675.30	550.15
675.64	546.74
675.97	543.48
676.31	540.09
676.65	536.68
676.99	533.52
677.33	530.19
677.67	526.93
678.01	523.38
678.34	519.96
678.68	516.62
679.02	513.39
679.36	510.19
679.70	507.10
680.04	503.98
680.37	500.75
680.71	497.53
681.05	494.51
681.39	491.50
681.73	488.46
682.06	485.53
682.40	482.55
682.74	479.63
683.08	476.73
683.42	473.71
683.75	470.85
684.09	467.93
684.43	465.06
684.77	462.18
685.10	459.49
685.44	456.80
685.78	454.15
686.12	451.54
686.45	448.90
686.79	446.19
687.13	443.59
687.46	441.02
687.80	438.57
688.14	436.00
688.48	433.53
688.81	430.85
689.15	428.33
689.49	425.76
689.82	423.31
690.16	420.84
690.50	418.52
690.83	416.20
691.17	413.85
691.51	411.63
691.84	409.47
692.18	407.21
692.52	404.88
692.85	402.59
693.19	400.44
693.52	398.33
693.86	396.24
694.20	394.18
694.53	392.14
694.87	389.90
695.21	387.78
695.54	385.65
695.88	383.64
696.21	381.64
696.55	379.70
696.88	377.76
697.22	375.90
697.56	374.08
697.89	372.21
698.23	370.36
698.56	368.50
698.90	366.66
699.23	364.77
699.57	363.01
699.90	361.23
700.24	359.38
700.58	357.57
700.91	355.87
701.25	354.18
701.58	352.58
701.92	351.03
702.25	349.47
702.59	347.89
702.92	346.35
703.26	344.84
703.59	343.37
703.93	341.97
704.26	340.51
704.60	339.00
704.93	337.49
705.26	336.07
705.60	334.68
705.93	333.32
706.27	332.06
706.60	330.77
706.94	329.49
707.27	328.15
707.61	326.88
707.94	325.64
708.27	324.34
708.61	323.02
708.94	321.84
709.28	320.62
709.61	319.46
709.94	318.32
710.28	317.11
710.61	315.98
710.95	314.72
711.28	313.64
711.61	312.48
711.95	311.43
712.28	310.30
712.61	309.17
712.95	308.05
713.28	307.00
713.61	305.96
713.95	304.99
714.28	304.03
714.61	303.07
714.95	302.06
715.28	301.07
715.61	300.06
715.95	299.06
716.28	298.08
716.61	297.07
716.95	296.11
717.28	295.19
717.61	294.24
717.94	293.37
718.28	292.46
718.61	291.67
718.94	290.80
719.27	290.02
719.61	289.26
719.94	288.50
720.27	287.65
720.60	286.90
720.94	286.15
721.27	285.46
721.60	284.73
721.93	284.04
722.27	283.37
722.60	282.73
722.93	282.06
723.26	281.43
723.59	280.82
723.93	280.19
724.26	279.57
724.59	278.95
724.92	278.33
725.25	277.70
725.59	277.09
725.92	276.52
726.25	275.89
726.58	275.33
726.91	274.75
727.24	274.22
727.57	273.61
727.91	273.03
728.24	272.48
728.57	271.94
728.90	271.42
729.23	270.88
729.56	270.40
729.89	269.83
730.22	269.25
730.55	268.70
730.89	268.19
731.22	267.64
731.55	267.12
731.88	266.59
732.21	266.09
732.54	265.57
732.87	265.05
733.20	264.59
733.53	264.09
733.86	263.62
734.19	263.17
734.52	262.74
734.85	262.34
735.18	261.89
735.51	261.48
735.84	261.02
736.17	260.62
736.50	260.15
736.83	259.87
737.16	259.54
737.49	259.15
737.82	258.71
738.15	258.36
738.48	258.00
738.81	257.64
739.14	257.26
739.47	256.90
739.80	256.54
740.13	256.22
740.46	255.84
740.79	255.49
741.12	255.13
741.45	254.76
741.78	254.40
742.11	254.04
742.44	253.63
742.77	253.36
743.10	253.00
743.43	252.63
743.75	252.23
744.08	252.01
744.41	251.71
744.74	251.46
745.07	251.12
745.40	250.82
745.73	250.51
746.06	250.19
746.39	249.87
746.71	249.55
747.04	249.25
747.37	248.95
747.70	248.67
748.03	248.38
748.36	248.15
748.68	247.82
749.01	247.51
749.34	247.25
749.67	246.92
750.00	246.67
750.33	246.49
750.65	246.18
750.98	245.81
751.31	245.55
751.64	245.26
751.97	245.09
752.29	244.83
752.62	244.54
752.95	244.31
753.28	244.07
753.60	243.87
753.93	243.63
754.26	243.41
754.59	243.14
754.91	242.90
755.24	242.67
755.57	242.46
755.90	242.24
756.22	242.00
756.55	241.78
756.88	241.51
757.20	241.21
757.53	241.02
757.86	240.81
758.19	240.65
758.51	240.42
758.84	240.16
759.17	239.95
759.49	239.81
759.82	239.65
760.15	239.50
760.47	239.31
760.80	239.09
761.13	238.93
761.45	238.77
761.78	238.58
762.11	238.42
762.43	238.24
762.76	238.11
763.08	238.02
763.41	237.86
763.74	237.74
764.06	237.59
764.39	237.44
764.71	237.30
765.04	237.11
765.37	236.96
765.69	236.82
766.02	236.67
766.34	236.53
766.67	236.36
767.00	236.21
767.32	236.12
767.65	236.06
767.97	235.92
768.30	235.80
768.62	235.70
768.95	235.52
769.27	235.40
769.60	235.29
769.92	235.11
770.25	234.96
770.57	234.82
770.90	234.68
771.22	234.55
771.55	234.41
771.87	234.31
772.20	234.22
772.52	234.21
772.85	234.21
773.17	234.12
773.50	233.99
773.82	233.90
774.15	233.70
774.47	233.53
774.80	233.44
775.12	233.33
775.45	233.22
775.77	233.14
776.09	233.06
776.42	232.96
776.74	232.91
777.07	232.84
777.39	232.78
777.72	232.70
778.04	232.64
778.36	232.60
778.69	232.50
779.01	232.40
779.33	232.24
779.66	232.03
779.98	231.93
780.31	231.90
780.63	231.87
780.95	231.85
781.28	231.79
781.60	231.70
781.92	231.61
782.25	231.52
782.57	231.46
782.89	231.35
783.22	231.24
783.54	231.15
783.86	231.10
784.19	231.00
784.51	230.99
784.83	230.90
785.16	230.78
785.48	230.74
785.80	230.70
786.12	230.67
786.45	230.60
786.77	230.54
787.09	230.44
787.42	230.31
787.74	230.29
788.06	230.24
788.38	230.16
788.71	230.14
789.03	230.12
789.35	230.08
789.67	230.00
789.99	229.95
790.32	229.89
790.64	229.83
790.96	229.87
791.28	229.76
791.61	229.72
791.93	229.69
792.25	229.65
792.57	229.66
792.89	229.60
793.21	229.57
793.54	229.50
793.86	229.47
794.18	229.44
794.50	229.36
794.82	229.29
795.14	229.27
795.47	229.22
795.79	229.13
796.11	229.08
796.43	229.05
796.75	229.04
797.07	228.99
797.39	228.93
797.71	228.83
798.04	228.78
798.36	228.71
798.68	228.69
799.00	228.63
799.32	228.54
799.64	228.50
799.96	228.47
800.28	228.46
800.60	228.39
800.92	228.36
801.24	228.29
801.56	228.27
801.89	228.25
802.21	228.22
802.53	228.18
802.85	228.18
803.17	228.16
803.49	228.13
803.81	228.10
804.13	228.09
804.45	228.03
804.77	228.03
805.09	228.03
805.41	227.95
805.73	227.91
806.05	227.82
806.37	227.76
806.69	227.73
807.01	227.69
807.33	227.68
807.65	227.63
807.97	227.67
808.28	227.63
808.60	227.59
808.92	227.55
809.24	227.58
809.56	227.53
809.88	227.52
810.20	227.49
810.52	227.48
810.84	227.43
811.16	227.42
811.48	227.38
811.80	227.43
812.12	227.45
812.43	227.43
812.75	227.43
813.07	227.41
813.39	227.40
813.71	227.37
814.03	227.34
814.35	227.32
814.67	227.23
814.98	227.22
815.30	227.23
815.62	227.20
815.94	227.13
816.26	227.18
816.58	227.14
816.89	227.15
817.21	227.09
817.53	227.07
817.85	227.04
818.17	227.01
818.48	226.92
818.80	226.89
819.12	226.84
819.44	226.84
819.76	226.83
820.07	226.81
820.39	226.81
820.71	226.80
821.03	226.78
821.34	226.76
821.66	226.72
821.98	226.70
822.30	226.67
822.61	226.72
822.93	226.62
823.25	226.59
823.57	226.56
823.88	226.57
824.20	226.55
824.52	226.55
824.83	226.54
825.15	226.52
825.47	226.50
825.79	226.51
826.10	226.44
826.42	226.42
826.74	226.44
827.05	226.39
827.37	226.41
827.69	226.41
828.00	226.42
828.32	226.43
828.64	226.40
828.95	226.46
829.27	226.41
829.58	226.42
829.90	226.46
830.22	226.43
830.53	226.41
830.85	226.39
831.17	226.40
831.48	226.40
831.80	226.41
832.11	226.40
832.43	226.39
832.75	226.42
833.06	226.48
833.38	226.41
833.69	226.41
834.01	226.37
834.32	226.33
834.64	226.32
834.96	226.32
835.27	226.30
835.59	226.26
835.90	226.21
836.22	226.21
836.53	226.17
836.85	226.17
837.16	226.25
837.48	226.24
837.79	226.28
838.11	226.28
838.42	226.24
838.74	226.26
839.05	226.25
839.37	226.23
839.68	226.16
840.00	226.19
840.31	226.22
840.63	226.21
840.94	226.20
841.26	226.20
841.57	226.17
841.88	226.18
842.20	226.15
842.51	226.14
842.83	226.10
843.14	226.15
843.46	226.17
843.77	226.10
844.08	226.08
844.40	226.03
844.71	226.02
845.03	226.01
845.34	225.96
845.65	225.92
845.97	225.92
846.28	225.90
846.60	225.88
846.91	225.85
847.22	225.83
847.54	225.86
847.85	225.85
848.16	225.85
848.48	225.79
848.79	225.84
849.10	225.85
849.42	225.86
849.73	225.76
850.04	225.73
850.36	225.70
850.67	225.71
850.98	225.68
851.30	225.65
851.61	225.63
851.92	225.62
852.23	225.64
852.55	225.63
852.86	225.62
853.17	225.62
853.49	225.63
853.80	225.64
854.11	225.62
854.42	225.63
854.74	225.61
855.05	225.61
855.36	225.56
855.67	225.54
855.99	225.55
856.30	225.69
856.61	225.64
856.92	225.62
857.23	225.61
857.55	225.62
857.86	225.61
858.17	225.63
858.48	225.60
858.79	225.59
859.11	225.56
859.42	225.56
859.73	225.52
860.04	225.51
860.35	225.47
860.66	225.41
860.98	225.41
861.29	225.45
861.60	225.45
861.91	225.45
862.22	225.44
862.53	225.41
862.84	225.29
863.16	225.34
863.47	225.32
863.78	225.36
864.09	225.36
864.40	225.35
864.71	225.34
865.02	225.40
865.33	225.42
865.64	225.44
865.95	225.44
866.27	225.52
866.58	225.51
866.89	225.57
867.20	225.56
867.51	225.55
867.82	225.54
868.13	225.58
868.44	225.56
868.75	225.56
869.06	225.58
869.37	225.60
869.68	225.58
869.99	225.60
870.30	225.60
870.61	225.61
870.92	225.60
871.23	225.61
871.54	225.59
871.85	225.61
872.16	225.61
872.47	225.59
872.78	225.54
873.09	225.55
873.40	225.49
873.71	225.53
874.02	225.55
874.33	225.51
874.64	225.45
874.95	225.45
875.26	225.47
875.56	225.46
875.87	225.44
876.18	225.40
876.49	225.52
876.80	225.51
877.11	225.47
877.42	225.47
877.73	225.50
878.04	225.51
878.35	225.51
878.66	225.50
878.96	225.52
879.27	225.51
879.58	225.47
879.89	225.47
880.20	225.47
880.51	225.46
880.82	225.49
881.12	225.52
881.43	225.51
881.74	225.49
882.05	225.44
882.36	225.42
882.67	225.46
882.97	225.33
883.28	225.31
883.59	225.29
883.90	225.30
884.21	225.29
884.51	225.25
884.82	225.22
885.13	225.20
885.44	225.18
885.74	225.19
886.05	225.19
886.36	225.21
886.67	225.17
886.98	225.21
887.28	225.22
887.59	225.18
887.90	225.17
888.20	225.13
888.51	225.16
888.82	225.14
889.13	225.13
889.43	225.22
889.74	225.20
890.05	225.20
890.35	225.21
890.66	225.19
890.97	225.15
891.28	225.13
891.58	225.14
891.89	225.16
892.20	225.16
892.50	225.18
892.81	225.15
893.12	225.13
893.42	225.09
893.73	225.09
894.04	225.10
894.34	225.11
894.65	225.12
894.95	225.13
895.26	225.14
895.57	225.17
895.87	225.05
896.18	225.06
896.48	225.08
896.79	225.05
897.10	225.05
897.40	225.08
897.71	225.07
898.01	225.04
898.32	225.03
898.63	225.05
898.93	225.02
899.24	225.03
899.54	225.04
899.85	225.04
900.15	225.01
900.46	224.99
900.76	225.01
901.07	225.01
901.38	224.99
901.68	225.01
901.99	224.97
902.29	224.99
902.60	225.02
902.90	225.01
903.21	225.01
903.51	225.00
903.82	224.99
904.12	225.00
904.43	225.04
904.73	225.06
905.03	225.04
905.34	225.15
905.64	225.19
905.95	225.20
906.25	225.19
906.56	225.19
906.86	225.22
907.17	225.21
907.47	225.23
907.77	225.22
908.08	225.20
908.38	225.23
908.69	225.25
908.99	225.25
909.30	225.30
909.60	225.31
909.90	225.36
910.21	225.37
910.51	225.38
910.81	225.38
911.12	225.36
911.42	225.38
911.73	225.28
912.03	225.23
912.33	225.26
912.64	225.25
912.94	225.27
913.24	225.23
913.55	225.28
913.85	225.28
914.15	225.33
914.46	225.35
914.76	225.33
915.06	225.31
915.37	225.31
915.67	225.26
915.97	225.29
916.27	225.25
916.58	225.29
916.88	225.27
917.18	225.25
917.49	225.31
917.79	225.28
918.09	225.30
918.39	225.34
918.70	225.35
919.00	225.38
919.30	225.41
919.60	225.44
919.91	225.41
920.21	225.39
920.51	225.36
920.81	225.33
921.12	225.35
921.42	225.38
921.72	225.39
922.02	225.40
922.32	225.38
922.63	225.36
922.93	225.39
923.23	225.41
923.53	225.41
923.83	225.33
924.13	225.33
924.44	225.32
924.74	225.33
925.04	225.33
925.34	225.30
925.64	225.26
925.94	225.28
926.24	225.31
926.55	225.31
926.85	225.30
927.15	225.32
927.45	225.30
927.75	225.24
928.05	225.21
928.35	225.19
928.65	225.19
928.95	225.20
929.26	225.14
929.56	225.16
929.86	225.16
930.16	225.13
930.46	225.14
930.76	225.14
931.06	225.07
931.36	225.03
931.66	225.04
931.96	225.04
932.26	225.02
932.56	224.95
932.86	224.95
933.16	224.93
933.46	224.91
933.76	224.88
934.06	224.93
934.36	224.98
934.66	224.98
934.96	224.95
935.26	224.93
935.56	224.98
935.86	224.94
936.16	224.93
936.46	224.91
936.76	224.91
937.06	224.87
937.36	224.89
937.66	224.90
937.96	224.88
938.26	224.87
938.56	224.87
938.86	224.88
939.16	224.91
939.46	224.92
939.76	224.91
940.06	224.94
940.35	224.91
940.65	224.84
940.95	224.87
941.25	224.85
941.55	224.88
941.85	224.85
942.15	224.87
942.45	224.89
942.75	224.92
943.04	224.92
943.34	224.97
943.64	224.96
943.94	224.95
944.24	224.94
944.54	224.94
944.84	224.95
945.13	224.94
945.43	224.91
945.73	224.94
946.03	224.99
946.33	224.94
946.62	224.94
946.92	224.97
947.22	224.97
947.52	224.99
947.82	225.00
948.11	224.98
948.41	224.95
948.71	224.96
949.01	224.97
949.31	224.98
949.60	224.96
949.90	225.02
950.20	225.03
950.50	225.03
950.79	225.03
951.09	225.06
951.39	225.06
951.69	225.08
951.98	225.09
952.28	225.09
952.58	225.12
952.87	225.15
953.17	225.15
953.47	225.15
953.76	225.17
954.06	225.16
954.36	225.18
954.66	225.21
954.95	225.24
955.25	225.25
955.55	225.22
955.84	225.23
956.14	225.20
956.44	225.23
956.73	225.23
957.03	225.25
957.32	225.27
957.62	225.28
957.92	225.27
958.21	225.26
958.51	225.35
958.81	225.38
959.10	225.36
959.40	225.41
959.69	225.37
959.99	225.39
960.29	225.38
960.58	225.35
960.88	225.37
961.17	225.34
961.47	225.34
961.76	225.36
962.06	225.36
962.36	225.34
962.65	225.30
962.95	225.30
963.24	225.27
963.54	225.25
963.83	225.20
964.13	225.21
964.42	225.16
964.72	225.08
965.01	225.03
965.31	225.02
965.60	224.96
965.90	225.04
966.19	225.04
966.49	225.04
966.78	225.01
967.08	224.97
967.37	224.96
967.67	224.95
967.96	224.89
968.26	224.87
968.55	224.87
968.85	224.86
969.14	224.86
969.43	224.85
969.73	224.81
970.02	224.82
970.32	224.76
970.61	224.75
970.91	224.72
971.20	224.70
971.49	224.69
971.79	224.69
972.08	224.60
972.38	224.57
972.67	224.54
972.96	224.59
973.26	224.59
973.55	224.59
973.85	224.55
974.14	224.58
974.43	224.60
974.73	224.61
975.02	224.60
975.31	224.59
975.61	224.58
975.90	224.57
976.19	224.55
976.49	224.59
976.78	224.62
977.07	224.59
977.37	224.62
977.66	224.60
977.95	224.55
978.24	224.56
978.54	224.58
978.83	224.56
979.12	224.53
979.42	224.52
979.71	224.52
980.00	224.53
980.29	224.52
980.59	224.51
980.88	224.51
981.17	224.52
981.46	224.54
981.76	224.56
982.05	224.62
982.34	224.64
982.63	224.63
982.93	224.63
983.22	224.68
983.51	224.70
983.80	224.75
984.09	224.81
984.39	224.81
984.68	224.80
984.97	224.83
985.26	224.84
985.55	224.86
985.85	224.86
986.14	224.91
986.43	224.96
986.72	224.94
987.01	224.93
987.30	224.93
987.59	224.95
987.89	224.98
988.18	224.95
988.47	224.94
988.76	224.97
989.05	224.96
989.34	224.97
989.63	225.00
989.92	224.98
990.22	224.98
990.51	224.98
990.80	224.99
991.09	225.02
991.38	225.00
991.67	224.99
991.96	224.98
992.25	225.00
992.54	224.98
992.83	224.98
993.12	224.98
993.41	224.99
993.70	225.02
993.99	225.01
994.28	225.04
994.58	225.08
994.87	225.03
995.16	225.05
995.45	225.03
995.74	225.00
996.03	225.02
996.32	225.01
996.61	225.02
996.90	225.00
997.19	225.02
997.48	225.06
997.77	225.06
998.06	225.10
998.34	225.08
998.63	225.08
998.92	225.10
999.21	225.14
999.50	225.10
999.79	225.05
1000.08	225.03
1000.37	225.01
1000.66	225.00
1000.95	225.05
1001.24	225.04
1001.53	225.04
1001.82	225.05
1002.11	225.01
1002.40	225.03
1002.68	225.07
1002.97	225.12
1003.26	225.10
1003.55	225.07
1003.84	225.08
1004.13	225.11
1004.42	225.07
1004.71	225.07
1004.99	225.05
1005.28	225.05
1005.57	225.07
1005.86	225.05
1006.15	225.10
1006.44	225.07
1006.72	225.10
1007.01	225.10
1007.30	225.08
1007.59	225.07
1007.88	225.05
1008.17	225.08
1008.45	225.04
1008.74	225.01
1009.03	224.98
1009.32	224.97
1009.60	224.97
1009.89	224.95
1010.18	224.88
1010.47	224.91
1010.76	224.92
1011.04	224.94
1011.33	224.96
1011.62	224.95
1011.91	224.97
1012.19	224.92
1012.48	224.95
1012.77	224.91
1013.05	224.96
1013.34	224.96
1013.63	224.94
1013.92	224.94
1014.20	224.93
1014.49	224.89
1014.78	224.90
1015.06	224.85
1015.35	224.86
1015.64	224.88
1015.92	224.91
1016.21	224.93
1016.50	224.92
1016.78	224.90
1017.07	224.91
1017.36	224.86
1017.64	224.85
1017.93	224.85
1018.22	224.86
1018.50	224.86
1018.79	224.83
1019.08	224.78
1019.36	224.75
1019.65	224.71
1019.93	224.75
1020.22	224.77
1020.51	224.83
1020.79	224.81
1021.08	224.65
1021.36	224.92
1021.65	224.22
1021.94	224.78
1022.22	224.31
1022.51	223.94
1022.79	225.09
1023.08	225.24
1023.36	225.42
1023.65	224.48
>>>>>End Processed Spectral Data<<<<<
