SpectraSuite Data File
++++++++++++++++++++++++++++++++++++
Date: Fri Feb 01 14:57:02 EST 2013
User: group
Dark Spectrum Present: No
Reference Spectrum Present: No
Number of Sampled Component Spectra: 1
Spectrometers: USB2E7196
Integration Time (usec): 35000 (USB2E7196)
Spectra Averaged: 100 (USB2E7196)
Boxcar Smoothing: 10 (USB2E7196)
Correct for Electrical Dark: No (USB2E7196)
Strobe/Lamp Enabled: No (USB2E7196)
Correct for Detector Non-linearity: No (USB2E7196)
Correct for Stray Light: No (USB2E7196)
Number of Pixels in Processed Spectrum: 2048
>>>>>Begin Processed Spectral Data<<<<<
339.09	0.00
339.48	215.27
339.86	216.92
340.24	218.07
340.63	219.50
341.01	222.15
341.39	222.34
341.78	223.31
342.16	224.70
342.54	225.09
342.93	213.60
343.31	224.41
343.69	224.96
344.07	225.43
344.46	225.85
344.84	226.19
345.22	226.44
345.60	226.66
345.99	226.84
346.37	226.96
346.75	227.04
347.13	227.10
347.52	227.12
347.90	227.20
348.28	227.22
348.66	227.25
349.05	227.22
349.43	227.25
349.81	227.32
350.19	227.41
350.57	227.46
350.96	227.54
351.34	227.60
351.72	227.68
352.10	227.77
352.48	227.84
352.87	227.89
353.25	227.94
353.63	228.05
354.01	228.10
354.39	228.18
354.77	228.32
355.15	228.44
355.54	228.50
355.92	228.50
356.30	228.56
356.68	228.72
357.06	228.79
357.44	228.84
357.82	228.89
358.20	228.94
358.58	229.02
358.97	229.06
359.35	229.16
359.73	229.20
360.11	229.23
360.49	229.27
360.87	229.35
361.25	229.41
361.63	229.43
362.01	229.52
362.39	229.52
362.77	229.51
363.15	229.53
363.53	229.54
363.91	229.58
364.29	229.61
364.67	229.53
365.05	229.53
365.43	229.51
365.81	229.52
366.19	229.57
366.57	229.55
366.95	229.54
367.33	229.41
367.71	229.39
368.09	229.37
368.47	229.35
368.85	229.32
369.23	229.28
369.61	229.24
369.99	229.18
370.37	229.15
370.75	229.16
371.13	229.09
371.51	229.01
371.89	228.95
372.27	228.91
372.65	228.86
373.03	228.80
373.41	228.71
373.78	228.63
374.16	228.49
374.54	228.40
374.92	228.35
375.30	228.34
375.68	228.26
376.06	228.21
376.44	228.12
376.82	228.08
377.19	228.00
377.57	227.93
377.95	227.83
378.33	227.76
378.71	227.63
379.09	227.59
379.47	227.54
379.84	227.46
380.22	227.34
380.60	227.27
380.98	227.20
381.36	227.16
381.73	227.10
382.11	227.04
382.49	226.99
382.87	226.88
383.25	226.81
383.62	226.86
384.00	226.76
384.38	226.72
384.76	226.66
385.13	226.63
385.51	226.55
385.89	226.51
386.27	226.47
386.64	226.41
387.02	226.36
387.40	226.35
387.78	226.32
388.15	226.31
388.53	226.24
388.91	226.20
389.29	226.16
389.66	226.13
390.04	226.08
390.42	226.08
390.79	226.10
391.17	226.08
391.55	225.99
391.92	226.00
392.30	225.99
392.68	225.97
393.05	225.98
393.43	226.02
393.81	226.06
394.18	226.07
394.56	226.13
394.94	226.17
395.31	226.17
395.69	226.23
396.06	226.27
396.44	226.36
396.82	226.41
397.19	226.52
397.57	226.57
397.95	226.64
398.32	226.68
398.70	226.78
399.07	226.89
399.45	226.96
399.82	227.07
400.20	227.19
400.58	227.29
400.95	227.36
401.33	227.47
401.70	227.63
402.08	227.74
402.45	227.85
402.83	228.00
403.20	228.10
403.58	228.18
403.95	228.32
404.33	228.46
404.71	228.60
405.08	228.77
405.46	228.94
405.83	229.11
406.21	229.27
406.58	229.43
406.96	229.62
407.33	229.82
407.70	230.01
408.08	230.28
408.45	230.52
408.83	230.74
409.20	230.97
409.58	231.18
409.95	231.44
410.33	231.70
410.70	231.96
411.08	232.31
411.45	232.64
411.82	232.97
412.20	233.34
412.57	233.78
412.95	234.11
413.32	234.52
413.69	234.94
414.07	235.40
414.44	235.86
414.82	236.33
415.19	236.90
415.56	237.46
415.94	238.02
416.31	238.68
416.68	239.33
417.06	240.08
417.43	240.71
417.81	241.48
418.18	242.27
418.55	243.08
418.93	243.93
419.30	244.84
419.67	245.75
420.04	246.67
420.42	247.65
420.79	248.83
421.16	249.98
421.54	251.21
421.91	252.42
422.28	253.68
422.66	255.00
423.03	256.30
423.40	257.63
423.77	259.01
424.15	260.40
424.52	261.90
424.89	263.43
425.26	265.00
425.64	266.47
426.01	268.09
426.38	269.76
426.75	271.44
427.13	273.14
427.50	274.96
427.87	276.84
428.24	278.70
428.61	280.40
428.99	282.32
429.36	284.36
429.73	286.43
430.10	288.45
430.47	290.52
430.85	292.60
431.22	294.85
431.59	297.24
431.96	299.48
432.33	301.97
432.70	304.39
433.08	307.18
433.45	309.84
433.82	312.44
434.19	315.35
434.56	318.18
434.93	320.87
435.30	323.46
435.68	326.39
436.05	329.21
436.42	332.02
436.79	334.59
437.16	337.32
437.53	340.15
437.90	342.96
438.27	345.68
438.64	348.52
439.01	351.13
439.38	353.37
439.75	355.55
440.13	358.03
440.50	360.39
440.87	362.28
441.24	364.23
441.61	366.39
441.98	367.85
442.35	369.66
442.72	371.54
443.09	373.35
443.46	374.34
443.83	374.93
444.20	375.46
444.57	376.29
444.94	376.55
445.31	376.88
445.68	377.21
446.05	377.28
446.42	376.91
446.79	376.45
447.16	375.98
447.53	375.63
447.90	374.45
448.27	373.27
448.64	371.65
449.01	370.46
449.37	368.46
449.74	366.58
450.11	364.34
450.48	361.83
450.85	359.30
451.22	357.16
451.59	355.19
451.96	353.22
452.33	350.63
452.70	348.29
453.07	345.48
453.43	342.60
453.80	339.85
454.17	337.15
454.54	334.62
454.91	331.85
455.28	329.18
455.65	326.68
456.02	324.26
456.38	322.11
456.75	319.44
457.12	317.14
457.49	314.89
457.86	312.67
458.23	310.83
458.59	308.81
458.96	306.71
459.33	304.80
459.70	302.94
460.07	301.41
460.43	299.66
460.80	298.03
461.17	296.62
461.54	295.13
461.91	293.73
462.27	292.25
462.64	291.05
463.01	289.69
463.38	288.41
463.74	287.01
464.11	285.86
464.48	284.83
464.85	283.75
465.21	282.92
465.58	282.00
465.95	280.86
466.32	279.93
466.68	279.00
467.05	278.13
467.42	277.22
467.78	276.25
468.15	275.35
468.52	274.70
468.88	273.77
469.25	273.01
469.62	272.35
469.98	271.69
470.35	271.05
470.72	270.45
471.08	269.74
471.45	269.17
471.82	268.63
472.18	268.02
472.55	267.55
472.92	266.97
473.28	266.46
473.65	266.05
474.02	265.59
474.38	265.22
474.75	264.89
475.11	264.55
475.48	264.32
475.85	264.11
476.21	263.81
476.58	263.65
476.94	263.45
477.31	263.24
477.67	263.09
478.04	262.98
478.41	262.90
478.77	262.94
479.14	262.88
479.50	262.83
479.87	262.94
480.23	263.05
480.60	263.11
480.96	263.21
481.33	263.41
481.69	263.60
482.06	263.78
482.42	263.98
482.79	264.23
483.15	264.50
483.52	264.84
483.88	265.22
484.25	265.62
484.61	266.04
484.98	266.52
485.34	267.08
485.71	267.64
486.07	268.23
486.44	268.81
486.80	269.52
487.17	270.27
487.53	271.05
487.90	271.87
488.26	272.82
488.62	273.79
488.99	274.76
489.35	275.80
489.72	276.93
490.08	278.11
490.44	279.32
490.81	280.63
491.17	281.98
491.54	283.46
491.90	284.95
492.26	286.56
492.63	288.24
492.99	290.00
493.36	291.88
493.72	293.88
494.08	295.97
494.45	298.21
494.81	300.52
495.17	302.93
495.54	305.52
495.90	308.15
496.26	310.94
496.63	313.89
496.99	316.97
497.35	320.17
497.72	323.53
498.08	327.00
498.44	330.64
498.80	334.53
499.17	338.52
499.53	342.66
499.89	347.03
500.26	351.55
500.62	356.17
500.98	361.10
501.34	366.18
501.71	371.47
502.07	376.88
502.43	382.51
502.79	388.29
503.16	394.28
503.52	400.54
503.88	406.93
504.24	413.50
504.60	420.36
504.97	427.45
505.33	434.72
505.69	442.44
506.05	450.24
506.41	458.14
506.78	466.26
507.14	474.66
507.50	483.39
507.86	492.34
508.22	501.51
508.59	510.68
508.95	520.20
509.31	529.95
509.67	540.02
510.03	550.24
510.39	560.85
510.75	571.67
511.12	582.53
511.48	593.79
511.84	605.18
512.20	616.74
512.56	628.64
512.92	640.83
513.28	653.09
513.64	665.53
514.00	678.20
514.37	691.14
514.73	704.21
515.09	717.30
515.45	730.61
515.81	744.24
516.17	758.22
516.53	772.34
516.89	786.63
517.25	800.89
517.61	815.31
517.97	829.72
518.33	844.11
518.69	859.02
519.05	874.06
519.41	889.32
519.77	904.83
520.13	920.38
520.49	935.75
520.85	951.16
521.21	966.88
521.57	983.16
521.93	999.02
522.29	1015.50
522.65	1031.69
523.01	1048.00
523.37	1064.17
523.73	1080.48
524.09	1096.71
524.45	1113.10
524.81	1129.72
525.17	1146.69
525.53	1163.69
525.89	1180.75
526.25	1197.54
526.61	1213.97
526.97	1230.81
527.33	1247.40
527.68	1264.09
528.04	1280.77
528.40	1297.58
528.76	1314.78
529.12	1331.46
529.48	1348.29
529.84	1364.37
530.20	1381.17
530.56	1398.36
530.91	1415.86
531.27	1432.62
531.63	1449.13
531.99	1465.69
532.35	1481.77
532.71	1497.73
533.07	1514.11
533.42	1529.99
533.78	1546.17
534.14	1562.52
534.50	1577.87
534.86	1593.86
535.21	1608.99
535.57	1624.95
535.93	1640.55
536.29	1655.45
536.65	1670.76
537.00	1685.73
537.36	1701.19
537.72	1715.79
538.08	1730.11
538.44	1743.94
538.79	1758.04
539.15	1771.97
539.51	1785.94
539.87	1800.48
540.22	1814.26
540.58	1828.15
540.94	1841.68
541.29	1854.80
541.65	1867.71
542.01	1881.09
542.37	1893.44
542.72	1906.08
543.08	1917.96
543.44	1930.38
543.79	1941.76
544.15	1952.62
544.51	1964.22
544.87	1975.30
545.22	1986.12
545.58	1996.39
545.94	2006.12
546.29	2015.96
546.65	2025.60
547.01	2034.74
547.36	2043.39
547.72	2051.95
548.07	2059.72
548.43	2067.78
548.79	2075.73
549.14	2083.10
549.50	2090.52
549.86	2098.23
550.21	2105.46
550.57	2112.61
550.92	2119.15
551.28	2126.14
551.64	2133.12
551.99	2139.64
552.35	2145.64
552.70	2151.69
553.06	2157.69
553.41	2164.00
553.77	2170.00
554.13	2176.15
554.48	2182.26
554.84	2187.61
555.19	2192.95
555.55	2198.08
555.90	2202.48
556.26	2207.20
556.61	2211.95
556.97	2215.92
557.32	2220.03
557.68	2224.14
558.03	2228.46
558.39	2232.24
558.74	2236.82
559.10	2240.69
559.45	2244.26
559.81	2248.51
560.16	2252.25
560.52	2255.36
560.87	2258.75
561.23	2261.35
561.58	2264.11
561.94	2266.51
562.29	2269.01
562.64	2271.40
563.00	2273.97
563.35	2277.46
563.71	2280.61
564.06	2283.71
564.42	2286.58
564.77	2288.97
565.12	2291.13
565.48	2292.86
565.83	2294.40
566.19	2295.53
566.54	2296.43
566.89	2297.40
567.25	2297.84
567.60	2299.18
567.96	2300.76
568.31	2301.46
568.66	2302.36
569.02	2302.81
569.37	2303.12
569.72	2303.58
570.08	2303.63
570.43	2303.38
570.78	2302.51
571.14	2300.71
571.49	2299.23
571.84	2298.68
572.20	2297.31
572.55	2296.03
572.90	2294.26
573.26	2292.72
573.61	2290.78
573.96	2288.76
574.31	2285.72
574.67	2282.57
575.02	2278.74
575.37	2275.25
575.72	2271.18
576.08	2267.83
576.43	2264.47
576.78	2260.56
577.13	2257.38
577.49	2254.14
577.84	2250.61
578.19	2246.85
578.54	2243.07
578.90	2238.69
579.25	2233.09
579.60	2227.99
579.95	2222.87
580.30	2217.78
580.66	2212.64
581.01	2207.66
581.36	2202.72
581.71	2198.33
582.06	2193.84
582.42	2189.25
582.77	2183.94
583.12	2179.32
583.47	2174.25
583.82	2169.02
584.17	2163.53
584.53	2157.88
584.88	2152.15
585.23	2146.15
585.58	2140.50
585.93	2134.86
586.28	2130.00
586.63	2124.80
586.98	2119.60
587.34	2114.86
587.69	2109.73
588.04	2104.11
588.39	2098.25
588.74	2091.54
589.09	2085.27
589.44	2078.22
589.79	2072.11
590.14	2066.33
590.49	2059.66
590.84	2053.22
591.19	2047.13
591.54	2040.66
591.89	2033.09
592.25	2026.07
592.60	2018.84
592.95	2011.13
593.30	2003.76
593.65	1996.07
594.00	1988.89
594.35	1981.64
594.70	1973.40
595.05	1966.14
595.40	1958.97
595.75	1951.44
596.10	1945.03
596.45	1938.14
596.80	1931.90
597.15	1925.08
597.50	1917.71
597.85	1911.16
598.19	1904.32
598.54	1897.09
598.89	1890.37
599.24	1884.34
599.59	1877.60
599.94	1871.32
600.29	1864.92
600.64	1858.28
600.99	1850.64
601.34	1843.90
601.69	1836.77
602.04	1829.83
602.39	1822.47
602.74	1815.50
603.08	1808.64
603.43	1802.06
603.78	1794.77
604.13	1787.52
604.48	1780.19
604.83	1773.46
605.18	1766.48
605.53	1758.52
605.87	1750.52
606.22	1743.36
606.57	1735.49
606.92	1728.29
607.27	1721.00
607.62	1714.16
607.96	1706.95
608.31	1700.27
608.66	1692.52
609.01	1685.03
609.36	1677.53
609.70	1669.50
610.05	1661.43
610.40	1653.77
610.75	1645.29
611.10	1637.62
611.44	1629.33
611.79	1621.38
612.14	1612.64
612.49	1603.53
612.83	1595.25
613.18	1587.15
613.53	1578.99
613.88	1570.52
614.22	1562.18
614.57	1553.64
614.92	1545.66
615.27	1538.01
615.61	1529.70
615.96	1521.86
616.31	1514.24
616.65	1506.92
617.00	1499.37
617.35	1491.77
617.70	1483.46
618.04	1475.02
618.39	1466.98
618.74	1459.45
619.08	1451.23
619.43	1443.75
619.78	1436.91
620.12	1429.79
620.47	1422.28
620.82	1414.16
621.16	1406.80
621.51	1399.26
621.85	1391.69
622.20	1383.18
622.55	1374.95
622.89	1367.34
623.24	1359.77
623.59	1352.49
623.93	1345.01
624.28	1337.79
624.62	1330.29
624.97	1323.18
625.32	1316.52
625.66	1309.48
626.01	1302.27
626.35	1294.81
626.70	1287.15
627.04	1279.40
627.39	1271.68
627.73	1264.31
628.08	1257.48
628.43	1250.25
628.77	1243.01
629.12	1235.57
629.46	1228.47
629.81	1221.15
630.15	1213.99
630.50	1206.64
630.84	1198.50
631.19	1190.65
631.53	1183.23
631.88	1175.83
632.22	1168.27
632.57	1161.15
632.91	1153.67
633.26	1146.33
633.60	1139.18
633.95	1132.19
634.29	1125.31
634.64	1118.69
634.98	1111.46
635.32	1104.37
635.67	1097.90
636.01	1091.23
636.36	1084.40
636.70	1077.89
637.05	1071.34
637.39	1064.91
637.73	1058.47
638.08	1052.69
638.42	1046.76
638.77	1040.38
639.11	1033.80
639.45	1027.60
639.80	1020.93
640.14	1014.57
640.49	1008.02
640.83	1001.73
641.17	995.50
641.52	989.11
641.86	982.82
642.20	977.00
642.55	970.87
642.89	964.31
643.23	957.85
643.58	952.21
643.92	946.03
644.26	940.04
644.61	934.06
644.95	927.93
645.29	921.23
645.64	914.48
645.98	908.25
646.32	902.46
646.66	896.41
647.01	890.58
647.35	884.90
647.69	879.21
648.04	873.69
648.38	867.86
648.72	861.97
649.06	855.85
649.41	850.02
649.75	843.94
650.09	838.00
650.43	832.18
650.78	826.03
651.12	820.24
651.46	814.48
651.80	808.68
652.14	803.32
652.49	798.13
652.83	793.03
653.17	787.24
653.51	781.48
653.85	776.05
654.20	770.40
654.54	764.39
654.88	758.65
655.22	752.80
655.56	747.19
655.90	741.70
656.25	736.41
656.59	731.05
656.93	725.98
657.27	720.82
657.61	715.46
657.95	710.30
658.29	705.15
658.64	699.92
658.98	694.70
659.32	689.30
659.66	684.00
660.00	678.74
660.34	673.92
660.68	669.06
661.02	664.07
661.36	659.43
661.70	655.01
662.05	650.69
662.39	646.37
662.73	641.97
663.07	637.72
663.41	633.37
663.75	628.93
664.09	624.42
664.43	620.11
664.77	616.02
665.11	611.81
665.45	607.76
665.79	603.74
666.13	599.70
666.47	595.63
666.81	591.52
667.15	587.36
667.49	583.53
667.83	579.83
668.17	575.97
668.51	571.91
668.85	567.90
669.19	564.06
669.53	560.25
669.87	556.37
670.21	552.68
670.55	549.14
670.89	545.76
671.23	542.38
671.57	538.93
671.91	535.44
672.25	532.08
672.58	528.65
672.92	525.29
673.26	522.09
673.60	518.95
673.94	515.86
674.28	513.08
674.62	510.13
674.96	507.01
675.30	504.10
675.64	501.32
675.97	498.64
676.31	495.76
676.65	492.81
676.99	490.07
677.33	487.15
677.67	484.33
678.01	481.31
678.34	478.33
678.68	475.52
679.02	472.73
679.36	469.99
679.70	467.22
680.04	464.47
680.37	461.67
680.71	458.94
681.05	456.39
681.39	453.59
681.73	450.96
682.06	448.48
682.40	445.94
682.74	443.35
683.08	440.78
683.42	438.27
683.75	435.88
684.09	433.44
684.43	431.00
684.77	428.59
685.10	426.31
685.44	424.11
685.78	421.82
686.12	419.57
686.45	417.24
686.79	414.97
687.13	412.84
687.46	410.71
687.80	408.59
688.14	406.37
688.48	404.41
688.81	402.20
689.15	400.05
689.49	397.96
689.82	395.89
690.16	393.82
690.50	391.87
690.83	389.90
691.17	387.96
691.51	386.10
691.84	384.24
692.18	382.26
692.52	380.24
692.85	378.34
693.19	376.50
693.52	374.74
693.86	372.96
694.20	371.17
694.53	369.37
694.87	367.53
695.21	365.78
695.54	363.94
695.88	362.22
696.21	360.50
696.55	358.82
696.88	357.16
697.22	355.51
697.56	353.85
697.89	352.20
698.23	350.55
698.56	348.91
698.90	347.28
699.23	345.67
699.57	344.15
699.90	342.60
700.24	341.07
700.58	339.55
700.91	338.05
701.25	336.61
701.58	335.27
701.92	333.91
702.25	332.58
702.59	331.23
702.92	329.91
703.26	328.62
703.59	327.35
703.93	326.17
704.26	324.99
704.60	323.70
704.93	322.42
705.26	321.17
705.60	320.07
705.93	318.96
706.27	317.91
706.60	316.82
706.94	315.72
707.27	314.57
707.61	313.49
707.94	312.47
708.27	311.35
708.61	310.25
708.94	309.23
709.28	308.21
709.61	307.25
709.94	306.33
710.28	305.29
710.61	304.29
710.95	303.19
711.28	302.25
711.61	301.34
711.95	300.47
712.28	299.52
712.61	298.52
712.95	297.58
713.28	296.72
713.61	295.86
713.95	295.02
714.28	294.23
714.61	293.36
714.95	292.56
715.28	291.75
715.61	290.84
715.95	290.05
716.28	289.19
716.61	288.36
716.95	287.50
717.28	286.80
717.61	286.06
717.94	285.35
718.28	284.58
718.61	283.87
718.94	283.14
719.27	282.55
719.61	281.95
719.94	281.31
720.27	280.63
720.60	279.95
720.94	279.29
721.27	278.68
721.60	278.12
721.93	277.48
722.27	276.93
722.60	276.38
722.93	275.80
723.26	275.34
723.59	274.83
723.93	274.32
724.26	273.81
724.59	273.29
724.92	272.80
725.25	272.31
725.59	271.81
725.92	271.31
726.25	270.78
726.58	270.26
726.91	269.72
727.24	269.24
727.57	268.79
727.91	268.29
728.24	267.81
728.57	267.33
728.90	266.90
729.23	266.37
729.56	265.99
729.89	265.51
730.22	265.00
730.55	264.46
730.89	264.04
731.22	263.57
731.55	263.12
731.88	262.70
732.21	262.24
732.54	261.77
732.87	261.39
733.20	260.97
733.53	260.58
733.86	260.24
734.19	259.83
734.52	259.46
734.85	259.17
735.18	258.72
735.51	258.42
735.84	258.02
736.17	257.69
736.50	257.30
736.83	257.06
737.16	256.71
737.49	256.42
737.82	256.06
738.15	255.73
738.48	255.41
738.81	255.10
739.14	254.81
739.47	254.52
739.80	254.21
740.13	253.91
740.46	253.59
740.79	253.27
741.12	252.96
741.45	252.66
741.78	252.32
742.11	252.09
742.44	251.70
742.77	251.43
743.10	251.12
743.43	250.84
743.75	250.46
744.08	250.31
744.41	250.05
744.74	249.78
745.07	249.52
745.40	249.27
745.73	249.01
746.06	248.75
746.39	248.51
746.71	248.24
747.04	247.98
747.37	247.73
747.70	247.50
748.03	247.27
748.36	247.03
748.68	246.78
749.01	246.53
749.34	246.34
749.67	246.13
750.00	245.90
750.33	245.76
750.65	245.56
750.98	245.24
751.31	245.02
751.64	244.78
751.97	244.61
752.29	244.39
752.62	244.16
752.95	243.92
753.28	243.68
753.60	243.48
753.93	243.32
754.26	243.15
754.59	242.92
754.91	242.73
755.24	242.53
755.57	242.38
755.90	242.18
756.22	241.96
756.55	241.80
756.88	241.65
757.20	241.38
757.53	241.17
757.86	241.00
758.19	240.83
758.51	240.71
758.84	240.53
759.17	240.38
759.49	240.19
759.82	240.06
760.15	239.94
760.47	239.80
760.80	239.61
761.13	239.45
761.45	239.30
761.78	239.12
762.11	238.97
762.43	238.78
762.76	238.66
763.08	238.54
763.41	238.39
763.74	238.24
764.06	238.12
764.39	238.01
764.71	237.85
765.04	237.71
765.37	237.55
765.69	237.40
766.02	237.22
766.34	237.12
766.67	236.98
767.00	236.86
767.32	236.76
767.65	236.69
767.97	236.58
768.30	236.47
768.62	236.36
768.95	236.23
769.27	236.12
769.60	236.01
769.92	235.87
770.25	235.73
770.57	235.61
770.90	235.51
771.22	235.37
771.55	235.29
771.87	235.19
772.20	235.08
772.52	235.04
772.85	235.06
773.17	234.94
773.50	234.84
773.82	234.74
774.15	234.59
774.47	234.42
774.80	234.31
775.12	234.21
775.45	234.11
775.77	234.05
776.09	233.97
776.42	233.87
776.74	233.84
777.07	233.78
777.39	233.70
777.72	233.62
778.04	233.55
778.36	233.47
778.69	233.41
779.01	233.38
779.33	233.23
779.66	233.08
779.98	233.00
780.31	232.92
780.63	232.88
780.95	232.85
781.28	232.83
781.60	232.77
781.92	232.73
782.25	232.68
782.57	232.64
782.89	232.56
783.22	232.49
783.54	232.41
783.86	232.37
784.19	232.34
784.51	232.28
784.83	232.24
785.16	232.20
785.48	232.18
785.80	232.10
786.12	232.07
786.45	232.03
786.77	232.02
787.09	232.03
787.42	231.97
787.74	231.92
788.06	231.88
788.38	231.83
788.71	231.79
789.03	231.72
789.35	231.71
789.67	231.70
789.99	231.68
790.32	231.62
790.64	231.59
790.96	231.61
791.28	231.58
791.61	231.57
791.93	231.52
792.25	231.46
792.57	231.52
792.89	231.45
793.21	231.41
793.54	231.37
793.86	231.29
794.18	231.25
794.50	231.19
794.82	231.14
795.14	231.15
795.47	231.15
795.79	231.13
796.11	231.06
796.43	231.01
796.75	230.98
797.07	230.99
797.39	230.95
797.71	230.85
798.04	230.83
798.36	230.77
798.68	230.75
799.00	230.72
799.32	230.60
799.64	230.63
799.96	230.58
800.28	230.56
800.60	230.50
800.92	230.49
801.24	230.46
801.56	230.43
801.89	230.37
802.21	230.32
802.53	230.30
802.85	230.27
803.17	230.27
803.49	230.22
803.81	230.15
804.13	230.12
804.45	230.10
804.77	230.05
805.09	230.00
805.41	229.94
805.73	229.87
806.05	229.84
806.37	229.78
806.69	229.77
807.01	229.71
807.33	229.70
807.65	229.62
807.97	229.63
808.28	229.60
808.60	229.54
808.92	229.49
809.24	229.51
809.56	229.46
809.88	229.43
810.20	229.39
810.52	229.40
810.84	229.32
811.16	229.26
811.48	229.25
811.80	229.26
812.12	229.21
812.43	229.20
812.75	229.20
813.07	229.16
813.39	229.14
813.71	229.11
814.03	229.09
814.35	229.06
814.67	229.01
814.98	228.98
815.30	228.96
815.62	228.92
815.94	228.82
816.26	228.85
816.58	228.79
816.89	228.81
817.21	228.73
817.53	228.76
817.85	228.77
818.17	228.72
818.48	228.68
818.80	228.71
819.12	228.70
819.44	228.65
819.76	228.62
820.07	228.58
820.39	228.59
820.71	228.56
821.03	228.56
821.34	228.52
821.66	228.51
821.98	228.51
822.30	228.49
822.61	228.54
822.93	228.47
823.25	228.49
823.57	228.48
823.88	228.49
824.20	228.46
824.52	228.44
824.83	228.44
825.15	228.45
825.47	228.42
825.79	228.44
826.10	228.43
826.42	228.40
826.74	228.40
827.05	228.38
827.37	228.39
827.69	228.37
828.00	228.40
828.32	228.40
828.64	228.39
828.95	228.44
829.27	228.44
829.58	228.44
829.90	228.42
830.22	228.38
830.53	228.38
830.85	228.36
831.17	228.34
831.48	228.36
831.80	228.32
832.11	228.33
832.43	228.27
832.75	228.26
833.06	228.35
833.38	228.31
833.69	228.32
834.01	228.32
834.32	228.31
834.64	228.27
834.96	228.29
835.27	228.29
835.59	228.27
835.90	228.22
836.22	228.21
836.53	228.16
836.85	228.16
837.16	228.25
837.48	228.26
837.79	228.26
838.11	228.25
838.42	228.23
838.74	228.24
839.05	228.23
839.37	228.25
839.68	228.21
840.00	228.20
840.31	228.22
840.63	228.19
840.94	228.18
841.26	228.19
841.57	228.16
841.88	228.15
842.20	228.11
842.51	228.09
842.83	228.08
843.14	228.18
843.46	228.20
843.77	228.17
844.08	228.17
844.40	228.14
844.71	228.13
845.03	228.12
845.34	228.09
845.65	228.09
845.97	228.07
846.28	228.02
846.60	228.03
846.91	227.96
847.22	227.94
847.54	227.93
847.85	227.95
848.16	227.91
848.48	227.92
848.79	227.97
849.10	227.94
849.42	227.96
849.73	227.86
850.04	227.81
850.36	227.73
850.67	227.73
850.98	227.75
851.30	227.72
851.61	227.73
851.92	227.72
852.23	227.74
852.55	227.74
852.86	227.76
853.17	227.75
853.49	227.76
853.80	227.79
854.11	227.80
854.42	227.81
854.74	227.81
855.05	227.81
855.36	227.73
855.67	227.73
855.99	227.71
856.30	227.80
856.61	227.82
856.92	227.81
857.23	227.77
857.55	227.72
857.86	227.74
858.17	227.73
858.48	227.72
858.79	227.68
859.11	227.70
859.42	227.67
859.73	227.66
860.04	227.69
860.35	227.65
860.66	227.60
860.98	227.55
861.29	227.55
861.60	227.53
861.91	227.56
862.22	227.56
862.53	227.56
862.84	227.45
863.16	227.47
863.47	227.44
863.78	227.43
864.09	227.45
864.40	227.46
864.71	227.51
865.02	227.50
865.33	227.47
865.64	227.45
865.95	227.48
866.27	227.55
866.58	227.52
866.89	227.57
867.20	227.57
867.51	227.56
867.82	227.57
868.13	227.60
868.44	227.55
868.75	227.57
869.06	227.56
869.37	227.58
869.68	227.55
869.99	227.58
870.30	227.58
870.61	227.61
870.92	227.58
871.23	227.55
871.54	227.59
871.85	227.62
872.16	227.62
872.47	227.60
872.78	227.54
873.09	227.57
873.40	227.53
873.71	227.57
874.02	227.58
874.33	227.60
874.64	227.57
874.95	227.61
875.26	227.60
875.56	227.59
875.87	227.61
876.18	227.61
876.49	227.70
876.80	227.72
877.11	227.72
877.42	227.73
877.73	227.70
878.04	227.70
878.35	227.72
878.66	227.72
878.96	227.71
879.27	227.73
879.58	227.71
879.89	227.70
880.20	227.73
880.51	227.72
880.82	227.69
881.12	227.68
881.43	227.69
881.74	227.67
882.05	227.67
882.36	227.67
882.67	227.71
882.97	227.62
883.28	227.61
883.59	227.58
883.90	227.59
884.21	227.59
884.51	227.57
884.82	227.57
885.13	227.57
885.44	227.57
885.74	227.54
886.05	227.54
886.36	227.56
886.67	227.52
886.98	227.60
887.28	227.63
887.59	227.63
887.90	227.62
888.20	227.61
888.51	227.64
888.82	227.59
889.13	227.56
889.43	227.63
889.74	227.59
890.05	227.57
890.35	227.56
890.66	227.58
890.97	227.61
891.28	227.56
891.58	227.54
891.89	227.52
892.20	227.53
892.50	227.48
892.81	227.45
893.12	227.44
893.42	227.36
893.73	227.35
894.04	227.35
894.34	227.35
894.65	227.36
894.95	227.32
895.26	227.35
895.57	227.39
895.87	227.29
896.18	227.33
896.48	227.34
896.79	227.32
897.10	227.34
897.40	227.33
897.71	227.35
898.01	227.37
898.32	227.41
898.63	227.38
898.93	227.42
899.24	227.44
899.54	227.42
899.85	227.43
900.15	227.42
900.46	227.42
900.76	227.42
901.07	227.40
901.38	227.39
901.68	227.41
901.99	227.31
902.29	227.32
902.60	227.35
902.90	227.33
903.21	227.35
903.51	227.33
903.82	227.33
904.12	227.34
904.43	227.33
904.73	227.31
905.03	227.33
905.34	227.42
905.64	227.42
905.95	227.47
906.25	227.45
906.56	227.45
906.86	227.45
907.17	227.46
907.47	227.49
907.77	227.50
908.08	227.50
908.38	227.55
908.69	227.56
908.99	227.55
909.30	227.60
909.60	227.58
909.90	227.59
910.21	227.56
910.51	227.54
910.81	227.55
911.12	227.56
911.42	227.57
911.73	227.45
912.03	227.45
912.33	227.42
912.64	227.44
912.94	227.41
913.24	227.40
913.55	227.37
913.85	227.38
914.15	227.40
914.46	227.39
914.76	227.41
915.06	227.40
915.37	227.40
915.67	227.39
915.97	227.43
916.27	227.44
916.58	227.45
916.88	227.47
917.18	227.48
917.49	227.52
917.79	227.50
918.09	227.54
918.39	227.56
918.70	227.57
919.00	227.54
919.30	227.61
919.60	227.60
919.91	227.61
920.21	227.60
920.51	227.58
920.81	227.55
921.12	227.57
921.42	227.58
921.72	227.58
922.02	227.53
922.32	227.49
922.63	227.41
922.93	227.47
923.23	227.46
923.53	227.42
923.83	227.37
924.13	227.37
924.44	227.34
924.74	227.33
925.04	227.35
925.34	227.36
925.64	227.33
925.94	227.32
926.24	227.36
926.55	227.34
926.85	227.35
927.15	227.33
927.45	227.30
927.75	227.25
928.05	227.24
928.35	227.24
928.65	227.26
928.95	227.30
929.26	227.24
929.56	227.27
929.86	227.28
930.16	227.28
930.46	227.26
930.76	227.26
931.06	227.23
931.36	227.22
931.66	227.24
931.96	227.21
932.26	227.20
932.56	227.15
932.86	227.15
933.16	227.17
933.46	227.19
933.76	227.17
934.06	227.21
934.36	227.25
934.66	227.25
934.96	227.22
935.26	227.22
935.56	227.24
935.86	227.18
936.16	227.16
936.46	227.12
936.76	227.13
937.06	227.11
937.36	227.11
937.66	227.10
937.96	227.04
938.26	227.05
938.56	227.05
938.86	227.03
939.16	227.05
939.46	227.01
939.76	226.99
940.06	226.94
940.35	226.92
940.65	226.86
940.95	226.87
941.25	226.87
941.55	226.83
941.85	226.81
942.15	226.84
942.45	226.90
942.75	226.91
943.04	226.90
943.34	226.94
943.64	226.93
943.94	226.90
944.24	226.96
944.54	226.94
944.84	226.97
945.13	226.99
945.43	227.00
945.73	227.02
946.03	227.02
946.33	227.07
946.62	227.04
946.92	227.07
947.22	227.07
947.52	227.12
947.82	227.15
948.11	227.18
948.41	227.17
948.71	227.13
949.01	227.17
949.31	227.18
949.60	227.15
949.90	227.16
950.20	227.17
950.50	227.17
950.79	227.19
951.09	227.20
951.39	227.22
951.69	227.21
951.98	227.22
952.28	227.24
952.58	227.25
952.87	227.29
953.17	227.28
953.47	227.27
953.76	227.26
954.06	227.26
954.36	227.22
954.66	227.21
954.95	227.24
955.25	227.23
955.55	227.27
955.84	227.31
956.14	227.32
956.44	227.34
956.73	227.34
957.03	227.36
957.32	227.33
957.62	227.30
957.92	227.33
958.21	227.34
958.51	227.47
958.81	227.48
959.10	227.48
959.40	227.49
959.69	227.54
959.99	227.55
960.29	227.57
960.58	227.59
960.88	227.64
961.17	227.64
961.47	227.62
961.76	227.58
962.06	227.57
962.36	227.54
962.65	227.51
962.95	227.48
963.24	227.46
963.54	227.51
963.83	227.52
964.13	227.51
964.42	227.46
964.72	227.37
965.01	227.33
965.31	227.33
965.60	227.26
965.90	227.29
966.19	227.26
966.49	227.24
966.78	227.19
967.08	227.16
967.37	227.13
967.67	227.10
967.96	227.11
968.26	227.11
968.55	227.11
968.85	227.13
969.14	227.15
969.43	227.13
969.73	227.08
970.02	227.04
970.32	227.00
970.61	226.97
970.91	226.91
971.20	226.87
971.49	226.86
971.79	226.92
972.08	226.82
972.38	226.83
972.67	226.81
972.96	226.84
973.26	226.81
973.55	226.85
973.85	226.84
974.14	226.81
974.43	226.78
974.73	226.79
975.02	226.79
975.31	226.78
975.61	226.74
975.90	226.75
976.19	226.78
976.49	226.79
976.78	226.80
977.07	226.80
977.37	226.83
977.66	226.81
977.95	226.81
978.24	226.82
978.54	226.81
978.83	226.83
979.12	226.84
979.42	226.83
979.71	226.81
980.00	226.79
980.29	226.80
980.59	226.82
980.88	226.81
981.17	226.80
981.46	226.81
981.76	226.82
982.05	226.82
982.34	226.82
982.63	226.86
982.93	226.86
983.22	226.89
983.51	226.90
983.80	226.96
984.09	226.97
984.39	226.97
984.68	226.94
984.97	226.95
985.26	226.96
985.55	226.97
985.85	226.97
986.14	227.03
986.43	227.04
986.72	227.04
987.01	227.02
987.30	227.00
987.59	226.99
987.89	227.00
988.18	226.99
988.47	226.99
988.76	226.96
989.05	227.01
989.34	227.03
989.63	227.05
989.92	227.02
990.22	227.01
990.51	226.99
990.80	227.00
991.09	227.01
991.38	227.00
991.67	227.00
991.96	226.98
992.25	226.98
992.54	226.99
992.83	227.02
993.12	227.01
993.41	227.06
993.70	227.10
993.99	227.12
994.28	227.14
994.58	227.18
994.87	227.19
995.16	227.18
995.45	227.17
995.74	227.14
996.03	227.18
996.32	227.19
996.61	227.20
996.90	227.22
997.19	227.21
997.48	227.22
997.77	227.22
998.06	227.24
998.34	227.21
998.63	227.20
998.92	227.18
999.21	227.24
999.50	227.24
999.79	227.19
1000.08	227.21
1000.37	227.18
1000.66	227.13
1000.95	227.16
1001.24	227.14
1001.53	227.13
1001.82	227.12
1002.11	227.09
1002.40	227.09
1002.68	227.14
1002.97	227.22
1003.26	227.16
1003.55	227.17
1003.84	227.17
1004.13	227.21
1004.42	227.24
1004.71	227.23
1004.99	227.21
1005.28	227.22
1005.57	227.21
1005.86	227.22
1006.15	227.21
1006.44	227.20
1006.72	227.22
1007.01	227.21
1007.30	227.22
1007.59	227.18
1007.88	227.17
1008.17	227.17
1008.45	227.13
1008.74	227.08
1009.03	227.01
1009.32	227.05
1009.60	227.03
1009.89	227.02
1010.18	226.96
1010.47	226.92
1010.76	226.94
1011.04	226.95
1011.33	226.96
1011.62	226.97
1011.91	226.99
1012.19	226.97
1012.48	226.97
1012.77	226.97
1013.05	227.03
1013.34	227.02
1013.63	227.06
1013.92	227.10
1014.20	227.11
1014.49	227.14
1014.78	227.16
1015.06	227.14
1015.35	227.15
1015.64	227.14
1015.92	227.18
1016.21	227.21
1016.50	227.24
1016.78	227.25
1017.07	227.24
1017.36	227.20
1017.64	227.18
1017.93	227.19
1018.22	227.20
1018.50	227.22
1018.79	227.22
1019.08	227.15
1019.36	227.20
1019.65	227.21
1019.93	227.21
1020.22	227.20
1020.51	227.26
1020.79	227.26
1021.08	227.08
1021.36	227.38
1021.65	226.97
1021.94	226.79
1022.22	228.05
1022.51	227.63
1022.79	227.19
1023.08	226.98
1023.36	228.38
1023.65	227.27
>>>>>End Processed Spectral Data<<<<<
