SpectraSuite Data File
++++++++++++++++++++++++++++++++++++
Date: Fri Feb 01 17:26:18 EST 2013
User: group
Dark Spectrum Present: No
Reference Spectrum Present: No
Number of Sampled Component Spectra: 1
Spectrometers: USB2E7196
Integration Time (usec): 35000 (USB2E7196)
Spectra Averaged: 100 (USB2E7196)
Boxcar Smoothing: 10 (USB2E7196)
Correct for Electrical Dark: No (USB2E7196)
Strobe/Lamp Enabled: No (USB2E7196)
Correct for Detector Non-linearity: No (USB2E7196)
Correct for Stray Light: No (USB2E7196)
Number of Pixels in Processed Spectrum: 2048
>>>>>Begin Processed Spectral Data<<<<<
339.09	0.00
339.48	212.86
339.86	213.96
340.24	215.64
340.63	217.15
341.01	220.09
341.39	219.60
341.78	221.24
342.16	221.78
342.54	222.66
342.93	211.16
343.31	221.86
343.69	222.42
344.07	222.90
344.46	223.33
344.84	223.71
345.22	223.93
345.60	224.22
345.99	224.37
346.37	224.54
346.75	224.65
347.13	224.74
347.52	224.80
347.90	224.90
348.28	224.95
348.66	225.01
349.05	225.04
349.43	225.06
349.81	225.11
350.19	225.17
350.57	225.25
350.96	225.33
351.34	225.39
351.72	225.48
352.10	225.59
352.48	225.67
352.87	225.73
353.25	225.82
353.63	225.89
354.01	225.98
354.39	226.05
354.77	226.14
355.15	226.23
355.54	226.31
355.92	226.37
356.30	226.44
356.68	226.58
357.06	226.63
357.44	226.70
357.82	226.76
358.20	226.84
358.58	226.89
358.97	226.97
359.35	227.07
359.73	227.12
360.11	227.16
360.49	227.21
360.87	227.27
361.25	227.33
361.63	227.37
362.01	227.43
362.39	227.46
362.77	227.51
363.15	227.53
363.53	227.54
363.91	227.54
364.29	227.56
364.67	227.49
365.05	227.51
365.43	227.52
365.81	227.55
366.19	227.59
366.57	227.62
366.95	227.59
367.33	227.56
367.71	227.54
368.09	227.54
368.47	227.51
368.85	227.49
369.23	227.50
369.61	227.42
369.99	227.40
370.37	227.38
370.75	227.39
371.13	227.36
371.51	227.32
371.89	227.33
372.27	227.32
372.65	227.31
373.03	227.26
373.41	227.22
373.78	227.16
374.16	227.03
374.54	226.94
374.92	226.90
375.30	226.82
375.68	226.75
376.06	226.71
376.44	226.64
376.82	226.56
377.19	226.49
377.57	226.45
377.95	226.37
378.33	226.30
378.71	226.18
379.09	226.12
379.47	226.06
379.84	225.93
380.22	225.82
380.60	225.69
380.98	225.64
381.36	225.60
381.73	225.53
382.11	225.50
382.49	225.43
382.87	225.34
383.25	225.27
383.62	225.35
384.00	225.26
384.38	225.20
384.76	225.17
385.13	225.12
385.51	225.09
385.89	225.02
386.27	224.98
386.64	224.95
387.02	224.91
387.40	224.86
387.78	224.84
388.15	224.83
388.53	224.84
388.91	224.79
389.29	224.72
389.66	224.71
390.04	224.68
390.42	224.68
390.79	224.69
391.17	224.66
391.55	224.53
391.92	224.53
392.30	224.54
392.68	224.51
393.05	224.51
393.43	224.49
393.81	224.52
394.18	224.52
394.56	224.51
394.94	224.53
395.31	224.52
395.69	224.59
396.06	224.60
396.44	224.61
396.82	224.65
397.19	224.71
397.57	224.72
397.95	224.78
398.32	224.77
398.70	224.81
399.07	224.90
399.45	224.94
399.82	225.00
400.20	225.07
400.58	225.14
400.95	225.18
401.33	225.28
401.70	225.41
402.08	225.49
402.45	225.57
402.83	225.66
403.20	225.79
403.58	225.84
403.95	225.98
404.33	226.11
404.71	226.21
405.08	226.39
405.46	226.52
405.83	226.64
406.21	226.81
406.58	226.97
406.96	227.12
407.33	227.30
407.70	227.49
408.08	227.72
408.45	227.93
408.83	228.16
409.20	228.36
409.58	228.51
409.95	228.77
410.33	229.07
410.70	229.35
411.08	229.65
411.45	229.97
411.82	230.25
412.20	230.62
412.57	231.05
412.95	231.32
413.32	231.77
413.69	232.19
414.07	232.61
414.44	233.08
414.82	233.58
415.19	234.14
415.56	234.68
415.94	235.25
416.31	235.92
416.68	236.57
417.06	237.33
417.43	238.06
417.81	238.85
418.18	239.65
418.55	240.50
418.93	241.41
419.30	242.37
419.67	243.37
420.04	244.35
420.42	245.40
420.79	246.64
421.16	247.80
421.54	249.04
421.91	250.33
422.28	251.63
422.66	253.04
423.03	254.40
423.40	255.80
423.77	257.24
424.15	258.72
424.52	260.28
424.89	261.92
425.26	263.53
425.64	265.03
426.01	266.68
426.38	268.40
426.75	270.13
427.13	271.90
427.50	273.77
427.87	275.70
428.24	277.60
428.61	279.41
428.99	281.42
429.36	283.58
429.73	285.70
430.10	287.81
430.47	289.93
430.85	292.13
431.22	294.48
431.59	296.98
431.96	299.31
432.33	301.84
432.70	304.30
433.08	307.22
433.45	309.96
433.82	312.63
434.19	315.61
434.56	318.50
434.93	321.21
435.30	323.89
435.68	326.91
436.05	329.86
436.42	332.77
436.79	335.40
437.16	338.20
437.53	341.16
437.90	344.06
438.27	346.90
438.64	349.83
439.01	352.50
439.38	354.78
439.75	357.04
440.13	359.63
440.50	362.05
440.87	363.98
441.24	365.98
441.61	368.26
441.98	369.85
442.35	371.81
442.72	373.77
443.09	375.68
443.46	376.69
443.83	377.30
444.20	377.83
444.57	378.73
444.94	379.02
445.31	379.41
445.68	379.79
446.05	379.89
446.42	379.56
446.79	379.17
447.16	378.80
447.53	378.49
447.90	377.30
448.27	376.15
448.64	374.53
449.01	373.35
449.37	371.35
449.74	369.38
450.11	366.98
450.48	364.48
450.85	361.87
451.22	359.70
451.59	357.66
451.96	355.69
452.33	352.96
452.70	350.56
453.07	347.59
453.43	344.65
453.80	341.78
454.17	338.98
454.54	336.36
454.91	333.50
455.28	330.77
455.65	328.22
456.02	325.65
456.38	323.42
456.75	320.71
457.12	318.36
457.49	316.06
457.86	313.86
458.23	311.90
458.59	309.78
458.96	307.62
459.33	305.65
459.70	303.72
460.07	302.17
460.43	300.38
460.80	298.72
461.17	297.17
461.54	295.60
461.91	294.11
462.27	292.59
462.64	291.31
463.01	289.87
463.38	288.54
463.74	287.14
464.11	285.89
464.48	284.82
464.85	283.66
465.21	282.76
465.58	281.81
465.95	280.70
466.32	279.79
466.68	278.86
467.05	277.92
467.42	276.99
467.78	276.06
468.15	275.18
468.52	274.49
468.88	273.65
469.25	272.86
469.62	272.24
469.98	271.55
470.35	270.88
470.72	270.27
471.08	269.56
471.45	269.03
471.82	268.48
472.18	267.87
472.55	267.42
472.92	266.86
473.28	266.36
473.65	265.91
474.02	265.46
474.38	265.08
474.75	264.79
475.11	264.41
475.48	264.18
475.85	263.90
476.21	263.63
476.58	263.42
476.94	263.27
477.31	263.06
477.67	262.88
478.04	262.77
478.41	262.71
478.77	262.77
479.14	262.69
479.50	262.71
479.87	262.77
480.23	262.84
480.60	262.89
480.96	262.98
481.33	263.12
481.69	263.32
482.06	263.51
482.42	263.70
482.79	263.97
483.15	264.23
483.52	264.62
483.88	265.03
484.25	265.36
484.61	265.77
484.98	266.24
485.34	266.81
485.71	267.37
486.07	267.97
486.44	268.49
486.80	269.18
487.17	269.89
487.53	270.72
487.90	271.56
488.26	272.51
488.62	273.47
488.99	274.46
489.35	275.47
489.72	276.60
490.08	277.80
490.44	279.01
490.81	280.32
491.17	281.66
491.54	283.09
491.90	284.62
492.26	286.25
492.63	287.97
492.99	289.73
493.36	291.62
493.72	293.65
494.08	295.79
494.45	298.04
494.81	300.44
495.17	302.84
495.54	305.43
495.90	308.11
496.26	310.87
496.63	313.82
496.99	316.87
497.35	320.08
497.72	323.42
498.08	326.92
498.44	330.51
498.80	334.43
499.17	338.43
499.53	342.63
499.89	346.99
500.26	351.45
500.62	356.06
500.98	360.94
501.34	365.95
501.71	371.20
502.07	376.56
502.43	382.04
502.79	387.77
503.16	393.76
503.52	399.95
503.88	406.27
504.24	412.80
504.60	419.54
504.97	426.63
505.33	433.86
505.69	441.48
506.05	449.22
506.41	456.99
506.78	465.08
507.14	473.29
507.50	481.84
507.86	490.65
508.22	499.70
508.59	508.82
508.95	518.22
509.31	527.86
509.67	537.77
510.03	547.85
510.39	558.24
510.75	568.79
511.12	579.48
511.48	590.56
511.84	601.79
512.20	613.08
512.56	624.64
512.92	636.48
513.28	648.46
513.64	660.67
514.00	673.10
514.37	685.73
514.73	698.58
515.09	711.32
515.45	724.34
515.81	737.59
516.17	751.25
516.53	764.98
516.89	778.81
517.25	792.62
517.61	806.67
517.97	820.72
518.33	834.82
518.69	849.23
519.05	863.79
519.41	878.56
519.77	893.81
520.13	908.84
520.49	923.88
520.85	938.84
521.21	954.00
521.57	969.77
521.93	985.05
522.29	1000.87
522.65	1016.70
523.01	1032.45
523.37	1048.06
523.73	1063.80
524.09	1079.47
524.45	1095.19
524.81	1111.38
525.17	1127.66
525.53	1144.01
525.89	1160.34
526.25	1176.80
526.61	1192.77
526.97	1209.04
527.33	1225.10
527.68	1241.28
528.04	1257.30
528.40	1273.52
528.76	1290.19
529.12	1306.35
529.48	1322.81
529.84	1338.49
530.20	1354.54
530.56	1371.11
530.91	1388.03
531.27	1404.37
531.63	1420.42
531.99	1436.68
532.35	1452.25
532.71	1467.77
533.07	1483.63
533.42	1499.26
533.78	1514.88
534.14	1530.76
534.50	1545.72
534.86	1561.20
535.21	1576.08
535.57	1591.71
535.93	1606.95
536.29	1621.50
536.65	1636.27
537.00	1650.70
537.36	1665.73
537.72	1680.07
538.08	1694.19
538.44	1707.74
538.79	1721.46
539.15	1734.88
539.51	1748.47
539.87	1762.66
540.22	1776.23
540.58	1790.02
540.94	1803.02
541.29	1815.67
541.65	1828.19
542.01	1841.29
542.37	1853.40
542.72	1865.70
543.08	1877.41
543.44	1889.62
543.79	1900.80
544.15	1911.68
544.51	1923.21
544.87	1934.03
545.22	1944.78
545.58	1955.19
545.94	1965.02
546.29	1974.84
546.65	1984.90
547.01	1994.32
547.36	2003.00
547.72	2011.68
548.07	2019.55
548.43	2027.89
548.79	2035.89
549.14	2043.73
549.50	2051.08
549.86	2058.76
550.21	2066.11
550.57	2073.34
550.92	2080.13
551.28	2087.48
551.64	2094.83
551.99	2101.65
552.35	2108.12
552.70	2114.67
553.06	2120.76
553.41	2127.47
553.77	2133.71
554.13	2139.83
554.48	2146.01
554.84	2151.99
555.19	2157.32
555.55	2162.78
555.90	2167.60
556.26	2173.02
556.61	2177.90
556.97	2182.95
557.32	2187.66
557.68	2192.28
558.03	2196.82
558.39	2200.95
558.74	2205.70
559.10	2209.84
559.45	2213.67
559.81	2218.24
560.16	2222.38
560.52	2226.00
560.87	2229.66
561.23	2232.68
561.58	2235.93
561.94	2238.94
562.29	2241.39
562.64	2244.59
563.00	2247.53
563.35	2251.31
563.71	2254.72
564.06	2258.24
564.42	2261.31
564.77	2264.29
565.12	2267.06
565.48	2269.60
565.83	2271.90
566.19	2273.74
566.54	2275.13
566.89	2276.81
567.25	2277.90
567.60	2279.54
567.96	2281.84
568.31	2283.08
568.66	2284.62
569.02	2285.75
569.37	2286.41
569.72	2287.83
570.08	2288.43
570.43	2288.89
570.78	2288.79
571.14	2287.73
571.49	2286.76
571.84	2286.67
572.20	2285.86
572.55	2285.06
572.90	2283.73
573.26	2282.61
573.61	2281.14
573.96	2279.83
574.31	2277.34
574.67	2274.75
575.02	2271.48
575.37	2268.21
575.72	2264.87
576.08	2261.85
576.43	2258.79
576.78	2255.64
577.13	2252.74
577.49	2249.83
577.84	2246.73
578.19	2243.29
578.54	2240.15
578.90	2236.46
579.25	2231.36
579.60	2226.79
579.95	2222.31
580.30	2217.68
580.66	2212.82
581.01	2208.21
581.36	2203.52
581.71	2199.68
582.06	2195.52
582.42	2191.49
582.77	2186.65
583.12	2182.35
583.47	2177.98
583.82	2173.51
584.17	2168.59
584.53	2163.43
584.88	2158.29
585.23	2152.94
585.58	2147.61
585.93	2142.31
586.28	2137.55
586.63	2132.73
586.98	2127.88
587.34	2123.34
587.69	2118.68
588.04	2113.94
588.39	2108.66
588.74	2102.47
589.09	2096.48
589.44	2090.04
589.79	2084.06
590.14	2078.65
590.49	2072.26
590.84	2066.00
591.19	2060.01
591.54	2053.60
591.89	2046.55
592.25	2040.02
592.60	2032.90
592.95	2025.79
593.30	2018.62
593.65	2011.17
594.00	2004.23
594.35	1997.14
594.70	1989.17
595.05	1982.37
595.40	1975.06
595.75	1967.61
596.10	1961.61
596.45	1955.18
596.80	1949.08
597.15	1942.73
597.50	1935.92
597.85	1929.51
598.19	1923.07
598.54	1916.23
598.89	1909.92
599.24	1904.16
599.59	1897.66
599.94	1891.40
600.29	1885.11
600.64	1878.48
600.99	1871.41
601.34	1864.79
601.69	1857.79
602.04	1851.11
602.39	1843.75
602.74	1837.09
603.08	1830.59
603.43	1823.86
603.78	1816.50
604.13	1809.34
604.48	1802.19
604.83	1795.38
605.18	1788.71
605.53	1780.84
605.87	1772.82
606.22	1765.34
606.57	1757.35
606.92	1749.80
607.27	1742.96
607.62	1736.20
607.96	1729.13
608.31	1722.64
608.66	1715.08
609.01	1707.69
609.36	1700.15
609.70	1692.10
610.05	1684.01
610.40	1676.27
610.75	1667.88
611.10	1660.27
611.44	1651.72
611.79	1643.62
612.14	1634.88
612.49	1625.53
612.83	1616.93
613.18	1608.65
613.53	1600.62
613.88	1592.03
614.22	1583.73
614.57	1574.79
614.92	1566.60
615.27	1559.15
615.61	1550.74
615.96	1542.62
616.31	1534.79
616.65	1527.33
617.00	1519.71
617.35	1511.85
617.70	1503.47
618.04	1494.96
618.39	1486.46
618.74	1478.98
619.08	1470.48
619.43	1462.79
619.78	1455.78
620.12	1448.71
620.47	1441.16
620.82	1432.83
621.16	1425.21
621.51	1417.40
621.85	1409.65
622.20	1401.14
622.55	1392.45
622.89	1384.49
623.24	1376.72
623.59	1369.18
623.93	1361.56
624.28	1354.17
624.62	1346.63
624.97	1339.28
625.32	1332.27
625.66	1325.22
626.01	1317.89
626.35	1310.62
626.70	1302.69
627.04	1294.95
627.39	1286.96
627.73	1279.50
628.08	1272.55
628.43	1265.23
628.77	1257.95
629.12	1250.44
629.46	1243.09
629.81	1235.59
630.15	1228.19
630.50	1220.69
630.84	1212.48
631.19	1204.33
631.53	1196.75
631.88	1189.03
632.22	1181.33
632.57	1173.91
632.91	1166.29
633.26	1158.76
633.60	1151.11
633.95	1143.88
634.29	1136.63
634.64	1129.88
634.98	1122.51
635.32	1115.29
635.67	1108.63
636.01	1101.84
636.36	1094.96
636.70	1088.32
637.05	1081.65
637.39	1075.18
637.73	1068.72
638.08	1062.77
638.42	1056.77
638.77	1050.34
639.11	1043.81
639.45	1037.40
639.80	1030.84
640.14	1024.42
640.49	1017.95
640.83	1011.63
641.17	1005.38
641.52	999.08
641.86	992.52
642.20	986.61
642.55	980.11
642.89	973.61
643.23	966.98
643.58	961.15
643.92	954.98
644.26	948.98
644.61	942.85
644.95	936.82
645.29	930.31
645.64	923.55
645.98	917.12
646.32	911.16
646.66	905.05
647.01	899.19
647.35	893.49
647.69	887.52
648.04	881.90
648.38	876.13
648.72	870.19
649.06	864.16
649.41	858.13
649.75	852.38
650.09	846.48
650.43	840.75
650.78	834.61
651.12	828.66
651.46	822.87
651.80	817.12
652.14	811.66
652.49	806.27
652.83	801.05
653.17	795.45
653.51	789.83
653.85	784.38
654.20	778.75
654.54	772.64
654.88	766.87
655.22	760.94
655.56	755.23
655.90	749.69
656.25	744.48
656.59	739.17
656.93	733.97
657.27	728.77
657.61	723.26
657.95	718.16
658.29	713.05
658.64	707.73
658.98	702.35
659.32	696.77
659.66	691.47
660.00	686.24
660.34	681.19
660.68	676.17
661.02	671.11
661.36	666.38
661.70	661.92
662.05	657.57
662.39	653.33
662.73	648.78
663.07	644.37
663.41	639.93
663.75	635.48
664.09	630.88
664.43	626.44
664.77	622.44
665.11	618.17
665.45	613.99
665.79	609.98
666.13	605.86
666.47	601.74
666.81	597.63
667.15	593.42
667.49	589.47
667.83	585.62
668.17	581.74
668.51	577.59
668.85	573.50
669.19	569.56
669.53	565.65
669.87	561.84
670.21	558.07
670.55	554.39
670.89	550.90
671.23	547.47
671.57	543.85
671.91	540.26
672.25	536.65
672.58	533.09
672.92	529.52
673.26	526.32
673.60	523.17
673.94	520.03
674.28	517.08
674.62	514.09
674.96	510.93
675.30	507.98
675.64	505.04
675.97	502.26
676.31	499.40
676.65	496.48
676.99	493.64
677.33	490.76
677.67	487.90
678.01	484.86
678.34	481.84
678.68	478.99
679.02	476.13
679.36	473.34
679.70	470.61
680.04	467.86
680.37	465.00
680.71	462.18
681.05	459.52
681.39	456.75
681.73	454.07
682.06	451.62
682.40	449.07
682.74	446.52
683.08	443.89
683.42	441.27
683.75	438.75
684.09	436.22
684.43	433.72
684.77	431.24
685.10	428.76
685.44	426.41
685.78	424.08
686.12	421.79
686.45	419.49
686.79	417.18
687.13	415.02
687.46	412.76
687.80	410.55
688.14	408.30
688.48	406.23
688.81	404.01
689.15	401.78
689.49	399.59
689.82	397.46
690.16	395.38
690.50	393.37
690.83	391.43
691.17	389.42
691.51	387.50
691.84	385.58
692.18	383.71
692.52	381.74
692.85	379.81
693.19	377.88
693.52	375.98
693.86	374.11
694.20	372.28
694.53	370.54
694.87	368.66
695.21	366.81
695.54	364.97
695.88	363.18
696.21	361.41
696.55	359.67
696.88	357.96
697.22	356.26
697.56	354.64
697.89	352.93
698.23	351.33
698.56	349.68
698.90	348.13
699.23	346.43
699.57	344.85
699.90	343.28
700.24	341.74
700.58	340.23
700.91	338.75
701.25	337.27
701.58	335.85
701.92	334.46
702.25	333.10
702.59	331.72
702.92	330.42
703.26	329.10
703.59	327.83
703.93	326.68
704.26	325.45
704.60	324.16
704.93	322.89
705.26	321.63
705.60	320.42
705.93	319.19
706.27	318.19
706.60	317.15
706.94	316.05
707.27	314.91
707.61	313.84
707.94	312.82
708.27	311.71
708.61	310.63
708.94	309.61
709.28	308.61
709.61	307.62
709.94	306.66
710.28	305.63
710.61	304.65
710.95	303.52
711.28	302.59
711.61	301.60
711.95	300.67
712.28	299.72
712.61	298.73
712.95	297.81
713.28	296.89
713.61	295.95
713.95	295.05
714.28	294.17
714.61	293.29
714.95	292.41
715.28	291.53
715.61	290.60
715.95	289.78
716.28	288.90
716.61	288.01
716.95	287.16
717.28	286.38
717.61	285.59
717.94	284.83
718.28	284.00
718.61	283.28
718.94	282.54
719.27	281.84
719.61	281.20
719.94	280.52
720.27	279.75
720.60	279.11
720.94	278.47
721.27	277.84
721.60	277.21
721.93	276.57
722.27	276.04
722.60	275.51
722.93	274.87
723.26	274.35
723.59	273.79
723.93	273.25
724.26	272.65
724.59	272.05
724.92	271.52
725.25	271.01
725.59	270.47
725.92	269.95
726.25	269.45
726.58	268.90
726.91	268.40
727.24	267.94
727.57	267.46
727.91	266.92
728.24	266.42
728.57	265.96
728.90	265.50
729.23	264.98
729.56	264.54
729.89	264.04
730.22	263.51
730.55	263.05
730.89	262.58
731.22	262.16
731.55	261.75
731.88	261.28
732.21	260.85
732.54	260.40
732.87	259.94
733.20	259.53
733.53	259.15
733.86	258.75
734.19	258.35
734.52	257.97
734.85	257.69
735.18	257.32
735.51	256.89
735.84	256.54
736.17	256.21
736.50	255.78
736.83	255.59
737.16	255.26
737.49	254.92
737.82	254.57
738.15	254.23
738.48	253.86
738.81	253.60
739.14	253.24
739.47	252.91
739.80	252.59
740.13	252.28
740.46	251.96
740.79	251.63
741.12	251.32
741.45	250.99
741.78	250.63
742.11	250.33
742.44	250.05
742.77	249.74
743.10	249.40
743.43	249.13
743.75	248.74
744.08	248.59
744.41	248.30
744.74	248.02
745.07	247.75
745.40	247.50
745.73	247.22
746.06	246.92
746.39	246.69
746.71	246.47
747.04	246.20
747.37	245.91
747.70	245.66
748.03	245.39
748.36	245.11
748.68	244.84
749.01	244.55
749.34	244.31
749.67	244.08
750.00	243.88
750.33	243.71
750.65	243.48
750.98	243.13
751.31	242.91
751.64	242.70
751.97	242.51
752.29	242.29
752.62	242.02
752.95	241.83
753.28	241.57
753.60	241.32
753.93	241.13
754.26	240.94
754.59	240.70
754.91	240.52
755.24	240.31
755.57	240.15
755.90	239.98
756.22	239.81
756.55	239.60
756.88	239.38
757.20	239.10
757.53	238.90
757.86	238.71
758.19	238.53
758.51	238.37
758.84	238.15
759.17	237.97
759.49	237.84
759.82	237.74
760.15	237.56
760.47	237.39
760.80	237.23
761.13	237.12
761.45	236.99
761.78	236.80
762.11	236.67
762.43	236.51
762.76	236.36
763.08	236.20
763.41	236.06
763.74	235.93
764.06	235.79
764.39	235.65
764.71	235.51
765.04	235.38
765.37	235.23
765.69	235.12
766.02	234.99
766.34	234.82
766.67	234.65
767.00	234.57
767.32	234.51
767.65	234.44
767.97	234.32
768.30	234.22
768.62	234.11
768.95	233.99
769.27	233.88
769.60	233.78
769.92	233.67
770.25	233.52
770.57	233.42
770.90	233.33
771.22	233.22
771.55	233.11
771.87	233.05
772.20	232.95
772.52	232.95
772.85	233.00
773.17	232.93
773.50	232.83
773.82	232.73
774.15	232.62
774.47	232.47
774.80	232.37
775.12	232.24
775.45	232.15
775.77	232.06
776.09	231.97
776.42	231.91
776.74	231.88
777.07	231.83
777.39	231.74
777.72	231.65
778.04	231.58
778.36	231.53
778.69	231.44
779.01	231.40
779.33	231.20
779.66	231.02
779.98	230.91
780.31	230.84
780.63	230.83
780.95	230.75
781.28	230.68
781.60	230.60
781.92	230.57
782.25	230.50
782.57	230.47
782.89	230.39
783.22	230.33
783.54	230.25
783.86	230.19
784.19	230.13
784.51	230.14
784.83	230.11
785.16	230.03
785.48	229.97
785.80	229.89
786.12	229.90
786.45	229.85
786.77	229.85
787.09	229.83
787.42	229.75
787.74	229.73
788.06	229.70
788.38	229.67
788.71	229.65
789.03	229.59
789.35	229.57
789.67	229.53
789.99	229.47
790.32	229.40
790.64	229.41
790.96	229.49
791.28	229.40
791.61	229.32
791.93	229.30
792.25	229.26
792.57	229.28
792.89	229.19
793.21	229.17
793.54	229.13
793.86	229.05
794.18	229.01
794.50	228.96
794.82	228.92
795.14	228.87
795.47	228.85
795.79	228.83
796.11	228.75
796.43	228.73
796.75	228.71
797.07	228.69
797.39	228.59
797.71	228.47
798.04	228.45
798.36	228.44
798.68	228.39
799.00	228.35
799.32	228.30
799.64	228.28
799.96	228.22
800.28	228.21
800.60	228.17
800.92	228.14
801.24	228.10
801.56	228.07
801.89	228.02
802.21	227.95
802.53	227.89
802.85	227.91
803.17	227.94
803.49	227.88
803.81	227.85
804.13	227.80
804.45	227.76
804.77	227.73
805.09	227.68
805.41	227.69
805.73	227.69
806.05	227.62
806.37	227.61
806.69	227.59
807.01	227.54
807.33	227.54
807.65	227.52
807.97	227.54
808.28	227.52
808.60	227.49
808.92	227.45
809.24	227.50
809.56	227.44
809.88	227.37
810.20	227.39
810.52	227.36
810.84	227.37
811.16	227.33
811.48	227.30
811.80	227.33
812.12	227.27
812.43	227.26
812.75	227.24
813.07	227.20
813.39	227.18
813.71	227.12
814.03	227.10
814.35	227.05
814.67	226.99
814.98	226.98
815.30	226.97
815.62	226.94
815.94	226.87
816.26	226.89
816.58	226.83
816.89	226.81
817.21	226.77
817.53	226.74
817.85	226.74
818.17	226.72
818.48	226.64
818.80	226.64
819.12	226.60
819.44	226.56
819.76	226.51
820.07	226.49
820.39	226.51
820.71	226.49
821.03	226.48
821.34	226.46
821.66	226.45
821.98	226.46
822.30	226.47
822.61	226.50
822.93	226.44
823.25	226.44
823.57	226.38
823.88	226.41
824.20	226.40
824.52	226.40
824.83	226.38
825.15	226.39
825.47	226.39
825.79	226.41
826.10	226.39
826.42	226.41
826.74	226.42
827.05	226.39
827.37	226.34
827.69	226.29
828.00	226.26
828.32	226.23
828.64	226.19
828.95	226.21
829.27	226.16
829.58	226.13
829.90	226.16
830.22	226.16
830.53	226.10
830.85	226.09
831.17	226.02
831.48	226.00
831.80	225.96
832.11	225.93
832.43	225.89
832.75	225.87
833.06	225.90
833.38	225.88
833.69	225.86
834.01	225.90
834.32	225.94
834.64	225.90
834.96	225.86
835.27	225.85
835.59	225.80
835.90	225.77
836.22	225.79
836.53	225.74
836.85	225.74
837.16	225.86
837.48	225.85
837.79	225.89
838.11	225.90
838.42	225.88
838.74	225.90
839.05	225.89
839.37	225.86
839.68	225.79
840.00	225.76
840.31	225.76
840.63	225.77
840.94	225.75
841.26	225.77
841.57	225.77
841.88	225.78
842.20	225.81
842.51	225.79
842.83	225.76
843.14	225.84
843.46	225.85
843.77	225.75
844.08	225.78
844.40	225.73
844.71	225.72
845.03	225.72
845.34	225.70
845.65	225.68
845.97	225.73
846.28	225.75
846.60	225.74
846.91	225.73
847.22	225.70
847.54	225.68
847.85	225.70
848.16	225.71
848.48	225.67
848.79	225.64
849.10	225.68
849.42	225.68
849.73	225.58
850.04	225.57
850.36	225.55
850.67	225.53
850.98	225.54
851.30	225.55
851.61	225.56
851.92	225.55
852.23	225.55
852.55	225.54
852.86	225.54
853.17	225.56
853.49	225.58
853.80	225.59
854.11	225.63
854.42	225.63
854.74	225.58
855.05	225.59
855.36	225.53
855.67	225.51
855.99	225.51
856.30	225.60
856.61	225.61
856.92	225.61
857.23	225.61
857.55	225.58
857.86	225.54
858.17	225.59
858.48	225.56
858.79	225.58
859.11	225.58
859.42	225.55
859.73	225.53
860.04	225.52
860.35	225.50
860.66	225.44
860.98	225.43
861.29	225.46
861.60	225.45
861.91	225.50
862.22	225.48
862.53	225.45
862.84	225.33
863.16	225.35
863.47	225.31
863.78	225.31
864.09	225.33
864.40	225.35
864.71	225.32
865.02	225.32
865.33	225.29
865.64	225.26
865.95	225.25
866.27	225.32
866.58	225.31
866.89	225.33
867.20	225.32
867.51	225.30
867.82	225.28
868.13	225.30
868.44	225.28
868.75	225.29
869.06	225.28
869.37	225.29
869.68	225.25
869.99	225.29
870.30	225.30
870.61	225.28
870.92	225.24
871.23	225.26
871.54	225.26
871.85	225.29
872.16	225.28
872.47	225.30
872.78	225.23
873.09	225.22
873.40	225.20
873.71	225.22
874.02	225.25
874.33	225.24
874.64	225.23
874.95	225.24
875.26	225.25
875.56	225.25
875.87	225.24
876.18	225.23
876.49	225.31
876.80	225.26
877.11	225.26
877.42	225.27
877.73	225.20
878.04	225.17
878.35	225.12
878.66	225.16
878.96	225.12
879.27	225.14
879.58	225.15
879.89	225.13
880.20	225.14
880.51	225.10
880.82	225.11
881.12	225.11
881.43	225.06
881.74	225.05
882.05	225.08
882.36	225.10
882.67	225.10
882.97	225.02
883.28	225.01
883.59	225.00
883.90	225.01
884.21	225.04
884.51	225.05
884.82	225.07
885.13	225.09
885.44	225.08
885.74	225.06
886.05	225.05
886.36	225.03
886.67	225.01
886.98	225.06
887.28	225.09
887.59	225.06
887.90	225.10
888.20	225.10
888.51	225.10
888.82	225.08
889.13	225.09
889.43	225.16
889.74	225.15
890.05	225.15
890.35	225.15
890.66	225.15
890.97	225.15
891.28	225.14
891.58	225.06
891.89	225.08
892.20	225.07
892.50	225.07
892.81	225.05
893.12	225.03
893.42	224.99
893.73	224.96
894.04	224.94
894.34	224.93
894.65	224.92
894.95	224.90
895.26	224.90
895.57	224.93
895.87	224.84
896.18	224.86
896.48	224.86
896.79	224.83
897.10	224.84
897.40	224.84
897.71	224.85
898.01	224.89
898.32	224.90
898.63	224.90
898.93	224.90
899.24	224.91
899.54	224.93
899.85	224.92
900.15	224.90
900.46	224.90
900.76	224.91
901.07	224.91
901.38	224.92
901.68	224.94
901.99	224.91
902.29	224.91
902.60	224.90
902.90	224.90
903.21	224.92
903.51	224.90
903.82	224.91
904.12	224.92
904.43	224.92
904.73	224.91
905.03	224.92
905.34	225.03
905.64	225.04
905.95	225.02
906.25	225.01
906.56	225.06
906.86	225.07
907.17	225.05
907.47	225.05
907.77	225.04
908.08	225.03
908.38	225.02
908.69	225.02
908.99	225.08
909.30	225.09
909.60	225.11
909.90	225.11
910.21	225.09
910.51	225.09
910.81	225.09
911.12	225.12
911.42	225.10
911.73	224.99
912.03	224.96
912.33	225.00
912.64	225.03
912.94	224.98
913.24	224.99
913.55	224.99
913.85	225.00
914.15	225.01
914.46	225.01
914.76	224.99
915.06	224.98
915.37	224.93
915.67	224.90
915.97	224.91
916.27	224.91
916.58	224.90
916.88	224.84
917.18	224.83
917.49	224.88
917.79	224.88
918.09	224.92
918.39	224.98
918.70	224.98
919.00	224.97
919.30	225.01
919.60	224.96
919.91	224.94
920.21	224.95
920.51	224.94
920.81	224.91
921.12	224.93
921.42	224.93
921.72	224.92
922.02	224.95
922.32	224.92
922.63	224.94
922.93	225.00
923.23	225.02
923.53	225.01
923.83	224.96
924.13	224.94
924.44	224.91
924.74	224.90
925.04	224.90
925.34	224.89
925.64	224.86
925.94	224.87
926.24	224.94
926.55	224.90
926.85	224.92
927.15	224.93
927.45	224.93
927.75	224.93
928.05	224.93
928.35	224.94
928.65	224.92
928.95	224.92
929.26	224.85
929.56	224.88
929.86	224.89
930.16	224.87
930.46	224.88
930.76	224.88
931.06	224.82
931.36	224.80
931.66	224.86
931.96	224.89
932.26	224.91
932.56	224.87
932.86	224.90
933.16	224.87
933.46	224.86
933.76	224.83
934.06	224.84
934.36	224.87
934.66	224.83
934.96	224.84
935.26	224.85
935.56	224.88
935.86	224.84
936.16	224.84
936.46	224.83
936.76	224.85
937.06	224.85
937.36	224.88
937.66	224.89
937.96	224.85
938.26	224.82
938.56	224.83
938.86	224.80
939.16	224.82
939.46	224.85
939.76	224.87
940.06	224.87
940.35	224.88
940.65	224.82
940.95	224.84
941.25	224.85
941.55	224.85
941.85	224.86
942.15	224.91
942.45	224.93
942.75	224.93
943.04	224.95
943.34	225.01
943.64	225.00
943.94	224.98
944.24	224.96
944.54	224.98
944.84	224.97
945.13	225.02
945.43	225.00
945.73	225.03
946.03	225.01
946.33	225.01
946.62	224.97
946.92	224.98
947.22	225.00
947.52	225.01
947.82	225.00
948.11	224.98
948.41	224.94
948.71	224.92
949.01	224.94
949.31	224.88
949.60	224.80
949.90	224.81
950.20	224.80
950.50	224.81
950.79	224.76
951.09	224.79
951.39	224.76
951.69	224.72
951.98	224.70
952.28	224.72
952.58	224.70
952.87	224.74
953.17	224.76
953.47	224.69
953.76	224.66
954.06	224.64
954.36	224.58
954.66	224.57
954.95	224.58
955.25	224.58
955.55	224.61
955.84	224.61
956.14	224.64
956.44	224.63
956.73	224.62
957.03	224.64
957.32	224.62
957.62	224.61
957.92	224.65
958.21	224.66
958.51	224.73
958.81	224.75
959.10	224.76
959.40	224.79
959.69	224.82
959.99	224.86
960.29	224.85
960.58	224.89
960.88	224.92
961.17	224.92
961.47	224.90
961.76	224.89
962.06	224.92
962.36	224.87
962.65	224.90
962.95	224.92
963.24	224.90
963.54	224.91
963.83	224.92
964.13	224.91
964.42	224.90
964.72	224.85
965.01	224.86
965.31	224.82
965.60	224.80
965.90	224.90
966.19	224.87
966.49	224.89
966.78	224.90
967.08	224.87
967.37	224.86
967.67	224.84
967.96	224.85
968.26	224.87
968.55	224.92
968.85	224.93
969.14	224.92
969.43	224.96
969.73	224.97
970.02	224.96
970.32	224.97
970.61	224.94
970.91	224.93
971.20	224.93
971.49	224.95
971.79	224.99
972.08	224.86
972.38	224.90
972.67	224.90
972.96	224.96
973.26	224.96
973.55	224.98
973.85	225.01
974.14	225.04
974.43	225.02
974.73	224.98
975.02	224.99
975.31	225.00
975.61	224.96
975.90	224.95
976.19	224.94
976.49	224.94
976.78	224.94
977.07	224.95
977.37	224.96
977.66	224.97
977.95	224.96
978.24	225.00
978.54	225.00
978.83	224.97
979.12	224.93
979.42	224.94
979.71	224.94
980.00	224.92
980.29	224.91
980.59	224.90
980.88	224.93
981.17	224.90
981.46	224.91
981.76	224.95
982.05	224.95
982.34	224.97
982.63	225.00
982.93	225.01
983.22	225.04
983.51	225.02
983.80	225.01
984.09	225.01
984.39	225.00
984.68	224.98
984.97	224.99
985.26	225.00
985.55	225.02
985.85	225.00
986.14	225.01
986.43	224.99
986.72	225.00
987.01	224.94
987.30	224.95
987.59	224.93
987.89	224.94
988.18	224.91
988.47	224.91
988.76	224.89
989.05	224.87
989.34	224.84
989.63	224.87
989.92	224.85
990.22	224.85
990.51	224.86
990.80	224.84
991.09	224.84
991.38	224.81
991.67	224.78
991.96	224.75
992.25	224.76
992.54	224.76
992.83	224.78
993.12	224.79
993.41	224.80
993.70	224.84
993.99	224.84
994.28	224.83
994.58	224.81
994.87	224.76
995.16	224.71
995.45	224.69
995.74	224.63
996.03	224.63
996.32	224.62
996.61	224.58
996.90	224.61
997.19	224.59
997.48	224.63
997.77	224.63
998.06	224.62
998.34	224.61
998.63	224.60
998.92	224.57
999.21	224.59
999.50	224.60
999.79	224.56
1000.08	224.56
1000.37	224.57
1000.66	224.58
1000.95	224.63
1001.24	224.64
1001.53	224.66
1001.82	224.67
1002.11	224.65
1002.40	224.65
1002.68	224.70
1002.97	224.76
1003.26	224.76
1003.55	224.71
1003.84	224.73
1004.13	224.82
1004.42	224.80
1004.71	224.80
1004.99	224.81
1005.28	224.85
1005.57	224.83
1005.86	224.83
1006.15	224.81
1006.44	224.77
1006.72	224.75
1007.01	224.75
1007.30	224.78
1007.59	224.77
1007.88	224.77
1008.17	224.79
1008.45	224.77
1008.74	224.76
1009.03	224.71
1009.32	224.70
1009.60	224.73
1009.89	224.70
1010.18	224.64
1010.47	224.65
1010.76	224.65
1011.04	224.64
1011.33	224.65
1011.62	224.66
1011.91	224.67
1012.19	224.69
1012.48	224.70
1012.77	224.72
1013.05	224.77
1013.34	224.79
1013.63	224.78
1013.92	224.80
1014.20	224.77
1014.49	224.75
1014.78	224.72
1015.06	224.67
1015.35	224.68
1015.64	224.71
1015.92	224.75
1016.21	224.75
1016.50	224.74
1016.78	224.75
1017.07	224.75
1017.36	224.69
1017.64	224.66
1017.93	224.68
1018.22	224.64
1018.50	224.65
1018.79	224.63
1019.08	224.55
1019.36	224.56
1019.65	224.56
1019.93	224.57
1020.22	224.60
1020.51	224.65
1020.79	224.65
1021.08	224.35
1021.36	224.44
1021.65	224.17
1021.94	224.38
1022.22	224.92
1022.51	224.47
1022.79	224.74
1023.08	225.02
1023.36	225.55
1023.65	224.17
>>>>>End Processed Spectral Data<<<<<
