SpectraSuite Data File
++++++++++++++++++++++++++++++++++++
Date: Fri Feb 01 16:23:25 EST 2013
User: group
Dark Spectrum Present: No
Reference Spectrum Present: No
Number of Sampled Component Spectra: 1
Spectrometers: USB2E7196
Integration Time (usec): 35000 (USB2E7196)
Spectra Averaged: 100 (USB2E7196)
Boxcar Smoothing: 10 (USB2E7196)
Correct for Electrical Dark: No (USB2E7196)
Strobe/Lamp Enabled: No (USB2E7196)
Correct for Detector Non-linearity: No (USB2E7196)
Correct for Stray Light: No (USB2E7196)
Number of Pixels in Processed Spectrum: 2048
>>>>>Begin Processed Spectral Data<<<<<
339.09	0.00
339.48	214.15
339.86	215.12
340.24	216.75
340.63	217.82
341.01	220.57
341.39	221.25
341.78	222.30
342.16	223.05
342.54	224.06
342.93	212.40
343.31	223.13
343.69	223.69
344.07	224.17
344.46	224.60
344.84	224.99
345.22	225.24
345.60	225.46
345.99	225.63
346.37	225.80
346.75	225.94
347.13	225.98
347.52	226.01
347.90	226.08
348.28	226.07
348.66	226.10
349.05	226.06
349.43	226.08
349.81	226.16
350.19	226.19
350.57	226.25
350.96	226.31
351.34	226.39
351.72	226.46
352.10	226.53
352.48	226.58
352.87	226.63
353.25	226.69
353.63	226.75
354.01	226.83
354.39	226.89
354.77	226.92
355.15	227.04
355.54	227.10
355.92	227.10
356.30	227.22
356.68	227.37
357.06	227.48
357.44	227.55
357.82	227.61
358.20	227.72
358.58	227.73
358.97	227.79
359.35	227.85
359.73	227.89
360.11	227.99
360.49	228.05
360.87	228.11
361.25	228.17
361.63	228.24
362.01	228.30
362.39	228.34
362.77	228.39
363.15	228.41
363.53	228.48
363.91	228.54
364.29	228.54
364.67	228.47
365.05	228.49
365.43	228.49
365.81	228.48
366.19	228.51
366.57	228.53
366.95	228.52
367.33	228.55
367.71	228.58
368.09	228.58
368.47	228.58
368.85	228.56
369.23	228.58
369.61	228.54
369.99	228.54
370.37	228.52
370.75	228.53
371.13	228.46
371.51	228.39
371.89	228.35
372.27	228.35
372.65	228.31
373.03	228.25
373.41	228.19
373.78	228.17
374.16	228.07
374.54	228.00
374.92	227.94
375.30	227.85
375.68	227.76
376.06	227.69
376.44	227.62
376.82	227.57
377.19	227.50
377.57	227.41
377.95	227.29
378.33	227.19
378.71	227.07
379.09	227.04
379.47	227.03
379.84	226.98
380.22	226.88
380.60	226.79
380.98	226.72
381.36	226.69
381.73	226.59
382.11	226.55
382.49	226.52
382.87	226.44
383.25	226.39
383.62	226.43
384.00	226.36
384.38	226.30
384.76	226.27
385.13	226.25
385.51	226.23
385.89	226.17
386.27	226.14
386.64	226.11
387.02	226.04
387.40	225.96
387.78	225.92
388.15	225.88
388.53	225.83
388.91	225.82
389.29	225.76
389.66	225.74
390.04	225.72
390.42	225.72
390.79	225.70
391.17	225.66
391.55	225.51
391.92	225.50
392.30	225.51
392.68	225.44
393.05	225.43
393.43	225.43
393.81	225.48
394.18	225.48
394.56	225.45
394.94	225.50
395.31	225.53
395.69	225.58
396.06	225.62
396.44	225.68
396.82	225.71
397.19	225.82
397.57	225.85
397.95	225.93
398.32	225.91
398.70	226.02
399.07	226.13
399.45	226.23
399.82	226.31
400.20	226.37
400.58	226.49
400.95	226.52
401.33	226.64
401.70	226.74
402.08	226.84
402.45	226.96
402.83	227.08
403.20	227.20
403.58	227.29
403.95	227.45
404.33	227.56
404.71	227.69
405.08	227.83
405.46	227.96
405.83	228.07
406.21	228.26
406.58	228.38
406.96	228.51
407.33	228.69
407.70	228.89
408.08	229.15
408.45	229.36
408.83	229.61
409.20	229.79
409.58	229.96
409.95	230.24
410.33	230.50
410.70	230.73
411.08	231.01
411.45	231.26
411.82	231.49
412.20	231.84
412.57	232.21
412.95	232.50
413.32	232.90
413.69	233.29
414.07	233.73
414.44	234.19
414.82	234.69
415.19	235.22
415.56	235.76
415.94	236.32
416.31	236.95
416.68	237.57
417.06	238.29
417.43	239.00
417.81	239.76
418.18	240.54
418.55	241.37
418.93	242.23
419.30	243.17
419.67	244.13
420.04	245.07
420.42	246.08
420.79	247.28
421.16	248.44
421.54	249.66
421.91	250.86
422.28	252.13
422.66	253.45
423.03	254.78
423.40	256.12
423.77	257.50
424.15	258.90
424.52	260.38
424.89	261.98
425.26	263.54
425.64	264.94
426.01	266.53
426.38	268.20
426.75	269.89
427.13	271.59
427.50	273.42
427.87	275.29
428.24	277.12
428.61	278.84
428.99	280.77
429.36	282.81
429.73	284.86
430.10	286.90
430.47	288.96
430.85	291.06
431.22	293.26
431.59	295.65
431.96	297.90
432.33	300.40
432.70	302.75
433.08	305.53
433.45	308.22
433.82	310.81
434.19	313.66
434.56	316.47
434.93	319.11
435.30	321.69
435.68	324.57
436.05	327.38
436.42	330.21
436.79	332.76
437.16	335.46
437.53	338.25
437.90	341.05
438.27	343.77
438.64	346.58
439.01	349.17
439.38	351.40
439.75	353.55
440.13	356.00
440.50	358.31
440.87	360.16
441.24	362.05
441.61	364.19
441.98	365.67
442.35	367.44
442.72	369.27
443.09	371.05
443.46	372.05
443.83	372.63
444.20	373.14
444.57	373.94
444.94	374.23
445.31	374.59
445.68	374.95
446.05	375.02
446.42	374.60
446.79	374.16
447.16	373.72
447.53	373.44
447.90	372.27
448.27	371.11
448.64	369.54
449.01	368.43
449.37	366.45
449.74	364.56
450.11	362.33
450.48	359.90
450.85	357.38
451.22	355.25
451.59	353.24
451.96	351.32
452.33	348.73
452.70	346.37
453.07	343.55
453.43	340.65
453.80	337.86
454.17	335.23
454.54	332.70
454.91	329.99
455.28	327.26
455.65	324.78
456.02	322.39
456.38	320.23
456.75	317.56
457.12	315.34
457.49	313.12
457.86	310.93
458.23	309.09
458.59	307.06
458.96	304.99
459.33	303.16
459.70	301.27
460.07	299.78
460.43	298.10
460.80	296.49
461.17	295.03
461.54	293.56
461.91	292.12
462.27	290.69
462.64	289.43
463.01	288.11
463.38	286.84
463.74	285.43
464.11	284.26
464.48	283.21
464.85	282.16
465.21	281.32
465.58	280.41
465.95	279.35
466.32	278.43
466.68	277.51
467.05	276.62
467.42	275.75
467.78	274.82
468.15	273.93
468.52	273.26
468.88	272.42
469.25	271.66
469.62	271.06
469.98	270.38
470.35	269.76
470.72	269.17
471.08	268.52
471.45	268.01
471.82	267.44
472.18	266.86
472.55	266.41
472.92	265.87
473.28	265.44
473.65	264.96
474.02	264.55
474.38	264.19
474.75	263.84
475.11	263.50
475.48	263.22
475.85	263.00
476.21	262.76
476.58	262.59
476.94	262.50
477.31	262.31
477.67	262.16
478.04	262.08
478.41	262.03
478.77	262.08
479.14	262.04
479.50	262.13
479.87	262.22
480.23	262.29
480.60	262.37
480.96	262.45
481.33	262.70
481.69	262.89
482.06	263.12
482.42	263.39
482.79	263.64
483.15	263.98
483.52	264.37
483.88	264.76
484.25	265.15
484.61	265.55
484.98	266.02
485.34	266.62
485.71	267.21
486.07	267.81
486.44	268.39
486.80	269.11
487.17	269.86
487.53	270.65
487.90	271.51
488.26	272.46
488.62	273.46
488.99	274.45
489.35	275.52
489.72	276.68
490.08	277.87
490.44	279.13
490.81	280.48
491.17	281.87
491.54	283.34
491.90	284.93
492.26	286.60
492.63	288.35
492.99	290.09
493.36	291.94
493.72	293.96
494.08	296.05
494.45	298.31
494.81	300.62
495.17	303.07
495.54	305.62
495.90	308.29
496.26	311.12
496.63	314.02
496.99	317.12
497.35	320.31
497.72	323.72
498.08	327.25
498.44	330.91
498.80	334.82
499.17	338.89
499.53	343.02
499.89	347.42
500.26	351.93
500.62	356.63
500.98	361.63
501.34	366.73
501.71	372.07
502.07	377.54
502.43	383.22
502.79	389.12
503.16	395.25
503.52	401.54
503.88	407.94
504.24	414.62
504.60	421.53
504.97	428.72
505.33	436.01
505.69	443.71
506.05	451.51
506.41	459.34
506.78	467.50
507.14	475.94
507.50	484.68
507.86	493.73
508.22	502.89
508.59	512.12
508.95	521.71
509.31	531.54
509.67	541.59
510.03	551.79
510.39	562.30
510.75	573.11
511.12	584.00
511.48	595.29
511.84	606.71
512.20	618.28
512.56	630.12
512.92	642.36
513.28	654.67
513.64	667.09
514.00	679.88
514.37	692.77
514.73	705.87
515.09	718.87
515.45	732.14
515.81	745.76
516.17	759.73
516.53	773.76
516.89	787.87
517.25	802.03
517.61	816.54
517.97	831.05
518.33	845.39
518.69	860.18
519.05	875.11
519.41	890.25
519.77	905.75
520.13	921.20
520.49	936.44
520.85	951.83
521.21	967.57
521.57	983.71
521.93	999.43
522.29	1015.73
522.65	1031.91
523.01	1048.02
523.37	1063.96
523.73	1080.02
524.09	1096.10
524.45	1112.33
524.81	1128.93
525.17	1145.57
525.53	1162.30
525.89	1179.13
526.25	1195.85
526.61	1212.19
526.97	1228.87
527.33	1245.32
527.68	1261.92
528.04	1278.46
528.40	1294.91
528.76	1311.80
529.12	1328.28
529.48	1345.13
529.84	1360.98
530.20	1377.52
530.56	1394.53
530.91	1411.95
531.27	1428.64
531.63	1445.16
531.99	1461.65
532.35	1477.41
532.71	1493.32
533.07	1509.50
533.42	1525.28
533.78	1541.43
534.14	1557.61
534.50	1573.01
534.86	1588.78
535.21	1603.72
535.57	1619.38
535.93	1634.91
536.29	1649.67
536.65	1664.59
537.00	1679.31
537.36	1694.70
537.72	1709.15
538.08	1723.46
538.44	1737.13
538.79	1751.01
539.15	1764.49
539.51	1778.22
539.87	1792.53
540.22	1806.16
540.58	1819.90
540.94	1833.30
541.29	1846.04
541.65	1858.71
542.01	1871.85
542.37	1883.95
542.72	1896.38
543.08	1908.19
543.44	1920.47
543.79	1931.61
544.15	1942.72
544.51	1954.27
544.87	1965.11
545.22	1975.91
545.58	1986.02
545.94	1995.73
546.29	2005.54
546.65	2015.36
547.01	2024.62
547.36	2033.32
547.72	2041.80
548.07	2049.43
548.43	2057.33
548.79	2065.24
549.14	2072.64
549.50	2079.90
549.86	2087.59
550.21	2094.88
550.57	2102.03
550.92	2108.65
551.28	2115.67
551.64	2122.55
551.99	2128.96
552.35	2134.98
552.70	2141.04
553.06	2147.06
553.41	2153.35
553.77	2159.34
554.13	2165.39
554.48	2171.41
554.84	2176.94
555.19	2182.13
555.55	2187.46
555.90	2191.96
556.26	2196.85
556.61	2201.56
556.97	2205.70
557.32	2209.73
557.68	2213.85
558.03	2218.15
558.39	2221.77
558.74	2226.43
559.10	2230.43
559.45	2234.12
559.81	2238.45
560.16	2242.41
560.52	2245.58
560.87	2248.90
561.23	2251.54
561.58	2254.33
561.94	2256.85
562.29	2259.20
562.64	2261.89
563.00	2264.50
563.35	2268.00
563.71	2271.05
564.06	2274.34
564.42	2277.33
564.77	2279.93
565.12	2282.17
565.48	2284.07
565.83	2286.04
566.19	2287.32
566.54	2288.04
566.89	2289.03
567.25	2289.76
567.60	2290.96
567.96	2292.71
568.31	2293.70
568.66	2294.82
569.02	2295.51
569.37	2295.76
569.72	2296.52
570.08	2296.72
570.43	2296.72
570.78	2296.12
571.14	2294.56
571.49	2293.16
571.84	2292.87
572.20	2291.88
572.55	2290.90
572.90	2289.57
573.26	2288.17
573.61	2286.49
573.96	2284.93
574.31	2282.16
574.67	2279.32
575.02	2275.87
575.37	2272.29
575.72	2268.48
576.08	2265.12
576.43	2261.91
576.78	2258.50
577.13	2255.46
577.49	2252.33
577.84	2248.72
578.19	2245.21
578.54	2241.82
578.90	2237.66
579.25	2232.19
579.60	2227.13
579.95	2222.04
580.30	2216.92
580.66	2211.88
581.01	2207.00
581.36	2202.16
581.71	2198.06
582.06	2193.48
582.42	2189.02
582.77	2184.06
583.12	2179.71
583.47	2175.22
583.82	2170.36
584.17	2165.13
584.53	2159.79
584.88	2154.23
585.23	2148.66
585.58	2143.15
585.93	2137.66
586.28	2132.99
586.63	2127.98
586.98	2123.04
587.34	2118.53
587.69	2113.77
588.04	2108.49
588.39	2103.02
588.74	2096.49
589.09	2090.47
589.44	2083.69
589.79	2077.63
590.14	2072.09
590.49	2065.40
590.84	2058.98
591.19	2052.98
591.54	2046.55
591.89	2039.15
592.25	2032.37
592.60	2025.23
592.95	2017.74
593.30	2010.51
593.65	2002.98
594.00	1995.96
594.35	1988.80
594.70	1980.84
595.05	1973.65
595.40	1966.35
595.75	1958.81
596.10	1952.70
596.45	1945.88
596.80	1939.84
597.15	1933.18
597.50	1926.18
597.85	1919.87
598.19	1913.21
598.54	1906.01
598.89	1899.39
599.24	1893.58
599.59	1886.95
599.94	1880.72
600.29	1874.38
600.64	1867.89
600.99	1860.56
601.34	1853.78
601.69	1846.87
602.04	1840.11
602.39	1832.71
602.74	1825.94
603.08	1819.00
603.43	1812.24
603.78	1805.01
604.13	1797.83
604.48	1790.75
604.83	1783.90
605.18	1776.87
605.53	1768.91
605.87	1760.93
606.22	1753.83
606.57	1745.91
606.92	1738.59
607.27	1731.59
607.62	1724.73
607.96	1717.39
608.31	1710.63
608.66	1702.98
609.01	1695.42
609.36	1687.64
609.70	1679.63
610.05	1671.64
610.40	1664.19
610.75	1656.00
611.10	1648.27
611.44	1639.71
611.79	1631.61
612.14	1622.91
612.49	1613.83
612.83	1605.51
613.18	1597.44
613.53	1589.29
613.88	1580.85
614.22	1572.59
614.57	1563.94
614.92	1555.89
615.27	1548.41
615.61	1540.07
615.96	1532.05
616.31	1524.39
616.65	1517.23
617.00	1509.67
617.35	1502.00
617.70	1493.68
618.04	1485.15
618.39	1477.08
618.74	1469.50
619.08	1461.21
619.43	1453.52
619.78	1446.62
620.12	1439.49
620.47	1431.97
620.82	1423.77
621.16	1416.29
621.51	1408.74
621.85	1401.08
622.20	1392.63
622.55	1384.19
622.89	1376.45
623.24	1368.97
623.59	1361.60
623.93	1354.05
624.28	1346.91
624.62	1339.37
624.97	1332.19
625.32	1325.32
625.66	1318.13
626.01	1311.09
626.35	1303.62
626.70	1295.92
627.04	1288.16
627.39	1280.26
627.73	1272.87
628.08	1265.92
628.43	1258.56
628.77	1251.13
629.12	1243.62
629.46	1236.39
629.81	1228.98
630.15	1221.71
630.50	1214.11
630.84	1205.85
631.19	1197.86
631.53	1190.31
631.88	1182.70
632.22	1175.08
632.57	1167.81
632.91	1160.25
633.26	1152.72
633.60	1145.33
633.95	1138.28
634.29	1131.28
634.64	1124.62
634.98	1117.31
635.32	1110.12
635.67	1103.53
636.01	1096.92
636.36	1089.94
636.70	1083.30
637.05	1076.75
637.39	1070.30
637.73	1063.84
638.08	1057.92
638.42	1051.98
638.77	1045.51
639.11	1038.97
639.45	1032.56
639.80	1025.88
640.14	1019.58
640.49	1013.12
640.83	1006.90
641.17	1000.61
641.52	994.10
641.86	987.61
642.20	981.76
642.55	975.49
642.89	969.01
643.23	962.49
643.58	956.82
643.92	950.72
644.26	944.56
644.61	938.51
644.95	932.43
645.29	925.91
645.64	919.17
645.98	912.84
646.32	907.03
646.66	900.90
647.01	895.13
647.35	889.39
647.69	883.52
648.04	877.92
648.38	872.09
648.72	866.24
649.06	860.18
649.41	854.27
649.75	848.37
650.09	842.43
650.43	836.67
650.78	830.49
651.12	824.59
651.46	818.88
651.80	813.10
652.14	807.75
652.49	802.35
652.83	797.23
653.17	791.51
653.51	785.72
653.85	780.39
654.20	774.68
654.54	768.67
654.88	762.89
655.22	757.04
655.56	751.35
655.90	745.84
656.25	740.66
656.59	735.29
656.93	730.11
657.27	724.95
657.61	719.47
657.95	714.41
658.29	709.29
658.64	704.04
658.98	698.78
659.32	693.31
659.66	688.15
660.00	682.80
660.34	677.81
660.68	672.94
661.02	667.88
661.36	663.24
661.70	658.67
662.05	654.37
662.39	650.03
662.73	645.60
663.07	641.23
663.41	636.77
663.75	632.27
664.09	627.72
664.43	623.29
664.77	619.16
665.11	614.93
665.45	610.79
665.79	606.74
666.13	602.56
666.47	598.45
666.81	594.26
667.15	590.06
667.49	586.20
667.83	582.36
668.17	578.42
668.51	574.31
668.85	570.34
669.19	566.52
669.53	562.72
669.87	558.83
670.21	555.10
670.55	551.48
670.89	548.05
671.23	544.62
671.57	541.12
671.91	537.55
672.25	534.06
672.58	530.56
672.92	527.18
673.26	524.01
673.60	520.89
673.94	517.75
674.28	514.89
674.62	511.93
674.96	508.80
675.30	505.97
675.64	503.01
675.97	500.18
676.31	497.26
676.65	494.27
676.99	491.56
677.33	488.72
677.67	485.88
678.01	482.87
678.34	479.90
678.68	477.01
679.02	474.24
679.36	471.42
679.70	468.70
680.04	465.88
680.37	463.00
680.71	460.18
681.05	457.55
681.39	454.80
681.73	452.16
682.06	449.64
682.40	447.09
682.74	444.63
683.08	442.08
683.42	439.46
683.75	436.99
684.09	434.43
684.43	432.00
684.77	429.58
685.10	427.16
685.44	424.87
685.78	422.58
686.12	420.33
686.45	418.04
686.79	415.73
687.13	413.56
687.46	411.42
687.80	409.29
688.14	407.08
688.48	405.05
688.81	402.82
689.15	400.66
689.49	398.51
689.82	396.39
690.16	394.30
690.50	392.40
690.83	390.46
691.17	388.47
691.51	386.57
691.84	384.67
692.18	382.76
692.52	380.73
692.85	378.80
693.19	376.87
693.52	375.03
693.86	373.20
694.20	371.40
694.53	369.62
694.87	367.71
695.21	365.89
695.54	364.03
695.88	362.29
696.21	360.57
696.55	358.85
696.88	357.21
697.22	355.54
697.56	353.89
697.89	352.20
698.23	350.61
698.56	348.92
698.90	347.32
699.23	345.69
699.57	344.21
699.90	342.67
700.24	341.18
700.58	339.68
700.91	338.19
701.25	336.72
701.58	335.35
701.92	334.01
702.25	332.63
702.59	331.25
702.92	329.93
703.26	328.58
703.59	327.27
703.93	326.04
704.26	324.78
704.60	323.45
704.93	322.19
705.26	320.94
705.60	319.78
705.93	318.64
706.27	317.57
706.60	316.46
706.94	315.38
707.27	314.21
707.61	313.06
707.94	312.03
708.27	310.98
708.61	309.89
708.94	308.88
709.28	307.94
709.61	306.95
709.94	305.98
710.28	304.95
710.61	303.95
710.95	302.91
711.28	302.01
711.61	301.09
711.95	300.15
712.28	299.19
712.61	298.20
712.95	297.22
713.28	296.30
713.61	295.41
713.95	294.50
714.28	293.70
714.61	292.89
714.95	292.04
715.28	291.14
715.61	290.25
715.95	289.39
716.28	288.47
716.61	287.65
716.95	286.84
717.28	286.13
717.61	285.40
717.94	284.66
718.28	283.85
718.61	283.14
718.94	282.49
719.27	281.82
719.61	281.19
719.94	280.55
720.27	279.86
720.60	279.21
720.94	278.60
721.27	277.97
721.60	277.37
721.93	276.76
722.27	276.23
722.60	275.64
722.93	275.08
723.26	274.60
723.59	274.08
723.93	273.55
724.26	273.02
724.59	272.46
724.92	271.94
725.25	271.46
725.59	270.90
725.92	270.39
726.25	269.90
726.58	269.43
726.91	268.94
727.24	268.45
727.57	267.98
727.91	267.48
728.24	266.99
728.57	266.53
728.90	266.08
729.23	265.58
729.56	265.19
729.89	264.73
730.22	264.22
730.55	263.76
730.89	263.31
731.22	262.86
731.55	262.43
731.88	262.01
732.21	261.59
732.54	261.21
732.87	260.75
733.20	260.37
733.53	259.97
733.86	259.57
734.19	259.21
734.52	258.83
734.85	258.54
735.18	258.15
735.51	257.79
735.84	257.43
736.17	257.09
736.50	256.69
736.83	256.48
737.16	256.16
737.49	255.81
737.82	255.47
738.15	255.12
738.48	254.79
738.81	254.46
739.14	254.09
739.47	253.75
739.80	253.44
740.13	253.10
740.46	252.79
740.79	252.48
741.12	252.16
741.45	251.86
741.78	251.50
742.11	251.22
742.44	250.87
742.77	250.59
743.10	250.32
743.43	250.06
743.75	249.66
744.08	249.49
744.41	249.19
744.74	248.94
745.07	248.66
745.40	248.40
745.73	248.18
746.06	247.89
746.39	247.69
746.71	247.42
747.04	247.16
747.37	246.90
747.70	246.67
748.03	246.41
748.36	246.19
748.68	245.92
749.01	245.67
749.34	245.44
749.67	245.18
750.00	244.95
750.33	244.76
750.65	244.54
750.98	244.20
751.31	243.95
751.64	243.75
751.97	243.56
752.29	243.34
752.62	243.08
752.95	242.91
753.28	242.62
753.60	242.42
753.93	242.24
754.26	242.01
754.59	241.78
754.91	241.55
755.24	241.29
755.57	241.12
755.90	240.91
756.22	240.71
756.55	240.51
756.88	240.30
757.20	240.08
757.53	239.86
757.86	239.71
758.19	239.58
758.51	239.39
758.84	239.20
759.17	239.01
759.49	238.82
759.82	238.69
760.15	238.58
760.47	238.42
760.80	238.23
761.13	238.10
761.45	237.93
761.78	237.80
762.11	237.65
762.43	237.47
762.76	237.34
763.08	237.21
763.41	237.06
763.74	236.93
764.06	236.77
764.39	236.63
764.71	236.49
765.04	236.33
765.37	236.19
765.69	236.04
766.02	235.94
766.34	235.81
766.67	235.65
767.00	235.51
767.32	235.45
767.65	235.41
767.97	235.30
768.30	235.19
768.62	235.07
768.95	234.93
769.27	234.87
769.60	234.75
769.92	234.66
770.25	234.54
770.57	234.41
770.90	234.31
771.22	234.20
771.55	234.06
771.87	234.01
772.20	233.91
772.52	233.91
772.85	233.94
773.17	233.85
773.50	233.74
773.82	233.68
774.15	233.54
774.47	233.37
774.80	233.29
775.12	233.20
775.45	233.12
775.77	233.06
776.09	232.96
776.42	232.89
776.74	232.83
777.07	232.78
777.39	232.69
777.72	232.60
778.04	232.53
778.36	232.52
778.69	232.43
779.01	232.38
779.33	232.22
779.66	232.03
779.98	231.96
780.31	231.93
780.63	231.89
780.95	231.88
781.28	231.81
781.60	231.75
781.92	231.71
782.25	231.68
782.57	231.65
782.89	231.59
783.22	231.55
783.54	231.48
783.86	231.45
784.19	231.40
784.51	231.40
784.83	231.35
785.16	231.26
785.48	231.21
785.80	231.18
786.12	231.17
786.45	231.13
786.77	231.10
787.09	231.04
787.42	230.94
787.74	230.89
788.06	230.89
788.38	230.85
788.71	230.82
789.03	230.74
789.35	230.76
789.67	230.70
789.99	230.66
790.32	230.60
790.64	230.60
790.96	230.66
791.28	230.60
791.61	230.56
791.93	230.55
792.25	230.49
792.57	230.51
792.89	230.44
793.21	230.41
793.54	230.36
793.86	230.30
794.18	230.24
794.50	230.17
794.82	230.13
795.14	230.08
795.47	230.06
795.79	230.06
796.11	230.01
796.43	229.97
796.75	229.92
797.07	229.90
797.39	229.81
797.71	229.72
798.04	229.66
798.36	229.65
798.68	229.62
799.00	229.59
799.32	229.52
799.64	229.50
799.96	229.47
800.28	229.47
800.60	229.46
800.92	229.45
801.24	229.42
801.56	229.38
801.89	229.36
802.21	229.30
802.53	229.23
802.85	229.15
803.17	229.20
803.49	229.14
803.81	229.07
804.13	229.03
804.45	228.99
804.77	228.94
805.09	228.90
805.41	228.85
805.73	228.82
806.05	228.75
806.37	228.76
806.69	228.70
807.01	228.64
807.33	228.60
807.65	228.53
807.97	228.53
808.28	228.51
808.60	228.50
808.92	228.47
809.24	228.52
809.56	228.47
809.88	228.43
810.20	228.39
810.52	228.41
810.84	228.39
811.16	228.35
811.48	228.34
811.80	228.36
812.12	228.32
812.43	228.30
812.75	228.27
813.07	228.22
813.39	228.20
813.71	228.18
814.03	228.14
814.35	228.13
814.67	228.08
814.98	228.03
815.30	227.97
815.62	227.94
815.94	227.85
816.26	227.91
816.58	227.85
816.89	227.89
817.21	227.83
817.53	227.80
817.85	227.82
818.17	227.79
818.48	227.75
818.80	227.75
819.12	227.73
819.44	227.69
819.76	227.67
820.07	227.65
820.39	227.61
820.71	227.62
821.03	227.62
821.34	227.60
821.66	227.61
821.98	227.62
822.30	227.58
822.61	227.62
822.93	227.54
823.25	227.52
823.57	227.50
823.88	227.51
824.20	227.52
824.52	227.51
824.83	227.49
825.15	227.45
825.47	227.43
825.79	227.44
826.10	227.45
826.42	227.39
826.74	227.43
827.05	227.41
827.37	227.43
827.69	227.40
828.00	227.39
828.32	227.37
828.64	227.35
828.95	227.39
829.27	227.37
829.58	227.37
829.90	227.39
830.22	227.36
830.53	227.34
830.85	227.31
831.17	227.25
831.48	227.26
831.80	227.24
832.11	227.21
832.43	227.21
832.75	227.20
833.06	227.29
833.38	227.23
833.69	227.22
834.01	227.18
834.32	227.18
834.64	227.14
834.96	227.16
835.27	227.16
835.59	227.11
835.90	227.10
836.22	227.10
836.53	227.04
836.85	227.05
837.16	227.15
837.48	227.15
837.79	227.14
838.11	227.12
838.42	227.10
838.74	227.15
839.05	227.08
839.37	227.04
839.68	226.97
840.00	226.97
840.31	226.99
840.63	226.99
840.94	227.00
841.26	227.01
841.57	226.99
841.88	226.95
842.20	226.96
842.51	226.92
842.83	226.89
843.14	227.01
843.46	227.01
843.77	226.93
844.08	226.93
844.40	226.96
844.71	226.99
845.03	226.99
845.34	226.96
845.65	226.98
845.97	227.02
846.28	227.00
846.60	227.00
846.91	226.97
847.22	226.94
847.54	226.97
847.85	226.99
848.16	226.96
848.48	226.99
848.79	227.01
849.10	227.04
849.42	227.04
849.73	226.93
850.04	226.92
850.36	226.89
850.67	226.91
850.98	226.93
851.30	226.92
851.61	226.96
851.92	226.95
852.23	227.00
852.55	227.00
852.86	227.00
853.17	226.99
853.49	227.01
853.80	227.01
854.11	226.98
854.42	226.96
854.74	226.96
855.05	226.91
855.36	226.86
855.67	226.85
855.99	226.85
856.30	226.99
856.61	226.95
856.92	226.94
857.23	226.89
857.55	226.88
857.86	226.86
858.17	226.80
858.48	226.79
858.79	226.76
859.11	226.75
859.42	226.76
859.73	226.75
860.04	226.74
860.35	226.71
860.66	226.71
860.98	226.70
861.29	226.69
861.60	226.71
861.91	226.73
862.22	226.70
862.53	226.68
862.84	226.55
863.16	226.59
863.47	226.57
863.78	226.58
864.09	226.56
864.40	226.55
864.71	226.56
865.02	226.56
865.33	226.53
865.64	226.53
865.95	226.53
866.27	226.62
866.58	226.62
866.89	226.63
867.20	226.59
867.51	226.58
867.82	226.61
868.13	226.63
868.44	226.64
868.75	226.68
869.06	226.66
869.37	226.63
869.68	226.60
869.99	226.61
870.30	226.61
870.61	226.61
870.92	226.61
871.23	226.58
871.54	226.56
871.85	226.57
872.16	226.56
872.47	226.54
872.78	226.45
873.09	226.48
873.40	226.51
873.71	226.52
874.02	226.50
874.33	226.47
874.64	226.45
874.95	226.45
875.26	226.42
875.56	226.49
875.87	226.48
876.18	226.51
876.49	226.60
876.80	226.61
877.11	226.61
877.42	226.62
877.73	226.62
878.04	226.65
878.35	226.63
878.66	226.61
878.96	226.60
879.27	226.61
879.58	226.58
879.89	226.54
880.20	226.57
880.51	226.57
880.82	226.59
881.12	226.58
881.43	226.56
881.74	226.52
882.05	226.50
882.36	226.52
882.67	226.50
882.97	226.41
883.28	226.42
883.59	226.41
883.90	226.42
884.21	226.48
884.51	226.48
884.82	226.47
885.13	226.49
885.44	226.50
885.74	226.49
886.05	226.45
886.36	226.43
886.67	226.40
886.98	226.45
887.28	226.44
887.59	226.42
887.90	226.40
888.20	226.39
888.51	226.39
888.82	226.38
889.13	226.38
889.43	226.45
889.74	226.40
890.05	226.39
890.35	226.36
890.66	226.34
890.97	226.30
891.28	226.29
891.58	226.28
891.89	226.31
892.20	226.31
892.50	226.31
892.81	226.29
893.12	226.29
893.42	226.25
893.73	226.27
894.04	226.28
894.34	226.28
894.65	226.30
894.95	226.27
895.26	226.26
895.57	226.30
895.87	226.24
896.18	226.23
896.48	226.23
896.79	226.22
897.10	226.22
897.40	226.25
897.71	226.28
898.01	226.24
898.32	226.26
898.63	226.26
898.93	226.30
899.24	226.31
899.54	226.31
899.85	226.30
900.15	226.28
900.46	226.23
900.76	226.25
901.07	226.26
901.38	226.27
901.68	226.27
901.99	226.21
902.29	226.18
902.60	226.20
902.90	226.18
903.21	226.19
903.51	226.17
903.82	226.17
904.12	226.17
904.43	226.22
904.73	226.19
905.03	226.18
905.34	226.21
905.64	226.21
905.95	226.18
906.25	226.19
906.56	226.16
906.86	226.18
907.17	226.16
907.47	226.16
907.77	226.15
908.08	226.13
908.38	226.14
908.69	226.13
908.99	226.11
909.30	226.12
909.60	226.11
909.90	226.11
910.21	226.08
910.51	226.04
910.81	226.00
911.12	226.01
911.42	226.01
911.73	225.95
912.03	225.95
912.33	226.00
912.64	225.97
912.94	226.01
913.24	225.98
913.55	225.99
913.85	225.99
914.15	226.00
914.46	226.02
914.76	226.03
915.06	226.02
915.37	226.03
915.67	226.01
915.97	226.02
916.27	225.99
916.58	226.00
916.88	226.00
917.18	226.01
917.49	226.08
917.79	226.04
918.09	226.07
918.39	226.12
918.70	226.10
919.00	226.13
919.30	226.15
919.60	226.16
919.91	226.20
920.21	226.19
920.51	226.18
920.81	226.16
921.12	226.20
921.42	226.21
921.72	226.23
922.02	226.25
922.32	226.29
922.63	226.32
922.93	226.37
923.23	226.37
923.53	226.39
923.83	226.33
924.13	226.38
924.44	226.40
924.74	226.40
925.04	226.44
925.34	226.46
925.64	226.44
925.94	226.44
926.24	226.47
926.55	226.47
926.85	226.53
927.15	226.55
927.45	226.54
927.75	226.55
928.05	226.54
928.35	226.56
928.65	226.56
928.95	226.59
929.26	226.56
929.56	226.60
929.86	226.64
930.16	226.61
930.46	226.60
930.76	226.61
931.06	226.57
931.36	226.54
931.66	226.54
931.96	226.56
932.26	226.58
932.56	226.55
932.86	226.59
933.16	226.53
933.46	226.54
933.76	226.50
934.06	226.54
934.36	226.58
934.66	226.58
934.96	226.58
935.26	226.57
935.56	226.57
935.86	226.55
936.16	226.48
936.46	226.49
936.76	226.48
937.06	226.42
937.36	226.41
937.66	226.40
937.96	226.36
938.26	226.31
938.56	226.30
938.86	226.27
939.16	226.27
939.46	226.24
939.76	226.24
940.06	226.22
940.35	226.18
940.65	226.09
940.95	226.06
941.25	226.03
941.55	225.99
941.85	225.95
942.15	225.96
942.45	225.99
942.75	225.97
943.04	225.94
943.34	225.96
943.64	225.92
943.94	225.90
944.24	225.89
944.54	225.86
944.84	225.79
945.13	225.78
945.43	225.74
945.73	225.75
946.03	225.70
946.33	225.70
946.62	225.70
946.92	225.71
947.22	225.71
947.52	225.71
947.82	225.72
948.11	225.76
948.41	225.71
948.71	225.67
949.01	225.68
949.31	225.67
949.60	225.66
949.90	225.71
950.20	225.70
950.50	225.69
950.79	225.71
951.09	225.76
951.39	225.74
951.69	225.75
951.98	225.77
952.28	225.80
952.58	225.81
952.87	225.78
953.17	225.81
953.47	225.79
953.76	225.79
954.06	225.76
954.36	225.70
954.66	225.75
954.95	225.79
955.25	225.81
955.55	225.80
955.84	225.81
956.14	225.83
956.44	225.85
956.73	225.83
957.03	225.84
957.32	225.85
957.62	225.84
957.92	225.85
958.21	225.85
958.51	225.95
958.81	225.95
959.10	225.97
959.40	225.99
959.69	226.02
959.99	226.06
960.29	226.07
960.58	226.06
960.88	226.06
961.17	226.05
961.47	226.07
961.76	226.10
962.06	226.11
962.36	226.08
962.65	226.06
962.95	226.09
963.24	226.10
963.54	226.11
963.83	226.16
964.13	226.19
964.42	226.16
964.72	226.10
965.01	226.11
965.31	226.10
965.60	226.08
965.90	226.14
966.19	226.11
966.49	226.17
966.78	226.19
967.08	226.19
967.37	226.20
967.67	226.20
967.96	226.22
968.26	226.21
968.55	226.25
968.85	226.31
969.14	226.32
969.43	226.35
969.73	226.34
970.02	226.32
970.32	226.31
970.61	226.31
970.91	226.30
971.20	226.29
971.49	226.31
971.79	226.34
972.08	226.24
972.38	226.24
972.67	226.19
972.96	226.21
973.26	226.18
973.55	226.24
973.85	226.21
974.14	226.20
974.43	226.21
974.73	226.16
975.02	226.13
975.31	226.12
975.61	226.10
975.90	226.09
976.19	226.07
976.49	226.08
976.78	226.06
977.07	226.02
977.37	226.04
977.66	226.03
977.95	226.02
978.24	226.06
978.54	226.08
978.83	226.07
979.12	226.06
979.42	226.05
979.71	226.00
980.00	226.00
980.29	225.98
980.59	225.96
980.88	225.97
981.17	225.95
981.46	225.94
981.76	225.92
982.05	225.93
982.34	225.91
982.63	225.90
982.93	225.93
983.22	225.96
983.51	225.94
983.80	225.97
984.09	225.95
984.39	225.94
984.68	225.90
984.97	225.91
985.26	225.90
985.55	225.93
985.85	225.90
986.14	225.91
986.43	225.92
986.72	225.91
987.01	225.90
987.30	225.91
987.59	225.92
987.89	225.93
988.18	225.92
988.47	225.93
988.76	225.91
989.05	225.89
989.34	225.89
989.63	225.91
989.92	225.88
990.22	225.87
990.51	225.87
990.80	225.87
991.09	225.89
991.38	225.90
991.67	225.89
991.96	225.87
992.25	225.89
992.54	225.88
992.83	225.87
993.12	225.84
993.41	225.87
993.70	225.91
993.99	225.91
994.28	225.94
994.58	225.93
994.87	225.94
995.16	225.91
995.45	225.91
995.74	225.89
996.03	225.89
996.32	225.92
996.61	225.95
996.90	225.94
997.19	225.96
997.48	225.95
997.77	225.95
998.06	225.97
998.34	225.96
998.63	225.97
998.92	225.99
999.21	226.04
999.50	226.05
999.79	226.00
1000.08	226.00
1000.37	226.01
1000.66	226.01
1000.95	226.01
1001.24	226.03
1001.53	226.05
1001.82	226.08
1002.11	226.04
1002.40	226.06
1002.68	226.06
1002.97	226.12
1003.26	226.08
1003.55	226.08
1003.84	226.09
1004.13	226.14
1004.42	226.14
1004.71	226.15
1004.99	226.15
1005.28	226.15
1005.57	226.14
1005.86	226.14
1006.15	226.16
1006.44	226.15
1006.72	226.17
1007.01	226.19
1007.30	226.20
1007.59	226.17
1007.88	226.15
1008.17	226.20
1008.45	226.17
1008.74	226.12
1009.03	226.10
1009.32	226.09
1009.60	226.09
1009.89	226.06
1010.18	225.99
1010.47	225.94
1010.76	225.94
1011.04	225.94
1011.33	225.93
1011.62	225.94
1011.91	225.95
1012.19	225.93
1012.48	225.90
1012.77	225.90
1013.05	225.92
1013.34	225.91
1013.63	225.90
1013.92	225.89
1014.20	225.88
1014.49	225.87
1014.78	225.88
1015.06	225.85
1015.35	225.88
1015.64	225.86
1015.92	225.89
1016.21	225.93
1016.50	225.96
1016.78	225.96
1017.07	225.96
1017.36	225.95
1017.64	225.92
1017.93	225.91
1018.22	225.91
1018.50	225.90
1018.79	225.90
1019.08	225.88
1019.36	225.90
1019.65	225.91
1019.93	225.92
1020.22	225.90
1020.51	225.96
1020.79	225.95
1021.08	225.87
1021.36	225.21
1021.65	226.06
1021.94	226.35
1022.22	226.01
1022.51	225.96
1022.79	225.86
1023.08	226.00
1023.36	227.20
1023.65	225.58
>>>>>End Processed Spectral Data<<<<<
