SpectraSuite Data File
++++++++++++++++++++++++++++++++++++
Date: Fri Feb 01 15:10:47 EST 2013
User: group
Dark Spectrum Present: No
Reference Spectrum Present: No
Number of Sampled Component Spectra: 1
Spectrometers: USB2E7196
Integration Time (usec): 35000 (USB2E7196)
Spectra Averaged: 100 (USB2E7196)
Boxcar Smoothing: 10 (USB2E7196)
Correct for Electrical Dark: No (USB2E7196)
Strobe/Lamp Enabled: No (USB2E7196)
Correct for Detector Non-linearity: No (USB2E7196)
Correct for Stray Light: No (USB2E7196)
Number of Pixels in Processed Spectrum: 2048
>>>>>Begin Processed Spectral Data<<<<<
339.09	0.00
339.48	215.15
339.86	216.60
340.24	218.75
340.63	219.34
341.01	222.38
341.39	221.87
341.78	223.70
342.16	224.43
342.54	225.15
342.93	213.53
343.31	224.31
343.69	224.81
344.07	225.28
344.46	225.68
344.84	226.06
345.22	226.27
345.60	226.52
345.99	226.70
346.37	226.84
346.75	226.93
347.13	226.99
347.52	227.02
347.90	227.09
348.28	227.13
348.66	227.17
349.05	227.14
349.43	227.18
349.81	227.23
350.19	227.29
350.57	227.34
350.96	227.42
351.34	227.51
351.72	227.63
352.10	227.74
352.48	227.78
352.87	227.85
353.25	227.96
353.63	228.03
354.01	228.09
354.39	228.16
354.77	228.23
355.15	228.32
355.54	228.40
355.92	228.44
356.30	228.54
356.68	228.67
357.06	228.74
357.44	228.78
357.82	228.86
358.20	228.91
358.58	228.99
358.97	229.04
359.35	229.12
359.73	229.20
360.11	229.23
360.49	229.29
360.87	229.33
361.25	229.38
361.63	229.47
362.01	229.53
362.39	229.54
362.77	229.58
363.15	229.64
363.53	229.67
363.91	229.70
364.29	229.70
364.67	229.61
365.05	229.63
365.43	229.64
365.81	229.65
366.19	229.69
366.57	229.70
366.95	229.70
367.33	229.66
367.71	229.60
368.09	229.61
368.47	229.59
368.85	229.54
369.23	229.50
369.61	229.42
369.99	229.38
370.37	229.35
370.75	229.35
371.13	229.30
371.51	229.24
371.89	229.17
372.27	229.13
372.65	229.09
373.03	229.05
373.41	229.02
373.78	228.97
374.16	228.86
374.54	228.77
374.92	228.70
375.30	228.62
375.68	228.57
376.06	228.49
376.44	228.41
376.82	228.35
377.19	228.28
377.57	228.20
377.95	228.11
378.33	228.03
378.71	227.90
379.09	227.80
379.47	227.73
379.84	227.65
380.22	227.56
380.60	227.47
380.98	227.36
381.36	227.24
381.73	227.12
382.11	227.06
382.49	227.02
382.87	226.92
383.25	226.87
383.62	226.92
384.00	226.84
384.38	226.78
384.76	226.72
385.13	226.71
385.51	226.67
385.89	226.60
386.27	226.56
386.64	226.54
387.02	226.48
387.40	226.43
387.78	226.41
388.15	226.40
388.53	226.36
388.91	226.32
389.29	226.29
389.66	226.28
390.04	226.27
390.42	226.22
390.79	226.19
391.17	226.18
391.55	226.04
391.92	226.05
392.30	226.07
392.68	226.08
393.05	226.05
393.43	226.02
393.81	226.03
394.18	226.01
394.56	226.01
394.94	226.07
395.31	226.09
395.69	226.14
396.06	226.17
396.44	226.22
396.82	226.26
397.19	226.36
397.57	226.41
397.95	226.46
398.32	226.53
398.70	226.60
399.07	226.66
399.45	226.75
399.82	226.81
400.20	226.89
400.58	226.96
400.95	227.01
401.33	227.14
401.70	227.31
402.08	227.46
402.45	227.57
402.83	227.71
403.20	227.85
403.58	227.96
403.95	228.09
404.33	228.26
404.71	228.42
405.08	228.60
405.46	228.73
405.83	228.88
406.21	229.04
406.58	229.25
406.96	229.43
407.33	229.60
407.70	229.85
408.08	230.12
408.45	230.34
408.83	230.65
409.20	230.88
409.58	231.08
409.95	231.34
410.33	231.63
410.70	231.85
411.08	232.17
411.45	232.50
411.82	232.80
412.20	233.13
412.57	233.53
412.95	233.85
413.32	234.31
413.69	234.76
414.07	235.19
414.44	235.65
414.82	236.13
415.19	236.68
415.56	237.19
415.94	237.74
416.31	238.35
416.68	238.89
417.06	239.57
417.43	240.27
417.81	241.01
418.18	241.76
418.55	242.60
418.93	243.46
419.30	244.33
419.67	245.26
420.04	246.20
420.42	247.22
420.79	248.41
421.16	249.55
421.54	250.70
421.91	251.93
422.28	253.21
422.66	254.56
423.03	255.85
423.40	257.18
423.77	258.60
424.15	260.05
424.52	261.57
424.89	263.21
425.26	264.77
425.64	266.26
426.01	267.87
426.38	269.52
426.75	271.21
427.13	272.95
427.50	274.79
427.87	276.71
428.24	278.52
428.61	280.24
428.99	282.20
429.36	284.32
429.73	286.39
430.10	288.41
430.47	290.47
430.85	292.64
431.22	294.91
431.59	297.32
431.96	299.57
432.33	302.08
432.70	304.44
433.08	307.26
433.45	309.93
433.82	312.51
434.19	315.38
434.56	318.20
434.93	320.85
435.30	323.50
435.68	326.42
436.05	329.29
436.42	332.14
436.79	334.65
437.16	337.39
437.53	340.20
437.90	343.01
438.27	345.80
438.64	348.60
439.01	351.19
439.38	353.40
439.75	355.57
440.13	358.04
440.50	360.37
440.87	362.21
441.24	364.13
441.61	366.38
441.98	367.92
442.35	369.68
442.72	371.52
443.09	373.33
443.46	374.31
443.83	374.88
444.20	375.37
444.57	376.21
444.94	376.49
445.31	376.86
445.68	377.22
446.05	377.26
446.42	376.94
446.79	376.52
447.16	376.08
447.53	375.79
447.90	374.67
448.27	373.55
448.64	371.98
449.01	370.87
449.37	368.86
449.74	366.98
450.11	364.78
450.48	362.30
450.85	359.71
451.22	357.54
451.59	355.54
451.96	353.60
452.33	350.97
452.70	348.60
453.07	345.74
453.43	342.85
453.80	340.08
454.17	337.37
454.54	334.79
454.91	332.08
455.28	329.38
455.65	326.85
456.02	324.39
456.38	322.20
456.75	319.46
457.12	317.21
457.49	314.93
457.86	312.75
458.23	310.92
458.59	308.93
458.96	306.86
459.33	304.96
459.70	303.05
460.07	301.53
460.43	299.76
460.80	298.13
461.17	296.69
461.54	295.19
461.91	293.72
462.27	292.28
462.64	291.01
463.01	289.66
463.38	288.34
463.74	286.95
464.11	285.80
464.48	284.83
464.85	283.70
465.21	282.82
465.58	281.88
465.95	280.76
466.32	279.82
466.68	278.90
467.05	278.02
467.42	277.13
467.78	276.24
468.15	275.37
468.52	274.69
468.88	273.79
469.25	272.98
469.62	272.36
469.98	271.69
470.35	271.05
470.72	270.41
471.08	269.77
471.45	269.23
471.82	268.66
472.18	267.99
472.55	267.54
472.92	267.01
473.28	266.54
473.65	266.10
474.02	265.63
474.38	265.24
474.75	264.88
475.11	264.52
475.48	264.20
475.85	263.95
476.21	263.68
476.58	263.48
476.94	263.35
477.31	263.17
477.67	262.99
478.04	262.86
478.41	262.81
478.77	262.85
479.14	262.73
479.50	262.76
479.87	262.84
480.23	262.90
480.60	262.97
480.96	263.06
481.33	263.24
481.69	263.45
482.06	263.65
482.42	263.88
482.79	264.15
483.15	264.48
483.52	264.87
483.88	265.26
484.25	265.66
484.61	266.09
484.98	266.53
485.34	267.14
485.71	267.71
486.07	268.30
486.44	268.88
486.80	269.62
487.17	270.35
487.53	271.20
487.90	272.08
488.26	273.00
488.62	274.00
488.99	274.98
489.35	275.98
489.72	277.09
490.08	278.30
490.44	279.53
490.81	280.86
491.17	282.18
491.54	283.67
491.90	285.23
492.26	286.86
492.63	288.60
492.99	290.35
493.36	292.26
493.72	294.33
494.08	296.40
494.45	298.68
494.81	301.02
495.17	303.41
495.54	305.96
495.90	308.65
496.26	311.44
496.63	314.43
496.99	317.53
497.35	320.81
497.72	324.23
498.08	327.71
498.44	331.38
498.80	335.34
499.17	339.36
499.53	343.50
499.89	347.85
500.26	352.36
500.62	357.04
500.98	362.02
501.34	367.07
501.71	372.37
502.07	377.75
502.43	383.39
502.79	389.19
503.16	395.25
503.52	401.56
503.88	407.92
504.24	414.52
504.60	421.42
504.97	428.49
505.33	435.75
505.69	443.44
506.05	451.19
506.41	459.04
506.78	467.22
507.14	475.62
507.50	484.31
507.86	493.35
508.22	502.49
508.59	511.68
508.95	521.29
509.31	531.11
509.67	541.24
510.03	551.48
510.39	562.03
510.75	572.83
511.12	583.73
511.48	595.02
511.84	606.45
512.20	617.92
512.56	629.83
512.92	642.03
513.28	654.39
513.64	666.88
514.00	679.62
514.37	692.50
514.73	705.58
515.09	718.69
515.45	731.93
515.81	745.47
516.17	759.43
516.53	773.41
516.89	787.55
517.25	801.79
517.61	816.24
517.97	830.76
518.33	845.20
518.69	860.00
519.05	875.00
519.41	890.24
519.77	905.88
520.13	921.43
520.49	936.81
520.85	952.30
521.21	968.07
521.57	984.27
521.93	1000.21
522.29	1016.61
522.65	1032.86
523.01	1049.18
523.37	1065.40
523.73	1081.67
524.09	1098.00
524.45	1114.40
524.81	1131.10
525.17	1148.01
525.53	1165.00
525.89	1181.95
526.25	1198.88
526.61	1215.41
526.97	1232.19
527.33	1248.64
527.68	1265.38
528.04	1281.95
528.40	1298.65
528.76	1315.71
529.12	1332.49
529.48	1349.36
529.84	1365.57
530.20	1382.24
530.56	1399.41
530.91	1416.82
531.27	1433.61
531.63	1450.14
531.99	1466.76
532.35	1482.72
532.71	1498.62
533.07	1514.93
533.42	1530.81
533.78	1546.81
534.14	1562.99
534.50	1578.45
534.86	1594.58
535.21	1609.64
535.57	1625.71
535.93	1641.18
536.29	1656.08
536.65	1671.26
537.00	1686.15
537.36	1701.44
537.72	1716.09
538.08	1730.49
538.44	1744.47
538.79	1758.45
539.15	1772.28
539.51	1786.14
539.87	1800.63
540.22	1814.48
540.58	1828.37
540.94	1841.96
541.29	1855.07
541.65	1868.06
542.01	1881.39
542.37	1893.71
542.72	1906.41
543.08	1918.24
543.44	1930.84
543.79	1942.15
544.15	1953.00
544.51	1964.57
544.87	1975.64
545.22	1986.55
545.58	1996.93
545.94	2006.61
546.29	2016.63
546.65	2026.48
547.01	2035.81
547.36	2044.62
547.72	2053.10
548.07	2060.95
548.43	2069.09
548.79	2077.16
549.14	2084.60
549.50	2091.83
549.86	2099.56
550.21	2106.76
550.57	2113.91
550.92	2120.45
551.28	2127.59
551.64	2134.87
551.99	2141.42
552.35	2147.56
552.70	2153.59
553.06	2159.49
553.41	2165.81
553.77	2171.76
554.13	2177.69
554.48	2183.70
554.84	2189.00
555.19	2194.37
555.55	2199.46
555.90	2203.90
556.26	2208.65
556.61	2213.42
556.97	2217.69
557.32	2221.75
557.68	2225.84
558.03	2230.03
558.39	2233.78
558.74	2238.36
559.10	2242.02
559.45	2245.52
559.81	2249.84
560.16	2253.76
560.52	2256.96
560.87	2260.48
561.23	2263.02
561.58	2266.13
561.94	2268.73
562.29	2271.22
562.64	2273.84
563.00	2276.42
563.35	2279.91
563.71	2282.96
564.06	2286.06
564.42	2288.95
564.77	2291.43
565.12	2293.57
565.48	2295.37
565.83	2297.05
566.19	2298.20
566.54	2299.16
566.89	2300.27
567.25	2300.75
567.60	2302.08
567.96	2303.64
568.31	2304.33
568.66	2305.44
569.02	2305.72
569.37	2305.88
569.72	2306.44
570.08	2306.41
570.43	2306.37
570.78	2305.61
571.14	2304.05
571.49	2302.60
571.84	2302.18
572.20	2300.84
572.55	2299.86
572.90	2298.36
573.26	2296.74
573.61	2295.00
573.96	2293.18
574.31	2290.23
574.67	2287.04
575.02	2283.30
575.37	2279.81
575.72	2275.87
576.08	2272.51
576.43	2269.19
576.78	2265.41
577.13	2262.22
577.49	2259.04
577.84	2255.49
578.19	2251.70
578.54	2247.78
578.90	2243.47
579.25	2237.74
579.60	2232.58
579.95	2227.50
580.30	2222.31
580.66	2217.12
581.01	2212.15
581.36	2206.92
581.71	2202.54
582.06	2198.00
582.42	2193.28
582.77	2187.94
583.12	2183.20
583.47	2178.33
583.82	2173.22
584.17	2167.93
584.53	2162.24
584.88	2156.60
585.23	2150.68
585.58	2145.02
585.93	2139.73
586.28	2134.90
586.63	2129.66
586.98	2124.64
587.34	2119.80
587.69	2114.84
588.04	2109.53
588.39	2103.70
588.74	2097.21
589.09	2090.94
589.44	2084.16
589.79	2078.00
590.14	2072.26
590.49	2065.63
590.84	2059.16
591.19	2052.94
591.54	2046.44
591.89	2038.91
592.25	2031.86
592.60	2024.54
592.95	2016.82
593.30	2009.35
593.65	2001.74
594.00	1994.75
594.35	1987.40
594.70	1979.33
595.05	1972.04
595.40	1964.79
595.75	1957.16
596.10	1950.82
596.45	1944.01
596.80	1937.72
597.15	1931.05
597.50	1923.78
597.85	1917.39
598.19	1910.66
598.54	1903.66
598.89	1896.92
599.24	1891.13
599.59	1884.42
599.94	1878.23
600.29	1871.88
600.64	1865.17
600.99	1857.60
601.34	1850.57
601.69	1843.64
602.04	1836.61
602.39	1829.13
602.74	1822.18
603.08	1815.59
603.43	1808.90
603.78	1801.69
604.13	1794.43
604.48	1787.04
604.83	1780.32
605.18	1773.30
605.53	1765.13
605.87	1757.05
606.22	1749.84
606.57	1741.89
606.92	1734.60
607.27	1727.36
607.62	1720.57
607.96	1713.22
608.31	1706.43
608.66	1698.78
609.01	1691.15
609.36	1683.62
609.70	1675.69
610.05	1667.63
610.40	1659.79
610.75	1651.51
611.10	1643.80
611.44	1635.40
611.79	1627.51
612.14	1618.80
612.49	1609.68
612.83	1601.39
613.18	1593.19
613.53	1585.02
613.88	1576.49
614.22	1568.17
614.57	1559.60
614.92	1551.44
615.27	1543.86
615.61	1535.70
615.96	1527.86
616.31	1520.28
616.65	1512.87
617.00	1505.31
617.35	1497.64
617.70	1489.27
618.04	1480.66
618.39	1472.36
618.74	1464.80
619.08	1456.43
619.43	1448.77
619.78	1441.72
620.12	1434.50
620.47	1426.99
620.82	1418.88
621.16	1411.54
621.51	1404.03
621.85	1396.37
622.20	1387.89
622.55	1379.64
622.89	1371.73
623.24	1364.12
623.59	1356.72
623.93	1349.22
624.28	1342.02
624.62	1334.46
624.97	1327.34
625.32	1320.68
625.66	1313.64
626.01	1306.44
626.35	1299.00
626.70	1291.42
627.04	1283.77
627.39	1276.05
627.73	1268.63
628.08	1261.72
628.43	1254.27
628.77	1246.82
629.12	1239.29
629.46	1232.05
629.81	1224.73
630.15	1217.57
630.50	1210.09
630.84	1201.95
631.19	1194.07
631.53	1186.58
631.88	1179.07
632.22	1171.50
632.57	1164.23
632.91	1156.80
633.26	1149.45
633.60	1142.27
633.95	1135.13
634.29	1128.08
634.64	1121.43
634.98	1114.11
635.32	1107.05
635.67	1100.63
636.01	1094.06
636.36	1087.28
636.70	1080.83
637.05	1074.27
637.39	1067.83
637.73	1061.47
638.08	1055.62
638.42	1049.70
638.77	1043.22
639.11	1036.63
639.45	1030.27
639.80	1023.63
640.14	1017.16
640.49	1010.61
640.83	1004.26
641.17	998.00
641.52	991.72
641.86	985.39
642.20	979.61
642.55	973.31
642.89	966.70
643.23	960.22
643.58	954.44
643.92	948.27
644.26	942.06
644.61	936.10
644.95	930.01
645.29	923.38
645.64	916.60
645.98	910.31
646.32	904.53
646.66	898.58
647.01	892.77
647.35	887.13
647.69	881.38
648.04	875.89
648.38	870.09
648.72	864.04
649.06	857.88
649.41	851.98
649.75	845.96
650.09	840.04
650.43	834.27
650.78	828.11
651.12	822.24
651.46	816.58
651.80	810.71
652.14	805.31
652.49	799.95
652.83	794.82
653.17	789.12
653.51	783.32
653.85	777.85
654.20	772.24
654.54	766.23
654.88	760.56
655.22	754.67
655.56	749.02
655.90	743.65
656.25	738.42
656.59	733.08
656.93	727.94
657.27	722.80
657.61	717.29
657.95	712.23
658.29	707.08
658.64	701.88
658.98	696.71
659.32	691.24
659.66	686.12
660.00	680.77
660.34	675.86
660.68	671.03
661.02	665.95
661.36	661.15
661.70	656.69
662.05	652.25
662.39	647.91
662.73	643.52
663.07	639.11
663.41	634.66
663.75	630.16
664.09	625.70
664.43	621.38
664.77	617.33
665.11	613.08
665.45	609.02
665.79	604.93
666.13	600.82
666.47	596.78
666.81	592.59
667.15	588.49
667.49	584.57
667.83	580.82
668.17	576.99
668.51	572.96
668.85	568.92
669.19	565.09
669.53	561.20
669.87	557.36
670.21	553.73
670.55	550.14
670.89	546.80
671.23	543.39
671.57	539.87
671.91	536.36
672.25	532.93
672.58	529.36
672.92	526.04
673.26	522.86
673.60	519.76
673.94	516.68
674.28	513.81
674.62	510.91
674.96	507.80
675.30	504.90
675.64	502.02
675.97	499.30
676.31	496.47
676.65	493.61
676.99	490.85
677.33	487.98
677.67	485.21
678.01	482.12
678.34	479.14
678.68	476.31
679.02	473.48
679.36	470.70
679.70	468.05
680.04	465.28
680.37	462.43
680.71	459.63
681.05	456.99
681.39	454.28
681.73	451.66
682.06	449.14
682.40	446.56
682.74	444.06
683.08	441.53
683.42	438.92
683.75	436.43
684.09	433.97
684.43	431.53
684.77	429.06
685.10	426.71
685.44	424.44
685.78	422.11
686.12	419.86
686.45	417.59
686.79	415.32
687.13	413.12
687.46	410.98
687.80	408.85
688.14	406.68
688.48	404.65
688.81	402.37
689.15	400.22
689.49	398.09
689.82	396.07
690.16	393.98
690.50	392.05
690.83	390.12
691.17	388.13
691.51	386.19
691.84	384.32
692.18	382.47
692.52	380.46
692.85	378.59
693.19	376.75
693.52	374.93
693.86	373.14
694.20	371.39
694.53	369.55
694.87	367.75
695.21	365.94
695.54	364.10
695.88	362.42
696.21	360.70
696.55	359.02
696.88	357.35
697.22	355.72
697.56	354.10
697.89	352.42
698.23	350.84
698.56	349.29
698.90	347.68
699.23	346.04
699.57	344.51
699.90	342.96
700.24	341.43
700.58	339.91
700.91	338.42
701.25	336.94
701.58	335.62
701.92	334.25
702.25	332.89
702.59	331.55
702.92	330.24
703.26	329.00
703.59	327.72
703.93	326.52
704.26	325.29
704.60	324.02
704.93	322.78
705.26	321.52
705.60	320.37
705.93	319.25
706.27	318.20
706.60	317.15
706.94	316.08
707.27	314.96
707.61	313.92
707.94	312.92
708.27	311.90
708.61	310.81
708.94	309.78
709.28	308.81
709.61	307.90
709.94	306.97
710.28	305.93
710.61	304.97
710.95	303.91
711.28	303.04
711.61	302.10
711.95	301.15
712.28	300.20
712.61	299.23
712.95	298.28
713.28	297.45
713.61	296.55
713.95	295.69
714.28	294.85
714.61	294.01
714.95	293.18
715.28	292.32
715.61	291.50
715.95	290.66
716.28	289.81
716.61	288.94
716.95	288.14
717.28	287.40
717.61	286.63
717.94	285.94
718.28	285.10
718.61	284.35
718.94	283.69
719.27	283.07
719.61	282.40
719.94	281.77
720.27	281.01
720.60	280.39
720.94	279.74
721.27	279.18
721.60	278.59
721.93	277.96
722.27	277.39
722.60	276.82
722.93	276.27
723.26	275.75
723.59	275.20
723.93	274.64
724.26	274.10
724.59	273.53
724.92	272.95
725.25	272.48
725.59	271.98
725.92	271.48
726.25	270.94
726.58	270.48
726.91	269.99
727.24	269.55
727.57	269.09
727.91	268.58
728.24	268.10
728.57	267.62
728.90	267.18
729.23	266.73
729.56	266.29
729.89	265.83
730.22	265.36
730.55	264.86
730.89	264.40
731.22	263.93
731.55	263.49
731.88	263.06
732.21	262.61
732.54	262.17
732.87	261.71
733.20	261.30
733.53	260.89
733.86	260.48
734.19	260.07
734.52	259.67
734.85	259.39
735.18	258.92
735.51	258.54
735.84	258.17
736.17	257.75
736.50	257.36
736.83	257.09
737.16	256.74
737.49	256.44
737.82	256.09
738.15	255.77
738.48	255.47
738.81	255.13
739.14	254.82
739.47	254.50
739.80	254.23
740.13	253.94
740.46	253.60
740.79	253.31
741.12	252.99
741.45	252.67
741.78	252.30
742.11	252.03
742.44	251.70
742.77	251.41
743.10	251.12
743.43	250.82
743.75	250.45
744.08	250.29
744.41	250.00
744.74	249.74
745.07	249.45
745.40	249.16
745.73	248.97
746.06	248.66
746.39	248.40
746.71	248.11
747.04	247.81
747.37	247.58
747.70	247.30
748.03	247.07
748.36	246.84
748.68	246.62
749.01	246.40
749.34	246.17
749.67	245.93
750.00	245.73
750.33	245.58
750.65	245.39
750.98	245.06
751.31	244.87
751.64	244.66
751.97	244.54
752.29	244.36
752.62	244.11
752.95	243.93
753.28	243.73
753.60	243.53
753.93	243.40
754.26	243.21
754.59	243.02
754.91	242.84
755.24	242.67
755.57	242.48
755.90	242.32
756.22	242.15
756.55	241.96
756.88	241.77
757.20	241.55
757.53	241.34
757.86	241.17
758.19	241.02
758.51	240.88
758.84	240.66
759.17	240.47
759.49	240.31
759.82	240.24
760.15	240.12
760.47	240.00
760.80	239.81
761.13	239.68
761.45	239.55
761.78	239.39
762.11	239.24
762.43	239.10
762.76	238.96
763.08	238.84
763.41	238.69
763.74	238.53
764.06	238.41
764.39	238.28
764.71	238.17
765.04	238.00
765.37	237.85
765.69	237.70
766.02	237.61
766.34	237.44
766.67	237.27
767.00	237.16
767.32	237.10
767.65	237.02
767.97	236.92
768.30	236.78
768.62	236.67
768.95	236.53
769.27	236.40
769.60	236.31
769.92	236.19
770.25	236.10
770.57	236.00
770.90	235.87
771.22	235.76
771.55	235.62
771.87	235.52
772.20	235.41
772.52	235.40
772.85	235.40
773.17	235.33
773.50	235.20
773.82	235.09
774.15	234.93
774.47	234.80
774.80	234.68
775.12	234.58
775.45	234.49
775.77	234.44
776.09	234.35
776.42	234.24
776.74	234.16
777.07	234.07
777.39	234.02
777.72	233.95
778.04	233.88
778.36	233.83
778.69	233.78
779.01	233.72
779.33	233.57
779.66	233.40
779.98	233.34
780.31	233.25
780.63	233.21
780.95	233.17
781.28	233.07
781.60	232.98
781.92	232.94
782.25	232.84
782.57	232.74
782.89	232.71
783.22	232.63
783.54	232.54
783.86	232.49
784.19	232.42
784.51	232.39
784.83	232.29
785.16	232.22
785.48	232.17
785.80	232.06
786.12	232.00
786.45	231.92
786.77	231.87
787.09	231.86
787.42	231.75
787.74	231.70
788.06	231.69
788.38	231.62
788.71	231.55
789.03	231.55
789.35	231.51
789.67	231.46
789.99	231.44
790.32	231.42
790.64	231.36
790.96	231.39
791.28	231.34
791.61	231.30
791.93	231.27
792.25	231.22
792.57	231.30
792.89	231.24
793.21	231.24
793.54	231.20
793.86	231.13
794.18	231.12
794.50	231.03
794.82	230.96
795.14	230.99
795.47	230.96
795.79	230.91
796.11	230.88
796.43	230.81
796.75	230.75
797.07	230.70
797.39	230.66
797.71	230.55
798.04	230.49
798.36	230.48
798.68	230.47
799.00	230.47
799.32	230.36
799.64	230.37
799.96	230.31
800.28	230.34
800.60	230.34
800.92	230.33
801.24	230.35
801.56	230.37
801.89	230.34
802.21	230.33
802.53	230.31
802.85	230.30
803.17	230.31
803.49	230.32
803.81	230.31
804.13	230.29
804.45	230.26
804.77	230.23
805.09	230.21
805.41	230.14
805.73	230.05
806.05	230.04
806.37	230.01
806.69	229.98
807.01	229.87
807.33	229.81
807.65	229.76
807.97	229.74
808.28	229.69
808.60	229.64
808.92	229.62
809.24	229.67
809.56	229.64
809.88	229.59
810.20	229.54
810.52	229.53
810.84	229.50
811.16	229.49
811.48	229.44
811.80	229.46
812.12	229.44
812.43	229.46
812.75	229.41
813.07	229.35
813.39	229.34
813.71	229.34
814.03	229.32
814.35	229.27
814.67	229.19
814.98	229.15
815.30	229.13
815.62	229.06
815.94	228.94
816.26	228.95
816.58	228.92
816.89	228.91
817.21	228.85
817.53	228.84
817.85	228.82
818.17	228.82
818.48	228.74
818.80	228.70
819.12	228.68
819.44	228.64
819.76	228.59
820.07	228.57
820.39	228.56
820.71	228.53
821.03	228.52
821.34	228.50
821.66	228.51
821.98	228.48
822.30	228.45
822.61	228.46
822.93	228.41
823.25	228.40
823.57	228.37
823.88	228.38
824.20	228.34
824.52	228.35
824.83	228.33
825.15	228.31
825.47	228.33
825.79	228.34
826.10	228.35
826.42	228.40
826.74	228.35
827.05	228.29
827.37	228.31
827.69	228.30
828.00	228.30
828.32	228.28
828.64	228.25
828.95	228.31
829.27	228.27
829.58	228.27
829.90	228.25
830.22	228.22
830.53	228.20
830.85	228.23
831.17	228.18
831.48	228.19
831.80	228.22
832.11	228.20
832.43	228.16
832.75	228.13
833.06	228.15
833.38	228.14
833.69	228.17
834.01	228.16
834.32	228.16
834.64	228.15
834.96	228.14
835.27	228.14
835.59	228.12
835.90	228.11
836.22	228.08
836.53	228.09
836.85	228.12
837.16	228.21
837.48	228.19
837.79	228.22
838.11	228.21
838.42	228.21
838.74	228.20
839.05	228.19
839.37	228.23
839.68	228.18
840.00	228.20
840.31	228.23
840.63	228.25
840.94	228.25
841.26	228.24
841.57	228.22
841.88	228.26
842.20	228.24
842.51	228.25
842.83	228.26
843.14	228.33
843.46	228.30
843.77	228.23
844.08	228.19
844.40	228.15
844.71	228.13
845.03	228.09
845.34	228.08
845.65	228.11
845.97	228.06
846.28	228.04
846.60	228.03
846.91	228.00
847.22	228.00
847.54	227.99
847.85	228.01
848.16	228.01
848.48	227.99
848.79	228.00
849.10	227.98
849.42	227.96
849.73	227.86
850.04	227.85
850.36	227.82
850.67	227.84
850.98	227.83
851.30	227.82
851.61	227.82
851.92	227.81
852.23	227.82
852.55	227.83
852.86	227.85
853.17	227.85
853.49	227.83
853.80	227.80
854.11	227.80
854.42	227.77
854.74	227.73
855.05	227.71
855.36	227.64
855.67	227.66
855.99	227.62
856.30	227.71
856.61	227.69
856.92	227.68
857.23	227.66
857.55	227.62
857.86	227.62
858.17	227.65
858.48	227.64
858.79	227.59
859.11	227.61
859.42	227.55
859.73	227.53
860.04	227.54
860.35	227.53
860.66	227.48
860.98	227.50
861.29	227.54
861.60	227.53
861.91	227.56
862.22	227.54
862.53	227.56
862.84	227.44
863.16	227.48
863.47	227.45
863.78	227.45
864.09	227.48
864.40	227.47
864.71	227.48
865.02	227.46
865.33	227.47
865.64	227.43
865.95	227.47
866.27	227.56
866.58	227.57
866.89	227.58
867.20	227.58
867.51	227.56
867.82	227.52
868.13	227.54
868.44	227.49
868.75	227.49
869.06	227.52
869.37	227.56
869.68	227.52
869.99	227.56
870.30	227.58
870.61	227.60
870.92	227.57
871.23	227.55
871.54	227.60
871.85	227.62
872.16	227.63
872.47	227.61
872.78	227.54
873.09	227.51
873.40	227.51
873.71	227.52
874.02	227.52
874.33	227.54
874.64	227.54
874.95	227.59
875.26	227.63
875.56	227.62
875.87	227.60
876.18	227.61
876.49	227.71
876.80	227.71
877.11	227.70
877.42	227.73
877.73	227.73
878.04	227.71
878.35	227.69
878.66	227.70
878.96	227.73
879.27	227.71
879.58	227.70
879.89	227.69
880.20	227.75
880.51	227.74
880.82	227.76
881.12	227.80
881.43	227.78
881.74	227.76
882.05	227.74
882.36	227.75
882.67	227.77
882.97	227.67
883.28	227.65
883.59	227.63
883.90	227.59
884.21	227.60
884.51	227.60
884.82	227.61
885.13	227.60
885.44	227.58
885.74	227.60
886.05	227.59
886.36	227.57
886.67	227.53
886.98	227.56
887.28	227.55
887.59	227.50
887.90	227.50
888.20	227.45
888.51	227.48
888.82	227.45
889.13	227.41
889.43	227.46
889.74	227.42
890.05	227.42
890.35	227.42
890.66	227.39
890.97	227.34
891.28	227.32
891.58	227.30
891.89	227.27
892.20	227.23
892.50	227.22
892.81	227.22
893.12	227.18
893.42	227.12
893.73	227.08
894.04	227.09
894.34	227.07
894.65	227.13
894.95	227.10
895.26	227.11
895.57	227.16
895.87	227.06
896.18	227.08
896.48	227.07
896.79	227.07
897.10	227.07
897.40	227.07
897.71	227.05
898.01	227.05
898.32	227.06
898.63	227.06
898.93	227.08
899.24	227.06
899.54	227.05
899.85	227.05
900.15	227.07
900.46	227.05
900.76	227.07
901.07	227.04
901.38	227.03
901.68	227.04
901.99	227.01
902.29	227.04
902.60	227.03
902.90	227.04
903.21	227.05
903.51	227.03
903.82	227.06
904.12	227.09
904.43	227.10
904.73	227.10
905.03	227.11
905.34	227.18
905.64	227.22
905.95	227.25
906.25	227.31
906.56	227.30
906.86	227.29
907.17	227.28
907.47	227.27
907.77	227.26
908.08	227.25
908.38	227.28
908.69	227.28
908.99	227.30
909.30	227.29
909.60	227.31
909.90	227.36
910.21	227.34
910.51	227.30
910.81	227.30
911.12	227.31
911.42	227.31
911.73	227.23
912.03	227.23
912.33	227.23
912.64	227.19
912.94	227.21
913.24	227.25
913.55	227.25
913.85	227.26
914.15	227.30
914.46	227.34
914.76	227.30
915.06	227.30
915.37	227.29
915.67	227.31
915.97	227.31
916.27	227.30
916.58	227.34
916.88	227.36
917.18	227.38
917.49	227.45
917.79	227.45
918.09	227.49
918.39	227.52
918.70	227.52
919.00	227.53
919.30	227.60
919.60	227.55
919.91	227.53
920.21	227.56
920.51	227.56
920.81	227.51
921.12	227.53
921.42	227.53
921.72	227.55
922.02	227.57
922.32	227.59
922.63	227.60
922.93	227.62
923.23	227.65
923.53	227.64
923.83	227.61
924.13	227.63
924.44	227.57
924.74	227.57
925.04	227.59
925.34	227.59
925.64	227.54
925.94	227.54
926.24	227.58
926.55	227.56
926.85	227.55
927.15	227.56
927.45	227.55
927.75	227.55
928.05	227.50
928.35	227.48
928.65	227.45
928.95	227.46
929.26	227.40
929.56	227.37
929.86	227.38
930.16	227.31
930.46	227.31
930.76	227.34
931.06	227.30
931.36	227.27
931.66	227.28
931.96	227.27
932.26	227.27
932.56	227.20
932.86	227.19
933.16	227.15
933.46	227.13
933.76	227.12
934.06	227.13
934.36	227.17
934.66	227.15
934.96	227.14
935.26	227.12
935.56	227.14
935.86	227.12
936.16	227.09
936.46	227.09
936.76	227.07
937.06	227.05
937.36	227.05
937.66	227.07
937.96	227.03
938.26	227.02
938.56	227.01
938.86	227.06
939.16	227.08
939.46	227.09
939.76	227.12
940.06	227.09
940.35	227.09
940.65	227.03
940.95	227.05
941.25	227.02
941.55	226.99
941.85	226.96
942.15	226.97
942.45	226.98
942.75	226.99
943.04	226.99
943.34	227.02
943.64	227.03
943.94	226.99
944.24	227.00
944.54	227.00
944.84	227.02
945.13	227.00
945.43	226.98
945.73	226.96
946.03	226.95
946.33	226.95
946.62	226.93
946.92	226.95
947.22	226.97
947.52	227.00
947.82	227.05
948.11	227.05
948.41	227.04
948.71	227.02
949.01	227.03
949.31	227.03
949.60	227.02
949.90	227.02
950.20	227.02
950.50	227.06
950.79	227.07
951.09	227.07
951.39	227.10
951.69	227.09
951.98	227.14
952.28	227.17
952.58	227.19
952.87	227.18
953.17	227.21
953.47	227.20
953.76	227.19
954.06	227.20
954.36	227.19
954.66	227.22
954.95	227.27
955.25	227.29
955.55	227.32
955.84	227.34
956.14	227.38
956.44	227.38
956.73	227.37
957.03	227.37
957.32	227.38
957.62	227.37
957.92	227.45
958.21	227.45
958.51	227.54
958.81	227.57
959.10	227.59
959.40	227.61
959.69	227.60
959.99	227.61
960.29	227.56
960.58	227.54
960.88	227.59
961.17	227.58
961.47	227.57
961.76	227.56
962.06	227.56
962.36	227.53
962.65	227.53
962.95	227.54
963.24	227.55
963.54	227.55
963.83	227.52
964.13	227.48
964.42	227.43
964.72	227.34
965.01	227.30
965.31	227.29
965.60	227.24
965.90	227.31
966.19	227.30
966.49	227.32
966.78	227.33
967.08	227.30
967.37	227.28
967.67	227.27
967.96	227.24
968.26	227.23
968.55	227.26
968.85	227.24
969.14	227.19
969.43	227.16
969.73	227.14
970.02	227.14
970.32	227.11
970.61	227.12
970.91	227.12
971.20	227.11
971.49	227.09
971.79	227.11
972.08	227.01
972.38	227.03
972.67	227.02
972.96	227.03
973.26	227.01
973.55	226.98
973.85	226.95
974.14	226.96
974.43	226.93
974.73	226.89
975.02	226.87
975.31	226.88
975.61	226.88
975.90	226.85
976.19	226.82
976.49	226.83
976.78	226.82
977.07	226.79
977.37	226.79
977.66	226.80
977.95	226.78
978.24	226.78
978.54	226.80
978.83	226.80
979.12	226.76
979.42	226.77
979.71	226.77
980.00	226.80
980.29	226.77
980.59	226.77
980.88	226.79
981.17	226.77
981.46	226.79
981.76	226.80
982.05	226.82
982.34	226.83
982.63	226.80
982.93	226.83
983.22	226.86
983.51	226.87
983.80	226.88
984.09	226.88
984.39	226.85
984.68	226.82
984.97	226.82
985.26	226.85
985.55	226.87
985.85	226.85
986.14	226.85
986.43	226.88
986.72	226.88
987.01	226.86
987.30	226.88
987.59	226.86
987.89	226.89
988.18	226.90
988.47	226.92
988.76	226.95
989.05	226.93
989.34	226.93
989.63	226.97
989.92	227.00
990.22	226.99
990.51	227.07
990.80	227.06
991.09	227.08
991.38	227.09
991.67	227.05
991.96	227.05
992.25	227.08
992.54	227.06
992.83	227.10
993.12	227.10
993.41	227.12
993.70	227.18
993.99	227.19
994.28	227.23
994.58	227.26
994.87	227.26
995.16	227.27
995.45	227.28
995.74	227.26
996.03	227.26
996.32	227.31
996.61	227.33
996.90	227.35
997.19	227.32
997.48	227.34
997.77	227.38
998.06	227.41
998.34	227.40
998.63	227.44
998.92	227.41
999.21	227.45
999.50	227.47
999.79	227.43
1000.08	227.42
1000.37	227.38
1000.66	227.37
1000.95	227.37
1001.24	227.36
1001.53	227.38
1001.82	227.37
1002.11	227.33
1002.40	227.34
1002.68	227.33
1002.97	227.39
1003.26	227.40
1003.55	227.35
1003.84	227.34
1004.13	227.34
1004.42	227.31
1004.71	227.29
1004.99	227.27
1005.28	227.29
1005.57	227.23
1005.86	227.20
1006.15	227.17
1006.44	227.15
1006.72	227.16
1007.01	227.14
1007.30	227.14
1007.59	227.10
1007.88	227.09
1008.17	227.13
1008.45	227.07
1008.74	227.00
1009.03	226.97
1009.32	226.95
1009.60	226.95
1009.89	226.93
1010.18	226.89
1010.47	226.87
1010.76	226.86
1011.04	226.86
1011.33	226.83
1011.62	226.85
1011.91	226.86
1012.19	226.87
1012.48	226.83
1012.77	226.80
1013.05	226.83
1013.34	226.82
1013.63	226.82
1013.92	226.81
1014.20	226.76
1014.49	226.75
1014.78	226.74
1015.06	226.71
1015.35	226.73
1015.64	226.74
1015.92	226.81
1016.21	226.80
1016.50	226.81
1016.78	226.83
1017.07	226.84
1017.36	226.85
1017.64	226.84
1017.93	226.87
1018.22	226.87
1018.50	226.92
1018.79	226.94
1019.08	226.89
1019.36	226.88
1019.65	226.86
1019.93	226.90
1020.22	226.90
1020.51	226.96
1020.79	226.99
1021.08	226.81
1021.36	227.34
1021.65	226.93
1021.94	226.49
1022.22	226.51
1022.51	226.80
1022.79	227.37
1023.08	226.67
1023.36	227.66
1023.65	226.90
>>>>>End Processed Spectral Data<<<<<
