SpectraSuite Data File
++++++++++++++++++++++++++++++++++++
Date: Fri Feb 01 15:43:19 EST 2013
User: group
Dark Spectrum Present: No
Reference Spectrum Present: No
Number of Sampled Component Spectra: 1
Spectrometers: USB2E7196
Integration Time (usec): 35000 (USB2E7196)
Spectra Averaged: 100 (USB2E7196)
Boxcar Smoothing: 10 (USB2E7196)
Correct for Electrical Dark: No (USB2E7196)
Strobe/Lamp Enabled: No (USB2E7196)
Correct for Detector Non-linearity: No (USB2E7196)
Correct for Stray Light: No (USB2E7196)
Number of Pixels in Processed Spectrum: 2048
>>>>>Begin Processed Spectral Data<<<<<
339.09	0.00
339.48	214.55
339.86	216.26
340.24	217.93
340.63	219.11
341.01	221.90
341.39	221.83
341.78	222.83
342.16	224.65
342.54	224.34
342.93	213.25
343.31	224.02
343.69	224.58
344.07	225.02
344.46	225.42
344.84	225.81
345.22	226.03
345.60	226.27
345.99	226.45
346.37	226.55
346.75	226.66
347.13	226.71
347.52	226.78
347.90	226.87
348.28	226.89
348.66	226.92
349.05	226.90
349.43	226.93
349.81	226.93
350.19	226.97
350.57	226.98
350.96	227.05
351.34	227.13
351.72	227.20
352.10	227.31
352.48	227.37
352.87	227.41
353.25	227.46
353.63	227.50
354.01	227.57
354.39	227.66
354.77	227.74
355.15	227.84
355.54	227.86
355.92	227.88
356.30	227.94
356.68	228.08
357.06	228.17
357.44	228.22
357.82	228.30
358.20	228.39
358.58	228.49
358.97	228.55
359.35	228.63
359.73	228.72
360.11	228.77
360.49	228.85
360.87	228.88
361.25	228.99
361.63	229.06
362.01	229.15
362.39	229.18
362.77	229.24
363.15	229.28
363.53	229.31
363.91	229.39
364.29	229.41
364.67	229.36
365.05	229.36
365.43	229.39
365.81	229.40
366.19	229.42
366.57	229.43
366.95	229.45
367.33	229.42
367.71	229.40
368.09	229.39
368.47	229.39
368.85	229.41
369.23	229.37
369.61	229.35
369.99	229.34
370.37	229.30
370.75	229.33
371.13	229.25
371.51	229.23
371.89	229.15
372.27	229.12
372.65	229.05
373.03	229.03
373.41	228.94
373.78	228.89
374.16	228.77
374.54	228.71
374.92	228.61
375.30	228.55
375.68	228.48
376.06	228.43
376.44	228.35
376.82	228.28
377.19	228.20
377.57	228.10
377.95	227.98
378.33	227.92
378.71	227.79
379.09	227.74
379.47	227.69
379.84	227.60
380.22	227.53
380.60	227.47
380.98	227.38
381.36	227.33
381.73	227.25
382.11	227.20
382.49	227.15
382.87	227.08
383.25	227.01
383.62	227.04
384.00	226.95
384.38	226.86
384.76	226.81
385.13	226.79
385.51	226.74
385.89	226.67
386.27	226.63
386.64	226.56
387.02	226.47
387.40	226.39
387.78	226.36
388.15	226.33
388.53	226.29
388.91	226.26
389.29	226.20
389.66	226.16
390.04	226.14
390.42	226.11
390.79	226.11
391.17	226.10
391.55	225.97
391.92	225.97
392.30	226.03
392.68	226.02
393.05	226.01
393.43	226.01
393.81	226.06
394.18	226.07
394.56	226.07
394.94	226.13
395.31	226.16
395.69	226.22
396.06	226.24
396.44	226.28
396.82	226.32
397.19	226.38
397.57	226.45
397.95	226.51
398.32	226.53
398.70	226.60
399.07	226.69
399.45	226.77
399.82	226.88
400.20	226.90
400.58	226.97
400.95	227.04
401.33	227.18
401.70	227.34
402.08	227.43
402.45	227.54
402.83	227.64
403.20	227.78
403.58	227.89
403.95	228.04
404.33	228.19
404.71	228.34
405.08	228.56
405.46	228.72
405.83	228.89
406.21	229.07
406.58	229.24
406.96	229.39
407.33	229.59
407.70	229.77
408.08	230.08
408.45	230.33
408.83	230.55
409.20	230.75
409.58	230.93
409.95	231.18
410.33	231.47
410.70	231.71
411.08	232.01
411.45	232.31
411.82	232.62
412.20	232.97
412.57	233.36
412.95	233.67
413.32	234.06
413.69	234.48
414.07	234.91
414.44	235.39
414.82	235.87
415.19	236.39
415.56	236.92
415.94	237.41
416.31	238.05
416.68	238.69
417.06	239.40
417.43	240.06
417.81	240.86
418.18	241.64
418.55	242.53
418.93	243.40
419.30	244.31
419.67	245.25
420.04	246.19
420.42	247.23
420.79	248.43
421.16	249.60
421.54	250.78
421.91	251.98
422.28	253.22
422.66	254.58
423.03	255.92
423.40	257.27
423.77	258.72
424.15	260.13
424.52	261.62
424.89	263.25
425.26	264.83
425.64	266.23
426.01	267.85
426.38	269.46
426.75	271.12
427.13	272.80
427.50	274.58
427.87	276.44
428.24	278.25
428.61	279.93
428.99	281.85
429.36	283.93
429.73	286.01
430.10	288.01
430.47	290.05
430.85	292.14
431.22	294.40
431.59	296.74
431.96	299.00
432.33	301.47
432.70	303.83
433.08	306.62
433.45	309.23
433.82	311.80
434.19	314.70
434.56	317.53
434.93	320.20
435.30	322.85
435.68	325.72
436.05	328.56
436.42	331.36
436.79	333.88
437.16	336.57
437.53	339.40
437.90	342.19
438.27	344.97
438.64	347.81
439.01	350.39
439.38	352.63
439.75	354.74
440.13	357.21
440.50	359.52
440.87	361.37
441.24	363.36
441.61	365.53
441.98	367.02
442.35	368.77
442.72	370.63
443.09	372.44
443.46	373.41
443.83	373.97
444.20	374.49
444.57	375.29
444.94	375.59
445.31	375.90
445.68	376.26
446.05	376.27
446.42	375.86
446.79	375.41
447.16	374.96
447.53	374.66
447.90	373.49
448.27	372.35
448.64	370.76
449.01	369.63
449.37	367.63
449.74	365.73
450.11	363.47
450.48	361.00
450.85	358.45
451.22	356.33
451.59	354.35
451.96	352.39
452.33	349.81
452.70	347.45
453.07	344.68
453.43	341.79
453.80	339.05
454.17	336.38
454.54	333.79
454.91	331.07
455.28	328.40
455.65	325.92
456.02	323.48
456.38	321.34
456.75	318.68
457.12	316.44
457.49	314.22
457.86	312.08
458.23	310.22
458.59	308.20
458.96	306.09
459.33	304.24
459.70	302.43
460.07	300.92
460.43	299.20
460.80	297.56
461.17	296.12
461.54	294.62
461.91	293.21
462.27	291.83
462.64	290.61
463.01	289.27
463.38	287.98
463.74	286.62
464.11	285.42
464.48	284.38
464.85	283.26
465.21	282.39
465.58	281.49
465.95	280.37
466.32	279.45
466.68	278.59
467.05	277.72
467.42	276.78
467.78	275.87
468.15	275.01
468.52	274.31
468.88	273.49
469.25	272.73
469.62	272.11
469.98	271.45
470.35	270.76
470.72	270.16
471.08	269.46
471.45	268.91
471.82	268.43
472.18	267.81
472.55	267.40
472.92	266.89
473.28	266.39
473.65	265.97
474.02	265.53
474.38	265.16
474.75	264.83
475.11	264.46
475.48	264.19
475.85	263.96
476.21	263.75
476.58	263.56
476.94	263.40
477.31	263.19
477.67	263.00
478.04	262.92
478.41	262.88
478.77	262.93
479.14	262.87
479.50	262.86
479.87	262.93
480.23	262.97
480.60	263.04
480.96	263.17
481.33	263.36
481.69	263.53
482.06	263.70
482.42	263.86
482.79	264.17
483.15	264.48
483.52	264.83
483.88	265.20
484.25	265.56
484.61	266.01
484.98	266.47
485.34	267.02
485.71	267.61
486.07	268.16
486.44	268.76
486.80	269.44
487.17	270.15
487.53	270.95
487.90	271.82
488.26	272.74
488.62	273.75
488.99	274.73
489.35	275.75
489.72	276.92
490.08	278.14
490.44	279.38
490.81	280.70
491.17	282.05
491.54	283.54
491.90	285.07
492.26	286.71
492.63	288.46
492.99	290.28
493.36	292.15
493.72	294.24
494.08	296.33
494.45	298.64
494.81	301.00
495.17	303.42
495.54	306.00
495.90	308.69
496.26	311.42
496.63	314.37
496.99	317.52
497.35	320.73
497.72	324.12
498.08	327.63
498.44	331.31
498.80	335.24
499.17	339.29
499.53	343.52
499.89	347.86
500.26	352.38
500.62	357.08
500.98	362.05
501.34	367.13
501.71	372.48
502.07	377.89
502.43	383.51
502.79	389.35
503.16	395.43
503.52	401.71
503.88	408.18
504.24	414.85
504.60	421.76
504.97	428.89
505.33	436.20
505.69	443.89
506.05	451.72
506.41	459.59
506.78	467.65
507.14	476.05
507.50	484.88
507.86	493.89
508.22	503.00
508.59	512.22
508.95	521.84
509.31	531.64
509.67	541.77
510.03	552.11
510.39	562.69
510.75	573.51
511.12	584.51
511.48	595.78
511.84	607.17
512.20	618.66
512.56	630.63
512.92	642.81
513.28	655.17
513.64	667.61
514.00	680.29
514.37	693.30
514.73	706.38
515.09	719.42
515.45	732.75
515.81	746.35
516.17	760.38
516.53	774.41
516.89	788.61
517.25	802.82
517.61	817.13
517.97	831.53
518.33	846.00
518.69	860.67
519.05	875.63
519.41	890.96
519.77	906.45
520.13	921.93
520.49	937.35
520.85	952.83
521.21	968.57
521.57	984.97
521.93	1000.77
522.29	1017.24
522.65	1033.47
523.01	1049.67
523.37	1065.78
523.73	1081.95
524.09	1098.07
524.45	1114.45
524.81	1131.05
525.17	1148.05
525.53	1165.06
525.89	1181.96
526.25	1198.81
526.61	1215.18
526.97	1231.92
527.33	1248.49
527.68	1265.15
528.04	1281.69
528.40	1298.25
528.76	1315.35
529.12	1331.86
529.48	1348.73
529.84	1364.74
530.20	1381.32
530.56	1398.37
530.91	1415.73
531.27	1432.51
531.63	1448.96
531.99	1465.51
532.35	1481.41
532.71	1497.16
533.07	1513.41
533.42	1529.07
533.78	1545.20
534.14	1561.55
534.50	1576.85
534.86	1592.69
535.21	1607.84
535.57	1623.81
535.93	1639.29
536.29	1654.01
536.65	1669.10
537.00	1683.85
537.36	1699.12
537.72	1713.63
538.08	1727.99
538.44	1741.91
538.79	1755.72
539.15	1769.33
539.51	1783.05
539.87	1797.38
540.22	1811.19
540.58	1824.90
540.94	1838.36
541.29	1851.17
541.65	1863.84
542.01	1877.09
542.37	1889.51
542.72	1901.89
543.08	1913.62
543.44	1926.02
543.79	1937.30
544.15	1948.14
544.51	1959.69
544.87	1970.65
545.22	1981.42
545.58	1991.75
545.94	2001.47
546.29	2011.32
546.65	2021.28
547.01	2030.49
547.36	2039.25
547.72	2047.62
548.07	2055.43
548.43	2063.66
548.79	2071.81
549.14	2079.34
549.50	2086.69
549.86	2094.34
550.21	2101.77
550.57	2108.92
550.92	2115.52
551.28	2122.64
551.64	2129.84
551.99	2136.42
552.35	2142.60
552.70	2148.72
553.06	2154.62
553.41	2160.97
553.77	2167.12
554.13	2173.37
554.48	2179.55
554.84	2185.09
555.19	2190.54
555.55	2195.66
555.90	2200.04
556.26	2204.71
556.61	2209.54
556.97	2213.69
557.32	2217.82
557.68	2221.86
558.03	2226.13
558.39	2229.77
558.74	2234.28
559.10	2238.13
559.45	2241.74
559.81	2246.03
560.16	2249.76
560.52	2253.07
560.87	2256.55
561.23	2259.21
561.58	2262.06
561.94	2264.59
562.29	2266.96
562.64	2269.60
563.00	2272.28
563.35	2276.00
563.71	2279.30
564.06	2282.51
564.42	2285.41
564.77	2287.87
565.12	2290.25
565.48	2292.09
565.83	2294.00
566.19	2295.30
566.54	2296.13
566.89	2297.28
567.25	2297.78
567.60	2299.23
567.96	2300.88
568.31	2301.56
568.66	2302.60
569.02	2303.10
569.37	2303.20
569.72	2303.95
570.08	2303.95
570.43	2303.91
570.78	2303.08
571.14	2301.57
571.49	2300.20
571.84	2299.84
572.20	2298.56
572.55	2297.45
572.90	2295.96
573.26	2294.63
573.61	2293.01
573.96	2291.22
574.31	2288.27
574.67	2285.35
575.02	2281.76
575.37	2278.30
575.72	2274.59
576.08	2271.16
576.43	2267.81
576.78	2264.31
577.13	2261.06
577.49	2258.02
577.84	2254.57
578.19	2251.04
578.54	2247.23
578.90	2242.90
579.25	2237.27
579.60	2232.60
579.95	2227.53
580.30	2222.52
580.66	2217.24
581.01	2212.24
581.36	2207.28
581.71	2203.02
582.06	2198.43
582.42	2193.95
582.77	2188.58
583.12	2184.00
583.47	2179.17
583.82	2174.10
584.17	2168.85
584.53	2163.42
584.88	2157.61
585.23	2151.88
585.58	2146.29
585.93	2140.84
586.28	2136.05
586.63	2131.05
586.98	2125.81
587.34	2121.10
587.69	2116.05
588.04	2110.68
588.39	2104.93
588.74	2098.46
589.09	2092.23
589.44	2085.45
589.79	2079.49
590.14	2073.97
590.49	2067.37
590.84	2061.15
591.19	2055.10
591.54	2048.56
591.89	2041.13
592.25	2034.44
592.60	2027.01
592.95	2019.34
593.30	2011.92
593.65	2004.21
594.00	1997.13
594.35	1989.75
594.70	1981.61
595.05	1974.38
595.40	1967.15
595.75	1959.62
596.10	1953.38
596.45	1946.66
596.80	1940.53
597.15	1933.64
597.50	1926.27
597.85	1919.71
598.19	1912.97
598.54	1905.86
598.89	1899.21
599.24	1893.36
599.59	1886.66
599.94	1880.58
600.29	1874.29
600.64	1867.80
600.99	1860.44
601.34	1853.62
601.69	1846.72
602.04	1839.79
602.39	1832.54
602.74	1825.71
603.08	1819.07
603.43	1812.39
603.78	1805.10
604.13	1797.77
604.48	1790.57
604.83	1783.92
605.18	1776.91
605.53	1768.85
605.87	1760.79
606.22	1753.54
606.57	1745.60
606.92	1738.34
607.27	1731.22
607.62	1724.33
607.96	1716.88
608.31	1710.17
608.66	1702.53
609.01	1694.99
609.36	1687.40
609.70	1679.31
610.05	1671.18
610.40	1663.28
610.75	1654.91
611.10	1647.19
611.44	1638.96
611.79	1630.99
612.14	1622.33
612.49	1613.18
612.83	1604.87
613.18	1596.89
613.53	1588.81
613.88	1580.29
614.22	1571.98
614.57	1563.25
614.92	1555.12
615.27	1547.58
615.61	1539.29
615.96	1531.36
616.31	1523.73
616.65	1516.44
617.00	1508.96
617.35	1501.39
617.70	1493.11
618.04	1484.65
618.39	1476.43
618.74	1468.76
619.08	1460.49
619.43	1452.86
619.78	1446.02
620.12	1438.80
620.47	1431.12
620.82	1422.87
621.16	1415.42
621.51	1407.84
621.85	1400.29
622.20	1391.79
622.55	1383.58
622.89	1375.75
623.24	1368.08
623.59	1360.67
623.93	1353.11
624.28	1345.84
624.62	1338.36
624.97	1331.27
625.32	1324.54
625.66	1317.46
626.01	1310.22
626.35	1302.68
626.70	1294.93
627.04	1287.12
627.39	1279.36
627.73	1272.09
628.08	1265.30
628.43	1257.97
628.77	1250.48
629.12	1242.95
629.46	1235.76
629.81	1228.36
630.15	1221.16
630.50	1213.69
630.84	1205.42
631.19	1197.49
631.53	1190.00
631.88	1182.37
632.22	1174.70
632.57	1167.36
632.91	1159.84
633.26	1152.44
633.60	1145.23
633.95	1138.14
634.29	1131.21
634.64	1124.57
634.98	1117.17
635.32	1109.98
635.67	1103.48
636.01	1096.95
636.36	1089.99
636.70	1083.48
637.05	1076.87
637.39	1070.40
637.73	1063.86
638.08	1058.05
638.42	1052.10
638.77	1045.63
639.11	1038.93
639.45	1032.57
639.80	1025.85
640.14	1019.46
640.49	1012.90
640.83	1006.42
641.17	1000.19
641.52	993.76
641.86	987.33
642.20	981.53
642.55	975.30
642.89	968.66
643.23	962.05
643.58	956.35
643.92	950.13
644.26	944.04
644.61	938.03
644.95	931.99
645.29	925.39
645.64	918.64
645.98	912.39
646.32	906.65
646.66	900.58
647.01	894.91
647.35	889.17
647.69	883.34
648.04	877.94
648.38	872.12
648.72	866.18
649.06	860.05
649.41	854.17
649.75	848.12
650.09	842.26
650.43	836.43
650.78	830.28
651.12	824.37
651.46	818.60
651.80	812.83
652.14	807.48
652.49	802.16
652.83	797.03
653.17	791.16
653.51	785.42
653.85	780.05
654.20	774.35
654.54	768.39
654.88	762.70
655.22	756.76
655.56	751.10
655.90	745.68
656.25	740.49
656.59	735.12
656.93	730.01
657.27	724.82
657.61	719.42
657.95	714.31
658.29	709.27
658.64	704.09
658.98	698.82
659.32	693.34
659.66	688.10
660.00	682.67
660.34	677.83
660.68	672.93
661.02	667.92
661.36	663.17
661.70	658.71
662.05	654.38
662.39	650.03
662.73	645.55
663.07	641.07
663.41	636.64
663.75	632.11
664.09	627.60
664.43	623.22
664.77	619.13
665.11	614.89
665.45	610.79
665.79	606.67
666.13	602.45
666.47	598.39
666.81	594.24
667.15	590.20
667.49	586.28
667.83	582.54
668.17	578.61
668.51	574.60
668.85	570.49
669.19	566.63
669.53	562.80
669.87	558.92
670.21	555.28
670.55	551.59
670.89	548.18
671.23	544.73
671.57	541.23
671.91	537.69
672.25	534.23
672.58	530.66
672.92	527.24
673.26	524.11
673.60	520.94
673.94	517.83
674.28	514.96
674.62	512.07
674.96	508.89
675.30	505.97
675.64	502.97
675.97	500.21
676.31	497.30
676.65	494.35
676.99	491.67
677.33	488.80
677.67	485.97
678.01	482.87
678.34	479.85
678.68	476.96
679.02	474.18
679.36	471.39
679.70	468.62
680.04	465.87
680.37	463.00
680.71	460.19
681.05	457.58
681.39	454.81
681.73	452.15
682.06	449.62
682.40	447.06
682.74	444.57
683.08	442.07
683.42	439.49
683.75	437.00
684.09	434.47
684.43	431.98
684.77	429.55
685.10	427.26
685.44	424.96
685.78	422.68
686.12	420.41
686.45	418.11
686.79	415.85
687.13	413.65
687.46	411.51
687.80	409.40
688.14	407.16
688.48	405.12
688.81	402.87
689.15	400.71
689.49	398.60
689.82	396.53
690.16	394.47
690.50	392.57
690.83	390.64
691.17	388.63
691.51	386.73
691.84	384.84
692.18	382.90
692.52	380.91
692.85	379.05
693.19	377.10
693.52	375.32
693.86	373.46
694.20	371.66
694.53	369.81
694.87	367.96
695.21	366.21
695.54	364.38
695.88	362.67
696.21	360.95
696.55	359.21
696.88	357.48
697.22	355.79
697.56	354.15
697.89	352.52
698.23	350.92
698.56	349.35
698.90	347.75
699.23	346.09
699.57	344.54
699.90	343.00
700.24	341.51
700.58	339.97
700.91	338.53
701.25	337.12
701.58	335.77
701.92	334.46
702.25	333.09
702.59	331.74
702.92	330.37
703.26	329.07
703.59	327.81
703.93	326.70
704.26	325.46
704.60	324.14
704.93	322.87
705.26	321.62
705.60	320.45
705.93	319.33
706.27	318.30
706.60	317.27
706.94	316.14
707.27	314.99
707.61	313.92
707.94	312.88
708.27	311.79
708.61	310.76
708.94	309.73
709.28	308.70
709.61	307.72
709.94	306.82
710.28	305.83
710.61	304.87
710.95	303.78
711.28	302.89
711.61	301.97
711.95	301.06
712.28	300.11
712.61	299.07
712.95	298.12
713.28	297.27
713.61	296.37
713.95	295.50
714.28	294.66
714.61	293.81
714.95	292.95
715.28	292.09
715.61	291.19
715.95	290.29
716.28	289.44
716.61	288.65
716.95	287.84
717.28	287.08
717.61	286.26
717.94	285.56
718.28	284.74
718.61	283.98
718.94	283.28
719.27	282.63
719.61	282.01
719.94	281.34
720.27	280.62
720.60	279.92
720.94	279.25
721.27	278.66
721.60	278.07
721.93	277.47
722.27	276.94
722.60	276.37
722.93	275.81
723.26	275.27
723.59	274.67
723.93	274.10
724.26	273.52
724.59	273.01
724.92	272.46
725.25	271.96
725.59	271.47
725.92	270.95
726.25	270.43
726.58	269.93
726.91	269.45
727.24	268.96
727.57	268.50
727.91	268.03
728.24	267.57
728.57	267.03
728.90	266.59
729.23	266.06
729.56	265.62
729.89	265.17
730.22	264.70
730.55	264.22
730.89	263.75
731.22	263.33
731.55	262.90
731.88	262.44
732.21	262.01
732.54	261.55
732.87	261.12
733.20	260.75
733.53	260.35
733.86	260.00
734.19	259.60
734.52	259.24
734.85	258.93
735.18	258.54
735.51	258.23
735.84	257.84
736.17	257.51
736.50	257.13
736.83	256.88
737.16	256.58
737.49	256.24
737.82	255.90
738.15	255.58
738.48	255.22
738.81	254.92
739.14	254.61
739.47	254.32
739.80	254.05
740.13	253.72
740.46	253.41
740.79	253.06
741.12	252.76
741.45	252.43
741.78	252.08
742.11	251.76
742.44	251.43
742.77	251.16
743.10	250.88
743.43	250.61
743.75	250.25
744.08	250.06
744.41	249.78
744.74	249.54
745.07	249.25
745.40	249.02
745.73	248.79
746.06	248.50
746.39	248.22
746.71	247.93
747.04	247.66
747.37	247.42
747.70	247.15
748.03	246.95
748.36	246.78
748.68	246.56
749.01	246.33
749.34	246.10
749.67	245.90
750.00	245.65
750.33	245.48
750.65	245.26
750.98	244.92
751.31	244.71
751.64	244.51
751.97	244.36
752.29	244.12
752.62	243.89
752.95	243.68
753.28	243.49
753.60	243.30
753.93	243.14
754.26	242.96
754.59	242.74
754.91	242.50
755.24	242.23
755.57	242.04
755.90	241.88
756.22	241.68
756.55	241.47
756.88	241.29
757.20	241.03
757.53	240.86
757.86	240.71
758.19	240.59
758.51	240.42
758.84	240.17
759.17	240.01
759.49	239.83
759.82	239.73
760.15	239.58
760.47	239.46
760.80	239.26
761.13	239.10
761.45	238.95
761.78	238.79
762.11	238.66
762.43	238.46
762.76	238.29
763.08	238.20
763.41	238.05
763.74	237.92
764.06	237.78
764.39	237.59
764.71	237.42
765.04	237.23
765.37	237.11
765.69	236.99
766.02	236.85
766.34	236.72
766.67	236.58
767.00	236.46
767.32	236.36
767.65	236.30
767.97	236.20
768.30	236.09
768.62	235.99
768.95	235.90
769.27	235.85
769.60	235.76
769.92	235.60
770.25	235.47
770.57	235.33
770.90	235.26
771.22	235.13
771.55	235.07
771.87	234.99
772.20	234.88
772.52	234.88
772.85	234.89
773.17	234.79
773.50	234.66
773.82	234.55
774.15	234.41
774.47	234.26
774.80	234.12
775.12	234.06
775.45	233.96
775.77	233.83
776.09	233.73
776.42	233.62
776.74	233.56
777.07	233.47
777.39	233.43
777.72	233.31
778.04	233.29
778.36	233.19
778.69	233.12
779.01	233.06
779.33	232.90
779.66	232.73
779.98	232.64
780.31	232.58
780.63	232.60
780.95	232.53
781.28	232.49
781.60	232.46
781.92	232.39
782.25	232.34
782.57	232.31
782.89	232.25
783.22	232.23
783.54	232.16
783.86	232.14
784.19	232.10
784.51	232.09
784.83	232.01
785.16	231.99
785.48	231.94
785.80	231.85
786.12	231.79
786.45	231.76
786.77	231.78
787.09	231.73
787.42	231.63
787.74	231.60
788.06	231.59
788.38	231.54
788.71	231.50
789.03	231.46
789.35	231.45
789.67	231.40
789.99	231.34
790.32	231.32
790.64	231.28
790.96	231.32
791.28	231.27
791.61	231.28
791.93	231.23
792.25	231.17
792.57	231.22
792.89	231.19
793.21	231.15
793.54	231.08
793.86	231.04
794.18	230.96
794.50	230.90
794.82	230.83
795.14	230.80
795.47	230.79
795.79	230.78
796.11	230.69
796.43	230.62
796.75	230.59
797.07	230.55
797.39	230.49
797.71	230.39
798.04	230.36
798.36	230.32
798.68	230.30
799.00	230.27
799.32	230.19
799.64	230.17
799.96	230.15
800.28	230.11
800.60	230.07
800.92	230.05
801.24	230.02
801.56	229.98
801.89	229.95
802.21	229.89
802.53	229.83
802.85	229.84
803.17	229.87
803.49	229.83
803.81	229.79
804.13	229.75
804.45	229.69
804.77	229.64
805.09	229.58
805.41	229.54
805.73	229.53
806.05	229.49
806.37	229.44
806.69	229.38
807.01	229.32
807.33	229.29
807.65	229.25
807.97	229.28
808.28	229.23
808.60	229.19
808.92	229.15
809.24	229.16
809.56	229.10
809.88	229.05
810.20	229.00
810.52	228.99
810.84	228.97
811.16	228.92
811.48	228.87
811.80	228.90
812.12	228.85
812.43	228.81
812.75	228.76
813.07	228.74
813.39	228.71
813.71	228.70
814.03	228.65
814.35	228.63
814.67	228.58
814.98	228.60
815.30	228.59
815.62	228.56
815.94	228.49
816.26	228.53
816.58	228.48
816.89	228.45
817.21	228.42
817.53	228.38
817.85	228.40
818.17	228.41
818.48	228.34
818.80	228.37
819.12	228.33
819.44	228.30
819.76	228.28
820.07	228.30
820.39	228.28
820.71	228.32
821.03	228.30
821.34	228.22
821.66	228.21
821.98	228.19
822.30	228.14
822.61	228.18
822.93	228.12
823.25	228.11
823.57	228.13
823.88	228.14
824.20	228.14
824.52	228.14
824.83	228.13
825.15	228.13
825.47	228.08
825.79	228.11
826.10	228.13
826.42	228.13
826.74	228.08
827.05	228.07
827.37	228.06
827.69	228.05
828.00	228.08
828.32	228.06
828.64	228.08
828.95	228.21
829.27	228.21
829.58	228.22
829.90	228.23
830.22	228.21
830.53	228.17
830.85	228.19
831.17	228.13
831.48	228.11
831.80	228.10
832.11	228.12
832.43	228.07
832.75	228.08
833.06	228.10
833.38	228.10
833.69	228.11
834.01	228.09
834.32	228.09
834.64	228.09
834.96	228.09
835.27	228.06
835.59	227.99
835.90	227.94
836.22	227.91
836.53	227.89
836.85	227.90
837.16	227.98
837.48	227.99
837.79	228.03
838.11	228.05
838.42	228.02
838.74	227.99
839.05	227.98
839.37	227.95
839.68	227.90
840.00	227.88
840.31	227.88
840.63	227.85
840.94	227.83
841.26	227.80
841.57	227.77
841.88	227.74
842.20	227.72
842.51	227.68
842.83	227.72
843.14	227.83
843.46	227.79
843.77	227.73
844.08	227.66
844.40	227.62
844.71	227.62
845.03	227.59
845.34	227.59
845.65	227.58
845.97	227.61
846.28	227.60
846.60	227.63
846.91	227.59
847.22	227.60
847.54	227.59
847.85	227.56
848.16	227.55
848.48	227.54
848.79	227.57
849.10	227.59
849.42	227.54
849.73	227.41
850.04	227.44
850.36	227.42
850.67	227.47
850.98	227.47
851.30	227.48
851.61	227.49
851.92	227.48
852.23	227.53
852.55	227.49
852.86	227.51
853.17	227.51
853.49	227.51
853.80	227.50
854.11	227.52
854.42	227.56
854.74	227.58
855.05	227.56
855.36	227.50
855.67	227.49
855.99	227.49
856.30	227.61
856.61	227.58
856.92	227.57
857.23	227.56
857.55	227.53
857.86	227.47
858.17	227.50
858.48	227.49
858.79	227.47
859.11	227.48
859.42	227.41
859.73	227.38
860.04	227.38
860.35	227.36
860.66	227.34
860.98	227.31
861.29	227.31
861.60	227.30
861.91	227.31
862.22	227.31
862.53	227.30
862.84	227.19
863.16	227.19
863.47	227.14
863.78	227.14
864.09	227.14
864.40	227.13
864.71	227.13
865.02	227.13
865.33	227.12
865.64	227.13
865.95	227.18
866.27	227.26
866.58	227.26
866.89	227.31
867.20	227.28
867.51	227.30
867.82	227.29
868.13	227.34
868.44	227.32
868.75	227.36
869.06	227.36
869.37	227.38
869.68	227.41
869.99	227.46
870.30	227.48
870.61	227.53
870.92	227.56
871.23	227.54
871.54	227.58
871.85	227.59
872.16	227.57
872.47	227.55
872.78	227.48
873.09	227.49
873.40	227.50
873.71	227.52
874.02	227.53
874.33	227.51
874.64	227.49
874.95	227.52
875.26	227.49
875.56	227.50
875.87	227.48
876.18	227.48
876.49	227.58
876.80	227.57
877.11	227.53
877.42	227.51
877.73	227.52
878.04	227.48
878.35	227.51
878.66	227.52
878.96	227.54
879.27	227.51
879.58	227.51
879.89	227.48
880.20	227.51
880.51	227.46
880.82	227.48
881.12	227.49
881.43	227.44
881.74	227.43
882.05	227.41
882.36	227.39
882.67	227.39
882.97	227.29
883.28	227.25
883.59	227.25
883.90	227.28
884.21	227.28
884.51	227.27
884.82	227.22
885.13	227.24
885.44	227.21
885.74	227.24
886.05	227.22
886.36	227.22
886.67	227.17
886.98	227.22
887.28	227.21
887.59	227.22
887.90	227.23
888.20	227.21
888.51	227.21
888.82	227.19
889.13	227.16
889.43	227.22
889.74	227.20
890.05	227.20
890.35	227.20
890.66	227.18
890.97	227.14
891.28	227.12
891.58	227.10
891.89	227.12
892.20	227.08
892.50	227.07
892.81	227.04
893.12	227.02
893.42	227.00
893.73	227.01
894.04	226.98
894.34	226.97
894.65	226.96
894.95	226.97
895.26	226.98
895.57	227.03
895.87	226.93
896.18	226.96
896.48	226.94
896.79	226.91
897.10	226.96
897.40	226.96
897.71	226.99
898.01	226.98
898.32	226.95
898.63	226.98
898.93	226.98
899.24	227.01
899.54	227.04
899.85	227.03
900.15	227.02
900.46	227.06
900.76	227.05
901.07	227.06
901.38	227.03
901.68	227.05
901.99	226.99
902.29	227.00
902.60	227.02
902.90	227.02
903.21	226.99
903.51	226.94
903.82	226.99
904.12	226.99
904.43	226.98
904.73	227.00
905.03	226.99
905.34	227.10
905.64	227.06
905.95	227.06
906.25	227.03
906.56	227.03
906.86	227.01
907.17	227.01
907.47	227.03
907.77	227.03
908.08	227.00
908.38	227.02
908.69	227.05
908.99	227.07
909.30	227.08
909.60	227.13
909.90	227.15
910.21	227.11
910.51	227.06
910.81	227.08
911.12	227.11
911.42	227.10
911.73	227.02
912.03	227.05
912.33	227.07
912.64	227.09
912.94	227.09
913.24	227.06
913.55	227.07
913.85	227.05
914.15	227.06
914.46	227.06
914.76	227.04
915.06	227.02
915.37	226.97
915.67	226.91
915.97	226.87
916.27	226.85
916.58	226.88
916.88	226.88
917.18	226.87
917.49	226.91
917.79	226.92
918.09	226.91
918.39	226.91
918.70	226.88
919.00	226.88
919.30	226.92
919.60	226.89
919.91	226.89
920.21	226.89
920.51	226.87
920.81	226.86
921.12	226.90
921.42	226.91
921.72	226.94
922.02	227.00
922.32	227.04
922.63	227.07
922.93	227.09
923.23	227.10
923.53	227.11
923.83	227.04
924.13	227.04
924.44	227.02
924.74	227.05
925.04	227.08
925.34	227.08
925.64	227.02
925.94	227.04
926.24	227.09
926.55	227.10
926.85	227.14
927.15	227.18
927.45	227.16
927.75	227.15
928.05	227.16
928.35	227.14
928.65	227.15
928.95	227.13
929.26	227.10
929.56	227.14
929.86	227.14
930.16	227.15
930.46	227.15
930.76	227.18
931.06	227.14
931.36	227.12
931.66	227.15
931.96	227.19
932.26	227.22
932.56	227.18
932.86	227.16
933.16	227.14
933.46	227.10
933.76	227.08
934.06	227.14
934.36	227.14
934.66	227.14
934.96	227.12
935.26	227.11
935.56	227.11
935.86	227.09
936.16	227.04
936.46	227.01
936.76	227.01
937.06	226.97
937.36	226.97
937.66	226.99
937.96	226.94
938.26	226.91
938.56	226.90
938.86	226.89
939.16	226.91
939.46	226.92
939.76	226.95
940.06	226.98
940.35	226.93
940.65	226.88
940.95	226.91
941.25	226.91
941.55	226.91
941.85	226.91
942.15	226.93
942.45	226.97
942.75	227.00
943.04	227.01
943.34	227.06
943.64	227.03
943.94	227.02
944.24	227.02
944.54	227.01
944.84	226.96
945.13	226.97
945.43	226.92
945.73	226.90
946.03	226.88
946.33	226.89
946.62	226.85
946.92	226.87
947.22	226.83
947.52	226.81
947.82	226.81
948.11	226.79
948.41	226.76
948.71	226.70
949.01	226.68
949.31	226.64
949.60	226.63
949.90	226.67
950.20	226.67
950.50	226.72
950.79	226.72
951.09	226.77
951.39	226.74
951.69	226.78
951.98	226.80
952.28	226.80
952.58	226.79
952.87	226.81
953.17	226.80
953.47	226.81
953.76	226.80
954.06	226.80
954.36	226.84
954.66	226.84
954.95	226.88
955.25	226.88
955.55	226.91
955.84	226.87
956.14	226.87
956.44	226.89
956.73	226.84
957.03	226.82
957.32	226.82
957.62	226.85
957.92	226.86
958.21	226.85
958.51	226.94
958.81	226.94
959.10	226.93
959.40	226.94
959.69	226.97
959.99	226.98
960.29	226.96
960.58	226.93
960.88	226.97
961.17	227.01
961.47	227.02
961.76	227.00
962.06	227.04
962.36	227.01
962.65	226.99
962.95	227.01
963.24	227.03
963.54	227.04
963.83	227.03
964.13	227.00
964.42	226.98
964.72	226.91
965.01	226.89
965.31	226.89
965.60	226.85
965.90	226.90
966.19	226.88
966.49	226.90
966.78	226.90
967.08	226.88
967.37	226.84
967.67	226.86
967.96	226.85
968.26	226.83
968.55	226.83
968.85	226.83
969.14	226.81
969.43	226.81
969.73	226.84
970.02	226.84
970.32	226.84
970.61	226.83
970.91	226.83
971.20	226.84
971.49	226.84
971.79	226.86
972.08	226.79
972.38	226.83
972.67	226.81
972.96	226.83
973.26	226.83
973.55	226.86
973.85	226.83
974.14	226.84
974.43	226.86
974.73	226.87
975.02	226.84
975.31	226.86
975.61	226.83
975.90	226.80
976.19	226.76
976.49	226.76
976.78	226.76
977.07	226.74
977.37	226.76
977.66	226.82
977.95	226.82
978.24	226.81
978.54	226.85
978.83	226.83
979.12	226.84
979.42	226.85
979.71	226.84
980.00	226.82
980.29	226.84
980.59	226.83
980.88	226.84
981.17	226.85
981.46	226.88
981.76	226.88
982.05	226.92
982.34	226.94
982.63	226.95
982.93	226.98
983.22	227.04
983.51	227.01
983.80	227.00
984.09	227.01
984.39	227.04
984.68	227.00
984.97	227.04
985.26	227.01
985.55	226.99
985.85	226.95
986.14	226.96
986.43	226.94
986.72	226.94
987.01	226.92
987.30	226.92
987.59	226.87
987.89	226.89
988.18	226.84
988.47	226.81
988.76	226.81
989.05	226.78
989.34	226.75
989.63	226.77
989.92	226.75
990.22	226.75
990.51	226.74
990.80	226.71
991.09	226.68
991.38	226.70
991.67	226.70
991.96	226.70
992.25	226.70
992.54	226.68
992.83	226.65
993.12	226.65
993.41	226.64
993.70	226.71
993.99	226.69
994.28	226.71
994.58	226.73
994.87	226.74
995.16	226.76
995.45	226.72
995.74	226.66
996.03	226.65
996.32	226.65
996.61	226.66
996.90	226.68
997.19	226.68
997.48	226.68
997.77	226.66
998.06	226.67
998.34	226.67
998.63	226.68
998.92	226.68
999.21	226.66
999.50	226.69
999.79	226.65
1000.08	226.66
1000.37	226.63
1000.66	226.62
1000.95	226.62
1001.24	226.60
1001.53	226.63
1001.82	226.69
1002.11	226.67
1002.40	226.68
1002.68	226.69
1002.97	226.75
1003.26	226.74
1003.55	226.69
1003.84	226.73
1004.13	226.75
1004.42	226.74
1004.71	226.74
1004.99	226.78
1005.28	226.81
1005.57	226.80
1005.86	226.80
1006.15	226.81
1006.44	226.85
1006.72	226.87
1007.01	226.88
1007.30	226.93
1007.59	226.95
1007.88	226.93
1008.17	226.97
1008.45	226.95
1008.74	226.92
1009.03	226.88
1009.32	226.87
1009.60	226.88
1009.89	226.87
1010.18	226.83
1010.47	226.86
1010.76	226.85
1011.04	226.86
1011.33	226.87
1011.62	226.89
1011.91	226.91
1012.19	226.90
1012.48	226.86
1012.77	226.87
1013.05	226.91
1013.34	226.90
1013.63	226.84
1013.92	226.86
1014.20	226.82
1014.49	226.85
1014.78	226.84
1015.06	226.82
1015.35	226.87
1015.64	226.91
1015.92	226.93
1016.21	226.97
1016.50	226.96
1016.78	227.00
1017.07	226.98
1017.36	226.98
1017.64	226.96
1017.93	226.93
1018.22	226.95
1018.50	226.96
1018.79	226.96
1019.08	226.89
1019.36	226.88
1019.65	226.90
1019.93	226.91
1020.22	226.92
1020.51	226.93
1020.79	226.93
1021.08	227.15
1021.36	226.42
1021.65	226.87
1021.94	226.54
1022.22	226.83
1022.51	226.69
1022.79	227.25
1023.08	226.71
1023.36	227.69
1023.65	226.49
>>>>>End Processed Spectral Data<<<<<
