SpectraSuite Data File
++++++++++++++++++++++++++++++++++++
Date: Fri Feb 01 15:05:16 EST 2013
User: group
Dark Spectrum Present: No
Reference Spectrum Present: No
Number of Sampled Component Spectra: 1
Spectrometers: USB2E7196
Integration Time (usec): 35000 (USB2E7196)
Spectra Averaged: 100 (USB2E7196)
Boxcar Smoothing: 10 (USB2E7196)
Correct for Electrical Dark: No (USB2E7196)
Strobe/Lamp Enabled: No (USB2E7196)
Correct for Detector Non-linearity: No (USB2E7196)
Correct for Stray Light: No (USB2E7196)
Number of Pixels in Processed Spectrum: 2048
>>>>>Begin Processed Spectral Data<<<<<
339.09	0.00
339.48	215.11
339.86	216.51
340.24	217.80
340.63	219.43
341.01	222.40
341.39	221.85
341.78	223.78
342.16	224.51
342.54	225.29
342.93	213.54
343.31	224.37
343.69	224.92
344.07	225.42
344.46	225.85
344.84	226.23
345.22	226.47
345.60	226.74
345.99	226.95
346.37	227.10
346.75	227.21
347.13	227.30
347.52	227.36
347.90	227.44
348.28	227.48
348.66	227.52
349.05	227.52
349.43	227.58
349.81	227.62
350.19	227.63
350.57	227.68
350.96	227.78
351.34	227.84
351.72	227.95
352.10	228.03
352.48	228.11
352.87	228.20
353.25	228.27
353.63	228.33
354.01	228.35
354.39	228.39
354.77	228.45
355.15	228.55
355.54	228.62
355.92	228.66
356.30	228.68
356.68	228.82
357.06	228.90
357.44	228.92
357.82	228.97
358.20	229.07
358.58	229.12
358.97	229.19
359.35	229.25
359.73	229.31
360.11	229.37
360.49	229.42
360.87	229.42
361.25	229.45
361.63	229.50
362.01	229.55
362.39	229.60
362.77	229.67
363.15	229.67
363.53	229.68
363.91	229.71
364.29	229.75
364.67	229.66
365.05	229.63
365.43	229.65
365.81	229.68
366.19	229.71
366.57	229.72
366.95	229.71
367.33	229.66
367.71	229.60
368.09	229.60
368.47	229.58
368.85	229.55
369.23	229.54
369.61	229.46
369.99	229.47
370.37	229.41
370.75	229.37
371.13	229.30
371.51	229.23
371.89	229.16
372.27	229.10
372.65	229.02
373.03	228.99
373.41	228.92
373.78	228.84
374.16	228.70
374.54	228.62
374.92	228.54
375.30	228.50
375.68	228.41
376.06	228.31
376.44	228.22
376.82	228.15
377.19	228.04
377.57	227.97
377.95	227.81
378.33	227.76
378.71	227.60
379.09	227.52
379.47	227.47
379.84	227.39
380.22	227.33
380.60	227.25
380.98	227.17
381.36	227.09
381.73	226.99
382.11	226.94
382.49	226.84
382.87	226.77
383.25	226.67
383.62	226.74
384.00	226.65
384.38	226.57
384.76	226.51
385.13	226.50
385.51	226.44
385.89	226.41
386.27	226.35
386.64	226.34
387.02	226.30
387.40	226.20
387.78	226.17
388.15	226.13
388.53	226.10
388.91	226.06
389.29	226.05
389.66	226.05
390.04	226.02
390.42	226.01
390.79	225.99
391.17	225.98
391.55	225.85
391.92	225.87
392.30	225.88
392.68	225.88
393.05	225.89
393.43	225.94
393.81	225.97
394.18	225.96
394.56	225.98
394.94	226.02
395.31	226.10
395.69	226.18
396.06	226.22
396.44	226.29
396.82	226.34
397.19	226.43
397.57	226.48
397.95	226.57
398.32	226.66
398.70	226.74
399.07	226.83
399.45	226.92
399.82	227.00
400.20	227.11
400.58	227.25
400.95	227.29
401.33	227.41
401.70	227.57
402.08	227.73
402.45	227.83
402.83	227.99
403.20	228.11
403.58	228.19
403.95	228.34
404.33	228.51
404.71	228.67
405.08	228.85
405.46	228.99
405.83	229.17
406.21	229.33
406.58	229.52
406.96	229.70
407.33	229.88
407.70	230.07
408.08	230.34
408.45	230.54
408.83	230.80
409.20	230.99
409.58	231.18
409.95	231.41
410.33	231.71
410.70	231.94
411.08	232.25
411.45	232.60
411.82	232.91
412.20	233.24
412.57	233.61
412.95	233.89
413.32	234.30
413.69	234.67
414.07	235.08
414.44	235.53
414.82	235.99
415.19	236.55
415.56	237.12
415.94	237.66
416.31	238.30
416.68	238.93
417.06	239.64
417.43	240.30
417.81	241.08
418.18	241.85
418.55	242.68
418.93	243.52
419.30	244.36
419.67	245.27
420.04	246.24
420.42	247.25
420.79	248.48
421.16	249.65
421.54	250.87
421.91	252.06
422.28	253.34
422.66	254.66
423.03	255.93
423.40	257.22
423.77	258.61
424.15	260.00
424.52	261.50
424.89	263.11
425.26	264.66
425.64	266.09
426.01	267.64
426.38	269.30
426.75	270.98
427.13	272.74
427.50	274.54
427.87	276.38
428.24	278.22
428.61	279.92
428.99	281.85
429.36	283.93
429.73	286.04
430.10	288.06
430.47	290.15
430.85	292.29
431.22	294.58
431.59	296.98
431.96	299.23
432.33	301.69
432.70	304.06
433.08	306.87
433.45	309.55
433.82	312.18
434.19	315.13
434.56	317.97
434.93	320.63
435.30	323.28
435.68	326.17
436.05	329.01
436.42	331.84
436.79	334.37
437.16	337.09
437.53	339.91
437.90	342.73
438.27	345.47
438.64	348.36
439.01	350.98
439.38	353.22
439.75	355.43
440.13	357.92
440.50	360.28
440.87	362.17
441.24	364.11
441.61	366.31
441.98	367.77
442.35	369.59
442.72	371.47
443.09	373.23
443.46	374.23
443.83	374.87
444.20	375.34
444.57	376.17
444.94	376.44
445.31	376.80
445.68	377.16
446.05	377.25
446.42	376.81
446.79	376.37
447.16	375.95
447.53	375.63
447.90	374.55
448.27	373.41
448.64	371.82
449.01	370.68
449.37	368.72
449.74	366.82
450.11	364.55
450.48	362.06
450.85	359.57
451.22	357.43
451.59	355.42
451.96	353.53
452.33	350.93
452.70	348.62
453.07	345.79
453.43	342.87
453.80	340.10
454.17	337.41
454.54	334.86
454.91	332.10
455.28	329.41
455.65	326.83
456.02	324.35
456.38	322.18
456.75	319.51
457.12	317.23
457.49	315.02
457.86	312.85
458.23	311.02
458.59	308.97
458.96	306.90
459.33	305.00
459.70	303.09
460.07	301.57
460.43	299.84
460.80	298.20
461.17	296.75
461.54	295.25
461.91	293.85
462.27	292.39
462.64	291.15
463.01	289.78
463.38	288.48
463.74	287.11
464.11	285.95
464.48	284.89
464.85	283.80
465.21	282.92
465.58	281.99
465.95	280.85
466.32	279.96
466.68	279.00
467.05	278.10
467.42	277.21
467.78	276.25
468.15	275.36
468.52	274.65
468.88	273.78
469.25	272.98
469.62	272.34
469.98	271.65
470.35	270.98
470.72	270.36
471.08	269.70
471.45	269.17
471.82	268.58
472.18	267.99
472.55	267.54
472.92	267.00
473.28	266.51
473.65	266.07
474.02	265.59
474.38	265.25
474.75	264.90
475.11	264.51
475.48	264.25
475.85	264.00
476.21	263.76
476.58	263.57
476.94	263.40
477.31	263.24
477.67	263.10
478.04	262.99
478.41	262.93
478.77	262.98
479.14	262.87
479.50	262.92
479.87	262.98
480.23	263.03
480.60	263.08
480.96	263.16
481.33	263.34
481.69	263.51
482.06	263.71
482.42	263.94
482.79	264.25
483.15	264.56
483.52	264.95
483.88	265.33
484.25	265.72
484.61	266.14
484.98	266.55
485.34	267.13
485.71	267.70
486.07	268.28
486.44	268.87
486.80	269.57
487.17	270.28
487.53	271.10
487.90	271.92
488.26	272.86
488.62	273.82
488.99	274.82
489.35	275.90
489.72	277.02
490.08	278.19
490.44	279.40
490.81	280.77
491.17	282.09
491.54	283.55
491.90	285.10
492.26	286.74
492.63	288.47
492.99	290.20
493.36	292.08
493.72	294.17
494.08	296.25
494.45	298.50
494.81	300.86
495.17	303.29
495.54	305.84
495.90	308.52
496.26	311.32
496.63	314.25
496.99	317.37
497.35	320.63
497.72	323.99
498.08	327.49
498.44	331.14
498.80	335.05
499.17	339.06
499.53	343.15
499.89	347.51
500.26	351.98
500.62	356.61
500.98	361.58
501.34	366.61
501.71	371.92
502.07	377.31
502.43	382.91
502.79	388.67
503.16	394.75
503.52	401.01
503.88	407.41
504.24	414.07
504.60	420.88
504.97	427.96
505.33	435.22
505.69	442.91
506.05	450.61
506.41	458.44
506.78	466.57
507.14	475.07
507.50	483.74
507.86	492.73
508.22	501.96
508.59	511.13
508.95	520.69
509.31	530.43
509.67	540.58
510.03	550.86
510.39	561.45
510.75	572.20
511.12	583.09
511.48	594.38
511.84	605.85
512.20	617.35
512.56	629.34
512.92	641.58
513.28	653.79
513.64	666.31
514.00	679.01
514.37	691.93
514.73	704.93
515.09	717.97
515.45	731.27
515.81	744.86
516.17	758.89
516.53	772.96
516.89	787.09
517.25	801.31
517.61	815.72
517.97	830.21
518.33	844.68
518.69	859.49
519.05	874.43
519.41	889.51
519.77	905.11
520.13	920.58
520.49	936.02
520.85	951.54
521.21	967.32
521.57	983.66
521.93	999.59
522.29	1016.06
522.65	1032.40
523.01	1048.73
523.37	1064.84
523.73	1081.07
524.09	1097.23
524.45	1113.63
524.81	1130.29
525.17	1147.23
525.53	1164.14
525.89	1181.11
526.25	1198.03
526.61	1214.52
526.97	1231.32
527.33	1247.86
527.68	1264.50
528.04	1281.02
528.40	1297.86
528.76	1315.01
529.12	1331.72
529.48	1348.63
529.84	1364.70
530.20	1381.48
530.56	1398.56
530.91	1415.86
531.27	1432.65
531.63	1449.19
531.99	1465.86
532.35	1481.74
532.71	1497.71
533.07	1514.06
533.42	1529.93
533.78	1545.95
534.14	1562.34
534.50	1577.85
534.86	1593.73
535.21	1609.01
535.57	1625.08
535.93	1640.59
536.29	1655.33
536.65	1670.45
537.00	1685.41
537.36	1700.89
537.72	1715.50
538.08	1729.93
538.44	1744.03
538.79	1758.11
539.15	1772.08
539.51	1785.96
539.87	1800.54
540.22	1814.31
540.58	1828.13
540.94	1841.68
541.29	1854.78
541.65	1867.64
542.01	1881.01
542.37	1893.47
542.72	1905.98
543.08	1917.88
543.44	1930.40
543.79	1941.81
544.15	1952.90
544.51	1964.36
544.87	1975.29
545.22	1986.15
545.58	1996.49
545.94	2006.26
546.29	2016.11
546.65	2025.83
547.01	2035.12
547.36	2043.96
547.72	2052.45
548.07	2060.38
548.43	2068.54
548.79	2076.75
549.14	2084.19
549.50	2091.50
549.86	2099.21
550.21	2106.45
550.57	2113.55
550.92	2120.05
551.28	2127.20
551.64	2134.32
551.99	2140.89
552.35	2147.16
552.70	2153.32
553.06	2159.30
553.41	2165.60
553.77	2171.54
554.13	2177.64
554.48	2183.69
554.84	2188.83
555.19	2194.21
555.55	2199.32
555.90	2203.71
556.26	2208.32
556.61	2212.90
556.97	2217.06
557.32	2221.16
557.68	2225.38
558.03	2229.70
558.39	2233.34
558.74	2237.98
559.10	2241.61
559.45	2245.20
559.81	2249.39
560.16	2252.98
560.52	2256.04
560.87	2259.41
561.23	2262.08
561.58	2264.95
561.94	2267.51
562.29	2270.12
562.64	2272.71
563.00	2275.31
563.35	2278.70
563.71	2281.88
564.06	2285.03
564.42	2287.77
564.77	2290.12
565.12	2292.13
565.48	2293.82
565.83	2295.57
566.19	2296.64
566.54	2297.70
566.89	2298.75
567.25	2299.18
567.60	2300.45
567.96	2302.10
568.31	2302.82
568.66	2303.70
569.02	2304.14
569.37	2304.34
569.72	2305.01
570.08	2304.92
570.43	2304.83
570.78	2304.13
571.14	2302.33
571.49	2300.98
571.84	2300.65
572.20	2299.39
572.55	2298.25
572.90	2296.58
573.26	2295.05
573.61	2293.28
573.96	2291.01
574.31	2287.94
574.67	2284.79
575.02	2281.06
575.37	2277.54
575.72	2273.63
576.08	2270.31
576.43	2266.87
576.78	2263.02
577.13	2259.66
577.49	2256.39
577.84	2252.64
578.19	2248.80
578.54	2245.00
578.90	2240.61
579.25	2234.93
579.60	2229.94
579.95	2224.78
580.30	2219.66
580.66	2214.52
581.01	2209.45
581.36	2204.55
581.71	2200.34
582.06	2195.75
582.42	2191.08
582.77	2185.83
583.12	2181.17
583.47	2176.29
583.82	2171.15
584.17	2165.85
584.53	2160.30
584.88	2154.55
585.23	2148.64
585.58	2143.20
585.93	2137.76
586.28	2132.88
586.63	2127.61
586.98	2122.32
587.34	2117.65
587.69	2112.55
588.04	2107.17
588.39	2101.19
588.74	2094.62
589.09	2088.27
589.44	2081.39
589.79	2075.32
590.14	2069.50
590.49	2062.86
590.84	2056.28
591.19	2050.12
591.54	2043.54
591.89	2035.91
592.25	2029.09
592.60	2021.82
592.95	2014.02
593.30	2006.49
593.65	1998.88
594.00	1991.76
594.35	1984.47
594.70	1976.34
595.05	1969.08
595.40	1961.68
595.75	1954.23
596.10	1947.90
596.45	1941.06
596.80	1934.72
597.15	1928.18
597.50	1920.81
597.85	1914.30
598.19	1907.70
598.54	1900.54
598.89	1893.91
599.24	1888.09
599.59	1881.30
599.94	1875.21
600.29	1868.86
600.64	1862.23
600.99	1854.69
601.34	1847.93
601.69	1840.93
602.04	1833.98
602.39	1826.72
602.74	1819.76
603.08	1813.05
603.43	1806.41
603.78	1799.07
604.13	1792.00
604.48	1784.54
604.83	1777.76
605.18	1770.69
605.53	1762.50
605.87	1754.48
606.22	1747.08
606.57	1739.12
606.92	1731.90
607.27	1724.65
607.62	1717.76
607.96	1710.52
608.31	1703.78
608.66	1695.99
609.01	1688.46
609.36	1680.89
609.70	1672.77
610.05	1664.77
610.40	1656.95
610.75	1648.62
611.10	1641.01
611.44	1632.62
611.79	1624.63
612.14	1616.07
612.49	1606.98
612.83	1598.77
613.18	1590.76
613.53	1582.65
613.88	1574.07
614.22	1565.74
614.57	1556.99
614.92	1548.85
615.27	1541.25
615.61	1533.08
615.96	1525.22
616.31	1517.67
616.65	1510.27
617.00	1502.75
617.35	1495.11
617.70	1486.80
618.04	1478.19
618.39	1469.86
618.74	1462.30
619.08	1453.98
619.43	1446.40
619.78	1439.44
620.12	1432.21
620.47	1424.61
620.82	1416.56
621.16	1409.27
621.51	1401.67
621.85	1394.26
622.20	1385.92
622.55	1377.62
622.89	1369.80
623.24	1362.26
623.59	1354.90
623.93	1347.43
624.28	1340.25
624.62	1332.72
624.97	1325.68
625.32	1319.00
625.66	1312.16
626.01	1304.89
626.35	1297.55
626.70	1289.87
627.04	1282.18
627.39	1274.58
627.73	1267.32
628.08	1260.39
628.43	1252.96
628.77	1245.62
629.12	1238.01
629.46	1230.78
629.81	1223.44
630.15	1216.23
630.50	1208.79
630.84	1200.57
631.19	1192.72
631.53	1185.39
631.88	1177.85
632.22	1170.29
632.57	1163.09
632.91	1155.50
633.26	1148.19
633.60	1141.00
633.95	1133.96
634.29	1127.01
634.64	1120.28
634.98	1112.91
635.32	1105.90
635.67	1099.53
636.01	1092.97
636.36	1086.22
636.70	1079.86
637.05	1073.33
637.39	1066.90
637.73	1060.38
638.08	1054.53
638.42	1048.63
638.77	1042.02
639.11	1035.49
639.45	1029.10
639.80	1022.44
640.14	1016.05
640.49	1009.56
640.83	1003.22
641.17	996.99
641.52	990.68
641.86	984.39
642.20	978.59
642.55	972.23
642.89	965.71
643.23	959.17
643.58	953.42
643.92	947.14
644.26	941.08
644.61	935.09
644.95	929.09
645.29	922.50
645.64	915.71
645.98	909.48
646.32	903.69
646.66	897.72
647.01	891.92
647.35	886.29
647.69	880.45
648.04	874.89
648.38	869.07
648.72	863.10
649.06	856.97
649.41	851.10
649.75	845.12
650.09	839.20
650.43	833.45
650.78	827.32
651.12	821.41
651.46	815.68
651.80	809.94
652.14	804.54
652.49	799.21
652.83	794.04
653.17	788.32
653.51	782.59
653.85	777.14
654.20	771.48
654.54	765.53
654.88	759.84
655.22	754.05
655.56	748.38
655.90	742.91
656.25	737.66
656.59	732.31
656.93	727.31
657.27	722.10
657.61	716.62
657.95	711.56
658.29	706.44
658.64	701.26
658.98	695.99
659.32	690.55
659.66	685.42
660.00	680.14
660.34	675.29
660.68	670.37
661.02	665.37
661.36	660.73
661.70	656.25
662.05	651.82
662.39	647.43
662.73	643.03
663.07	638.70
663.41	634.24
663.75	629.74
664.09	625.16
664.43	620.85
664.77	616.79
665.11	612.56
665.45	608.54
665.79	604.45
666.13	600.37
666.47	596.34
666.81	592.15
667.15	588.06
667.49	584.16
667.83	580.43
668.17	576.54
668.51	572.45
668.85	568.39
669.19	564.61
669.53	560.81
669.87	556.93
670.21	553.27
670.55	549.72
670.89	546.32
671.23	542.98
671.57	539.44
671.91	536.02
672.25	532.55
672.58	529.06
672.92	525.73
673.26	522.54
673.60	519.41
673.94	516.30
674.28	513.45
674.62	510.52
674.96	507.44
675.30	504.46
675.64	501.63
675.97	498.92
676.31	496.09
676.65	493.21
676.99	490.50
677.33	487.69
677.67	484.90
678.01	481.92
678.34	478.88
678.68	476.08
679.02	473.24
679.36	470.51
679.70	467.78
680.04	465.02
680.37	462.14
680.71	459.37
681.05	456.83
681.39	454.12
681.73	451.47
682.06	448.96
682.40	446.48
682.74	443.92
683.08	441.42
683.42	438.81
683.75	436.35
684.09	433.90
684.43	431.42
684.77	428.93
685.10	426.58
685.44	424.34
685.78	422.05
686.12	419.78
686.45	417.47
686.79	415.21
687.13	413.04
687.46	410.93
687.80	408.83
688.14	406.60
688.48	404.55
688.81	402.28
689.15	400.15
689.49	398.05
689.82	396.04
690.16	393.94
690.50	392.00
690.83	390.05
691.17	388.04
691.51	386.13
691.84	384.31
692.18	382.35
692.52	380.36
692.85	378.47
693.19	376.62
693.52	374.84
693.86	372.99
694.20	371.21
694.53	369.36
694.87	367.52
695.21	365.73
695.54	363.90
695.88	362.21
696.21	360.48
696.55	358.79
696.88	357.07
697.22	355.45
697.56	353.81
697.89	352.09
698.23	350.47
698.56	348.87
698.90	347.28
699.23	345.65
699.57	344.13
699.90	342.56
700.24	340.98
700.58	339.47
700.91	338.00
701.25	336.58
701.58	335.24
701.92	333.89
702.25	332.56
702.59	331.20
702.92	329.93
703.26	328.63
703.59	327.36
703.93	326.18
704.26	324.94
704.60	323.71
704.93	322.48
705.26	321.25
705.60	320.11
705.93	318.93
706.27	317.94
706.60	316.89
706.94	315.85
707.27	314.74
707.61	313.69
707.94	312.65
708.27	311.54
708.61	310.46
708.94	309.49
709.28	308.52
709.61	307.59
709.94	306.65
710.28	305.65
710.61	304.71
710.95	303.71
711.28	302.78
711.61	301.81
711.95	300.90
712.28	300.00
712.61	299.03
712.95	298.14
713.28	297.26
713.61	296.31
713.95	295.43
714.28	294.64
714.61	293.79
714.95	292.94
715.28	292.12
715.61	291.28
715.95	290.41
716.28	289.55
716.61	288.72
716.95	287.88
717.28	287.14
717.61	286.36
717.94	285.59
718.28	284.77
718.61	284.10
718.94	283.47
719.27	282.76
719.61	282.11
719.94	281.47
720.27	280.76
720.60	280.17
720.94	279.53
721.27	278.91
721.60	278.32
721.93	277.74
722.27	277.20
722.60	276.66
722.93	276.09
723.26	275.54
723.59	274.97
723.93	274.45
724.26	273.94
724.59	273.40
724.92	272.88
725.25	272.41
725.59	271.86
725.92	271.33
726.25	270.85
726.58	270.38
726.91	269.87
727.24	269.43
727.57	268.97
727.91	268.49
728.24	268.06
728.57	267.61
728.90	267.15
729.23	266.69
729.56	266.25
729.89	265.78
730.22	265.32
730.55	264.87
730.89	264.41
731.22	263.92
731.55	263.46
731.88	263.01
732.21	262.60
732.54	262.18
732.87	261.80
733.20	261.35
733.53	260.95
733.86	260.55
734.19	260.12
734.52	259.70
734.85	259.35
735.18	258.90
735.51	258.51
735.84	258.13
736.17	257.73
736.50	257.31
736.83	257.08
737.16	256.74
737.49	256.41
737.82	256.05
738.15	255.73
738.48	255.38
738.81	255.06
739.14	254.71
739.47	254.34
739.80	254.01
740.13	253.71
740.46	253.33
740.79	253.02
741.12	252.72
741.45	252.39
741.78	252.06
742.11	251.79
742.44	251.46
742.77	251.17
743.10	250.90
743.43	250.61
743.75	250.21
744.08	250.06
744.41	249.77
744.74	249.45
745.07	249.16
745.40	248.93
745.73	248.70
746.06	248.40
746.39	248.16
746.71	247.87
747.04	247.60
747.37	247.40
747.70	247.17
748.03	246.92
748.36	246.70
748.68	246.46
749.01	246.20
749.34	245.97
749.67	245.76
750.00	245.50
750.33	245.38
750.65	245.18
750.98	244.85
751.31	244.63
751.64	244.48
751.97	244.34
752.29	244.12
752.62	243.88
752.95	243.70
753.28	243.52
753.60	243.32
753.93	243.15
754.26	242.97
754.59	242.75
754.91	242.52
755.24	242.35
755.57	242.20
755.90	242.05
756.22	241.87
756.55	241.66
756.88	241.50
757.20	241.28
757.53	241.09
757.86	240.92
758.19	240.75
758.51	240.60
758.84	240.39
759.17	240.23
759.49	240.06
759.82	239.95
760.15	239.80
760.47	239.67
760.80	239.52
761.13	239.38
761.45	239.22
761.78	239.10
762.11	238.96
762.43	238.80
762.76	238.61
763.08	238.49
763.41	238.38
763.74	238.25
764.06	238.08
764.39	237.94
764.71	237.80
765.04	237.69
765.37	237.54
765.69	237.42
766.02	237.28
766.34	237.16
766.67	237.03
767.00	236.97
767.32	236.88
767.65	236.81
767.97	236.68
768.30	236.56
768.62	236.44
768.95	236.33
769.27	236.19
769.60	236.14
769.92	236.04
770.25	235.90
770.57	235.76
770.90	235.67
771.22	235.55
771.55	235.45
771.87	235.33
772.20	235.22
772.52	235.18
772.85	235.21
773.17	235.10
773.50	234.97
773.82	234.82
774.15	234.67
774.47	234.54
774.80	234.42
775.12	234.32
775.45	234.23
775.77	234.12
776.09	234.06
776.42	233.94
776.74	233.86
777.07	233.79
777.39	233.74
777.72	233.65
778.04	233.60
778.36	233.52
778.69	233.45
779.01	233.39
779.33	233.24
779.66	233.04
779.98	232.94
780.31	232.87
780.63	232.82
780.95	232.76
781.28	232.68
781.60	232.59
781.92	232.51
782.25	232.47
782.57	232.40
782.89	232.33
783.22	232.29
783.54	232.19
783.86	232.14
784.19	232.06
784.51	232.00
784.83	231.93
785.16	231.88
785.48	231.83
785.80	231.76
786.12	231.68
786.45	231.61
786.77	231.59
787.09	231.56
787.42	231.47
787.74	231.44
788.06	231.37
788.38	231.37
788.71	231.33
789.03	231.28
789.35	231.24
789.67	231.14
789.99	231.10
790.32	231.08
790.64	231.04
790.96	231.08
791.28	231.00
791.61	230.94
791.93	230.92
792.25	230.87
792.57	230.92
792.89	230.91
793.21	230.92
793.54	230.84
793.86	230.79
794.18	230.74
794.50	230.69
794.82	230.67
795.14	230.63
795.47	230.63
795.79	230.62
796.11	230.57
796.43	230.57
796.75	230.54
797.07	230.51
797.39	230.48
797.71	230.39
798.04	230.40
798.36	230.39
798.68	230.36
799.00	230.34
799.32	230.27
799.64	230.25
799.96	230.24
800.28	230.26
800.60	230.23
800.92	230.25
801.24	230.22
801.56	230.22
801.89	230.22
802.21	230.20
802.53	230.14
802.85	230.16
803.17	230.21
803.49	230.15
803.81	230.11
804.13	230.08
804.45	230.05
804.77	230.05
805.09	230.05
805.41	229.99
805.73	229.98
806.05	229.93
806.37	229.92
806.69	229.86
807.01	229.82
807.33	229.82
807.65	229.74
807.97	229.76
808.28	229.72
808.60	229.66
808.92	229.63
809.24	229.67
809.56	229.62
809.88	229.55
810.20	229.54
810.52	229.53
810.84	229.53
811.16	229.47
811.48	229.44
811.80	229.40
812.12	229.40
812.43	229.38
812.75	229.37
813.07	229.30
813.39	229.25
813.71	229.22
814.03	229.20
814.35	229.19
814.67	229.11
814.98	229.05
815.30	229.02
815.62	228.99
815.94	228.91
816.26	228.94
816.58	228.86
816.89	228.84
817.21	228.79
817.53	228.77
817.85	228.78
818.17	228.72
818.48	228.65
818.80	228.63
819.12	228.60
819.44	228.56
819.76	228.55
820.07	228.56
820.39	228.54
820.71	228.51
821.03	228.49
821.34	228.48
821.66	228.49
821.98	228.49
822.30	228.46
822.61	228.47
822.93	228.40
823.25	228.40
823.57	228.34
823.88	228.37
824.20	228.32
824.52	228.33
824.83	228.30
825.15	228.32
825.47	228.28
825.79	228.28
826.10	228.29
826.42	228.27
826.74	228.26
827.05	228.23
827.37	228.21
827.69	228.21
828.00	228.18
828.32	228.18
828.64	228.16
828.95	228.17
829.27	228.14
829.58	228.13
829.90	228.13
830.22	228.15
830.53	228.10
830.85	228.10
831.17	228.05
831.48	228.07
831.80	228.07
832.11	228.06
832.43	228.03
832.75	228.01
833.06	228.07
833.38	228.03
833.69	228.03
834.01	228.04
834.32	228.00
834.64	228.02
834.96	228.01
835.27	228.01
835.59	228.03
835.90	228.01
836.22	228.03
836.53	228.03
836.85	228.04
837.16	228.16
837.48	228.17
837.79	228.18
838.11	228.20
838.42	228.19
838.74	228.20
839.05	228.19
839.37	228.17
839.68	228.11
840.00	228.12
840.31	228.15
840.63	228.17
840.94	228.21
841.26	228.18
841.57	228.18
841.88	228.19
842.20	228.18
842.51	228.20
842.83	228.21
843.14	228.29
843.46	228.31
843.77	228.25
844.08	228.25
844.40	228.23
844.71	228.18
845.03	228.19
845.34	228.16
845.65	228.18
845.97	228.21
846.28	228.22
846.60	228.28
846.91	228.25
847.22	228.21
847.54	228.23
847.85	228.26
848.16	228.21
848.48	228.18
848.79	228.19
849.10	228.15
849.42	228.15
849.73	228.06
850.04	228.00
850.36	227.94
850.67	227.93
850.98	227.93
851.30	227.97
851.61	227.94
851.92	227.95
852.23	227.97
852.55	227.94
852.86	227.94
853.17	227.87
853.49	227.89
853.80	227.88
854.11	227.88
854.42	227.86
854.74	227.88
855.05	227.87
855.36	227.81
855.67	227.82
855.99	227.79
856.30	227.85
856.61	227.85
856.92	227.84
857.23	227.82
857.55	227.80
857.86	227.74
858.17	227.78
858.48	227.76
858.79	227.72
859.11	227.72
859.42	227.70
859.73	227.68
860.04	227.65
860.35	227.60
860.66	227.55
860.98	227.49
861.29	227.50
861.60	227.49
861.91	227.47
862.22	227.44
862.53	227.42
862.84	227.31
863.16	227.29
863.47	227.29
863.78	227.26
864.09	227.27
864.40	227.27
864.71	227.25
865.02	227.24
865.33	227.21
865.64	227.16
865.95	227.16
866.27	227.19
866.58	227.19
866.89	227.22
867.20	227.20
867.51	227.24
867.82	227.21
868.13	227.25
868.44	227.24
868.75	227.25
869.06	227.25
869.37	227.29
869.68	227.27
869.99	227.29
870.30	227.30
870.61	227.29
870.92	227.28
871.23	227.25
871.54	227.27
871.85	227.34
872.16	227.34
872.47	227.35
872.78	227.33
873.09	227.35
873.40	227.35
873.71	227.40
874.02	227.41
874.33	227.41
874.64	227.41
874.95	227.44
875.26	227.46
875.56	227.50
875.87	227.48
876.18	227.50
876.49	227.57
876.80	227.59
877.11	227.58
877.42	227.59
877.73	227.63
878.04	227.65
878.35	227.64
878.66	227.68
878.96	227.68
879.27	227.70
879.58	227.69
879.89	227.72
880.20	227.74
880.51	227.76
880.82	227.78
881.12	227.78
881.43	227.76
881.74	227.75
882.05	227.71
882.36	227.75
882.67	227.77
882.97	227.70
883.28	227.69
883.59	227.71
883.90	227.74
884.21	227.72
884.51	227.69
884.82	227.67
885.13	227.67
885.44	227.69
885.74	227.66
886.05	227.70
886.36	227.70
886.67	227.63
886.98	227.68
887.28	227.70
887.59	227.69
887.90	227.69
888.20	227.70
888.51	227.74
888.82	227.73
889.13	227.73
889.43	227.78
889.74	227.79
890.05	227.78
890.35	227.78
890.66	227.78
890.97	227.75
891.28	227.71
891.58	227.70
891.89	227.68
892.20	227.68
892.50	227.65
892.81	227.61
893.12	227.64
893.42	227.55
893.73	227.54
894.04	227.55
894.34	227.54
894.65	227.53
894.95	227.50
895.26	227.48
895.57	227.49
895.87	227.41
896.18	227.41
896.48	227.43
896.79	227.40
897.10	227.41
897.40	227.43
897.71	227.48
898.01	227.44
898.32	227.42
898.63	227.39
898.93	227.37
899.24	227.36
899.54	227.31
899.85	227.33
900.15	227.28
900.46	227.26
900.76	227.26
901.07	227.21
901.38	227.23
901.68	227.23
901.99	227.16
902.29	227.15
902.60	227.14
902.90	227.10
903.21	227.09
903.51	227.08
903.82	227.08
904.12	227.05
904.43	227.06
904.73	227.04
905.03	227.06
905.34	227.15
905.64	227.16
905.95	227.16
906.25	227.15
906.56	227.15
906.86	227.15
907.17	227.15
907.47	227.14
907.77	227.11
908.08	227.05
908.38	227.08
908.69	227.10
908.99	227.13
909.30	227.12
909.60	227.12
909.90	227.09
910.21	227.09
910.51	227.05
910.81	227.07
911.12	227.10
911.42	227.11
911.73	227.01
912.03	227.00
912.33	227.01
912.64	227.01
912.94	227.03
913.24	226.99
913.55	227.00
913.85	227.02
914.15	227.06
914.46	227.09
914.76	227.07
915.06	227.09
915.37	227.04
915.67	227.02
915.97	227.02
916.27	227.04
916.58	227.03
916.88	227.04
917.18	227.05
917.49	227.11
917.79	227.12
918.09	227.14
918.39	227.20
918.70	227.22
919.00	227.22
919.30	227.24
919.60	227.29
919.91	227.29
920.21	227.33
920.51	227.29
920.81	227.32
921.12	227.37
921.42	227.34
921.72	227.37
922.02	227.39
922.32	227.41
922.63	227.41
922.93	227.48
923.23	227.52
923.53	227.54
923.83	227.48
924.13	227.46
924.44	227.49
924.74	227.48
925.04	227.49
925.34	227.51
925.64	227.48
925.94	227.47
926.24	227.51
926.55	227.51
926.85	227.55
927.15	227.54
927.45	227.55
927.75	227.57
928.05	227.58
928.35	227.61
928.65	227.62
928.95	227.65
929.26	227.61
929.56	227.61
929.86	227.60
930.16	227.59
930.46	227.59
930.76	227.58
931.06	227.54
931.36	227.52
931.66	227.53
931.96	227.55
932.26	227.52
932.56	227.47
932.86	227.45
933.16	227.42
933.46	227.39
933.76	227.38
934.06	227.38
934.36	227.40
934.66	227.37
934.96	227.34
935.26	227.33
935.56	227.33
935.86	227.27
936.16	227.30
936.46	227.27
936.76	227.27
937.06	227.23
937.36	227.22
937.66	227.23
937.96	227.20
938.26	227.13
938.56	227.15
938.86	227.14
939.16	227.14
939.46	227.12
939.76	227.12
940.06	227.08
940.35	227.04
940.65	226.97
940.95	226.97
941.25	226.94
941.55	226.90
941.85	226.89
942.15	226.91
942.45	226.88
942.75	226.87
943.04	226.86
943.34	226.87
943.64	226.86
943.94	226.83
944.24	226.85
944.54	226.88
944.84	226.86
945.13	226.84
945.43	226.82
945.73	226.82
946.03	226.82
946.33	226.79
946.62	226.80
946.92	226.80
947.22	226.80
947.52	226.81
947.82	226.86
948.11	226.88
948.41	226.85
948.71	226.84
949.01	226.84
949.31	226.83
949.60	226.84
949.90	226.86
950.20	226.88
950.50	226.88
950.79	226.87
951.09	226.87
951.39	226.88
951.69	226.86
951.98	226.92
952.28	226.92
952.58	226.93
952.87	226.96
953.17	226.98
953.47	227.01
953.76	227.02
954.06	226.99
954.36	226.94
954.66	226.96
954.95	226.96
955.25	226.98
955.55	227.00
955.84	226.96
956.14	227.02
956.44	227.04
956.73	227.01
957.03	227.04
957.32	227.05
957.62	227.05
957.92	227.10
958.21	227.06
958.51	227.18
958.81	227.20
959.10	227.20
959.40	227.23
959.69	227.27
959.99	227.31
960.29	227.32
960.58	227.35
960.88	227.40
961.17	227.44
961.47	227.44
961.76	227.40
962.06	227.45
962.36	227.37
962.65	227.37
962.95	227.41
963.24	227.43
963.54	227.43
963.83	227.44
964.13	227.44
964.42	227.44
964.72	227.36
965.01	227.36
965.31	227.37
965.60	227.33
965.90	227.36
966.19	227.34
966.49	227.31
966.78	227.28
967.08	227.28
967.37	227.26
967.67	227.26
967.96	227.31
968.26	227.30
968.55	227.33
968.85	227.31
969.14	227.28
969.43	227.27
969.73	227.25
970.02	227.25
970.32	227.25
970.61	227.21
970.91	227.22
971.20	227.21
971.49	227.16
971.79	227.15
972.08	227.08
972.38	227.04
972.67	227.00
972.96	227.04
973.26	226.99
973.55	227.00
973.85	226.99
974.14	226.96
974.43	226.96
974.73	226.92
975.02	226.91
975.31	226.91
975.61	226.88
975.90	226.90
976.19	226.92
976.49	226.89
976.78	226.88
977.07	226.86
977.37	226.89
977.66	226.90
977.95	226.90
978.24	226.86
978.54	226.90
978.83	226.92
979.12	226.90
979.42	226.89
979.71	226.86
980.00	226.82
980.29	226.82
980.59	226.76
980.88	226.80
981.17	226.79
981.46	226.78
981.76	226.78
982.05	226.77
982.34	226.74
982.63	226.76
982.93	226.78
983.22	226.81
983.51	226.79
983.80	226.78
984.09	226.78
984.39	226.83
984.68	226.81
984.97	226.82
985.26	226.79
985.55	226.80
985.85	226.77
986.14	226.80
986.43	226.82
986.72	226.82
987.01	226.77
987.30	226.79
987.59	226.83
987.89	226.83
988.18	226.82
988.47	226.82
988.76	226.82
989.05	226.82
989.34	226.79
989.63	226.81
989.92	226.81
990.22	226.81
990.51	226.79
990.80	226.78
991.09	226.82
991.38	226.86
991.67	226.88
991.96	226.90
992.25	226.94
992.54	226.90
992.83	226.96
993.12	226.98
993.41	226.97
993.70	226.98
993.99	227.02
994.28	227.04
994.58	227.09
994.87	227.08
995.16	227.08
995.45	227.08
995.74	227.05
996.03	227.10
996.32	227.11
996.61	227.15
996.90	227.16
997.19	227.15
997.48	227.14
997.77	227.12
998.06	227.17
998.34	227.18
998.63	227.22
998.92	227.23
999.21	227.27
999.50	227.29
999.79	227.29
1000.08	227.27
1000.37	227.27
1000.66	227.20
1000.95	227.24
1001.24	227.23
1001.53	227.25
1001.82	227.24
1002.11	227.21
1002.40	227.24
1002.68	227.26
1002.97	227.33
1003.26	227.32
1003.55	227.33
1003.84	227.36
1004.13	227.36
1004.42	227.34
1004.71	227.31
1004.99	227.27
1005.28	227.27
1005.57	227.26
1005.86	227.23
1006.15	227.22
1006.44	227.17
1006.72	227.22
1007.01	227.19
1007.30	227.21
1007.59	227.17
1007.88	227.22
1008.17	227.22
1008.45	227.19
1008.74	227.15
1009.03	227.09
1009.32	227.09
1009.60	227.06
1009.89	227.05
1010.18	226.98
1010.47	226.97
1010.76	226.98
1011.04	227.01
1011.33	226.98
1011.62	226.99
1011.91	226.99
1012.19	227.01
1012.48	227.03
1012.77	227.03
1013.05	227.06
1013.34	227.03
1013.63	227.01
1013.92	226.99
1014.20	226.98
1014.49	226.98
1014.78	226.97
1015.06	226.91
1015.35	226.90
1015.64	226.92
1015.92	226.91
1016.21	226.93
1016.50	226.90
1016.78	226.90
1017.07	226.89
1017.36	226.86
1017.64	226.83
1017.93	226.85
1018.22	226.84
1018.50	226.82
1018.79	226.80
1019.08	226.78
1019.36	226.79
1019.65	226.77
1019.93	226.81
1020.22	226.84
1020.51	226.87
1020.79	226.85
1021.08	226.93
1021.36	226.59
1021.65	226.92
1021.94	227.31
1022.22	226.62
1022.51	226.09
1022.79	227.62
1023.08	227.20
1023.36	228.00
1023.65	226.35
>>>>>End Processed Spectral Data<<<<<
