SpectraSuite Data File
++++++++++++++++++++++++++++++++++++
Date: Fri Feb 01 15:20:38 EST 2013
User: group
Dark Spectrum Present: No
Reference Spectrum Present: No
Number of Sampled Component Spectra: 1
Spectrometers: USB2E7196
Integration Time (usec): 35000 (USB2E7196)
Spectra Averaged: 100 (USB2E7196)
Boxcar Smoothing: 10 (USB2E7196)
Correct for Electrical Dark: No (USB2E7196)
Strobe/Lamp Enabled: No (USB2E7196)
Correct for Detector Non-linearity: No (USB2E7196)
Correct for Stray Light: No (USB2E7196)
Number of Pixels in Processed Spectrum: 2048
>>>>>Begin Processed Spectral Data<<<<<
339.09	0.00
339.48	215.22
339.86	215.78
340.24	217.75
340.63	219.54
341.01	222.45
341.39	221.60
341.78	223.99
342.16	224.40
342.54	224.59
342.93	213.37
343.31	224.15
343.69	224.72
344.07	225.22
344.46	225.66
344.84	226.01
345.22	226.25
345.60	226.52
345.99	226.70
346.37	226.82
346.75	226.93
347.13	226.98
347.52	227.07
347.90	227.16
348.28	227.20
348.66	227.28
349.05	227.29
349.43	227.34
349.81	227.38
350.19	227.44
350.57	227.52
350.96	227.60
351.34	227.68
351.72	227.74
352.10	227.85
352.48	227.92
352.87	227.98
353.25	228.05
353.63	228.10
354.01	228.12
354.39	228.19
354.77	228.29
355.15	228.42
355.54	228.45
355.92	228.48
356.30	228.54
356.68	228.64
357.06	228.71
357.44	228.78
357.82	228.85
358.20	228.93
358.58	228.98
358.97	229.01
359.35	229.06
359.73	229.12
360.11	229.16
360.49	229.18
360.87	229.25
361.25	229.30
361.63	229.38
362.01	229.44
362.39	229.47
362.77	229.50
363.15	229.49
363.53	229.50
363.91	229.52
364.29	229.55
364.67	229.48
365.05	229.52
365.43	229.50
365.81	229.49
366.19	229.53
366.57	229.54
366.95	229.57
367.33	229.57
367.71	229.57
368.09	229.58
368.47	229.57
368.85	229.53
369.23	229.54
369.61	229.47
369.99	229.47
370.37	229.46
370.75	229.45
371.13	229.40
371.51	229.35
371.89	229.31
372.27	229.24
372.65	229.20
373.03	229.09
373.41	229.04
373.78	228.96
374.16	228.83
374.54	228.74
374.92	228.63
375.30	228.56
375.68	228.47
376.06	228.38
376.44	228.31
376.82	228.22
377.19	228.11
377.57	228.07
377.95	227.99
378.33	227.93
378.71	227.79
379.09	227.75
379.47	227.71
379.84	227.64
380.22	227.58
380.60	227.47
380.98	227.39
381.36	227.32
381.73	227.26
382.11	227.21
382.49	227.16
382.87	227.07
383.25	227.01
383.62	227.06
384.00	226.99
384.38	226.97
384.76	226.96
385.13	226.95
385.51	226.88
385.89	226.81
386.27	226.76
386.64	226.72
387.02	226.69
387.40	226.64
387.78	226.61
388.15	226.60
388.53	226.58
388.91	226.56
389.29	226.54
389.66	226.55
390.04	226.57
390.42	226.56
390.79	226.61
391.17	226.61
391.55	226.49
391.92	226.48
392.30	226.48
392.68	226.45
393.05	226.47
393.43	226.47
393.81	226.50
394.18	226.51
394.56	226.56
394.94	226.60
395.31	226.64
395.69	226.71
396.06	226.77
396.44	226.85
396.82	226.88
397.19	226.98
397.57	227.02
397.95	227.07
398.32	227.17
398.70	227.21
399.07	227.30
399.45	227.39
399.82	227.48
400.20	227.56
400.58	227.64
400.95	227.69
401.33	227.82
401.70	227.97
402.08	228.05
402.45	228.16
402.83	228.26
403.20	228.36
403.58	228.44
403.95	228.57
404.33	228.67
404.71	228.81
405.08	228.99
405.46	229.14
405.83	229.29
406.21	229.46
406.58	229.65
406.96	229.82
407.33	229.99
407.70	230.21
408.08	230.49
408.45	230.73
408.83	230.95
409.20	231.18
409.58	231.35
409.95	231.64
410.33	231.92
410.70	232.19
411.08	232.48
411.45	232.80
411.82	233.14
412.20	233.51
412.57	233.93
412.95	234.24
413.32	234.62
413.69	235.02
414.07	235.43
414.44	235.90
414.82	236.36
415.19	236.95
415.56	237.49
415.94	238.03
416.31	238.65
416.68	239.29
417.06	240.01
417.43	240.69
417.81	241.43
418.18	242.23
418.55	243.02
418.93	243.90
419.30	244.78
419.67	245.64
420.04	246.58
420.42	247.57
420.79	248.75
421.16	249.88
421.54	251.06
421.91	252.24
422.28	253.46
422.66	254.76
423.03	256.03
423.40	257.34
423.77	258.75
424.15	260.16
424.52	261.63
424.89	263.23
425.26	264.77
425.64	266.22
426.01	267.75
426.38	269.40
426.75	271.08
427.13	272.80
427.50	274.61
427.87	276.51
428.24	278.36
428.61	280.05
428.99	281.97
429.36	284.09
429.73	286.12
430.10	288.12
430.47	290.19
430.85	292.31
431.22	294.57
431.59	296.95
431.96	299.21
432.33	301.69
432.70	304.01
433.08	306.87
433.45	309.50
433.82	312.14
434.19	315.05
434.56	317.86
434.93	320.54
435.30	323.18
435.68	326.07
436.05	328.93
436.42	331.81
436.79	334.32
437.16	336.99
437.53	339.87
437.90	342.73
438.27	345.47
438.64	348.32
439.01	350.90
439.38	353.15
439.75	355.32
440.13	357.80
440.50	360.17
440.87	362.03
441.24	364.04
441.61	366.19
441.98	367.70
442.35	369.51
442.72	371.35
443.09	373.19
443.46	374.22
443.83	374.83
444.20	375.29
444.57	376.16
444.94	376.47
445.31	376.81
445.68	377.15
446.05	377.22
446.42	376.82
446.79	376.40
447.16	375.93
447.53	375.60
447.90	374.46
448.27	373.29
448.64	371.67
449.01	370.49
449.37	368.54
449.74	366.63
450.11	364.35
450.48	361.85
450.85	359.27
451.22	357.10
451.59	355.05
451.96	353.11
452.33	350.54
452.70	348.14
453.07	345.31
453.43	342.38
453.80	339.59
454.17	336.91
454.54	334.37
454.91	331.71
455.28	329.03
455.65	326.56
456.02	324.11
456.38	321.96
456.75	319.29
457.12	317.01
457.49	314.75
457.86	312.60
458.23	310.80
458.59	308.76
458.96	306.70
459.33	304.81
459.70	302.91
460.07	301.40
460.43	299.70
460.80	298.10
461.17	296.68
461.54	295.18
461.91	293.75
462.27	292.32
462.64	291.02
463.01	289.68
463.38	288.34
463.74	286.95
464.11	285.80
464.48	284.77
464.85	283.65
465.21	282.80
465.58	281.85
465.95	280.70
466.32	279.76
466.68	278.81
467.05	277.95
467.42	277.07
467.78	276.11
468.15	275.24
468.52	274.58
468.88	273.69
469.25	272.90
469.62	272.28
469.98	271.60
470.35	270.96
470.72	270.36
471.08	269.68
471.45	269.11
471.82	268.53
472.18	267.89
472.55	267.45
472.92	266.88
473.28	266.43
473.65	265.99
474.02	265.55
474.38	265.19
474.75	264.79
475.11	264.41
475.48	264.16
475.85	263.92
476.21	263.64
476.58	263.45
476.94	263.32
477.31	263.12
477.67	262.92
478.04	262.82
478.41	262.75
478.77	262.82
479.14	262.74
479.50	262.77
479.87	262.85
480.23	262.90
480.60	262.99
480.96	263.04
481.33	263.25
481.69	263.47
482.06	263.63
482.42	263.86
482.79	264.14
483.15	264.44
483.52	264.82
483.88	265.16
484.25	265.56
484.61	265.98
484.98	266.43
485.34	267.00
485.71	267.57
486.07	268.20
486.44	268.73
486.80	269.48
487.17	270.24
487.53	271.07
487.90	271.97
488.26	272.90
488.62	273.93
488.99	274.92
489.35	275.95
489.72	277.10
490.08	278.28
490.44	279.53
490.81	280.86
491.17	282.20
491.54	283.71
491.90	285.27
492.26	286.92
492.63	288.62
492.99	290.40
493.36	292.29
493.72	294.28
494.08	296.44
494.45	298.66
494.81	301.01
495.17	303.43
495.54	305.99
495.90	308.64
496.26	311.42
496.63	314.36
496.99	317.49
497.35	320.73
497.72	324.14
498.08	327.62
498.44	331.26
498.80	335.16
499.17	339.18
499.53	343.33
499.89	347.69
500.26	352.24
500.62	356.92
500.98	361.86
501.34	366.95
501.71	372.22
502.07	377.67
502.43	383.28
502.79	389.14
503.16	395.16
503.52	401.47
503.88	407.85
504.24	414.43
504.60	421.32
504.97	428.50
505.33	435.81
505.69	443.54
506.05	451.33
506.41	459.23
506.78	467.40
507.14	475.88
507.50	484.58
507.86	493.62
508.22	502.80
508.59	511.99
508.95	521.56
509.31	531.37
509.67	541.46
510.03	551.75
510.39	562.26
510.75	573.12
511.12	584.12
511.48	595.41
511.84	606.86
512.20	618.38
512.56	630.32
512.92	642.55
513.28	654.88
513.64	667.40
514.00	680.07
514.37	692.99
514.73	706.05
515.09	719.10
515.45	732.40
515.81	745.99
516.17	760.00
516.53	774.11
516.89	788.27
517.25	802.50
517.61	817.00
517.97	831.47
518.33	845.92
518.69	860.72
519.05	875.78
519.41	891.04
519.77	906.62
520.13	922.06
520.49	937.45
520.85	952.95
521.21	968.71
521.57	985.06
521.93	1000.90
522.29	1017.36
522.65	1033.65
523.01	1049.97
523.37	1066.09
523.73	1082.40
524.09	1098.54
524.45	1115.02
524.81	1131.62
525.17	1148.52
525.53	1165.55
525.89	1182.41
526.25	1199.23
526.61	1215.72
526.97	1232.47
527.33	1248.99
527.68	1265.77
528.04	1282.30
528.40	1298.99
528.76	1316.18
529.12	1332.85
529.48	1349.85
529.84	1365.98
530.20	1382.65
530.56	1399.76
530.91	1417.12
531.27	1433.93
531.63	1450.53
531.99	1467.12
532.35	1483.21
532.71	1499.15
533.07	1515.42
533.42	1531.45
533.78	1547.54
534.14	1563.89
534.50	1579.30
534.86	1595.28
535.21	1610.37
535.57	1626.35
535.93	1641.85
536.29	1656.62
536.65	1671.73
537.00	1686.59
537.36	1701.92
537.72	1716.68
538.08	1731.15
538.44	1745.06
538.79	1759.00
539.15	1772.80
539.51	1786.62
539.87	1800.98
540.22	1814.78
540.58	1828.68
540.94	1842.13
541.29	1855.12
541.65	1867.94
542.01	1881.39
542.37	1893.77
542.72	1906.32
543.08	1918.14
543.44	1930.72
543.79	1942.08
544.15	1953.09
544.51	1964.65
544.87	1975.63
545.22	1986.31
545.58	1996.53
545.94	2006.40
546.29	2016.29
546.65	2025.98
547.01	2035.21
547.36	2044.11
547.72	2052.62
548.07	2060.46
548.43	2068.54
548.79	2076.68
549.14	2084.14
549.50	2091.45
549.86	2099.16
550.21	2106.56
550.57	2113.80
550.92	2120.25
551.28	2127.29
551.64	2134.32
551.99	2140.82
552.35	2146.91
552.70	2153.15
553.06	2159.06
553.41	2165.30
553.77	2171.38
554.13	2177.62
554.48	2183.71
554.84	2189.01
555.19	2194.32
555.55	2199.43
555.90	2203.97
556.26	2208.80
556.61	2213.56
556.97	2217.61
557.32	2221.74
557.68	2225.84
558.03	2230.18
558.39	2233.97
558.74	2238.57
559.10	2242.40
559.45	2246.08
559.81	2250.50
560.16	2254.37
560.52	2257.50
560.87	2260.97
561.23	2263.58
561.58	2266.50
561.94	2269.17
562.29	2271.80
562.64	2274.37
563.00	2276.84
563.35	2280.33
563.71	2283.37
564.06	2286.51
564.42	2289.53
564.77	2291.99
565.12	2294.01
565.48	2295.74
565.83	2297.42
566.19	2298.73
566.54	2299.69
566.89	2300.76
567.25	2301.12
567.60	2302.37
567.96	2303.97
568.31	2304.92
568.66	2305.88
569.02	2306.42
569.37	2306.52
569.72	2306.96
570.08	2307.00
570.43	2306.92
570.78	2306.19
571.14	2304.45
571.49	2303.03
571.84	2302.57
572.20	2301.31
572.55	2300.41
572.90	2298.95
573.26	2297.55
573.61	2295.66
573.96	2293.79
574.31	2290.73
574.67	2287.75
575.02	2283.87
575.37	2280.43
575.72	2276.44
576.08	2273.17
576.43	2269.67
576.78	2265.92
577.13	2262.96
577.49	2259.92
577.84	2256.52
578.19	2252.73
578.54	2249.16
578.90	2244.96
579.25	2239.38
579.60	2234.32
579.95	2229.27
580.30	2224.08
580.66	2218.85
581.01	2213.93
581.36	2208.91
581.71	2204.65
582.06	2200.20
582.42	2195.74
582.77	2190.63
583.12	2185.98
583.47	2181.00
583.82	2176.00
584.17	2170.74
584.53	2164.91
584.88	2159.12
585.23	2153.19
585.58	2147.71
585.93	2142.29
586.28	2137.46
586.63	2132.29
586.98	2127.08
587.34	2122.26
587.69	2117.30
588.04	2111.91
588.39	2106.12
588.74	2099.63
589.09	2093.42
589.44	2086.44
589.79	2080.34
590.14	2074.65
590.49	2067.92
590.84	2061.45
591.19	2055.30
591.54	2048.81
591.89	2041.42
592.25	2034.58
592.60	2027.33
592.95	2019.62
593.30	2012.12
593.65	2004.34
594.00	1997.19
594.35	1990.03
594.70	1981.90
595.05	1974.60
595.40	1967.31
595.75	1959.81
596.10	1953.48
596.45	1946.54
596.80	1940.43
597.15	1933.66
597.50	1926.29
597.85	1919.91
598.19	1913.20
598.54	1906.06
598.89	1899.44
599.24	1893.65
599.59	1886.88
599.94	1880.54
600.29	1874.25
600.64	1867.57
600.99	1859.98
601.34	1853.18
601.69	1846.20
602.04	1839.19
602.39	1831.69
602.74	1824.85
603.08	1817.99
603.43	1811.22
603.78	1803.97
604.13	1796.48
604.48	1789.27
604.83	1782.45
605.18	1775.24
605.53	1767.32
605.87	1759.21
606.22	1751.84
606.57	1743.75
606.92	1736.36
607.27	1729.25
607.62	1722.21
607.96	1715.05
608.31	1708.51
608.66	1700.80
609.01	1693.13
609.36	1685.61
609.70	1677.72
610.05	1669.59
610.40	1661.84
610.75	1653.53
611.10	1645.81
611.44	1637.66
611.79	1629.68
612.14	1621.03
612.49	1612.11
612.83	1603.80
613.18	1595.78
613.53	1587.69
613.88	1579.19
614.22	1570.90
614.57	1562.36
614.92	1554.27
615.27	1546.59
615.61	1538.29
615.96	1530.27
616.31	1522.64
616.65	1515.30
617.00	1507.66
617.35	1500.08
617.70	1491.64
618.04	1483.10
618.39	1474.88
618.74	1467.22
619.08	1458.88
619.43	1451.30
619.78	1444.27
620.12	1436.98
620.47	1429.38
620.82	1421.26
621.16	1413.83
621.51	1406.29
621.85	1398.61
622.20	1390.05
622.55	1381.71
622.89	1373.79
623.24	1366.21
623.59	1358.87
623.93	1351.26
624.28	1344.07
624.62	1336.46
624.97	1329.31
625.32	1322.59
625.66	1315.60
626.01	1308.24
626.35	1300.71
626.70	1292.98
627.04	1285.21
627.39	1277.49
627.73	1270.06
628.08	1263.04
628.43	1255.65
628.77	1248.25
629.12	1240.75
629.46	1233.66
629.81	1226.27
630.15	1219.12
630.50	1211.76
630.84	1203.54
631.19	1195.71
631.53	1188.30
631.88	1180.76
632.22	1173.28
632.57	1166.07
632.91	1158.52
633.26	1151.24
633.60	1144.08
633.95	1137.04
634.29	1130.16
634.64	1123.47
634.98	1116.12
635.32	1109.09
635.67	1102.65
636.01	1096.01
636.36	1089.22
636.70	1082.79
637.05	1076.20
637.39	1069.72
637.73	1063.17
638.08	1057.32
638.42	1051.32
638.77	1044.74
639.11	1038.16
639.45	1031.79
639.80	1025.07
640.14	1018.68
640.49	1012.11
640.83	1005.74
641.17	999.44
641.52	993.10
641.86	986.67
642.20	980.88
642.55	974.57
642.89	967.96
643.23	961.47
643.58	955.64
643.92	949.29
644.26	943.21
644.61	937.15
644.95	931.03
645.29	924.39
645.64	917.62
645.98	911.36
646.32	905.51
646.66	899.43
647.01	893.64
647.35	887.95
647.69	882.16
648.04	876.64
648.38	870.80
648.72	864.67
649.06	858.64
649.41	852.72
649.75	846.68
650.09	840.74
650.43	834.94
650.78	828.77
651.12	822.89
651.46	817.14
651.80	811.37
652.14	806.06
652.49	800.75
652.83	795.64
653.17	789.91
653.51	784.18
653.85	778.80
654.20	773.12
654.54	767.11
654.88	761.40
655.22	755.52
655.56	749.87
655.90	744.41
656.25	739.13
656.59	733.77
656.93	728.73
657.27	723.66
657.61	718.23
657.95	713.18
658.29	708.11
658.64	702.92
658.98	697.65
659.32	692.20
659.66	686.97
660.00	681.69
660.34	676.74
660.68	671.85
661.02	666.83
661.36	662.16
661.70	657.75
662.05	653.35
662.39	649.02
662.73	644.58
663.07	640.31
663.41	635.90
663.75	631.43
664.09	626.89
664.43	622.51
664.77	618.33
665.11	614.06
665.45	610.01
665.79	605.96
666.13	601.86
666.47	597.73
666.81	593.53
667.15	589.43
667.49	585.61
667.83	581.85
668.17	577.92
668.51	573.83
668.85	569.82
669.19	566.02
669.53	562.10
669.87	558.26
670.21	554.57
670.55	550.92
670.89	547.53
671.23	544.15
671.57	540.65
671.91	537.19
672.25	533.71
672.58	530.12
672.92	526.76
673.26	523.64
673.60	520.60
673.94	517.53
674.28	514.56
674.62	511.55
674.96	508.43
675.30	505.51
675.64	502.67
675.97	499.87
676.31	497.00
676.65	494.19
676.99	491.48
677.33	488.55
677.67	485.70
678.01	482.65
678.34	479.59
678.68	476.72
679.02	473.86
679.36	471.12
679.70	468.42
680.04	465.63
680.37	462.73
680.71	459.88
681.05	457.35
681.39	454.66
681.73	452.04
682.06	449.51
682.40	447.00
682.74	444.46
683.08	441.92
683.42	439.34
683.75	436.82
684.09	434.29
684.43	431.89
684.77	429.48
685.10	427.15
685.44	424.85
685.78	422.57
686.12	420.35
686.45	418.06
686.79	415.77
687.13	413.62
687.46	411.44
687.80	409.31
688.14	407.06
688.48	405.06
688.81	402.79
689.15	400.67
689.49	398.48
689.82	396.37
690.16	394.31
690.50	392.35
690.83	390.35
691.17	388.42
691.51	386.50
691.84	384.69
692.18	382.73
692.52	380.75
692.85	378.78
693.19	376.92
693.52	375.10
693.86	373.29
694.20	371.50
694.53	369.73
694.87	367.88
695.21	366.12
695.54	364.26
695.88	362.60
696.21	360.85
696.55	359.24
696.88	357.56
697.22	355.93
697.56	354.32
697.89	352.69
698.23	351.05
698.56	349.43
698.90	347.79
699.23	346.18
699.57	344.68
699.90	343.20
700.24	341.64
700.58	340.13
700.91	338.63
701.25	337.13
701.58	335.78
701.92	334.41
702.25	333.02
702.59	331.66
702.92	330.29
703.26	329.00
703.59	327.66
703.93	326.50
704.26	325.20
704.60	323.90
704.93	322.64
705.26	321.36
705.60	320.22
705.93	319.06
706.27	318.02
706.60	316.97
706.94	315.89
707.27	314.82
707.61	313.78
707.94	312.75
708.27	311.73
708.61	310.64
708.94	309.64
709.28	308.64
709.61	307.69
709.94	306.74
710.28	305.71
710.61	304.80
710.95	303.70
711.28	302.80
711.61	301.88
711.95	300.95
712.28	300.04
712.61	299.05
712.95	298.15
713.28	297.28
713.61	296.39
713.95	295.49
714.28	294.63
714.61	293.72
714.95	292.90
715.28	292.05
715.61	291.16
715.95	290.29
716.28	289.42
716.61	288.58
716.95	287.82
717.28	287.15
717.61	286.38
717.94	285.67
718.28	284.89
718.61	284.15
718.94	283.47
719.27	282.79
719.61	282.15
719.94	281.45
720.27	280.71
720.60	280.05
720.94	279.40
721.27	278.82
721.60	278.28
721.93	277.67
722.27	277.09
722.60	276.59
722.93	276.05
723.26	275.53
723.59	274.98
723.93	274.43
724.26	273.85
724.59	273.30
724.92	272.75
725.25	272.26
725.59	271.78
725.92	271.26
726.25	270.78
726.58	270.31
726.91	269.84
727.24	269.40
727.57	268.93
727.91	268.44
728.24	267.97
728.57	267.47
728.90	267.05
729.23	266.58
729.56	266.13
729.89	265.65
730.22	265.19
730.55	264.72
730.89	264.27
731.22	263.78
731.55	263.34
731.88	262.98
732.21	262.53
732.54	262.09
732.87	261.69
733.20	261.26
733.53	260.85
733.86	260.47
734.19	260.06
734.52	259.65
734.85	259.33
735.18	258.90
735.51	258.54
735.84	258.12
736.17	257.74
736.50	257.31
736.83	257.05
737.16	256.69
737.49	256.38
737.82	256.05
738.15	255.73
738.48	255.38
738.81	255.01
739.14	254.70
739.47	254.35
739.80	254.02
740.13	253.73
740.46	253.40
740.79	253.07
741.12	252.75
741.45	252.45
741.78	252.10
742.11	251.82
742.44	251.48
742.77	251.21
743.10	250.89
743.43	250.63
743.75	250.26
744.08	250.12
744.41	249.83
744.74	249.54
745.07	249.31
745.40	249.05
745.73	248.80
746.06	248.53
746.39	248.29
746.71	248.02
747.04	247.78
747.37	247.52
747.70	247.28
748.03	247.09
748.36	246.88
748.68	246.62
749.01	246.35
749.34	246.13
749.67	245.90
750.00	245.68
750.33	245.51
750.65	245.28
750.98	244.96
751.31	244.72
751.64	244.50
751.97	244.26
752.29	244.05
752.62	243.80
752.95	243.62
753.28	243.43
753.60	243.25
753.93	243.06
754.26	242.88
754.59	242.66
754.91	242.46
755.24	242.28
755.57	242.09
755.90	241.94
756.22	241.78
756.55	241.61
756.88	241.42
757.20	241.20
757.53	241.01
757.86	240.85
758.19	240.69
758.51	240.55
758.84	240.39
759.17	240.20
759.49	240.07
759.82	239.93
760.15	239.76
760.47	239.58
760.80	239.40
761.13	239.26
761.45	239.12
761.78	238.94
762.11	238.76
762.43	238.66
762.76	238.50
763.08	238.36
763.41	238.23
763.74	238.14
764.06	238.01
764.39	237.89
764.71	237.75
765.04	237.60
765.37	237.47
765.69	237.35
766.02	237.23
766.34	237.10
766.67	236.99
767.00	236.88
767.32	236.83
767.65	236.80
767.97	236.69
768.30	236.58
768.62	236.47
768.95	236.37
769.27	236.22
769.60	236.14
769.92	235.97
770.25	235.85
770.57	235.72
770.90	235.64
771.22	235.52
771.55	235.40
771.87	235.34
772.20	235.24
772.52	235.19
772.85	235.22
773.17	235.15
773.50	234.99
773.82	234.88
774.15	234.75
774.47	234.61
774.80	234.50
775.12	234.40
775.45	234.29
775.77	234.20
776.09	234.14
776.42	234.02
776.74	234.02
777.07	233.92
777.39	233.89
777.72	233.78
778.04	233.74
778.36	233.67
778.69	233.59
779.01	233.53
779.33	233.41
779.66	233.24
779.98	233.15
780.31	233.10
780.63	233.08
780.95	233.02
781.28	232.93
781.60	232.85
781.92	232.79
782.25	232.73
782.57	232.64
782.89	232.54
783.22	232.52
783.54	232.42
783.86	232.37
784.19	232.25
784.51	232.21
784.83	232.15
785.16	232.10
785.48	232.06
785.80	231.99
786.12	231.93
786.45	231.87
786.77	231.84
787.09	231.79
787.42	231.66
787.74	231.64
788.06	231.63
788.38	231.61
788.71	231.57
789.03	231.55
789.35	231.55
789.67	231.52
789.99	231.47
790.32	231.42
790.64	231.39
790.96	231.46
791.28	231.38
791.61	231.33
791.93	231.28
792.25	231.23
792.57	231.27
792.89	231.19
793.21	231.19
793.54	231.15
793.86	231.12
794.18	231.14
794.50	231.04
794.82	230.96
795.14	230.90
795.47	230.87
795.79	230.84
796.11	230.76
796.43	230.73
796.75	230.70
797.07	230.67
797.39	230.63
797.71	230.50
798.04	230.47
798.36	230.43
798.68	230.41
799.00	230.38
799.32	230.29
799.64	230.29
799.96	230.25
800.28	230.22
800.60	230.21
800.92	230.17
801.24	230.19
801.56	230.18
801.89	230.18
802.21	230.14
802.53	230.10
802.85	230.12
803.17	230.13
803.49	230.10
803.81	230.07
804.13	230.04
804.45	229.99
804.77	229.98
805.09	229.93
805.41	229.92
805.73	229.91
806.05	229.84
806.37	229.83
806.69	229.77
807.01	229.74
807.33	229.69
807.65	229.66
807.97	229.65
808.28	229.59
808.60	229.55
808.92	229.54
809.24	229.57
809.56	229.52
809.88	229.49
810.20	229.48
810.52	229.48
810.84	229.47
811.16	229.45
811.48	229.41
811.80	229.45
812.12	229.40
812.43	229.39
812.75	229.41
813.07	229.37
813.39	229.38
813.71	229.33
814.03	229.30
814.35	229.26
814.67	229.20
814.98	229.18
815.30	229.15
815.62	229.10
815.94	229.00
816.26	229.04
816.58	229.01
816.89	228.98
817.21	228.95
817.53	228.91
817.85	228.91
818.17	228.90
818.48	228.83
818.80	228.83
819.12	228.77
819.44	228.70
819.76	228.67
820.07	228.63
820.39	228.64
820.71	228.60
821.03	228.62
821.34	228.60
821.66	228.61
821.98	228.61
822.30	228.59
822.61	228.65
822.93	228.58
823.25	228.55
823.57	228.51
823.88	228.50
824.20	228.49
824.52	228.52
824.83	228.50
825.15	228.47
825.47	228.44
825.79	228.42
826.10	228.42
826.42	228.41
826.74	228.39
827.05	228.37
827.37	228.35
827.69	228.28
828.00	228.26
828.32	228.23
828.64	228.19
828.95	228.21
829.27	228.17
829.58	228.15
829.90	228.11
830.22	228.13
830.53	228.10
830.85	228.07
831.17	228.01
831.48	227.97
831.80	227.96
832.11	227.99
832.43	227.96
832.75	227.96
833.06	228.00
833.38	228.01
833.69	227.99
834.01	228.03
834.32	228.04
834.64	228.06
834.96	228.06
835.27	228.05
835.59	228.03
835.90	228.05
836.22	228.01
836.53	228.00
836.85	227.99
837.16	228.07
837.48	228.08
837.79	228.11
838.11	228.12
838.42	228.15
838.74	228.14
839.05	228.16
839.37	228.16
839.68	228.11
840.00	228.08
840.31	228.12
840.63	228.10
840.94	228.11
841.26	228.10
841.57	228.09
841.88	228.12
842.20	228.09
842.51	228.05
842.83	228.07
843.14	228.18
843.46	228.16
843.77	228.10
844.08	228.09
844.40	228.04
844.71	228.04
845.03	228.03
845.34	228.03
845.65	228.02
845.97	228.02
846.28	228.04
846.60	228.04
846.91	228.02
847.22	228.01
847.54	227.98
847.85	227.99
848.16	227.99
848.48	227.97
848.79	228.04
849.10	228.05
849.42	228.03
849.73	227.92
850.04	227.94
850.36	227.92
850.67	227.96
850.98	227.97
851.30	227.98
851.61	227.94
851.92	227.92
852.23	227.94
852.55	227.92
852.86	227.89
853.17	227.93
853.49	227.93
853.80	227.93
854.11	227.95
854.42	227.95
854.74	227.93
855.05	227.93
855.36	227.85
855.67	227.82
855.99	227.84
856.30	227.95
856.61	227.94
856.92	227.89
857.23	227.84
857.55	227.84
857.86	227.79
858.17	227.82
858.48	227.78
858.79	227.75
859.11	227.72
859.42	227.70
859.73	227.64
860.04	227.60
860.35	227.56
860.66	227.53
860.98	227.49
861.29	227.47
861.60	227.45
861.91	227.47
862.22	227.48
862.53	227.44
862.84	227.32
863.16	227.31
863.47	227.33
863.78	227.31
864.09	227.30
864.40	227.33
864.71	227.34
865.02	227.35
865.33	227.33
865.64	227.31
865.95	227.32
866.27	227.37
866.58	227.37
866.89	227.36
867.20	227.34
867.51	227.33
867.82	227.33
868.13	227.36
868.44	227.32
868.75	227.31
869.06	227.31
869.37	227.32
869.68	227.29
869.99	227.29
870.30	227.30
870.61	227.32
870.92	227.31
871.23	227.31
871.54	227.32
871.85	227.37
872.16	227.38
872.47	227.35
872.78	227.29
873.09	227.33
873.40	227.34
873.71	227.35
874.02	227.37
874.33	227.38
874.64	227.33
874.95	227.37
875.26	227.37
875.56	227.37
875.87	227.39
876.18	227.38
876.49	227.46
876.80	227.43
877.11	227.42
877.42	227.42
877.73	227.43
878.04	227.41
878.35	227.40
878.66	227.43
878.96	227.47
879.27	227.47
879.58	227.46
879.89	227.47
880.20	227.51
880.51	227.52
880.82	227.52
881.12	227.53
881.43	227.52
881.74	227.50
882.05	227.50
882.36	227.48
882.67	227.51
882.97	227.41
883.28	227.42
883.59	227.45
883.90	227.51
884.21	227.50
884.51	227.50
884.82	227.50
885.13	227.49
885.44	227.50
885.74	227.56
886.05	227.56
886.36	227.57
886.67	227.53
886.98	227.58
887.28	227.59
887.59	227.60
887.90	227.60
888.20	227.61
888.51	227.63
888.82	227.63
889.13	227.65
889.43	227.72
889.74	227.74
890.05	227.71
890.35	227.64
890.66	227.62
890.97	227.59
891.28	227.58
891.58	227.58
891.89	227.55
892.20	227.50
892.50	227.48
892.81	227.44
893.12	227.45
893.42	227.37
893.73	227.37
894.04	227.37
894.34	227.41
894.65	227.41
894.95	227.42
895.26	227.41
895.57	227.43
895.87	227.35
896.18	227.31
896.48	227.32
896.79	227.31
897.10	227.32
897.40	227.35
897.71	227.34
898.01	227.33
898.32	227.30
898.63	227.29
898.93	227.29
899.24	227.30
899.54	227.28
899.85	227.28
900.15	227.24
900.46	227.23
900.76	227.19
901.07	227.15
901.38	227.13
901.68	227.13
901.99	227.07
902.29	227.08
902.60	227.09
902.90	227.06
903.21	227.07
903.51	227.05
903.82	227.06
904.12	227.05
904.43	227.03
904.73	227.02
905.03	227.06
905.34	227.12
905.64	227.09
905.95	227.09
906.25	227.08
906.56	227.07
906.86	227.07
907.17	227.05
907.47	227.09
907.77	227.09
908.08	227.08
908.38	227.08
908.69	227.07
908.99	227.08
909.30	227.06
909.60	227.04
909.90	227.05
910.21	227.03
910.51	227.02
910.81	227.03
911.12	227.05
911.42	227.03
911.73	226.97
912.03	227.01
912.33	227.02
912.64	227.02
912.94	227.02
913.24	227.00
913.55	227.00
913.85	226.98
914.15	227.02
914.46	227.06
914.76	227.06
915.06	227.05
915.37	227.03
915.67	227.05
915.97	227.05
916.27	227.05
916.58	227.04
916.88	227.02
917.18	227.05
917.49	227.11
917.79	227.08
918.09	227.09
918.39	227.12
918.70	227.13
919.00	227.14
919.30	227.20
919.60	227.21
919.91	227.21
920.21	227.24
920.51	227.22
920.81	227.20
921.12	227.22
921.42	227.26
921.72	227.27
922.02	227.29
922.32	227.36
922.63	227.37
922.93	227.46
923.23	227.49
923.53	227.50
923.83	227.46
924.13	227.48
924.44	227.48
924.74	227.49
925.04	227.52
925.34	227.54
925.64	227.51
925.94	227.55
926.24	227.58
926.55	227.58
926.85	227.59
927.15	227.59
927.45	227.58
927.75	227.61
928.05	227.63
928.35	227.60
928.65	227.55
928.95	227.56
929.26	227.48
929.56	227.49
929.86	227.48
930.16	227.45
930.46	227.47
930.76	227.47
931.06	227.43
931.36	227.40
931.66	227.42
931.96	227.39
932.26	227.35
932.56	227.30
932.86	227.28
933.16	227.28
933.46	227.28
933.76	227.26
934.06	227.25
934.36	227.24
934.66	227.26
934.96	227.24
935.26	227.25
935.56	227.26
935.86	227.26
936.16	227.24
936.46	227.26
936.76	227.24
937.06	227.20
937.36	227.19
937.66	227.17
937.96	227.13
938.26	227.13
938.56	227.12
938.86	227.15
939.16	227.16
939.46	227.15
939.76	227.12
940.06	227.09
940.35	227.03
940.65	226.99
940.95	226.98
941.25	226.95
941.55	226.91
941.85	226.91
942.15	226.90
942.45	226.91
942.75	226.89
943.04	226.88
943.34	226.91
943.64	226.90
943.94	226.88
944.24	226.88
944.54	226.86
944.84	226.88
945.13	226.84
945.43	226.85
945.73	226.84
946.03	226.82
946.33	226.87
946.62	226.88
946.92	226.88
947.22	226.88
947.52	226.87
947.82	226.90
948.11	226.86
948.41	226.82
948.71	226.78
949.01	226.81
949.31	226.79
949.60	226.78
949.90	226.80
950.20	226.85
950.50	226.85
950.79	226.90
951.09	226.94
951.39	226.95
951.69	226.96
951.98	226.96
952.28	227.00
952.58	226.98
952.87	227.00
953.17	227.03
953.47	227.04
953.76	227.09
954.06	227.06
954.36	227.08
954.66	227.11
954.95	227.14
955.25	227.16
955.55	227.20
955.84	227.22
956.14	227.23
956.44	227.22
956.73	227.23
957.03	227.23
957.32	227.23
957.62	227.26
957.92	227.26
958.21	227.27
958.51	227.36
958.81	227.37
959.10	227.40
959.40	227.41
959.69	227.42
959.99	227.43
960.29	227.50
960.58	227.50
960.88	227.56
961.17	227.56
961.47	227.53
961.76	227.55
962.06	227.56
962.36	227.53
962.65	227.55
962.95	227.54
963.24	227.52
963.54	227.50
963.83	227.49
964.13	227.49
964.42	227.43
964.72	227.36
965.01	227.37
965.31	227.37
965.60	227.36
965.90	227.42
966.19	227.38
966.49	227.32
966.78	227.34
967.08	227.32
967.37	227.30
967.67	227.31
967.96	227.31
968.26	227.27
968.55	227.29
968.85	227.25
969.14	227.27
969.43	227.25
969.73	227.24
970.02	227.22
970.32	227.20
970.61	227.20
970.91	227.16
971.20	227.12
971.49	227.07
971.79	227.04
972.08	226.98
972.38	226.98
972.67	226.98
972.96	226.96
973.26	226.92
973.55	226.98
973.85	226.94
974.14	226.92
974.43	226.92
974.73	226.88
975.02	226.90
975.31	226.88
975.61	226.85
975.90	226.82
976.19	226.81
976.49	226.82
976.78	226.81
977.07	226.79
977.37	226.78
977.66	226.77
977.95	226.77
978.24	226.75
978.54	226.73
978.83	226.70
979.12	226.68
979.42	226.66
979.71	226.61
980.00	226.59
980.29	226.58
980.59	226.56
980.88	226.61
981.17	226.58
981.46	226.59
981.76	226.60
982.05	226.62
982.34	226.60
982.63	226.60
982.93	226.62
983.22	226.65
983.51	226.65
983.80	226.68
984.09	226.69
984.39	226.66
984.68	226.67
984.97	226.69
985.26	226.69
985.55	226.71
985.85	226.68
986.14	226.72
986.43	226.71
986.72	226.72
987.01	226.65
987.30	226.67
987.59	226.65
987.89	226.68
988.18	226.68
988.47	226.71
988.76	226.72
989.05	226.74
989.34	226.74
989.63	226.78
989.92	226.80
990.22	226.82
990.51	226.86
990.80	226.87
991.09	226.86
991.38	226.90
991.67	226.93
991.96	226.92
992.25	226.91
992.54	226.94
992.83	226.95
993.12	226.98
993.41	227.00
993.70	227.06
993.99	227.07
994.28	227.09
994.58	227.13
994.87	227.14
995.16	227.16
995.45	227.16
995.74	227.12
996.03	227.16
996.32	227.18
996.61	227.18
996.90	227.19
997.19	227.20
997.48	227.19
997.77	227.17
998.06	227.19
998.34	227.21
998.63	227.21
998.92	227.20
999.21	227.22
999.50	227.20
999.79	227.13
1000.08	227.13
1000.37	227.11
1000.66	227.05
1000.95	227.06
1001.24	227.03
1001.53	227.05
1001.82	227.07
1002.11	227.00
1002.40	226.99
1002.68	227.02
1002.97	227.06
1003.26	227.08
1003.55	227.06
1003.84	227.09
1004.13	227.11
1004.42	227.08
1004.71	227.08
1004.99	227.04
1005.28	227.03
1005.57	227.00
1005.86	227.03
1006.15	227.01
1006.44	227.01
1006.72	226.98
1007.01	226.95
1007.30	226.97
1007.59	226.93
1007.88	226.92
1008.17	226.95
1008.45	226.91
1008.74	226.89
1009.03	226.84
1009.32	226.81
1009.60	226.80
1009.89	226.77
1010.18	226.76
1010.47	226.74
1010.76	226.73
1011.04	226.75
1011.33	226.78
1011.62	226.79
1011.91	226.77
1012.19	226.77
1012.48	226.78
1012.77	226.83
1013.05	226.86
1013.34	226.85
1013.63	226.84
1013.92	226.86
1014.20	226.82
1014.49	226.84
1014.78	226.81
1015.06	226.81
1015.35	226.82
1015.64	226.85
1015.92	226.87
1016.21	226.85
1016.50	226.88
1016.78	226.90
1017.07	226.90
1017.36	226.87
1017.64	226.88
1017.93	226.87
1018.22	226.84
1018.50	226.83
1018.79	226.80
1019.08	226.76
1019.36	226.76
1019.65	226.76
1019.93	226.75
1020.22	226.80
1020.51	226.85
1020.79	226.87
1021.08	226.25
1021.36	226.53
1021.65	226.82
1021.94	226.31
1022.22	226.87
1022.51	226.76
1022.79	226.84
1023.08	227.46
1023.36	228.01
1023.65	226.87
>>>>>End Processed Spectral Data<<<<<
