SpectraSuite Data File
++++++++++++++++++++++++++++++++++++
Date: Fri Feb 01 16:04:44 EST 2013
User: group
Dark Spectrum Present: No
Reference Spectrum Present: No
Number of Sampled Component Spectra: 1
Spectrometers: USB2E7196
Integration Time (usec): 35000 (USB2E7196)
Spectra Averaged: 100 (USB2E7196)
Boxcar Smoothing: 10 (USB2E7196)
Correct for Electrical Dark: No (USB2E7196)
Strobe/Lamp Enabled: No (USB2E7196)
Correct for Detector Non-linearity: No (USB2E7196)
Correct for Stray Light: No (USB2E7196)
Number of Pixels in Processed Spectrum: 2048
>>>>>Begin Processed Spectral Data<<<<<
339.09	0.00
339.48	214.73
339.86	216.43
340.24	217.15
340.63	219.04
341.01	221.50
341.39	221.84
341.78	222.93
342.16	223.48
342.54	224.53
342.93	213.03
343.31	223.83
343.69	224.39
344.07	224.84
344.46	225.28
344.84	225.64
345.22	225.87
345.60	226.08
345.99	226.29
346.37	226.48
346.75	226.57
347.13	226.63
347.52	226.65
347.90	226.73
348.28	226.75
348.66	226.78
349.05	226.79
349.43	226.84
349.81	226.92
350.19	226.93
350.57	226.97
350.96	227.06
351.34	227.09
351.72	227.15
352.10	227.24
352.48	227.28
352.87	227.36
353.25	227.42
353.63	227.48
354.01	227.50
354.39	227.52
354.77	227.58
355.15	227.68
355.54	227.76
355.92	227.79
356.30	227.85
356.68	227.98
357.06	228.03
357.44	228.10
357.82	228.12
358.20	228.20
358.58	228.28
358.97	228.33
359.35	228.41
359.73	228.53
360.11	228.57
360.49	228.65
360.87	228.67
361.25	228.73
361.63	228.84
362.01	228.90
362.39	228.95
362.77	229.02
363.15	229.03
363.53	229.04
363.91	229.08
364.29	229.12
364.67	229.08
365.05	229.10
365.43	229.11
365.81	229.13
366.19	229.18
366.57	229.22
366.95	229.18
367.33	229.17
367.71	229.13
368.09	229.16
368.47	229.16
368.85	229.17
369.23	229.18
369.61	229.11
369.99	229.15
370.37	229.16
370.75	229.18
371.13	229.15
371.51	229.12
371.89	229.08
372.27	229.02
372.65	228.99
373.03	228.94
373.41	228.88
373.78	228.87
374.16	228.75
374.54	228.66
374.92	228.61
375.30	228.53
375.68	228.42
376.06	228.39
376.44	228.32
376.82	228.26
377.19	228.19
377.57	228.12
377.95	228.00
378.33	227.89
378.71	227.75
379.09	227.67
379.47	227.60
379.84	227.51
380.22	227.44
380.60	227.31
380.98	227.25
381.36	227.18
381.73	227.07
382.11	227.04
382.49	227.00
382.87	226.95
383.25	226.92
383.62	226.99
384.00	226.90
384.38	226.85
384.76	226.84
385.13	226.79
385.51	226.75
385.89	226.68
386.27	226.66
386.64	226.66
387.02	226.64
387.40	226.58
387.78	226.59
388.15	226.59
388.53	226.60
388.91	226.56
389.29	226.53
389.66	226.52
390.04	226.48
390.42	226.49
390.79	226.46
391.17	226.44
391.55	226.31
391.92	226.30
392.30	226.29
392.68	226.25
393.05	226.30
393.43	226.32
393.81	226.34
394.18	226.37
394.56	226.37
394.94	226.41
395.31	226.47
395.69	226.52
396.06	226.58
396.44	226.60
396.82	226.65
397.19	226.75
397.57	226.77
397.95	226.85
398.32	226.82
398.70	226.90
399.07	226.99
399.45	227.04
399.82	227.11
400.20	227.18
400.58	227.27
400.95	227.27
401.33	227.38
401.70	227.53
402.08	227.60
402.45	227.71
402.83	227.82
403.20	227.88
403.58	227.95
403.95	228.05
404.33	228.19
404.71	228.34
405.08	228.50
405.46	228.66
405.83	228.78
406.21	228.97
406.58	229.11
406.96	229.27
407.33	229.46
407.70	229.66
408.08	229.90
408.45	230.09
408.83	230.32
409.20	230.51
409.58	230.67
409.95	230.94
410.33	231.20
410.70	231.46
411.08	231.76
411.45	232.04
411.82	232.34
412.20	232.68
412.57	233.05
412.95	233.32
413.32	233.73
413.69	234.13
414.07	234.59
414.44	235.05
414.82	235.53
415.19	236.03
415.56	236.57
415.94	237.11
416.31	237.78
416.68	238.37
417.06	239.09
417.43	239.79
417.81	240.50
418.18	241.27
418.55	242.06
418.93	242.93
419.30	243.82
419.67	244.74
420.04	245.73
420.42	246.74
420.79	247.94
421.16	249.06
421.54	250.27
421.91	251.44
422.28	252.71
422.66	254.05
423.03	255.39
423.40	256.73
423.77	258.12
424.15	259.51
424.52	261.04
424.89	262.60
425.26	264.16
425.64	265.62
426.01	267.18
426.38	268.86
426.75	270.56
427.13	272.32
427.50	274.14
427.87	275.97
428.24	277.82
428.61	279.57
428.99	281.49
429.36	283.59
429.73	285.68
430.10	287.67
430.47	289.72
430.85	291.80
431.22	294.01
431.59	296.40
431.96	298.66
432.33	301.14
432.70	303.54
433.08	306.36
433.45	309.02
433.82	311.64
434.19	314.51
434.56	317.30
434.93	319.97
435.30	322.57
435.68	325.49
436.05	328.33
436.42	331.12
436.79	333.65
437.16	336.36
437.53	339.21
437.90	342.07
438.27	344.73
438.64	347.56
439.01	350.18
439.38	352.41
439.75	354.59
440.13	357.10
440.50	359.44
440.87	361.27
441.24	363.20
441.61	365.34
441.98	366.83
442.35	368.65
442.72	370.42
443.09	372.27
443.46	373.23
443.83	373.79
444.20	374.29
444.57	375.13
444.94	375.38
445.31	375.67
445.68	375.98
446.05	376.08
446.42	375.74
446.79	375.31
447.16	374.84
447.53	374.46
447.90	373.22
448.27	372.04
448.64	370.44
449.01	369.26
449.37	367.31
449.74	365.41
450.11	363.14
450.48	360.70
450.85	358.09
451.22	355.96
451.59	353.95
451.96	351.97
452.33	349.34
452.70	346.94
453.07	344.09
453.43	341.16
453.80	338.42
454.17	335.71
454.54	333.12
454.91	330.44
455.28	327.78
455.65	325.34
456.02	322.91
456.38	320.75
456.75	318.12
457.12	315.88
457.49	313.63
457.86	311.46
458.23	309.60
458.59	307.60
458.96	305.52
459.33	303.63
459.70	301.77
460.07	300.28
460.43	298.57
460.80	296.98
461.17	295.57
461.54	294.05
461.91	292.62
462.27	291.19
462.64	289.94
463.01	288.60
463.38	287.28
463.74	285.87
464.11	284.72
464.48	283.69
464.85	282.60
465.21	281.78
465.58	280.85
465.95	279.74
466.32	278.82
466.68	277.93
467.05	277.04
467.42	276.19
467.78	275.28
468.15	274.45
468.52	273.80
468.88	272.95
469.25	272.22
469.62	271.60
469.98	270.93
470.35	270.30
470.72	269.73
471.08	269.10
471.45	268.59
471.82	268.03
472.18	267.46
472.55	267.02
472.92	266.49
473.28	266.03
473.65	265.62
474.02	265.20
474.38	264.83
474.75	264.51
475.11	264.18
475.48	263.93
475.85	263.69
476.21	263.49
476.58	263.31
476.94	263.18
477.31	263.02
477.67	262.91
478.04	262.79
478.41	262.72
478.77	262.79
479.14	262.76
479.50	262.81
479.87	262.87
480.23	262.92
480.60	263.02
480.96	263.14
481.33	263.28
481.69	263.47
482.06	263.65
482.42	263.85
482.79	264.07
483.15	264.35
483.52	264.71
483.88	265.03
484.25	265.42
484.61	265.85
484.98	266.27
485.34	266.79
485.71	267.40
486.07	267.99
486.44	268.52
486.80	269.21
487.17	269.88
487.53	270.68
487.90	271.55
488.26	272.47
488.62	273.43
488.99	274.45
489.35	275.48
489.72	276.62
490.08	277.83
490.44	279.06
490.81	280.39
491.17	281.75
491.54	283.27
491.90	284.81
492.26	286.45
492.63	288.22
492.99	289.98
493.36	291.86
493.72	293.92
494.08	296.03
494.45	298.30
494.81	300.73
495.17	303.15
495.54	305.74
495.90	308.40
496.26	311.24
496.63	314.18
496.99	317.34
497.35	320.58
497.72	324.00
498.08	327.55
498.44	331.25
498.80	335.20
499.17	339.23
499.53	343.39
499.89	347.73
500.26	352.26
500.62	356.98
500.98	361.95
501.34	367.06
501.71	372.41
502.07	377.86
502.43	383.43
502.79	389.26
503.16	395.32
503.52	401.64
503.88	408.10
504.24	414.77
504.60	421.63
504.97	428.80
505.33	436.15
505.69	443.92
506.05	451.70
506.41	459.58
506.78	467.74
507.14	476.25
507.50	485.05
507.86	494.09
508.22	503.34
508.59	512.56
508.95	522.14
509.31	531.94
509.67	542.04
510.03	552.40
510.39	563.01
510.75	573.88
511.12	584.81
511.48	596.11
511.84	607.58
512.20	619.10
512.56	631.03
512.92	643.23
513.28	655.57
513.64	668.09
514.00	680.84
514.37	693.80
514.73	706.88
515.09	719.91
515.45	733.18
515.81	746.71
516.17	760.71
516.53	774.88
516.89	789.14
517.25	803.29
517.61	817.75
517.97	832.28
518.33	846.78
518.69	861.56
519.05	876.55
519.41	891.75
519.77	907.35
520.13	922.93
520.49	938.29
520.85	953.76
521.21	969.49
521.57	985.74
521.93	1001.55
522.29	1017.87
522.65	1034.11
523.01	1050.38
523.37	1066.51
523.73	1082.63
524.09	1098.77
524.45	1114.99
524.81	1131.66
525.17	1148.45
525.53	1165.27
525.89	1182.01
526.25	1198.86
526.61	1215.25
526.97	1231.92
527.33	1248.46
527.68	1264.95
528.04	1281.48
528.40	1298.04
528.76	1315.06
529.12	1331.71
529.48	1348.58
529.84	1364.57
530.20	1381.18
530.56	1398.16
530.91	1415.51
531.27	1432.38
531.63	1448.68
531.99	1465.20
532.35	1481.10
532.71	1496.94
533.07	1513.20
533.42	1529.10
533.78	1545.12
534.14	1561.33
534.50	1576.67
534.86	1592.30
535.21	1607.39
535.57	1623.21
535.93	1638.50
536.29	1653.29
536.65	1668.17
537.00	1682.73
537.36	1697.90
537.72	1712.32
538.08	1726.57
538.44	1740.12
538.79	1753.78
539.15	1767.35
539.51	1780.95
539.87	1795.27
540.22	1808.89
540.58	1822.40
540.94	1835.55
541.29	1848.23
541.65	1860.68
542.01	1873.66
542.37	1885.96
542.72	1898.27
543.08	1909.96
543.44	1922.33
543.79	1933.42
544.15	1944.31
544.51	1955.83
544.87	1966.73
545.22	1977.50
545.58	1987.72
545.94	1997.51
546.29	2007.29
546.65	2017.27
547.01	2026.63
547.36	2035.24
547.72	2043.74
548.07	2051.69
548.43	2059.95
548.79	2068.07
549.14	2075.73
549.50	2083.13
549.86	2090.83
550.21	2098.28
550.57	2105.44
550.92	2112.05
551.28	2119.32
551.64	2126.48
551.99	2133.06
552.35	2139.37
552.70	2145.70
553.06	2151.81
553.41	2158.28
553.77	2164.47
554.13	2170.54
554.48	2176.66
554.84	2182.16
555.19	2187.39
555.55	2192.62
555.90	2197.00
556.26	2201.76
556.61	2206.54
556.97	2210.93
557.32	2215.06
557.68	2219.08
558.03	2223.46
558.39	2227.10
558.74	2231.64
559.10	2235.50
559.45	2239.29
559.81	2243.61
560.16	2247.20
560.52	2250.29
560.87	2253.70
561.23	2256.34
561.58	2259.26
561.94	2261.88
562.29	2264.37
562.64	2267.13
563.00	2269.69
563.35	2273.44
563.71	2276.61
564.06	2279.91
564.42	2282.79
564.77	2285.33
565.12	2287.68
565.48	2289.55
565.83	2291.62
566.19	2292.87
566.54	2293.79
566.89	2294.93
567.25	2295.54
567.60	2296.95
567.96	2298.71
568.31	2299.57
568.66	2300.67
569.02	2301.22
569.37	2301.48
569.72	2302.36
570.08	2302.65
570.43	2302.61
570.78	2301.93
571.14	2300.50
571.49	2298.95
571.84	2298.61
572.20	2297.55
572.55	2296.55
572.90	2294.97
573.26	2293.44
573.61	2291.60
573.96	2289.87
574.31	2286.84
574.67	2283.83
575.02	2280.13
575.37	2276.80
575.72	2273.09
576.08	2269.69
576.43	2266.37
576.78	2262.78
577.13	2259.53
577.49	2256.30
577.84	2252.94
578.19	2249.14
578.54	2245.46
578.90	2241.34
579.25	2235.80
579.60	2230.77
579.95	2225.75
580.30	2220.68
580.66	2215.54
581.01	2210.71
581.36	2205.73
581.71	2201.65
582.06	2197.24
582.42	2192.92
582.77	2187.62
583.12	2182.96
583.47	2178.46
583.82	2173.58
584.17	2168.31
584.53	2162.83
584.88	2157.14
585.23	2151.34
585.58	2145.84
585.93	2140.40
586.28	2135.63
586.63	2130.62
586.98	2125.63
587.34	2120.90
587.69	2116.09
588.04	2110.87
588.39	2105.14
588.74	2098.69
589.09	2092.49
589.44	2085.75
589.79	2079.65
590.14	2074.08
590.49	2067.49
590.84	2060.90
591.19	2054.90
591.54	2048.54
591.89	2041.34
592.25	2034.65
592.60	2027.56
592.95	2020.06
593.30	2012.71
593.65	2005.14
594.00	1998.07
594.35	1990.83
594.70	1982.72
595.05	1975.58
595.40	1968.50
595.75	1961.24
596.10	1955.08
596.45	1948.47
596.80	1942.22
597.15	1935.68
597.50	1928.66
597.85	1922.29
598.19	1915.74
598.54	1908.65
598.89	1901.91
599.24	1895.95
599.59	1889.25
599.94	1883.06
600.29	1876.65
600.64	1870.03
600.99	1862.69
601.34	1855.94
601.69	1848.94
602.04	1842.16
602.39	1834.82
602.74	1827.74
603.08	1820.87
603.43	1814.09
603.78	1806.75
604.13	1799.61
604.48	1792.36
604.83	1785.43
605.18	1778.41
605.53	1770.44
605.87	1762.31
606.22	1754.97
606.57	1746.74
606.92	1739.24
607.27	1731.79
607.62	1724.86
607.96	1717.57
608.31	1710.93
608.66	1703.16
609.01	1695.56
609.36	1687.94
609.70	1679.77
610.05	1671.75
610.40	1663.97
610.75	1655.71
611.10	1647.90
611.44	1639.38
611.79	1631.27
612.14	1622.54
612.49	1613.33
612.83	1604.98
613.18	1596.92
613.53	1588.83
613.88	1580.39
614.22	1572.23
614.57	1563.77
614.92	1555.79
615.27	1548.35
615.61	1539.91
615.96	1531.95
616.31	1524.42
616.65	1517.14
617.00	1509.75
617.35	1502.05
617.70	1493.93
618.04	1485.46
618.39	1477.30
618.74	1469.71
619.08	1461.42
619.43	1453.85
619.78	1446.88
620.12	1439.61
620.47	1432.05
620.82	1423.89
621.16	1416.48
621.51	1408.84
621.85	1401.29
622.20	1392.83
622.55	1384.39
622.89	1376.64
623.24	1368.97
623.59	1361.53
623.93	1353.91
624.28	1346.72
624.62	1339.28
624.97	1331.95
625.32	1325.09
625.66	1317.98
626.01	1310.82
626.35	1303.46
626.70	1295.70
627.04	1288.02
627.39	1280.25
627.73	1272.82
628.08	1265.89
628.43	1258.69
628.77	1251.38
629.12	1243.78
629.46	1236.60
629.81	1229.14
630.15	1221.93
630.50	1214.54
630.84	1206.40
631.19	1198.48
631.53	1190.88
631.88	1183.29
632.22	1175.62
632.57	1168.40
632.91	1160.96
633.26	1153.53
633.60	1146.07
633.95	1138.98
634.29	1131.98
634.64	1125.29
634.98	1117.91
635.32	1110.84
635.67	1104.20
636.01	1097.58
636.36	1090.79
636.70	1084.32
637.05	1077.84
637.39	1071.28
637.73	1064.79
638.08	1058.82
638.42	1052.87
638.77	1046.39
639.11	1039.86
639.45	1033.55
639.80	1026.77
640.14	1020.43
640.49	1013.94
640.83	1007.65
641.17	1001.46
641.52	995.10
641.86	988.70
642.20	982.89
642.55	976.54
642.89	970.15
643.23	963.53
643.58	957.69
643.92	951.44
644.26	945.48
644.61	939.49
644.95	933.57
645.29	927.03
645.64	920.24
645.98	913.96
646.32	908.12
646.66	902.06
647.01	896.25
647.35	890.39
647.69	884.41
648.04	878.84
648.38	872.98
648.72	867.05
649.06	860.91
649.41	855.01
649.75	849.04
650.09	843.02
650.43	837.25
650.78	831.11
651.12	825.09
651.46	819.33
651.80	813.59
652.14	808.10
652.49	802.68
652.83	797.45
653.17	791.78
653.51	786.00
653.85	780.56
654.20	774.91
654.54	768.93
654.88	763.25
655.22	757.35
655.56	751.70
655.90	746.17
656.25	740.95
656.59	735.47
656.93	730.40
657.27	725.19
657.61	719.75
657.95	714.73
658.29	709.72
658.64	704.35
658.98	699.01
659.32	693.50
659.66	688.36
660.00	683.07
660.34	678.06
660.68	673.15
661.02	668.17
661.36	663.50
661.70	659.01
662.05	654.71
662.39	650.40
662.73	645.88
663.07	641.53
663.41	637.11
663.75	632.75
664.09	628.16
664.43	623.79
664.77	619.72
665.11	615.43
665.45	611.20
665.79	607.16
666.13	603.05
666.47	598.94
666.81	594.76
667.15	590.68
667.49	586.75
667.83	582.92
668.17	578.90
668.51	574.82
668.85	570.77
669.19	566.90
669.53	563.05
669.87	559.21
670.21	555.47
670.55	551.79
670.89	548.29
671.23	544.89
671.57	541.39
671.91	537.77
672.25	534.25
672.58	530.80
672.92	527.42
673.26	524.22
673.60	521.11
673.94	517.95
674.28	515.00
674.62	512.08
674.96	508.99
675.30	506.14
675.64	503.26
675.97	500.47
676.31	497.60
676.65	494.71
676.99	492.05
677.33	489.23
677.67	486.42
678.01	483.46
678.34	480.48
678.68	477.61
679.02	474.86
679.36	472.11
679.70	469.38
680.04	466.57
680.37	463.69
680.71	460.92
681.05	458.36
681.39	455.70
681.73	453.09
682.06	450.56
682.40	448.04
682.74	445.50
683.08	443.05
683.42	440.43
683.75	437.93
684.09	435.34
684.43	432.88
684.77	430.44
685.10	428.02
685.44	425.73
685.78	423.43
686.12	421.19
686.45	418.82
686.79	416.52
687.13	414.37
687.46	412.28
687.80	410.03
688.14	407.76
688.48	405.68
688.81	403.40
689.15	401.19
689.49	398.98
689.82	396.86
690.16	394.72
690.50	392.76
690.83	390.79
691.17	388.79
691.51	386.86
691.84	384.96
692.18	383.05
692.52	381.03
692.85	379.08
693.19	377.14
693.52	375.34
693.86	373.49
694.20	371.64
694.53	369.78
694.87	368.02
695.21	366.25
695.54	364.39
695.88	362.66
696.21	360.95
696.55	359.28
696.88	357.62
697.22	355.91
697.56	354.29
697.89	352.60
698.23	351.02
698.56	349.41
698.90	347.84
699.23	346.19
699.57	344.67
699.90	343.12
700.24	341.60
700.58	340.08
700.91	338.56
701.25	337.10
701.58	335.76
701.92	334.38
702.25	332.97
702.59	331.57
702.92	330.25
703.26	328.91
703.59	327.64
703.93	326.40
704.26	325.17
704.60	323.81
704.93	322.56
705.26	321.26
705.60	320.08
705.93	318.86
706.27	317.80
706.60	316.71
706.94	315.62
707.27	314.45
707.61	313.36
707.94	312.36
708.27	311.27
708.61	310.17
708.94	309.15
709.28	308.17
709.61	307.26
709.94	306.32
710.28	305.32
710.61	304.32
710.95	303.26
711.28	302.37
711.61	301.48
711.95	300.62
712.28	299.71
712.61	298.73
712.95	297.83
713.28	296.99
713.61	296.13
713.95	295.26
714.28	294.47
714.61	293.65
714.95	292.82
715.28	291.99
715.61	291.06
715.95	290.25
716.28	289.39
716.61	288.53
716.95	287.72
717.28	286.98
717.61	286.24
717.94	285.51
718.28	284.71
718.61	283.97
718.94	283.24
719.27	282.58
719.61	281.93
719.94	281.30
720.27	280.56
720.60	279.89
720.94	279.27
721.27	278.66
721.60	278.08
721.93	277.51
722.27	276.94
722.60	276.42
722.93	275.81
723.26	275.29
723.59	274.75
723.93	274.21
724.26	273.65
724.59	273.10
724.92	272.59
725.25	272.10
725.59	271.54
725.92	271.04
726.25	270.54
726.58	270.06
726.91	269.57
727.24	269.10
727.57	268.61
727.91	268.08
728.24	267.63
728.57	267.13
728.90	266.64
729.23	266.16
729.56	265.74
729.89	265.29
730.22	264.78
730.55	264.35
730.89	263.90
731.22	263.46
731.55	263.02
731.88	262.58
732.21	262.15
732.54	261.73
732.87	261.28
733.20	260.86
733.53	260.47
733.86	260.08
734.19	259.70
734.52	259.33
734.85	259.02
735.18	258.59
735.51	258.23
735.84	257.86
736.17	257.53
736.50	257.13
736.83	256.92
737.16	256.63
737.49	256.27
737.82	255.90
738.15	255.58
738.48	255.25
738.81	254.88
739.14	254.56
739.47	254.24
739.80	253.95
740.13	253.67
740.46	253.31
740.79	252.96
741.12	252.62
741.45	252.32
741.78	251.97
742.11	251.69
742.44	251.31
742.77	251.01
743.10	250.69
743.43	250.40
743.75	250.00
744.08	249.83
744.41	249.54
744.74	249.26
745.07	248.95
745.40	248.68
745.73	248.47
746.06	248.17
746.39	247.91
746.71	247.63
747.04	247.34
747.37	247.09
747.70	246.87
748.03	246.65
748.36	246.42
748.68	246.17
749.01	245.94
749.34	245.79
749.67	245.55
750.00	245.35
750.33	245.19
750.65	244.98
750.98	244.61
751.31	244.39
751.64	244.23
751.97	244.08
752.29	243.87
752.62	243.63
752.95	243.44
753.28	243.25
753.60	243.05
753.93	242.90
754.26	242.76
754.59	242.56
754.91	242.35
755.24	242.16
755.57	241.98
755.90	241.79
756.22	241.61
756.55	241.43
756.88	241.28
757.20	241.05
757.53	240.84
757.86	240.73
758.19	240.59
758.51	240.41
758.84	240.22
759.17	240.08
759.49	239.96
759.82	239.83
760.15	239.71
760.47	239.55
760.80	239.36
761.13	239.17
761.45	239.00
761.78	238.89
762.11	238.74
762.43	238.60
762.76	238.46
763.08	238.31
763.41	238.22
763.74	238.05
764.06	237.92
764.39	237.79
764.71	237.63
765.04	237.51
765.37	237.36
765.69	237.25
766.02	237.13
766.34	236.98
766.67	236.89
767.00	236.76
767.32	236.71
767.65	236.69
767.97	236.60
768.30	236.52
768.62	236.39
768.95	236.26
769.27	236.17
769.60	236.08
769.92	235.95
770.25	235.81
770.57	235.69
770.90	235.57
771.22	235.47
771.55	235.40
771.87	235.29
772.20	235.20
772.52	235.16
772.85	235.17
773.17	235.08
773.50	234.93
773.82	234.79
774.15	234.63
774.47	234.46
774.80	234.33
775.12	234.21
775.45	234.08
775.77	233.98
776.09	233.85
776.42	233.74
776.74	233.71
777.07	233.61
777.39	233.55
777.72	233.48
778.04	233.38
778.36	233.30
778.69	233.20
779.01	233.16
779.33	233.03
779.66	232.83
779.98	232.75
780.31	232.68
780.63	232.66
780.95	232.64
781.28	232.57
781.60	232.53
781.92	232.48
782.25	232.43
782.57	232.35
782.89	232.32
783.22	232.24
783.54	232.15
783.86	232.07
784.19	231.98
784.51	231.94
784.83	231.88
785.16	231.80
785.48	231.78
785.80	231.70
786.12	231.64
786.45	231.55
786.77	231.51
787.09	231.46
787.42	231.36
787.74	231.31
788.06	231.25
788.38	231.21
788.71	231.12
789.03	231.08
789.35	231.09
789.67	231.00
789.99	230.97
790.32	230.89
790.64	230.89
790.96	230.91
791.28	230.83
791.61	230.82
791.93	230.77
792.25	230.69
792.57	230.70
792.89	230.62
793.21	230.64
793.54	230.58
793.86	230.52
794.18	230.51
794.50	230.43
794.82	230.38
795.14	230.30
795.47	230.32
795.79	230.30
796.11	230.22
796.43	230.19
796.75	230.18
797.07	230.18
797.39	230.12
797.71	230.04
798.04	230.03
798.36	229.99
798.68	229.97
799.00	229.97
799.32	229.88
799.64	229.92
799.96	229.87
800.28	229.89
800.60	229.85
800.92	229.82
801.24	229.78
801.56	229.78
801.89	229.79
802.21	229.78
802.53	229.74
802.85	229.74
803.17	229.78
803.49	229.73
803.81	229.65
804.13	229.65
804.45	229.59
804.77	229.56
805.09	229.54
805.41	229.49
805.73	229.47
806.05	229.43
806.37	229.37
806.69	229.32
807.01	229.26
807.33	229.24
807.65	229.20
807.97	229.23
808.28	229.19
808.60	229.15
808.92	229.10
809.24	229.14
809.56	229.08
809.88	229.03
810.20	228.99
810.52	229.02
810.84	229.00
811.16	228.95
811.48	228.92
811.80	228.94
812.12	228.92
812.43	228.88
812.75	228.88
813.07	228.84
813.39	228.86
813.71	228.82
814.03	228.78
814.35	228.80
814.67	228.73
814.98	228.70
815.30	228.66
815.62	228.62
815.94	228.53
816.26	228.56
816.58	228.54
816.89	228.55
817.21	228.50
817.53	228.46
817.85	228.47
818.17	228.46
818.48	228.38
818.80	228.39
819.12	228.36
819.44	228.32
819.76	228.30
820.07	228.27
820.39	228.27
820.71	228.28
821.03	228.22
821.34	228.20
821.66	228.16
821.98	228.18
822.30	228.14
822.61	228.16
822.93	228.07
823.25	228.03
823.57	228.00
823.88	228.01
824.20	228.00
824.52	227.99
824.83	227.99
825.15	227.97
825.47	227.93
825.79	227.93
826.10	227.91
826.42	227.91
826.74	227.90
827.05	227.89
827.37	227.90
827.69	227.87
828.00	227.90
828.32	227.89
828.64	227.86
828.95	227.90
829.27	227.86
829.58	227.88
829.90	227.88
830.22	227.88
830.53	227.82
830.85	227.80
831.17	227.77
831.48	227.72
831.80	227.73
832.11	227.71
832.43	227.69
832.75	227.69
833.06	227.71
833.38	227.69
833.69	227.68
834.01	227.65
834.32	227.65
834.64	227.61
834.96	227.66
835.27	227.65
835.59	227.64
835.90	227.63
836.22	227.63
836.53	227.62
836.85	227.58
837.16	227.68
837.48	227.69
837.79	227.72
838.11	227.74
838.42	227.72
838.74	227.75
839.05	227.74
839.37	227.71
839.68	227.66
840.00	227.68
840.31	227.71
840.63	227.69
840.94	227.70
841.26	227.68
841.57	227.64
841.88	227.66
842.20	227.61
842.51	227.61
842.83	227.64
843.14	227.75
843.46	227.80
843.77	227.75
844.08	227.73
844.40	227.72
844.71	227.75
845.03	227.76
845.34	227.75
845.65	227.73
845.97	227.76
846.28	227.79
846.60	227.76
846.91	227.71
847.22	227.72
847.54	227.72
847.85	227.77
848.16	227.78
848.48	227.74
848.79	227.79
849.10	227.81
849.42	227.77
849.73	227.64
850.04	227.62
850.36	227.56
850.67	227.58
850.98	227.56
851.30	227.51
851.61	227.53
851.92	227.52
852.23	227.57
852.55	227.57
852.86	227.55
853.17	227.56
853.49	227.57
853.80	227.59
854.11	227.60
854.42	227.59
854.74	227.57
855.05	227.57
855.36	227.53
855.67	227.49
855.99	227.48
856.30	227.61
856.61	227.62
856.92	227.63
857.23	227.64
857.55	227.62
857.86	227.64
858.17	227.63
858.48	227.61
858.79	227.56
859.11	227.55
859.42	227.51
859.73	227.50
860.04	227.49
860.35	227.44
860.66	227.37
860.98	227.36
861.29	227.36
861.60	227.31
861.91	227.33
862.22	227.32
862.53	227.32
862.84	227.19
863.16	227.18
863.47	227.14
863.78	227.10
864.09	227.10
864.40	227.07
864.71	227.02
865.02	227.00
865.33	226.97
865.64	226.94
865.95	226.92
866.27	227.01
866.58	226.99
866.89	227.02
867.20	227.03
867.51	227.02
867.82	227.03
868.13	227.09
868.44	227.08
868.75	227.08
869.06	227.05
869.37	227.07
869.68	227.02
869.99	227.03
870.30	227.03
870.61	227.02
870.92	227.01
871.23	227.03
871.54	227.05
871.85	227.09
872.16	227.09
872.47	227.09
872.78	227.00
873.09	227.01
873.40	226.99
873.71	227.01
874.02	227.02
874.33	226.98
874.64	226.98
874.95	226.99
875.26	226.99
875.56	226.97
875.87	226.96
876.18	227.00
876.49	227.12
876.80	227.11
877.11	227.11
877.42	227.11
877.73	227.09
878.04	227.09
878.35	227.07
878.66	227.08
878.96	227.07
879.27	227.07
879.58	227.10
879.89	227.08
880.20	227.11
880.51	227.08
880.82	227.09
881.12	227.07
881.43	227.04
881.74	227.03
882.05	227.05
882.36	227.05
882.67	227.06
882.97	226.93
883.28	226.95
883.59	226.94
883.90	226.96
884.21	226.99
884.51	226.96
884.82	226.97
885.13	226.96
885.44	227.00
885.74	227.02
886.05	227.00
886.36	227.00
886.67	226.94
886.98	227.02
887.28	227.02
887.59	227.02
887.90	227.01
888.20	227.02
888.51	227.06
888.82	227.07
889.13	227.08
889.43	227.16
889.74	227.11
890.05	227.12
890.35	227.12
890.66	227.11
890.97	227.12
891.28	227.10
891.58	227.09
891.89	227.07
892.20	227.03
892.50	226.99
892.81	226.97
893.12	226.96
893.42	226.89
893.73	226.88
894.04	226.86
894.34	226.87
894.65	226.87
894.95	226.82
895.26	226.81
895.57	226.84
895.87	226.75
896.18	226.78
896.48	226.78
896.79	226.78
897.10	226.80
897.40	226.81
897.71	226.79
898.01	226.80
898.32	226.82
898.63	226.84
898.93	226.87
899.24	226.88
899.54	226.90
899.85	226.92
900.15	226.96
900.46	226.97
900.76	226.96
901.07	226.94
901.38	226.97
901.68	226.97
901.99	226.93
902.29	226.96
902.60	226.93
902.90	226.93
903.21	226.93
903.51	226.87
903.82	226.88
904.12	226.88
904.43	226.87
904.73	226.87
905.03	226.85
905.34	226.96
905.64	226.92
905.95	226.90
906.25	226.89
906.56	226.88
906.86	226.88
907.17	226.87
907.47	226.89
907.77	226.84
908.08	226.81
908.38	226.77
908.69	226.77
908.99	226.80
909.30	226.79
909.60	226.77
909.90	226.83
910.21	226.78
910.51	226.81
910.81	226.78
911.12	226.80
911.42	226.79
911.73	226.68
912.03	226.72
912.33	226.73
912.64	226.70
912.94	226.65
913.24	226.65
913.55	226.67
913.85	226.64
914.15	226.68
914.46	226.73
914.76	226.76
915.06	226.74
915.37	226.73
915.67	226.73
915.97	226.73
916.27	226.72
916.58	226.75
916.88	226.74
917.18	226.75
917.49	226.80
917.79	226.81
918.09	226.81
918.39	226.82
918.70	226.84
919.00	226.83
919.30	226.89
919.60	226.90
919.91	226.88
920.21	226.87
920.51	226.83
920.81	226.82
921.12	226.83
921.42	226.83
921.72	226.83
922.02	226.83
922.32	226.82
922.63	226.81
922.93	226.87
923.23	226.85
923.53	226.88
923.83	226.79
924.13	226.82
924.44	226.83
924.74	226.86
925.04	226.87
925.34	226.88
925.64	226.85
925.94	226.87
926.24	226.94
926.55	226.94
926.85	226.95
927.15	226.94
927.45	226.94
927.75	226.93
928.05	226.97
928.35	226.94
928.65	226.96
928.95	226.97
929.26	226.94
929.56	226.96
929.86	226.96
930.16	226.98
930.46	226.94
930.76	226.94
931.06	226.88
931.36	226.84
931.66	226.85
931.96	226.86
932.26	226.84
932.56	226.77
932.86	226.80
933.16	226.82
933.46	226.82
933.76	226.82
934.06	226.87
934.36	226.89
934.66	226.91
934.96	226.91
935.26	226.93
935.56	226.91
935.86	226.89
936.16	226.91
936.46	226.89
936.76	226.91
937.06	226.91
937.36	226.94
937.66	226.96
937.96	226.97
938.26	226.97
938.56	226.93
938.86	226.95
939.16	226.98
939.46	226.97
939.76	226.99
940.06	226.97
940.35	226.95
940.65	226.86
940.95	226.87
941.25	226.87
941.55	226.86
941.85	226.84
942.15	226.88
942.45	226.90
942.75	226.88
943.04	226.86
943.34	226.89
943.64	226.86
943.94	226.83
944.24	226.82
944.54	226.80
944.84	226.81
945.13	226.82
945.43	226.79
945.73	226.77
946.03	226.73
946.33	226.71
946.62	226.69
946.92	226.69
947.22	226.70
947.52	226.69
947.82	226.70
948.11	226.69
948.41	226.66
948.71	226.59
949.01	226.60
949.31	226.58
949.60	226.54
949.90	226.52
950.20	226.54
950.50	226.54
950.79	226.55
951.09	226.56
951.39	226.54
951.69	226.51
951.98	226.53
952.28	226.55
952.58	226.53
952.87	226.52
953.17	226.57
953.47	226.53
953.76	226.50
954.06	226.46
954.36	226.43
954.66	226.41
954.95	226.46
955.25	226.47
955.55	226.50
955.84	226.47
956.14	226.50
956.44	226.51
956.73	226.52
957.03	226.48
957.32	226.49
957.62	226.47
957.92	226.51
958.21	226.49
958.51	226.61
958.81	226.66
959.10	226.65
959.40	226.65
959.69	226.67
959.99	226.70
960.29	226.72
960.58	226.72
960.88	226.76
961.17	226.76
961.47	226.74
961.76	226.74
962.06	226.79
962.36	226.76
962.65	226.75
962.95	226.75
963.24	226.76
963.54	226.76
963.83	226.77
964.13	226.76
964.42	226.74
964.72	226.64
965.01	226.61
965.31	226.62
965.60	226.60
965.90	226.67
966.19	226.68
966.49	226.68
966.78	226.71
967.08	226.70
967.37	226.71
967.67	226.69
967.96	226.71
968.26	226.67
968.55	226.70
968.85	226.72
969.14	226.73
969.43	226.75
969.73	226.77
970.02	226.78
970.32	226.80
970.61	226.80
970.91	226.81
971.20	226.80
971.49	226.78
971.79	226.82
972.08	226.76
972.38	226.75
972.67	226.74
972.96	226.73
973.26	226.72
973.55	226.72
973.85	226.75
974.14	226.72
974.43	226.76
974.73	226.76
975.02	226.73
975.31	226.74
975.61	226.72
975.90	226.72
976.19	226.71
976.49	226.70
976.78	226.70
977.07	226.70
977.37	226.71
977.66	226.77
977.95	226.74
978.24	226.73
978.54	226.74
978.83	226.73
979.12	226.74
979.42	226.74
979.71	226.72
980.00	226.73
980.29	226.72
980.59	226.65
980.88	226.66
981.17	226.68
981.46	226.67
981.76	226.68
982.05	226.67
982.34	226.68
982.63	226.65
982.93	226.65
983.22	226.64
983.51	226.67
983.80	226.64
984.09	226.65
984.39	226.62
984.68	226.63
984.97	226.65
985.26	226.63
985.55	226.61
985.85	226.64
986.14	226.62
986.43	226.65
986.72	226.68
987.01	226.65
987.30	226.62
987.59	226.60
987.89	226.62
988.18	226.60
988.47	226.57
988.76	226.57
989.05	226.55
989.34	226.55
989.63	226.55
989.92	226.56
990.22	226.54
990.51	226.53
990.80	226.52
991.09	226.51
991.38	226.52
991.67	226.51
991.96	226.46
992.25	226.48
992.54	226.43
992.83	226.43
993.12	226.44
993.41	226.46
993.70	226.46
993.99	226.45
994.28	226.43
994.58	226.42
994.87	226.39
995.16	226.38
995.45	226.37
995.74	226.33
996.03	226.31
996.32	226.35
996.61	226.38
996.90	226.39
997.19	226.41
997.48	226.40
997.77	226.39
998.06	226.41
998.34	226.40
998.63	226.40
998.92	226.40
999.21	226.42
999.50	226.40
999.79	226.40
1000.08	226.40
1000.37	226.43
1000.66	226.43
1000.95	226.49
1001.24	226.53
1001.53	226.54
1001.82	226.52
1002.11	226.54
1002.40	226.52
1002.68	226.52
1002.97	226.58
1003.26	226.55
1003.55	226.55
1003.84	226.57
1004.13	226.58
1004.42	226.59
1004.71	226.62
1004.99	226.63
1005.28	226.65
1005.57	226.64
1005.86	226.60
1006.15	226.63
1006.44	226.62
1006.72	226.63
1007.01	226.62
1007.30	226.63
1007.59	226.63
1007.88	226.65
1008.17	226.66
1008.45	226.69
1008.74	226.67
1009.03	226.61
1009.32	226.61
1009.60	226.61
1009.89	226.60
1010.18	226.58
1010.47	226.57
1010.76	226.56
1011.04	226.56
1011.33	226.57
1011.62	226.58
1011.91	226.61
1012.19	226.59
1012.48	226.60
1012.77	226.61
1013.05	226.66
1013.34	226.64
1013.63	226.63
1013.92	226.65
1014.20	226.64
1014.49	226.60
1014.78	226.58
1015.06	226.55
1015.35	226.58
1015.64	226.62
1015.92	226.64
1016.21	226.64
1016.50	226.63
1016.78	226.65
1017.07	226.68
1017.36	226.64
1017.64	226.64
1017.93	226.67
1018.22	226.64
1018.50	226.61
1018.79	226.61
1019.08	226.55
1019.36	226.55
1019.65	226.54
1019.93	226.54
1020.22	226.55
1020.51	226.59
1020.79	226.61
1021.08	225.92
1021.36	226.13
1021.65	226.61
1021.94	226.24
1022.22	226.62
1022.51	226.42
1022.79	226.93
1023.08	226.55
1023.36	227.51
1023.65	226.48
>>>>>End Processed Spectral Data<<<<<
