SpectraSuite Data File
++++++++++++++++++++++++++++++++++++
Date: Fri Feb 01 16:23:33 EST 2013
User: group
Dark Spectrum Present: No
Reference Spectrum Present: No
Number of Sampled Component Spectra: 1
Spectrometers: USB2E7196
Integration Time (usec): 35000 (USB2E7196)
Spectra Averaged: 100 (USB2E7196)
Boxcar Smoothing: 10 (USB2E7196)
Correct for Electrical Dark: No (USB2E7196)
Strobe/Lamp Enabled: No (USB2E7196)
Correct for Detector Non-linearity: No (USB2E7196)
Correct for Stray Light: No (USB2E7196)
Number of Pixels in Processed Spectrum: 2048
>>>>>Begin Processed Spectral Data<<<<<
339.09	0.00
339.48	214.46
339.86	215.24
340.24	217.04
340.63	218.85
341.01	221.00
341.39	221.30
341.78	222.85
342.16	223.60
342.54	224.38
342.93	212.55
343.31	223.30
343.69	223.82
344.07	224.30
344.46	224.71
344.84	225.05
345.22	225.31
345.60	225.53
345.99	225.68
346.37	225.78
346.75	225.87
347.13	225.92
347.52	225.96
347.90	226.07
348.28	226.06
348.66	226.09
349.05	226.08
349.43	226.10
349.81	226.16
350.19	226.18
350.57	226.22
350.96	226.29
351.34	226.34
351.72	226.42
352.10	226.49
352.48	226.57
352.87	226.61
353.25	226.66
353.63	226.71
354.01	226.77
354.39	226.85
354.77	226.89
355.15	226.98
355.54	227.03
355.92	227.06
356.30	227.17
356.68	227.31
357.06	227.38
357.44	227.41
357.82	227.46
358.20	227.54
358.58	227.61
358.97	227.66
359.35	227.75
359.73	227.79
360.11	227.85
360.49	227.91
360.87	227.98
361.25	228.03
361.63	228.12
362.01	228.15
362.39	228.22
362.77	228.28
363.15	228.31
363.53	228.36
363.91	228.35
364.29	228.34
364.67	228.26
365.05	228.30
365.43	228.34
365.81	228.38
366.19	228.40
366.57	228.43
366.95	228.43
367.33	228.43
367.71	228.44
368.09	228.46
368.47	228.45
368.85	228.45
369.23	228.49
369.61	228.45
369.99	228.44
370.37	228.43
370.75	228.46
371.13	228.42
371.51	228.39
371.89	228.37
372.27	228.35
372.65	228.29
373.03	228.24
373.41	228.18
373.78	228.13
374.16	228.03
374.54	227.95
374.92	227.92
375.30	227.84
375.68	227.77
376.06	227.74
376.44	227.66
376.82	227.56
377.19	227.48
377.57	227.40
377.95	227.35
378.33	227.25
378.71	227.11
379.09	227.04
379.47	227.01
379.84	226.94
380.22	226.88
380.60	226.81
380.98	226.73
381.36	226.69
381.73	226.61
382.11	226.61
382.49	226.55
382.87	226.46
383.25	226.42
383.62	226.49
384.00	226.42
384.38	226.34
384.76	226.34
385.13	226.33
385.51	226.28
385.89	226.24
386.27	226.20
386.64	226.17
387.02	226.14
387.40	226.10
387.78	226.05
388.15	226.03
388.53	226.01
388.91	225.97
389.29	225.88
389.66	225.86
390.04	225.82
390.42	225.82
390.79	225.81
391.17	225.80
391.55	225.66
391.92	225.65
392.30	225.64
392.68	225.61
393.05	225.59
393.43	225.59
393.81	225.56
394.18	225.52
394.56	225.54
394.94	225.58
395.31	225.58
395.69	225.66
396.06	225.67
396.44	225.74
396.82	225.78
397.19	225.94
397.57	225.96
397.95	226.01
398.32	226.04
398.70	226.05
399.07	226.10
399.45	226.17
399.82	226.19
400.20	226.29
400.58	226.34
400.95	226.38
401.33	226.48
401.70	226.66
402.08	226.78
402.45	226.85
402.83	226.95
403.20	227.06
403.58	227.12
403.95	227.23
404.33	227.34
404.71	227.46
405.08	227.58
405.46	227.75
405.83	227.86
406.21	227.99
406.58	228.15
406.96	228.29
407.33	228.46
407.70	228.69
408.08	228.94
408.45	229.13
408.83	229.36
409.20	229.58
409.58	229.73
409.95	230.00
410.33	230.27
410.70	230.48
411.08	230.77
411.45	231.07
411.82	231.39
412.20	231.71
412.57	232.14
412.95	232.44
413.32	232.83
413.69	233.26
414.07	233.66
414.44	234.17
414.82	234.64
415.19	235.18
415.56	235.72
415.94	236.27
416.31	236.90
416.68	237.49
417.06	238.16
417.43	238.84
417.81	239.56
418.18	240.38
418.55	241.23
418.93	242.07
419.30	242.93
419.67	243.86
420.04	244.84
420.42	245.78
420.79	246.95
421.16	248.07
421.54	249.25
421.91	250.44
422.28	251.70
422.66	253.06
423.03	254.33
423.40	255.65
423.77	257.06
424.15	258.51
424.52	260.01
424.89	261.65
425.26	263.23
425.64	264.70
426.01	266.26
426.38	267.91
426.75	269.59
427.13	271.32
427.50	273.09
427.87	274.94
428.24	276.82
428.61	278.59
428.99	280.53
429.36	282.65
429.73	284.72
430.10	286.72
430.47	288.74
430.85	290.89
431.22	293.10
431.59	295.45
431.96	297.70
432.33	300.17
432.70	302.49
433.08	305.31
433.45	307.97
433.82	310.55
434.19	313.45
434.56	316.27
434.93	318.98
435.30	321.63
435.68	324.56
436.05	327.37
436.42	330.15
436.79	332.67
437.16	335.32
437.53	338.19
437.90	340.97
438.27	343.69
438.64	346.53
439.01	349.07
439.38	351.29
439.75	353.38
440.13	355.89
440.50	358.24
440.87	360.07
441.24	361.97
441.61	364.15
441.98	365.63
442.35	367.40
442.72	369.20
443.09	370.98
443.46	371.92
443.83	372.48
444.20	373.00
444.57	373.85
444.94	374.14
445.31	374.45
445.68	374.84
446.05	374.94
446.42	374.50
446.79	374.11
447.16	373.71
447.53	373.45
447.90	372.27
448.27	371.12
448.64	369.52
449.01	368.39
449.37	366.43
449.74	364.52
450.11	362.29
450.48	359.82
450.85	357.29
451.22	355.18
451.59	353.19
451.96	351.23
452.33	348.66
452.70	346.29
453.07	343.46
453.43	340.57
453.80	337.80
454.17	335.20
454.54	332.71
454.91	329.97
455.28	327.30
455.65	324.81
456.02	322.38
456.38	320.24
456.75	317.55
457.12	315.32
457.49	313.12
457.86	310.98
458.23	309.15
458.59	307.13
458.96	305.03
459.33	303.15
459.70	301.29
460.07	299.76
460.43	298.08
460.80	296.50
461.17	295.09
461.54	293.61
461.91	292.17
462.27	290.72
462.64	289.46
463.01	288.12
463.38	286.86
463.74	285.48
464.11	284.33
464.48	283.34
464.85	282.23
465.21	281.38
465.58	280.48
465.95	279.38
466.32	278.52
466.68	277.63
467.05	276.75
467.42	275.88
467.78	274.97
468.15	274.09
468.52	273.46
468.88	272.61
469.25	271.86
469.62	271.24
469.98	270.55
470.35	269.95
470.72	269.37
471.08	268.74
471.45	268.23
471.82	267.67
472.18	267.09
472.55	266.66
472.92	266.17
473.28	265.67
473.65	265.24
474.02	264.80
474.38	264.46
474.75	264.15
475.11	263.82
475.48	263.55
475.85	263.37
476.21	263.14
476.58	262.94
476.94	262.79
477.31	262.62
477.67	262.47
478.04	262.40
478.41	262.32
478.77	262.36
479.14	262.27
479.50	262.30
479.87	262.39
480.23	262.47
480.60	262.51
480.96	262.62
481.33	262.81
481.69	262.98
482.06	263.19
482.42	263.40
482.79	263.65
483.15	263.96
483.52	264.32
483.88	264.63
484.25	265.02
484.61	265.44
484.98	265.90
485.34	266.50
485.71	267.09
486.07	267.71
486.44	268.28
486.80	269.01
487.17	269.75
487.53	270.56
487.90	271.45
488.26	272.41
488.62	273.37
488.99	274.37
489.35	275.43
489.72	276.54
490.08	277.76
490.44	279.00
490.81	280.36
491.17	281.70
491.54	283.23
491.90	284.80
492.26	286.45
492.63	288.16
492.99	289.95
493.36	291.81
493.72	293.81
494.08	295.94
494.45	298.18
494.81	300.56
495.17	302.97
495.54	305.53
495.90	308.20
496.26	311.05
496.63	314.02
496.99	317.15
497.35	320.44
497.72	323.83
498.08	327.38
498.44	331.01
498.80	334.96
499.17	339.04
499.53	343.24
499.89	347.63
500.26	352.16
500.62	356.83
500.98	361.82
501.34	366.94
501.71	372.29
502.07	377.78
502.43	383.36
502.79	389.19
503.16	395.29
503.52	401.58
503.88	408.02
504.24	414.68
504.60	421.58
504.97	428.68
505.33	436.03
505.69	443.74
506.05	451.58
506.41	459.43
506.78	467.56
507.14	475.96
507.50	484.71
507.86	493.75
508.22	502.94
508.59	512.17
508.95	521.74
509.31	531.50
509.67	541.59
510.03	551.95
510.39	562.50
510.75	573.22
511.12	584.13
511.48	595.36
511.84	606.79
512.20	618.33
512.56	630.29
512.92	642.44
513.28	654.73
513.64	667.22
514.00	679.89
514.37	692.81
514.73	705.92
515.09	718.88
515.45	732.14
515.81	745.77
516.17	759.76
516.53	773.95
516.89	788.14
517.25	802.25
517.61	816.60
517.97	831.10
518.33	845.47
518.69	860.23
519.05	875.21
519.41	890.35
519.77	905.86
520.13	921.22
520.49	936.65
520.85	952.04
521.21	967.69
521.57	983.84
521.93	999.61
522.29	1015.90
522.65	1032.12
523.01	1048.34
523.37	1064.21
523.73	1080.29
524.09	1096.31
524.45	1112.52
524.81	1129.16
525.17	1145.95
525.53	1162.71
525.89	1179.70
526.25	1196.50
526.61	1212.89
526.97	1229.55
527.33	1245.85
527.68	1262.42
528.04	1278.76
528.40	1295.25
528.76	1312.29
529.12	1328.90
529.48	1345.59
529.84	1361.51
530.20	1378.07
530.56	1395.04
530.91	1412.48
531.27	1429.12
531.63	1445.47
531.99	1461.94
532.35	1477.77
532.71	1493.48
533.07	1509.64
533.42	1525.30
533.78	1541.20
534.14	1557.34
534.50	1572.65
534.86	1588.55
535.21	1603.63
535.57	1619.46
535.93	1634.87
536.29	1649.46
536.65	1664.39
537.00	1679.21
537.36	1694.47
537.72	1709.01
538.08	1723.30
538.44	1736.99
538.79	1750.76
539.15	1764.28
539.51	1777.98
539.87	1792.20
540.22	1805.93
540.58	1819.67
540.94	1833.00
541.29	1845.74
541.65	1858.31
542.01	1871.53
542.37	1883.66
542.72	1896.04
543.08	1907.70
543.44	1920.06
543.79	1931.22
544.15	1942.18
544.51	1953.63
544.87	1964.52
545.22	1975.13
545.58	1985.19
545.94	1994.89
546.29	2004.69
546.65	2014.57
547.01	2023.75
547.36	2032.48
547.72	2040.90
548.07	2048.71
548.43	2056.81
548.79	2064.91
549.14	2072.42
549.50	2079.52
549.86	2087.21
550.21	2094.58
550.57	2101.85
550.92	2108.31
551.28	2115.37
551.64	2122.45
551.99	2128.88
552.35	2134.90
552.70	2141.03
553.06	2146.99
553.41	2153.30
553.77	2159.32
554.13	2165.45
554.48	2171.70
554.84	2177.14
555.19	2182.39
555.55	2187.43
555.90	2191.88
556.26	2196.72
556.61	2201.40
556.97	2205.80
557.32	2209.89
557.68	2213.88
558.03	2218.04
558.39	2221.84
558.74	2226.41
559.10	2230.20
559.45	2233.92
559.81	2238.10
560.16	2242.01
560.52	2245.37
560.87	2248.86
561.23	2251.51
561.58	2254.45
561.94	2256.87
562.29	2259.26
562.64	2262.10
563.00	2264.74
563.35	2268.20
563.71	2271.32
564.06	2274.48
564.42	2277.40
564.77	2280.05
565.12	2282.44
565.48	2284.45
565.83	2286.43
566.19	2287.86
566.54	2288.81
566.89	2289.96
567.25	2290.70
567.60	2292.00
567.96	2293.66
568.31	2294.49
568.66	2295.68
569.02	2296.10
569.37	2296.45
569.72	2297.37
570.08	2297.38
570.43	2297.56
570.78	2297.06
571.14	2295.54
571.49	2294.52
571.84	2294.17
572.20	2293.05
572.55	2291.92
572.90	2290.44
573.26	2289.04
573.61	2287.30
573.96	2285.69
574.31	2282.85
574.67	2280.05
575.02	2276.46
575.37	2273.10
575.72	2269.25
576.08	2265.87
576.43	2262.64
576.78	2258.93
577.13	2255.71
577.49	2252.74
577.84	2249.21
578.19	2245.65
578.54	2242.10
578.90	2237.77
579.25	2232.34
579.60	2227.45
579.95	2222.58
580.30	2217.52
580.66	2212.31
581.01	2207.40
581.36	2202.51
581.71	2198.43
582.06	2193.98
582.42	2189.69
582.77	2184.50
583.12	2180.09
583.47	2175.48
583.82	2170.60
584.17	2165.42
584.53	2159.98
584.88	2154.38
585.23	2148.70
585.58	2143.17
585.93	2137.75
586.28	2133.08
586.63	2128.02
586.98	2122.98
587.34	2118.16
587.69	2113.45
588.04	2108.31
588.39	2102.85
588.74	2096.39
589.09	2090.21
589.44	2083.37
589.79	2077.40
590.14	2071.96
590.49	2065.33
590.84	2059.10
591.19	2053.22
591.54	2046.97
591.89	2039.70
592.25	2032.82
592.60	2025.70
592.95	2018.22
593.30	2010.85
593.65	2003.29
594.00	1996.30
594.35	1989.06
594.70	1981.21
595.05	1973.98
595.40	1966.76
595.75	1959.24
596.10	1953.07
596.45	1946.31
596.80	1940.42
597.15	1933.72
597.50	1926.55
597.85	1920.16
598.19	1913.43
598.54	1906.14
598.89	1899.48
599.24	1893.59
599.59	1886.98
599.94	1880.84
600.29	1874.50
600.64	1868.13
600.99	1860.83
601.34	1853.92
601.69	1846.94
602.04	1840.19
602.39	1832.82
602.74	1825.92
603.08	1819.13
603.43	1812.40
603.78	1805.22
604.13	1797.89
604.48	1790.69
604.83	1783.89
605.18	1777.00
605.53	1769.06
605.87	1761.27
606.22	1753.99
606.57	1746.12
606.92	1739.00
607.27	1731.81
607.62	1724.92
607.96	1717.74
608.31	1711.15
608.66	1703.62
609.01	1696.19
609.36	1688.68
609.70	1680.76
610.05	1672.74
610.40	1665.11
610.75	1656.73
611.10	1649.04
611.44	1640.54
611.79	1632.59
612.14	1623.88
612.49	1614.69
612.83	1606.38
613.18	1598.21
613.53	1590.22
613.88	1581.56
614.22	1573.21
614.57	1564.60
614.92	1556.48
615.27	1548.86
615.61	1540.40
615.96	1532.34
616.31	1524.67
616.65	1517.11
617.00	1509.47
617.35	1501.83
617.70	1493.62
618.04	1485.09
618.39	1476.86
618.74	1469.32
619.08	1460.97
619.43	1453.37
619.78	1446.54
620.12	1439.31
620.47	1431.87
620.82	1423.65
621.16	1416.40
621.51	1408.80
621.85	1401.09
622.20	1392.55
622.55	1384.12
622.89	1376.31
623.24	1368.79
623.59	1361.37
623.93	1353.94
624.28	1346.84
624.62	1339.32
624.97	1332.03
625.32	1325.25
625.66	1318.28
626.01	1311.12
626.35	1303.62
626.70	1295.93
627.04	1288.13
627.39	1280.30
627.73	1272.83
628.08	1265.92
628.43	1258.51
628.77	1251.07
629.12	1243.61
629.46	1236.50
629.81	1229.10
630.15	1221.82
630.50	1214.34
630.84	1206.04
631.19	1198.08
631.53	1190.44
631.88	1182.89
632.22	1175.27
632.57	1168.02
632.91	1160.32
633.26	1152.87
633.60	1145.50
633.95	1138.38
634.29	1131.37
634.64	1124.69
634.98	1117.27
635.32	1110.11
635.67	1103.54
636.01	1096.94
636.36	1090.06
636.70	1083.52
637.05	1076.90
637.39	1070.43
637.73	1063.90
638.08	1058.05
638.42	1052.02
638.77	1045.54
639.11	1038.98
639.45	1032.56
639.80	1025.92
640.14	1019.57
640.49	1013.04
640.83	1006.77
641.17	1000.40
641.52	994.05
641.86	987.61
642.20	981.79
642.55	975.47
642.89	969.01
643.23	962.40
643.58	956.69
643.92	950.49
644.26	944.41
644.61	938.34
644.95	932.34
645.29	925.80
645.64	919.05
645.98	912.75
646.32	906.86
646.66	900.85
647.01	895.03
647.35	889.36
647.69	883.54
648.04	878.04
648.38	872.30
648.72	866.24
649.06	860.23
649.41	854.31
649.75	848.36
650.09	842.43
650.43	836.73
650.78	830.64
651.12	824.65
651.46	818.92
651.80	813.21
652.14	807.80
652.49	802.42
652.83	797.29
653.17	791.60
653.51	785.89
653.85	780.50
654.20	774.92
654.54	768.90
654.88	763.15
655.22	757.19
655.56	751.55
655.90	746.11
656.25	740.84
656.59	735.47
656.93	730.33
657.27	725.14
657.61	719.64
657.95	714.42
658.29	709.41
658.64	704.22
658.98	698.93
659.32	693.45
659.66	688.27
660.00	682.95
660.34	678.02
660.68	673.13
661.02	668.07
661.36	663.29
661.70	658.78
662.05	654.41
662.39	650.15
662.73	645.69
663.07	641.40
663.41	636.91
663.75	632.41
664.09	627.85
664.43	623.50
664.77	619.43
665.11	615.19
665.45	611.02
665.79	606.90
666.13	602.68
666.47	598.60
666.81	594.37
667.15	590.28
667.49	586.36
667.83	582.48
668.17	578.54
668.51	574.50
668.85	570.42
669.19	566.54
669.53	562.65
669.87	558.77
670.21	555.00
670.55	551.35
670.89	547.96
671.23	544.47
671.57	540.87
671.91	537.34
672.25	533.88
672.58	530.29
672.92	526.83
673.26	523.70
673.60	520.54
673.94	517.42
674.28	514.44
674.62	511.44
674.96	508.33
675.30	505.44
675.64	502.52
675.97	499.75
676.31	496.92
676.65	493.99
676.99	491.24
677.33	488.37
677.67	485.62
678.01	482.56
678.34	479.58
678.68	476.71
679.02	473.83
679.36	471.05
679.70	468.38
680.04	465.68
680.37	462.85
680.71	460.04
681.05	457.48
681.39	454.82
681.73	452.18
682.06	449.67
682.40	447.12
682.74	444.56
683.08	442.02
683.42	439.44
683.75	436.88
684.09	434.35
684.43	431.85
684.77	429.32
685.10	426.99
685.44	424.70
685.78	422.41
686.12	420.22
686.45	417.91
686.79	415.57
687.13	413.36
687.46	411.17
687.80	409.05
688.14	406.81
688.48	404.69
688.81	402.49
689.15	400.35
689.49	398.22
689.82	396.12
690.16	394.01
690.50	392.03
690.83	390.12
691.17	388.16
691.51	386.27
691.84	384.46
692.18	382.53
692.52	380.57
692.85	378.65
693.19	376.70
693.52	374.85
693.86	373.06
694.20	371.25
694.53	369.41
694.87	367.52
695.21	365.70
695.54	363.88
695.88	362.13
696.21	360.39
696.55	358.71
696.88	357.04
697.22	355.40
697.56	353.77
697.89	352.09
698.23	350.47
698.56	348.88
698.90	347.28
699.23	345.63
699.57	344.07
699.90	342.54
700.24	341.04
700.58	339.54
700.91	338.07
701.25	336.62
701.58	335.27
701.92	333.92
702.25	332.55
702.59	331.18
702.92	329.83
703.26	328.51
703.59	327.19
703.93	326.02
704.26	324.79
704.60	323.47
704.93	322.18
705.26	320.94
705.60	319.72
705.93	318.54
706.27	317.51
706.60	316.50
706.94	315.39
707.27	314.23
707.61	313.20
707.94	312.17
708.27	311.07
708.61	309.99
708.94	309.00
709.28	308.03
709.61	307.08
709.94	306.16
710.28	305.18
710.61	304.21
710.95	303.11
711.28	302.19
711.61	301.23
711.95	300.37
712.28	299.42
712.61	298.46
712.95	297.54
713.28	296.68
713.61	295.75
713.95	294.88
714.28	294.05
714.61	293.14
714.95	292.25
715.28	291.40
715.61	290.53
715.95	289.64
716.28	288.80
716.61	287.95
716.95	287.13
717.28	286.39
717.61	285.61
717.94	284.90
718.28	284.11
718.61	283.44
718.94	282.73
719.27	282.03
719.61	281.40
719.94	280.73
720.27	280.02
720.60	279.36
720.94	278.73
721.27	278.10
721.60	277.56
721.93	277.01
722.27	276.44
722.60	275.90
722.93	275.37
723.26	274.86
723.59	274.32
723.93	273.76
724.26	273.19
724.59	272.63
724.92	272.10
725.25	271.62
725.59	271.06
725.92	270.56
726.25	270.07
726.58	269.57
726.91	269.09
727.24	268.59
727.57	268.10
727.91	267.63
728.24	267.18
728.57	266.68
728.90	266.16
729.23	265.68
729.56	265.23
729.89	264.74
730.22	264.20
730.55	263.74
730.89	263.31
731.22	262.86
731.55	262.43
731.88	261.99
732.21	261.55
732.54	261.11
732.87	260.67
733.20	260.28
733.53	259.90
733.86	259.52
734.19	259.13
734.52	258.69
734.85	258.37
735.18	257.92
735.51	257.53
735.84	257.20
736.17	256.85
736.50	256.47
736.83	256.24
737.16	255.90
737.49	255.55
737.82	255.20
738.15	254.86
738.48	254.48
738.81	254.15
739.14	253.79
739.47	253.50
739.80	253.19
740.13	252.89
740.46	252.53
740.79	252.19
741.12	251.85
741.45	251.60
741.78	251.21
742.11	250.94
742.44	250.61
742.77	250.34
743.10	250.04
743.43	249.70
743.75	249.31
744.08	249.16
744.41	248.86
744.74	248.58
745.07	248.28
745.40	248.06
745.73	247.81
746.06	247.55
746.39	247.26
746.71	246.94
747.04	246.63
747.37	246.37
747.70	246.14
748.03	245.92
748.36	245.69
748.68	245.45
749.01	245.20
749.34	244.98
749.67	244.74
750.00	244.51
750.33	244.36
750.65	244.13
750.98	243.78
751.31	243.60
751.64	243.37
751.97	243.22
752.29	243.02
752.62	242.78
752.95	242.58
753.28	242.38
753.60	242.19
753.93	242.04
754.26	241.83
754.59	241.61
754.91	241.40
755.24	241.20
755.57	241.00
755.90	240.85
756.22	240.66
756.55	240.45
756.88	240.26
757.20	240.02
757.53	239.86
757.86	239.70
758.19	239.55
758.51	239.39
758.84	239.15
759.17	238.97
759.49	238.80
759.82	238.67
760.15	238.55
760.47	238.43
760.80	238.26
761.13	238.14
761.45	237.99
761.78	237.83
762.11	237.66
762.43	237.55
762.76	237.40
763.08	237.29
763.41	237.20
763.74	237.08
764.06	236.97
764.39	236.83
764.71	236.73
765.04	236.62
765.37	236.49
765.69	236.42
766.02	236.31
766.34	236.20
766.67	236.05
767.00	235.96
767.32	235.89
767.65	235.83
767.97	235.67
768.30	235.56
768.62	235.46
768.95	235.34
769.27	235.28
769.60	235.16
769.92	235.02
770.25	234.89
770.57	234.78
770.90	234.70
771.22	234.56
771.55	234.45
771.87	234.33
772.20	234.25
772.52	234.22
772.85	234.28
773.17	234.21
773.50	234.14
773.82	234.03
774.15	233.89
774.47	233.74
774.80	233.67
775.12	233.59
775.45	233.52
775.77	233.45
776.09	233.32
776.42	233.23
776.74	233.18
777.07	233.07
777.39	232.98
777.72	232.89
778.04	232.85
778.36	232.76
778.69	232.69
779.01	232.59
779.33	232.47
779.66	232.26
779.98	232.14
780.31	232.05
780.63	232.04
780.95	231.97
781.28	231.92
781.60	231.87
781.92	231.80
782.25	231.75
782.57	231.68
782.89	231.62
783.22	231.58
783.54	231.52
783.86	231.52
784.19	231.45
784.51	231.39
784.83	231.34
785.16	231.30
785.48	231.25
785.80	231.23
786.12	231.16
786.45	231.11
786.77	231.09
787.09	231.02
787.42	230.91
787.74	230.87
788.06	230.83
788.38	230.75
788.71	230.70
789.03	230.67
789.35	230.66
789.67	230.62
789.99	230.58
790.32	230.51
790.64	230.45
790.96	230.46
791.28	230.40
791.61	230.34
791.93	230.29
792.25	230.25
792.57	230.25
792.89	230.18
793.21	230.15
793.54	230.10
793.86	230.04
794.18	229.97
794.50	229.94
794.82	229.91
795.14	229.90
795.47	229.88
795.79	229.81
796.11	229.72
796.43	229.69
796.75	229.66
797.07	229.65
797.39	229.62
797.71	229.56
798.04	229.51
798.36	229.49
798.68	229.43
799.00	229.40
799.32	229.33
799.64	229.35
799.96	229.30
800.28	229.30
800.60	229.30
800.92	229.28
801.24	229.22
801.56	229.17
801.89	229.12
802.21	229.11
802.53	229.07
802.85	229.08
803.17	229.10
803.49	229.02
803.81	228.98
804.13	228.95
804.45	228.89
804.77	228.89
805.09	228.89
805.41	228.87
805.73	228.85
806.05	228.80
806.37	228.76
806.69	228.69
807.01	228.65
807.33	228.64
807.65	228.61
807.97	228.63
808.28	228.61
808.60	228.60
808.92	228.56
809.24	228.59
809.56	228.55
809.88	228.49
810.20	228.48
810.52	228.49
810.84	228.46
811.16	228.46
811.48	228.45
811.80	228.41
812.12	228.41
812.43	228.39
812.75	228.39
813.07	228.37
813.39	228.39
813.71	228.38
814.03	228.33
814.35	228.34
814.67	228.30
814.98	228.28
815.30	228.25
815.62	228.22
815.94	228.16
816.26	228.18
816.58	228.11
816.89	228.12
817.21	228.07
817.53	228.05
817.85	228.03
818.17	227.95
818.48	227.92
818.80	227.92
819.12	227.88
819.44	227.84
819.76	227.81
820.07	227.79
820.39	227.75
820.71	227.77
821.03	227.71
821.34	227.70
821.66	227.69
821.98	227.66
822.30	227.63
822.61	227.65
822.93	227.58
823.25	227.56
823.57	227.50
823.88	227.49
824.20	227.46
824.52	227.46
824.83	227.49
825.15	227.46
825.47	227.42
825.79	227.43
826.10	227.40
826.42	227.36
826.74	227.35
827.05	227.33
827.37	227.29
827.69	227.28
828.00	227.26
828.32	227.25
828.64	227.23
828.95	227.28
829.27	227.26
829.58	227.27
829.90	227.30
830.22	227.31
830.53	227.28
830.85	227.27
831.17	227.26
831.48	227.22
831.80	227.22
832.11	227.19
832.43	227.16
832.75	227.16
833.06	227.23
833.38	227.20
833.69	227.21
834.01	227.19
834.32	227.20
834.64	227.18
834.96	227.19
835.27	227.18
835.59	227.11
835.90	227.10
836.22	227.11
836.53	227.04
836.85	227.05
837.16	227.18
837.48	227.16
837.79	227.19
838.11	227.21
838.42	227.15
838.74	227.21
839.05	227.20
839.37	227.18
839.68	227.14
840.00	227.13
840.31	227.11
840.63	227.12
840.94	227.08
841.26	227.05
841.57	227.03
841.88	227.05
842.20	227.07
842.51	227.02
842.83	227.03
843.14	227.13
843.46	227.14
843.77	227.05
844.08	227.06
844.40	227.04
844.71	226.99
845.03	227.03
845.34	227.00
845.65	226.99
845.97	226.98
846.28	226.97
846.60	226.96
846.91	226.95
847.22	226.95
847.54	226.98
847.85	227.01
848.16	226.99
848.48	226.99
848.79	227.01
849.10	227.01
849.42	227.00
849.73	226.92
850.04	226.87
850.36	226.82
850.67	226.85
850.98	226.81
851.30	226.85
851.61	226.84
851.92	226.85
852.23	226.87
852.55	226.89
852.86	226.89
853.17	226.91
853.49	226.95
853.80	226.95
854.11	226.95
854.42	226.95
854.74	226.91
855.05	226.92
855.36	226.86
855.67	226.87
855.99	226.88
856.30	226.97
856.61	226.95
856.92	226.95
857.23	226.89
857.55	226.85
857.86	226.85
858.17	226.86
858.48	226.82
858.79	226.80
859.11	226.81
859.42	226.79
859.73	226.79
860.04	226.75
860.35	226.72
860.66	226.70
860.98	226.69
861.29	226.73
861.60	226.68
861.91	226.70
862.22	226.70
862.53	226.67
862.84	226.58
863.16	226.63
863.47	226.63
863.78	226.64
864.09	226.67
864.40	226.65
864.71	226.63
865.02	226.62
865.33	226.58
865.64	226.57
865.95	226.58
866.27	226.61
866.58	226.60
866.89	226.64
867.20	226.62
867.51	226.63
867.82	226.59
868.13	226.63
868.44	226.61
868.75	226.62
869.06	226.62
869.37	226.59
869.68	226.55
869.99	226.56
870.30	226.56
870.61	226.58
870.92	226.56
871.23	226.52
871.54	226.55
871.85	226.58
872.16	226.55
872.47	226.49
872.78	226.42
873.09	226.42
873.40	226.41
873.71	226.40
874.02	226.43
874.33	226.40
874.64	226.37
874.95	226.37
875.26	226.33
875.56	226.34
875.87	226.33
876.18	226.31
876.49	226.38
876.80	226.38
877.11	226.36
877.42	226.34
877.73	226.37
878.04	226.37
878.35	226.38
878.66	226.40
878.96	226.42
879.27	226.40
879.58	226.41
879.89	226.36
880.20	226.40
880.51	226.37
880.82	226.41
881.12	226.42
881.43	226.42
881.74	226.40
882.05	226.38
882.36	226.39
882.67	226.43
882.97	226.35
883.28	226.34
883.59	226.33
883.90	226.37
884.21	226.39
884.51	226.35
884.82	226.32
885.13	226.31
885.44	226.33
885.74	226.36
886.05	226.35
886.36	226.39
886.67	226.37
886.98	226.38
887.28	226.35
887.59	226.35
887.90	226.32
888.20	226.34
888.51	226.37
888.82	226.38
889.13	226.37
889.43	226.45
889.74	226.46
890.05	226.46
890.35	226.44
890.66	226.41
890.97	226.40
891.28	226.40
891.58	226.40
891.89	226.38
892.20	226.35
892.50	226.37
892.81	226.34
893.12	226.34
893.42	226.31
893.73	226.33
894.04	226.31
894.34	226.34
894.65	226.34
894.95	226.31
895.26	226.29
895.57	226.32
895.87	226.20
896.18	226.21
896.48	226.21
896.79	226.25
897.10	226.26
897.40	226.29
897.71	226.31
898.01	226.30
898.32	226.32
898.63	226.30
898.93	226.28
899.24	226.25
899.54	226.21
899.85	226.21
900.15	226.19
900.46	226.21
900.76	226.19
901.07	226.20
901.38	226.22
901.68	226.20
901.99	226.14
902.29	226.15
902.60	226.10
902.90	226.09
903.21	226.07
903.51	226.07
903.82	226.10
904.12	226.07
904.43	226.09
904.73	226.08
905.03	226.12
905.34	226.21
905.64	226.21
905.95	226.21
906.25	226.22
906.56	226.19
906.86	226.16
907.17	226.16
907.47	226.15
907.77	226.10
908.08	226.09
908.38	226.09
908.69	226.11
908.99	226.15
909.30	226.14
909.60	226.15
909.90	226.13
910.21	226.10
910.51	226.12
910.81	226.08
911.12	226.11
911.42	226.11
911.73	226.02
912.03	226.06
912.33	226.09
912.64	226.08
912.94	226.09
913.24	226.09
913.55	226.07
913.85	226.07
914.15	226.11
914.46	226.14
914.76	226.16
915.06	226.16
915.37	226.14
915.67	226.15
915.97	226.11
916.27	226.08
916.58	226.08
916.88	226.06
917.18	226.09
917.49	226.12
917.79	226.12
918.09	226.14
918.39	226.17
918.70	226.17
919.00	226.15
919.30	226.21
919.60	226.20
919.91	226.20
920.21	226.22
920.51	226.23
920.81	226.24
921.12	226.25
921.42	226.25
921.72	226.25
922.02	226.27
922.32	226.31
922.63	226.34
922.93	226.45
923.23	226.47
923.53	226.46
923.83	226.41
924.13	226.45
924.44	226.43
924.74	226.42
925.04	226.43
925.34	226.44
925.64	226.40
925.94	226.43
926.24	226.52
926.55	226.52
926.85	226.50
927.15	226.51
927.45	226.51
927.75	226.52
928.05	226.53
928.35	226.51
928.65	226.51
928.95	226.51
929.26	226.37
929.56	226.40
929.86	226.40
930.16	226.40
930.46	226.35
930.76	226.35
931.06	226.32
931.36	226.31
931.66	226.36
931.96	226.36
932.26	226.33
932.56	226.25
932.86	226.25
933.16	226.27
933.46	226.24
933.76	226.22
934.06	226.25
934.36	226.27
934.66	226.26
934.96	226.26
935.26	226.24
935.56	226.28
935.86	226.24
936.16	226.22
936.46	226.17
936.76	226.20
937.06	226.16
937.36	226.15
937.66	226.14
937.96	226.07
938.26	226.02
938.56	226.04
938.86	226.07
939.16	226.05
939.46	226.00
939.76	225.97
940.06	225.95
940.35	225.88
940.65	225.84
940.95	225.83
941.25	225.78
941.55	225.79
941.85	225.77
942.15	225.75
942.45	225.79
942.75	225.81
943.04	225.79
943.34	225.82
943.64	225.79
943.94	225.78
944.24	225.79
944.54	225.79
944.84	225.77
945.13	225.74
945.43	225.76
945.73	225.79
946.03	225.82
946.33	225.80
946.62	225.81
946.92	225.76
947.22	225.79
947.52	225.78
947.82	225.78
948.11	225.78
948.41	225.76
948.71	225.72
949.01	225.68
949.31	225.68
949.60	225.70
949.90	225.74
950.20	225.74
950.50	225.74
950.79	225.73
951.09	225.77
951.39	225.76
951.69	225.72
951.98	225.74
952.28	225.75
952.58	225.78
952.87	225.81
953.17	225.88
953.47	225.86
953.76	225.86
954.06	225.88
954.36	225.89
954.66	225.89
954.95	225.94
955.25	225.99
955.55	225.98
955.84	225.99
956.14	225.97
956.44	226.01
956.73	226.04
957.03	226.08
957.32	226.06
957.62	226.09
957.92	226.14
958.21	226.13
958.51	226.18
958.81	226.18
959.10	226.17
959.40	226.19
959.69	226.20
959.99	226.25
960.29	226.23
960.58	226.27
960.88	226.32
961.17	226.32
961.47	226.31
961.76	226.36
962.06	226.38
962.36	226.40
962.65	226.39
962.95	226.36
963.24	226.38
963.54	226.39
963.83	226.40
964.13	226.38
964.42	226.36
964.72	226.33
965.01	226.34
965.31	226.31
965.60	226.28
965.90	226.33
966.19	226.31
966.49	226.32
966.78	226.28
967.08	226.29
967.37	226.26
967.67	226.22
967.96	226.20
968.26	226.17
968.55	226.15
968.85	226.16
969.14	226.16
969.43	226.12
969.73	226.12
970.02	226.09
970.32	226.08
970.61	226.06
970.91	226.01
971.20	225.98
971.49	226.00
971.79	225.99
972.08	225.89
972.38	225.89
972.67	225.87
972.96	225.86
973.26	225.82
973.55	225.83
973.85	225.83
974.14	225.82
974.43	225.80
974.73	225.78
975.02	225.75
975.31	225.76
975.61	225.77
975.90	225.72
976.19	225.69
976.49	225.71
976.78	225.72
977.07	225.67
977.37	225.70
977.66	225.67
977.95	225.66
978.24	225.70
978.54	225.69
978.83	225.67
979.12	225.66
979.42	225.68
979.71	225.67
980.00	225.64
980.29	225.61
980.59	225.62
980.88	225.63
981.17	225.61
981.46	225.60
981.76	225.60
982.05	225.64
982.34	225.65
982.63	225.62
982.93	225.64
983.22	225.69
983.51	225.69
983.80	225.73
984.09	225.71
984.39	225.68
984.68	225.68
984.97	225.71
985.26	225.72
985.55	225.71
985.85	225.69
986.14	225.74
986.43	225.77
986.72	225.75
987.01	225.75
987.30	225.76
987.59	225.75
987.89	225.77
988.18	225.75
988.47	225.77
988.76	225.78
989.05	225.77
989.34	225.74
989.63	225.77
989.92	225.74
990.22	225.76
990.51	225.80
990.80	225.80
991.09	225.81
991.38	225.85
991.67	225.87
991.96	225.87
992.25	225.91
992.54	225.92
992.83	225.94
993.12	225.94
993.41	225.96
993.70	226.04
993.99	226.08
994.28	226.09
994.58	226.11
994.87	226.09
995.16	226.09
995.45	226.11
995.74	226.11
996.03	226.16
996.32	226.18
996.61	226.22
996.90	226.23
997.19	226.22
997.48	226.21
997.77	226.19
998.06	226.19
998.34	226.18
998.63	226.18
998.92	226.19
999.21	226.22
999.50	226.22
999.79	226.18
1000.08	226.14
1000.37	226.17
1000.66	226.16
1000.95	226.19
1001.24	226.21
1001.53	226.24
1001.82	226.20
1002.11	226.15
1002.40	226.18
1002.68	226.17
1002.97	226.25
1003.26	226.23
1003.55	226.18
1003.84	226.19
1004.13	226.21
1004.42	226.20
1004.71	226.20
1004.99	226.16
1005.28	226.17
1005.57	226.16
1005.86	226.15
1006.15	226.14
1006.44	226.11
1006.72	226.10
1007.01	226.08
1007.30	226.06
1007.59	226.05
1007.88	226.06
1008.17	226.08
1008.45	226.06
1008.74	226.03
1009.03	225.97
1009.32	225.98
1009.60	225.99
1009.89	225.96
1010.18	225.92
1010.47	225.90
1010.76	225.88
1011.04	225.88
1011.33	225.86
1011.62	225.86
1011.91	225.85
1012.19	225.82
1012.48	225.82
1012.77	225.81
1013.05	225.83
1013.34	225.81
1013.63	225.76
1013.92	225.78
1014.20	225.76
1014.49	225.71
1014.78	225.68
1015.06	225.63
1015.35	225.61
1015.64	225.61
1015.92	225.62
1016.21	225.61
1016.50	225.60
1016.78	225.60
1017.07	225.61
1017.36	225.56
1017.64	225.57
1017.93	225.54
1018.22	225.58
1018.50	225.59
1018.79	225.61
1019.08	225.58
1019.36	225.58
1019.65	225.59
1019.93	225.63
1020.22	225.63
1020.51	225.70
1020.79	225.71
1021.08	226.01
1021.36	225.86
1021.65	225.94
1021.94	225.82
1022.22	225.34
1022.51	225.86
1022.79	226.57
1023.08	225.45
1023.36	226.97
1023.65	225.82
>>>>>End Processed Spectral Data<<<<<
