SpectraSuite Data File
++++++++++++++++++++++++++++++++++++
Date: Fri Feb 01 15:22:38 EST 2013
User: group
Dark Spectrum Present: No
Reference Spectrum Present: No
Number of Sampled Component Spectra: 1
Spectrometers: USB2E7196
Integration Time (usec): 35000 (USB2E7196)
Spectra Averaged: 100 (USB2E7196)
Boxcar Smoothing: 10 (USB2E7196)
Correct for Electrical Dark: No (USB2E7196)
Strobe/Lamp Enabled: No (USB2E7196)
Correct for Detector Non-linearity: No (USB2E7196)
Correct for Stray Light: No (USB2E7196)
Number of Pixels in Processed Spectrum: 2048
>>>>>Begin Processed Spectral Data<<<<<
339.09	0.00
339.48	215.22
339.86	216.65
340.24	218.26
340.63	219.22
341.01	221.95
341.39	222.11
341.78	223.36
342.16	224.66
342.54	225.28
342.93	213.40
343.31	224.18
343.69	224.70
344.07	225.17
344.46	225.56
344.84	225.93
345.22	226.21
345.60	226.45
345.99	226.63
346.37	226.77
346.75	226.83
347.13	226.89
347.52	226.93
347.90	227.00
348.28	227.00
348.66	227.04
349.05	227.03
349.43	227.07
349.81	227.13
350.19	227.16
350.57	227.19
350.96	227.28
351.34	227.37
351.72	227.45
352.10	227.56
352.48	227.64
352.87	227.69
353.25	227.73
353.63	227.76
354.01	227.82
354.39	227.86
354.77	227.94
355.15	228.02
355.54	228.11
355.92	228.15
356.30	228.25
356.68	228.40
357.06	228.49
357.44	228.56
357.82	228.64
358.20	228.73
358.58	228.77
358.97	228.86
359.35	228.93
359.73	229.01
360.11	229.07
360.49	229.13
360.87	229.20
361.25	229.26
361.63	229.34
362.01	229.42
362.39	229.46
362.77	229.53
363.15	229.56
363.53	229.56
363.91	229.59
364.29	229.60
364.67	229.52
365.05	229.55
365.43	229.53
365.81	229.55
366.19	229.56
366.57	229.63
366.95	229.60
367.33	229.58
367.71	229.55
368.09	229.49
368.47	229.48
368.85	229.45
369.23	229.42
369.61	229.36
369.99	229.34
370.37	229.31
370.75	229.29
371.13	229.22
371.51	229.16
371.89	229.16
372.27	229.11
372.65	229.06
373.03	229.00
373.41	228.96
373.78	228.88
374.16	228.78
374.54	228.71
374.92	228.64
375.30	228.56
375.68	228.50
376.06	228.44
376.44	228.38
376.82	228.32
377.19	228.23
377.57	228.14
377.95	228.04
378.33	227.99
378.71	227.87
379.09	227.81
379.47	227.78
379.84	227.69
380.22	227.62
380.60	227.56
380.98	227.45
381.36	227.38
381.73	227.33
382.11	227.28
382.49	227.18
382.87	227.12
383.25	227.08
383.62	227.10
384.00	227.03
384.38	226.96
384.76	226.91
385.13	226.92
385.51	226.86
385.89	226.77
386.27	226.68
386.64	226.63
387.02	226.57
387.40	226.49
387.78	226.42
388.15	226.37
388.53	226.33
388.91	226.32
389.29	226.28
389.66	226.27
390.04	226.24
390.42	226.22
390.79	226.23
391.17	226.21
391.55	226.12
391.92	226.13
392.30	226.15
392.68	226.15
393.05	226.15
393.43	226.17
393.81	226.19
394.18	226.20
394.56	226.22
394.94	226.27
395.31	226.30
395.69	226.38
396.06	226.41
396.44	226.43
396.82	226.46
397.19	226.58
397.57	226.60
397.95	226.64
398.32	226.68
398.70	226.74
399.07	226.83
399.45	226.88
399.82	226.98
400.20	227.03
400.58	227.10
400.95	227.14
401.33	227.28
401.70	227.44
402.08	227.55
402.45	227.66
402.83	227.79
403.20	227.91
403.58	228.02
403.95	228.18
404.33	228.34
404.71	228.46
405.08	228.62
405.46	228.76
405.83	228.91
406.21	229.07
406.58	229.23
406.96	229.36
407.33	229.56
407.70	229.69
408.08	229.97
408.45	230.22
408.83	230.46
409.20	230.67
409.58	230.90
409.95	231.18
410.33	231.47
410.70	231.71
411.08	232.00
411.45	232.27
411.82	232.57
412.20	232.90
412.57	233.37
412.95	233.67
413.32	234.06
413.69	234.47
414.07	234.91
414.44	235.39
414.82	235.85
415.19	236.39
415.56	236.98
415.94	237.54
416.31	238.14
416.68	238.79
417.06	239.50
417.43	240.17
417.81	240.96
418.18	241.73
418.55	242.56
418.93	243.43
419.30	244.34
419.67	245.27
420.04	246.22
420.42	247.17
420.79	248.35
421.16	249.56
421.54	250.75
421.91	251.96
422.28	253.21
422.66	254.54
423.03	255.85
423.40	257.17
423.77	258.57
424.15	260.00
424.52	261.48
424.89	263.09
425.26	264.62
425.64	266.05
426.01	267.65
426.38	269.29
426.75	270.97
427.13	272.70
427.50	274.50
427.87	276.38
428.24	278.24
428.61	279.96
428.99	281.88
429.36	284.00
429.73	286.07
430.10	288.10
430.47	290.18
430.85	292.28
431.22	294.53
431.59	296.89
431.96	299.14
432.33	301.65
432.70	304.01
433.08	306.84
433.45	309.51
433.82	312.09
434.19	314.99
434.56	317.78
434.93	320.44
435.30	323.12
435.68	326.03
436.05	328.88
436.42	331.68
436.79	334.19
437.16	336.85
437.53	339.69
437.90	342.45
438.27	345.24
438.64	348.09
439.01	350.72
439.38	352.99
439.75	355.17
440.13	357.64
440.50	360.01
440.87	361.86
441.24	363.80
441.61	366.00
441.98	367.52
442.35	369.41
442.72	371.27
443.09	373.05
443.46	374.08
443.83	374.64
444.20	375.20
444.57	376.04
444.94	376.33
445.31	376.70
445.68	377.08
446.05	377.15
446.42	376.78
446.79	376.34
447.16	375.88
447.53	375.52
447.90	374.35
448.27	373.16
448.64	371.61
449.01	370.44
449.37	368.44
449.74	366.54
450.11	364.25
450.48	361.75
450.85	359.19
451.22	357.01
451.59	355.00
451.96	353.03
452.33	350.43
452.70	348.10
453.07	345.28
453.43	342.38
453.80	339.59
454.17	336.91
454.54	334.32
454.91	331.56
455.28	328.89
455.65	326.40
456.02	323.92
456.38	321.72
456.75	319.06
457.12	316.85
457.49	314.64
457.86	312.49
458.23	310.64
458.59	308.61
458.96	306.53
459.33	304.69
459.70	302.82
460.07	301.34
460.43	299.63
460.80	297.99
461.17	296.56
461.54	295.05
461.91	293.63
462.27	292.19
462.64	290.96
463.01	289.64
463.38	288.34
463.74	286.99
464.11	285.83
464.48	284.80
464.85	283.68
465.21	282.80
465.58	281.86
465.95	280.77
466.32	279.85
466.68	278.91
467.05	278.01
467.42	277.13
467.78	276.19
468.15	275.31
468.52	274.64
468.88	273.76
469.25	272.96
469.62	272.29
469.98	271.63
470.35	271.02
470.72	270.36
471.08	269.71
471.45	269.19
471.82	268.66
472.18	268.05
472.55	267.59
472.92	267.07
473.28	266.57
473.65	266.09
474.02	265.64
474.38	265.26
474.75	264.95
475.11	264.59
475.48	264.28
475.85	264.04
476.21	263.76
476.58	263.57
476.94	263.45
477.31	263.29
477.67	263.13
478.04	263.02
478.41	262.95
478.77	262.99
479.14	262.91
479.50	262.88
479.87	262.97
480.23	263.02
480.60	263.04
480.96	263.13
481.33	263.35
481.69	263.51
482.06	263.72
482.42	263.87
482.79	264.14
483.15	264.48
483.52	264.84
483.88	265.19
484.25	265.57
484.61	266.01
484.98	266.47
485.34	267.02
485.71	267.61
486.07	268.23
486.44	268.77
486.80	269.44
487.17	270.22
487.53	271.01
487.90	271.87
488.26	272.82
488.62	273.83
488.99	274.83
489.35	275.94
489.72	277.08
490.08	278.31
490.44	279.52
490.81	280.85
491.17	282.19
491.54	283.72
491.90	285.27
492.26	286.89
492.63	288.65
492.99	290.42
493.36	292.30
493.72	294.37
494.08	296.47
494.45	298.77
494.81	301.12
495.17	303.55
495.54	306.10
495.90	308.78
496.26	311.56
496.63	314.51
496.99	317.59
497.35	320.88
497.72	324.24
498.08	327.76
498.44	331.44
498.80	335.38
499.17	339.37
499.53	343.53
499.89	347.91
500.26	352.37
500.62	357.01
500.98	361.97
501.34	367.03
501.71	372.36
502.07	377.76
502.43	383.38
502.79	389.20
503.16	395.26
503.52	401.54
503.88	407.99
504.24	414.59
504.60	421.51
504.97	428.58
505.33	435.91
505.69	443.59
506.05	451.40
506.41	459.22
506.78	467.43
507.14	475.88
507.50	484.59
507.86	493.62
508.22	502.81
508.59	512.03
508.95	521.66
509.31	531.46
509.67	541.58
510.03	551.82
510.39	562.40
510.75	573.28
511.12	584.21
511.48	595.49
511.84	606.97
512.20	618.43
512.56	630.39
512.92	642.60
513.28	654.93
513.64	667.33
514.00	680.04
514.37	693.02
514.73	706.06
515.09	719.14
515.45	732.43
515.81	746.12
516.17	760.17
516.53	774.29
516.89	788.56
517.25	802.77
517.61	817.28
517.97	831.78
518.33	846.23
518.69	861.13
519.05	876.14
519.41	891.29
519.77	906.92
520.13	922.42
520.49	937.78
520.85	953.24
521.21	969.01
521.57	985.34
521.93	1001.11
522.29	1017.68
522.65	1033.97
523.01	1050.28
523.37	1066.41
523.73	1082.63
524.09	1098.68
524.45	1115.02
524.81	1131.70
525.17	1148.52
525.53	1165.46
525.89	1182.28
526.25	1199.04
526.61	1215.51
526.97	1232.44
527.33	1249.02
527.68	1265.66
528.04	1282.27
528.40	1298.92
528.76	1316.11
529.12	1332.77
529.48	1349.66
529.84	1365.68
530.20	1382.28
530.56	1399.42
530.91	1416.73
531.27	1433.42
531.63	1449.98
531.99	1466.59
532.35	1482.63
532.71	1498.54
533.07	1514.90
533.42	1530.97
533.78	1547.25
534.14	1563.59
534.50	1578.80
534.86	1594.71
535.21	1609.90
535.57	1625.91
535.93	1641.52
536.29	1656.44
536.65	1671.63
537.00	1686.48
537.36	1701.92
537.72	1716.58
538.08	1730.99
538.44	1745.09
538.79	1759.17
539.15	1773.05
539.51	1786.91
539.87	1801.41
540.22	1815.22
540.58	1829.05
540.94	1842.36
541.29	1855.23
541.65	1867.98
542.01	1881.44
542.37	1893.76
542.72	1906.38
543.08	1918.24
543.44	1930.73
543.79	1941.90
544.15	1952.95
544.51	1964.60
544.87	1975.50
545.22	1986.31
545.58	1996.49
545.94	2006.10
546.29	2015.88
546.65	2025.68
547.01	2034.90
547.36	2043.65
547.72	2052.21
548.07	2059.95
548.43	2068.15
548.79	2076.15
549.14	2083.67
549.50	2091.09
549.86	2098.91
550.21	2106.16
550.57	2113.37
550.92	2119.99
551.28	2127.22
551.64	2134.13
551.99	2140.72
552.35	2146.95
552.70	2153.16
553.06	2159.14
553.41	2165.61
553.77	2171.78
554.13	2177.86
554.48	2184.00
554.84	2189.32
555.19	2194.64
555.55	2199.88
555.90	2204.41
556.26	2209.23
556.61	2213.97
556.97	2218.05
557.32	2221.95
557.68	2225.99
558.03	2230.21
558.39	2234.02
558.74	2238.60
559.10	2242.50
559.45	2246.23
559.81	2250.55
560.16	2254.38
560.52	2257.62
560.87	2261.06
561.23	2263.45
561.58	2266.39
561.94	2268.92
562.29	2271.33
562.64	2273.86
563.00	2276.47
563.35	2280.06
563.71	2283.22
564.06	2286.34
564.42	2289.22
564.77	2291.73
565.12	2293.94
565.48	2295.68
565.83	2297.30
566.19	2298.56
566.54	2299.71
566.89	2300.76
567.25	2301.16
567.60	2302.41
567.96	2303.93
568.31	2304.67
568.66	2305.91
569.02	2306.41
569.37	2306.75
569.72	2307.49
570.08	2307.59
570.43	2307.55
570.78	2306.74
571.14	2305.15
571.49	2303.79
571.84	2303.44
572.20	2302.30
572.55	2301.33
572.90	2299.89
573.26	2298.39
573.61	2296.57
573.96	2294.42
574.31	2291.31
574.67	2288.28
575.02	2284.61
575.37	2281.33
575.72	2277.33
576.08	2274.04
576.43	2270.78
576.78	2266.83
577.13	2263.61
577.49	2260.54
577.84	2256.93
578.19	2253.10
578.54	2249.28
578.90	2245.05
579.25	2239.41
579.60	2234.37
579.95	2229.31
580.30	2224.22
580.66	2219.03
581.01	2214.01
581.36	2209.12
581.71	2204.92
582.06	2200.44
582.42	2195.93
582.77	2190.57
583.12	2185.97
583.47	2180.90
583.82	2175.71
584.17	2170.48
584.53	2164.86
584.88	2159.12
585.23	2153.28
585.58	2147.85
585.93	2142.38
586.28	2137.55
586.63	2132.40
586.98	2127.34
587.34	2122.61
587.69	2117.56
588.04	2112.30
588.39	2106.52
588.74	2100.08
589.09	2093.74
589.44	2086.82
589.79	2080.67
590.14	2075.02
590.49	2068.41
590.84	2062.07
591.19	2055.99
591.54	2049.55
591.89	2042.02
592.25	2035.18
592.60	2027.93
592.95	2020.12
593.30	2012.78
593.65	2005.01
594.00	1997.86
594.35	1990.57
594.70	1982.44
595.05	1975.02
595.40	1967.69
595.75	1960.20
596.10	1953.61
596.45	1946.84
596.80	1940.58
597.15	1933.78
597.50	1926.61
597.85	1920.12
598.19	1913.34
598.54	1906.12
598.89	1899.32
599.24	1893.50
599.59	1886.70
599.94	1880.43
600.29	1873.96
600.64	1867.21
600.99	1859.78
601.34	1852.93
601.69	1845.84
602.04	1838.77
602.39	1831.50
602.74	1824.62
603.08	1817.77
603.43	1811.10
603.78	1803.73
604.13	1796.39
604.48	1789.09
604.83	1782.15
605.18	1775.08
605.53	1767.07
605.87	1758.99
606.22	1751.80
606.57	1743.80
606.92	1736.47
607.27	1729.29
607.62	1722.50
607.96	1715.32
608.31	1708.64
608.66	1700.92
609.01	1693.29
609.36	1685.74
609.70	1677.68
610.05	1669.46
610.40	1661.76
610.75	1653.45
611.10	1645.79
611.44	1637.53
611.79	1629.54
612.14	1620.92
612.49	1611.82
612.83	1603.52
613.18	1595.52
613.53	1587.39
613.88	1578.95
614.22	1570.68
614.57	1562.14
614.92	1554.07
615.27	1546.40
615.61	1538.04
615.96	1530.14
616.31	1522.56
616.65	1515.21
617.00	1507.71
617.35	1500.14
617.70	1491.73
618.04	1483.26
618.39	1475.02
618.74	1467.44
619.08	1459.19
619.43	1451.64
619.78	1444.77
620.12	1437.50
620.47	1429.99
620.82	1421.84
621.16	1414.39
621.51	1406.75
621.85	1399.12
622.20	1390.52
622.55	1382.36
622.89	1374.56
623.24	1366.98
623.59	1359.58
623.93	1352.01
624.28	1344.82
624.62	1337.28
624.97	1330.24
625.32	1323.51
625.66	1316.52
626.01	1309.23
626.35	1301.78
626.70	1294.03
627.04	1286.20
627.39	1278.48
627.73	1271.00
628.08	1264.06
628.43	1256.66
628.77	1249.28
629.12	1241.61
629.46	1234.63
629.81	1227.23
630.15	1219.94
630.50	1212.48
630.84	1204.37
631.19	1196.55
631.53	1188.98
631.88	1181.38
632.22	1173.65
632.57	1166.24
632.91	1158.69
633.26	1151.34
633.60	1144.01
633.95	1136.97
634.29	1130.03
634.64	1123.30
634.98	1115.91
635.32	1108.77
635.67	1102.29
636.01	1095.62
636.36	1088.80
636.70	1082.21
637.05	1075.55
637.39	1069.16
637.73	1062.56
638.08	1056.72
638.42	1050.70
638.77	1044.32
639.11	1037.80
639.45	1031.49
639.80	1024.86
640.14	1018.37
640.49	1011.80
640.83	1005.49
641.17	999.13
641.52	992.80
641.86	986.36
642.20	980.52
642.55	974.28
642.89	967.70
643.23	961.25
643.58	955.60
643.92	949.37
644.26	943.22
644.61	937.25
644.95	931.30
645.29	924.62
645.64	917.88
645.98	911.55
646.32	905.73
646.66	899.63
647.01	893.86
647.35	888.16
647.69	882.45
648.04	876.93
648.38	871.13
648.72	865.08
649.06	859.09
649.41	853.25
649.75	847.21
650.09	841.32
650.43	835.52
650.78	829.35
651.12	823.40
651.46	817.77
651.80	811.97
652.14	806.50
652.49	801.14
652.83	795.91
653.17	790.13
653.51	784.34
653.85	778.98
654.20	773.27
654.54	767.28
654.88	761.52
655.22	755.71
655.56	750.03
655.90	744.59
656.25	739.32
656.59	733.87
656.93	728.74
657.27	723.53
657.61	718.10
657.95	712.98
658.29	707.90
658.64	702.62
658.98	697.32
659.32	691.86
659.66	686.64
660.00	681.43
660.34	676.60
660.68	671.74
661.02	666.66
661.36	662.04
661.70	657.62
662.05	653.22
662.39	648.79
662.73	644.34
663.07	640.02
663.41	635.58
663.75	631.16
664.09	626.70
664.43	622.44
664.77	618.35
665.11	614.10
665.45	610.06
665.79	606.00
666.13	601.88
666.47	597.89
666.81	593.74
667.15	589.62
667.49	585.71
667.83	581.98
668.17	578.12
668.51	574.02
668.85	569.99
669.19	566.16
669.53	562.37
669.87	558.56
670.21	554.84
670.55	551.22
670.89	547.80
671.23	544.34
671.57	540.80
671.91	537.29
672.25	533.82
672.58	530.25
672.92	526.85
673.26	523.70
673.60	520.51
673.94	517.38
674.28	514.46
674.62	511.47
674.96	508.29
675.30	505.41
675.64	502.55
675.97	499.82
676.31	496.98
676.65	494.05
676.99	491.35
677.33	488.47
677.67	485.64
678.01	482.58
678.34	479.63
678.68	476.77
679.02	473.90
679.36	471.18
679.70	468.54
680.04	465.78
680.37	462.91
680.71	460.13
681.05	457.59
681.39	454.90
681.73	452.27
682.06	449.80
682.40	447.24
682.74	444.69
683.08	442.14
683.42	439.52
683.75	437.04
684.09	434.46
684.43	431.97
684.77	429.53
685.10	427.23
685.44	424.97
685.78	422.66
686.12	420.46
686.45	418.14
686.79	415.80
687.13	413.60
687.46	411.45
687.80	409.29
688.14	407.08
688.48	405.02
688.81	402.75
689.15	400.58
689.49	398.41
689.82	396.31
690.16	394.19
690.50	392.21
690.83	390.27
691.17	388.29
691.51	386.41
691.84	384.60
692.18	382.64
692.52	380.61
692.85	378.63
693.19	376.71
693.52	374.89
693.86	373.09
694.20	371.31
694.53	369.52
694.87	367.67
695.21	365.90
695.54	364.09
695.88	362.37
696.21	360.62
696.55	358.95
696.88	357.35
697.22	355.71
697.56	354.15
697.89	352.50
698.23	350.88
698.56	349.27
698.90	347.66
699.23	346.04
699.57	344.51
699.90	343.01
700.24	341.50
700.58	339.95
700.91	338.46
701.25	337.03
701.58	335.63
701.92	334.30
702.25	332.92
702.59	331.52
702.92	330.23
703.26	328.95
703.59	327.67
703.93	326.44
704.26	325.21
704.60	323.90
704.93	322.61
705.26	321.40
705.60	320.23
705.93	319.08
706.27	318.04
706.60	317.02
706.94	315.98
707.27	314.85
707.61	313.86
707.94	312.83
708.27	311.75
708.61	310.71
708.94	309.72
709.28	308.75
709.61	307.80
709.94	306.86
710.28	305.84
710.61	304.88
710.95	303.83
711.28	302.96
711.61	302.01
711.95	301.14
712.28	300.20
712.61	299.26
712.95	298.33
713.28	297.51
713.61	296.59
713.95	295.67
714.28	294.83
714.61	293.97
714.95	293.16
715.28	292.29
715.61	291.45
715.95	290.64
716.28	289.78
716.61	289.00
716.95	288.19
717.28	287.46
717.61	286.69
717.94	285.99
718.28	285.18
718.61	284.46
718.94	283.77
719.27	283.11
719.61	282.50
719.94	281.83
720.27	281.10
720.60	280.45
720.94	279.86
721.27	279.29
721.60	278.71
721.93	278.07
722.27	277.54
722.60	276.96
722.93	276.39
723.26	275.87
723.59	275.27
723.93	274.73
724.26	274.18
724.59	273.66
724.92	273.07
725.25	272.60
725.59	272.08
725.92	271.55
726.25	271.04
726.58	270.51
726.91	270.05
727.24	269.53
727.57	269.02
727.91	268.50
728.24	268.02
728.57	267.49
728.90	267.05
729.23	266.57
729.56	266.15
729.89	265.66
730.22	265.18
730.55	264.70
730.89	264.20
731.22	263.74
731.55	263.29
731.88	262.88
732.21	262.41
732.54	261.95
732.87	261.51
733.20	261.10
733.53	260.70
733.86	260.31
734.19	259.96
734.52	259.61
734.85	259.29
735.18	258.84
735.51	258.50
735.84	258.10
736.17	257.74
736.50	257.30
736.83	257.05
737.16	256.68
737.49	256.40
737.82	256.04
738.15	255.71
738.48	255.39
738.81	255.03
739.14	254.72
739.47	254.46
739.80	254.14
740.13	253.83
740.46	253.48
740.79	253.12
741.12	252.78
741.45	252.46
741.78	252.09
742.11	251.81
742.44	251.49
742.77	251.21
743.10	250.87
743.43	250.61
743.75	250.21
744.08	250.04
744.41	249.76
744.74	249.51
745.07	249.23
745.40	248.99
745.73	248.75
746.06	248.48
746.39	248.20
746.71	247.93
747.04	247.64
747.37	247.39
747.70	247.17
748.03	246.96
748.36	246.71
748.68	246.50
749.01	246.28
749.34	246.04
749.67	245.77
750.00	245.58
750.33	245.41
750.65	245.22
750.98	244.90
751.31	244.69
751.64	244.51
751.97	244.34
752.29	244.12
752.62	243.90
752.95	243.71
753.28	243.49
753.60	243.31
753.93	243.18
754.26	243.02
754.59	242.80
754.91	242.60
755.24	242.40
755.57	242.23
755.90	242.03
756.22	241.84
756.55	241.67
756.88	241.47
757.20	241.29
757.53	241.10
757.86	240.93
758.19	240.77
758.51	240.58
758.84	240.38
759.17	240.23
759.49	240.06
759.82	239.98
760.15	239.83
760.47	239.67
760.80	239.47
761.13	239.36
761.45	239.18
761.78	239.04
762.11	238.95
762.43	238.79
762.76	238.67
763.08	238.58
763.41	238.49
763.74	238.38
764.06	238.22
764.39	238.11
764.71	237.96
765.04	237.80
765.37	237.67
765.69	237.57
766.02	237.42
766.34	237.29
766.67	237.09
767.00	236.99
767.32	236.93
767.65	236.89
767.97	236.78
768.30	236.70
768.62	236.55
768.95	236.42
769.27	236.31
769.60	236.18
769.92	236.04
770.25	235.91
770.57	235.74
770.90	235.62
771.22	235.44
771.55	235.36
771.87	235.25
772.20	235.15
772.52	235.11
772.85	235.09
773.17	235.01
773.50	234.89
773.82	234.78
774.15	234.61
774.47	234.43
774.80	234.30
775.12	234.20
775.45	234.12
775.77	234.02
776.09	233.92
776.42	233.82
776.74	233.79
777.07	233.68
777.39	233.63
777.72	233.57
778.04	233.53
778.36	233.47
778.69	233.42
779.01	233.34
779.33	233.19
779.66	233.04
779.98	232.96
780.31	232.89
780.63	232.83
780.95	232.78
781.28	232.69
781.60	232.63
781.92	232.55
782.25	232.50
782.57	232.41
782.89	232.32
783.22	232.27
783.54	232.15
783.86	232.11
784.19	232.04
784.51	231.97
784.83	231.88
785.16	231.79
785.48	231.71
785.80	231.67
786.12	231.63
786.45	231.58
786.77	231.53
787.09	231.50
787.42	231.43
787.74	231.38
788.06	231.38
788.38	231.33
788.71	231.28
789.03	231.24
789.35	231.27
789.67	231.28
789.99	231.22
790.32	231.17
790.64	231.15
790.96	231.18
791.28	231.14
791.61	231.15
791.93	231.12
792.25	231.06
792.57	231.09
792.89	231.05
793.21	231.05
793.54	231.03
793.86	230.98
794.18	230.97
794.50	230.92
794.82	230.90
795.14	230.89
795.47	230.87
795.79	230.86
796.11	230.76
796.43	230.70
796.75	230.71
797.07	230.69
797.39	230.65
797.71	230.57
798.04	230.56
798.36	230.54
798.68	230.55
799.00	230.55
799.32	230.50
799.64	230.47
799.96	230.44
800.28	230.42
800.60	230.40
800.92	230.41
801.24	230.35
801.56	230.33
801.89	230.30
802.21	230.31
802.53	230.24
802.85	230.26
803.17	230.27
803.49	230.22
803.81	230.20
804.13	230.18
804.45	230.16
804.77	230.16
805.09	230.10
805.41	230.06
805.73	230.02
806.05	229.95
806.37	229.94
806.69	229.89
807.01	229.86
807.33	229.86
807.65	229.80
807.97	229.85
808.28	229.81
808.60	229.77
808.92	229.71
809.24	229.75
809.56	229.71
809.88	229.65
810.20	229.63
810.52	229.63
810.84	229.58
811.16	229.51
811.48	229.45
811.80	229.43
812.12	229.38
812.43	229.36
812.75	229.35
813.07	229.29
813.39	229.27
813.71	229.27
814.03	229.19
814.35	229.14
814.67	229.05
814.98	229.01
815.30	229.00
815.62	228.98
815.94	228.87
816.26	228.91
816.58	228.86
816.89	228.84
817.21	228.78
817.53	228.74
817.85	228.73
818.17	228.72
818.48	228.69
818.80	228.71
819.12	228.64
819.44	228.59
819.76	228.57
820.07	228.52
820.39	228.43
820.71	228.43
821.03	228.42
821.34	228.43
821.66	228.44
821.98	228.45
822.30	228.39
822.61	228.47
822.93	228.36
823.25	228.34
823.57	228.29
823.88	228.30
824.20	228.30
824.52	228.26
824.83	228.21
825.15	228.19
825.47	228.12
825.79	228.15
826.10	228.10
826.42	228.09
826.74	228.08
827.05	228.10
827.37	228.06
827.69	228.03
828.00	227.99
828.32	227.93
828.64	227.88
828.95	227.91
829.27	227.85
829.58	227.86
829.90	227.89
830.22	227.93
830.53	227.88
830.85	227.85
831.17	227.85
831.48	227.85
831.80	227.81
832.11	227.85
832.43	227.83
832.75	227.85
833.06	227.88
833.38	227.87
833.69	227.86
834.01	227.88
834.32	227.85
834.64	227.86
834.96	227.88
835.27	227.86
835.59	227.86
835.90	227.85
836.22	227.85
836.53	227.84
836.85	227.84
837.16	227.97
837.48	227.99
837.79	228.05
838.11	228.07
838.42	228.08
838.74	228.06
839.05	228.07
839.37	228.07
839.68	228.05
840.00	228.05
840.31	228.05
840.63	228.09
840.94	228.12
841.26	228.10
841.57	228.11
841.88	228.16
842.20	228.15
842.51	228.13
842.83	228.16
843.14	228.24
843.46	228.23
843.77	228.16
844.08	228.14
844.40	228.09
844.71	228.12
845.03	228.13
845.34	228.12
845.65	228.11
845.97	228.13
846.28	228.12
846.60	228.13
846.91	228.10
847.22	228.08
847.54	228.14
847.85	228.15
848.16	228.10
848.48	228.08
848.79	228.11
849.10	228.11
849.42	228.10
849.73	227.98
850.04	227.95
850.36	227.91
850.67	227.95
850.98	227.95
851.30	227.92
851.61	227.87
851.92	227.86
852.23	227.88
852.55	227.87
852.86	227.85
853.17	227.84
853.49	227.88
853.80	227.89
854.11	227.86
854.42	227.84
854.74	227.85
855.05	227.83
855.36	227.76
855.67	227.75
855.99	227.75
856.30	227.85
856.61	227.88
856.92	227.87
857.23	227.84
857.55	227.82
857.86	227.82
858.17	227.86
858.48	227.85
858.79	227.82
859.11	227.83
859.42	227.82
859.73	227.82
860.04	227.80
860.35	227.74
860.66	227.70
860.98	227.68
861.29	227.67
861.60	227.66
861.91	227.68
862.22	227.66
862.53	227.60
862.84	227.47
863.16	227.46
863.47	227.40
863.78	227.40
864.09	227.37
864.40	227.36
864.71	227.35
865.02	227.34
865.33	227.32
865.64	227.28
865.95	227.26
866.27	227.31
866.58	227.27
866.89	227.29
867.20	227.28
867.51	227.26
867.82	227.25
868.13	227.26
868.44	227.23
868.75	227.24
869.06	227.28
869.37	227.27
869.68	227.26
869.99	227.29
870.30	227.28
870.61	227.28
870.92	227.25
871.23	227.24
871.54	227.27
871.85	227.29
872.16	227.30
872.47	227.33
872.78	227.27
873.09	227.31
873.40	227.30
873.71	227.31
874.02	227.32
874.33	227.33
874.64	227.31
874.95	227.33
875.26	227.31
875.56	227.31
875.87	227.34
876.18	227.35
876.49	227.48
876.80	227.49
877.11	227.51
877.42	227.53
877.73	227.51
878.04	227.51
878.35	227.52
878.66	227.57
878.96	227.57
879.27	227.57
879.58	227.56
879.89	227.55
880.20	227.60
880.51	227.61
880.82	227.63
881.12	227.63
881.43	227.61
881.74	227.64
882.05	227.64
882.36	227.62
882.67	227.61
882.97	227.49
883.28	227.47
883.59	227.48
883.90	227.50
884.21	227.53
884.51	227.54
884.82	227.53
885.13	227.51
885.44	227.51
885.74	227.52
886.05	227.49
886.36	227.50
886.67	227.47
886.98	227.52
887.28	227.51
887.59	227.53
887.90	227.54
888.20	227.55
888.51	227.54
888.82	227.54
889.13	227.58
889.43	227.68
889.74	227.67
890.05	227.62
890.35	227.60
890.66	227.57
890.97	227.55
891.28	227.52
891.58	227.50
891.89	227.49
892.20	227.46
892.50	227.47
892.81	227.45
893.12	227.43
893.42	227.36
893.73	227.39
894.04	227.42
894.34	227.41
894.65	227.40
894.95	227.40
895.26	227.40
895.57	227.40
895.87	227.28
896.18	227.30
896.48	227.33
896.79	227.32
897.10	227.35
897.40	227.34
897.71	227.36
898.01	227.37
898.32	227.38
898.63	227.39
898.93	227.41
899.24	227.43
899.54	227.43
899.85	227.42
900.15	227.37
900.46	227.32
900.76	227.35
901.07	227.34
901.38	227.33
901.68	227.35
901.99	227.31
902.29	227.31
902.60	227.30
902.90	227.29
903.21	227.28
903.51	227.25
903.82	227.27
904.12	227.26
904.43	227.23
904.73	227.18
905.03	227.15
905.34	227.23
905.64	227.20
905.95	227.17
906.25	227.16
906.56	227.16
906.86	227.15
907.17	227.14
907.47	227.15
907.77	227.12
908.08	227.09
908.38	227.08
908.69	227.07
908.99	227.09
909.30	227.09
909.60	227.09
909.90	227.10
910.21	227.03
910.51	227.02
910.81	227.05
911.12	227.08
911.42	227.10
911.73	226.98
912.03	227.01
912.33	227.06
912.64	227.06
912.94	227.08
913.24	227.11
913.55	227.07
913.85	227.04
914.15	227.11
914.46	227.11
914.76	227.12
915.06	227.09
915.37	227.08
915.67	227.07
915.97	227.07
916.27	227.05
916.58	227.10
916.88	227.06
917.18	227.04
917.49	227.11
917.79	227.11
918.09	227.12
918.39	227.12
918.70	227.10
919.00	227.10
919.30	227.11
919.60	227.09
919.91	227.12
920.21	227.15
920.51	227.11
920.81	227.11
921.12	227.12
921.42	227.15
921.72	227.17
922.02	227.16
922.32	227.15
922.63	227.17
922.93	227.21
923.23	227.22
923.53	227.21
923.83	227.13
924.13	227.15
924.44	227.12
924.74	227.15
925.04	227.18
925.34	227.19
925.64	227.15
925.94	227.16
926.24	227.20
926.55	227.16
926.85	227.17
927.15	227.19
927.45	227.18
927.75	227.15
928.05	227.13
928.35	227.14
928.65	227.15
928.95	227.16
929.26	227.09
929.56	227.11
929.86	227.15
930.16	227.14
930.46	227.14
930.76	227.18
931.06	227.12
931.36	227.11
931.66	227.10
931.96	227.13
932.26	227.13
932.56	227.07
932.86	227.11
933.16	227.11
933.46	227.08
933.76	227.08
934.06	227.12
934.36	227.16
934.66	227.16
934.96	227.18
935.26	227.22
935.56	227.29
935.86	227.29
936.16	227.29
936.46	227.27
936.76	227.26
937.06	227.23
937.36	227.25
937.66	227.25
937.96	227.28
938.26	227.25
938.56	227.25
938.86	227.27
939.16	227.27
939.46	227.29
939.76	227.31
940.06	227.29
940.35	227.30
940.65	227.26
940.95	227.26
941.25	227.21
941.55	227.14
941.85	227.10
942.15	227.10
942.45	227.12
942.75	227.14
943.04	227.12
943.34	227.14
943.64	227.12
943.94	227.12
944.24	227.09
944.54	227.10
944.84	227.09
945.13	227.10
945.43	227.05
945.73	227.03
946.03	227.01
946.33	227.00
946.62	226.95
946.92	226.92
947.22	226.93
947.52	226.94
947.82	226.99
948.11	226.97
948.41	226.93
948.71	226.87
949.01	226.88
949.31	226.88
949.60	226.89
949.90	226.93
950.20	226.90
950.50	226.91
950.79	226.90
951.09	226.89
951.39	226.85
951.69	226.87
951.98	226.86
952.28	226.89
952.58	226.86
952.87	226.87
953.17	226.90
953.47	226.87
953.76	226.86
954.06	226.82
954.36	226.83
954.66	226.85
954.95	226.90
955.25	226.89
955.55	226.89
955.84	226.85
956.14	226.83
956.44	226.82
956.73	226.81
957.03	226.80
957.32	226.81
957.62	226.81
957.92	226.85
958.21	226.84
958.51	226.92
958.81	226.94
959.10	226.92
959.40	226.94
959.69	226.94
959.99	226.95
960.29	226.97
960.58	226.98
960.88	227.03
961.17	226.98
961.47	227.00
961.76	226.97
962.06	227.00
962.36	226.98
962.65	226.99
962.95	226.96
963.24	226.98
963.54	226.99
963.83	227.01
964.13	226.98
964.42	226.97
964.72	226.90
965.01	226.88
965.31	226.91
965.60	226.89
965.90	226.97
966.19	226.98
966.49	226.95
966.78	226.91
967.08	226.89
967.37	226.92
967.67	226.90
967.96	226.93
968.26	226.92
968.55	226.93
968.85	226.95
969.14	226.98
969.43	226.99
969.73	226.96
970.02	226.92
970.32	226.93
970.61	226.96
970.91	226.90
971.20	226.94
971.49	226.94
971.79	226.94
972.08	226.91
972.38	226.91
972.67	226.94
972.96	226.98
973.26	226.98
973.55	227.01
973.85	227.03
974.14	227.06
974.43	227.09
974.73	227.10
975.02	227.09
975.31	227.10
975.61	227.08
975.90	227.08
976.19	227.09
976.49	227.10
976.78	227.09
977.07	227.16
977.37	227.19
977.66	227.21
977.95	227.20
978.24	227.19
978.54	227.22
978.83	227.22
979.12	227.23
979.42	227.20
979.71	227.18
980.00	227.20
980.29	227.19
980.59	227.16
980.88	227.17
981.17	227.15
981.46	227.15
981.76	227.18
982.05	227.24
982.34	227.25
982.63	227.27
982.93	227.27
983.22	227.26
983.51	227.26
983.80	227.26
984.09	227.30
984.39	227.28
984.68	227.25
984.97	227.25
985.26	227.20
985.55	227.21
985.85	227.17
986.14	227.16
986.43	227.16
986.72	227.19
987.01	227.17
987.30	227.18
987.59	227.17
987.89	227.16
988.18	227.11
988.47	227.08
988.76	227.03
989.05	227.02
989.34	226.98
989.63	226.98
989.92	226.94
990.22	226.89
990.51	226.89
990.80	226.87
991.09	226.85
991.38	226.89
991.67	226.87
991.96	226.87
992.25	226.86
992.54	226.83
992.83	226.78
993.12	226.78
993.41	226.79
993.70	226.81
993.99	226.80
994.28	226.82
994.58	226.84
994.87	226.85
995.16	226.83
995.45	226.80
995.74	226.75
996.03	226.78
996.32	226.77
996.61	226.79
996.90	226.81
997.19	226.80
997.48	226.78
997.77	226.77
998.06	226.76
998.34	226.73
998.63	226.69
998.92	226.72
999.21	226.71
999.50	226.69
999.79	226.65
1000.08	226.65
1000.37	226.64
1000.66	226.64
1000.95	226.67
1001.24	226.69
1001.53	226.75
1001.82	226.74
1002.11	226.74
1002.40	226.76
1002.68	226.73
1002.97	226.78
1003.26	226.78
1003.55	226.78
1003.84	226.80
1004.13	226.87
1004.42	226.89
1004.71	226.91
1004.99	226.88
1005.28	226.91
1005.57	226.93
1005.86	226.94
1006.15	226.96
1006.44	226.95
1006.72	226.94
1007.01	226.94
1007.30	226.90
1007.59	226.88
1007.88	226.92
1008.17	226.92
1008.45	226.94
1008.74	226.93
1009.03	226.90
1009.32	226.91
1009.60	226.92
1009.89	226.92
1010.18	226.89
1010.47	226.89
1010.76	226.89
1011.04	226.92
1011.33	226.95
1011.62	226.96
1011.91	226.96
1012.19	226.99
1012.48	226.96
1012.77	227.00
1013.05	227.01
1013.34	227.06
1013.63	227.07
1013.92	227.09
1014.20	227.10
1014.49	227.10
1014.78	227.14
1015.06	227.13
1015.35	227.14
1015.64	227.18
1015.92	227.24
1016.21	227.26
1016.50	227.27
1016.78	227.34
1017.07	227.35
1017.36	227.32
1017.64	227.32
1017.93	227.35
1018.22	227.31
1018.50	227.31
1018.79	227.31
1019.08	227.30
1019.36	227.31
1019.65	227.31
1019.93	227.33
1020.22	227.33
1020.51	227.38
1020.79	227.39
1021.08	226.96
1021.36	226.43
1021.65	227.40
1021.94	227.43
1022.22	227.18
1022.51	227.27
1022.79	227.81
1023.08	227.35
1023.36	228.37
1023.65	227.49
>>>>>End Processed Spectral Data<<<<<
