SpectraSuite Data File
++++++++++++++++++++++++++++++++++++
Date: Fri Feb 01 16:42:32 EST 2013
User: group
Dark Spectrum Present: No
Reference Spectrum Present: No
Number of Sampled Component Spectra: 1
Spectrometers: USB2E7196
Integration Time (usec): 35000 (USB2E7196)
Spectra Averaged: 100 (USB2E7196)
Boxcar Smoothing: 10 (USB2E7196)
Correct for Electrical Dark: No (USB2E7196)
Strobe/Lamp Enabled: No (USB2E7196)
Correct for Detector Non-linearity: No (USB2E7196)
Correct for Stray Light: No (USB2E7196)
Number of Pixels in Processed Spectrum: 2048
>>>>>Begin Processed Spectral Data<<<<<
339.09	0.00
339.48	213.63
339.86	215.20
340.24	216.04
340.63	217.47
341.01	220.29
341.39	220.17
341.78	221.73
342.16	222.84
342.54	223.60
342.93	211.73
343.31	222.43
343.69	222.98
344.07	223.41
344.46	223.83
344.84	224.21
345.22	224.45
345.60	224.70
345.99	224.90
346.37	225.04
346.75	225.15
347.13	225.20
347.52	225.29
347.90	225.37
348.28	225.44
348.66	225.48
349.05	225.51
349.43	225.56
349.81	225.61
350.19	225.67
350.57	225.76
350.96	225.82
351.34	225.92
351.72	225.99
352.10	226.09
352.48	226.19
352.87	226.27
353.25	226.36
353.63	226.43
354.01	226.46
354.39	226.56
354.77	226.62
355.15	226.73
355.54	226.78
355.92	226.86
356.30	226.93
356.68	227.06
357.06	227.15
357.44	227.21
357.82	227.24
358.20	227.33
358.58	227.38
358.97	227.46
359.35	227.53
359.73	227.61
360.11	227.68
360.49	227.75
360.87	227.79
361.25	227.87
361.63	227.95
362.01	228.04
362.39	228.10
362.77	228.15
363.15	228.20
363.53	228.27
363.91	228.26
364.29	228.28
364.67	228.24
365.05	228.25
365.43	228.28
365.81	228.32
366.19	228.37
366.57	228.44
366.95	228.46
367.33	228.45
367.71	228.44
368.09	228.49
368.47	228.47
368.85	228.46
369.23	228.48
369.61	228.44
369.99	228.43
370.37	228.43
370.75	228.46
371.13	228.40
371.51	228.33
371.89	228.31
372.27	228.27
372.65	228.25
373.03	228.22
373.41	228.18
373.78	228.11
374.16	227.98
374.54	227.87
374.92	227.80
375.30	227.79
375.68	227.69
376.06	227.59
376.44	227.55
376.82	227.48
377.19	227.41
377.57	227.32
377.95	227.23
378.33	227.12
378.71	227.01
379.09	227.01
379.47	226.93
379.84	226.88
380.22	226.81
380.60	226.72
380.98	226.67
381.36	226.56
381.73	226.50
382.11	226.46
382.49	226.42
382.87	226.32
383.25	226.22
383.62	226.30
384.00	226.21
384.38	226.11
384.76	226.06
385.13	226.01
385.51	225.97
385.89	225.90
386.27	225.83
386.64	225.78
387.02	225.68
387.40	225.64
387.78	225.58
388.15	225.55
388.53	225.49
388.91	225.43
389.29	225.40
389.66	225.36
390.04	225.34
390.42	225.33
390.79	225.32
391.17	225.29
391.55	225.14
391.92	225.16
392.30	225.17
392.68	225.16
393.05	225.15
393.43	225.14
393.81	225.13
394.18	225.12
394.56	225.09
394.94	225.11
395.31	225.11
395.69	225.18
396.06	225.18
396.44	225.20
396.82	225.23
397.19	225.36
397.57	225.38
397.95	225.44
398.32	225.44
398.70	225.52
399.07	225.60
399.45	225.68
399.82	225.70
400.20	225.76
400.58	225.83
400.95	225.85
401.33	225.94
401.70	226.10
402.08	226.17
402.45	226.28
402.83	226.39
403.20	226.52
403.58	226.57
403.95	226.71
404.33	226.82
404.71	226.91
405.08	227.04
405.46	227.20
405.83	227.34
406.21	227.49
406.58	227.62
406.96	227.77
407.33	227.95
407.70	228.17
408.08	228.42
408.45	228.65
408.83	228.89
409.20	229.08
409.58	229.24
409.95	229.53
410.33	229.81
410.70	230.06
411.08	230.37
411.45	230.68
411.82	231.01
412.20	231.38
412.57	231.79
412.95	232.12
413.32	232.51
413.69	232.92
414.07	233.34
414.44	233.83
414.82	234.29
415.19	234.83
415.56	235.37
415.94	235.95
416.31	236.60
416.68	237.26
417.06	238.01
417.43	238.70
417.81	239.44
418.18	240.22
418.55	241.09
418.93	241.96
419.30	242.87
419.67	243.79
420.04	244.77
420.42	245.75
420.79	246.94
421.16	248.02
421.54	249.21
421.91	250.43
422.28	251.69
422.66	253.04
423.03	254.34
423.40	255.66
423.77	257.02
424.15	258.43
424.52	259.87
424.89	261.43
425.26	262.97
425.64	264.46
426.01	266.00
426.38	267.64
426.75	269.26
427.13	270.93
427.50	272.73
427.87	274.57
428.24	276.42
428.61	278.11
428.99	280.09
429.36	282.17
429.73	284.23
430.10	286.18
430.47	288.18
430.85	290.28
431.22	292.48
431.59	294.84
431.96	297.04
432.33	299.49
432.70	301.82
433.08	304.59
433.45	307.19
433.82	309.75
434.19	312.58
434.56	315.36
434.93	317.99
435.30	320.54
435.68	323.39
436.05	326.22
436.42	328.99
436.79	331.43
437.16	334.08
437.53	336.84
437.90	339.65
438.27	342.36
438.64	345.12
439.01	347.68
439.38	349.86
439.75	351.98
440.13	354.44
440.50	356.77
440.87	358.59
441.24	360.51
441.61	362.66
441.98	364.15
442.35	365.93
442.72	367.78
443.09	369.60
443.46	370.56
443.83	371.15
444.20	371.62
444.57	372.49
444.94	372.76
445.31	373.18
445.68	373.54
446.05	373.64
446.42	373.29
446.79	372.89
447.16	372.43
447.53	372.15
447.90	370.99
448.27	369.83
448.64	368.31
449.01	367.16
449.37	365.24
449.74	363.37
450.11	361.16
450.48	358.73
450.85	356.26
451.22	354.13
451.59	352.12
451.96	350.23
452.33	347.64
452.70	345.35
453.07	342.50
453.43	339.62
453.80	336.83
454.17	334.19
454.54	331.68
454.91	329.04
455.28	326.37
455.65	323.96
456.02	321.55
456.38	319.41
456.75	316.78
457.12	314.53
457.49	312.32
457.86	310.18
458.23	308.31
458.59	306.24
458.96	304.23
459.33	302.39
459.70	300.55
460.07	299.07
460.43	297.33
460.80	295.72
461.17	294.32
461.54	292.87
461.91	291.43
462.27	289.99
462.64	288.74
463.01	287.42
463.38	286.13
463.74	284.77
464.11	283.63
464.48	282.64
464.85	281.52
465.21	280.69
465.58	279.79
465.95	278.74
466.32	277.89
466.68	276.94
467.05	276.10
467.42	275.21
467.78	274.32
468.15	273.51
468.52	272.87
468.88	272.03
469.25	271.30
469.62	270.71
469.98	270.08
470.35	269.50
470.72	268.94
471.08	268.30
471.45	267.79
471.82	267.26
472.18	266.64
472.55	266.25
472.92	265.75
473.28	265.32
473.65	264.85
474.02	264.43
474.38	264.11
474.75	263.77
475.11	263.44
475.48	263.21
475.85	262.95
476.21	262.74
476.58	262.57
476.94	262.43
477.31	262.25
477.67	262.11
478.04	261.98
478.41	261.89
478.77	261.95
479.14	261.91
479.50	261.93
479.87	262.01
480.23	262.13
480.60	262.18
480.96	262.27
481.33	262.51
481.69	262.67
482.06	262.87
482.42	263.10
482.79	263.33
483.15	263.61
483.52	264.01
483.88	264.36
484.25	264.73
484.61	265.16
484.98	265.62
485.34	266.16
485.71	266.75
486.07	267.39
486.44	267.96
486.80	268.64
487.17	269.31
487.53	270.13
487.90	270.93
488.26	271.85
488.62	272.84
488.99	273.77
489.35	274.83
489.72	275.96
490.08	277.13
490.44	278.40
490.81	279.76
491.17	281.09
491.54	282.59
491.90	284.11
492.26	285.74
492.63	287.50
492.99	289.31
493.36	291.20
493.72	293.22
494.08	295.30
494.45	297.50
494.81	299.91
495.17	302.34
495.54	304.96
495.90	307.65
496.26	310.42
496.63	313.43
496.99	316.55
497.35	319.80
497.72	323.22
498.08	326.73
498.44	330.39
498.80	334.33
499.17	338.35
499.53	342.58
499.89	346.94
500.26	351.47
500.62	356.09
500.98	361.05
501.34	366.13
501.71	371.45
502.07	376.91
502.43	382.52
502.79	388.30
503.16	394.31
503.52	400.59
503.88	406.97
504.24	413.62
504.60	420.49
504.97	427.64
505.33	434.94
505.69	442.66
506.05	450.45
506.41	458.32
506.78	466.44
507.14	474.84
507.50	483.61
507.86	492.57
508.22	501.77
508.59	510.97
508.95	520.50
509.31	530.33
509.67	540.44
510.03	550.78
510.39	561.36
510.75	572.07
511.12	582.97
511.48	594.27
511.84	605.65
512.20	617.07
512.56	628.92
512.92	641.04
513.28	653.34
513.64	665.78
514.00	678.40
514.37	691.37
514.73	704.41
515.09	717.31
515.45	730.51
515.81	744.10
516.17	757.98
516.53	772.00
516.89	786.15
517.25	800.25
517.61	814.42
517.97	828.88
518.33	843.32
518.69	857.99
519.05	872.87
519.41	887.92
519.77	903.34
520.13	918.75
520.49	934.07
520.85	949.31
521.21	964.78
521.57	980.95
521.93	996.49
522.29	1012.69
522.65	1028.88
523.01	1045.01
523.37	1060.85
523.73	1076.91
524.09	1092.96
524.45	1109.07
524.81	1125.59
525.17	1142.33
525.53	1158.87
525.89	1175.60
526.25	1192.30
526.61	1208.54
526.97	1225.23
527.33	1241.61
527.68	1258.03
528.04	1274.37
528.40	1290.74
528.76	1307.78
529.12	1324.16
529.48	1341.00
529.84	1356.84
530.20	1373.22
530.56	1389.90
530.91	1407.14
531.27	1423.78
531.63	1440.18
531.99	1456.56
532.35	1472.43
532.71	1488.27
533.07	1504.52
533.42	1520.26
533.78	1536.27
534.14	1552.37
534.50	1567.46
534.86	1583.20
535.21	1598.24
535.57	1613.94
535.93	1629.33
536.29	1643.88
536.65	1658.82
537.00	1673.27
537.36	1688.43
537.72	1702.81
538.08	1717.11
538.44	1730.56
538.79	1744.16
539.15	1757.28
539.51	1770.72
539.87	1784.77
540.22	1798.17
540.58	1811.52
540.94	1824.55
541.29	1836.93
541.65	1849.37
542.01	1862.27
542.37	1874.52
542.72	1886.75
543.08	1898.41
543.44	1910.59
543.79	1921.76
544.15	1932.41
544.51	1943.95
544.87	1954.75
545.22	1965.54
545.58	1975.73
545.94	1985.67
546.29	1995.56
546.65	2005.65
547.01	2014.95
547.36	2023.62
547.72	2032.01
548.07	2040.13
548.43	2048.36
548.79	2056.29
549.14	2063.92
549.50	2071.28
549.86	2078.69
550.21	2085.89
550.57	2093.00
550.92	2099.64
551.28	2106.58
551.64	2113.81
551.99	2120.21
552.35	2126.30
552.70	2132.42
553.06	2138.43
553.41	2144.65
553.77	2150.58
554.13	2156.38
554.48	2162.44
554.84	2168.06
555.19	2173.35
555.55	2178.31
555.90	2182.58
556.26	2187.65
556.61	2192.26
556.97	2196.79
557.32	2200.91
557.68	2205.07
558.03	2209.22
558.39	2212.80
558.74	2217.40
559.10	2221.22
559.45	2224.80
559.81	2229.01
560.16	2232.82
560.52	2236.06
560.87	2239.55
561.23	2242.18
561.58	2245.10
561.94	2247.68
562.29	2249.85
562.64	2252.74
563.00	2255.29
563.35	2258.94
563.71	2262.15
564.06	2265.35
564.42	2268.30
564.77	2270.99
565.12	2273.50
565.48	2275.48
565.83	2277.44
566.19	2278.96
566.54	2279.86
566.89	2281.25
567.25	2282.06
567.60	2283.37
567.96	2285.22
568.31	2285.91
568.66	2287.12
569.02	2287.99
569.37	2288.41
569.72	2289.41
570.08	2289.58
570.43	2289.86
570.78	2289.41
571.14	2287.97
571.49	2286.59
571.84	2286.06
572.20	2284.97
572.55	2283.82
572.90	2282.36
573.26	2281.20
573.61	2279.37
573.96	2277.84
574.31	2274.90
574.67	2272.03
575.02	2268.36
575.37	2264.86
575.72	2261.33
576.08	2257.92
576.43	2254.47
576.78	2251.04
577.13	2247.72
577.49	2244.50
577.84	2241.09
578.19	2237.28
578.54	2233.75
578.90	2229.87
579.25	2224.40
579.60	2219.60
579.95	2214.70
580.30	2209.74
580.66	2204.45
581.01	2199.52
581.36	2194.59
581.71	2190.53
582.06	2186.31
582.42	2182.09
582.77	2176.91
583.12	2172.37
583.47	2167.96
583.82	2163.28
584.17	2158.05
584.53	2152.74
584.88	2147.28
585.23	2141.69
585.58	2136.34
585.93	2130.85
586.28	2125.96
586.63	2121.01
586.98	2115.94
587.34	2111.30
587.69	2106.48
588.04	2101.54
588.39	2096.06
588.74	2089.66
589.09	2083.44
589.44	2076.69
589.79	2070.54
590.14	2064.97
590.49	2058.44
590.84	2051.94
591.19	2045.94
591.54	2039.47
591.89	2032.43
592.25	2025.85
592.60	2018.64
592.95	2011.24
593.30	2004.06
593.65	1996.55
594.00	1989.67
594.35	1982.59
594.70	1974.53
595.05	1967.65
595.40	1960.35
595.75	1953.02
596.10	1946.94
596.45	1940.47
596.80	1934.23
597.15	1927.83
597.50	1921.08
597.85	1914.65
598.19	1908.32
598.54	1901.41
598.89	1894.87
599.24	1888.94
599.59	1882.43
599.94	1876.24
600.29	1869.97
600.64	1863.33
600.99	1856.11
601.34	1849.33
601.69	1842.31
602.04	1835.66
602.39	1828.28
602.74	1821.55
603.08	1814.91
603.43	1808.22
603.78	1801.02
604.13	1793.93
604.48	1786.85
604.83	1779.95
605.18	1773.39
605.53	1765.46
605.87	1757.47
606.22	1750.19
606.57	1742.23
606.92	1734.56
607.27	1727.45
607.62	1720.56
607.96	1713.50
608.31	1707.06
608.66	1699.48
609.01	1692.08
609.36	1684.53
609.70	1676.66
610.05	1668.67
610.40	1660.87
610.75	1652.61
611.10	1644.83
611.44	1636.38
611.79	1628.32
612.14	1619.68
612.49	1610.42
612.83	1601.90
613.18	1593.74
613.53	1585.77
613.88	1577.37
614.22	1569.33
614.57	1560.84
614.92	1552.81
615.27	1545.37
615.61	1537.04
615.96	1529.13
616.31	1521.38
616.65	1514.11
617.00	1506.48
617.35	1498.82
617.70	1490.73
618.04	1482.41
618.39	1474.12
618.74	1466.71
619.08	1458.35
619.43	1450.77
619.78	1443.79
620.12	1436.94
620.47	1429.34
620.82	1421.12
621.16	1413.60
621.51	1405.98
621.85	1398.25
622.20	1389.80
622.55	1381.37
622.89	1373.57
623.24	1365.81
623.59	1358.41
623.93	1350.86
624.28	1343.72
624.62	1336.25
624.97	1328.99
625.32	1322.06
625.66	1315.06
626.01	1307.87
626.35	1300.67
626.70	1292.92
627.04	1285.32
627.39	1277.36
627.73	1270.13
628.08	1263.41
628.43	1256.21
628.77	1249.02
629.12	1241.56
629.46	1234.48
629.81	1226.90
630.15	1219.68
630.50	1212.45
630.84	1204.44
631.19	1196.35
631.53	1188.77
631.88	1181.18
632.22	1173.55
632.57	1166.30
632.91	1158.83
633.26	1151.42
633.60	1143.84
633.95	1136.61
634.29	1129.38
634.64	1122.66
634.98	1115.27
635.32	1108.07
635.67	1101.49
636.01	1094.72
636.36	1087.99
636.70	1081.45
637.05	1074.99
637.39	1068.42
637.73	1061.92
638.08	1056.00
638.42	1050.17
638.77	1043.68
639.11	1037.25
639.45	1031.01
639.80	1024.41
640.14	1018.12
640.49	1011.63
640.83	1005.36
641.17	999.28
641.52	993.05
641.86	986.62
642.20	980.82
642.55	974.39
642.89	967.88
643.23	961.24
643.58	955.45
643.92	949.32
644.26	943.38
644.61	937.35
644.95	931.33
645.29	924.77
645.64	918.06
645.98	911.83
646.32	905.80
646.66	899.68
647.01	893.84
647.35	888.10
647.69	882.23
648.04	876.73
648.38	870.93
648.72	865.03
649.06	859.05
649.41	853.09
649.75	847.21
650.09	841.34
650.43	835.61
650.78	829.46
651.12	823.48
651.46	817.69
651.80	811.96
652.14	806.51
652.49	801.06
652.83	795.93
653.17	790.31
653.51	784.72
653.85	779.31
654.20	773.76
654.54	767.77
654.88	762.07
655.22	756.17
655.56	750.40
655.90	744.85
656.25	739.61
656.59	734.27
656.93	729.14
657.27	724.07
657.61	718.71
657.95	713.59
658.29	708.48
658.64	703.25
658.98	697.87
659.32	692.36
659.66	687.30
660.00	682.03
660.34	677.04
660.68	672.08
661.02	667.07
661.36	662.33
661.70	657.84
662.05	653.49
662.39	649.26
662.73	644.91
663.07	640.53
663.41	636.06
663.75	631.64
664.09	627.14
664.43	622.65
664.77	618.57
665.11	614.37
665.45	610.24
665.79	606.19
666.13	602.18
666.47	598.17
666.81	593.96
667.15	589.80
667.49	585.89
667.83	582.05
668.17	578.11
668.51	574.07
668.85	569.98
669.19	566.11
669.53	562.27
669.87	558.45
670.21	554.81
670.55	551.16
670.89	547.70
671.23	544.27
671.57	540.74
671.91	537.23
672.25	533.66
672.58	530.15
672.92	526.67
673.26	523.54
673.60	520.34
673.94	517.36
674.28	514.46
674.62	511.51
674.96	508.42
675.30	505.51
675.64	502.56
675.97	499.81
676.31	496.92
676.65	493.95
676.99	491.21
677.33	488.25
677.67	485.46
678.01	482.44
678.34	479.49
678.68	476.59
679.02	473.76
679.36	470.96
679.70	468.26
680.04	465.56
680.37	462.70
680.71	459.88
681.05	457.20
681.39	454.44
681.73	451.76
682.06	449.23
682.40	446.69
682.74	444.14
683.08	441.55
683.42	438.95
683.75	436.40
684.09	433.82
684.43	431.44
684.77	428.97
685.10	426.60
685.44	424.30
685.78	421.99
686.12	419.64
686.45	417.41
686.79	415.08
687.13	412.85
687.46	410.65
687.80	408.48
688.14	406.16
688.48	404.10
688.81	401.87
689.15	399.74
689.49	397.59
689.82	395.50
690.16	393.41
690.50	391.44
690.83	389.56
691.17	387.56
691.51	385.59
691.84	383.73
692.18	381.78
692.52	379.80
692.85	377.87
693.19	376.04
693.52	374.19
693.86	372.34
694.20	370.55
694.53	368.75
694.87	366.87
695.21	365.11
695.54	363.26
695.88	361.51
696.21	359.73
696.55	358.00
696.88	356.28
697.22	354.64
697.56	353.02
697.89	351.37
698.23	349.79
698.56	348.24
698.90	346.65
699.23	345.05
699.57	343.49
699.90	341.93
700.24	340.34
700.58	338.83
700.91	337.37
701.25	335.92
701.58	334.56
701.92	333.20
702.25	331.87
702.59	330.59
702.92	329.27
703.26	327.99
703.59	326.75
703.93	325.57
704.26	324.35
704.60	323.07
704.93	321.80
705.26	320.53
705.60	319.33
705.93	318.16
706.27	317.11
706.60	316.07
706.94	314.99
707.27	313.88
707.61	312.79
707.94	311.71
708.27	310.63
708.61	309.56
708.94	308.58
709.28	307.60
709.61	306.55
709.94	305.60
710.28	304.59
710.61	303.57
710.95	302.49
711.28	301.58
711.61	300.63
711.95	299.70
712.28	298.76
712.61	297.78
712.95	296.85
713.28	295.95
713.61	295.03
713.95	294.15
714.28	293.35
714.61	292.47
714.95	291.68
715.28	290.84
715.61	289.93
715.95	289.08
716.28	288.23
716.61	287.43
716.95	286.61
717.28	285.88
717.61	285.11
717.94	284.45
718.28	283.63
718.61	282.89
718.94	282.18
719.27	281.55
719.61	280.94
719.94	280.30
720.27	279.59
720.60	278.94
720.94	278.37
721.27	277.80
721.60	277.24
721.93	276.64
722.27	276.05
722.60	275.50
722.93	274.95
723.26	274.41
723.59	273.83
723.93	273.27
724.26	272.66
724.59	272.10
724.92	271.52
725.25	271.04
725.59	270.53
725.92	270.05
726.25	269.54
726.58	269.02
726.91	268.51
727.24	268.06
727.57	267.59
727.91	267.08
728.24	266.58
728.57	266.08
728.90	265.60
729.23	265.13
729.56	264.74
729.89	264.23
730.22	263.71
730.55	263.26
730.89	262.83
731.22	262.42
731.55	261.99
731.88	261.56
732.21	261.10
732.54	260.69
732.87	260.28
733.20	259.83
733.53	259.43
733.86	259.06
734.19	258.65
734.52	258.26
734.85	257.92
735.18	257.51
735.51	257.16
735.84	256.78
736.17	256.45
736.50	256.00
736.83	255.80
737.16	255.49
737.49	255.14
737.82	254.78
738.15	254.43
738.48	254.07
738.81	253.74
739.14	253.41
739.47	253.07
739.80	252.72
740.13	252.42
740.46	252.05
740.79	251.71
741.12	251.39
741.45	251.04
741.78	250.65
742.11	250.36
742.44	250.03
742.77	249.72
743.10	249.36
743.43	249.05
743.75	248.64
744.08	248.49
744.41	248.21
744.74	247.95
745.07	247.65
745.40	247.38
745.73	247.15
746.06	246.92
746.39	246.64
746.71	246.40
747.04	246.13
747.37	245.91
747.70	245.69
748.03	245.44
748.36	245.28
748.68	245.07
749.01	244.82
749.34	244.61
749.67	244.42
750.00	244.23
750.33	244.12
750.65	243.93
750.98	243.58
751.31	243.37
751.64	243.14
751.97	243.05
752.29	242.85
752.62	242.59
752.95	242.35
753.28	242.18
753.60	242.00
753.93	241.83
754.26	241.64
754.59	241.40
754.91	241.22
755.24	240.97
755.57	240.80
755.90	240.60
756.22	240.41
756.55	240.18
756.88	239.98
757.20	239.75
757.53	239.55
757.86	239.40
758.19	239.28
758.51	239.13
758.84	238.90
759.17	238.72
759.49	238.59
759.82	238.47
760.15	238.30
760.47	238.12
760.80	237.96
761.13	237.84
761.45	237.72
761.78	237.55
762.11	237.45
762.43	237.30
762.76	237.20
763.08	237.03
763.41	236.90
763.74	236.81
764.06	236.65
764.39	236.52
764.71	236.37
765.04	236.22
765.37	236.06
765.69	235.96
766.02	235.86
766.34	235.74
766.67	235.61
767.00	235.53
767.32	235.47
767.65	235.43
767.97	235.28
768.30	235.16
768.62	235.04
768.95	234.90
769.27	234.77
769.60	234.68
769.92	234.59
770.25	234.49
770.57	234.34
770.90	234.22
771.22	234.13
771.55	234.03
771.87	233.93
772.20	233.86
772.52	233.83
772.85	233.82
773.17	233.70
773.50	233.58
773.82	233.45
774.15	233.28
774.47	233.13
774.80	233.04
775.12	232.95
775.45	232.88
775.77	232.80
776.09	232.72
776.42	232.60
776.74	232.56
777.07	232.47
777.39	232.42
777.72	232.35
778.04	232.26
778.36	232.19
778.69	232.11
779.01	232.02
779.33	231.86
779.66	231.74
779.98	231.66
780.31	231.60
780.63	231.57
780.95	231.53
781.28	231.45
781.60	231.39
781.92	231.34
782.25	231.25
782.57	231.16
782.89	231.15
783.22	231.07
783.54	230.98
783.86	230.93
784.19	230.85
784.51	230.84
784.83	230.79
785.16	230.73
785.48	230.67
785.80	230.65
786.12	230.59
786.45	230.50
786.77	230.48
787.09	230.44
787.42	230.35
787.74	230.31
788.06	230.26
788.38	230.21
788.71	230.14
789.03	230.12
789.35	230.12
789.67	230.03
789.99	230.03
790.32	229.95
790.64	229.88
790.96	229.91
791.28	229.83
791.61	229.79
791.93	229.76
792.25	229.74
792.57	229.78
792.89	229.73
793.21	229.70
793.54	229.63
793.86	229.58
794.18	229.58
794.50	229.52
794.82	229.49
795.14	229.45
795.47	229.43
795.79	229.39
796.11	229.34
796.43	229.27
796.75	229.21
797.07	229.24
797.39	229.26
797.71	229.19
798.04	229.17
798.36	229.14
798.68	229.11
799.00	229.06
799.32	228.97
799.64	228.97
799.96	228.96
800.28	228.97
800.60	228.97
800.92	228.94
801.24	228.91
801.56	228.90
801.89	228.86
802.21	228.83
802.53	228.79
802.85	228.79
803.17	228.81
803.49	228.77
803.81	228.74
804.13	228.71
804.45	228.63
804.77	228.63
805.09	228.62
805.41	228.58
805.73	228.54
806.05	228.49
806.37	228.45
806.69	228.41
807.01	228.40
807.33	228.36
807.65	228.29
807.97	228.33
808.28	228.26
808.60	228.23
808.92	228.20
809.24	228.25
809.56	228.21
809.88	228.16
810.20	228.14
810.52	228.11
810.84	228.06
811.16	228.03
811.48	227.97
811.80	227.95
812.12	227.96
812.43	227.96
812.75	227.92
813.07	227.89
813.39	227.87
813.71	227.80
814.03	227.76
814.35	227.76
814.67	227.66
814.98	227.67
815.30	227.68
815.62	227.65
815.94	227.52
816.26	227.54
816.58	227.51
816.89	227.54
817.21	227.49
817.53	227.47
817.85	227.44
818.17	227.42
818.48	227.38
818.80	227.36
819.12	227.32
819.44	227.28
819.76	227.24
820.07	227.22
820.39	227.19
820.71	227.18
821.03	227.13
821.34	227.10
821.66	227.10
821.98	227.06
822.30	227.00
822.61	227.05
822.93	226.98
823.25	226.98
823.57	226.92
823.88	226.91
824.20	226.88
824.52	226.89
824.83	226.88
825.15	226.86
825.47	226.83
825.79	226.81
826.10	226.79
826.42	226.78
826.74	226.78
827.05	226.77
827.37	226.75
827.69	226.74
828.00	226.70
828.32	226.65
828.64	226.62
828.95	226.68
829.27	226.64
829.58	226.65
829.90	226.66
830.22	226.69
830.53	226.69
830.85	226.66
831.17	226.64
831.48	226.62
831.80	226.63
832.11	226.60
832.43	226.60
832.75	226.61
833.06	226.64
833.38	226.59
833.69	226.58
834.01	226.54
834.32	226.52
834.64	226.57
834.96	226.57
835.27	226.60
835.59	226.56
835.90	226.53
836.22	226.49
836.53	226.44
836.85	226.39
837.16	226.48
837.48	226.52
837.79	226.54
838.11	226.54
838.42	226.52
838.74	226.54
839.05	226.52
839.37	226.50
839.68	226.46
840.00	226.48
840.31	226.50
840.63	226.52
840.94	226.54
841.26	226.50
841.57	226.50
841.88	226.47
842.20	226.46
842.51	226.46
842.83	226.47
843.14	226.55
843.46	226.56
843.77	226.50
844.08	226.50
844.40	226.48
844.71	226.45
845.03	226.42
845.34	226.38
845.65	226.40
845.97	226.41
846.28	226.40
846.60	226.41
846.91	226.39
847.22	226.39
847.54	226.40
847.85	226.37
848.16	226.37
848.48	226.37
848.79	226.39
849.10	226.39
849.42	226.38
849.73	226.32
850.04	226.28
850.36	226.21
850.67	226.16
850.98	226.16
851.30	226.17
851.61	226.18
851.92	226.20
852.23	226.19
852.55	226.18
852.86	226.18
853.17	226.19
853.49	226.18
853.80	226.21
854.11	226.22
854.42	226.27
854.74	226.26
855.05	226.27
855.36	226.21
855.67	226.24
855.99	226.25
856.30	226.34
856.61	226.34
856.92	226.34
857.23	226.39
857.55	226.38
857.86	226.38
858.17	226.40
858.48	226.37
858.79	226.37
859.11	226.39
859.42	226.36
859.73	226.34
860.04	226.35
860.35	226.27
860.66	226.20
860.98	226.18
861.29	226.17
861.60	226.18
861.91	226.23
862.22	226.19
862.53	226.14
862.84	226.02
863.16	226.05
863.47	226.04
863.78	226.03
864.09	226.02
864.40	226.00
864.71	225.99
865.02	225.99
865.33	225.98
865.64	225.94
865.95	225.96
866.27	226.01
866.58	225.98
866.89	226.00
867.20	226.03
867.51	226.01
867.82	226.03
868.13	226.04
868.44	226.02
868.75	226.05
869.06	226.06
869.37	226.09
869.68	226.06
869.99	226.04
870.30	226.04
870.61	226.05
870.92	226.07
871.23	226.07
871.54	226.11
871.85	226.15
872.16	226.16
872.47	226.17
872.78	226.11
873.09	226.15
873.40	226.15
873.71	226.15
874.02	226.14
874.33	226.10
874.64	226.11
874.95	226.11
875.26	226.06
875.56	226.06
875.87	226.04
876.18	226.04
876.49	226.16
876.80	226.13
877.11	226.09
877.42	226.09
877.73	226.08
878.04	226.05
878.35	226.04
878.66	226.05
878.96	226.06
879.27	226.03
879.58	226.01
879.89	226.03
880.20	226.07
880.51	226.07
880.82	226.09
881.12	226.07
881.43	226.04
881.74	226.05
882.05	226.03
882.36	226.03
882.67	226.02
882.97	225.91
883.28	225.93
883.59	225.93
883.90	225.91
884.21	225.92
884.51	225.89
884.82	225.87
885.13	225.88
885.44	225.87
885.74	225.88
886.05	225.89
886.36	225.88
886.67	225.83
886.98	225.90
887.28	225.92
887.59	225.93
887.90	225.94
888.20	225.91
888.51	225.95
888.82	225.96
889.13	225.96
889.43	226.05
889.74	226.08
890.05	226.09
890.35	226.10
890.66	226.11
890.97	226.12
891.28	226.11
891.58	226.07
891.89	226.06
892.20	226.07
892.50	226.04
892.81	226.04
893.12	226.04
893.42	225.97
893.73	225.98
894.04	225.99
894.34	226.00
894.65	226.01
894.95	226.01
895.26	226.02
895.57	226.06
895.87	225.97
896.18	225.97
896.48	225.97
896.79	225.95
897.10	225.94
897.40	225.99
897.71	225.99
898.01	226.00
898.32	226.01
898.63	226.00
898.93	226.01
899.24	226.03
899.54	226.02
899.85	226.00
900.15	225.99
900.46	225.99
900.76	225.99
901.07	225.99
901.38	225.99
901.68	225.97
901.99	225.95
902.29	225.94
902.60	225.92
902.90	225.91
903.21	225.92
903.51	225.91
903.82	225.88
904.12	225.88
904.43	225.87
904.73	225.85
905.03	225.82
905.34	225.94
905.64	225.92
905.95	225.94
906.25	225.94
906.56	225.94
906.86	225.91
907.17	225.90
907.47	225.90
907.77	225.88
908.08	225.87
908.38	225.83
908.69	225.84
908.99	225.86
909.30	225.86
909.60	225.83
909.90	225.83
910.21	225.82
910.51	225.77
910.81	225.79
911.12	225.79
911.42	225.79
911.73	225.66
912.03	225.68
912.33	225.67
912.64	225.67
912.94	225.65
913.24	225.66
913.55	225.66
913.85	225.65
914.15	225.65
914.46	225.63
914.76	225.64
915.06	225.63
915.37	225.59
915.67	225.59
915.97	225.58
916.27	225.56
916.58	225.57
916.88	225.59
917.18	225.54
917.49	225.64
917.79	225.64
918.09	225.64
918.39	225.65
918.70	225.64
919.00	225.62
919.30	225.65
919.60	225.63
919.91	225.61
920.21	225.63
920.51	225.57
920.81	225.58
921.12	225.61
921.42	225.65
921.72	225.68
922.02	225.69
922.32	225.71
922.63	225.74
922.93	225.78
923.23	225.83
923.53	225.85
923.83	225.74
924.13	225.74
924.44	225.75
924.74	225.79
925.04	225.81
925.34	225.82
925.64	225.80
925.94	225.79
926.24	225.86
926.55	225.85
926.85	225.91
927.15	225.89
927.45	225.89
927.75	225.84
928.05	225.84
928.35	225.84
928.65	225.86
928.95	225.85
929.26	225.81
929.56	225.79
929.86	225.81
930.16	225.80
930.46	225.79
930.76	225.80
931.06	225.72
931.36	225.67
931.66	225.70
931.96	225.71
932.26	225.72
932.56	225.68
932.86	225.64
933.16	225.62
933.46	225.63
933.76	225.63
934.06	225.67
934.36	225.65
934.66	225.65
934.96	225.63
935.26	225.65
935.56	225.67
935.86	225.67
936.16	225.69
936.46	225.68
936.76	225.69
937.06	225.66
937.36	225.69
937.66	225.72
937.96	225.72
938.26	225.69
938.56	225.70
938.86	225.68
939.16	225.76
939.46	225.80
939.76	225.80
940.06	225.78
940.35	225.75
940.65	225.75
940.95	225.73
941.25	225.69
941.55	225.64
941.85	225.61
942.15	225.61
942.45	225.59
942.75	225.60
943.04	225.60
943.34	225.63
943.64	225.62
943.94	225.59
944.24	225.57
944.54	225.55
944.84	225.55
945.13	225.51
945.43	225.46
945.73	225.40
946.03	225.39
946.33	225.39
946.62	225.35
946.92	225.31
947.22	225.31
947.52	225.32
947.82	225.35
948.11	225.34
948.41	225.31
948.71	225.31
949.01	225.31
949.31	225.28
949.60	225.28
949.90	225.27
950.20	225.30
950.50	225.28
950.79	225.30
951.09	225.27
951.39	225.28
951.69	225.28
951.98	225.31
952.28	225.31
952.58	225.30
952.87	225.32
953.17	225.36
953.47	225.37
953.76	225.35
954.06	225.33
954.36	225.34
954.66	225.34
954.95	225.35
955.25	225.33
955.55	225.37
955.84	225.34
956.14	225.36
956.44	225.32
956.73	225.30
957.03	225.30
957.32	225.31
957.62	225.31
957.92	225.35
958.21	225.34
958.51	225.47
958.81	225.50
959.10	225.53
959.40	225.55
959.69	225.57
959.99	225.60
960.29	225.61
960.58	225.60
960.88	225.65
961.17	225.65
961.47	225.68
961.76	225.69
962.06	225.72
962.36	225.70
962.65	225.72
962.95	225.74
963.24	225.77
963.54	225.80
963.83	225.80
964.13	225.78
964.42	225.76
964.72	225.67
965.01	225.68
965.31	225.65
965.60	225.66
965.90	225.70
966.19	225.69
966.49	225.69
966.78	225.71
967.08	225.70
967.37	225.70
967.67	225.69
967.96	225.70
968.26	225.71
968.55	225.73
968.85	225.77
969.14	225.77
969.43	225.76
969.73	225.76
970.02	225.75
970.32	225.75
970.61	225.75
970.91	225.72
971.20	225.71
971.49	225.69
971.79	225.66
972.08	225.60
972.38	225.62
972.67	225.62
972.96	225.60
973.26	225.61
973.55	225.62
973.85	225.59
974.14	225.56
974.43	225.56
974.73	225.52
975.02	225.46
975.31	225.45
975.61	225.41
975.90	225.41
976.19	225.39
976.49	225.39
976.78	225.42
977.07	225.39
977.37	225.39
977.66	225.40
977.95	225.39
978.24	225.39
978.54	225.38
978.83	225.35
979.12	225.35
979.42	225.28
979.71	225.27
980.00	225.30
980.29	225.31
980.59	225.29
980.88	225.33
981.17	225.36
981.46	225.38
981.76	225.39
982.05	225.41
982.34	225.43
982.63	225.42
982.93	225.41
983.22	225.48
983.51	225.48
983.80	225.52
984.09	225.54
984.39	225.51
984.68	225.51
984.97	225.54
985.26	225.53
985.55	225.56
985.85	225.54
986.14	225.54
986.43	225.53
986.72	225.53
987.01	225.48
987.30	225.48
987.59	225.44
987.89	225.48
988.18	225.42
988.47	225.45
988.76	225.45
989.05	225.43
989.34	225.41
989.63	225.44
989.92	225.38
990.22	225.36
990.51	225.38
990.80	225.37
991.09	225.38
991.38	225.39
991.67	225.38
991.96	225.35
992.25	225.35
992.54	225.33
992.83	225.33
993.12	225.37
993.41	225.35
993.70	225.41
993.99	225.40
994.28	225.43
994.58	225.47
994.87	225.44
995.16	225.47
995.45	225.44
995.74	225.41
996.03	225.49
996.32	225.51
996.61	225.56
996.90	225.57
997.19	225.54
997.48	225.54
997.77	225.57
998.06	225.57
998.34	225.56
998.63	225.56
998.92	225.57
999.21	225.54
999.50	225.57
999.79	225.54
1000.08	225.52
1000.37	225.52
1000.66	225.47
1000.95	225.49
1001.24	225.47
1001.53	225.50
1001.82	225.49
1002.11	225.41
1002.40	225.42
1002.68	225.43
1002.97	225.50
1003.26	225.52
1003.55	225.52
1003.84	225.55
1004.13	225.60
1004.42	225.60
1004.71	225.60
1004.99	225.61
1005.28	225.63
1005.57	225.60
1005.86	225.61
1006.15	225.59
1006.44	225.59
1006.72	225.60
1007.01	225.58
1007.30	225.58
1007.59	225.55
1007.88	225.56
1008.17	225.57
1008.45	225.54
1008.74	225.50
1009.03	225.45
1009.32	225.45
1009.60	225.47
1009.89	225.41
1010.18	225.39
1010.47	225.41
1010.76	225.42
1011.04	225.45
1011.33	225.46
1011.62	225.48
1011.91	225.44
1012.19	225.45
1012.48	225.45
1012.77	225.48
1013.05	225.53
1013.34	225.56
1013.63	225.55
1013.92	225.56
1014.20	225.55
1014.49	225.56
1014.78	225.59
1015.06	225.52
1015.35	225.55
1015.64	225.53
1015.92	225.53
1016.21	225.54
1016.50	225.54
1016.78	225.54
1017.07	225.51
1017.36	225.48
1017.64	225.46
1017.93	225.48
1018.22	225.47
1018.50	225.46
1018.79	225.46
1019.08	225.40
1019.36	225.36
1019.65	225.34
1019.93	225.38
1020.22	225.40
1020.51	225.47
1020.79	225.42
1021.08	225.02
1021.36	225.16
1021.65	225.78
1021.94	225.00
1022.22	225.14
1022.51	224.68
1022.79	226.38
1023.08	225.33
1023.36	227.16
1023.65	224.96
>>>>>End Processed Spectral Data<<<<<
