SpectraSuite Data File
++++++++++++++++++++++++++++++++++++
Date: Fri Feb 01 16:16:25 EST 2013
User: group
Dark Spectrum Present: No
Reference Spectrum Present: No
Number of Sampled Component Spectra: 1
Spectrometers: USB2E7196
Integration Time (usec): 35000 (USB2E7196)
Spectra Averaged: 100 (USB2E7196)
Boxcar Smoothing: 10 (USB2E7196)
Correct for Electrical Dark: No (USB2E7196)
Strobe/Lamp Enabled: No (USB2E7196)
Correct for Detector Non-linearity: No (USB2E7196)
Correct for Stray Light: No (USB2E7196)
Number of Pixels in Processed Spectrum: 2048
>>>>>Begin Processed Spectral Data<<<<<
339.09	0.00
339.48	213.81
339.86	215.76
340.24	216.85
340.63	218.35
341.01	221.26
341.39	220.63
341.78	222.55
342.16	223.52
342.54	224.27
342.93	212.55
343.31	223.28
343.69	223.85
344.07	224.31
344.46	224.74
344.84	225.10
345.22	225.33
345.60	225.62
345.99	225.81
346.37	225.92
346.75	226.01
347.13	226.07
347.52	226.10
347.90	226.23
348.28	226.23
348.66	226.26
349.05	226.25
349.43	226.27
349.81	226.31
350.19	226.34
350.57	226.38
350.96	226.42
351.34	226.55
351.72	226.59
352.10	226.68
352.48	226.76
352.87	226.84
353.25	226.92
353.63	226.94
354.01	227.00
354.39	227.10
354.77	227.16
355.15	227.28
355.54	227.33
355.92	227.32
356.30	227.41
356.68	227.54
357.06	227.63
357.44	227.65
357.82	227.71
358.20	227.77
358.58	227.83
358.97	227.89
359.35	227.93
359.73	228.03
360.11	228.09
360.49	228.17
360.87	228.19
361.25	228.25
361.63	228.34
362.01	228.36
362.39	228.38
362.77	228.44
363.15	228.46
363.53	228.49
363.91	228.50
364.29	228.50
364.67	228.42
365.05	228.40
365.43	228.44
365.81	228.43
366.19	228.45
366.57	228.51
366.95	228.52
367.33	228.47
367.71	228.44
368.09	228.41
368.47	228.35
368.85	228.35
369.23	228.34
369.61	228.27
369.99	228.28
370.37	228.25
370.75	228.24
371.13	228.21
371.51	228.19
371.89	228.18
372.27	228.16
372.65	228.14
373.03	228.13
373.41	228.09
373.78	228.04
374.16	227.95
374.54	227.87
374.92	227.78
375.30	227.75
375.68	227.69
376.06	227.65
376.44	227.58
376.82	227.53
377.19	227.45
377.57	227.39
377.95	227.28
378.33	227.23
378.71	227.12
379.09	227.05
379.47	226.96
379.84	226.88
380.22	226.80
380.60	226.70
380.98	226.63
381.36	226.54
381.73	226.52
382.11	226.48
382.49	226.40
382.87	226.36
383.25	226.27
383.62	226.33
384.00	226.26
384.38	226.19
384.76	226.15
385.13	226.17
385.51	226.13
385.89	226.09
386.27	226.03
386.64	226.01
387.02	225.97
387.40	225.97
387.78	225.93
388.15	225.92
388.53	225.88
388.91	225.85
389.29	225.82
389.66	225.80
390.04	225.78
390.42	225.78
390.79	225.79
391.17	225.80
391.55	225.67
391.92	225.65
392.30	225.67
392.68	225.64
393.05	225.60
393.43	225.59
393.81	225.60
394.18	225.61
394.56	225.62
394.94	225.65
395.31	225.62
395.69	225.69
396.06	225.72
396.44	225.81
396.82	225.84
397.19	225.94
397.57	225.95
397.95	226.02
398.32	226.06
398.70	226.09
399.07	226.16
399.45	226.22
399.82	226.29
400.20	226.36
400.58	226.44
400.95	226.45
401.33	226.56
401.70	226.70
402.08	226.80
402.45	226.88
402.83	226.95
403.20	227.10
403.58	227.18
403.95	227.30
404.33	227.38
404.71	227.45
405.08	227.62
405.46	227.76
405.83	227.89
406.21	228.02
406.58	228.21
406.96	228.38
407.33	228.56
407.70	228.71
408.08	228.95
408.45	229.17
408.83	229.44
409.20	229.65
409.58	229.78
409.95	230.05
410.33	230.33
410.70	230.59
411.08	230.84
411.45	231.14
411.82	231.44
412.20	231.80
412.57	232.29
412.95	232.57
413.32	232.95
413.69	233.31
414.07	233.77
414.44	234.20
414.82	234.66
415.19	235.19
415.56	235.76
415.94	236.30
416.31	236.92
416.68	237.53
417.06	238.20
417.43	238.91
417.81	239.65
418.18	240.42
418.55	241.27
418.93	242.13
419.30	243.04
419.67	243.99
420.04	244.92
420.42	245.87
420.79	247.01
421.16	248.19
421.54	249.40
421.91	250.57
422.28	251.83
422.66	253.13
423.03	254.46
423.40	255.78
423.77	257.21
424.15	258.64
424.52	260.14
424.89	261.80
425.26	263.37
425.64	264.78
426.01	266.39
426.38	268.05
426.75	269.72
427.13	271.44
427.50	273.19
427.87	275.08
428.24	276.95
428.61	278.72
428.99	280.69
429.36	282.80
429.73	284.89
430.10	286.93
430.47	289.01
430.85	291.12
431.22	293.37
431.59	295.76
431.96	298.00
432.33	300.47
432.70	302.84
433.08	305.62
433.45	308.32
433.82	310.93
434.19	313.84
434.56	316.67
434.93	319.32
435.30	321.97
435.68	324.85
436.05	327.70
436.42	330.50
436.79	333.00
437.16	335.72
437.53	338.56
437.90	341.31
438.27	344.06
438.64	346.92
439.01	349.54
439.38	351.82
439.75	353.99
440.13	356.49
440.50	358.83
440.87	360.72
441.24	362.66
441.61	364.79
441.98	366.27
442.35	368.06
442.72	369.94
443.09	371.75
443.46	372.76
443.83	373.35
444.20	373.85
444.57	374.65
444.94	374.94
445.31	375.24
445.68	375.65
446.05	375.75
446.42	375.33
446.79	374.84
447.16	374.36
447.53	374.01
447.90	372.78
448.27	371.56
448.64	369.97
449.01	368.78
449.37	366.85
449.74	364.92
450.11	362.69
450.48	360.18
450.85	357.65
451.22	355.49
451.59	353.45
451.96	351.47
452.33	348.88
452.70	346.48
453.07	343.64
453.43	340.72
453.80	337.93
454.17	335.24
454.54	332.74
454.91	329.97
455.28	327.30
455.65	324.82
456.02	322.40
456.38	320.23
456.75	317.59
457.12	315.29
457.49	313.05
457.86	310.85
458.23	309.01
458.59	306.94
458.96	304.89
459.33	303.05
459.70	301.23
460.07	299.70
460.43	298.01
460.80	296.39
461.17	294.95
461.54	293.43
461.91	292.01
462.27	290.57
462.64	289.35
463.01	288.00
463.38	286.75
463.74	285.37
464.11	284.21
464.48	283.20
464.85	282.09
465.21	281.24
465.58	280.33
465.95	279.23
466.32	278.35
466.68	277.40
467.05	276.48
467.42	275.60
467.78	274.70
468.15	273.82
468.52	273.16
468.88	272.30
469.25	271.55
469.62	270.94
469.98	270.27
470.35	269.65
470.72	269.08
471.08	268.44
471.45	267.94
471.82	267.39
472.18	266.79
472.55	266.39
472.92	265.89
473.28	265.48
473.65	265.04
474.02	264.59
474.38	264.27
474.75	263.98
475.11	263.64
475.48	263.36
475.85	263.14
476.21	262.92
476.58	262.76
476.94	262.66
477.31	262.50
477.67	262.35
478.04	262.23
478.41	262.20
478.77	262.27
479.14	262.21
479.50	262.27
479.87	262.34
480.23	262.46
480.60	262.54
480.96	262.60
481.33	262.83
481.69	263.05
482.06	263.24
482.42	263.46
482.79	263.75
483.15	264.11
483.52	264.48
483.88	264.84
484.25	265.22
484.61	265.65
484.98	266.13
485.34	266.69
485.71	267.31
486.07	267.90
486.44	268.45
486.80	269.14
487.17	269.85
487.53	270.68
487.90	271.49
488.26	272.40
488.62	273.44
488.99	274.46
489.35	275.51
489.72	276.65
490.08	277.82
490.44	279.04
490.81	280.35
491.17	281.72
491.54	283.21
491.90	284.79
492.26	286.47
492.63	288.17
492.99	289.97
493.36	291.86
493.72	293.93
494.08	296.06
494.45	298.38
494.81	300.76
495.17	303.21
495.54	305.79
495.90	308.46
496.26	311.24
496.63	314.14
496.99	317.27
497.35	320.53
497.72	323.98
498.08	327.51
498.44	331.22
498.80	335.15
499.17	339.19
499.53	343.33
499.89	347.62
500.26	352.15
500.62	356.85
500.98	361.84
501.34	366.88
501.71	372.19
502.07	377.57
502.43	383.20
502.79	388.97
503.16	395.01
503.52	401.31
503.88	407.74
504.24	414.42
504.60	421.29
504.97	428.39
505.33	435.69
505.69	443.39
506.05	451.11
506.41	458.98
506.78	467.15
507.14	475.63
507.50	484.49
507.86	493.52
508.22	502.69
508.59	511.92
508.95	521.48
509.31	531.29
509.67	541.39
510.03	551.72
510.39	562.31
510.75	573.17
511.12	584.10
511.48	595.37
511.84	606.78
512.20	618.33
512.56	630.25
512.92	642.40
513.28	654.71
513.64	667.17
514.00	679.93
514.37	692.90
514.73	705.93
515.09	718.94
515.45	732.21
515.81	745.80
516.17	759.72
516.53	773.90
516.89	788.12
517.25	802.33
517.61	816.72
517.97	831.20
518.33	845.64
518.69	860.51
519.05	875.51
519.41	890.71
519.77	906.18
520.13	921.61
520.49	937.08
520.85	952.46
521.21	968.17
521.57	984.32
521.93	1000.06
522.29	1016.49
522.65	1032.63
523.01	1048.70
523.37	1064.72
523.73	1080.87
524.09	1096.89
524.45	1113.08
524.81	1129.70
525.17	1146.41
525.53	1163.34
525.89	1180.19
526.25	1196.88
526.61	1213.31
526.97	1229.90
527.33	1246.28
527.68	1262.76
528.04	1279.11
528.40	1295.63
528.76	1312.70
529.12	1329.29
529.48	1346.08
529.84	1362.07
530.20	1378.66
530.56	1395.77
530.91	1413.12
531.27	1429.77
531.63	1446.26
531.99	1462.81
532.35	1478.65
532.71	1494.45
533.07	1510.59
533.42	1526.41
533.78	1542.52
534.14	1558.64
534.50	1573.96
534.86	1589.91
535.21	1605.16
535.57	1621.02
535.93	1636.52
536.29	1651.22
536.65	1666.20
537.00	1680.87
537.36	1696.07
537.72	1710.45
538.08	1724.81
538.44	1738.42
538.79	1752.38
539.15	1765.84
539.51	1779.42
539.87	1793.69
540.22	1807.46
540.58	1821.04
540.94	1834.20
541.29	1846.88
541.65	1859.49
542.01	1872.62
542.37	1884.78
542.72	1897.16
543.08	1908.87
543.44	1921.23
543.79	1932.39
544.15	1943.30
544.51	1954.82
544.87	1965.61
545.22	1976.42
545.58	1986.52
545.94	1996.28
546.29	2005.97
546.65	2015.87
547.01	2025.17
547.36	2033.88
547.72	2042.16
548.07	2050.09
548.43	2058.24
548.79	2066.23
549.14	2073.75
549.50	2080.98
549.86	2088.68
550.21	2096.01
550.57	2103.23
550.92	2109.78
551.28	2116.61
551.64	2123.62
551.99	2130.21
552.35	2136.45
552.70	2142.57
553.06	2148.48
553.41	2154.87
553.77	2161.01
554.13	2167.05
554.48	2173.17
554.84	2178.70
555.19	2184.06
555.55	2189.29
555.90	2193.87
556.26	2198.73
556.61	2203.40
556.97	2207.86
557.32	2211.86
557.68	2215.86
558.03	2220.24
558.39	2223.92
558.74	2228.69
559.10	2232.47
559.45	2236.07
559.81	2240.26
560.16	2244.13
560.52	2247.46
560.87	2250.90
561.23	2253.61
561.58	2256.57
561.94	2259.05
562.29	2261.35
562.64	2264.04
563.00	2266.45
563.35	2269.89
563.71	2272.96
564.06	2276.17
564.42	2278.93
564.77	2281.48
565.12	2283.86
565.48	2285.74
565.83	2287.61
566.19	2289.01
566.54	2289.98
566.89	2291.08
567.25	2291.77
567.60	2293.13
567.96	2294.78
568.31	2295.61
568.66	2296.73
569.02	2297.32
569.37	2297.79
569.72	2298.80
570.08	2298.97
570.43	2299.17
570.78	2298.69
571.14	2297.37
571.49	2296.09
571.84	2295.94
572.20	2295.03
572.55	2294.06
572.90	2292.45
573.26	2291.12
573.61	2289.48
573.96	2287.87
574.31	2285.03
574.67	2282.02
575.02	2278.48
575.37	2275.16
575.72	2271.42
576.08	2268.00
576.43	2264.75
576.78	2261.09
577.13	2257.81
577.49	2254.69
577.84	2251.16
578.19	2247.56
578.54	2243.96
578.90	2239.78
579.25	2234.22
579.60	2229.14
579.95	2224.12
580.30	2219.19
580.66	2214.03
581.01	2209.11
581.36	2204.21
581.71	2200.27
582.06	2195.95
582.42	2191.47
582.77	2186.28
583.12	2181.82
583.47	2177.06
583.82	2172.18
584.17	2166.98
584.53	2161.54
584.88	2156.08
585.23	2150.39
585.58	2144.80
585.93	2139.41
586.28	2134.72
586.63	2129.64
586.98	2124.73
587.34	2119.94
587.69	2115.06
588.04	2109.76
588.39	2104.17
588.74	2097.74
589.09	2091.35
589.44	2084.56
589.79	2078.61
590.14	2073.12
590.49	2066.41
590.84	2060.09
591.19	2054.08
591.54	2047.65
591.89	2040.28
592.25	2033.50
592.60	2026.31
592.95	2018.84
593.30	2011.28
593.65	2003.76
594.00	1996.87
594.35	1989.57
594.70	1981.73
595.05	1974.59
595.40	1967.55
595.75	1960.04
596.10	1953.92
596.45	1947.35
596.80	1941.27
597.15	1934.59
597.50	1927.38
597.85	1921.00
598.19	1914.50
598.54	1907.16
598.89	1900.56
599.24	1894.67
599.59	1887.96
599.94	1881.68
600.29	1875.41
600.64	1869.00
600.99	1861.56
601.34	1854.71
601.69	1847.88
602.04	1840.97
602.39	1833.61
602.74	1826.78
603.08	1819.97
603.43	1813.20
603.78	1805.87
604.13	1798.54
604.48	1791.22
604.83	1784.38
605.18	1777.53
605.53	1769.51
605.87	1761.58
606.22	1754.37
606.57	1746.41
606.92	1739.16
607.27	1732.06
607.62	1725.08
607.96	1717.78
608.31	1711.08
608.66	1703.44
609.01	1695.77
609.36	1688.16
609.70	1680.14
610.05	1672.02
610.40	1664.41
610.75	1656.06
611.10	1648.33
611.44	1640.03
611.79	1632.18
612.14	1623.55
612.49	1614.32
612.83	1606.01
613.18	1597.98
613.53	1589.82
613.88	1581.29
614.22	1573.01
614.57	1564.48
614.92	1556.31
615.27	1548.77
615.61	1540.47
615.96	1532.44
616.31	1524.86
616.65	1517.54
617.00	1509.97
617.35	1502.28
617.70	1493.89
618.04	1485.47
618.39	1477.36
618.74	1469.78
619.08	1461.52
619.43	1453.94
619.78	1447.10
620.12	1439.85
620.47	1432.39
620.82	1424.25
621.16	1416.96
621.51	1409.36
621.85	1401.70
622.20	1393.30
622.55	1384.90
622.89	1377.09
623.24	1369.51
623.59	1362.07
623.93	1354.51
624.28	1347.35
624.62	1339.88
624.97	1332.72
625.32	1325.87
625.66	1318.81
626.01	1311.67
626.35	1304.05
626.70	1296.28
627.04	1288.46
627.39	1280.63
627.73	1273.21
628.08	1266.31
628.43	1258.91
628.77	1251.46
629.12	1243.91
629.46	1236.76
629.81	1229.28
630.15	1222.04
630.50	1214.52
630.84	1206.33
631.19	1198.49
631.53	1190.98
631.88	1183.30
632.22	1175.71
632.57	1168.35
632.91	1160.77
633.26	1153.22
633.60	1145.91
633.95	1138.81
634.29	1131.85
634.64	1125.23
634.98	1117.79
635.32	1110.63
635.67	1104.08
636.01	1097.47
636.36	1090.64
636.70	1083.99
637.05	1077.59
637.39	1071.11
637.73	1064.67
638.08	1058.76
638.42	1052.69
638.77	1046.07
639.11	1039.43
639.45	1032.98
639.80	1026.40
640.14	1019.97
640.49	1013.50
640.83	1007.18
641.17	1000.90
641.52	994.40
641.86	987.88
642.20	982.04
642.55	975.71
642.89	969.18
643.23	962.64
643.58	956.82
643.92	950.62
644.26	944.44
644.61	938.38
644.95	932.35
645.29	925.75
645.64	919.00
645.98	912.73
646.32	907.00
646.66	900.93
647.01	895.14
647.35	889.44
647.69	883.57
648.04	878.04
648.38	872.22
648.72	866.31
649.06	860.27
649.41	854.42
649.75	848.42
650.09	842.46
650.43	836.63
650.78	830.48
651.12	824.59
651.46	818.86
651.80	813.15
652.14	807.76
652.49	802.51
652.83	797.30
653.17	791.66
653.51	785.89
653.85	780.56
654.20	774.86
654.54	768.86
654.88	763.05
655.22	757.10
655.56	751.45
655.90	745.97
656.25	740.70
656.59	735.28
656.93	730.20
657.27	725.04
657.61	719.60
657.95	714.45
658.29	709.44
658.64	704.17
658.98	698.84
659.32	693.28
659.66	687.96
660.00	682.67
660.34	677.71
660.68	672.89
661.02	667.82
661.36	663.13
661.70	658.64
662.05	654.31
662.39	650.05
662.73	645.62
663.07	641.27
663.41	636.82
663.75	632.40
664.09	627.85
664.43	623.44
664.77	619.26
665.11	615.02
665.45	610.79
665.79	606.74
666.13	602.64
666.47	598.61
666.81	594.49
667.15	590.34
667.49	586.44
667.83	582.59
668.17	578.65
668.51	574.48
668.85	570.41
669.19	566.53
669.53	562.69
669.87	558.80
670.21	555.07
670.55	551.44
670.89	547.98
671.23	544.53
671.57	541.00
671.91	537.51
672.25	534.02
672.58	530.50
672.92	527.07
673.26	523.86
673.60	520.66
673.94	517.49
674.28	514.57
674.62	511.56
674.96	508.36
675.30	505.48
675.64	502.65
675.97	499.91
676.31	497.04
676.65	494.07
676.99	491.38
677.33	488.49
677.67	485.66
678.01	482.57
678.34	479.61
678.68	476.79
679.02	473.98
679.36	471.27
679.70	468.60
680.04	465.83
680.37	462.96
680.71	460.13
681.05	457.51
681.39	454.85
681.73	452.17
682.06	449.71
682.40	447.15
682.74	444.58
683.08	442.01
683.42	439.46
683.75	436.98
684.09	434.40
684.43	431.98
684.77	429.55
685.10	427.17
685.44	424.82
685.78	422.50
686.12	420.21
686.45	417.89
686.79	415.59
687.13	413.37
687.46	411.20
687.80	409.09
688.14	406.87
688.48	404.81
688.81	402.59
689.15	400.40
689.49	398.26
689.82	396.15
690.16	394.04
690.50	392.10
690.83	390.14
691.17	388.14
691.51	386.16
691.84	384.31
692.18	382.40
692.52	380.44
692.85	378.54
693.19	376.72
693.52	374.86
693.86	373.01
694.20	371.22
694.53	369.43
694.87	367.57
695.21	365.79
695.54	363.96
695.88	362.25
696.21	360.50
696.55	358.78
696.88	357.11
697.22	355.44
697.56	353.74
697.89	352.07
698.23	350.45
698.56	348.83
698.90	347.22
699.23	345.59
699.57	344.03
699.90	342.48
700.24	340.94
700.58	339.41
700.91	337.89
701.25	336.48
701.58	335.13
701.92	333.77
702.25	332.41
702.59	331.00
702.92	329.67
703.26	328.40
703.59	327.14
703.93	325.95
704.26	324.76
704.60	323.48
704.93	322.22
705.26	320.98
705.60	319.82
705.93	318.63
706.27	317.62
706.60	316.54
706.94	315.43
707.27	314.28
707.61	313.25
707.94	312.26
708.27	311.11
708.61	309.96
708.94	308.99
709.28	308.00
709.61	307.10
709.94	306.11
710.28	305.07
710.61	304.09
710.95	303.02
711.28	302.10
711.61	301.16
711.95	300.27
712.28	299.33
712.61	298.30
712.95	297.36
713.28	296.45
713.61	295.57
713.95	294.72
714.28	293.89
714.61	292.99
714.95	292.11
715.28	291.31
715.61	290.46
715.95	289.59
716.28	288.72
716.61	287.85
716.95	287.03
717.28	286.28
717.61	285.53
717.94	284.80
718.28	284.02
718.61	283.30
718.94	282.56
719.27	281.92
719.61	281.35
719.94	280.71
720.27	279.98
720.60	279.33
720.94	278.69
721.27	278.07
721.60	277.50
721.93	276.92
722.27	276.34
722.60	275.81
722.93	275.22
723.26	274.69
723.59	274.16
723.93	273.64
724.26	273.05
724.59	272.48
724.92	271.93
725.25	271.38
725.59	270.82
725.92	270.32
726.25	269.78
726.58	269.26
726.91	268.78
727.24	268.34
727.57	267.86
727.91	267.33
728.24	266.88
728.57	266.41
728.90	265.98
729.23	265.48
729.56	265.03
729.89	264.55
730.22	264.05
730.55	263.56
730.89	263.11
731.22	262.73
731.55	262.27
731.88	261.85
732.21	261.43
732.54	261.02
732.87	260.59
733.20	260.19
733.53	259.78
733.86	259.39
734.19	258.97
734.52	258.56
734.85	258.26
735.18	257.84
735.51	257.47
735.84	257.10
736.17	256.76
736.50	256.35
736.83	256.13
737.16	255.83
737.49	255.49
737.82	255.12
738.15	254.75
738.48	254.42
738.81	254.10
739.14	253.77
739.47	253.44
739.80	253.09
740.13	252.77
740.46	252.44
740.79	252.08
741.12	251.76
741.45	251.45
741.78	251.08
742.11	250.79
742.44	250.48
742.77	250.15
743.10	249.84
743.43	249.53
743.75	249.12
744.08	248.95
744.41	248.66
744.74	248.40
745.07	248.11
745.40	247.87
745.73	247.60
746.06	247.34
746.39	247.09
746.71	246.86
747.04	246.59
747.37	246.35
747.70	246.12
748.03	245.89
748.36	245.65
748.68	245.44
749.01	245.19
749.34	244.93
749.67	244.70
750.00	244.49
750.33	244.35
750.65	244.16
750.98	243.84
751.31	243.62
751.64	243.40
751.97	243.27
752.29	243.03
752.62	242.77
752.95	242.54
753.28	242.33
753.60	242.15
753.93	242.01
754.26	241.81
754.59	241.59
754.91	241.37
755.24	241.16
755.57	240.99
755.90	240.81
756.22	240.64
756.55	240.47
756.88	240.28
757.20	240.04
757.53	239.84
757.86	239.67
758.19	239.53
758.51	239.39
758.84	239.19
759.17	239.05
759.49	238.91
759.82	238.84
760.15	238.69
760.47	238.54
760.80	238.38
761.13	238.27
761.45	238.10
761.78	237.98
762.11	237.84
762.43	237.68
762.76	237.55
763.08	237.44
763.41	237.30
763.74	237.18
764.06	237.01
764.39	236.88
764.71	236.73
765.04	236.59
765.37	236.46
765.69	236.32
766.02	236.24
766.34	236.10
766.67	235.92
767.00	235.81
767.32	235.73
767.65	235.66
767.97	235.51
768.30	235.45
768.62	235.34
768.95	235.24
769.27	235.11
769.60	234.99
769.92	234.87
770.25	234.72
770.57	234.60
770.90	234.50
771.22	234.39
771.55	234.29
771.87	234.20
772.20	234.11
772.52	234.09
772.85	234.06
773.17	234.00
773.50	233.91
773.82	233.84
774.15	233.71
774.47	233.56
774.80	233.50
775.12	233.41
775.45	233.32
775.77	233.26
776.09	233.19
776.42	233.13
776.74	233.05
777.07	233.02
777.39	232.96
777.72	232.89
778.04	232.83
778.36	232.74
778.69	232.68
779.01	232.58
779.33	232.46
779.66	232.30
779.98	232.21
780.31	232.17
780.63	232.14
780.95	232.10
781.28	232.02
781.60	231.92
781.92	231.86
782.25	231.81
782.57	231.73
782.89	231.66
783.22	231.58
783.54	231.50
783.86	231.42
784.19	231.34
784.51	231.32
784.83	231.25
785.16	231.22
785.48	231.16
785.80	231.13
786.12	231.07
786.45	231.01
786.77	230.98
787.09	230.93
787.42	230.83
787.74	230.74
788.06	230.72
788.38	230.68
788.71	230.61
789.03	230.55
789.35	230.54
789.67	230.48
789.99	230.46
790.32	230.40
790.64	230.37
790.96	230.41
791.28	230.32
791.61	230.26
791.93	230.23
792.25	230.21
792.57	230.20
792.89	230.14
793.21	230.12
793.54	230.06
793.86	229.97
794.18	229.94
794.50	229.92
794.82	229.88
795.14	229.89
795.47	229.86
795.79	229.81
796.11	229.78
796.43	229.74
796.75	229.70
797.07	229.67
797.39	229.65
797.71	229.55
798.04	229.56
798.36	229.52
798.68	229.46
799.00	229.41
799.32	229.33
799.64	229.32
799.96	229.27
800.28	229.27
800.60	229.22
800.92	229.19
801.24	229.13
801.56	229.10
801.89	229.02
802.21	228.98
802.53	228.94
802.85	228.92
803.17	228.94
803.49	228.91
803.81	228.90
804.13	228.87
804.45	228.83
804.77	228.77
805.09	228.77
805.41	228.75
805.73	228.71
806.05	228.68
806.37	228.66
806.69	228.62
807.01	228.61
807.33	228.62
807.65	228.55
807.97	228.59
808.28	228.56
808.60	228.53
808.92	228.52
809.24	228.58
809.56	228.49
809.88	228.42
810.20	228.38
810.52	228.38
810.84	228.35
811.16	228.33
811.48	228.29
811.80	228.28
812.12	228.27
812.43	228.25
812.75	228.24
813.07	228.18
813.39	228.17
813.71	228.15
814.03	228.12
814.35	228.14
814.67	228.08
814.98	228.07
815.30	228.10
815.62	228.02
815.94	227.97
816.26	228.02
816.58	228.00
816.89	227.98
817.21	227.97
817.53	227.93
817.85	227.93
818.17	227.97
818.48	227.93
818.80	227.95
819.12	227.96
819.44	227.93
819.76	227.93
820.07	227.91
820.39	227.88
820.71	227.91
821.03	227.89
821.34	227.86
821.66	227.85
821.98	227.83
822.30	227.87
822.61	227.91
822.93	227.84
823.25	227.84
823.57	227.84
823.88	227.82
824.20	227.80
824.52	227.80
824.83	227.71
825.15	227.67
825.47	227.62
825.79	227.59
826.10	227.59
826.42	227.57
826.74	227.57
827.05	227.55
827.37	227.51
827.69	227.48
828.00	227.46
828.32	227.43
828.64	227.39
828.95	227.40
829.27	227.33
829.58	227.33
829.90	227.33
830.22	227.30
830.53	227.26
830.85	227.24
831.17	227.18
831.48	227.19
831.80	227.20
832.11	227.18
832.43	227.15
832.75	227.14
833.06	227.22
833.38	227.13
833.69	227.10
834.01	227.09
834.32	227.11
834.64	227.10
834.96	227.09
835.27	227.09
835.59	227.05
835.90	227.04
836.22	227.01
836.53	226.99
836.85	226.95
837.16	227.04
837.48	227.04
837.79	227.07
838.11	227.07
838.42	227.05
838.74	227.04
839.05	227.04
839.37	226.98
839.68	226.89
840.00	226.93
840.31	226.91
840.63	226.90
840.94	226.86
841.26	226.83
841.57	226.83
841.88	226.82
842.20	226.81
842.51	226.79
842.83	226.78
843.14	226.86
843.46	226.86
843.77	226.78
844.08	226.77
844.40	226.73
844.71	226.71
845.03	226.71
845.34	226.67
845.65	226.69
845.97	226.72
846.28	226.71
846.60	226.71
846.91	226.68
847.22	226.69
847.54	226.69
847.85	226.70
848.16	226.70
848.48	226.68
848.79	226.69
849.10	226.72
849.42	226.73
849.73	226.62
850.04	226.63
850.36	226.63
850.67	226.63
850.98	226.64
851.30	226.65
851.61	226.64
851.92	226.65
852.23	226.66
852.55	226.68
852.86	226.68
853.17	226.71
853.49	226.78
853.80	226.79
854.11	226.82
854.42	226.81
854.74	226.80
855.05	226.81
855.36	226.73
855.67	226.69
855.99	226.71
856.30	226.83
856.61	226.82
856.92	226.81
857.23	226.81
857.55	226.82
857.86	226.80
858.17	226.82
858.48	226.82
858.79	226.82
859.11	226.79
859.42	226.76
859.73	226.73
860.04	226.74
860.35	226.69
860.66	226.64
860.98	226.68
861.29	226.66
861.60	226.65
861.91	226.74
862.22	226.76
862.53	226.73
862.84	226.63
863.16	226.65
863.47	226.68
863.78	226.67
864.09	226.69
864.40	226.71
864.71	226.72
865.02	226.74
865.33	226.70
865.64	226.70
865.95	226.72
866.27	226.81
866.58	226.78
866.89	226.79
867.20	226.78
867.51	226.77
867.82	226.79
868.13	226.81
868.44	226.75
868.75	226.78
869.06	226.79
869.37	226.82
869.68	226.80
869.99	226.78
870.30	226.78
870.61	226.76
870.92	226.77
871.23	226.77
871.54	226.80
871.85	226.84
872.16	226.83
872.47	226.82
872.78	226.74
873.09	226.77
873.40	226.78
873.71	226.79
874.02	226.78
874.33	226.76
874.64	226.79
874.95	226.86
875.26	226.80
875.56	226.80
875.87	226.80
876.18	226.79
876.49	226.91
876.80	226.93
877.11	226.89
877.42	226.85
877.73	226.86
878.04	226.83
878.35	226.83
878.66	226.87
878.96	226.86
879.27	226.85
879.58	226.84
879.89	226.79
880.20	226.84
880.51	226.82
880.82	226.83
881.12	226.78
881.43	226.70
881.74	226.72
882.05	226.67
882.36	226.64
882.67	226.63
882.97	226.49
883.28	226.48
883.59	226.47
883.90	226.47
884.21	226.45
884.51	226.43
884.82	226.39
885.13	226.38
885.44	226.39
885.74	226.36
886.05	226.33
886.36	226.35
886.67	226.29
886.98	226.34
887.28	226.34
887.59	226.34
887.90	226.37
888.20	226.34
888.51	226.35
888.82	226.37
889.13	226.42
889.43	226.49
889.74	226.49
890.05	226.52
890.35	226.50
890.66	226.46
890.97	226.47
891.28	226.43
891.58	226.42
891.89	226.38
892.20	226.42
892.50	226.39
892.81	226.39
893.12	226.38
893.42	226.34
893.73	226.33
894.04	226.34
894.34	226.31
894.65	226.30
894.95	226.30
895.26	226.26
895.57	226.29
895.87	226.19
896.18	226.20
896.48	226.20
896.79	226.22
897.10	226.27
897.40	226.25
897.71	226.29
898.01	226.27
898.32	226.28
898.63	226.26
898.93	226.28
899.24	226.27
899.54	226.26
899.85	226.26
900.15	226.27
900.46	226.26
900.76	226.27
901.07	226.28
901.38	226.26
901.68	226.31
901.99	226.25
902.29	226.28
902.60	226.27
902.90	226.28
903.21	226.26
903.51	226.27
903.82	226.27
904.12	226.26
904.43	226.27
904.73	226.28
905.03	226.28
905.34	226.38
905.64	226.37
905.95	226.38
906.25	226.37
906.56	226.37
906.86	226.37
907.17	226.37
907.47	226.39
907.77	226.41
908.08	226.35
908.38	226.40
908.69	226.40
908.99	226.41
909.30	226.40
909.60	226.42
909.90	226.41
910.21	226.42
910.51	226.39
910.81	226.38
911.12	226.40
911.42	226.39
911.73	226.27
912.03	226.28
912.33	226.29
912.64	226.30
912.94	226.30
913.24	226.30
913.55	226.32
913.85	226.30
914.15	226.31
914.46	226.34
914.76	226.28
915.06	226.25
915.37	226.24
915.67	226.24
915.97	226.19
916.27	226.17
916.58	226.16
916.88	226.19
917.18	226.20
917.49	226.26
917.79	226.28
918.09	226.29
918.39	226.33
918.70	226.38
919.00	226.38
919.30	226.41
919.60	226.38
919.91	226.38
920.21	226.40
920.51	226.39
920.81	226.39
921.12	226.37
921.42	226.37
921.72	226.37
922.02	226.38
922.32	226.44
922.63	226.42
922.93	226.47
923.23	226.46
923.53	226.42
923.83	226.39
924.13	226.41
924.44	226.44
924.74	226.44
925.04	226.43
925.34	226.44
925.64	226.38
925.94	226.40
926.24	226.43
926.55	226.40
926.85	226.37
927.15	226.35
927.45	226.41
927.75	226.41
928.05	226.44
928.35	226.41
928.65	226.40
928.95	226.41
929.26	226.37
929.56	226.36
929.86	226.40
930.16	226.36
930.46	226.31
930.76	226.27
931.06	226.25
931.36	226.21
931.66	226.23
931.96	226.26
932.26	226.25
932.56	226.23
932.86	226.25
933.16	226.27
933.46	226.25
933.76	226.23
934.06	226.28
934.36	226.30
934.66	226.28
934.96	226.27
935.26	226.27
935.56	226.28
935.86	226.25
936.16	226.26
936.46	226.24
936.76	226.24
937.06	226.23
937.36	226.23
937.66	226.21
937.96	226.17
938.26	226.16
938.56	226.16
938.86	226.13
939.16	226.15
939.46	226.17
939.76	226.19
940.06	226.16
940.35	226.12
940.65	226.06
940.95	226.10
941.25	226.05
941.55	226.02
941.85	226.04
942.15	226.05
942.45	226.08
942.75	226.10
943.04	226.12
943.34	226.17
943.64	226.16
943.94	226.16
944.24	226.18
944.54	226.17
944.84	226.16
945.13	226.13
945.43	226.11
945.73	226.08
946.03	226.06
946.33	226.07
946.62	226.08
946.92	226.10
947.22	226.09
947.52	226.12
947.82	226.16
948.11	226.10
948.41	226.07
948.71	226.03
949.01	226.01
949.31	225.99
949.60	225.97
949.90	225.97
950.20	225.96
950.50	225.96
950.79	225.96
951.09	225.98
951.39	225.97
951.69	225.97
951.98	225.97
952.28	225.98
952.58	225.98
952.87	225.96
953.17	225.97
953.47	226.01
953.76	226.01
954.06	226.01
954.36	226.05
954.66	226.08
954.95	226.10
955.25	226.12
955.55	226.13
955.84	226.11
956.14	226.14
956.44	226.13
956.73	226.14
957.03	226.18
957.32	226.18
957.62	226.20
957.92	226.23
958.21	226.23
958.51	226.34
958.81	226.35
959.10	226.36
959.40	226.34
959.69	226.29
959.99	226.31
960.29	226.28
960.58	226.28
960.88	226.29
961.17	226.28
961.47	226.31
961.76	226.32
962.06	226.33
962.36	226.32
962.65	226.32
962.95	226.31
963.24	226.26
963.54	226.27
963.83	226.30
964.13	226.26
964.42	226.25
964.72	226.15
965.01	226.15
965.31	226.15
965.60	226.14
965.90	226.19
966.19	226.14
966.49	226.18
966.78	226.16
967.08	226.12
967.37	226.11
967.67	226.05
967.96	226.03
968.26	226.03
968.55	226.04
968.85	226.03
969.14	226.02
969.43	226.02
969.73	225.99
970.02	225.95
970.32	225.98
970.61	225.97
970.91	225.94
971.20	225.92
971.49	225.92
971.79	225.93
972.08	225.83
972.38	225.86
972.67	225.84
972.96	225.86
973.26	225.85
973.55	225.89
973.85	225.87
974.14	225.85
974.43	225.86
974.73	225.82
975.02	225.81
975.31	225.82
975.61	225.83
975.90	225.82
976.19	225.81
976.49	225.80
976.78	225.82
977.07	225.83
977.37	225.84
977.66	225.86
977.95	225.81
978.24	225.87
978.54	225.88
978.83	225.89
979.12	225.87
979.42	225.90
979.71	225.87
980.00	225.89
980.29	225.92
980.59	225.91
980.88	225.93
981.17	225.95
981.46	225.95
981.76	225.94
982.05	225.93
982.34	225.97
982.63	225.96
982.93	225.97
983.22	226.02
983.51	226.02
983.80	226.01
984.09	226.05
984.39	226.02
984.68	225.99
984.97	225.98
985.26	225.96
985.55	225.96
985.85	225.94
986.14	225.95
986.43	225.94
986.72	225.92
987.01	225.91
987.30	225.92
987.59	225.91
987.89	225.92
988.18	225.92
988.47	225.88
988.76	225.88
989.05	225.89
989.34	225.85
989.63	225.88
989.92	225.89
990.22	225.89
990.51	225.94
990.80	225.95
991.09	225.96
991.38	225.98
991.67	225.95
991.96	225.96
992.25	225.97
992.54	225.96
992.83	225.99
993.12	226.01
993.41	226.01
993.70	226.07
993.99	226.08
994.28	226.12
994.58	226.14
994.87	226.14
995.16	226.12
995.45	226.11
995.74	226.07
996.03	226.07
996.32	226.09
996.61	226.08
996.90	226.12
997.19	226.14
997.48	226.15
997.77	226.14
998.06	226.15
998.34	226.14
998.63	226.16
998.92	226.15
999.21	226.13
999.50	226.14
999.79	226.07
1000.08	226.06
1000.37	226.06
1000.66	226.08
1000.95	226.10
1001.24	226.10
1001.53	226.14
1001.82	226.13
1002.11	226.13
1002.40	226.13
1002.68	226.14
1002.97	226.19
1003.26	226.16
1003.55	226.18
1003.84	226.19
1004.13	226.20
1004.42	226.24
1004.71	226.25
1004.99	226.23
1005.28	226.28
1005.57	226.30
1005.86	226.31
1006.15	226.28
1006.44	226.27
1006.72	226.25
1007.01	226.26
1007.30	226.28
1007.59	226.23
1007.88	226.23
1008.17	226.20
1008.45	226.15
1008.74	226.13
1009.03	226.09
1009.32	226.10
1009.60	226.06
1009.89	226.04
1010.18	226.02
1010.47	226.00
1010.76	225.97
1011.04	225.99
1011.33	225.96
1011.62	225.95
1011.91	225.95
1012.19	225.95
1012.48	225.95
1012.77	225.96
1013.05	225.98
1013.34	225.96
1013.63	225.95
1013.92	225.95
1014.20	225.95
1014.49	225.93
1014.78	225.91
1015.06	225.87
1015.35	225.82
1015.64	225.85
1015.92	225.90
1016.21	225.87
1016.50	225.86
1016.78	225.85
1017.07	225.85
1017.36	225.83
1017.64	225.79
1017.93	225.79
1018.22	225.77
1018.50	225.75
1018.79	225.69
1019.08	225.64
1019.36	225.66
1019.65	225.64
1019.93	225.65
1020.22	225.69
1020.51	225.77
1020.79	225.78
1021.08	225.21
1021.36	225.28
1021.65	225.27
1021.94	225.94
1022.22	226.06
1022.51	225.23
1022.79	225.92
1023.08	226.30
1023.36	227.12
1023.65	225.50
>>>>>End Processed Spectral Data<<<<<
