SpectraSuite Data File
++++++++++++++++++++++++++++++++++++
Date: Fri Feb 01 17:15:43 EST 2013
User: group
Dark Spectrum Present: No
Reference Spectrum Present: No
Number of Sampled Component Spectra: 1
Spectrometers: USB2E7196
Integration Time (usec): 35000 (USB2E7196)
Spectra Averaged: 100 (USB2E7196)
Boxcar Smoothing: 10 (USB2E7196)
Correct for Electrical Dark: No (USB2E7196)
Strobe/Lamp Enabled: No (USB2E7196)
Correct for Detector Non-linearity: No (USB2E7196)
Correct for Stray Light: No (USB2E7196)
Number of Pixels in Processed Spectrum: 2048
>>>>>Begin Processed Spectral Data<<<<<
339.09	0.00
339.48	213.02
339.86	214.60
340.24	216.31
340.63	217.55
341.01	219.87
341.39	219.75
341.78	221.18
342.16	222.53
342.54	222.51
342.93	211.49
343.31	222.16
343.69	222.71
344.07	223.17
344.46	223.56
344.84	223.91
345.22	224.16
345.60	224.44
345.99	224.64
346.37	224.76
346.75	224.91
347.13	224.96
347.52	225.04
347.90	225.09
348.28	225.11
348.66	225.19
349.05	225.21
349.43	225.22
349.81	225.26
350.19	225.29
350.57	225.37
350.96	225.44
351.34	225.51
351.72	225.59
352.10	225.68
352.48	225.76
352.87	225.81
353.25	225.88
353.63	225.94
354.01	225.98
354.39	226.06
354.77	226.12
355.15	226.19
355.54	226.22
355.92	226.28
356.30	226.36
356.68	226.47
357.06	226.53
357.44	226.61
357.82	226.68
358.20	226.77
358.58	226.83
358.97	226.89
359.35	226.99
359.73	227.07
360.11	227.14
360.49	227.22
360.87	227.26
361.25	227.31
361.63	227.37
362.01	227.43
362.39	227.47
362.77	227.50
363.15	227.52
363.53	227.56
363.91	227.57
364.29	227.59
364.67	227.49
365.05	227.48
365.43	227.47
365.81	227.48
366.19	227.53
366.57	227.57
366.95	227.56
367.33	227.51
367.71	227.47
368.09	227.45
368.47	227.42
368.85	227.43
369.23	227.44
369.61	227.41
369.99	227.42
370.37	227.39
370.75	227.43
371.13	227.39
371.51	227.36
371.89	227.30
372.27	227.27
372.65	227.24
373.03	227.21
373.41	227.18
373.78	227.16
374.16	227.04
374.54	226.94
374.92	226.87
375.30	226.83
375.68	226.79
376.06	226.72
376.44	226.65
376.82	226.56
377.19	226.48
377.57	226.39
377.95	226.33
378.33	226.26
378.71	226.11
379.09	226.06
379.47	226.01
379.84	225.96
380.22	225.90
380.60	225.85
380.98	225.80
381.36	225.73
381.73	225.64
382.11	225.62
382.49	225.56
382.87	225.49
383.25	225.42
383.62	225.45
384.00	225.38
384.38	225.33
384.76	225.33
385.13	225.28
385.51	225.25
385.89	225.15
386.27	225.10
386.64	225.10
387.02	225.07
387.40	225.02
387.78	224.99
388.15	224.95
388.53	224.89
388.91	224.87
389.29	224.81
389.66	224.79
390.04	224.73
390.42	224.73
390.79	224.73
391.17	224.73
391.55	224.61
391.92	224.64
392.30	224.62
392.68	224.61
393.05	224.62
393.43	224.61
393.81	224.62
394.18	224.63
394.56	224.60
394.94	224.62
395.31	224.62
395.69	224.68
396.06	224.71
396.44	224.75
396.82	224.78
397.19	224.86
397.57	224.89
397.95	224.94
398.32	224.96
398.70	225.00
399.07	225.09
399.45	225.13
399.82	225.18
400.20	225.23
400.58	225.30
400.95	225.30
401.33	225.40
401.70	225.56
402.08	225.66
402.45	225.74
402.83	225.84
403.20	225.95
403.58	226.02
403.95	226.17
404.33	226.28
404.71	226.39
405.08	226.60
405.46	226.74
405.83	226.89
406.21	227.04
406.58	227.18
406.96	227.30
407.33	227.47
407.70	227.66
408.08	227.95
408.45	228.18
408.83	228.47
409.20	228.68
409.58	228.82
409.95	229.10
410.33	229.40
410.70	229.67
411.08	229.98
411.45	230.28
411.82	230.59
412.20	230.99
412.57	231.40
412.95	231.65
413.32	232.07
413.69	232.46
414.07	232.92
414.44	233.43
414.82	233.95
415.19	234.54
415.56	235.12
415.94	235.68
416.31	236.31
416.68	236.92
417.06	237.68
417.43	238.42
417.81	239.21
418.18	240.02
418.55	240.86
418.93	241.76
419.30	242.67
419.67	243.61
420.04	244.54
420.42	245.57
420.79	246.82
421.16	248.00
421.54	249.29
421.91	250.49
422.28	251.74
422.66	253.09
423.03	254.43
423.40	255.77
423.77	257.21
424.15	258.67
424.52	260.21
424.89	261.81
425.26	263.41
425.64	264.84
426.01	266.42
426.38	268.12
426.75	269.84
427.13	271.61
427.50	273.43
427.87	275.36
428.24	277.25
428.61	279.03
428.99	280.99
429.36	283.09
429.73	285.21
430.10	287.28
430.47	289.39
430.85	291.55
431.22	293.82
431.59	296.23
431.96	298.52
432.33	301.03
432.70	303.45
433.08	306.29
433.45	308.98
433.82	311.68
434.19	314.61
434.56	317.46
434.93	320.20
435.30	322.89
435.68	325.83
436.05	328.74
436.42	331.55
436.79	334.16
437.16	336.89
437.53	339.78
437.90	342.68
438.27	345.50
438.64	348.40
439.01	351.08
439.38	353.37
439.75	355.60
440.13	358.15
440.50	360.56
440.87	362.46
441.24	364.47
441.61	366.66
441.98	368.20
442.35	370.11
442.72	372.00
443.09	373.85
443.46	374.89
443.83	375.51
444.20	376.07
444.57	376.91
444.94	377.23
445.31	377.63
445.68	377.96
446.05	378.04
446.42	377.66
446.79	377.25
447.16	376.80
447.53	376.48
447.90	375.33
448.27	374.16
448.64	372.60
449.01	371.49
449.37	369.50
449.74	367.60
450.11	365.26
450.48	362.71
450.85	360.21
451.22	358.05
451.59	356.00
451.96	354.03
452.33	351.39
452.70	349.01
453.07	346.09
453.43	343.17
453.80	340.37
454.17	337.65
454.54	335.04
454.91	332.26
455.28	329.50
455.65	326.98
456.02	324.45
456.38	322.18
456.75	319.43
457.12	317.12
457.49	314.86
457.86	312.65
458.23	310.79
458.59	308.63
458.96	306.49
459.33	304.59
459.70	302.66
460.07	301.11
460.43	299.33
460.80	297.72
461.17	296.25
461.54	294.71
461.91	293.27
462.27	291.78
462.64	290.53
463.01	289.18
463.38	287.83
463.74	286.49
464.11	285.35
464.48	284.34
464.85	283.19
465.21	282.32
465.58	281.34
465.95	280.21
466.32	279.30
466.68	278.40
467.05	277.47
467.42	276.58
467.78	275.64
468.15	274.77
468.52	274.08
468.88	273.17
469.25	272.36
469.62	271.69
469.98	270.99
470.35	270.35
470.72	269.70
471.08	269.04
471.45	268.45
471.82	267.88
472.18	267.18
472.55	266.79
472.92	266.22
473.28	265.76
473.65	265.33
474.02	264.86
474.38	264.45
474.75	264.12
475.11	263.74
475.48	263.47
475.85	263.23
476.21	262.95
476.58	262.77
476.94	262.65
477.31	262.47
477.67	262.32
478.04	262.19
478.41	262.14
478.77	262.18
479.14	262.13
479.50	262.12
479.87	262.25
480.23	262.30
480.60	262.37
480.96	262.44
481.33	262.65
481.69	262.82
482.06	263.02
482.42	263.23
482.79	263.50
483.15	263.81
483.52	264.19
483.88	264.57
484.25	264.96
484.61	265.35
484.98	265.81
485.34	266.36
485.71	266.97
486.07	267.60
486.44	268.16
486.80	268.83
487.17	269.57
487.53	270.39
487.90	271.23
488.26	272.19
488.62	273.18
488.99	274.10
489.35	275.15
489.72	276.32
490.08	277.51
490.44	278.76
490.81	280.08
491.17	281.43
491.54	282.92
491.90	284.49
492.26	286.17
492.63	287.90
492.99	289.66
493.36	291.54
493.72	293.54
494.08	295.64
494.45	297.88
494.81	300.25
495.17	302.67
495.54	305.22
495.90	307.88
496.26	310.68
496.63	313.70
496.99	316.81
497.35	320.01
497.72	323.40
498.08	326.92
498.44	330.58
498.80	334.51
499.17	338.55
499.53	342.66
499.89	347.02
500.26	351.49
500.62	356.15
500.98	361.12
501.34	366.25
501.71	371.55
502.07	377.02
502.43	382.60
502.79	388.38
503.16	394.46
503.52	400.71
503.88	407.10
504.24	413.67
504.60	420.49
504.97	427.58
505.33	434.83
505.69	442.44
506.05	450.20
506.41	458.03
506.78	466.09
507.14	474.44
507.50	483.05
507.86	491.99
508.22	501.11
508.59	510.16
508.95	519.56
509.31	529.23
509.67	539.16
510.03	549.31
510.39	559.72
510.75	570.35
511.12	581.11
511.48	592.21
511.84	603.40
512.20	614.74
512.56	626.46
512.92	638.40
513.28	650.65
513.64	662.91
514.00	675.36
514.37	688.04
514.73	700.94
515.09	713.75
515.45	726.81
515.81	740.12
516.17	753.88
516.53	767.71
516.89	781.74
517.25	795.71
517.61	809.96
517.97	824.14
518.33	838.26
518.69	852.83
519.05	867.52
519.41	882.56
519.77	897.76
520.13	913.00
520.49	928.19
520.85	943.18
521.21	958.51
521.57	974.40
521.93	989.89
522.29	1005.83
522.65	1021.76
523.01	1037.68
523.37	1053.41
523.73	1069.27
524.09	1085.14
524.45	1100.97
524.81	1117.25
525.17	1133.63
525.53	1150.13
525.89	1166.59
526.25	1183.04
526.61	1199.09
526.97	1215.46
527.33	1231.64
527.68	1247.85
528.04	1263.91
528.40	1280.05
528.76	1296.78
529.12	1313.19
529.48	1329.76
529.84	1345.47
530.20	1361.82
530.56	1378.34
530.91	1395.40
531.27	1411.84
531.63	1427.97
531.99	1444.33
532.35	1460.07
532.71	1475.59
533.07	1491.53
533.42	1507.22
533.78	1523.04
534.14	1539.08
534.50	1554.12
534.86	1569.74
535.21	1584.69
535.57	1600.39
535.93	1615.82
536.29	1630.30
536.65	1645.07
537.00	1659.57
537.36	1674.84
537.72	1689.15
538.08	1703.42
538.44	1717.06
538.79	1730.77
539.15	1744.20
539.51	1757.71
539.87	1771.98
540.22	1785.54
540.58	1799.04
540.94	1812.23
541.29	1824.68
541.65	1837.16
542.01	1850.23
542.37	1862.53
542.72	1874.87
543.08	1886.53
543.44	1898.76
543.79	1910.06
544.15	1920.83
544.51	1932.33
544.87	1943.17
545.22	1954.07
545.58	1964.41
545.94	1974.19
546.29	1984.09
546.65	1993.97
547.01	2003.23
547.36	2011.93
547.72	2020.62
548.07	2028.89
548.43	2037.10
548.79	2045.21
549.14	2053.09
549.50	2060.51
549.86	2068.10
550.21	2075.47
550.57	2082.81
550.92	2089.72
551.28	2096.82
551.64	2104.14
551.99	2110.82
552.35	2117.17
552.70	2123.31
553.06	2129.33
553.41	2135.89
553.77	2142.00
554.13	2148.29
554.48	2154.60
554.84	2160.45
555.19	2165.73
555.55	2170.95
555.90	2175.84
556.26	2181.13
556.61	2185.82
556.97	2190.46
557.32	2194.92
557.68	2199.40
558.03	2203.85
558.39	2207.68
558.74	2212.47
559.10	2216.55
559.45	2220.48
559.81	2224.82
560.16	2228.94
560.52	2232.47
560.87	2235.96
561.23	2238.84
561.58	2241.87
561.94	2244.75
562.29	2247.08
562.64	2250.32
563.00	2253.13
563.35	2256.69
563.71	2260.18
564.06	2263.61
564.42	2266.75
564.77	2269.63
565.12	2272.27
565.48	2274.68
565.83	2276.82
566.19	2278.71
566.54	2279.87
566.89	2281.27
567.25	2282.34
567.60	2283.78
567.96	2285.97
568.31	2287.13
568.66	2288.63
569.02	2289.61
569.37	2290.28
569.72	2291.58
570.08	2292.07
570.43	2292.31
570.78	2292.11
571.14	2290.74
571.49	2289.81
571.84	2289.55
572.20	2288.73
572.55	2287.87
572.90	2286.33
573.26	2285.21
573.61	2283.47
573.96	2282.22
574.31	2279.59
574.67	2276.95
575.02	2273.65
575.37	2270.40
575.72	2267.01
576.08	2263.88
576.43	2260.66
576.78	2257.43
577.13	2254.24
577.49	2251.03
577.84	2247.88
578.19	2244.39
578.54	2241.08
578.90	2237.15
579.25	2232.10
579.60	2227.37
579.95	2222.70
580.30	2218.01
580.66	2213.18
581.01	2208.44
581.36	2203.63
581.71	2199.77
582.06	2195.60
582.42	2191.43
582.77	2186.41
583.12	2182.14
583.47	2177.81
583.82	2173.33
584.17	2168.10
584.53	2162.99
584.88	2157.75
585.23	2152.33
585.58	2146.93
585.93	2141.66
586.28	2136.93
586.63	2132.08
586.98	2127.10
587.34	2122.45
587.69	2117.74
588.04	2112.79
588.39	2107.53
588.74	2101.16
589.09	2095.17
589.44	2088.51
589.79	2082.52
590.14	2077.05
590.49	2070.61
590.84	2064.18
591.19	2058.24
591.54	2051.93
591.89	2044.89
592.25	2038.43
592.60	2031.39
592.95	2024.24
593.30	2017.04
593.65	2009.56
594.00	2002.62
594.35	1995.78
594.70	1987.73
595.05	1980.92
595.40	1973.57
595.75	1966.17
596.10	1960.27
596.45	1953.74
596.80	1947.75
597.15	1941.47
597.50	1934.74
597.85	1928.31
598.19	1921.98
598.54	1915.16
598.89	1908.65
599.24	1902.70
599.59	1896.26
599.94	1890.06
600.29	1883.80
600.64	1877.20
600.99	1870.14
601.34	1863.39
601.69	1856.25
602.04	1849.71
602.39	1842.25
602.74	1835.45
603.08	1828.90
603.43	1822.08
603.78	1814.76
604.13	1807.45
604.48	1800.30
604.83	1793.45
605.18	1786.80
605.53	1778.89
605.87	1770.81
606.22	1763.58
606.57	1755.64
606.92	1747.97
607.27	1740.97
607.62	1734.13
607.96	1727.17
608.31	1720.56
608.66	1713.06
609.01	1705.76
609.36	1698.18
609.70	1690.20
610.05	1682.35
610.40	1674.54
610.75	1666.31
611.10	1658.74
611.44	1650.38
611.79	1642.30
612.14	1633.48
612.49	1624.08
612.83	1615.53
613.18	1607.29
613.53	1599.24
613.88	1590.67
614.22	1582.42
614.57	1573.66
614.92	1565.49
615.27	1557.97
615.61	1549.50
615.96	1541.32
616.31	1533.47
616.65	1526.01
617.00	1518.35
617.35	1510.49
617.70	1502.27
618.04	1493.80
618.39	1485.37
618.74	1477.79
619.08	1469.35
619.43	1461.76
619.78	1454.75
620.12	1447.66
620.47	1440.08
620.82	1431.78
621.16	1424.18
621.51	1416.51
621.85	1408.80
622.20	1400.19
622.55	1391.57
622.89	1383.66
623.24	1375.88
623.59	1368.28
623.93	1360.63
624.28	1353.33
624.62	1345.89
624.97	1338.55
625.32	1331.48
625.66	1324.36
626.01	1317.12
626.35	1309.85
626.70	1301.99
627.04	1294.32
627.39	1286.36
627.73	1278.84
628.08	1271.89
628.43	1264.71
628.77	1257.36
629.12	1249.81
629.46	1242.57
629.81	1234.89
630.15	1227.69
630.50	1220.43
630.84	1212.31
631.19	1204.31
631.53	1196.65
631.88	1188.89
632.22	1181.23
632.57	1173.96
632.91	1166.34
633.26	1158.81
633.60	1151.15
633.95	1143.86
634.29	1136.62
634.64	1129.78
634.98	1122.41
635.32	1115.22
635.67	1108.44
636.01	1101.64
636.36	1094.81
636.70	1088.27
637.05	1081.77
637.39	1075.11
637.73	1068.40
638.08	1062.40
638.42	1056.41
638.77	1050.14
639.11	1043.61
639.45	1037.17
639.80	1030.44
640.14	1024.03
640.49	1017.52
640.83	1011.13
641.17	1004.99
641.52	998.76
641.86	992.35
642.20	986.45
642.55	979.95
642.89	973.46
643.23	966.85
643.58	961.00
643.92	954.74
644.26	948.79
644.61	942.67
644.95	936.68
645.29	930.20
645.64	923.42
645.98	916.91
646.32	910.77
646.66	904.64
647.01	898.85
647.35	893.16
647.69	887.19
648.04	881.61
648.38	875.73
648.72	869.68
649.06	863.63
649.41	857.69
649.75	851.94
650.09	846.07
650.43	840.28
650.78	834.06
651.12	828.04
651.46	822.18
651.80	816.65
652.14	811.19
652.49	805.75
652.83	800.53
653.17	794.95
653.51	789.39
653.85	783.97
654.20	778.37
654.54	772.40
654.88	766.60
655.22	760.70
655.56	755.01
655.90	749.48
656.25	744.20
656.59	738.76
656.93	733.50
657.27	728.33
657.61	722.86
657.95	717.77
658.29	712.74
658.64	707.40
658.98	701.94
659.32	696.42
659.66	691.17
660.00	685.90
660.34	680.85
660.68	675.90
661.02	670.79
661.36	666.04
661.70	661.40
662.05	657.08
662.39	652.87
662.73	648.35
663.07	643.88
663.41	639.43
663.75	634.99
664.09	630.42
664.43	625.94
664.77	621.87
665.11	617.56
665.45	613.34
665.79	609.29
666.13	605.14
666.47	600.98
666.81	596.82
667.15	592.61
667.49	588.66
667.83	584.73
668.17	580.81
668.51	576.74
668.85	572.72
669.19	568.79
669.53	564.87
669.87	561.02
670.21	557.31
670.55	553.60
670.89	550.17
671.23	546.73
671.57	543.18
671.91	539.60
672.25	536.10
672.58	532.55
672.92	529.08
673.26	525.87
673.60	522.72
673.94	519.59
674.28	516.63
674.62	513.69
674.96	510.65
675.30	507.73
675.64	504.79
675.97	501.96
676.31	499.12
676.65	496.19
676.99	493.43
677.33	490.58
677.67	487.73
678.01	484.70
678.34	481.69
678.68	478.78
679.02	475.97
679.36	473.12
679.70	470.41
680.04	467.70
680.37	464.85
680.71	462.00
681.05	459.26
681.39	456.55
681.73	453.84
682.06	451.22
682.40	448.73
682.74	446.12
683.08	443.54
683.42	440.88
683.75	438.36
684.09	435.75
684.43	433.22
684.77	430.79
685.10	428.38
685.44	426.05
685.78	423.76
686.12	421.43
686.45	419.13
686.79	416.85
687.13	414.59
687.46	412.43
687.80	410.26
688.14	408.06
688.48	405.97
688.81	403.83
689.15	401.68
689.49	399.41
689.82	397.30
690.16	395.17
690.50	393.23
690.83	391.26
691.17	389.25
691.51	387.33
691.84	385.42
692.18	383.53
692.52	381.53
692.85	379.57
693.19	377.72
693.52	375.90
693.86	373.99
694.20	372.19
694.53	370.33
694.87	368.49
695.21	366.72
695.54	364.89
695.88	363.05
696.21	361.31
696.55	359.61
696.88	357.90
697.22	356.25
697.56	354.56
697.89	352.93
698.23	351.33
698.56	349.72
698.90	348.13
699.23	346.48
699.57	344.92
699.90	343.33
700.24	341.76
700.58	340.19
700.91	338.77
701.25	337.31
701.58	335.94
701.92	334.56
702.25	333.17
702.59	331.83
702.92	330.53
703.26	329.18
703.59	327.95
703.93	326.76
704.26	325.49
704.60	324.21
704.93	322.90
705.26	321.65
705.60	320.41
705.93	319.24
706.27	318.13
706.60	317.06
706.94	316.00
707.27	314.85
707.61	313.82
707.94	312.74
708.27	311.63
708.61	310.52
708.94	309.45
709.28	308.41
709.61	307.43
709.94	306.44
710.28	305.45
710.61	304.39
710.95	303.30
711.28	302.38
711.61	301.41
711.95	300.46
712.28	299.48
712.61	298.50
712.95	297.52
713.28	296.62
713.61	295.72
713.95	294.81
714.28	293.95
714.61	293.04
714.95	292.17
715.28	291.30
715.61	290.42
715.95	289.59
716.28	288.73
716.61	287.84
716.95	286.97
717.28	286.18
717.61	285.45
717.94	284.66
718.28	283.83
718.61	283.12
718.94	282.45
719.27	281.83
719.61	281.19
719.94	280.56
720.27	279.88
720.60	279.20
720.94	278.59
721.27	277.99
721.60	277.43
721.93	276.82
722.27	276.25
722.60	275.69
722.93	275.09
723.26	274.56
723.59	273.98
723.93	273.46
724.26	272.91
724.59	272.31
724.92	271.78
725.25	271.29
725.59	270.76
725.92	270.21
726.25	269.65
726.58	269.13
726.91	268.63
727.24	268.11
727.57	267.66
727.91	267.13
728.24	266.65
728.57	266.14
728.90	265.65
729.23	265.14
729.56	264.70
729.89	264.26
730.22	263.75
730.55	263.27
730.89	262.81
731.22	262.36
731.55	261.94
731.88	261.51
732.21	261.07
732.54	260.64
732.87	260.26
733.20	259.87
733.53	259.47
733.86	259.06
734.19	258.68
734.52	258.29
734.85	257.99
735.18	257.54
735.51	257.19
735.84	256.80
736.17	256.48
736.50	256.05
736.83	255.81
737.16	255.51
737.49	255.16
737.82	254.81
738.15	254.47
738.48	254.14
738.81	253.86
739.14	253.54
739.47	253.23
739.80	252.86
740.13	252.56
740.46	252.25
740.79	251.92
741.12	251.60
741.45	251.27
741.78	250.91
742.11	250.65
742.44	250.32
742.77	250.07
743.10	249.78
743.43	249.52
743.75	249.11
744.08	248.92
744.41	248.67
744.74	248.39
745.07	248.10
745.40	247.83
745.73	247.54
746.06	247.23
746.39	246.96
746.71	246.67
747.04	246.37
747.37	246.09
747.70	245.85
748.03	245.59
748.36	245.35
748.68	245.08
749.01	244.80
749.34	244.58
749.67	244.35
750.00	244.09
750.33	243.91
750.65	243.69
750.98	243.36
751.31	243.11
751.64	242.92
751.97	242.77
752.29	242.54
752.62	242.24
752.95	242.05
753.28	241.83
753.60	241.63
753.93	241.46
754.26	241.22
754.59	240.99
754.91	240.77
755.24	240.57
755.57	240.38
755.90	240.22
756.22	239.96
756.55	239.76
756.88	239.57
757.20	239.34
757.53	239.16
757.86	238.98
758.19	238.85
758.51	238.68
758.84	238.47
759.17	238.30
759.49	238.22
759.82	238.11
760.15	237.98
760.47	237.87
760.80	237.68
761.13	237.61
761.45	237.44
761.78	237.30
762.11	237.16
762.43	237.02
762.76	236.87
763.08	236.75
763.41	236.61
763.74	236.49
764.06	236.31
764.39	236.15
764.71	236.04
765.04	235.89
765.37	235.76
765.69	235.64
766.02	235.50
766.34	235.33
766.67	235.17
767.00	235.07
767.32	234.96
767.65	234.92
767.97	234.80
768.30	234.69
768.62	234.60
768.95	234.47
769.27	234.36
769.60	234.27
769.92	234.16
770.25	234.03
770.57	233.94
770.90	233.87
771.22	233.77
771.55	233.64
771.87	233.55
772.20	233.43
772.52	233.39
772.85	233.41
773.17	233.31
773.50	233.20
773.82	233.05
774.15	232.91
774.47	232.75
774.80	232.63
775.12	232.56
775.45	232.47
775.77	232.39
776.09	232.31
776.42	232.23
776.74	232.17
777.07	232.08
777.39	231.96
777.72	231.84
778.04	231.79
778.36	231.69
778.69	231.61
779.01	231.54
779.33	231.38
779.66	231.21
779.98	231.16
780.31	231.08
780.63	231.08
780.95	231.02
781.28	230.93
781.60	230.83
781.92	230.77
782.25	230.70
782.57	230.65
782.89	230.58
783.22	230.50
783.54	230.41
783.86	230.36
784.19	230.31
784.51	230.30
784.83	230.19
785.16	230.16
785.48	230.10
785.80	230.03
786.12	229.99
786.45	229.96
786.77	229.93
787.09	229.90
787.42	229.81
787.74	229.78
788.06	229.77
788.38	229.75
788.71	229.66
789.03	229.58
789.35	229.53
789.67	229.48
789.99	229.43
790.32	229.36
790.64	229.31
790.96	229.35
791.28	229.28
791.61	229.26
791.93	229.24
792.25	229.22
792.57	229.28
792.89	229.20
793.21	229.16
793.54	229.08
793.86	229.04
794.18	229.00
794.50	228.94
794.82	228.87
795.14	228.84
795.47	228.83
795.79	228.83
796.11	228.77
796.43	228.73
796.75	228.71
797.07	228.70
797.39	228.66
797.71	228.54
798.04	228.53
798.36	228.49
798.68	228.42
799.00	228.38
799.32	228.30
799.64	228.31
799.96	228.27
800.28	228.26
800.60	228.23
800.92	228.24
801.24	228.21
801.56	228.20
801.89	228.17
802.21	228.14
802.53	228.08
802.85	228.12
803.17	228.14
803.49	228.11
803.81	228.07
804.13	228.04
804.45	228.01
804.77	228.00
805.09	227.97
805.41	227.97
805.73	227.93
806.05	227.86
806.37	227.84
806.69	227.81
807.01	227.77
807.33	227.73
807.65	227.65
807.97	227.67
808.28	227.63
808.60	227.60
808.92	227.56
809.24	227.58
809.56	227.49
809.88	227.43
810.20	227.40
810.52	227.42
810.84	227.42
811.16	227.40
811.48	227.37
811.80	227.38
812.12	227.35
812.43	227.35
812.75	227.34
813.07	227.30
813.39	227.29
813.71	227.28
814.03	227.25
814.35	227.25
814.67	227.19
814.98	227.17
815.30	227.15
815.62	227.15
815.94	227.08
816.26	227.11
816.58	227.06
816.89	227.07
817.21	227.03
817.53	227.00
817.85	226.96
818.17	226.94
818.48	226.88
818.80	226.89
819.12	226.84
819.44	226.80
819.76	226.77
820.07	226.75
820.39	226.74
820.71	226.72
821.03	226.67
821.34	226.64
821.66	226.65
821.98	226.67
822.30	226.65
822.61	226.69
822.93	226.64
823.25	226.62
823.57	226.56
823.88	226.58
824.20	226.57
824.52	226.54
824.83	226.52
825.15	226.52
825.47	226.49
825.79	226.48
826.10	226.47
826.42	226.42
826.74	226.39
827.05	226.37
827.37	226.35
827.69	226.34
828.00	226.30
828.32	226.23
828.64	226.17
828.95	226.18
829.27	226.13
829.58	226.11
829.90	226.12
830.22	226.12
830.53	226.04
830.85	226.00
831.17	225.98
831.48	225.94
831.80	225.93
832.11	225.93
832.43	225.93
832.75	225.91
833.06	225.99
833.38	225.94
833.69	225.90
834.01	225.90
834.32	225.87
834.64	225.85
834.96	225.86
835.27	225.85
835.59	225.82
835.90	225.80
836.22	225.81
836.53	225.79
836.85	225.78
837.16	225.89
837.48	225.90
837.79	225.96
838.11	225.95
838.42	225.93
838.74	225.93
839.05	225.90
839.37	225.91
839.68	225.86
840.00	225.88
840.31	225.91
840.63	225.89
840.94	225.94
841.26	225.96
841.57	225.98
841.88	226.02
842.20	226.01
842.51	226.01
842.83	225.98
843.14	226.07
843.46	226.05
843.77	226.00
844.08	226.00
844.40	225.96
844.71	225.97
845.03	226.00
845.34	225.99
845.65	226.00
845.97	225.97
846.28	225.96
846.60	225.96
846.91	225.96
847.22	225.95
847.54	225.94
847.85	225.94
848.16	225.93
848.48	225.93
848.79	225.96
849.10	225.97
849.42	226.00
849.73	225.91
850.04	225.89
850.36	225.85
850.67	225.87
850.98	225.87
851.30	225.87
851.61	225.84
851.92	225.84
852.23	225.89
852.55	225.91
852.86	225.94
853.17	225.94
853.49	225.95
853.80	226.00
854.11	226.00
854.42	225.99
854.74	225.99
855.05	225.99
855.36	225.94
855.67	225.93
855.99	225.92
856.30	226.03
856.61	226.05
856.92	226.02
857.23	226.03
857.55	225.97
857.86	225.97
858.17	225.96
858.48	225.92
858.79	225.84
859.11	225.86
859.42	225.84
859.73	225.84
860.04	225.80
860.35	225.74
860.66	225.71
860.98	225.72
861.29	225.71
861.60	225.69
861.91	225.69
862.22	225.69
862.53	225.64
862.84	225.52
863.16	225.54
863.47	225.53
863.78	225.53
864.09	225.56
864.40	225.53
864.71	225.53
865.02	225.54
865.33	225.53
865.64	225.50
865.95	225.50
866.27	225.55
866.58	225.53
866.89	225.54
867.20	225.52
867.51	225.48
867.82	225.47
868.13	225.48
868.44	225.45
868.75	225.44
869.06	225.47
869.37	225.47
869.68	225.38
869.99	225.40
870.30	225.36
870.61	225.35
870.92	225.32
871.23	225.29
871.54	225.27
871.85	225.29
872.16	225.29
872.47	225.25
872.78	225.18
873.09	225.17
873.40	225.14
873.71	225.16
874.02	225.17
874.33	225.15
874.64	225.13
874.95	225.12
875.26	225.09
875.56	225.05
875.87	225.03
876.18	225.05
876.49	225.15
876.80	225.12
877.11	225.09
877.42	225.10
877.73	225.13
878.04	225.15
878.35	225.14
878.66	225.15
878.96	225.18
879.27	225.20
879.58	225.22
879.89	225.22
880.20	225.24
880.51	225.26
880.82	225.28
881.12	225.29
881.43	225.28
881.74	225.31
882.05	225.33
882.36	225.37
882.67	225.41
882.97	225.31
883.28	225.33
883.59	225.36
883.90	225.39
884.21	225.41
884.51	225.41
884.82	225.41
885.13	225.41
885.44	225.39
885.74	225.37
886.05	225.39
886.36	225.42
886.67	225.36
886.98	225.39
887.28	225.40
887.59	225.42
887.90	225.46
888.20	225.45
888.51	225.47
888.82	225.44
889.13	225.45
889.43	225.53
889.74	225.53
890.05	225.56
890.35	225.55
890.66	225.54
890.97	225.55
891.28	225.53
891.58	225.51
891.89	225.53
892.20	225.54
892.50	225.52
892.81	225.52
893.12	225.53
893.42	225.49
893.73	225.49
894.04	225.47
894.34	225.46
894.65	225.47
894.95	225.45
895.26	225.45
895.57	225.48
895.87	225.38
896.18	225.42
896.48	225.41
896.79	225.40
897.10	225.42
897.40	225.43
897.71	225.46
898.01	225.47
898.32	225.48
898.63	225.46
898.93	225.45
899.24	225.45
899.54	225.47
899.85	225.42
900.15	225.40
900.46	225.40
900.76	225.42
901.07	225.37
901.38	225.39
901.68	225.41
901.99	225.34
902.29	225.33
902.60	225.33
902.90	225.33
903.21	225.31
903.51	225.29
903.82	225.31
904.12	225.31
904.43	225.32
904.73	225.31
905.03	225.30
905.34	225.42
905.64	225.39
905.95	225.38
906.25	225.42
906.56	225.43
906.86	225.41
907.17	225.39
907.47	225.38
907.77	225.34
908.08	225.29
908.38	225.30
908.69	225.33
908.99	225.33
909.30	225.28
909.60	225.30
909.90	225.30
910.21	225.24
910.51	225.19
910.81	225.15
911.12	225.11
911.42	225.11
911.73	224.97
912.03	224.98
912.33	225.01
912.64	224.99
912.94	224.96
913.24	224.94
913.55	224.90
913.85	224.93
914.15	224.96
914.46	224.96
914.76	224.97
915.06	224.96
915.37	224.93
915.67	224.96
915.97	224.98
916.27	224.97
916.58	224.98
916.88	224.99
917.18	224.98
917.49	225.08
917.79	225.12
918.09	225.16
918.39	225.17
918.70	225.15
919.00	225.13
919.30	225.19
919.60	225.21
919.91	225.21
920.21	225.22
920.51	225.18
920.81	225.19
921.12	225.19
921.42	225.21
921.72	225.21
922.02	225.20
922.32	225.17
922.63	225.12
922.93	225.18
923.23	225.15
923.53	225.18
923.83	225.11
924.13	225.08
924.44	225.07
924.74	225.10
925.04	225.14
925.34	225.16
925.64	225.13
925.94	225.13
926.24	225.17
926.55	225.18
926.85	225.24
927.15	225.25
927.45	225.24
927.75	225.21
928.05	225.23
928.35	225.23
928.65	225.24
928.95	225.29
929.26	225.27
929.56	225.34
929.86	225.32
930.16	225.36
930.46	225.35
930.76	225.37
931.06	225.31
931.36	225.28
931.66	225.33
931.96	225.33
932.26	225.36
932.56	225.35
932.86	225.34
933.16	225.31
933.46	225.28
933.76	225.28
934.06	225.31
934.36	225.36
934.66	225.37
934.96	225.38
935.26	225.37
935.56	225.38
935.86	225.34
936.16	225.34
936.46	225.34
936.76	225.34
937.06	225.32
937.36	225.35
937.66	225.36
937.96	225.33
938.26	225.33
938.56	225.31
938.86	225.32
939.16	225.34
939.46	225.37
939.76	225.39
940.06	225.40
940.35	225.38
940.65	225.29
940.95	225.30
941.25	225.29
941.55	225.32
941.85	225.28
942.15	225.30
942.45	225.30
942.75	225.29
943.04	225.30
943.34	225.32
943.64	225.30
943.94	225.28
944.24	225.29
944.54	225.26
944.84	225.22
945.13	225.19
945.43	225.15
945.73	225.15
946.03	225.14
946.33	225.14
946.62	225.14
946.92	225.13
947.22	225.13
947.52	225.10
947.82	225.06
948.11	225.07
948.41	225.03
948.71	225.03
949.01	225.00
949.31	224.97
949.60	224.96
949.90	224.97
950.20	224.96
950.50	224.92
950.79	224.92
951.09	224.95
951.39	224.96
951.69	224.95
951.98	224.93
952.28	224.92
952.58	224.90
952.87	224.86
953.17	224.87
953.47	224.83
953.76	224.83
954.06	224.83
954.36	224.80
954.66	224.79
954.95	224.80
955.25	224.82
955.55	224.86
955.84	224.84
956.14	224.84
956.44	224.87
956.73	224.89
957.03	224.91
957.32	224.94
957.62	224.94
957.92	224.97
958.21	224.98
958.51	225.08
958.81	225.06
959.10	225.10
959.40	225.12
959.69	225.12
959.99	225.16
960.29	225.16
960.58	225.17
960.88	225.23
961.17	225.23
961.47	225.27
961.76	225.24
962.06	225.27
962.36	225.28
962.65	225.27
962.95	225.25
963.24	225.25
963.54	225.25
963.83	225.25
964.13	225.27
964.42	225.28
964.72	225.23
965.01	225.27
965.31	225.28
965.60	225.27
965.90	225.35
966.19	225.32
966.49	225.33
966.78	225.35
967.08	225.34
967.37	225.36
967.67	225.33
967.96	225.36
968.26	225.35
968.55	225.37
968.85	225.37
969.14	225.40
969.43	225.38
969.73	225.34
970.02	225.35
970.32	225.32
970.61	225.34
970.91	225.31
971.20	225.31
971.49	225.29
971.79	225.33
972.08	225.29
972.38	225.29
972.67	225.29
972.96	225.31
973.26	225.35
973.55	225.36
973.85	225.34
974.14	225.31
974.43	225.30
974.73	225.28
975.02	225.27
975.31	225.26
975.61	225.27
975.90	225.30
976.19	225.28
976.49	225.27
976.78	225.28
977.07	225.29
977.37	225.28
977.66	225.29
977.95	225.24
978.24	225.24
978.54	225.28
978.83	225.29
979.12	225.27
979.42	225.23
979.71	225.19
980.00	225.20
980.29	225.21
980.59	225.21
980.88	225.22
981.17	225.22
981.46	225.22
981.76	225.21
982.05	225.24
982.34	225.26
982.63	225.25
982.93	225.20
983.22	225.19
983.51	225.21
983.80	225.21
984.09	225.20
984.39	225.18
984.68	225.15
984.97	225.14
985.26	225.14
985.55	225.12
985.85	225.13
986.14	225.09
986.43	225.11
986.72	225.08
987.01	225.04
987.30	225.02
987.59	225.00
987.89	225.02
988.18	224.96
988.47	224.94
988.76	224.94
989.05	224.94
989.34	224.92
989.63	224.93
989.92	224.92
990.22	224.91
990.51	224.91
990.80	224.89
991.09	224.86
991.38	224.83
991.67	224.84
991.96	224.82
992.25	224.82
992.54	224.78
992.83	224.78
993.12	224.78
993.41	224.81
993.70	224.84
993.99	224.81
994.28	224.84
994.58	224.85
994.87	224.83
995.16	224.80
995.45	224.79
995.74	224.76
996.03	224.79
996.32	224.80
996.61	224.81
996.90	224.81
997.19	224.80
997.48	224.78
997.77	224.74
998.06	224.72
998.34	224.74
998.63	224.71
998.92	224.70
999.21	224.74
999.50	224.75
999.79	224.74
1000.08	224.73
1000.37	224.73
1000.66	224.71
1000.95	224.74
1001.24	224.76
1001.53	224.79
1001.82	224.79
1002.11	224.77
1002.40	224.76
1002.68	224.79
1002.97	224.86
1003.26	224.87
1003.55	224.90
1003.84	224.92
1004.13	225.00
1004.42	224.98
1004.71	225.01
1004.99	225.04
1005.28	225.05
1005.57	225.03
1005.86	225.00
1006.15	225.04
1006.44	225.00
1006.72	225.03
1007.01	225.04
1007.30	225.07
1007.59	225.06
1007.88	225.09
1008.17	225.08
1008.45	225.09
1008.74	225.08
1009.03	225.02
1009.32	225.04
1009.60	225.05
1009.89	225.06
1010.18	225.03
1010.47	225.05
1010.76	225.08
1011.04	225.10
1011.33	225.08
1011.62	225.10
1011.91	225.12
1012.19	225.13
1012.48	225.14
1012.77	225.15
1013.05	225.18
1013.34	225.15
1013.63	225.14
1013.92	225.12
1014.20	225.14
1014.49	225.15
1014.78	225.17
1015.06	225.17
1015.35	225.15
1015.64	225.17
1015.92	225.17
1016.21	225.14
1016.50	225.14
1016.78	225.12
1017.07	225.09
1017.36	225.07
1017.64	225.07
1017.93	225.05
1018.22	225.01
1018.50	225.02
1018.79	225.00
1019.08	224.98
1019.36	224.99
1019.65	224.99
1019.93	225.01
1020.22	225.01
1020.51	225.04
1020.79	225.00
1021.08	224.30
1021.36	224.79
1021.65	225.12
1021.94	224.97
1022.22	225.24
1022.51	224.85
1022.79	225.34
1023.08	225.32
1023.36	226.18
1023.65	224.68
>>>>>End Processed Spectral Data<<<<<
