SpectraSuite Data File
++++++++++++++++++++++++++++++++++++
Date: Fri Feb 01 17:07:01 EST 2013
User: group
Dark Spectrum Present: No
Reference Spectrum Present: No
Number of Sampled Component Spectra: 1
Spectrometers: USB2E7196
Integration Time (usec): 35000 (USB2E7196)
Spectra Averaged: 100 (USB2E7196)
Boxcar Smoothing: 10 (USB2E7196)
Correct for Electrical Dark: No (USB2E7196)
Strobe/Lamp Enabled: No (USB2E7196)
Correct for Detector Non-linearity: No (USB2E7196)
Correct for Stray Light: No (USB2E7196)
Number of Pixels in Processed Spectrum: 2048
>>>>>Begin Processed Spectral Data<<<<<
339.09	0.00
339.48	213.15
339.86	214.69
340.24	215.89
340.63	217.90
341.01	220.27
341.39	220.25
341.78	222.04
342.16	222.91
342.54	223.87
342.93	211.87
343.31	222.56
343.69	223.13
344.07	223.61
344.46	224.05
344.84	224.40
345.22	224.65
345.60	224.94
345.99	225.13
346.37	225.24
346.75	225.30
347.13	225.33
347.52	225.32
347.90	225.39
348.28	225.43
348.66	225.45
349.05	225.45
349.43	225.49
349.81	225.52
350.19	225.55
350.57	225.58
350.96	225.64
351.34	225.71
351.72	225.78
352.10	225.86
352.48	225.94
352.87	225.98
353.25	226.05
353.63	226.08
354.01	226.13
354.39	226.22
354.77	226.30
355.15	226.42
355.54	226.53
355.92	226.58
356.30	226.63
356.68	226.74
357.06	226.83
357.44	226.89
357.82	226.98
358.20	227.03
358.58	227.09
358.97	227.12
359.35	227.20
359.73	227.28
360.11	227.32
360.49	227.36
360.87	227.41
361.25	227.43
361.63	227.47
362.01	227.48
362.39	227.50
362.77	227.54
363.15	227.53
363.53	227.55
363.91	227.54
364.29	227.59
364.67	227.51
365.05	227.54
365.43	227.52
365.81	227.51
366.19	227.55
366.57	227.60
366.95	227.62
367.33	227.58
367.71	227.55
368.09	227.57
368.47	227.56
368.85	227.56
369.23	227.58
369.61	227.52
369.99	227.55
370.37	227.54
370.75	227.55
371.13	227.51
371.51	227.51
371.89	227.52
372.27	227.45
372.65	227.41
373.03	227.34
373.41	227.28
373.78	227.23
374.16	227.15
374.54	227.04
374.92	226.99
375.30	226.95
375.68	226.89
376.06	226.81
376.44	226.76
376.82	226.70
377.19	226.64
377.57	226.57
377.95	226.48
378.33	226.43
378.71	226.33
379.09	226.28
379.47	226.20
379.84	226.13
380.22	226.07
380.60	226.00
380.98	225.97
381.36	225.94
381.73	225.86
382.11	225.81
382.49	225.75
382.87	225.66
383.25	225.61
383.62	225.67
384.00	225.60
384.38	225.56
384.76	225.55
385.13	225.52
385.51	225.52
385.89	225.42
386.27	225.33
386.64	225.29
387.02	225.26
387.40	225.21
387.78	225.18
388.15	225.15
388.53	225.10
388.91	225.05
389.29	225.01
389.66	225.00
390.04	224.96
390.42	224.98
390.79	224.99
391.17	224.98
391.55	224.87
391.92	224.86
392.30	224.83
392.68	224.75
393.05	224.76
393.43	224.75
393.81	224.80
394.18	224.81
394.56	224.84
394.94	224.86
395.31	224.88
395.69	224.90
396.06	224.95
396.44	224.97
396.82	225.01
397.19	225.10
397.57	225.10
397.95	225.15
398.32	225.15
398.70	225.19
399.07	225.24
399.45	225.28
399.82	225.32
400.20	225.38
400.58	225.47
400.95	225.47
401.33	225.58
401.70	225.71
402.08	225.79
402.45	225.84
402.83	225.92
403.20	226.02
403.58	226.13
403.95	226.25
404.33	226.45
404.71	226.52
405.08	226.70
405.46	226.85
405.83	227.01
406.21	227.17
406.58	227.35
406.96	227.51
407.33	227.70
407.70	227.90
408.08	228.16
408.45	228.39
408.83	228.61
409.20	228.80
409.58	228.96
409.95	229.24
410.33	229.54
410.70	229.80
411.08	230.10
411.45	230.39
411.82	230.67
412.20	230.98
412.57	231.44
412.95	231.70
413.32	232.13
413.69	232.53
414.07	232.99
414.44	233.45
414.82	233.91
415.19	234.44
415.56	234.99
415.94	235.54
416.31	236.17
416.68	236.81
417.06	237.52
417.43	238.20
417.81	238.98
418.18	239.76
418.55	240.61
418.93	241.47
419.30	242.36
419.67	243.32
420.04	244.29
420.42	245.27
420.79	246.49
421.16	247.65
421.54	248.84
421.91	249.98
422.28	251.24
422.66	252.58
423.03	253.88
423.40	255.20
423.77	256.58
424.15	257.99
424.52	259.49
424.89	261.08
425.26	262.67
425.64	264.09
426.01	265.69
426.38	267.31
426.75	268.98
427.13	270.73
427.50	272.48
427.87	274.32
428.24	276.18
428.61	277.90
428.99	279.80
429.36	281.85
429.73	283.89
430.10	285.89
430.47	287.92
430.85	290.02
431.22	292.23
431.59	294.60
431.96	296.83
432.33	299.29
432.70	301.67
433.08	304.41
433.45	307.06
433.82	309.62
434.19	312.48
434.56	315.25
434.93	317.86
435.30	320.50
435.68	323.39
436.05	326.15
436.42	328.89
436.79	331.39
437.16	334.09
437.53	336.92
437.90	339.68
438.27	342.35
438.64	345.18
439.01	347.77
439.38	349.94
439.75	352.08
440.13	354.55
440.50	356.86
440.87	358.68
441.24	360.56
441.61	362.66
441.98	364.10
442.35	365.87
442.72	367.72
443.09	369.50
443.46	370.50
443.83	371.13
444.20	371.61
444.57	372.45
444.94	372.78
445.31	373.19
445.68	373.56
446.05	373.70
446.42	373.30
446.79	372.89
447.16	372.46
447.53	372.17
447.90	371.02
448.27	369.88
448.64	368.32
449.01	367.22
449.37	365.30
449.74	363.52
450.11	361.27
450.48	358.82
450.85	356.32
451.22	354.20
451.59	352.22
451.96	350.34
452.33	347.73
452.70	345.37
453.07	342.51
453.43	339.64
453.80	336.92
454.17	334.26
454.54	331.74
454.91	329.11
455.28	326.44
455.65	323.98
456.02	321.52
456.38	319.40
456.75	316.78
457.12	314.54
457.49	312.28
457.86	310.16
458.23	308.30
458.59	306.27
458.96	304.17
459.33	302.28
459.70	300.42
460.07	298.92
460.43	297.19
460.80	295.60
461.17	294.18
461.54	292.66
461.91	291.25
462.27	289.82
462.64	288.53
463.01	287.21
463.38	285.91
463.74	284.56
464.11	283.44
464.48	282.45
464.85	281.35
465.21	280.49
465.58	279.57
465.95	278.52
466.32	277.62
466.68	276.78
467.05	275.93
467.42	275.07
467.78	274.20
468.15	273.37
468.52	272.75
468.88	271.94
469.25	271.19
469.62	270.63
469.98	269.97
470.35	269.38
470.72	268.80
471.08	268.16
471.45	267.66
471.82	267.11
472.18	266.48
472.55	266.05
472.92	265.56
473.28	265.11
473.65	264.67
474.02	264.25
474.38	263.84
474.75	263.53
475.11	263.22
475.48	262.94
475.85	262.71
476.21	262.44
476.58	262.24
476.94	262.07
477.31	261.85
477.67	261.71
478.04	261.57
478.41	261.48
478.77	261.57
479.14	261.52
479.50	261.54
479.87	261.62
480.23	261.71
480.60	261.81
480.96	261.94
481.33	262.15
481.69	262.35
482.06	262.61
482.42	262.77
482.79	263.02
483.15	263.35
483.52	263.74
483.88	264.12
484.25	264.51
484.61	264.97
484.98	265.47
485.34	266.08
485.71	266.68
486.07	267.28
486.44	267.81
486.80	268.49
487.17	269.21
487.53	270.04
487.90	270.90
488.26	271.84
488.62	272.82
488.99	273.77
489.35	274.79
489.72	275.91
490.08	277.09
490.44	278.31
490.81	279.63
491.17	280.93
491.54	282.40
491.90	283.90
492.26	285.56
492.63	287.28
492.99	289.00
493.36	290.90
493.72	292.93
494.08	295.04
494.45	297.33
494.81	299.69
495.17	302.07
495.54	304.66
495.90	307.30
496.26	310.07
496.63	312.99
496.99	316.08
497.35	319.27
497.72	322.65
498.08	326.16
498.44	329.82
498.80	333.76
499.17	337.78
499.53	341.91
499.89	346.20
500.26	350.65
500.62	355.28
500.98	360.18
501.34	365.27
501.71	370.56
502.07	375.89
502.43	381.41
502.79	387.26
503.16	393.26
503.52	399.48
503.88	405.83
504.24	412.48
504.60	419.27
504.97	426.37
505.33	433.66
505.69	441.29
506.05	448.96
506.41	456.74
506.78	464.79
507.14	473.15
507.50	481.79
507.86	490.72
508.22	499.80
508.59	508.91
508.95	518.41
509.31	528.08
509.67	538.06
510.03	548.23
510.39	558.58
510.75	569.19
511.12	579.89
511.48	590.97
511.84	602.22
512.20	613.61
512.56	625.38
512.92	637.41
513.28	649.66
513.64	661.99
514.00	674.47
514.37	687.21
514.73	700.11
515.09	712.98
515.45	726.05
515.81	739.49
516.17	753.24
516.53	767.06
516.89	780.92
517.25	794.91
517.61	809.04
517.97	823.30
518.33	837.54
518.69	852.16
519.05	866.88
519.41	881.76
519.77	897.03
520.13	912.16
520.49	927.19
520.85	942.11
521.21	957.49
521.57	973.45
521.93	988.89
522.29	1004.89
522.65	1020.78
523.01	1036.63
523.37	1052.26
523.73	1068.11
524.09	1083.90
524.45	1099.78
524.81	1115.95
525.17	1132.43
525.53	1148.83
525.89	1165.27
526.25	1181.65
526.61	1197.73
526.97	1214.14
527.33	1230.18
527.68	1246.34
528.04	1262.47
528.40	1278.63
528.76	1295.26
529.12	1311.44
529.48	1327.87
529.84	1343.51
530.20	1359.68
530.56	1376.25
530.91	1393.14
531.27	1409.50
531.63	1425.48
531.99	1441.71
532.35	1457.37
532.71	1472.96
533.07	1488.85
533.42	1504.41
533.78	1520.23
534.14	1536.14
534.50	1551.16
534.86	1566.54
535.21	1581.33
535.57	1596.75
535.93	1611.97
536.29	1626.33
536.65	1640.93
537.00	1655.32
537.36	1670.26
537.72	1684.42
538.08	1698.59
538.44	1712.05
538.79	1725.58
539.15	1738.81
539.51	1752.10
539.87	1765.99
540.22	1779.30
540.58	1792.73
540.94	1805.63
541.29	1817.92
541.65	1830.22
542.01	1843.02
542.37	1855.24
542.72	1867.50
543.08	1879.10
543.44	1891.29
543.79	1902.43
544.15	1913.28
544.51	1924.63
544.87	1935.26
545.22	1945.91
545.58	1955.88
545.94	1965.60
546.29	1975.27
546.65	1985.22
547.01	1994.52
547.36	2003.09
547.72	2011.43
548.07	2019.34
548.43	2027.35
548.79	2035.29
549.14	2042.73
549.50	2049.82
549.86	2057.23
550.21	2064.37
550.57	2071.46
550.92	2077.86
551.28	2084.72
551.64	2091.69
551.99	2098.11
552.35	2104.33
552.70	2110.55
553.06	2116.47
553.41	2122.66
553.77	2128.63
554.13	2134.46
554.48	2140.51
554.84	2146.14
555.19	2151.24
555.55	2156.31
555.90	2160.89
556.26	2165.85
556.61	2170.58
556.97	2175.12
557.32	2179.23
557.68	2183.47
558.03	2187.61
558.39	2191.30
558.74	2195.91
559.10	2199.82
559.45	2203.51
559.81	2207.74
560.16	2211.39
560.52	2214.70
560.87	2218.15
561.23	2220.85
561.58	2223.85
561.94	2226.39
562.29	2228.71
562.64	2231.67
563.00	2234.19
563.35	2237.69
563.71	2240.91
564.06	2243.94
564.42	2246.79
564.77	2249.60
565.12	2251.95
565.48	2254.04
565.83	2256.17
566.19	2257.75
566.54	2258.57
566.89	2259.90
567.25	2260.75
567.60	2262.22
567.96	2264.10
568.31	2265.06
568.66	2266.46
569.02	2267.29
569.37	2267.86
569.72	2268.88
570.08	2269.28
570.43	2269.62
570.78	2269.37
571.14	2268.04
571.49	2267.12
571.84	2266.97
572.20	2265.90
572.55	2265.03
572.90	2263.64
573.26	2262.38
573.61	2260.68
573.96	2259.46
574.31	2256.71
574.67	2253.89
575.02	2250.45
575.37	2247.27
575.72	2243.75
576.08	2240.42
576.43	2237.17
576.78	2233.80
577.13	2230.81
577.49	2227.76
577.84	2224.36
578.19	2220.71
578.54	2217.42
578.90	2213.49
579.25	2208.19
579.60	2203.64
579.95	2199.03
580.30	2194.31
580.66	2189.38
581.01	2184.73
581.36	2179.95
581.71	2176.16
582.06	2172.05
582.42	2167.91
582.77	2162.89
583.12	2158.67
583.47	2154.34
583.82	2149.70
584.17	2144.68
584.53	2139.39
584.88	2134.06
585.23	2128.60
585.58	2123.40
585.93	2118.02
586.28	2113.41
586.63	2108.56
586.98	2103.62
587.34	2098.92
587.69	2094.16
588.04	2089.21
588.39	2083.74
588.74	2077.49
589.09	2071.34
589.44	2064.67
589.79	2058.79
590.14	2053.25
590.49	2046.89
590.84	2040.57
591.19	2034.70
591.54	2028.53
591.89	2021.65
592.25	2015.09
592.60	2008.08
592.95	2000.80
593.30	1993.71
593.65	1986.31
594.00	1979.50
594.35	1972.45
594.70	1964.67
595.05	1957.96
595.40	1950.73
595.75	1943.62
596.10	1937.69
596.45	1931.29
596.80	1925.54
597.15	1919.11
597.50	1912.47
597.85	1906.11
598.19	1899.68
598.54	1892.93
598.89	1886.42
599.24	1880.51
599.59	1874.06
599.94	1867.94
600.29	1861.78
600.64	1855.36
600.99	1848.18
601.34	1841.53
601.69	1834.66
602.04	1828.04
602.39	1820.66
602.74	1814.10
603.08	1807.40
603.43	1800.69
603.78	1793.46
604.13	1786.27
604.48	1779.28
604.83	1772.47
605.18	1765.73
605.53	1758.05
605.87	1750.10
606.22	1742.87
606.57	1735.10
606.92	1727.81
607.27	1720.88
607.62	1714.08
607.96	1706.99
608.31	1700.56
608.66	1693.09
609.01	1685.84
609.36	1678.32
609.70	1670.52
610.05	1662.60
610.40	1654.98
610.75	1646.88
611.10	1639.39
611.44	1631.05
611.79	1623.14
612.14	1614.55
612.49	1605.46
612.83	1597.04
613.18	1588.98
613.53	1580.98
613.88	1572.50
614.22	1564.29
614.57	1555.67
614.92	1547.64
615.27	1540.19
615.61	1531.91
615.96	1523.86
616.31	1516.20
616.65	1508.90
617.00	1501.40
617.35	1493.68
617.70	1485.46
618.04	1476.98
618.39	1468.67
618.74	1461.11
619.08	1452.74
619.43	1445.09
619.78	1438.18
620.12	1431.10
620.47	1423.66
620.82	1415.58
621.16	1408.12
621.51	1400.59
621.85	1393.12
622.20	1384.64
622.55	1376.29
622.89	1368.45
623.24	1360.89
623.59	1353.44
623.93	1345.95
624.28	1338.74
624.62	1331.39
624.97	1324.26
625.32	1317.43
625.66	1310.53
626.01	1303.46
626.35	1296.24
626.70	1288.58
627.04	1281.02
627.39	1273.29
627.73	1265.93
628.08	1259.06
628.43	1251.99
628.77	1244.61
629.12	1236.98
629.46	1229.83
629.81	1222.30
630.15	1215.04
630.50	1207.69
630.84	1199.63
631.19	1191.72
631.53	1184.17
631.88	1176.66
632.22	1169.03
632.57	1161.82
632.91	1154.32
633.26	1146.99
633.60	1139.45
633.95	1132.33
634.29	1125.27
634.64	1118.62
634.98	1111.24
635.32	1104.06
635.67	1097.31
636.01	1090.78
636.36	1084.24
636.70	1077.80
637.05	1071.30
637.39	1065.00
637.73	1058.58
638.08	1052.68
638.42	1046.69
638.77	1040.37
639.11	1033.77
639.45	1027.48
639.80	1020.88
640.14	1014.52
640.49	1007.96
640.83	1001.68
641.17	995.64
641.52	989.27
641.86	982.76
642.20	977.03
642.55	970.75
642.89	964.36
643.23	957.80
643.58	951.96
643.92	945.78
644.26	939.85
644.61	933.67
644.95	927.68
645.29	921.16
645.64	914.48
645.98	908.15
646.32	902.20
646.66	896.19
647.01	890.46
647.35	884.83
647.69	879.04
648.04	873.58
648.38	867.74
648.72	861.92
649.06	855.99
649.41	850.09
649.75	844.26
650.09	838.37
650.43	832.70
650.78	826.64
651.12	820.78
651.46	815.04
651.80	809.47
652.14	804.11
652.49	798.79
652.83	793.65
653.17	788.04
653.51	782.50
653.85	777.14
654.20	771.50
654.54	765.54
654.88	759.80
655.22	753.99
655.56	748.34
655.90	742.84
656.25	737.62
656.59	732.27
656.93	727.20
657.27	722.14
657.61	716.66
657.95	711.52
658.29	706.43
658.64	701.19
658.98	695.92
659.32	690.46
659.66	685.32
660.00	680.10
660.34	675.18
660.68	670.31
661.02	665.29
661.36	660.56
661.70	656.05
662.05	651.70
662.39	647.38
662.73	642.93
663.07	638.60
663.41	634.13
663.75	629.64
664.09	625.06
664.43	620.67
664.77	616.64
665.11	612.43
665.45	608.32
665.79	604.32
666.13	600.18
666.47	596.15
666.81	592.03
667.15	587.91
667.49	583.98
667.83	580.10
668.17	576.17
668.51	572.16
668.85	568.15
669.19	564.31
669.53	560.55
669.87	556.70
670.21	553.01
670.55	549.39
670.89	545.97
671.23	542.56
671.57	539.03
671.91	535.53
672.25	532.02
672.58	528.52
672.92	525.09
673.26	521.89
673.60	518.78
673.94	515.68
674.28	512.73
674.62	509.77
674.96	506.73
675.30	503.88
675.64	501.04
675.97	498.25
676.31	495.46
676.65	492.53
676.99	489.78
677.33	486.95
677.67	484.14
678.01	481.17
678.34	478.26
678.68	475.38
679.02	472.58
679.36	469.83
679.70	467.09
680.04	464.42
680.37	461.57
680.71	458.74
681.05	456.07
681.39	453.39
681.73	450.77
682.06	448.27
682.40	445.69
682.74	443.11
683.08	440.58
683.42	437.92
683.75	435.39
684.09	432.84
684.43	430.39
684.77	427.93
685.10	425.59
685.44	423.30
685.78	421.06
686.12	418.76
686.45	416.44
686.79	414.24
687.13	411.99
687.46	409.83
687.80	407.71
688.14	405.49
688.48	403.43
688.81	401.21
689.15	399.09
689.49	396.97
689.82	394.89
690.16	392.77
690.50	390.84
690.83	388.93
691.17	387.01
691.51	385.11
691.84	383.29
692.18	381.39
692.52	379.41
692.85	377.41
693.19	375.54
693.52	373.71
693.86	371.90
694.20	370.09
694.53	368.33
694.87	366.48
695.21	364.74
695.54	362.97
695.88	361.21
696.21	359.47
696.55	357.83
696.88	356.18
697.22	354.55
697.56	352.95
697.89	351.29
698.23	349.69
698.56	348.05
698.90	346.49
699.23	344.82
699.57	343.29
699.90	341.78
700.24	340.25
700.58	338.78
700.91	337.30
701.25	335.84
701.58	334.46
701.92	333.09
702.25	331.73
702.59	330.38
702.92	329.08
703.26	327.78
703.59	326.48
703.93	325.25
704.26	324.02
704.60	322.68
704.93	321.40
705.26	320.10
705.60	318.91
705.93	317.73
706.27	316.69
706.60	315.61
706.94	314.52
707.27	313.40
707.61	312.30
707.94	311.23
708.27	310.16
708.61	309.09
708.94	308.08
709.28	307.10
709.61	306.09
709.94	305.12
710.28	304.11
710.61	303.11
710.95	302.01
711.28	301.13
711.61	300.20
711.95	299.33
712.28	298.42
712.61	297.48
712.95	296.55
713.28	295.69
713.61	294.78
713.95	293.91
714.28	293.09
714.61	292.24
714.95	291.40
715.28	290.60
715.61	289.69
715.95	288.81
716.28	287.93
716.61	287.10
716.95	286.27
717.28	285.50
717.61	284.76
717.94	284.08
718.28	283.23
718.61	282.53
718.94	281.81
719.27	281.14
719.61	280.49
719.94	279.82
720.27	279.08
720.60	278.39
720.94	277.77
721.27	277.17
721.60	276.56
721.93	275.97
722.27	275.41
722.60	274.91
722.93	274.34
723.26	273.83
723.59	273.27
723.93	272.74
724.26	272.18
724.59	271.61
724.92	271.05
725.25	270.55
725.59	270.00
725.92	269.50
726.25	268.99
726.58	268.53
726.91	268.03
727.24	267.59
727.57	267.14
727.91	266.60
728.24	266.11
728.57	265.64
728.90	265.16
729.23	264.65
729.56	264.18
729.89	263.69
730.22	263.19
730.55	262.73
730.89	262.27
731.22	261.84
731.55	261.39
731.88	260.98
732.21	260.54
732.54	260.14
732.87	259.72
733.20	259.31
733.53	258.91
733.86	258.54
734.19	258.09
734.52	257.71
734.85	257.40
735.18	256.99
735.51	256.63
735.84	256.26
736.17	255.93
736.50	255.55
736.83	255.35
737.16	255.01
737.49	254.64
737.82	254.30
738.15	253.98
738.48	253.64
738.81	253.30
739.14	252.96
739.47	252.64
739.80	252.32
740.13	252.02
740.46	251.68
740.79	251.33
741.12	251.05
741.45	250.73
741.78	250.38
742.11	250.10
742.44	249.76
742.77	249.47
743.10	249.16
743.43	248.85
743.75	248.48
744.08	248.37
744.41	248.12
744.74	247.84
745.07	247.53
745.40	247.30
745.73	247.07
746.06	246.82
746.39	246.55
746.71	246.30
747.04	246.03
747.37	245.77
747.70	245.54
748.03	245.27
748.36	245.06
748.68	244.82
749.01	244.57
749.34	244.37
749.67	244.14
750.00	243.93
750.33	243.76
750.65	243.53
750.98	243.15
751.31	242.95
751.64	242.78
751.97	242.65
752.29	242.41
752.62	242.18
752.95	241.96
753.28	241.78
753.60	241.56
753.93	241.40
754.26	241.19
754.59	240.95
754.91	240.77
755.24	240.55
755.57	240.38
755.90	240.21
756.22	240.00
756.55	239.80
756.88	239.62
757.20	239.44
757.53	239.23
757.86	239.08
758.19	238.89
758.51	238.71
758.84	238.50
759.17	238.35
759.49	238.21
759.82	238.11
760.15	237.93
760.47	237.78
760.80	237.59
761.13	237.45
761.45	237.33
761.78	237.18
762.11	237.07
762.43	236.93
762.76	236.78
763.08	236.67
763.41	236.54
763.74	236.38
764.06	236.22
764.39	236.09
764.71	235.94
765.04	235.84
765.37	235.71
765.69	235.55
766.02	235.41
766.34	235.28
766.67	235.13
767.00	235.03
767.32	234.98
767.65	234.95
767.97	234.86
768.30	234.76
768.62	234.67
768.95	234.51
769.27	234.42
769.60	234.34
769.92	234.22
770.25	234.11
770.57	233.99
770.90	233.88
771.22	233.75
771.55	233.66
771.87	233.58
772.20	233.45
772.52	233.47
772.85	233.50
773.17	233.38
773.50	233.30
773.82	233.14
774.15	233.04
774.47	232.88
774.80	232.76
775.12	232.66
775.45	232.55
775.77	232.50
776.09	232.36
776.42	232.28
776.74	232.20
777.07	232.14
777.39	232.09
777.72	232.05
778.04	232.01
778.36	231.93
778.69	231.82
779.01	231.78
779.33	231.62
779.66	231.43
779.98	231.37
780.31	231.23
780.63	231.27
780.95	231.19
781.28	231.11
781.60	231.03
781.92	230.98
782.25	230.91
782.57	230.83
782.89	230.81
783.22	230.73
783.54	230.67
783.86	230.61
784.19	230.57
784.51	230.47
784.83	230.40
785.16	230.34
785.48	230.30
785.80	230.25
786.12	230.19
786.45	230.15
786.77	230.12
787.09	230.11
787.42	230.05
787.74	230.01
788.06	229.99
788.38	229.95
788.71	229.89
789.03	229.89
789.35	229.86
789.67	229.78
789.99	229.75
790.32	229.71
790.64	229.69
790.96	229.69
791.28	229.67
791.61	229.65
791.93	229.62
792.25	229.58
792.57	229.61
792.89	229.56
793.21	229.55
793.54	229.50
793.86	229.44
794.18	229.38
794.50	229.35
794.82	229.31
795.14	229.26
795.47	229.28
795.79	229.24
796.11	229.19
796.43	229.16
796.75	229.13
797.07	229.10
797.39	229.07
797.71	228.97
798.04	228.96
798.36	228.88
798.68	228.89
799.00	228.89
799.32	228.79
799.64	228.77
799.96	228.74
800.28	228.72
800.60	228.71
800.92	228.68
801.24	228.64
801.56	228.62
801.89	228.60
802.21	228.55
802.53	228.51
802.85	228.51
803.17	228.56
803.49	228.54
803.81	228.47
804.13	228.40
804.45	228.37
804.77	228.34
805.09	228.31
805.41	228.26
805.73	228.22
806.05	228.17
806.37	228.16
806.69	228.10
807.01	228.08
807.33	228.06
807.65	227.99
807.97	228.02
808.28	227.98
808.60	227.93
808.92	227.89
809.24	227.91
809.56	227.86
809.88	227.80
810.20	227.75
810.52	227.77
810.84	227.73
811.16	227.68
811.48	227.65
811.80	227.70
812.12	227.66
812.43	227.61
812.75	227.61
813.07	227.55
813.39	227.54
813.71	227.50
814.03	227.47
814.35	227.42
814.67	227.34
814.98	227.30
815.30	227.28
815.62	227.25
815.94	227.17
816.26	227.19
816.58	227.13
816.89	227.13
817.21	227.08
817.53	227.08
817.85	227.10
818.17	227.07
818.48	226.98
818.80	227.00
819.12	226.97
819.44	226.91
819.76	226.90
820.07	226.91
820.39	226.87
820.71	226.83
821.03	226.83
821.34	226.81
821.66	226.80
821.98	226.84
822.30	226.82
822.61	226.88
822.93	226.77
823.25	226.80
823.57	226.75
823.88	226.76
824.20	226.77
824.52	226.74
824.83	226.72
825.15	226.69
825.47	226.66
825.79	226.66
826.10	226.66
826.42	226.64
826.74	226.62
827.05	226.60
827.37	226.62
827.69	226.65
828.00	226.66
828.32	226.66
828.64	226.61
828.95	226.64
829.27	226.57
829.58	226.60
829.90	226.59
830.22	226.59
830.53	226.57
830.85	226.52
831.17	226.52
831.48	226.52
831.80	226.55
832.11	226.53
832.43	226.54
832.75	226.54
833.06	226.62
833.38	226.59
833.69	226.59
834.01	226.55
834.32	226.53
834.64	226.53
834.96	226.53
835.27	226.54
835.59	226.51
835.90	226.52
836.22	226.47
836.53	226.46
836.85	226.45
837.16	226.55
837.48	226.58
837.79	226.62
838.11	226.59
838.42	226.56
838.74	226.60
839.05	226.55
839.37	226.55
839.68	226.47
840.00	226.46
840.31	226.50
840.63	226.49
840.94	226.49
841.26	226.46
841.57	226.43
841.88	226.42
842.20	226.39
842.51	226.38
842.83	226.42
843.14	226.49
843.46	226.51
843.77	226.41
844.08	226.41
844.40	226.34
844.71	226.34
845.03	226.33
845.34	226.28
845.65	226.28
845.97	226.30
846.28	226.31
846.60	226.31
846.91	226.27
847.22	226.23
847.54	226.24
847.85	226.25
848.16	226.24
848.48	226.23
848.79	226.26
849.10	226.24
849.42	226.24
849.73	226.15
850.04	226.12
850.36	226.10
850.67	226.08
850.98	226.08
851.30	226.09
851.61	226.10
851.92	226.06
852.23	226.07
852.55	226.06
852.86	226.06
853.17	226.05
853.49	226.08
853.80	226.13
854.11	226.12
854.42	226.11
854.74	226.11
855.05	226.08
855.36	226.02
855.67	226.02
855.99	226.01
856.30	226.12
856.61	226.11
856.92	226.10
857.23	226.09
857.55	226.09
857.86	226.08
858.17	226.09
858.48	226.09
858.79	226.09
859.11	226.07
859.42	226.04
859.73	226.02
860.04	225.99
860.35	225.96
860.66	225.93
860.98	225.92
861.29	225.90
861.60	225.88
861.91	225.92
862.22	225.94
862.53	225.91
862.84	225.80
863.16	225.81
863.47	225.79
863.78	225.78
864.09	225.77
864.40	225.75
864.71	225.73
865.02	225.74
865.33	225.72
865.64	225.69
865.95	225.69
866.27	225.73
866.58	225.74
866.89	225.74
867.20	225.72
867.51	225.70
867.82	225.69
868.13	225.73
868.44	225.68
868.75	225.68
869.06	225.69
869.37	225.68
869.68	225.65
869.99	225.66
870.30	225.66
870.61	225.68
870.92	225.67
871.23	225.66
871.54	225.67
871.85	225.70
872.16	225.72
872.47	225.74
872.78	225.69
873.09	225.71
873.40	225.72
873.71	225.75
874.02	225.74
874.33	225.75
874.64	225.73
874.95	225.75
875.26	225.71
875.56	225.68
875.87	225.68
876.18	225.69
876.49	225.78
876.80	225.79
877.11	225.77
877.42	225.76
877.73	225.79
878.04	225.76
878.35	225.75
878.66	225.74
878.96	225.73
879.27	225.72
879.58	225.68
879.89	225.63
880.20	225.65
880.51	225.65
880.82	225.67
881.12	225.67
881.43	225.67
881.74	225.65
882.05	225.66
882.36	225.64
882.67	225.61
882.97	225.52
883.28	225.48
883.59	225.45
883.90	225.47
884.21	225.45
884.51	225.43
884.82	225.43
885.13	225.41
885.44	225.39
885.74	225.38
886.05	225.37
886.36	225.40
886.67	225.35
886.98	225.39
887.28	225.38
887.59	225.35
887.90	225.32
888.20	225.33
888.51	225.33
888.82	225.32
889.13	225.36
889.43	225.41
889.74	225.42
890.05	225.41
890.35	225.42
890.66	225.37
890.97	225.37
891.28	225.34
891.58	225.32
891.89	225.33
892.20	225.29
892.50	225.28
892.81	225.24
893.12	225.22
893.42	225.18
893.73	225.14
894.04	225.16
894.34	225.18
894.65	225.17
894.95	225.17
895.26	225.17
895.57	225.18
895.87	225.10
896.18	225.12
896.48	225.15
896.79	225.14
897.10	225.18
897.40	225.21
897.71	225.21
898.01	225.22
898.32	225.24
898.63	225.27
898.93	225.28
899.24	225.31
899.54	225.33
899.85	225.34
900.15	225.34
900.46	225.37
900.76	225.38
901.07	225.38
901.38	225.38
901.68	225.42
901.99	225.40
902.29	225.42
902.60	225.42
902.90	225.43
903.21	225.44
903.51	225.42
903.82	225.44
904.12	225.46
904.43	225.48
904.73	225.43
905.03	225.44
905.34	225.55
905.64	225.54
905.95	225.51
906.25	225.52
906.56	225.53
906.86	225.49
907.17	225.48
907.47	225.49
907.77	225.50
908.08	225.49
908.38	225.50
908.69	225.52
908.99	225.52
909.30	225.53
909.60	225.53
909.90	225.50
910.21	225.46
910.51	225.42
910.81	225.43
911.12	225.45
911.42	225.44
911.73	225.31
912.03	225.31
912.33	225.36
912.64	225.32
912.94	225.32
913.24	225.31
913.55	225.31
913.85	225.31
914.15	225.31
914.46	225.29
914.76	225.26
915.06	225.24
915.37	225.27
915.67	225.25
915.97	225.26
916.27	225.29
916.58	225.30
916.88	225.31
917.18	225.32
917.49	225.42
917.79	225.43
918.09	225.45
918.39	225.50
918.70	225.50
919.00	225.51
919.30	225.58
919.60	225.60
919.91	225.56
920.21	225.55
920.51	225.52
920.81	225.53
921.12	225.58
921.42	225.56
921.72	225.55
922.02	225.53
922.32	225.55
922.63	225.55
922.93	225.59
923.23	225.59
923.53	225.58
923.83	225.49
924.13	225.50
924.44	225.50
924.74	225.51
925.04	225.52
925.34	225.52
925.64	225.48
925.94	225.50
926.24	225.56
926.55	225.57
926.85	225.60
927.15	225.56
927.45	225.53
927.75	225.53
928.05	225.52
928.35	225.54
928.65	225.56
928.95	225.56
929.26	225.53
929.56	225.54
929.86	225.55
930.16	225.54
930.46	225.54
930.76	225.55
931.06	225.52
931.36	225.51
931.66	225.55
931.96	225.51
932.26	225.51
932.56	225.48
932.86	225.48
933.16	225.49
933.46	225.49
933.76	225.49
934.06	225.51
934.36	225.54
934.66	225.53
934.96	225.47
935.26	225.49
935.56	225.50
935.86	225.49
936.16	225.48
936.46	225.47
936.76	225.45
937.06	225.45
937.36	225.45
937.66	225.44
937.96	225.44
938.26	225.46
938.56	225.45
938.86	225.45
939.16	225.46
939.46	225.44
939.76	225.46
940.06	225.44
940.35	225.44
940.65	225.36
940.95	225.38
941.25	225.37
941.55	225.35
941.85	225.35
942.15	225.37
942.45	225.37
942.75	225.39
943.04	225.38
943.34	225.40
943.64	225.35
943.94	225.32
944.24	225.32
944.54	225.29
944.84	225.25
945.13	225.27
945.43	225.25
945.73	225.25
946.03	225.25
946.33	225.23
946.62	225.21
946.92	225.22
947.22	225.20
947.52	225.19
947.82	225.21
948.11	225.20
948.41	225.16
948.71	225.11
949.01	225.11
949.31	225.12
949.60	225.08
949.90	225.10
950.20	225.08
950.50	225.05
950.79	225.03
951.09	225.06
951.39	225.03
951.69	225.03
951.98	225.06
952.28	225.06
952.58	225.08
952.87	225.10
953.17	225.11
953.47	225.09
953.76	225.06
954.06	225.02
954.36	225.01
954.66	225.05
954.95	225.11
955.25	225.08
955.55	225.09
955.84	225.12
956.14	225.13
956.44	225.15
956.73	225.13
957.03	225.18
957.32	225.16
957.62	225.16
957.92	225.16
958.21	225.12
958.51	225.19
958.81	225.20
959.10	225.19
959.40	225.19
959.69	225.22
959.99	225.25
960.29	225.24
960.58	225.24
960.88	225.25
961.17	225.21
961.47	225.23
961.76	225.20
962.06	225.20
962.36	225.20
962.65	225.23
962.95	225.27
963.24	225.25
963.54	225.25
963.83	225.28
964.13	225.28
964.42	225.28
964.72	225.20
965.01	225.19
965.31	225.18
965.60	225.17
965.90	225.21
966.19	225.17
966.49	225.18
966.78	225.18
967.08	225.18
967.37	225.19
967.67	225.16
967.96	225.20
968.26	225.20
968.55	225.18
968.85	225.18
969.14	225.16
969.43	225.17
969.73	225.18
970.02	225.15
970.32	225.15
970.61	225.16
970.91	225.18
971.20	225.20
971.49	225.19
971.79	225.21
972.08	225.16
972.38	225.20
972.67	225.23
972.96	225.21
973.26	225.17
973.55	225.20
973.85	225.21
974.14	225.17
974.43	225.17
974.73	225.18
975.02	225.11
975.31	225.09
975.61	225.08
975.90	225.09
976.19	225.06
976.49	225.09
976.78	225.08
977.07	225.03
977.37	224.99
977.66	225.06
977.95	225.02
978.24	225.03
978.54	225.05
978.83	224.99
979.12	225.02
979.42	225.00
979.71	225.00
980.00	225.00
980.29	225.03
980.59	225.00
980.88	225.00
981.17	225.04
981.46	225.07
981.76	225.08
982.05	225.11
982.34	225.19
982.63	225.15
982.93	225.17
983.22	225.24
983.51	225.27
983.80	225.25
984.09	225.27
984.39	225.24
984.68	225.24
984.97	225.28
985.26	225.24
985.55	225.28
985.85	225.25
986.14	225.28
986.43	225.30
986.72	225.29
987.01	225.27
987.30	225.26
987.59	225.25
987.89	225.26
988.18	225.19
988.47	225.13
988.76	225.16
989.05	225.14
989.34	225.07
989.63	225.09
989.92	225.06
990.22	225.06
990.51	225.07
990.80	225.04
991.09	225.02
991.38	225.05
991.67	225.05
991.96	225.04
992.25	225.04
992.54	225.02
992.83	225.05
993.12	225.05
993.41	225.06
993.70	225.10
993.99	225.10
994.28	225.10
994.58	225.18
994.87	225.12
995.16	225.11
995.45	225.14
995.74	225.11
996.03	225.13
996.32	225.17
996.61	225.18
996.90	225.16
997.19	225.15
997.48	225.14
997.77	225.08
998.06	225.12
998.34	225.10
998.63	225.10
998.92	225.10
999.21	225.12
999.50	225.11
999.79	225.07
1000.08	225.08
1000.37	225.08
1000.66	225.01
1000.95	225.04
1001.24	225.04
1001.53	225.02
1001.82	224.99
1002.11	224.97
1002.40	224.93
1002.68	224.96
1002.97	225.06
1003.26	225.07
1003.55	225.11
1003.84	225.15
1004.13	225.16
1004.42	225.17
1004.71	225.15
1004.99	225.15
1005.28	225.17
1005.57	225.18
1005.86	225.16
1006.15	225.16
1006.44	225.15
1006.72	225.20
1007.01	225.21
1007.30	225.24
1007.59	225.22
1007.88	225.26
1008.17	225.28
1008.45	225.30
1008.74	225.30
1009.03	225.23
1009.32	225.23
1009.60	225.20
1009.89	225.19
1010.18	225.15
1010.47	225.12
1010.76	225.12
1011.04	225.10
1011.33	225.11
1011.62	225.11
1011.91	225.12
1012.19	225.10
1012.48	225.11
1012.77	225.11
1013.05	225.12
1013.34	225.12
1013.63	225.10
1013.92	225.09
1014.20	225.08
1014.49	225.04
1014.78	225.02
1015.06	225.00
1015.35	225.03
1015.64	225.01
1015.92	225.01
1016.21	225.00
1016.50	224.99
1016.78	225.02
1017.07	225.06
1017.36	225.01
1017.64	224.98
1017.93	225.01
1018.22	224.99
1018.50	225.00
1018.79	224.99
1019.08	224.93
1019.36	224.91
1019.65	224.89
1019.93	224.94
1020.22	224.96
1020.51	225.03
1020.79	225.01
1021.08	224.15
1021.36	225.14
1021.65	225.19
1021.94	224.60
1022.22	224.78
1022.51	224.08
1022.79	225.96
1023.08	225.12
1023.36	226.23
1023.65	225.02
>>>>>End Processed Spectral Data<<<<<
