SpectraSuite Data File
++++++++++++++++++++++++++++++++++++
Date: Fri Feb 01 17:29:00 EST 2013
User: group
Dark Spectrum Present: No
Reference Spectrum Present: No
Number of Sampled Component Spectra: 1
Spectrometers: USB2E7196
Integration Time (usec): 35000 (USB2E7196)
Spectra Averaged: 100 (USB2E7196)
Boxcar Smoothing: 10 (USB2E7196)
Correct for Electrical Dark: No (USB2E7196)
Strobe/Lamp Enabled: No (USB2E7196)
Correct for Detector Non-linearity: No (USB2E7196)
Correct for Stray Light: No (USB2E7196)
Number of Pixels in Processed Spectrum: 2048
>>>>>Begin Processed Spectral Data<<<<<
339.09	0.00
339.48	212.56
339.86	214.57
340.24	215.59
340.63	217.68
341.01	220.08
341.39	220.24
341.78	220.99
342.16	222.24
342.54	222.84
342.93	211.52
343.31	222.22
343.69	222.80
344.07	223.27
344.46	223.71
344.84	224.08
345.22	224.32
345.60	224.53
345.99	224.72
346.37	224.84
346.75	224.95
347.13	225.00
347.52	225.04
347.90	225.08
348.28	225.13
348.66	225.18
349.05	225.20
349.43	225.25
349.81	225.31
350.19	225.31
350.57	225.35
350.96	225.41
351.34	225.48
351.72	225.53
352.10	225.61
352.48	225.66
352.87	225.73
353.25	225.79
353.63	225.87
354.01	225.96
354.39	226.05
354.77	226.12
355.15	226.23
355.54	226.29
355.92	226.35
356.30	226.39
356.68	226.52
357.06	226.55
357.44	226.57
357.82	226.62
358.20	226.69
358.58	226.73
358.97	226.79
359.35	226.87
359.73	226.96
360.11	227.01
360.49	227.10
360.87	227.10
361.25	227.17
361.63	227.22
362.01	227.23
362.39	227.26
362.77	227.31
363.15	227.34
363.53	227.36
363.91	227.39
364.29	227.43
364.67	227.35
365.05	227.37
365.43	227.39
365.81	227.39
366.19	227.46
366.57	227.49
366.95	227.47
367.33	227.46
367.71	227.45
368.09	227.48
368.47	227.44
368.85	227.44
369.23	227.41
369.61	227.36
369.99	227.37
370.37	227.36
370.75	227.34
371.13	227.28
371.51	227.24
371.89	227.22
372.27	227.18
372.65	227.15
373.03	227.12
373.41	227.07
373.78	227.01
374.16	226.88
374.54	226.80
374.92	226.76
375.30	226.67
375.68	226.60
376.06	226.54
376.44	226.50
376.82	226.45
377.19	226.41
377.57	226.34
377.95	226.24
378.33	226.19
378.71	226.08
379.09	226.05
379.47	226.00
379.84	225.93
380.22	225.83
380.60	225.73
380.98	225.66
381.36	225.60
381.73	225.54
382.11	225.54
382.49	225.49
382.87	225.41
383.25	225.35
383.62	225.39
384.00	225.29
384.38	225.22
384.76	225.19
385.13	225.16
385.51	225.17
385.89	225.11
386.27	225.06
386.64	225.05
387.02	225.00
387.40	224.95
387.78	224.91
388.15	224.91
388.53	224.89
388.91	224.85
389.29	224.82
389.66	224.78
390.04	224.69
390.42	224.68
390.79	224.65
391.17	224.64
391.55	224.51
391.92	224.53
392.30	224.51
392.68	224.45
393.05	224.40
393.43	224.37
393.81	224.39
394.18	224.38
394.56	224.36
394.94	224.38
395.31	224.39
395.69	224.45
396.06	224.47
396.44	224.51
396.82	224.55
397.19	224.65
397.57	224.67
397.95	224.71
398.32	224.74
398.70	224.83
399.07	224.89
399.45	224.92
399.82	224.96
400.20	225.01
400.58	225.11
400.95	225.18
401.33	225.26
401.70	225.38
402.08	225.47
402.45	225.58
402.83	225.68
403.20	225.74
403.58	225.79
403.95	225.90
404.33	226.00
404.71	226.12
405.08	226.27
405.46	226.44
405.83	226.61
406.21	226.77
406.58	226.91
406.96	227.07
407.33	227.26
407.70	227.44
408.08	227.72
408.45	227.91
408.83	228.12
409.20	228.31
409.58	228.46
409.95	228.73
410.33	228.96
410.70	229.21
411.08	229.52
411.45	229.85
411.82	230.16
412.20	230.54
412.57	230.95
412.95	231.23
413.32	231.64
413.69	232.05
414.07	232.47
414.44	232.98
414.82	233.53
415.19	234.10
415.56	234.70
415.94	235.25
416.31	235.95
416.68	236.60
417.06	237.38
417.43	238.13
417.81	238.94
418.18	239.79
418.55	240.67
418.93	241.63
419.30	242.58
419.67	243.58
420.04	244.53
420.42	245.57
420.79	246.84
421.16	248.05
421.54	249.31
421.91	250.56
422.28	251.85
422.66	253.20
423.03	254.55
423.40	255.92
423.77	257.41
424.15	258.89
424.52	260.45
424.89	262.13
425.26	263.72
425.64	265.21
426.01	266.84
426.38	268.55
426.75	270.29
427.13	272.06
427.50	273.94
427.87	275.95
428.24	277.86
428.61	279.64
428.99	281.68
429.36	283.83
429.73	285.97
430.10	288.07
430.47	290.24
430.85	292.44
431.22	294.77
431.59	297.25
431.96	299.55
432.33	302.11
432.70	304.60
433.08	307.56
433.45	310.34
433.82	313.06
434.19	316.04
434.56	318.92
434.93	321.66
435.30	324.39
435.68	327.36
436.05	330.31
436.42	333.22
436.79	335.85
437.16	338.68
437.53	341.63
437.90	344.55
438.27	347.37
438.64	350.32
439.01	353.03
439.38	355.33
439.75	357.61
440.13	360.20
440.50	362.60
440.87	364.48
441.24	366.47
441.61	368.72
441.98	370.26
442.35	372.18
442.72	374.14
443.09	375.97
443.46	377.04
443.83	377.68
444.20	378.23
444.57	379.12
444.94	379.43
445.31	379.83
445.68	380.24
446.05	380.30
446.42	379.89
446.79	379.43
447.16	379.00
447.53	378.65
447.90	377.47
448.27	376.27
448.64	374.69
449.01	373.56
449.37	371.52
449.74	369.57
450.11	367.20
450.48	364.66
450.85	362.11
451.22	359.90
451.59	357.80
451.96	355.80
452.33	353.08
452.70	350.63
453.07	347.65
453.43	344.62
453.80	341.77
454.17	339.01
454.54	336.40
454.91	333.58
455.28	330.81
455.65	328.25
456.02	325.68
456.38	323.43
456.75	320.66
457.12	318.30
457.49	316.03
457.86	313.79
458.23	311.82
458.59	309.68
458.96	307.47
459.33	305.57
459.70	303.65
460.07	302.05
460.43	300.25
460.80	298.55
461.17	297.07
461.54	295.50
461.91	294.01
462.27	292.51
462.64	291.22
463.01	289.80
463.38	288.46
463.74	287.08
464.11	285.89
464.48	284.80
464.85	283.69
465.21	282.81
465.58	281.87
465.95	280.75
466.32	279.79
466.68	278.86
467.05	277.92
467.42	276.99
467.78	276.02
468.15	275.17
468.52	274.51
468.88	273.60
469.25	272.83
469.62	272.22
469.98	271.51
470.35	270.85
470.72	270.26
471.08	269.60
471.45	269.02
471.82	268.46
472.18	267.85
472.55	267.39
472.92	266.82
473.28	266.36
473.65	265.91
474.02	265.44
474.38	265.07
474.75	264.71
475.11	264.32
475.48	264.05
475.85	263.74
476.21	263.50
476.58	263.33
476.94	263.18
477.31	263.00
477.67	262.86
478.04	262.75
478.41	262.68
478.77	262.70
479.14	262.61
479.50	262.65
479.87	262.70
480.23	262.77
480.60	262.86
480.96	262.94
481.33	263.15
481.69	263.38
482.06	263.55
482.42	263.76
482.79	264.01
483.15	264.34
483.52	264.75
483.88	265.10
484.25	265.50
484.61	265.88
484.98	266.32
485.34	266.86
485.71	267.44
486.07	268.02
486.44	268.54
486.80	269.22
487.17	269.90
487.53	270.69
487.90	271.51
488.26	272.40
488.62	273.38
488.99	274.33
489.35	275.34
489.72	276.47
490.08	277.66
490.44	278.88
490.81	280.19
491.17	281.55
491.54	283.00
491.90	284.51
492.26	286.18
492.63	287.90
492.99	289.69
493.36	291.60
493.72	293.63
494.08	295.76
494.45	298.02
494.81	300.40
495.17	302.85
495.54	305.41
495.90	308.10
496.26	310.86
496.63	313.81
496.99	316.92
497.35	320.18
497.72	323.57
498.08	327.09
498.44	330.75
498.80	334.65
499.17	338.69
499.53	342.77
499.89	347.14
500.26	351.63
500.62	356.24
500.98	361.07
501.34	366.10
501.71	371.39
502.07	376.78
502.43	382.33
502.79	388.07
503.16	394.08
503.52	400.25
503.88	406.54
504.24	413.04
504.60	419.78
504.97	426.82
505.33	433.96
505.69	441.58
506.05	449.24
506.41	456.94
506.78	464.93
507.14	473.29
507.50	481.81
507.86	490.62
508.22	499.67
508.59	508.69
508.95	518.00
509.31	527.54
509.67	537.38
510.03	547.45
510.39	557.80
510.75	568.36
511.12	579.06
511.48	590.15
511.84	601.39
512.20	612.64
512.56	624.21
512.92	636.13
513.28	648.16
513.64	660.26
514.00	672.68
514.37	685.37
514.73	698.08
515.09	710.76
515.45	723.77
515.81	737.04
516.17	750.63
516.53	764.40
516.89	778.27
517.25	792.06
517.61	806.09
517.97	820.15
518.33	834.22
518.69	848.56
519.05	863.08
519.41	877.83
519.77	892.92
520.13	908.03
520.49	923.06
520.85	937.90
521.21	953.16
521.57	968.95
521.93	984.21
522.29	1000.16
522.65	1015.98
523.01	1031.63
523.37	1047.06
523.73	1062.76
524.09	1078.41
524.45	1094.24
524.81	1110.49
525.17	1126.79
525.53	1143.15
525.89	1159.51
526.25	1175.94
526.61	1191.85
526.97	1208.07
527.33	1224.14
527.68	1240.21
528.04	1256.16
528.40	1272.31
528.76	1288.89
529.12	1304.91
529.48	1321.36
529.84	1336.76
530.20	1352.90
530.56	1369.48
530.91	1386.42
531.27	1402.86
531.63	1418.87
531.99	1434.95
532.35	1450.43
532.71	1466.01
533.07	1481.80
533.42	1497.31
533.78	1513.01
534.14	1528.95
534.50	1543.93
534.86	1559.35
535.21	1574.14
535.57	1589.63
535.93	1604.83
536.29	1619.32
536.65	1634.07
537.00	1648.42
537.36	1663.56
537.72	1677.67
538.08	1691.91
538.44	1705.43
538.79	1719.09
539.15	1732.49
539.51	1746.15
539.87	1760.30
540.22	1773.66
540.58	1787.24
540.94	1800.23
541.29	1812.90
541.65	1825.45
542.01	1838.59
542.37	1850.81
542.72	1863.25
543.08	1875.05
543.44	1887.35
543.79	1898.58
544.15	1909.55
544.51	1921.16
544.87	1932.11
545.22	1943.13
545.58	1953.26
545.94	1963.23
546.29	1973.20
546.65	1983.10
547.01	1992.34
547.36	2001.14
547.72	2009.81
548.07	2017.86
548.43	2026.25
548.79	2034.17
549.14	2041.92
549.50	2049.30
549.86	2057.12
550.21	2064.58
550.57	2071.96
550.92	2078.74
551.28	2085.93
551.64	2093.29
551.99	2100.10
552.35	2106.49
552.70	2112.76
553.06	2118.97
553.41	2125.47
553.77	2131.62
554.13	2138.04
554.48	2144.40
554.84	2150.33
555.19	2155.73
555.55	2161.11
555.90	2165.94
556.26	2171.38
556.61	2176.20
556.97	2181.05
557.32	2185.67
557.68	2190.09
558.03	2194.66
558.39	2198.73
558.74	2203.62
559.10	2207.70
559.45	2211.73
559.81	2216.22
560.16	2220.38
560.52	2224.02
560.87	2227.82
561.23	2230.80
561.58	2233.92
561.94	2236.87
562.29	2239.38
562.64	2242.69
563.00	2245.65
563.35	2249.49
563.71	2252.99
564.06	2256.57
564.42	2259.66
564.77	2262.54
565.12	2265.42
565.48	2267.75
565.83	2270.04
566.19	2272.00
566.54	2273.30
566.89	2274.75
567.25	2275.92
567.60	2277.64
567.96	2279.80
568.31	2281.05
568.66	2282.62
569.02	2283.72
569.37	2284.41
569.72	2285.81
570.08	2286.40
570.43	2286.93
570.78	2286.82
571.14	2285.68
571.49	2284.81
571.84	2284.91
572.20	2284.19
572.55	2283.24
572.90	2281.96
573.26	2280.95
573.61	2279.49
573.96	2278.28
574.31	2275.74
574.67	2273.20
575.02	2270.11
575.37	2266.98
575.72	2263.73
576.08	2260.55
576.43	2257.44
576.78	2254.25
577.13	2251.28
577.49	2248.32
577.84	2245.33
578.19	2241.87
578.54	2238.62
578.90	2234.93
579.25	2229.60
579.60	2224.95
579.95	2220.49
580.30	2215.97
580.66	2211.18
581.01	2206.54
581.36	2201.87
581.71	2198.05
582.06	2193.98
582.42	2189.86
582.77	2184.98
583.12	2180.59
583.47	2176.43
583.82	2172.09
584.17	2167.17
584.53	2161.98
584.88	2156.64
585.23	2151.07
585.58	2145.86
585.93	2140.61
586.28	2135.92
586.63	2131.35
586.98	2126.53
587.34	2121.99
587.69	2117.25
588.04	2112.37
588.39	2106.93
588.74	2100.69
589.09	2094.83
589.44	2088.22
589.79	2082.24
590.14	2076.98
590.49	2070.66
590.84	2064.32
591.19	2058.43
591.54	2052.08
591.89	2045.16
592.25	2038.71
592.60	2031.82
592.95	2024.64
593.30	2017.60
593.65	2010.04
594.00	2002.94
594.35	1995.99
594.70	1988.12
595.05	1981.34
595.40	1974.08
595.75	1966.85
596.10	1960.95
596.45	1954.34
596.80	1948.29
597.15	1941.92
597.50	1935.07
597.85	1928.73
598.19	1922.31
598.54	1915.38
598.89	1908.96
599.24	1903.12
599.59	1896.78
599.94	1890.54
600.29	1884.24
600.64	1877.68
600.99	1870.60
601.34	1863.96
601.69	1856.98
602.04	1850.43
602.39	1843.07
602.74	1836.49
603.08	1829.80
603.43	1823.10
603.78	1815.94
604.13	1808.72
604.48	1801.64
604.83	1794.75
605.18	1787.99
605.53	1780.23
605.87	1772.37
606.22	1765.11
606.57	1757.21
606.92	1749.54
607.27	1742.44
607.62	1735.68
607.96	1728.51
608.31	1722.12
608.66	1714.69
609.01	1707.16
609.36	1699.48
609.70	1691.56
610.05	1683.42
610.40	1675.82
610.75	1667.56
611.10	1659.80
611.44	1651.39
611.79	1643.23
612.14	1634.49
612.49	1625.20
612.83	1616.65
613.18	1608.33
613.53	1600.30
613.88	1591.64
614.22	1583.49
614.57	1574.80
614.92	1566.63
615.27	1558.96
615.61	1550.48
615.96	1542.22
616.31	1534.50
616.65	1527.04
617.00	1519.31
617.35	1511.58
617.70	1503.18
618.04	1494.64
618.39	1486.25
618.74	1478.72
619.08	1470.31
619.43	1462.64
619.78	1455.65
620.12	1448.42
620.47	1440.85
620.82	1432.46
621.16	1424.84
621.51	1417.11
621.85	1409.37
622.20	1400.71
622.55	1392.31
622.89	1384.24
623.24	1376.55
623.59	1369.02
623.93	1361.43
624.28	1354.08
624.62	1346.45
624.97	1339.13
625.32	1332.12
625.66	1325.01
626.01	1317.74
626.35	1310.46
626.70	1302.51
627.04	1294.79
627.39	1286.86
627.73	1279.39
628.08	1272.41
628.43	1265.20
628.77	1257.73
629.12	1250.07
629.46	1242.84
629.81	1235.18
630.15	1227.88
630.50	1220.41
630.84	1212.28
631.19	1204.13
631.53	1196.47
631.88	1188.84
632.22	1181.12
632.57	1173.86
632.91	1166.17
633.26	1158.71
633.60	1150.98
633.95	1143.77
634.29	1136.53
634.64	1129.83
634.98	1122.45
635.32	1115.27
635.67	1108.51
636.01	1101.76
636.36	1094.93
636.70	1088.32
637.05	1081.75
637.39	1075.24
637.73	1068.73
638.08	1062.70
638.42	1056.69
638.77	1050.20
639.11	1043.61
639.45	1037.22
639.80	1030.47
640.14	1024.14
640.49	1017.51
640.83	1011.24
641.17	1005.09
641.52	998.75
641.86	992.17
642.20	986.15
642.55	979.62
642.89	973.20
643.23	966.67
643.58	960.85
643.92	954.63
644.26	948.62
644.61	942.53
644.95	936.48
645.29	929.91
645.64	923.23
645.98	916.89
646.32	910.88
646.66	904.81
647.01	898.98
647.35	893.19
647.69	887.20
648.04	881.64
648.38	875.80
648.72	869.79
649.06	863.75
649.41	857.82
649.75	851.92
650.09	845.91
650.43	840.08
650.78	833.98
651.12	828.02
651.46	822.17
651.80	816.49
652.14	811.03
652.49	805.61
652.83	800.39
653.17	794.79
653.51	789.08
653.85	783.61
654.20	777.99
654.54	771.99
654.88	766.29
655.22	760.35
655.56	754.62
655.90	749.19
656.25	743.95
656.59	738.68
656.93	733.68
657.27	728.53
657.61	723.09
657.95	717.92
658.29	712.85
658.64	707.56
658.98	702.13
659.32	696.68
659.66	691.48
660.00	686.19
660.34	681.14
660.68	676.25
661.02	671.18
661.36	666.37
661.70	661.83
662.05	657.48
662.39	653.25
662.73	648.75
663.07	644.32
663.41	639.89
663.75	635.36
664.09	630.73
664.43	626.33
664.77	622.24
665.11	618.00
665.45	613.76
665.79	609.75
666.13	605.66
666.47	601.55
666.81	597.40
667.15	593.21
667.49	589.31
667.83	585.43
668.17	581.53
668.51	577.47
668.85	573.42
669.19	569.50
669.53	565.55
669.87	561.69
670.21	557.92
670.55	554.17
670.89	550.68
671.23	547.28
671.57	543.68
671.91	540.13
672.25	536.60
672.58	533.08
672.92	529.58
673.26	526.38
673.60	523.16
673.94	520.05
674.28	517.06
674.62	514.09
674.96	511.03
675.30	508.11
675.64	505.14
675.97	502.35
676.31	499.47
676.65	496.51
676.99	493.74
677.33	490.87
677.67	488.06
678.01	485.03
678.34	482.02
678.68	479.15
679.02	476.34
679.36	473.53
679.70	470.81
680.04	468.06
680.37	465.21
680.71	462.36
681.05	459.63
681.39	456.92
681.73	454.16
682.06	451.57
682.40	448.96
682.74	446.42
683.08	443.85
683.42	441.24
683.75	438.74
684.09	436.15
684.43	433.69
684.77	431.21
685.10	428.79
685.44	426.42
685.78	424.12
686.12	421.77
686.45	419.47
686.79	417.16
687.13	414.97
687.46	412.75
687.80	410.57
688.14	408.34
688.48	406.25
688.81	404.07
689.15	401.87
689.49	399.74
689.82	397.67
690.16	395.57
690.50	393.56
690.83	391.64
691.17	389.59
691.51	387.64
691.84	385.83
692.18	383.91
692.52	381.96
692.85	379.94
693.19	378.10
693.52	376.23
693.86	374.36
694.20	372.53
694.53	370.70
694.87	368.84
695.21	367.05
695.54	365.18
695.88	363.37
696.21	361.66
696.55	359.95
696.88	358.22
697.22	356.52
697.56	354.91
697.89	353.22
698.23	351.70
698.56	350.07
698.90	348.46
699.23	346.83
699.57	345.22
699.90	343.69
700.24	342.10
700.58	340.56
700.91	339.09
701.25	337.68
701.58	336.35
701.92	334.97
702.25	333.61
702.59	332.24
702.92	330.98
703.26	329.64
703.59	328.31
703.93	327.09
704.26	325.82
704.60	324.47
704.93	323.21
705.26	321.93
705.60	320.71
705.93	319.50
706.27	318.50
706.60	317.43
706.94	316.31
707.27	315.16
707.61	314.05
707.94	312.98
708.27	311.84
708.61	310.71
708.94	309.72
709.28	308.74
709.61	307.75
709.94	306.73
710.28	305.70
710.61	304.71
710.95	303.60
711.28	302.67
711.61	301.73
711.95	300.79
712.28	299.79
712.61	298.81
712.95	297.85
713.28	296.88
713.61	295.99
713.95	295.12
714.28	294.28
714.61	293.40
714.95	292.51
715.28	291.61
715.61	290.72
715.95	289.80
716.28	288.92
716.61	288.07
716.95	287.22
717.28	286.43
717.61	285.66
717.94	284.94
718.28	284.11
718.61	283.37
718.94	282.60
719.27	281.96
719.61	281.27
719.94	280.57
720.27	279.85
720.60	279.15
720.94	278.47
721.27	277.86
721.60	277.31
721.93	276.71
722.27	276.14
722.60	275.59
722.93	275.02
723.26	274.47
723.59	273.90
723.93	273.36
724.26	272.81
724.59	272.22
724.92	271.65
725.25	271.16
725.59	270.61
725.92	270.13
726.25	269.59
726.58	269.10
726.91	268.60
727.24	268.09
727.57	267.62
727.91	267.13
728.24	266.63
728.57	266.13
728.90	265.66
729.23	265.14
729.56	264.71
729.89	264.23
730.22	263.71
730.55	263.25
730.89	262.80
731.22	262.35
731.55	261.94
731.88	261.51
732.21	261.08
732.54	260.70
732.87	260.25
733.20	259.84
733.53	259.43
733.86	259.04
734.19	258.65
734.52	258.27
734.85	257.96
735.18	257.52
735.51	257.15
735.84	256.77
736.17	256.46
736.50	256.05
736.83	255.83
737.16	255.50
737.49	255.16
737.82	254.79
738.15	254.42
738.48	254.05
738.81	253.74
739.14	253.40
739.47	253.04
739.80	252.72
740.13	252.42
740.46	252.11
740.79	251.79
741.12	251.46
741.45	251.16
741.78	250.77
742.11	250.48
742.44	250.12
742.77	249.90
743.10	249.57
743.43	249.23
743.75	248.85
744.08	248.68
744.41	248.37
744.74	248.11
745.07	247.88
745.40	247.63
745.73	247.38
746.06	247.08
746.39	246.81
746.71	246.55
747.04	246.25
747.37	245.98
747.70	245.74
748.03	245.48
748.36	245.24
748.68	245.03
749.01	244.79
749.34	244.58
749.67	244.29
750.00	244.06
750.33	243.94
750.65	243.72
750.98	243.35
751.31	243.17
751.64	242.91
751.97	242.70
752.29	242.47
752.62	242.20
752.95	241.99
753.28	241.78
753.60	241.56
753.93	241.39
754.26	241.17
754.59	240.92
754.91	240.70
755.24	240.50
755.57	240.28
755.90	240.07
756.22	239.83
756.55	239.61
756.88	239.40
757.20	239.11
757.53	238.86
757.86	238.70
758.19	238.55
758.51	238.43
758.84	238.21
759.17	238.06
759.49	237.91
759.82	237.78
760.15	237.61
760.47	237.43
760.80	237.23
761.13	237.09
761.45	236.92
761.78	236.79
762.11	236.63
762.43	236.47
762.76	236.37
763.08	236.23
763.41	236.10
763.74	235.98
764.06	235.84
764.39	235.73
764.71	235.60
765.04	235.41
765.37	235.26
765.69	235.13
766.02	234.98
766.34	234.83
766.67	234.70
767.00	234.60
767.32	234.56
767.65	234.52
767.97	234.39
768.30	234.30
768.62	234.18
768.95	234.06
769.27	233.95
769.60	233.85
769.92	233.74
770.25	233.60
770.57	233.48
770.90	233.39
771.22	233.30
771.55	233.19
771.87	233.10
772.20	232.99
772.52	232.96
772.85	232.96
773.17	232.89
773.50	232.78
773.82	232.68
774.15	232.56
774.47	232.41
774.80	232.32
775.12	232.23
775.45	232.15
775.77	232.09
776.09	232.00
776.42	231.89
776.74	231.84
777.07	231.77
777.39	231.72
777.72	231.65
778.04	231.56
778.36	231.51
778.69	231.44
779.01	231.40
779.33	231.25
779.66	231.12
779.98	231.04
780.31	231.02
780.63	230.99
780.95	230.91
781.28	230.84
781.60	230.78
781.92	230.74
782.25	230.67
782.57	230.60
782.89	230.56
783.22	230.50
783.54	230.44
783.86	230.41
784.19	230.36
784.51	230.31
784.83	230.21
785.16	230.14
785.48	230.07
785.80	230.01
786.12	229.96
786.45	229.88
786.77	229.81
787.09	229.75
787.42	229.68
787.74	229.65
788.06	229.64
788.38	229.55
788.71	229.49
789.03	229.47
789.35	229.46
789.67	229.40
789.99	229.39
790.32	229.32
790.64	229.30
790.96	229.33
791.28	229.27
791.61	229.28
791.93	229.25
792.25	229.23
792.57	229.24
792.89	229.14
793.21	229.11
793.54	229.07
793.86	228.97
794.18	228.95
794.50	228.88
794.82	228.82
795.14	228.80
795.47	228.78
795.79	228.76
796.11	228.64
796.43	228.61
796.75	228.54
797.07	228.54
797.39	228.50
797.71	228.41
798.04	228.39
798.36	228.36
798.68	228.35
799.00	228.32
799.32	228.24
799.64	228.26
799.96	228.21
800.28	228.21
800.60	228.20
800.92	228.18
801.24	228.16
801.56	228.15
801.89	228.11
802.21	228.08
802.53	228.04
802.85	228.07
803.17	228.09
803.49	228.04
803.81	227.98
804.13	227.93
804.45	227.87
804.77	227.83
805.09	227.76
805.41	227.72
805.73	227.67
806.05	227.63
806.37	227.61
806.69	227.60
807.01	227.59
807.33	227.55
807.65	227.47
807.97	227.45
808.28	227.42
808.60	227.40
808.92	227.37
809.24	227.38
809.56	227.37
809.88	227.29
810.20	227.28
810.52	227.26
810.84	227.26
811.16	227.22
811.48	227.18
811.80	227.22
812.12	227.17
812.43	227.17
812.75	227.12
813.07	227.11
813.39	227.08
813.71	227.01
814.03	226.99
814.35	227.00
814.67	226.98
814.98	226.93
815.30	226.92
815.62	226.87
815.94	226.81
816.26	226.78
816.58	226.75
816.89	226.71
817.21	226.70
817.53	226.65
817.85	226.67
818.17	226.67
818.48	226.61
818.80	226.61
819.12	226.59
819.44	226.58
819.76	226.52
820.07	226.53
820.39	226.53
820.71	226.53
821.03	226.55
821.34	226.47
821.66	226.46
821.98	226.44
822.30	226.42
822.61	226.42
822.93	226.34
823.25	226.33
823.57	226.33
823.88	226.34
824.20	226.33
824.52	226.32
824.83	226.28
825.15	226.27
825.47	226.27
825.79	226.24
826.10	226.22
826.42	226.22
826.74	226.20
827.05	226.16
827.37	226.12
827.69	226.05
828.00	226.06
828.32	226.06
828.64	226.00
828.95	226.04
829.27	226.00
829.58	226.01
829.90	226.01
830.22	226.00
830.53	225.94
830.85	225.90
831.17	225.86
831.48	225.85
831.80	225.85
832.11	225.79
832.43	225.80
832.75	225.80
833.06	225.85
833.38	225.81
833.69	225.81
834.01	225.84
834.32	225.82
834.64	225.81
834.96	225.80
835.27	225.79
835.59	225.75
835.90	225.74
836.22	225.75
836.53	225.73
836.85	225.72
837.16	225.79
837.48	225.81
837.79	225.82
838.11	225.82
838.42	225.83
838.74	225.84
839.05	225.81
839.37	225.81
839.68	225.76
840.00	225.75
840.31	225.76
840.63	225.72
840.94	225.69
841.26	225.69
841.57	225.67
841.88	225.70
842.20	225.69
842.51	225.69
842.83	225.66
843.14	225.73
843.46	225.74
843.77	225.69
844.08	225.69
844.40	225.65
844.71	225.62
845.03	225.59
845.34	225.58
845.65	225.61
845.97	225.57
846.28	225.57
846.60	225.58
846.91	225.54
847.22	225.59
847.54	225.65
847.85	225.65
848.16	225.70
848.48	225.71
848.79	225.75
849.10	225.77
849.42	225.79
849.73	225.77
850.04	225.78
850.36	225.78
850.67	225.78
850.98	225.78
851.30	225.82
851.61	225.84
851.92	225.87
852.23	225.88
852.55	225.88
852.86	225.91
853.17	225.89
853.49	225.96
853.80	225.96
854.11	225.95
854.42	225.97
854.74	225.97
855.05	225.94
855.36	225.90
855.67	225.90
855.99	225.88
856.30	225.94
856.61	225.93
856.92	225.95
857.23	225.94
857.55	225.96
857.86	225.95
858.17	225.95
858.48	225.89
858.79	225.87
859.11	225.90
859.42	225.90
859.73	225.90
860.04	225.86
860.35	225.81
860.66	225.80
860.98	225.81
861.29	225.79
861.60	225.82
861.91	225.80
862.22	225.76
862.53	225.74
862.84	225.62
863.16	225.67
863.47	225.63
863.78	225.64
864.09	225.60
864.40	225.56
864.71	225.54
865.02	225.57
865.33	225.54
865.64	225.52
865.95	225.47
866.27	225.52
866.58	225.52
866.89	225.52
867.20	225.46
867.51	225.40
867.82	225.39
868.13	225.38
868.44	225.37
868.75	225.40
869.06	225.39
869.37	225.38
869.68	225.30
869.99	225.31
870.30	225.30
870.61	225.33
870.92	225.34
871.23	225.33
871.54	225.36
871.85	225.39
872.16	225.37
872.47	225.38
872.78	225.32
873.09	225.31
873.40	225.29
873.71	225.31
874.02	225.32
874.33	225.32
874.64	225.28
874.95	225.26
875.26	225.25
875.56	225.23
875.87	225.26
876.18	225.23
876.49	225.36
876.80	225.35
877.11	225.32
877.42	225.33
877.73	225.31
878.04	225.25
878.35	225.27
878.66	225.25
878.96	225.25
879.27	225.26
879.58	225.26
879.89	225.23
880.20	225.26
880.51	225.25
880.82	225.24
881.12	225.25
881.43	225.25
881.74	225.23
882.05	225.25
882.36	225.24
882.67	225.29
882.97	225.13
883.28	225.15
883.59	225.16
883.90	225.18
884.21	225.21
884.51	225.23
884.82	225.18
885.13	225.19
885.44	225.18
885.74	225.15
886.05	225.13
886.36	225.15
886.67	225.14
886.98	225.19
887.28	225.20
887.59	225.22
887.90	225.23
888.20	225.24
888.51	225.27
888.82	225.24
889.13	225.23
889.43	225.33
889.74	225.32
890.05	225.32
890.35	225.27
890.66	225.27
890.97	225.26
891.28	225.27
891.58	225.29
891.89	225.25
892.20	225.28
892.50	225.29
892.81	225.30
893.12	225.27
893.42	225.24
893.73	225.25
894.04	225.24
894.34	225.25
894.65	225.24
894.95	225.23
895.26	225.26
895.57	225.31
895.87	225.22
896.18	225.21
896.48	225.21
896.79	225.22
897.10	225.22
897.40	225.19
897.71	225.21
898.01	225.20
898.32	225.25
898.63	225.24
898.93	225.26
899.24	225.26
899.54	225.27
899.85	225.25
900.15	225.25
900.46	225.25
900.76	225.26
901.07	225.30
901.38	225.28
901.68	225.26
901.99	225.21
902.29	225.20
902.60	225.18
902.90	225.17
903.21	225.15
903.51	225.15
903.82	225.18
904.12	225.17
904.43	225.20
904.73	225.17
905.03	225.17
905.34	225.24
905.64	225.25
905.95	225.26
906.25	225.27
906.56	225.25
906.86	225.23
907.17	225.22
907.47	225.19
907.77	225.18
908.08	225.15
908.38	225.16
908.69	225.17
908.99	225.19
909.30	225.22
909.60	225.23
909.90	225.24
910.21	225.23
910.51	225.19
910.81	225.18
911.12	225.19
911.42	225.18
911.73	225.06
912.03	225.05
912.33	225.06
912.64	225.04
912.94	224.99
913.24	224.98
913.55	224.93
913.85	224.92
914.15	224.91
914.46	224.90
914.76	224.86
915.06	224.84
915.37	224.83
915.67	224.79
915.97	224.80
916.27	224.75
916.58	224.75
916.88	224.75
917.18	224.72
917.49	224.78
917.79	224.77
918.09	224.78
918.39	224.80
918.70	224.80
919.00	224.78
919.30	224.84
919.60	224.82
919.91	224.83
920.21	224.83
920.51	224.82
920.81	224.84
921.12	224.89
921.42	224.87
921.72	224.86
922.02	224.87
922.32	224.86
922.63	224.87
922.93	224.89
923.23	224.89
923.53	224.89
923.83	224.81
924.13	224.80
924.44	224.81
924.74	224.82
925.04	224.86
925.34	224.89
925.64	224.87
925.94	224.88
926.24	224.96
926.55	224.95
926.85	224.97
927.15	224.96
927.45	224.97
927.75	224.98
928.05	224.99
928.35	224.99
928.65	225.04
928.95	225.06
929.26	225.05
929.56	225.09
929.86	225.12
930.16	225.15
930.46	225.17
930.76	225.16
931.06	225.11
931.36	225.03
931.66	225.05
931.96	225.04
932.26	225.07
932.56	225.02
932.86	225.04
933.16	225.06
933.46	225.06
933.76	225.06
934.06	225.11
934.36	225.14
934.66	225.16
934.96	225.15
935.26	225.14
935.56	225.17
935.86	225.12
936.16	225.09
936.46	225.07
936.76	225.07
937.06	225.07
937.36	225.11
937.66	225.14
937.96	225.13
938.26	225.13
938.56	225.12
938.86	225.09
939.16	225.12
939.46	225.13
939.76	225.14
940.06	225.14
940.35	225.09
940.65	225.05
940.95	225.02
941.25	224.99
941.55	224.99
941.85	224.96
942.15	225.00
942.45	224.98
942.75	224.97
943.04	224.98
943.34	225.01
943.64	224.99
943.94	224.98
944.24	224.96
944.54	224.98
944.84	224.98
945.13	224.99
945.43	224.93
945.73	224.91
946.03	224.92
946.33	224.91
946.62	224.91
946.92	224.91
947.22	224.93
947.52	224.94
947.82	224.94
948.11	224.93
948.41	224.89
948.71	224.92
949.01	224.92
949.31	224.92
949.60	224.90
949.90	224.93
950.20	224.96
950.50	224.95
950.79	224.91
951.09	224.93
951.39	224.93
951.69	224.97
951.98	224.98
952.28	224.97
952.58	224.95
952.87	224.92
953.17	224.89
953.47	224.90
953.76	224.89
954.06	224.86
954.36	224.84
954.66	224.86
954.95	224.87
955.25	224.87
955.55	224.86
955.84	224.83
956.14	224.81
956.44	224.78
956.73	224.76
957.03	224.78
957.32	224.75
957.62	224.73
957.92	224.72
958.21	224.71
958.51	224.79
958.81	224.81
959.10	224.84
959.40	224.88
959.69	224.87
959.99	224.87
960.29	224.86
960.58	224.87
960.88	224.92
961.17	224.91
961.47	224.92
961.76	224.93
962.06	224.95
962.36	224.93
962.65	224.97
962.95	224.97
963.24	224.98
963.54	224.98
963.83	225.03
964.13	225.02
964.42	224.97
964.72	224.90
965.01	224.91
965.31	224.88
965.60	224.88
965.90	224.97
966.19	224.97
966.49	224.98
966.78	224.98
967.08	224.96
967.37	224.98
967.67	224.98
967.96	224.98
968.26	224.97
968.55	225.01
968.85	224.97
969.14	224.99
969.43	224.98
969.73	224.98
970.02	224.92
970.32	224.91
970.61	224.93
970.91	224.91
971.20	224.88
971.49	224.91
971.79	224.89
972.08	224.79
972.38	224.78
972.67	224.79
972.96	224.80
973.26	224.79
973.55	224.81
973.85	224.80
974.14	224.79
974.43	224.80
974.73	224.75
975.02	224.72
975.31	224.71
975.61	224.69
975.90	224.67
976.19	224.69
976.49	224.74
976.78	224.69
977.07	224.67
977.37	224.69
977.66	224.67
977.95	224.67
978.24	224.69
978.54	224.71
978.83	224.69
979.12	224.71
979.42	224.70
979.71	224.68
980.00	224.67
980.29	224.69
980.59	224.66
980.88	224.70
981.17	224.74
981.46	224.72
981.76	224.75
982.05	224.79
982.34	224.81
982.63	224.79
982.93	224.82
983.22	224.86
983.51	224.89
983.80	224.90
984.09	224.92
984.39	224.89
984.68	224.88
984.97	224.90
985.26	224.88
985.55	224.91
985.85	224.84
986.14	224.84
986.43	224.85
986.72	224.84
987.01	224.82
987.30	224.83
987.59	224.83
987.89	224.81
988.18	224.76
988.47	224.73
988.76	224.71
989.05	224.70
989.34	224.68
989.63	224.67
989.92	224.64
990.22	224.62
990.51	224.64
990.80	224.65
991.09	224.64
991.38	224.64
991.67	224.60
991.96	224.62
992.25	224.62
992.54	224.60
992.83	224.59
993.12	224.58
993.41	224.57
993.70	224.61
993.99	224.62
994.28	224.63
994.58	224.64
994.87	224.61
995.16	224.61
995.45	224.61
995.74	224.58
996.03	224.59
996.32	224.61
996.61	224.64
996.90	224.61
997.19	224.60
997.48	224.60
997.77	224.60
998.06	224.60
998.34	224.57
998.63	224.56
998.92	224.57
999.21	224.59
999.50	224.58
999.79	224.55
1000.08	224.54
1000.37	224.56
1000.66	224.54
1000.95	224.58
1001.24	224.58
1001.53	224.60
1001.82	224.59
1002.11	224.56
1002.40	224.56
1002.68	224.54
1002.97	224.62
1003.26	224.60
1003.55	224.60
1003.84	224.58
1004.13	224.64
1004.42	224.65
1004.71	224.65
1004.99	224.65
1005.28	224.67
1005.57	224.65
1005.86	224.62
1006.15	224.60
1006.44	224.60
1006.72	224.62
1007.01	224.60
1007.30	224.59
1007.59	224.56
1007.88	224.58
1008.17	224.59
1008.45	224.58
1008.74	224.56
1009.03	224.55
1009.32	224.54
1009.60	224.53
1009.89	224.57
1010.18	224.49
1010.47	224.47
1010.76	224.49
1011.04	224.46
1011.33	224.46
1011.62	224.50
1011.91	224.53
1012.19	224.56
1012.48	224.54
1012.77	224.52
1013.05	224.59
1013.34	224.61
1013.63	224.60
1013.92	224.60
1014.20	224.60
1014.49	224.62
1014.78	224.62
1015.06	224.55
1015.35	224.58
1015.64	224.55
1015.92	224.53
1016.21	224.53
1016.50	224.56
1016.78	224.55
1017.07	224.58
1017.36	224.53
1017.64	224.51
1017.93	224.50
1018.22	224.49
1018.50	224.50
1018.79	224.52
1019.08	224.46
1019.36	224.44
1019.65	224.46
1019.93	224.48
1020.22	224.49
1020.51	224.52
1020.79	224.51
1021.08	224.38
1021.36	224.30
1021.65	224.76
1021.94	224.38
1022.22	224.62
1022.51	224.75
1022.79	225.05
1023.08	224.48
1023.36	225.47
1023.65	224.38
>>>>>End Processed Spectral Data<<<<<
