SpectraSuite Data File
++++++++++++++++++++++++++++++++++++
Date: Fri Feb 01 16:13:12 EST 2013
User: group
Dark Spectrum Present: No
Reference Spectrum Present: No
Number of Sampled Component Spectra: 1
Spectrometers: USB2E7196
Integration Time (usec): 35000 (USB2E7196)
Spectra Averaged: 100 (USB2E7196)
Boxcar Smoothing: 10 (USB2E7196)
Correct for Electrical Dark: No (USB2E7196)
Strobe/Lamp Enabled: No (USB2E7196)
Correct for Detector Non-linearity: No (USB2E7196)
Correct for Stray Light: No (USB2E7196)
Number of Pixels in Processed Spectrum: 2048
>>>>>Begin Processed Spectral Data<<<<<
339.09	0.00
339.48	214.43
339.86	216.19
340.24	216.44
340.63	218.48
341.01	221.38
341.39	220.84
341.78	222.31
342.16	223.29
342.54	224.42
342.93	212.51
343.31	223.25
343.69	223.77
344.07	224.21
344.46	224.67
344.84	225.07
345.22	225.32
345.60	225.59
345.99	225.81
346.37	225.96
346.75	226.05
347.13	226.17
347.52	226.21
347.90	226.30
348.28	226.31
348.66	226.33
349.05	226.32
349.43	226.38
349.81	226.46
350.19	226.52
350.57	226.61
350.96	226.69
351.34	226.75
351.72	226.86
352.10	226.99
352.48	227.06
352.87	227.09
353.25	227.18
353.63	227.23
354.01	227.27
354.39	227.34
354.77	227.43
355.15	227.52
355.54	227.59
355.92	227.64
356.30	227.76
356.68	227.90
357.06	227.99
357.44	228.04
357.82	228.10
358.20	228.15
358.58	228.19
358.97	228.25
359.35	228.40
359.73	228.47
360.11	228.49
360.49	228.55
360.87	228.54
361.25	228.58
361.63	228.69
362.01	228.75
362.39	228.81
362.77	228.85
363.15	228.87
363.53	228.91
363.91	228.91
364.29	228.92
364.67	228.88
365.05	228.90
365.43	228.94
365.81	228.96
366.19	229.02
366.57	229.06
366.95	229.06
367.33	228.98
367.71	228.98
368.09	229.01
368.47	229.00
368.85	229.04
369.23	229.04
369.61	228.95
369.99	228.95
370.37	228.90
370.75	228.90
371.13	228.83
371.51	228.78
371.89	228.77
372.27	228.73
372.65	228.69
373.03	228.63
373.41	228.56
373.78	228.51
374.16	228.44
374.54	228.37
374.92	228.30
375.30	228.23
375.68	228.14
376.06	228.07
376.44	227.99
376.82	227.92
377.19	227.84
377.57	227.75
377.95	227.66
378.33	227.59
378.71	227.49
379.09	227.45
379.47	227.38
379.84	227.29
380.22	227.20
380.60	227.10
380.98	227.03
381.36	226.95
381.73	226.86
382.11	226.79
382.49	226.69
382.87	226.59
383.25	226.53
383.62	226.56
384.00	226.47
384.38	226.42
384.76	226.41
385.13	226.37
385.51	226.37
385.89	226.31
386.27	226.26
386.64	226.20
387.02	226.11
387.40	226.06
387.78	226.02
388.15	226.00
388.53	225.93
388.91	225.88
389.29	225.82
389.66	225.78
390.04	225.77
390.42	225.78
390.79	225.80
391.17	225.79
391.55	225.70
391.92	225.67
392.30	225.66
392.68	225.63
393.05	225.63
393.43	225.59
393.81	225.60
394.18	225.55
394.56	225.57
394.94	225.64
395.31	225.64
395.69	225.66
396.06	225.71
396.44	225.77
396.82	225.80
397.19	225.89
397.57	225.95
397.95	225.99
398.32	226.00
398.70	226.05
399.07	226.16
399.45	226.19
399.82	226.26
400.20	226.31
400.58	226.39
400.95	226.41
401.33	226.50
401.70	226.64
402.08	226.77
402.45	226.88
402.83	226.97
403.20	227.09
403.58	227.20
403.95	227.30
404.33	227.42
404.71	227.54
405.08	227.73
405.46	227.85
405.83	228.01
406.21	228.11
406.58	228.28
406.96	228.41
407.33	228.61
407.70	228.82
408.08	229.13
408.45	229.35
408.83	229.62
409.20	229.87
409.58	230.08
409.95	230.34
410.33	230.62
410.70	230.91
411.08	231.22
411.45	231.55
411.82	231.84
412.20	232.18
412.57	232.59
412.95	232.90
413.32	233.29
413.69	233.67
414.07	234.15
414.44	234.63
414.82	235.12
415.19	235.68
415.56	236.19
415.94	236.70
416.31	237.32
416.68	237.95
417.06	238.63
417.43	239.29
417.81	240.07
418.18	240.82
418.55	241.64
418.93	242.46
419.30	243.36
419.67	244.32
420.04	245.27
420.42	246.26
420.79	247.45
421.16	248.64
421.54	249.82
421.91	251.02
422.28	252.26
422.66	253.57
423.03	254.88
423.40	256.23
423.77	257.65
424.15	259.07
424.52	260.56
424.89	262.17
425.26	263.72
425.64	265.11
426.01	266.70
426.38	268.34
426.75	270.04
427.13	271.72
427.50	273.54
427.87	275.41
428.24	277.24
428.61	278.97
428.99	280.90
429.36	282.98
429.73	285.03
430.10	287.04
430.47	289.09
430.85	291.18
431.22	293.37
431.59	295.76
431.96	298.00
432.33	300.45
432.70	302.83
433.08	305.68
433.45	308.36
433.82	310.92
434.19	313.84
434.56	316.62
434.93	319.31
435.30	321.87
435.68	324.81
436.05	327.65
436.42	330.42
436.79	332.92
437.16	335.61
437.53	338.50
437.90	341.31
438.27	344.06
438.64	346.91
439.01	349.54
439.38	351.75
439.75	353.89
440.13	356.39
440.50	358.68
440.87	360.48
441.24	362.41
441.61	364.60
441.98	366.01
442.35	367.84
442.72	369.68
443.09	371.53
443.46	372.50
443.83	373.06
444.20	373.60
444.57	374.45
444.94	374.77
445.31	375.05
445.68	375.41
446.05	375.45
446.42	375.05
446.79	374.61
447.16	374.15
447.53	373.81
447.90	372.64
448.27	371.48
448.64	369.93
449.01	368.77
449.37	366.78
449.74	364.94
450.11	362.67
450.48	360.18
450.85	357.63
451.22	355.49
451.59	353.46
451.96	351.51
452.33	348.85
452.70	346.49
453.07	343.72
453.43	340.81
453.80	338.08
454.17	335.39
454.54	332.84
454.91	330.20
455.28	327.56
455.65	325.08
456.02	322.67
456.38	320.51
456.75	317.84
457.12	315.64
457.49	313.39
457.86	311.22
458.23	309.40
458.59	307.35
458.96	305.24
459.33	303.39
459.70	301.52
460.07	300.07
460.43	298.36
460.80	296.71
461.17	295.28
461.54	293.80
461.91	292.37
462.27	290.92
462.64	289.63
463.01	288.26
463.38	286.96
463.74	285.57
464.11	284.41
464.48	283.41
464.85	282.28
465.21	281.44
465.58	280.51
465.95	279.41
466.32	278.52
466.68	277.67
467.05	276.79
467.42	275.88
467.78	274.92
468.15	274.06
468.52	273.38
468.88	272.54
469.25	271.75
469.62	271.18
469.98	270.52
470.35	269.88
470.72	269.30
471.08	268.67
471.45	268.16
471.82	267.57
472.18	267.00
472.55	266.57
472.92	266.04
473.28	265.62
473.65	265.18
474.02	264.78
474.38	264.38
474.75	264.07
475.11	263.80
475.48	263.54
475.85	263.32
476.21	263.10
476.58	262.91
476.94	262.74
477.31	262.54
477.67	262.39
478.04	262.33
478.41	262.26
478.77	262.30
479.14	262.21
479.50	262.32
479.87	262.39
480.23	262.47
480.60	262.58
480.96	262.68
481.33	262.93
481.69	263.12
482.06	263.36
482.42	263.61
482.79	263.84
483.15	264.21
483.52	264.61
483.88	264.99
484.25	265.41
484.61	265.89
484.98	266.41
485.34	267.03
485.71	267.59
486.07	268.26
486.44	268.83
486.80	269.57
487.17	270.28
487.53	271.10
487.90	271.98
488.26	272.93
488.62	273.94
488.99	274.90
489.35	275.94
489.72	277.06
490.08	278.24
490.44	279.48
490.81	280.79
491.17	282.14
491.54	283.61
491.90	285.15
492.26	286.75
492.63	288.47
492.99	290.27
493.36	292.16
493.72	294.18
494.08	296.28
494.45	298.52
494.81	300.87
495.17	303.30
495.54	305.87
495.90	308.50
496.26	311.26
496.63	314.20
496.99	317.31
497.35	320.54
497.72	323.95
498.08	327.49
498.44	331.11
498.80	335.03
499.17	339.07
499.53	343.24
499.89	347.66
500.26	352.15
500.62	356.79
500.98	361.78
501.34	366.83
501.71	372.21
502.07	377.68
502.43	383.30
502.79	389.07
503.16	395.12
503.52	401.43
503.88	407.80
504.24	414.43
504.60	421.33
504.97	428.46
505.33	435.79
505.69	443.50
506.05	451.38
506.41	459.27
506.78	467.43
507.14	475.89
507.50	484.61
507.86	493.67
508.22	502.92
508.59	512.11
508.95	521.71
509.31	531.48
509.67	541.61
510.03	551.91
510.39	562.55
510.75	573.41
511.12	584.38
511.48	595.70
511.84	607.14
512.20	618.61
512.56	630.61
512.92	642.80
513.28	655.14
513.64	667.55
514.00	680.21
514.37	693.20
514.73	706.25
515.09	719.21
515.45	732.41
515.81	746.00
516.17	760.00
516.53	774.12
516.89	788.28
517.25	802.29
517.61	816.69
517.97	831.08
518.33	845.49
518.69	860.22
519.05	875.21
519.41	890.40
519.77	905.93
520.13	921.27
520.49	936.64
520.85	951.97
521.21	967.68
521.57	983.91
521.93	999.64
522.29	1015.89
522.65	1032.18
523.01	1048.37
523.37	1064.28
523.73	1080.34
524.09	1096.40
524.45	1112.70
524.81	1129.38
525.17	1146.17
525.53	1163.09
525.89	1179.85
526.25	1196.74
526.61	1213.09
526.97	1229.82
527.33	1246.28
527.68	1262.85
528.04	1279.31
528.40	1295.88
528.76	1312.94
529.12	1329.45
529.48	1346.32
529.84	1362.26
530.20	1378.74
530.56	1395.59
530.91	1412.95
531.27	1429.80
531.63	1446.15
531.99	1462.74
532.35	1478.70
532.71	1494.57
533.07	1510.74
533.42	1526.56
533.78	1542.44
534.14	1558.72
534.50	1573.84
534.86	1589.61
535.21	1604.85
535.57	1620.69
535.93	1636.14
536.29	1650.84
536.65	1665.72
537.00	1680.23
537.36	1695.61
537.72	1710.15
538.08	1724.66
538.44	1738.41
538.79	1752.18
539.15	1765.81
539.51	1779.49
539.87	1793.75
540.22	1807.29
540.58	1820.88
540.94	1834.11
541.29	1846.97
541.65	1859.52
542.01	1872.76
542.37	1885.02
542.72	1897.34
543.08	1908.98
543.44	1921.31
543.79	1932.45
544.15	1943.55
544.51	1955.09
544.87	1965.90
545.22	1976.77
545.58	1987.01
545.94	1996.71
546.29	2006.57
546.65	2016.30
547.01	2025.44
547.36	2034.06
547.72	2042.47
548.07	2050.48
548.43	2058.59
548.79	2066.54
549.14	2074.15
549.50	2081.38
549.86	2088.94
550.21	2096.21
550.57	2103.33
550.92	2109.90
551.28	2116.86
551.64	2123.83
551.99	2130.37
552.35	2136.56
552.70	2142.57
553.06	2148.43
553.41	2154.74
553.77	2160.60
554.13	2166.72
554.48	2172.67
554.84	2178.20
555.19	2183.45
555.55	2188.58
555.90	2193.09
556.26	2198.10
556.61	2202.67
556.97	2207.13
557.32	2211.36
557.68	2215.39
558.03	2219.73
558.39	2223.38
558.74	2228.00
559.10	2231.90
559.45	2235.54
559.81	2239.77
560.16	2243.58
560.52	2246.77
560.87	2250.18
561.23	2252.96
561.58	2255.90
561.94	2258.50
562.29	2260.73
562.64	2263.67
563.00	2266.09
563.35	2269.63
563.71	2272.63
564.06	2275.75
564.42	2278.53
564.77	2281.11
565.12	2283.59
565.48	2285.48
565.83	2287.49
566.19	2288.92
566.54	2289.72
566.89	2291.05
567.25	2291.74
567.60	2293.03
567.96	2294.98
568.31	2295.82
568.66	2296.94
569.02	2297.57
569.37	2297.97
569.72	2299.02
570.08	2299.22
570.43	2299.25
570.78	2298.72
571.14	2297.27
571.49	2295.99
571.84	2295.78
572.20	2294.78
572.55	2293.67
572.90	2292.18
573.26	2290.85
573.61	2289.04
573.96	2287.54
574.31	2284.54
574.67	2281.62
575.02	2278.05
575.37	2274.46
575.72	2270.78
576.08	2267.32
576.43	2264.00
576.78	2260.40
577.13	2257.04
577.49	2253.72
577.84	2250.44
578.19	2246.73
578.54	2243.12
578.90	2239.04
579.25	2233.44
579.60	2228.39
579.95	2223.43
580.30	2218.40
580.66	2213.15
581.01	2208.29
581.36	2203.28
581.71	2199.17
582.06	2194.84
582.42	2190.48
582.77	2185.27
583.12	2180.89
583.47	2176.33
583.82	2171.36
584.17	2166.32
584.53	2161.03
584.88	2155.44
585.23	2149.69
585.58	2144.29
585.93	2138.87
586.28	2134.16
586.63	2129.15
586.98	2124.11
587.34	2119.42
587.69	2114.66
588.04	2109.53
588.39	2103.83
588.74	2097.33
589.09	2091.02
589.44	2084.17
589.79	2078.02
590.14	2072.54
590.49	2065.86
590.84	2059.38
591.19	2053.41
591.54	2046.83
591.89	2039.51
592.25	2032.94
592.60	2025.77
592.95	2018.19
593.30	2010.74
593.65	2003.03
594.00	1995.86
594.35	1988.63
594.70	1980.52
595.05	1973.38
595.40	1966.06
595.75	1958.65
596.10	1952.61
596.45	1946.08
596.80	1939.95
597.15	1933.46
597.50	1926.46
597.85	1919.97
598.19	1913.43
598.54	1906.42
598.89	1899.69
599.24	1893.83
599.59	1887.20
599.94	1880.93
600.29	1874.59
600.64	1867.96
600.99	1860.57
601.34	1853.91
601.69	1846.85
602.04	1840.11
602.39	1832.70
602.74	1825.79
603.08	1819.12
603.43	1812.38
603.78	1804.99
604.13	1797.76
604.48	1790.57
604.83	1783.61
605.18	1776.80
605.53	1768.93
605.87	1760.95
606.22	1753.88
606.57	1745.90
606.92	1738.47
607.27	1731.56
607.62	1724.73
607.96	1717.58
608.31	1711.18
608.66	1703.55
609.01	1696.17
609.36	1688.64
609.70	1680.63
610.05	1672.70
610.40	1665.05
610.75	1656.66
611.10	1649.06
611.44	1640.68
611.79	1632.57
612.14	1623.87
612.49	1614.62
612.83	1606.17
613.18	1597.97
613.53	1589.82
613.88	1581.34
614.22	1573.07
614.57	1564.22
614.92	1556.13
615.27	1548.68
615.61	1540.31
615.96	1532.33
616.31	1524.63
616.65	1517.16
617.00	1509.66
617.35	1501.90
617.70	1493.61
618.04	1485.18
618.39	1476.89
618.74	1469.22
619.08	1460.86
619.43	1453.42
619.78	1446.49
620.12	1439.36
620.47	1431.82
620.82	1423.63
621.16	1416.05
621.51	1408.42
621.85	1400.84
622.20	1392.40
622.55	1383.88
622.89	1375.96
623.24	1368.33
623.59	1360.80
623.93	1353.35
624.28	1346.01
624.62	1338.58
624.97	1331.41
625.32	1324.61
625.66	1317.60
626.01	1310.48
626.35	1303.20
626.70	1295.32
627.04	1287.62
627.39	1279.78
627.73	1272.35
628.08	1265.42
628.43	1258.20
628.77	1250.88
629.12	1243.37
629.46	1236.29
629.81	1228.92
630.15	1221.71
630.50	1214.25
630.84	1206.19
631.19	1198.14
631.53	1190.59
631.88	1182.97
632.22	1175.32
632.57	1168.02
632.91	1160.49
633.26	1153.12
633.60	1145.69
633.95	1138.54
634.29	1131.41
634.64	1124.74
634.98	1117.40
635.32	1110.35
635.67	1103.73
636.01	1097.05
636.36	1090.19
636.70	1083.49
637.05	1076.93
637.39	1070.43
637.73	1063.91
638.08	1057.99
638.42	1052.05
638.77	1045.66
639.11	1039.21
639.45	1032.80
639.80	1026.23
640.14	1019.83
640.49	1013.26
640.83	1006.86
641.17	1000.70
641.52	994.35
641.86	987.80
642.20	981.99
642.55	975.51
642.89	969.02
643.23	962.44
643.58	956.75
643.92	950.56
644.26	944.58
644.61	938.56
644.95	932.61
645.29	926.15
645.64	919.48
645.98	913.18
646.32	907.14
646.66	901.12
647.01	895.23
647.35	889.55
647.69	883.68
648.04	878.13
648.38	872.26
648.72	866.36
649.06	860.36
649.41	854.39
649.75	848.51
650.09	842.61
650.43	836.82
650.78	830.60
651.12	824.62
651.46	818.89
651.80	813.21
652.14	807.75
652.49	802.30
652.83	797.11
653.17	791.49
653.51	785.86
653.85	780.42
654.20	774.79
654.54	768.70
654.88	763.06
655.22	757.24
655.56	751.51
655.90	745.96
656.25	740.70
656.59	735.36
656.93	730.27
657.27	725.11
657.61	719.66
657.95	714.58
658.29	709.53
658.64	704.20
658.98	698.72
659.32	693.27
659.66	688.04
660.00	682.74
660.34	677.72
660.68	672.76
661.02	667.69
661.36	663.02
661.70	658.60
662.05	654.24
662.39	649.93
662.73	645.51
663.07	641.25
663.41	636.82
663.75	632.38
664.09	627.86
664.43	623.41
664.77	619.35
665.11	615.10
665.45	610.92
665.79	606.89
666.13	602.83
666.47	598.75
666.81	594.58
667.15	590.43
667.49	586.50
667.83	582.67
668.17	578.77
668.51	574.69
668.85	570.60
669.19	566.64
669.53	562.78
669.87	558.92
670.21	555.19
670.55	551.55
670.89	548.06
671.23	544.59
671.57	541.11
671.91	537.50
672.25	534.00
672.58	530.52
672.92	527.09
673.26	523.92
673.60	520.82
673.94	517.74
674.28	514.81
674.62	511.84
674.96	508.73
675.30	505.87
675.64	502.91
675.97	500.13
676.31	497.29
676.65	494.37
676.99	491.68
677.33	488.72
677.67	485.88
678.01	482.85
678.34	479.91
678.68	477.07
679.02	474.27
679.36	471.48
679.70	468.73
680.04	465.96
680.37	463.06
680.71	460.15
681.05	457.48
681.39	454.77
681.73	452.11
682.06	449.60
682.40	447.03
682.74	444.46
683.08	441.87
683.42	439.27
683.75	436.75
684.09	434.18
684.43	431.81
684.77	429.34
685.10	427.01
685.44	424.66
685.78	422.35
686.12	420.05
686.45	417.77
686.79	415.49
687.13	413.25
687.46	411.12
687.80	409.02
688.14	406.82
688.48	404.78
688.81	402.56
689.15	400.39
689.49	398.17
689.82	396.08
690.16	394.00
690.50	392.08
690.83	390.14
691.17	388.16
691.51	386.21
691.84	384.40
692.18	382.48
692.52	380.56
692.85	378.61
693.19	376.78
693.52	374.94
693.86	373.10
694.20	371.36
694.53	369.54
694.87	367.67
695.21	365.90
695.54	364.02
695.88	362.24
696.21	360.58
696.55	358.91
696.88	357.27
697.22	355.64
697.56	353.99
697.89	352.34
698.23	350.76
698.56	349.18
698.90	347.58
699.23	345.96
699.57	344.37
699.90	342.84
700.24	341.28
700.58	339.77
700.91	338.30
701.25	336.84
701.58	335.48
701.92	334.13
702.25	332.79
702.59	331.50
702.92	330.21
703.26	328.88
703.59	327.65
703.93	326.44
704.26	325.23
704.60	323.93
704.93	322.64
705.26	321.39
705.60	320.15
705.93	318.97
706.27	317.91
706.60	316.84
706.94	315.73
707.27	314.57
707.61	313.49
707.94	312.44
708.27	311.35
708.61	310.25
708.94	309.24
709.28	308.20
709.61	307.21
709.94	306.27
710.28	305.24
710.61	304.22
710.95	303.15
711.28	302.18
711.61	301.24
711.95	300.38
712.28	299.42
712.61	298.47
712.95	297.54
713.28	296.65
713.61	295.73
713.95	294.80
714.28	293.99
714.61	293.14
714.95	292.32
715.28	291.44
715.61	290.61
715.95	289.74
716.28	288.88
716.61	288.00
716.95	287.18
717.28	286.39
717.61	285.63
717.94	284.86
718.28	284.07
718.61	283.31
718.94	282.60
719.27	281.96
719.61	281.30
719.94	280.63
720.27	279.94
720.60	279.30
720.94	278.70
721.27	278.10
721.60	277.53
721.93	276.97
722.27	276.40
722.60	275.82
722.93	275.29
723.26	274.78
723.59	274.22
723.93	273.66
724.26	273.13
724.59	272.56
724.92	272.03
725.25	271.53
725.59	271.02
725.92	270.49
726.25	269.94
726.58	269.47
726.91	268.97
727.24	268.50
727.57	268.02
727.91	267.52
728.24	267.03
728.57	266.57
728.90	266.08
729.23	265.59
729.56	265.17
729.89	264.70
730.22	264.21
730.55	263.74
730.89	263.31
731.22	262.89
731.55	262.47
731.88	262.08
732.21	261.62
732.54	261.24
732.87	260.82
733.20	260.45
733.53	260.06
733.86	259.68
734.19	259.28
734.52	258.90
734.85	258.62
735.18	258.21
735.51	257.84
735.84	257.45
736.17	257.12
736.50	256.73
736.83	256.48
737.16	256.13
737.49	255.83
737.82	255.52
738.15	255.20
738.48	254.86
738.81	254.52
739.14	254.25
739.47	253.86
739.80	253.56
740.13	253.26
740.46	252.93
740.79	252.58
741.12	252.28
741.45	251.96
741.78	251.61
742.11	251.33
742.44	250.98
742.77	250.73
743.10	250.46
743.43	250.17
743.75	249.81
744.08	249.68
744.41	249.41
744.74	249.12
745.07	248.80
745.40	248.59
745.73	248.38
746.06	248.09
746.39	247.87
746.71	247.62
747.04	247.34
747.37	247.09
747.70	246.86
748.03	246.60
748.36	246.42
748.68	246.15
749.01	245.88
749.34	245.64
749.67	245.39
750.00	245.12
750.33	244.94
750.65	244.70
750.98	244.33
751.31	244.10
751.64	243.88
751.97	243.72
752.29	243.47
752.62	243.20
752.95	243.01
753.28	242.78
753.60	242.55
753.93	242.36
754.26	242.15
754.59	241.92
754.91	241.71
755.24	241.45
755.57	241.24
755.90	241.07
756.22	240.88
756.55	240.68
756.88	240.49
757.20	240.23
757.53	240.04
757.86	239.86
758.19	239.68
758.51	239.51
758.84	239.32
759.17	239.17
759.49	239.00
759.82	238.87
760.15	238.71
760.47	238.58
760.80	238.40
761.13	238.29
761.45	238.14
761.78	237.97
762.11	237.83
762.43	237.68
762.76	237.54
763.08	237.40
763.41	237.27
763.74	237.16
764.06	237.07
764.39	236.96
764.71	236.84
765.04	236.75
765.37	236.59
765.69	236.45
766.02	236.32
766.34	236.22
766.67	236.07
767.00	235.97
767.32	235.91
767.65	235.85
767.97	235.74
768.30	235.67
768.62	235.58
768.95	235.48
769.27	235.40
769.60	235.30
769.92	235.20
770.25	235.08
770.57	234.95
770.90	234.82
771.22	234.70
771.55	234.63
771.87	234.51
772.20	234.42
772.52	234.42
772.85	234.42
773.17	234.32
773.50	234.24
773.82	234.15
774.15	233.99
774.47	233.86
774.80	233.75
775.12	233.65
775.45	233.56
775.77	233.48
776.09	233.42
776.42	233.36
776.74	233.33
777.07	233.25
777.39	233.17
777.72	233.10
778.04	233.06
778.36	232.96
778.69	232.91
779.01	232.87
779.33	232.74
779.66	232.56
779.98	232.47
780.31	232.44
780.63	232.43
780.95	232.39
781.28	232.32
781.60	232.23
781.92	232.19
782.25	232.12
782.57	232.07
782.89	231.97
783.22	231.88
783.54	231.79
783.86	231.77
784.19	231.73
784.51	231.70
784.83	231.63
785.16	231.55
785.48	231.50
785.80	231.44
786.12	231.40
786.45	231.35
786.77	231.34
787.09	231.24
787.42	231.14
787.74	231.11
788.06	231.08
788.38	231.07
788.71	230.97
789.03	230.93
789.35	230.90
789.67	230.86
789.99	230.83
790.32	230.78
790.64	230.71
790.96	230.75
791.28	230.68
791.61	230.64
791.93	230.63
792.25	230.54
792.57	230.54
792.89	230.46
793.21	230.44
793.54	230.37
793.86	230.32
794.18	230.28
794.50	230.20
794.82	230.17
795.14	230.09
795.47	230.10
795.79	230.07
796.11	230.01
796.43	229.98
796.75	229.93
797.07	229.88
797.39	229.86
797.71	229.75
798.04	229.73
798.36	229.72
798.68	229.64
799.00	229.63
799.32	229.55
799.64	229.55
799.96	229.49
800.28	229.47
800.60	229.43
800.92	229.40
801.24	229.35
801.56	229.30
801.89	229.28
802.21	229.24
802.53	229.20
802.85	229.16
803.17	229.18
803.49	229.12
803.81	229.13
804.13	229.08
804.45	229.03
804.77	228.98
805.09	228.91
805.41	228.93
805.73	228.87
806.05	228.84
806.37	228.81
806.69	228.78
807.01	228.72
807.33	228.71
807.65	228.63
807.97	228.67
808.28	228.67
808.60	228.64
808.92	228.64
809.24	228.68
809.56	228.65
809.88	228.60
810.20	228.59
810.52	228.56
810.84	228.55
811.16	228.55
811.48	228.54
811.80	228.56
812.12	228.53
812.43	228.52
812.75	228.47
813.07	228.47
813.39	228.50
813.71	228.49
814.03	228.48
814.35	228.48
814.67	228.42
814.98	228.36
815.30	228.35
815.62	228.31
815.94	228.26
816.26	228.32
816.58	228.25
816.89	228.26
817.21	228.22
817.53	228.21
817.85	228.19
818.17	228.16
818.48	228.11
818.80	228.13
819.12	228.13
819.44	228.10
819.76	228.05
820.07	228.01
820.39	227.99
820.71	227.96
821.03	227.97
821.34	227.96
821.66	227.98
821.98	228.00
822.30	227.96
822.61	227.97
822.93	227.92
823.25	227.93
823.57	227.91
823.88	227.95
824.20	227.90
824.52	227.92
824.83	227.92
825.15	227.91
825.47	227.90
825.79	227.90
826.10	227.90
826.42	227.93
826.74	227.92
827.05	227.92
827.37	227.90
827.69	227.90
828.00	227.87
828.32	227.85
828.64	227.82
828.95	227.87
829.27	227.85
829.58	227.83
829.90	227.80
830.22	227.79
830.53	227.74
830.85	227.74
831.17	227.67
831.48	227.63
831.80	227.62
832.11	227.56
832.43	227.53
832.75	227.49
833.06	227.50
833.38	227.46
833.69	227.40
834.01	227.40
834.32	227.37
834.64	227.35
834.96	227.30
835.27	227.25
835.59	227.19
835.90	227.15
836.22	227.12
836.53	227.09
836.85	227.07
837.16	227.12
837.48	227.11
837.79	227.12
838.11	227.12
838.42	227.11
838.74	227.11
839.05	227.11
839.37	227.11
839.68	227.02
840.00	227.00
840.31	227.06
840.63	227.05
840.94	227.01
841.26	226.98
841.57	226.99
841.88	227.01
842.20	227.02
842.51	226.98
842.83	226.99
843.14	227.06
843.46	227.07
843.77	227.00
844.08	226.97
844.40	226.96
844.71	226.97
845.03	226.95
845.34	226.92
845.65	226.91
845.97	226.91
846.28	226.94
846.60	226.93
846.91	226.90
847.22	226.88
847.54	226.91
847.85	226.94
848.16	226.91
848.48	226.87
848.79	226.87
849.10	226.90
849.42	226.88
849.73	226.83
850.04	226.81
850.36	226.79
850.67	226.83
850.98	226.84
851.30	226.85
851.61	226.83
851.92	226.85
852.23	226.88
852.55	226.89
852.86	226.88
853.17	226.92
853.49	226.94
853.80	226.95
854.11	226.93
854.42	226.94
854.74	226.97
855.05	227.01
855.36	226.95
855.67	226.97
855.99	226.99
856.30	227.08
856.61	227.12
856.92	227.13
857.23	227.09
857.55	227.09
857.86	227.07
858.17	227.09
858.48	227.08
858.79	227.01
859.11	227.01
859.42	227.00
859.73	226.96
860.04	226.95
860.35	226.98
860.66	226.97
860.98	226.98
861.29	226.98
861.60	226.96
861.91	226.99
862.22	226.95
862.53	226.92
862.84	226.80
863.16	226.79
863.47	226.78
863.78	226.79
864.09	226.79
864.40	226.80
864.71	226.81
865.02	226.82
865.33	226.85
865.64	226.84
865.95	226.85
866.27	226.93
866.58	226.95
866.89	226.91
867.20	226.91
867.51	226.90
867.82	226.89
868.13	226.92
868.44	226.89
868.75	226.93
869.06	226.93
869.37	226.97
869.68	226.92
869.99	226.93
870.30	226.89
870.61	226.90
870.92	226.86
871.23	226.84
871.54	226.83
871.85	226.83
872.16	226.82
872.47	226.81
872.78	226.74
873.09	226.70
873.40	226.69
873.71	226.70
874.02	226.65
874.33	226.61
874.64	226.60
874.95	226.62
875.26	226.57
875.56	226.59
875.87	226.52
876.18	226.54
876.49	226.64
876.80	226.65
877.11	226.64
877.42	226.62
877.73	226.63
878.04	226.64
878.35	226.66
878.66	226.67
878.96	226.67
879.27	226.66
879.58	226.67
879.89	226.66
880.20	226.67
880.51	226.67
880.82	226.69
881.12	226.67
881.43	226.65
881.74	226.62
882.05	226.63
882.36	226.65
882.67	226.64
882.97	226.55
883.28	226.55
883.59	226.51
883.90	226.54
884.21	226.54
884.51	226.53
884.82	226.50
885.13	226.54
885.44	226.52
885.74	226.53
886.05	226.51
886.36	226.54
886.67	226.51
886.98	226.58
887.28	226.59
887.59	226.60
887.90	226.58
888.20	226.60
888.51	226.59
888.82	226.60
889.13	226.63
889.43	226.68
889.74	226.67
890.05	226.72
890.35	226.74
890.66	226.74
890.97	226.73
891.28	226.75
891.58	226.72
891.89	226.72
892.20	226.70
892.50	226.74
892.81	226.72
893.12	226.73
893.42	226.72
893.73	226.73
894.04	226.74
894.34	226.79
894.65	226.81
894.95	226.80
895.26	226.78
895.57	226.80
895.87	226.75
896.18	226.75
896.48	226.71
896.79	226.67
897.10	226.70
897.40	226.70
897.71	226.69
898.01	226.70
898.32	226.70
898.63	226.70
898.93	226.68
899.24	226.69
899.54	226.65
899.85	226.59
900.15	226.60
900.46	226.59
900.76	226.59
901.07	226.57
901.38	226.59
901.68	226.62
901.99	226.58
902.29	226.55
902.60	226.54
902.90	226.54
903.21	226.54
903.51	226.51
903.82	226.52
904.12	226.48
904.43	226.48
904.73	226.49
905.03	226.51
905.34	226.59
905.64	226.56
905.95	226.59
906.25	226.60
906.56	226.60
906.86	226.59
907.17	226.58
907.47	226.58
907.77	226.55
908.08	226.51
908.38	226.50
908.69	226.53
908.99	226.58
909.30	226.59
909.60	226.60
909.90	226.59
910.21	226.57
910.51	226.55
910.81	226.52
911.12	226.50
911.42	226.45
911.73	226.37
912.03	226.37
912.33	226.36
912.64	226.33
912.94	226.29
913.24	226.26
913.55	226.23
913.85	226.22
914.15	226.22
914.46	226.23
914.76	226.23
915.06	226.17
915.37	226.14
915.67	226.12
915.97	226.11
916.27	226.08
916.58	226.07
916.88	226.10
917.18	226.07
917.49	226.15
917.79	226.19
918.09	226.21
918.39	226.23
918.70	226.23
919.00	226.25
919.30	226.31
919.60	226.33
919.91	226.33
920.21	226.33
920.51	226.33
920.81	226.31
921.12	226.34
921.42	226.36
921.72	226.36
922.02	226.39
922.32	226.41
922.63	226.40
922.93	226.46
923.23	226.45
923.53	226.48
923.83	226.42
924.13	226.42
924.44	226.39
924.74	226.38
925.04	226.43
925.34	226.44
925.64	226.44
925.94	226.44
926.24	226.50
926.55	226.48
926.85	226.48
927.15	226.52
927.45	226.50
927.75	226.52
928.05	226.52
928.35	226.52
928.65	226.50
928.95	226.55
929.26	226.50
929.56	226.52
929.86	226.56
930.16	226.54
930.46	226.50
930.76	226.53
931.06	226.51
931.36	226.48
931.66	226.46
931.96	226.44
932.26	226.44
932.56	226.41
932.86	226.44
933.16	226.45
933.46	226.42
933.76	226.39
934.06	226.40
934.36	226.43
934.66	226.44
934.96	226.44
935.26	226.43
935.56	226.44
935.86	226.39
936.16	226.38
936.46	226.37
936.76	226.35
937.06	226.34
937.36	226.36
937.66	226.37
937.96	226.40
938.26	226.37
938.56	226.32
938.86	226.32
939.16	226.31
939.46	226.31
939.76	226.31
940.06	226.34
940.35	226.30
940.65	226.26
940.95	226.24
941.25	226.22
941.55	226.21
941.85	226.22
942.15	226.27
942.45	226.26
942.75	226.26
943.04	226.28
943.34	226.29
943.64	226.30
943.94	226.28
944.24	226.24
944.54	226.27
944.84	226.29
945.13	226.28
945.43	226.28
945.73	226.25
946.03	226.25
946.33	226.23
946.62	226.24
946.92	226.23
947.22	226.24
947.52	226.26
947.82	226.25
948.11	226.22
948.41	226.18
948.71	226.17
949.01	226.15
949.31	226.16
949.60	226.13
949.90	226.12
950.20	226.12
950.50	226.12
950.79	226.12
951.09	226.11
951.39	226.08
951.69	226.05
951.98	226.10
952.28	226.09
952.58	226.06
952.87	226.06
953.17	226.08
953.47	226.07
953.76	226.06
954.06	226.07
954.36	226.10
954.66	226.12
954.95	226.14
955.25	226.17
955.55	226.18
955.84	226.16
956.14	226.18
956.44	226.17
956.73	226.14
957.03	226.15
957.32	226.15
957.62	226.16
957.92	226.19
958.21	226.19
958.51	226.31
958.81	226.33
959.10	226.32
959.40	226.35
959.69	226.34
959.99	226.38
960.29	226.37
960.58	226.37
960.88	226.42
961.17	226.37
961.47	226.37
961.76	226.36
962.06	226.39
962.36	226.34
962.65	226.36
962.95	226.41
963.24	226.37
963.54	226.38
963.83	226.41
964.13	226.41
964.42	226.38
964.72	226.31
965.01	226.34
965.31	226.35
965.60	226.35
965.90	226.42
966.19	226.37
966.49	226.37
966.78	226.36
967.08	226.33
967.37	226.37
967.67	226.36
967.96	226.36
968.26	226.35
968.55	226.37
968.85	226.39
969.14	226.36
969.43	226.38
969.73	226.37
970.02	226.36
970.32	226.35
970.61	226.34
970.91	226.29
971.20	226.22
971.49	226.20
971.79	226.18
972.08	226.15
972.38	226.20
972.67	226.20
972.96	226.23
973.26	226.23
973.55	226.25
973.85	226.28
974.14	226.28
974.43	226.31
974.73	226.32
975.02	226.28
975.31	226.33
975.61	226.34
975.90	226.37
976.19	226.36
976.49	226.38
976.78	226.39
977.07	226.41
977.37	226.48
977.66	226.49
977.95	226.50
978.24	226.51
978.54	226.50
978.83	226.49
979.12	226.45
979.42	226.44
979.71	226.43
980.00	226.42
980.29	226.44
980.59	226.40
980.88	226.42
981.17	226.45
981.46	226.42
981.76	226.43
982.05	226.47
982.34	226.47
982.63	226.46
982.93	226.48
983.22	226.52
983.51	226.53
983.80	226.55
984.09	226.51
984.39	226.48
984.68	226.45
984.97	226.43
985.26	226.42
985.55	226.42
985.85	226.37
986.14	226.36
986.43	226.37
986.72	226.38
987.01	226.34
987.30	226.32
987.59	226.28
987.89	226.25
988.18	226.17
988.47	226.17
988.76	226.15
989.05	226.11
989.34	226.08
989.63	226.06
989.92	226.03
990.22	226.07
990.51	226.08
990.80	226.06
991.09	226.08
991.38	226.08
991.67	226.06
991.96	226.05
992.25	226.06
992.54	226.01
992.83	226.02
993.12	226.00
993.41	226.02
993.70	226.05
993.99	226.09
994.28	226.11
994.58	226.13
994.87	226.12
995.16	226.12
995.45	226.08
995.74	226.08
996.03	226.10
996.32	226.10
996.61	226.11
996.90	226.10
997.19	226.10
997.48	226.08
997.77	226.10
998.06	226.10
998.34	226.09
998.63	226.10
998.92	226.07
999.21	226.10
999.50	226.09
999.79	226.07
1000.08	226.04
1000.37	226.03
1000.66	226.00
1000.95	225.99
1001.24	226.00
1001.53	226.02
1001.82	225.98
1002.11	225.92
1002.40	225.93
1002.68	225.93
1002.97	226.00
1003.26	225.97
1003.55	225.99
1003.84	225.97
1004.13	226.02
1004.42	226.01
1004.71	226.04
1004.99	226.04
1005.28	226.04
1005.57	226.06
1005.86	226.03
1006.15	226.06
1006.44	226.05
1006.72	226.06
1007.01	226.06
1007.30	226.06
1007.59	226.08
1007.88	226.10
1008.17	226.14
1008.45	226.12
1008.74	226.09
1009.03	226.04
1009.32	226.07
1009.60	226.09
1009.89	226.11
1010.18	226.09
1010.47	226.07
1010.76	226.04
1011.04	226.06
1011.33	226.05
1011.62	226.04
1011.91	226.09
1012.19	226.08
1012.48	226.09
1012.77	226.09
1013.05	226.18
1013.34	226.17
1013.63	226.14
1013.92	226.13
1014.20	226.09
1014.49	226.08
1014.78	226.09
1015.06	226.09
1015.35	226.09
1015.64	226.08
1015.92	226.07
1016.21	226.05
1016.50	226.12
1016.78	226.10
1017.07	226.09
1017.36	226.08
1017.64	226.08
1017.93	226.07
1018.22	226.03
1018.50	226.03
1018.79	226.03
1019.08	225.98
1019.36	226.00
1019.65	225.99
1019.93	226.03
1020.22	226.10
1020.51	226.14
1020.79	226.14
1021.08	225.41
1021.36	225.99
1021.65	226.18
1021.94	226.24
1022.22	226.12
1022.51	225.54
1022.79	226.72
1023.08	226.40
1023.36	227.32
1023.65	225.94
>>>>>End Processed Spectral Data<<<<<
