SpectraSuite Data File
++++++++++++++++++++++++++++++++++++
Date: Fri Feb 01 17:26:42 EST 2013
User: group
Dark Spectrum Present: No
Reference Spectrum Present: No
Number of Sampled Component Spectra: 1
Spectrometers: USB2E7196
Integration Time (usec): 35000 (USB2E7196)
Spectra Averaged: 100 (USB2E7196)
Boxcar Smoothing: 10 (USB2E7196)
Correct for Electrical Dark: No (USB2E7196)
Strobe/Lamp Enabled: No (USB2E7196)
Correct for Detector Non-linearity: No (USB2E7196)
Correct for Stray Light: No (USB2E7196)
Number of Pixels in Processed Spectrum: 2048
>>>>>Begin Processed Spectral Data<<<<<
339.09	0.00
339.48	212.51
339.86	214.25
340.24	214.53
340.63	216.41
341.01	220.05
341.39	219.88
341.78	220.81
342.16	221.83
342.54	222.55
342.93	211.01
343.31	221.68
343.69	222.21
344.07	222.68
344.46	223.16
344.84	223.57
345.22	223.78
345.60	224.04
345.99	224.24
346.37	224.40
346.75	224.52
347.13	224.62
347.52	224.70
347.90	224.80
348.28	224.84
348.66	224.94
349.05	224.94
349.43	224.96
349.81	225.05
350.19	225.15
350.57	225.20
350.96	225.26
351.34	225.35
351.72	225.45
352.10	225.54
352.48	225.61
352.87	225.68
353.25	225.79
353.63	225.84
354.01	225.91
354.39	225.97
354.77	226.05
355.15	226.18
355.54	226.22
355.92	226.22
356.30	226.35
356.68	226.48
357.06	226.54
357.44	226.61
357.82	226.67
358.20	226.72
358.58	226.81
358.97	226.91
359.35	227.01
359.73	227.11
360.11	227.18
360.49	227.25
360.87	227.32
361.25	227.36
361.63	227.47
362.01	227.51
362.39	227.57
362.77	227.59
363.15	227.60
363.53	227.65
363.91	227.69
364.29	227.67
364.67	227.58
365.05	227.62
365.43	227.67
365.81	227.68
366.19	227.75
366.57	227.79
366.95	227.77
367.33	227.77
367.71	227.74
368.09	227.75
368.47	227.74
368.85	227.72
369.23	227.76
369.61	227.68
369.99	227.70
370.37	227.68
370.75	227.73
371.13	227.69
371.51	227.63
371.89	227.60
372.27	227.55
372.65	227.51
373.03	227.46
373.41	227.40
373.78	227.36
374.16	227.25
374.54	227.13
374.92	227.07
375.30	226.97
375.68	226.91
376.06	226.82
376.44	226.77
376.82	226.70
377.19	226.59
377.57	226.53
377.95	226.44
378.33	226.34
378.71	226.20
379.09	226.15
379.47	226.12
379.84	226.02
380.22	225.97
380.60	225.92
380.98	225.83
381.36	225.75
381.73	225.67
382.11	225.62
382.49	225.58
382.87	225.54
383.25	225.47
383.62	225.50
384.00	225.46
384.38	225.36
384.76	225.35
385.13	225.33
385.51	225.28
385.89	225.19
386.27	225.18
386.64	225.14
387.02	225.08
387.40	225.03
387.78	225.01
388.15	224.98
388.53	224.91
388.91	224.92
389.29	224.86
389.66	224.86
390.04	224.81
390.42	224.79
390.79	224.77
391.17	224.78
391.55	224.67
391.92	224.61
392.30	224.59
392.68	224.54
393.05	224.54
393.43	224.53
393.81	224.53
394.18	224.49
394.56	224.50
394.94	224.50
395.31	224.48
395.69	224.54
396.06	224.58
396.44	224.60
396.82	224.58
397.19	224.67
397.57	224.66
397.95	224.70
398.32	224.69
398.70	224.73
399.07	224.79
399.45	224.83
399.82	224.93
400.20	225.00
400.58	225.07
400.95	225.09
401.33	225.20
401.70	225.34
402.08	225.44
402.45	225.51
402.83	225.60
403.20	225.69
403.58	225.77
403.95	225.88
404.33	226.01
404.71	226.14
405.08	226.32
405.46	226.44
405.83	226.59
406.21	226.73
406.58	226.87
406.96	227.00
407.33	227.17
407.70	227.34
408.08	227.59
408.45	227.84
408.83	228.07
409.20	228.29
409.58	228.51
409.95	228.78
410.33	229.06
410.70	229.35
411.08	229.66
411.45	229.95
411.82	230.26
412.20	230.66
412.57	231.09
412.95	231.39
413.32	231.84
413.69	232.23
414.07	232.71
414.44	233.23
414.82	233.74
415.19	234.33
415.56	234.89
415.94	235.46
416.31	236.12
416.68	236.75
417.06	237.49
417.43	238.19
417.81	239.02
418.18	239.81
418.55	240.67
418.93	241.57
419.30	242.48
419.67	243.46
420.04	244.44
420.42	245.48
420.79	246.70
421.16	247.87
421.54	249.12
421.91	250.37
422.28	251.69
422.66	253.06
423.03	254.38
423.40	255.76
423.77	257.25
424.15	258.70
424.52	260.23
424.89	261.92
425.26	263.51
425.64	264.97
426.01	266.63
426.38	268.33
426.75	270.08
427.13	271.87
427.50	273.74
427.87	275.71
428.24	277.62
428.61	279.43
428.99	281.44
429.36	283.63
429.73	285.80
430.10	287.85
430.47	290.00
430.85	292.23
431.22	294.54
431.59	296.99
431.96	299.33
432.33	301.94
432.70	304.36
433.08	307.27
433.45	310.05
433.82	312.75
434.19	315.77
434.56	318.72
434.93	321.49
435.30	324.20
435.68	327.15
436.05	330.12
436.42	332.99
436.79	335.58
437.16	338.39
437.53	341.34
437.90	344.26
438.27	347.08
438.64	350.00
439.01	352.72
439.38	355.07
439.75	357.33
440.13	359.92
440.50	362.34
440.87	364.29
441.24	366.28
441.61	368.51
441.98	370.04
442.35	371.88
442.72	373.80
443.09	375.72
443.46	376.77
443.83	377.39
444.20	377.96
444.57	378.85
444.94	379.16
445.31	379.50
445.68	379.88
446.05	380.04
446.42	379.67
446.79	379.26
447.16	378.78
447.53	378.48
447.90	377.33
448.27	376.15
448.64	374.55
449.01	373.39
449.37	371.39
449.74	369.46
450.11	367.12
450.48	364.61
450.85	361.99
451.22	359.79
451.59	357.70
451.96	355.67
452.33	353.02
452.70	350.60
453.07	347.67
453.43	344.69
453.80	341.81
454.17	339.03
454.54	336.38
454.91	333.54
455.28	330.77
455.65	328.13
456.02	325.59
456.38	323.31
456.75	320.54
457.12	318.26
457.49	315.99
457.86	313.72
458.23	311.77
458.59	309.62
458.96	307.42
459.33	305.50
459.70	303.55
460.07	301.99
460.43	300.19
460.80	298.52
461.17	297.04
461.54	295.47
461.91	293.99
462.27	292.46
462.64	291.20
463.01	289.75
463.38	288.41
463.74	286.99
464.11	285.80
464.48	284.73
464.85	283.55
465.21	282.58
465.58	281.65
465.95	280.51
466.32	279.57
466.68	278.65
467.05	277.71
467.42	276.78
467.78	275.82
468.15	274.91
468.52	274.23
468.88	273.33
469.25	272.52
469.62	271.85
469.98	271.18
470.35	270.52
470.72	269.92
471.08	269.25
471.45	268.68
471.82	268.12
472.18	267.47
472.55	267.01
472.92	266.50
473.28	266.02
473.65	265.57
474.02	265.13
474.38	264.76
474.75	264.46
475.11	264.11
475.48	263.81
475.85	263.57
476.21	263.31
476.58	263.11
476.94	263.01
477.31	262.83
477.67	262.67
478.04	262.58
478.41	262.51
478.77	262.60
479.14	262.56
479.50	262.57
479.87	262.67
480.23	262.73
480.60	262.82
480.96	262.91
481.33	263.12
481.69	263.33
482.06	263.54
482.42	263.69
482.79	263.99
483.15	264.31
483.52	264.66
483.88	265.06
484.25	265.47
484.61	265.87
484.98	266.34
485.34	266.89
485.71	267.49
486.07	268.07
486.44	268.61
486.80	269.31
487.17	270.05
487.53	270.90
487.90	271.75
488.26	272.68
488.62	273.67
488.99	274.64
489.35	275.69
489.72	276.82
490.08	278.02
490.44	279.24
490.81	280.55
491.17	281.91
491.54	283.34
491.90	284.87
492.26	286.51
492.63	288.23
492.99	290.05
493.36	291.91
493.72	293.95
494.08	296.04
494.45	298.26
494.81	300.65
495.17	303.05
495.54	305.62
495.90	308.31
496.26	311.08
496.63	314.02
496.99	317.11
497.35	320.34
497.72	323.73
498.08	327.21
498.44	330.88
498.80	334.77
499.17	338.82
499.53	342.96
499.89	347.27
500.26	351.76
500.62	356.29
500.98	361.21
501.34	366.25
501.71	371.52
502.07	376.91
502.43	382.40
502.79	388.14
503.16	394.17
503.52	400.32
503.88	406.71
504.24	413.26
504.60	419.99
504.97	427.01
505.33	434.23
505.69	441.84
506.05	449.51
506.41	457.26
506.78	465.27
507.14	473.53
507.50	482.08
507.86	490.91
508.22	499.98
508.59	509.07
508.95	518.44
509.31	528.06
509.67	537.97
510.03	548.03
510.39	558.35
510.75	568.92
511.12	579.59
511.48	590.56
511.84	601.77
512.20	613.07
512.56	624.65
512.92	636.52
513.28	648.53
513.64	660.69
514.00	673.18
514.37	685.82
514.73	698.54
515.09	711.30
515.45	724.23
515.81	737.48
516.17	751.00
516.53	764.83
516.89	778.69
517.25	792.48
517.61	806.55
517.97	820.63
518.33	834.68
518.69	849.14
519.05	863.73
519.41	878.47
519.77	893.53
520.13	908.62
520.49	923.66
520.85	938.57
521.21	953.79
521.57	969.56
521.93	984.93
522.29	1000.80
522.65	1016.65
523.01	1032.43
523.37	1048.08
523.73	1063.86
524.09	1079.40
524.45	1095.16
524.81	1111.32
525.17	1127.61
525.53	1144.03
525.89	1160.47
526.25	1176.71
526.61	1192.74
526.97	1208.98
527.33	1225.04
527.68	1241.25
528.04	1257.19
528.40	1273.35
528.76	1290.01
529.12	1306.11
529.48	1322.51
529.84	1338.14
530.20	1354.37
530.56	1370.91
530.91	1387.79
531.27	1404.15
531.63	1420.22
531.99	1436.48
532.35	1452.10
532.71	1467.60
533.07	1483.42
533.42	1498.92
533.78	1514.65
534.14	1530.47
534.50	1545.61
534.86	1561.10
535.21	1575.86
535.57	1591.56
535.93	1606.80
536.29	1621.25
536.65	1636.05
537.00	1650.44
537.36	1665.51
537.72	1679.55
538.08	1693.80
538.44	1707.33
538.79	1721.13
539.15	1734.44
539.51	1747.88
539.87	1761.89
540.22	1775.45
540.58	1789.08
540.94	1802.19
541.29	1814.84
541.65	1827.39
542.01	1840.40
542.37	1852.69
542.72	1865.12
543.08	1876.72
543.44	1889.07
543.79	1900.34
544.15	1911.23
544.51	1922.86
544.87	1933.74
545.22	1944.82
545.58	1954.92
545.94	1964.71
546.29	1974.56
546.65	1984.78
547.01	1994.24
547.36	2003.22
547.72	2011.86
548.07	2019.95
548.43	2028.16
548.79	2036.37
549.14	2044.11
549.50	2051.57
549.86	2059.25
550.21	2066.72
550.57	2074.08
550.92	2080.76
551.28	2088.06
551.64	2095.35
551.99	2102.05
552.35	2108.40
552.70	2114.61
553.06	2121.09
553.41	2127.80
553.77	2133.98
554.13	2140.12
554.48	2146.27
554.84	2152.14
555.19	2157.55
555.55	2162.91
555.90	2167.78
556.26	2173.10
556.61	2178.07
556.97	2182.71
557.32	2187.39
557.68	2191.82
558.03	2196.47
558.39	2200.41
558.74	2205.23
559.10	2209.52
559.45	2213.54
559.81	2218.19
560.16	2222.34
560.52	2225.78
560.87	2229.46
561.23	2232.50
561.58	2235.69
561.94	2238.74
562.29	2241.22
562.64	2244.45
563.00	2247.38
563.35	2251.23
563.71	2254.55
564.06	2258.11
564.42	2261.38
564.77	2264.23
565.12	2267.08
565.48	2269.59
565.83	2272.05
566.19	2273.95
566.54	2275.06
566.89	2276.60
567.25	2277.61
567.60	2279.30
567.96	2281.50
568.31	2282.66
568.66	2284.34
569.02	2285.51
569.37	2286.33
569.72	2287.88
570.08	2288.50
570.43	2288.92
570.78	2288.88
571.14	2287.76
571.49	2286.73
571.84	2286.62
572.20	2285.93
572.55	2285.08
572.90	2283.56
573.26	2282.58
573.61	2280.97
573.96	2279.91
574.31	2277.28
574.67	2274.80
575.02	2271.56
575.37	2268.33
575.72	2265.08
576.08	2261.79
576.43	2258.62
576.78	2255.35
577.13	2252.14
577.49	2249.14
577.84	2246.08
578.19	2242.52
578.54	2239.38
578.90	2235.73
579.25	2230.59
579.60	2226.09
579.95	2221.46
580.30	2216.77
580.66	2211.90
581.01	2207.33
581.36	2202.56
581.71	2198.86
582.06	2194.71
582.42	2190.73
582.77	2185.91
583.12	2181.69
583.47	2177.47
583.82	2172.96
584.17	2167.98
584.53	2163.01
584.88	2157.74
585.23	2152.27
585.58	2147.04
585.93	2141.90
586.28	2137.23
586.63	2132.69
586.98	2127.81
587.34	2123.31
587.69	2118.70
588.04	2113.76
588.39	2108.40
588.74	2102.13
589.09	2096.23
589.44	2089.69
589.79	2083.64
590.14	2078.13
590.49	2071.67
590.84	2065.41
591.19	2059.52
591.54	2053.24
591.89	2046.17
592.25	2039.77
592.60	2032.73
592.95	2025.62
593.30	2018.51
593.65	2011.02
594.00	2004.00
594.35	1996.90
594.70	1988.94
595.05	1982.13
595.40	1974.98
595.75	1967.63
596.10	1961.75
596.45	1955.07
596.80	1949.04
597.15	1942.74
597.50	1936.13
597.85	1929.73
598.19	1923.24
598.54	1916.62
598.89	1910.04
599.24	1904.17
599.59	1897.69
599.94	1891.54
600.29	1885.15
600.64	1878.55
600.99	1871.32
601.34	1864.57
601.69	1857.54
602.04	1850.98
602.39	1843.59
602.74	1836.82
603.08	1830.19
603.43	1823.39
603.78	1816.19
604.13	1809.05
604.48	1801.99
604.83	1795.03
605.18	1788.39
605.53	1780.51
605.87	1772.32
606.22	1765.12
606.57	1757.23
606.92	1749.67
607.27	1742.68
607.62	1735.93
607.96	1728.84
608.31	1722.38
608.66	1714.99
609.01	1707.55
609.36	1699.89
609.70	1692.00
610.05	1684.09
610.40	1676.47
610.75	1668.24
611.10	1660.55
611.44	1652.06
611.79	1643.76
612.14	1634.99
612.49	1625.60
612.83	1617.08
613.18	1608.72
613.53	1600.53
613.88	1591.86
614.22	1583.58
614.57	1574.81
614.92	1566.55
615.27	1558.86
615.61	1550.51
615.96	1542.27
616.31	1534.46
616.65	1527.03
617.00	1519.30
617.35	1511.50
617.70	1502.97
618.04	1494.38
618.39	1485.95
618.74	1478.31
619.08	1469.95
619.43	1462.29
619.78	1455.41
620.12	1448.28
620.47	1440.80
620.82	1432.55
621.16	1424.99
621.51	1417.21
621.85	1409.50
622.20	1401.03
622.55	1392.57
622.89	1384.54
623.24	1376.80
623.59	1369.29
623.93	1361.69
624.28	1354.41
624.62	1346.75
624.97	1339.56
625.32	1332.53
625.66	1325.55
626.01	1318.35
626.35	1311.08
626.70	1303.23
627.04	1295.41
627.39	1287.44
627.73	1279.95
628.08	1272.96
628.43	1265.75
628.77	1258.39
629.12	1250.73
629.46	1243.40
629.81	1235.75
630.15	1228.45
630.50	1220.94
630.84	1212.76
631.19	1204.73
631.53	1197.05
631.88	1189.41
632.22	1181.74
632.57	1174.41
632.91	1166.76
633.26	1159.28
633.60	1151.59
633.95	1144.25
634.29	1137.01
634.64	1130.24
634.98	1122.91
635.32	1115.83
635.67	1109.05
636.01	1102.29
636.36	1095.44
636.70	1088.80
637.05	1082.19
637.39	1075.67
637.73	1069.12
638.08	1063.15
638.42	1057.07
638.77	1050.62
639.11	1044.11
639.45	1037.70
639.80	1031.05
640.14	1024.57
640.49	1018.01
640.83	1011.69
641.17	1005.63
641.52	999.34
641.86	992.80
642.20	986.78
642.55	980.26
642.89	973.85
643.23	967.20
643.58	961.42
643.92	955.29
644.26	949.33
644.61	943.19
644.95	937.20
645.29	930.61
645.64	923.81
645.98	917.42
646.32	911.33
646.66	905.27
647.01	899.49
647.35	893.82
647.69	887.90
648.04	882.36
648.38	876.47
648.72	870.56
649.06	864.57
649.41	858.72
649.75	852.83
650.09	846.74
650.43	840.99
650.78	834.81
651.12	828.81
651.46	822.97
651.80	817.31
652.14	811.82
652.49	806.42
652.83	801.32
653.17	795.65
653.51	790.01
653.85	784.55
654.20	778.89
654.54	772.81
654.88	766.97
655.22	761.02
655.56	755.31
655.90	749.71
656.25	744.41
656.59	738.98
656.93	733.75
657.27	728.68
657.61	723.25
657.95	718.18
658.29	713.05
658.64	707.77
658.98	702.31
659.32	696.80
659.66	691.58
660.00	686.29
660.34	681.27
660.68	676.34
661.02	671.27
661.36	666.53
661.70	662.00
662.05	657.66
662.39	653.38
662.73	648.94
663.07	644.57
663.41	640.10
663.75	635.66
664.09	631.07
664.43	626.60
664.77	622.46
665.11	618.19
665.45	614.03
665.79	609.95
666.13	605.86
666.47	601.76
666.81	597.63
667.15	593.38
667.49	589.45
667.83	585.50
668.17	581.53
668.51	577.36
668.85	573.37
669.19	569.45
669.53	565.55
669.87	561.64
670.21	557.88
670.55	554.19
670.89	550.71
671.23	547.32
671.57	543.79
671.91	540.20
672.25	536.58
672.58	533.00
672.92	529.55
673.26	526.34
673.60	523.10
673.94	519.98
674.28	517.04
674.62	514.07
674.96	510.99
675.30	508.04
675.64	505.17
675.97	502.29
676.31	499.40
676.65	496.46
676.99	493.68
677.33	490.81
677.67	487.99
678.01	484.92
678.34	481.92
678.68	479.00
679.02	476.20
679.36	473.43
679.70	470.72
680.04	467.99
680.37	465.09
680.71	462.28
681.05	459.60
681.39	456.92
681.73	454.25
682.06	451.70
682.40	449.25
682.74	446.64
683.08	444.07
683.42	441.45
683.75	438.93
684.09	436.36
684.43	433.79
684.77	431.34
685.10	428.95
685.44	426.63
685.78	424.37
686.12	422.08
686.45	419.73
686.79	417.40
687.13	415.14
687.46	412.98
687.80	410.80
688.14	408.53
688.48	406.45
688.81	404.22
689.15	402.07
689.49	399.83
689.82	397.73
690.16	395.61
690.50	393.63
690.83	391.69
691.17	389.68
691.51	387.77
691.84	385.86
692.18	383.96
692.52	382.01
692.85	380.01
693.19	378.10
693.52	376.30
693.86	374.43
694.20	372.65
694.53	370.81
694.87	368.91
695.21	367.11
695.54	365.20
695.88	363.43
696.21	361.65
696.55	359.93
696.88	358.23
697.22	356.53
697.56	354.86
697.89	353.18
698.23	351.61
698.56	350.00
698.90	348.42
699.23	346.75
699.57	345.17
699.90	343.63
700.24	342.06
700.58	340.49
700.91	339.00
701.25	337.53
701.58	336.17
701.92	334.83
702.25	333.45
702.59	332.12
702.92	330.80
703.26	329.47
703.59	328.14
703.93	326.90
704.26	325.66
704.60	324.34
704.93	323.06
705.26	321.78
705.60	320.54
705.93	319.34
706.27	318.27
706.60	317.15
706.94	316.02
707.27	314.87
707.61	313.77
707.94	312.71
708.27	311.57
708.61	310.46
708.94	309.40
709.28	308.37
709.61	307.35
709.94	306.36
710.28	305.36
710.61	304.34
710.95	303.26
711.28	302.33
711.61	301.37
711.95	300.46
712.28	299.49
712.61	298.55
712.95	297.56
713.28	296.58
713.61	295.70
713.95	294.78
714.28	293.96
714.61	293.09
714.95	292.22
715.28	291.36
715.61	290.42
715.95	289.54
716.28	288.67
716.61	287.81
716.95	286.96
717.28	286.14
717.61	285.36
717.94	284.62
718.28	283.81
718.61	283.06
718.94	282.30
719.27	281.60
719.61	280.92
719.94	280.25
720.27	279.57
720.60	278.86
720.94	278.26
721.27	277.63
721.60	277.02
721.93	276.41
722.27	275.81
722.60	275.28
722.93	274.69
723.26	274.15
723.59	273.64
723.93	273.09
724.26	272.57
724.59	272.02
724.92	271.45
725.25	270.91
725.59	270.36
725.92	269.87
726.25	269.36
726.58	268.88
726.91	268.41
727.24	267.92
727.57	267.44
727.91	266.90
728.24	266.41
728.57	265.92
728.90	265.45
729.23	264.97
729.56	264.55
729.89	264.12
730.22	263.64
730.55	263.12
730.89	262.67
731.22	262.21
731.55	261.79
731.88	261.39
732.21	260.99
732.54	260.59
732.87	260.18
733.20	259.77
733.53	259.37
733.86	258.96
734.19	258.60
734.52	258.22
734.85	257.91
735.18	257.51
735.51	257.16
735.84	256.81
736.17	256.49
736.50	256.07
736.83	255.86
737.16	255.50
737.49	255.19
737.82	254.83
738.15	254.51
738.48	254.14
738.81	253.80
739.14	253.47
739.47	253.14
739.80	252.82
740.13	252.55
740.46	252.19
740.79	251.89
741.12	251.60
741.45	251.30
741.78	250.94
742.11	250.68
742.44	250.35
742.77	250.03
743.10	249.70
743.43	249.40
743.75	248.97
744.08	248.87
744.41	248.56
744.74	248.32
745.07	248.03
745.40	247.76
745.73	247.49
746.06	247.21
746.39	246.94
746.71	246.65
747.04	246.34
747.37	246.07
747.70	245.82
748.03	245.52
748.36	245.28
748.68	245.05
749.01	244.78
749.34	244.57
749.67	244.35
750.00	244.12
750.33	243.93
750.65	243.69
750.98	243.29
751.31	243.07
751.64	242.84
751.97	242.65
752.29	242.45
752.62	242.20
752.95	241.99
753.28	241.76
753.60	241.57
753.93	241.42
754.26	241.24
754.59	240.99
754.91	240.75
755.24	240.51
755.57	240.30
755.90	240.11
756.22	239.87
756.55	239.65
756.88	239.42
757.20	239.18
757.53	238.98
757.86	238.80
758.19	238.66
758.51	238.46
758.84	238.24
759.17	238.07
759.49	237.91
759.82	237.80
760.15	237.64
760.47	237.46
760.80	237.24
761.13	237.07
761.45	236.93
761.78	236.80
762.11	236.66
762.43	236.53
762.76	236.36
763.08	236.25
763.41	236.14
763.74	236.00
764.06	235.89
764.39	235.77
764.71	235.63
765.04	235.48
765.37	235.34
765.69	235.23
766.02	235.12
766.34	234.97
766.67	234.80
767.00	234.71
767.32	234.68
767.65	234.64
767.97	234.52
768.30	234.41
768.62	234.30
768.95	234.19
769.27	234.05
769.60	233.97
769.92	233.82
770.25	233.70
770.57	233.59
770.90	233.47
771.22	233.36
771.55	233.26
771.87	233.17
772.20	233.06
772.52	233.06
772.85	233.08
773.17	233.00
773.50	232.91
773.82	232.81
774.15	232.65
774.47	232.50
774.80	232.43
775.12	232.38
775.45	232.31
775.77	232.23
776.09	232.15
776.42	232.06
776.74	232.00
777.07	231.88
777.39	231.85
777.72	231.78
778.04	231.74
778.36	231.67
778.69	231.61
779.01	231.54
779.33	231.39
779.66	231.17
779.98	231.12
780.31	231.06
780.63	231.04
780.95	230.99
781.28	230.93
781.60	230.85
781.92	230.78
782.25	230.69
782.57	230.62
782.89	230.57
783.22	230.49
783.54	230.41
783.86	230.39
784.19	230.28
784.51	230.24
784.83	230.16
785.16	230.07
785.48	230.03
785.80	229.99
786.12	229.95
786.45	229.91
786.77	229.87
787.09	229.80
787.42	229.69
787.74	229.64
788.06	229.58
788.38	229.54
788.71	229.46
789.03	229.42
789.35	229.38
789.67	229.35
789.99	229.31
790.32	229.31
790.64	229.28
790.96	229.33
791.28	229.27
791.61	229.21
791.93	229.22
792.25	229.14
792.57	229.14
792.89	229.06
793.21	229.01
793.54	228.97
793.86	228.90
794.18	228.88
794.50	228.80
794.82	228.77
795.14	228.72
795.47	228.69
795.79	228.67
796.11	228.61
796.43	228.54
796.75	228.51
797.07	228.44
797.39	228.37
797.71	228.27
798.04	228.25
798.36	228.19
798.68	228.13
799.00	228.11
799.32	228.02
799.64	228.02
799.96	228.01
800.28	227.97
800.60	227.96
800.92	227.90
801.24	227.88
801.56	227.82
801.89	227.79
802.21	227.71
802.53	227.66
802.85	227.65
803.17	227.65
803.49	227.58
803.81	227.54
804.13	227.52
804.45	227.46
804.77	227.43
805.09	227.43
805.41	227.40
805.73	227.37
806.05	227.33
806.37	227.29
806.69	227.21
807.01	227.16
807.33	227.15
807.65	227.09
807.97	227.12
808.28	227.11
808.60	227.06
808.92	227.06
809.24	227.09
809.56	227.03
809.88	226.99
810.20	226.98
810.52	227.01
810.84	227.00
811.16	227.00
811.48	226.98
811.80	226.99
812.12	226.97
812.43	226.94
812.75	226.93
813.07	226.90
813.39	226.92
813.71	226.91
814.03	226.87
814.35	226.87
814.67	226.79
814.98	226.75
815.30	226.79
815.62	226.74
815.94	226.66
816.26	226.74
816.58	226.71
816.89	226.68
817.21	226.61
817.53	226.58
817.85	226.55
818.17	226.54
818.48	226.48
818.80	226.46
819.12	226.46
819.44	226.44
819.76	226.40
820.07	226.39
820.39	226.34
820.71	226.32
821.03	226.30
821.34	226.27
821.66	226.30
821.98	226.26
822.30	226.25
822.61	226.31
822.93	226.23
823.25	226.22
823.57	226.21
823.88	226.21
824.20	226.18
824.52	226.19
824.83	226.16
825.15	226.12
825.47	226.10
825.79	226.09
826.10	226.03
826.42	226.03
826.74	226.02
827.05	226.02
827.37	226.04
827.69	226.01
828.00	226.03
828.32	226.01
828.64	226.01
828.95	226.05
829.27	226.01
829.58	225.96
829.90	225.94
830.22	225.96
830.53	225.95
830.85	225.95
831.17	225.90
831.48	225.90
831.80	225.94
832.11	225.93
832.43	225.92
832.75	225.94
833.06	225.97
833.38	225.95
833.69	225.92
834.01	225.91
834.32	225.92
834.64	225.89
834.96	225.88
835.27	225.84
835.59	225.82
835.90	225.77
836.22	225.81
836.53	225.84
836.85	225.79
837.16	225.87
837.48	225.84
837.79	225.88
838.11	225.88
838.42	225.85
838.74	225.88
839.05	225.84
839.37	225.82
839.68	225.76
840.00	225.76
840.31	225.77
840.63	225.73
840.94	225.73
841.26	225.72
841.57	225.70
841.88	225.72
842.20	225.67
842.51	225.69
842.83	225.66
843.14	225.74
843.46	225.75
843.77	225.67
844.08	225.69
844.40	225.63
844.71	225.59
845.03	225.57
845.34	225.54
845.65	225.56
845.97	225.57
846.28	225.58
846.60	225.58
846.91	225.59
847.22	225.59
847.54	225.59
847.85	225.60
848.16	225.58
848.48	225.55
848.79	225.60
849.10	225.56
849.42	225.57
849.73	225.46
850.04	225.44
850.36	225.42
850.67	225.43
850.98	225.46
851.30	225.48
851.61	225.48
851.92	225.47
852.23	225.47
852.55	225.48
852.86	225.50
853.17	225.50
853.49	225.50
853.80	225.55
854.11	225.58
854.42	225.58
854.74	225.58
855.05	225.60
855.36	225.54
855.67	225.56
855.99	225.54
856.30	225.66
856.61	225.67
856.92	225.69
857.23	225.67
857.55	225.66
857.86	225.65
858.17	225.67
858.48	225.66
858.79	225.62
859.11	225.64
859.42	225.60
859.73	225.57
860.04	225.61
860.35	225.57
860.66	225.51
860.98	225.54
861.29	225.54
861.60	225.53
861.91	225.57
862.22	225.54
862.53	225.53
862.84	225.43
863.16	225.47
863.47	225.44
863.78	225.44
864.09	225.45
864.40	225.46
864.71	225.45
865.02	225.45
865.33	225.49
865.64	225.45
865.95	225.47
866.27	225.55
866.58	225.51
866.89	225.53
867.20	225.52
867.51	225.50
867.82	225.52
868.13	225.56
868.44	225.53
868.75	225.57
869.06	225.57
869.37	225.58
869.68	225.54
869.99	225.55
870.30	225.53
870.61	225.51
870.92	225.51
871.23	225.49
871.54	225.51
871.85	225.51
872.16	225.51
872.47	225.53
872.78	225.47
873.09	225.47
873.40	225.43
873.71	225.45
874.02	225.46
874.33	225.41
874.64	225.34
874.95	225.37
875.26	225.35
875.56	225.35
875.87	225.30
876.18	225.31
876.49	225.41
876.80	225.42
877.11	225.40
877.42	225.42
877.73	225.42
878.04	225.38
878.35	225.37
878.66	225.37
878.96	225.33
879.27	225.32
879.58	225.33
879.89	225.30
880.20	225.32
880.51	225.29
880.82	225.31
881.12	225.37
881.43	225.36
881.74	225.35
882.05	225.32
882.36	225.33
882.67	225.33
882.97	225.19
883.28	225.17
883.59	225.16
883.90	225.14
884.21	225.12
884.51	225.13
884.82	225.12
885.13	225.11
885.44	225.12
885.74	225.11
886.05	225.08
886.36	225.07
886.67	225.01
886.98	225.06
887.28	225.04
887.59	224.98
887.90	224.96
888.20	224.93
888.51	224.97
888.82	224.95
889.13	224.96
889.43	225.05
889.74	225.06
890.05	225.06
890.35	225.05
890.66	225.05
890.97	225.04
891.28	225.00
891.58	225.01
891.89	225.00
892.20	224.98
892.50	224.97
892.81	224.95
893.12	224.97
893.42	224.90
893.73	224.92
894.04	224.93
894.34	224.94
894.65	224.94
894.95	224.93
895.26	224.94
895.57	224.97
895.87	224.88
896.18	224.91
896.48	224.93
896.79	224.92
897.10	224.93
897.40	224.93
897.71	224.94
898.01	224.94
898.32	224.95
898.63	224.97
898.93	224.98
899.24	225.02
899.54	225.02
899.85	225.02
900.15	224.98
900.46	225.02
900.76	225.02
901.07	225.03
901.38	225.04
901.68	225.05
901.99	225.03
902.29	225.05
902.60	225.01
902.90	225.00
903.21	225.00
903.51	225.03
903.82	225.03
904.12	225.07
904.43	225.08
904.73	225.04
905.03	225.05
905.34	225.13
905.64	225.12
905.95	225.12
906.25	225.13
906.56	225.20
906.86	225.16
907.17	225.17
907.47	225.17
907.77	225.12
908.08	225.10
908.38	225.07
908.69	225.07
908.99	225.12
909.30	225.13
909.60	225.14
909.90	225.11
910.21	225.14
910.51	225.09
910.81	225.07
911.12	225.08
911.42	225.10
911.73	225.02
912.03	225.00
912.33	224.99
912.64	225.02
912.94	224.99
913.24	225.01
913.55	224.98
913.85	225.01
914.15	225.04
914.46	225.08
914.76	225.07
915.06	225.07
915.37	225.03
915.67	225.01
915.97	225.01
916.27	224.99
916.58	224.97
916.88	224.98
917.18	224.98
917.49	225.06
917.79	225.05
918.09	225.03
918.39	225.08
918.70	225.11
919.00	225.07
919.30	225.10
919.60	225.05
919.91	225.05
920.21	225.00
920.51	224.95
920.81	224.91
921.12	224.92
921.42	224.90
921.72	224.91
922.02	224.92
922.32	224.92
922.63	224.92
922.93	224.95
923.23	224.95
923.53	224.92
923.83	224.84
924.13	224.83
924.44	224.83
924.74	224.84
925.04	224.83
925.34	224.80
925.64	224.73
925.94	224.73
926.24	224.77
926.55	224.81
926.85	224.80
927.15	224.77
927.45	224.77
927.75	224.75
928.05	224.75
928.35	224.76
928.65	224.77
928.95	224.77
929.26	224.75
929.56	224.80
929.86	224.82
930.16	224.82
930.46	224.81
930.76	224.81
931.06	224.74
931.36	224.71
931.66	224.75
931.96	224.76
932.26	224.75
932.56	224.69
932.86	224.69
933.16	224.74
933.46	224.76
933.76	224.76
934.06	224.80
934.36	224.79
934.66	224.77
934.96	224.73
935.26	224.71
935.56	224.71
935.86	224.66
936.16	224.64
936.46	224.63
936.76	224.62
937.06	224.60
937.36	224.64
937.66	224.67
937.96	224.67
938.26	224.69
938.56	224.72
938.86	224.71
939.16	224.71
939.46	224.74
939.76	224.71
940.06	224.68
940.35	224.65
940.65	224.61
940.95	224.58
941.25	224.63
941.55	224.61
941.85	224.61
942.15	224.63
942.45	224.66
942.75	224.67
943.04	224.66
943.34	224.70
943.64	224.68
943.94	224.65
944.24	224.64
944.54	224.65
944.84	224.67
945.13	224.67
945.43	224.68
945.73	224.66
946.03	224.68
946.33	224.69
946.62	224.68
946.92	224.71
947.22	224.72
947.52	224.69
947.82	224.73
948.11	224.76
948.41	224.74
948.71	224.74
949.01	224.73
949.31	224.73
949.60	224.72
949.90	224.74
950.20	224.74
950.50	224.75
950.79	224.71
951.09	224.70
951.39	224.69
951.69	224.64
951.98	224.66
952.28	224.66
952.58	224.68
952.87	224.69
953.17	224.72
953.47	224.72
953.76	224.74
954.06	224.73
954.36	224.69
954.66	224.67
954.95	224.67
955.25	224.70
955.55	224.73
955.84	224.74
956.14	224.76
956.44	224.76
956.73	224.75
957.03	224.80
957.32	224.83
957.62	224.84
957.92	224.87
958.21	224.86
958.51	225.01
958.81	224.99
959.10	225.00
959.40	225.01
959.69	225.03
959.99	225.05
960.29	225.04
960.58	225.03
960.88	225.07
961.17	225.06
961.47	225.07
961.76	225.07
962.06	225.07
962.36	225.05
962.65	225.08
962.95	225.08
963.24	225.06
963.54	225.05
963.83	225.09
964.13	225.09
964.42	225.06
964.72	224.95
965.01	224.99
965.31	224.99
965.60	225.00
965.90	225.06
966.19	225.00
966.49	225.03
966.78	225.04
967.08	225.05
967.37	225.08
967.67	225.05
967.96	225.05
968.26	225.06
968.55	225.10
968.85	225.07
969.14	225.07
969.43	225.05
969.73	225.00
970.02	224.98
970.32	224.96
970.61	224.97
970.91	224.98
971.20	224.93
971.49	224.92
971.79	224.90
972.08	224.84
972.38	224.87
972.67	224.84
972.96	224.83
973.26	224.79
973.55	224.79
973.85	224.76
974.14	224.73
974.43	224.74
974.73	224.68
975.02	224.67
975.31	224.66
975.61	224.69
975.90	224.69
976.19	224.66
976.49	224.67
976.78	224.67
977.07	224.66
977.37	224.67
977.66	224.67
977.95	224.65
978.24	224.64
978.54	224.65
978.83	224.65
979.12	224.68
979.42	224.70
979.71	224.72
980.00	224.74
980.29	224.73
980.59	224.70
980.88	224.74
981.17	224.74
981.46	224.74
981.76	224.72
982.05	224.79
982.34	224.79
982.63	224.80
982.93	224.81
983.22	224.80
983.51	224.83
983.80	224.82
984.09	224.83
984.39	224.84
984.68	224.83
984.97	224.86
985.26	224.84
985.55	224.84
985.85	224.79
986.14	224.77
986.43	224.84
986.72	224.84
987.01	224.82
987.30	224.80
987.59	224.80
987.89	224.83
988.18	224.79
988.47	224.80
988.76	224.80
989.05	224.80
989.34	224.79
989.63	224.79
989.92	224.78
990.22	224.75
990.51	224.75
990.80	224.74
991.09	224.73
991.38	224.72
991.67	224.70
991.96	224.66
992.25	224.67
992.54	224.61
992.83	224.62
993.12	224.60
993.41	224.63
993.70	224.67
993.99	224.67
994.28	224.67
994.58	224.71
994.87	224.70
995.16	224.71
995.45	224.73
995.74	224.71
996.03	224.73
996.32	224.77
996.61	224.79
996.90	224.80
997.19	224.80
997.48	224.82
997.77	224.81
998.06	224.84
998.34	224.86
998.63	224.85
998.92	224.84
999.21	224.86
999.50	224.84
999.79	224.79
1000.08	224.78
1000.37	224.78
1000.66	224.74
1000.95	224.77
1001.24	224.75
1001.53	224.72
1001.82	224.74
1002.11	224.74
1002.40	224.76
1002.68	224.77
1002.97	224.85
1003.26	224.82
1003.55	224.81
1003.84	224.82
1004.13	224.87
1004.42	224.84
1004.71	224.89
1004.99	224.88
1005.28	224.92
1005.57	224.94
1005.86	224.97
1006.15	224.94
1006.44	224.93
1006.72	224.94
1007.01	224.92
1007.30	224.94
1007.59	224.96
1007.88	224.93
1008.17	224.94
1008.45	224.89
1008.74	224.85
1009.03	224.78
1009.32	224.79
1009.60	224.80
1009.89	224.80
1010.18	224.77
1010.47	224.78
1010.76	224.75
1011.04	224.77
1011.33	224.82
1011.62	224.80
1011.91	224.80
1012.19	224.82
1012.48	224.83
1012.77	224.86
1013.05	224.90
1013.34	224.88
1013.63	224.87
1013.92	224.87
1014.20	224.85
1014.49	224.84
1014.78	224.82
1015.06	224.81
1015.35	224.80
1015.64	224.80
1015.92	224.81
1016.21	224.82
1016.50	224.82
1016.78	224.84
1017.07	224.83
1017.36	224.73
1017.64	224.78
1017.93	224.79
1018.22	224.78
1018.50	224.80
1018.79	224.79
1019.08	224.74
1019.36	224.71
1019.65	224.70
1019.93	224.72
1020.22	224.73
1020.51	224.79
1020.79	224.78
1021.08	224.59
1021.36	225.01
1021.65	225.06
1021.94	224.97
1022.22	223.95
1022.51	224.50
1022.79	225.03
1023.08	224.75
1023.36	225.69
1023.65	223.97
>>>>>End Processed Spectral Data<<<<<
