SpectraSuite Data File
++++++++++++++++++++++++++++++++++++
Date: Fri Feb 01 15:35:52 EST 2013
User: group
Dark Spectrum Present: No
Reference Spectrum Present: No
Number of Sampled Component Spectra: 1
Spectrometers: USB2E7196
Integration Time (usec): 35000 (USB2E7196)
Spectra Averaged: 100 (USB2E7196)
Boxcar Smoothing: 10 (USB2E7196)
Correct for Electrical Dark: No (USB2E7196)
Strobe/Lamp Enabled: No (USB2E7196)
Correct for Detector Non-linearity: No (USB2E7196)
Correct for Stray Light: No (USB2E7196)
Number of Pixels in Processed Spectrum: 2048
>>>>>Begin Processed Spectral Data<<<<<
339.09	0.00
339.48	215.01
339.86	216.29
340.24	217.38
340.63	218.52
341.01	221.54
341.39	221.44
341.78	222.39
342.16	223.84
342.54	224.74
342.93	213.00
343.31	223.77
343.69	224.30
344.07	224.76
344.46	225.20
344.84	225.59
345.22	225.82
345.60	226.09
345.99	226.32
346.37	226.48
346.75	226.59
347.13	226.66
347.52	226.68
347.90	226.75
348.28	226.78
348.66	226.87
349.05	226.83
349.43	226.90
349.81	226.94
350.19	226.98
350.57	227.06
350.96	227.13
351.34	227.23
351.72	227.33
352.10	227.44
352.48	227.52
352.87	227.62
353.25	227.71
353.63	227.76
354.01	227.85
354.39	227.91
354.77	227.99
355.15	228.11
355.54	228.20
355.92	228.25
356.30	228.37
356.68	228.45
357.06	228.53
357.44	228.60
357.82	228.65
358.20	228.71
358.58	228.78
358.97	228.85
359.35	228.93
359.73	229.00
360.11	229.07
360.49	229.11
360.87	229.16
361.25	229.25
361.63	229.34
362.01	229.37
362.39	229.43
362.77	229.46
363.15	229.49
363.53	229.51
363.91	229.55
364.29	229.55
364.67	229.53
365.05	229.56
365.43	229.58
365.81	229.60
366.19	229.63
366.57	229.66
366.95	229.63
367.33	229.60
367.71	229.58
368.09	229.56
368.47	229.54
368.85	229.50
369.23	229.45
369.61	229.41
369.99	229.37
370.37	229.33
370.75	229.34
371.13	229.29
371.51	229.23
371.89	229.21
372.27	229.14
372.65	229.08
373.03	229.03
373.41	228.97
373.78	228.88
374.16	228.79
374.54	228.69
374.92	228.60
375.30	228.54
375.68	228.45
376.06	228.39
376.44	228.33
376.82	228.23
377.19	228.17
377.57	228.08
377.95	227.99
378.33	227.91
378.71	227.76
379.09	227.71
379.47	227.69
379.84	227.59
380.22	227.55
380.60	227.43
380.98	227.35
381.36	227.26
381.73	227.20
382.11	227.16
382.49	227.10
382.87	227.06
383.25	226.97
383.62	227.03
384.00	226.98
384.38	226.89
384.76	226.89
385.13	226.83
385.51	226.74
385.89	226.67
386.27	226.63
386.64	226.62
387.02	226.53
387.40	226.45
387.78	226.40
388.15	226.35
388.53	226.36
388.91	226.31
389.29	226.29
389.66	226.29
390.04	226.26
390.42	226.28
390.79	226.26
391.17	226.25
391.55	226.11
391.92	226.06
392.30	226.05
392.68	226.01
393.05	226.01
393.43	226.08
393.81	226.11
394.18	226.10
394.56	226.09
394.94	226.12
395.31	226.13
395.69	226.18
396.06	226.23
396.44	226.26
396.82	226.33
397.19	226.41
397.57	226.42
397.95	226.47
398.32	226.50
398.70	226.58
399.07	226.67
399.45	226.72
399.82	226.80
400.20	226.90
400.58	227.01
400.95	227.08
401.33	227.17
401.70	227.34
402.08	227.44
402.45	227.56
402.83	227.70
403.20	227.83
403.58	227.93
403.95	228.07
404.33	228.19
404.71	228.29
405.08	228.50
405.46	228.65
405.83	228.82
406.21	228.95
406.58	229.12
406.96	229.25
407.33	229.44
407.70	229.65
408.08	229.92
408.45	230.11
408.83	230.33
409.20	230.58
409.58	230.74
409.95	231.01
410.33	231.29
410.70	231.57
411.08	231.86
411.45	232.18
411.82	232.51
412.20	232.84
412.57	233.27
412.95	233.54
413.32	233.93
413.69	234.31
414.07	234.75
414.44	235.23
414.82	235.73
415.19	236.30
415.56	236.86
415.94	237.42
416.31	238.08
416.68	238.71
417.06	239.41
417.43	240.12
417.81	240.91
418.18	241.67
418.55	242.48
418.93	243.38
419.30	244.28
419.67	245.19
420.04	246.18
420.42	247.19
420.79	248.41
421.16	249.60
421.54	250.82
421.91	252.05
422.28	253.28
422.66	254.62
423.03	255.91
423.40	257.23
423.77	258.60
424.15	260.01
424.52	261.50
424.89	263.11
425.26	264.65
425.64	266.11
426.01	267.72
426.38	269.41
426.75	271.04
427.13	272.76
427.50	274.59
427.87	276.48
428.24	278.31
428.61	280.01
428.99	281.96
429.36	284.06
429.73	286.07
430.10	288.10
430.47	290.15
430.85	292.28
431.22	294.50
431.59	296.89
431.96	299.15
432.33	301.62
432.70	303.99
433.08	306.81
433.45	309.41
433.82	312.02
434.19	314.85
434.56	317.68
434.93	320.36
435.30	322.97
435.68	325.86
436.05	328.67
436.42	331.47
436.79	333.95
437.16	336.65
437.53	339.53
437.90	342.35
438.27	345.10
438.64	347.94
439.01	350.61
439.38	352.84
439.75	355.00
440.13	357.49
440.50	359.84
440.87	361.66
441.24	363.62
441.61	365.81
441.98	367.30
442.35	369.13
442.72	370.97
443.09	372.77
443.46	373.72
443.83	374.32
444.20	374.81
444.57	375.64
444.94	375.88
445.31	376.24
445.68	376.54
446.05	376.65
446.42	376.26
446.79	375.79
447.16	375.35
447.53	375.05
447.90	373.91
448.27	372.72
448.64	371.14
449.01	369.99
449.37	368.00
449.74	366.09
450.11	363.85
450.48	361.34
450.85	358.83
451.22	356.67
451.59	354.67
451.96	352.74
452.33	350.17
452.70	347.86
453.07	345.00
453.43	342.11
453.80	339.31
454.17	336.66
454.54	334.16
454.91	331.43
455.28	328.73
455.65	326.23
456.02	323.78
456.38	321.66
456.75	318.99
457.12	316.69
457.49	314.48
457.86	312.28
458.23	310.43
458.59	308.32
458.96	306.25
459.33	304.39
459.70	302.52
460.07	300.96
460.43	299.23
460.80	297.63
461.17	296.17
461.54	294.70
461.91	293.24
462.27	291.76
462.64	290.51
463.01	289.14
463.38	287.84
463.74	286.45
464.11	285.23
464.48	284.20
464.85	283.11
465.21	282.26
465.58	281.32
465.95	280.23
466.32	279.36
466.68	278.45
467.05	277.54
467.42	276.65
467.78	275.73
468.15	274.86
468.52	274.15
468.88	273.33
469.25	272.53
469.62	271.88
469.98	271.19
470.35	270.57
470.72	269.98
471.08	269.33
471.45	268.85
471.82	268.32
472.18	267.73
472.55	267.31
472.92	266.78
473.28	266.34
473.65	265.89
474.02	265.43
474.38	265.08
474.75	264.76
475.11	264.40
475.48	264.12
475.85	263.86
476.21	263.63
476.58	263.44
476.94	263.32
477.31	263.13
477.67	262.97
478.04	262.84
478.41	262.78
478.77	262.79
479.14	262.69
479.50	262.71
479.87	262.75
480.23	262.79
480.60	262.84
480.96	262.92
481.33	263.15
481.69	263.37
482.06	263.57
482.42	263.80
482.79	264.09
483.15	264.45
483.52	264.82
483.88	265.18
484.25	265.57
484.61	265.93
484.98	266.43
485.34	267.01
485.71	267.60
486.07	268.21
486.44	268.77
486.80	269.51
487.17	270.27
487.53	271.10
487.90	272.00
488.26	272.94
488.62	273.93
488.99	274.88
489.35	275.93
489.72	277.05
490.08	278.22
490.44	279.42
490.81	280.76
491.17	282.12
491.54	283.57
491.90	285.09
492.26	286.73
492.63	288.44
492.99	290.22
493.36	292.15
493.72	294.20
494.08	296.32
494.45	298.55
494.81	300.88
495.17	303.34
495.54	305.88
495.90	308.56
496.26	311.34
496.63	314.33
496.99	317.43
497.35	320.68
497.72	324.10
498.08	327.65
498.44	331.29
498.80	335.24
499.17	339.31
499.53	343.52
499.89	347.96
500.26	352.46
500.62	357.16
500.98	362.13
501.34	367.20
501.71	372.59
502.07	378.04
502.43	383.64
502.79	389.41
503.16	395.48
503.52	401.80
503.88	408.25
504.24	414.86
504.60	421.72
504.97	428.89
505.33	436.21
505.69	443.94
506.05	451.76
506.41	459.68
506.78	467.88
507.14	476.35
507.50	485.04
507.86	494.06
508.22	503.25
508.59	512.40
508.95	521.97
509.31	531.73
509.67	541.86
510.03	552.21
510.39	562.85
510.75	573.63
511.12	584.54
511.48	595.80
511.84	607.28
512.20	618.85
512.56	630.78
512.92	642.99
513.28	655.29
513.64	667.77
514.00	680.42
514.37	693.31
514.73	706.41
515.09	719.52
515.45	732.88
515.81	746.45
516.17	760.48
516.53	774.57
516.89	788.75
517.25	802.94
517.61	817.40
517.97	831.90
518.33	846.43
518.69	861.26
519.05	876.26
519.41	891.48
519.77	907.01
520.13	922.44
520.49	937.85
520.85	953.34
521.21	969.08
521.57	985.34
521.93	1001.21
522.29	1017.59
522.65	1033.79
523.01	1049.96
523.37	1066.05
523.73	1082.25
524.09	1098.47
524.45	1114.92
524.81	1131.47
525.17	1148.21
525.53	1165.06
525.89	1181.89
526.25	1198.74
526.61	1215.20
526.97	1231.89
527.33	1248.35
527.68	1264.97
528.04	1281.43
528.40	1298.10
528.76	1315.23
529.12	1331.84
529.48	1348.57
529.84	1364.65
530.20	1381.35
530.56	1398.42
530.91	1415.82
531.27	1432.61
531.63	1449.03
531.99	1465.60
532.35	1481.70
532.71	1497.57
533.07	1513.86
533.42	1529.95
533.78	1546.11
534.14	1562.37
534.50	1577.72
534.86	1593.67
535.21	1608.96
535.57	1625.03
535.93	1640.64
536.29	1655.53
536.65	1670.69
537.00	1685.75
537.36	1701.05
537.72	1715.61
538.08	1730.09
538.44	1743.92
538.79	1757.74
539.15	1771.45
539.51	1785.19
539.87	1799.49
540.22	1813.43
540.58	1827.31
540.94	1840.65
541.29	1853.45
541.65	1866.25
542.01	1879.54
542.37	1891.92
542.72	1904.24
543.08	1915.91
543.44	1928.17
543.79	1939.41
544.15	1950.28
544.51	1961.70
544.87	1972.66
545.22	1983.50
545.58	1993.78
545.94	2003.63
546.29	2013.58
546.65	2023.41
547.01	2032.70
547.36	2041.49
547.72	2049.77
548.07	2057.52
548.43	2065.62
548.79	2073.81
549.14	2081.40
549.50	2088.85
549.86	2096.48
550.21	2103.94
550.57	2111.07
550.92	2117.70
551.28	2124.77
551.64	2131.86
551.99	2138.45
552.35	2144.70
552.70	2150.81
553.06	2156.70
553.41	2163.00
553.77	2169.08
554.13	2175.18
554.48	2181.11
554.84	2186.49
555.19	2191.90
555.55	2196.92
555.90	2201.27
556.26	2205.98
556.61	2210.61
556.97	2214.65
557.32	2218.75
557.68	2222.86
558.03	2227.26
558.39	2230.91
558.74	2235.50
559.10	2239.43
559.45	2243.11
559.81	2247.35
560.16	2251.22
560.52	2254.52
560.87	2257.87
561.23	2260.48
561.58	2263.48
561.94	2266.40
562.29	2268.92
562.64	2271.58
563.00	2274.31
563.35	2277.97
563.71	2281.02
564.06	2284.26
564.42	2287.21
564.77	2289.84
565.12	2292.10
565.48	2293.98
565.83	2295.97
566.19	2297.15
566.54	2298.13
566.89	2299.21
567.25	2299.70
567.60	2301.01
567.96	2302.61
568.31	2303.43
568.66	2304.47
569.02	2304.96
569.37	2304.99
569.72	2305.72
570.08	2305.82
570.43	2305.89
570.78	2305.23
571.14	2303.72
571.49	2302.24
571.84	2301.82
572.20	2300.63
572.55	2299.50
572.90	2297.99
573.26	2296.48
573.61	2294.71
573.96	2292.81
574.31	2289.81
574.67	2286.80
575.02	2283.13
575.37	2279.80
575.72	2276.07
576.08	2272.76
576.43	2269.51
576.78	2265.89
577.13	2262.79
577.49	2259.68
577.84	2256.07
578.19	2252.28
578.54	2248.57
578.90	2244.30
579.25	2238.78
579.60	2233.71
579.95	2228.75
580.30	2223.55
580.66	2218.27
581.01	2213.44
581.36	2208.50
581.71	2204.19
582.06	2199.69
582.42	2195.08
582.77	2189.69
583.12	2184.94
583.47	2180.15
583.82	2174.91
584.17	2169.58
584.53	2163.92
584.88	2158.17
585.23	2152.32
585.58	2146.83
585.93	2141.42
586.28	2136.69
586.63	2131.66
586.98	2126.59
587.34	2121.74
587.69	2116.77
588.04	2111.53
588.39	2105.76
588.74	2099.31
589.09	2093.16
589.44	2086.26
589.79	2080.27
590.14	2074.68
590.49	2068.16
590.84	2061.70
591.19	2055.65
591.54	2049.10
591.89	2041.67
592.25	2034.76
592.60	2027.49
592.95	2019.83
593.30	2012.43
593.65	2004.84
594.00	1997.78
594.35	1990.53
594.70	1982.46
595.05	1975.31
595.40	1968.02
595.75	1960.37
596.10	1953.98
596.45	1947.13
596.80	1940.95
597.15	1934.29
597.50	1927.05
597.85	1920.57
598.19	1913.81
598.54	1906.75
598.89	1900.13
599.24	1894.26
599.59	1887.57
599.94	1881.42
600.29	1875.12
600.64	1868.53
600.99	1860.98
601.34	1854.03
601.69	1846.95
602.04	1839.99
602.39	1832.54
602.74	1825.56
603.08	1818.92
603.43	1812.16
603.78	1805.00
604.13	1797.86
604.48	1790.43
604.83	1783.54
605.18	1776.42
605.53	1768.55
605.87	1760.53
606.22	1753.29
606.57	1745.23
606.92	1738.04
607.27	1730.72
607.62	1723.73
607.96	1716.45
608.31	1709.80
608.66	1702.04
609.01	1694.40
609.36	1686.81
609.70	1678.80
610.05	1670.76
610.40	1663.03
610.75	1654.66
611.10	1646.84
611.44	1638.40
611.79	1630.39
612.14	1621.72
612.49	1612.74
612.83	1604.28
613.18	1596.20
613.53	1588.07
613.88	1579.61
614.22	1571.21
614.57	1562.73
614.92	1554.73
615.27	1546.95
615.61	1538.63
615.96	1530.76
616.31	1523.23
616.65	1515.87
617.00	1508.31
617.35	1500.71
617.70	1492.21
618.04	1483.84
618.39	1475.66
618.74	1468.04
619.08	1459.83
619.43	1452.31
619.78	1445.38
620.12	1438.17
620.47	1430.64
620.82	1422.46
621.16	1415.03
621.51	1407.38
621.85	1399.77
622.20	1391.06
622.55	1382.77
622.89	1374.90
623.24	1367.20
623.59	1359.88
623.93	1352.38
624.28	1345.28
624.62	1337.75
624.97	1330.62
625.32	1323.89
625.66	1316.90
626.01	1309.75
626.35	1302.09
626.70	1294.29
627.04	1286.41
627.39	1278.72
627.73	1271.24
628.08	1264.25
628.43	1256.97
628.77	1249.59
629.12	1242.05
629.46	1235.05
629.81	1227.77
630.15	1220.53
630.50	1213.22
630.84	1205.03
631.19	1197.12
631.53	1189.47
631.88	1181.79
632.22	1174.25
632.57	1166.89
632.91	1159.38
633.26	1151.81
633.60	1144.70
633.95	1137.63
634.29	1130.70
634.64	1124.10
634.98	1116.82
635.32	1109.70
635.67	1103.12
636.01	1096.59
636.36	1089.69
636.70	1083.20
637.05	1076.60
637.39	1070.09
637.73	1063.54
638.08	1057.53
638.42	1051.52
638.77	1045.13
639.11	1038.55
639.45	1032.21
639.80	1025.46
640.14	1018.97
640.49	1012.57
640.83	1006.16
641.17	999.82
641.52	993.44
641.86	986.81
642.20	980.86
642.55	974.60
642.89	968.05
643.23	961.51
643.58	955.68
643.92	949.41
644.26	943.32
644.61	937.34
644.95	931.29
645.29	924.76
645.64	918.03
645.98	911.74
646.32	905.94
646.66	899.88
647.01	894.06
647.35	888.42
647.69	882.54
648.04	877.08
648.38	871.36
648.72	865.36
649.06	859.48
649.41	853.66
649.75	847.68
650.09	841.78
650.43	835.97
650.78	829.86
651.12	823.95
651.46	818.18
651.80	812.41
652.14	807.09
652.49	801.71
652.83	796.58
653.17	790.78
653.51	785.10
653.85	779.79
654.20	774.16
654.54	768.13
654.88	762.41
655.22	756.48
655.56	750.84
655.90	745.38
656.25	740.11
656.59	734.76
656.93	729.61
657.27	724.41
657.61	718.95
657.95	713.87
658.29	708.82
658.64	703.59
658.98	698.33
659.32	692.81
659.66	687.57
660.00	682.24
660.34	677.40
660.68	672.48
661.02	667.38
661.36	662.65
661.70	658.15
662.05	653.84
662.39	649.52
662.73	645.08
663.07	640.68
663.41	636.15
663.75	631.59
664.09	627.14
664.43	622.75
664.77	618.67
665.11	614.43
665.45	610.31
665.79	606.26
666.13	602.11
666.47	598.07
666.81	593.97
667.15	589.86
667.49	585.94
667.83	582.17
668.17	578.32
668.51	574.32
668.85	570.28
669.19	566.43
669.53	562.63
669.87	558.72
670.21	555.05
670.55	551.42
670.89	548.05
671.23	544.61
671.57	541.09
671.91	537.55
672.25	534.10
672.58	530.60
672.92	527.21
673.26	524.08
673.60	520.92
673.94	517.76
674.28	514.88
674.62	511.94
674.96	508.78
675.30	505.81
675.64	502.88
675.97	500.20
676.31	497.32
676.65	494.37
676.99	491.68
677.33	488.79
677.67	486.04
678.01	482.92
678.34	479.91
678.68	477.08
679.02	474.26
679.36	471.45
679.70	468.70
680.04	465.92
680.37	463.00
680.71	460.20
681.05	457.62
681.39	454.79
681.73	452.08
682.06	449.61
682.40	447.04
682.74	444.49
683.08	441.94
683.42	439.32
683.75	436.84
684.09	434.31
684.43	431.89
684.77	429.39
685.10	427.11
685.44	424.83
685.78	422.52
686.12	420.35
686.45	418.08
686.79	415.75
687.13	413.56
687.46	411.42
687.80	409.28
688.14	407.05
688.48	405.06
688.81	402.83
689.15	400.68
689.49	398.55
689.82	396.49
690.16	394.38
690.50	392.43
690.83	390.50
691.17	388.49
691.51	386.61
691.84	384.80
692.18	382.92
692.52	380.97
692.85	379.12
693.19	377.18
693.52	375.35
693.86	373.56
694.20	371.78
694.53	369.99
694.87	368.18
695.21	366.45
695.54	364.58
695.88	362.89
696.21	361.12
696.55	359.47
696.88	357.77
697.22	356.11
697.56	354.46
697.89	352.76
698.23	351.17
698.56	349.54
698.90	347.94
699.23	346.23
699.57	344.65
699.90	343.06
700.24	341.47
700.58	339.96
700.91	338.46
701.25	337.06
701.58	335.76
701.92	334.37
702.25	332.97
702.59	331.66
702.92	330.36
703.26	329.08
703.59	327.76
703.93	326.60
704.26	325.36
704.60	324.09
704.93	322.88
705.26	321.64
705.60	320.46
705.93	319.29
706.27	318.26
706.60	317.22
706.94	316.12
707.27	315.03
707.61	313.98
707.94	312.95
708.27	311.84
708.61	310.71
708.94	309.69
709.28	308.72
709.61	307.72
709.94	306.76
710.28	305.74
710.61	304.81
710.95	303.74
711.28	302.87
711.61	301.94
711.95	300.98
712.28	300.02
712.61	299.02
712.95	298.08
713.28	297.22
713.61	296.30
713.95	295.46
714.28	294.63
714.61	293.74
714.95	292.90
715.28	291.99
715.61	291.10
715.95	290.22
716.28	289.33
716.61	288.49
716.95	287.69
717.28	287.00
717.61	286.21
717.94	285.44
718.28	284.62
718.61	283.86
718.94	283.20
719.27	282.56
719.61	281.97
719.94	281.38
720.27	280.68
720.60	279.99
720.94	279.33
721.27	278.72
721.60	278.14
721.93	277.52
722.27	277.03
722.60	276.50
722.93	275.97
723.26	275.47
723.59	274.93
723.93	274.36
724.26	273.77
724.59	273.23
724.92	272.74
725.25	272.23
725.59	271.73
725.92	271.20
726.25	270.71
726.58	270.18
726.91	269.65
727.24	269.15
727.57	268.71
727.91	268.22
728.24	267.77
728.57	267.29
728.90	266.87
729.23	266.34
729.56	265.93
729.89	265.45
730.22	264.94
730.55	264.50
730.89	264.09
731.22	263.66
731.55	263.19
731.88	262.76
732.21	262.33
732.54	261.91
732.87	261.43
733.20	261.01
733.53	260.63
733.86	260.26
734.19	259.82
734.52	259.43
734.85	259.13
735.18	258.69
735.51	258.33
735.84	257.97
736.17	257.65
736.50	257.23
736.83	257.01
737.16	256.71
737.49	256.38
737.82	255.99
738.15	255.63
738.48	255.33
738.81	255.00
739.14	254.68
739.47	254.36
739.80	254.13
740.13	253.81
740.46	253.47
740.79	253.12
741.12	252.85
741.45	252.55
741.78	252.19
742.11	251.95
742.44	251.63
742.77	251.36
743.10	251.05
743.43	250.77
743.75	250.36
744.08	250.20
744.41	249.92
744.74	249.63
745.07	249.34
745.40	249.09
745.73	248.82
746.06	248.51
746.39	248.29
746.71	247.97
747.04	247.70
747.37	247.45
747.70	247.21
748.03	246.98
748.36	246.73
748.68	246.50
749.01	246.25
749.34	246.01
749.67	245.74
750.00	245.52
750.33	245.36
750.65	245.15
750.98	244.81
751.31	244.58
751.64	244.41
751.97	244.24
752.29	244.01
752.62	243.79
752.95	243.64
753.28	243.40
753.60	243.26
753.93	243.10
754.26	242.90
754.59	242.67
754.91	242.45
755.24	242.26
755.57	242.09
755.90	241.90
756.22	241.72
756.55	241.56
756.88	241.39
757.20	241.17
757.53	240.98
757.86	240.83
758.19	240.69
758.51	240.54
758.84	240.36
759.17	240.19
759.49	240.03
759.82	239.91
760.15	239.79
760.47	239.63
760.80	239.43
761.13	239.31
761.45	239.16
761.78	239.04
762.11	238.90
762.43	238.73
762.76	238.58
763.08	238.47
763.41	238.32
763.74	238.17
764.06	238.03
764.39	237.90
764.71	237.72
765.04	237.61
765.37	237.44
765.69	237.35
766.02	237.24
766.34	237.07
766.67	236.91
767.00	236.79
767.32	236.68
767.65	236.66
767.97	236.50
768.30	236.39
768.62	236.22
768.95	236.11
769.27	236.01
769.60	235.92
769.92	235.78
770.25	235.66
770.57	235.54
770.90	235.42
771.22	235.31
771.55	235.23
771.87	235.08
772.20	234.99
772.52	234.95
772.85	234.96
773.17	234.90
773.50	234.79
773.82	234.67
774.15	234.52
774.47	234.36
774.80	234.24
775.12	234.15
775.45	234.07
775.77	233.98
776.09	233.90
776.42	233.82
776.74	233.74
777.07	233.67
777.39	233.58
777.72	233.50
778.04	233.39
778.36	233.30
778.69	233.23
779.01	233.16
779.33	232.97
779.66	232.77
779.98	232.69
780.31	232.61
780.63	232.60
780.95	232.57
781.28	232.50
781.60	232.44
781.92	232.38
782.25	232.32
782.57	232.26
782.89	232.19
783.22	232.14
783.54	232.05
783.86	231.97
784.19	231.92
784.51	231.91
784.83	231.84
785.16	231.78
785.48	231.73
785.80	231.67
786.12	231.64
786.45	231.59
786.77	231.56
787.09	231.53
787.42	231.44
787.74	231.43
788.06	231.40
788.38	231.40
788.71	231.35
789.03	231.30
789.35	231.30
789.67	231.23
789.99	231.18
790.32	231.16
790.64	231.14
790.96	231.20
791.28	231.15
791.61	231.13
791.93	231.12
792.25	231.08
792.57	231.12
792.89	231.06
793.21	231.05
793.54	230.99
793.86	230.91
794.18	230.89
794.50	230.82
794.82	230.76
795.14	230.73
795.47	230.74
795.79	230.74
796.11	230.66
796.43	230.66
796.75	230.62
797.07	230.61
797.39	230.59
797.71	230.49
798.04	230.44
798.36	230.42
798.68	230.38
799.00	230.36
799.32	230.30
799.64	230.33
799.96	230.30
800.28	230.29
800.60	230.28
800.92	230.26
801.24	230.24
801.56	230.25
801.89	230.18
802.21	230.15
802.53	230.11
802.85	230.11
803.17	230.10
803.49	230.11
803.81	230.05
804.13	230.02
804.45	229.97
804.77	229.96
805.09	229.95
805.41	229.94
805.73	229.93
806.05	229.86
806.37	229.80
806.69	229.74
807.01	229.68
807.33	229.68
807.65	229.61
807.97	229.59
808.28	229.51
808.60	229.49
808.92	229.42
809.24	229.42
809.56	229.36
809.88	229.29
810.20	229.23
810.52	229.23
810.84	229.17
811.16	229.14
811.48	229.08
811.80	229.06
812.12	228.99
812.43	228.96
812.75	228.95
813.07	228.91
813.39	228.88
813.71	228.86
814.03	228.79
814.35	228.77
814.67	228.73
814.98	228.72
815.30	228.68
815.62	228.64
815.94	228.57
816.26	228.60
816.58	228.57
816.89	228.57
817.21	228.52
817.53	228.48
817.85	228.47
818.17	228.46
818.48	228.42
818.80	228.43
819.12	228.38
819.44	228.35
819.76	228.33
820.07	228.32
820.39	228.32
820.71	228.36
821.03	228.34
821.34	228.30
821.66	228.28
821.98	228.32
822.30	228.33
822.61	228.38
822.93	228.34
823.25	228.30
823.57	228.24
823.88	228.27
824.20	228.24
824.52	228.26
824.83	228.23
825.15	228.23
825.47	228.18
825.79	228.19
826.10	228.16
826.42	228.14
826.74	228.13
827.05	228.08
827.37	228.07
827.69	228.04
828.00	228.05
828.32	228.05
828.64	228.01
828.95	228.04
829.27	227.99
829.58	227.92
829.90	227.95
830.22	227.99
830.53	227.91
830.85	227.91
831.17	227.87
831.48	227.86
831.80	227.82
832.11	227.83
832.43	227.79
832.75	227.76
833.06	227.83
833.38	227.83
833.69	227.84
834.01	227.83
834.32	227.83
834.64	227.82
834.96	227.81
835.27	227.82
835.59	227.82
835.90	227.82
836.22	227.85
836.53	227.84
836.85	227.81
837.16	227.92
837.48	227.97
837.79	227.99
838.11	228.02
838.42	228.03
838.74	228.08
839.05	228.09
839.37	228.12
839.68	228.06
840.00	228.03
840.31	228.03
840.63	228.03
840.94	228.03
841.26	228.04
841.57	228.02
841.88	228.01
842.20	227.99
842.51	227.97
842.83	227.94
843.14	228.06
843.46	228.07
843.77	228.05
844.08	227.99
844.40	227.97
844.71	227.93
845.03	227.92
845.34	227.91
845.65	227.91
845.97	227.89
846.28	227.89
846.60	227.90
846.91	227.89
847.22	227.85
847.54	227.86
847.85	227.82
848.16	227.82
848.48	227.79
848.79	227.80
849.10	227.81
849.42	227.84
849.73	227.71
850.04	227.67
850.36	227.63
850.67	227.64
850.98	227.67
851.30	227.67
851.61	227.68
851.92	227.63
852.23	227.65
852.55	227.62
852.86	227.61
853.17	227.61
853.49	227.62
853.80	227.63
854.11	227.64
854.42	227.68
854.74	227.64
855.05	227.64
855.36	227.59
855.67	227.57
855.99	227.53
856.30	227.65
856.61	227.64
856.92	227.62
857.23	227.62
857.55	227.54
857.86	227.52
858.17	227.52
858.48	227.54
858.79	227.52
859.11	227.55
859.42	227.51
859.73	227.51
860.04	227.50
860.35	227.47
860.66	227.42
860.98	227.37
861.29	227.40
861.60	227.38
861.91	227.38
862.22	227.36
862.53	227.34
862.84	227.21
863.16	227.23
863.47	227.21
863.78	227.17
864.09	227.19
864.40	227.20
864.71	227.18
865.02	227.16
865.33	227.12
865.64	227.08
865.95	227.08
866.27	227.13
866.58	227.13
866.89	227.14
867.20	227.13
867.51	227.15
867.82	227.11
868.13	227.14
868.44	227.14
868.75	227.15
869.06	227.16
869.37	227.14
869.68	227.10
869.99	227.13
870.30	227.15
870.61	227.12
870.92	227.11
871.23	227.12
871.54	227.13
871.85	227.15
872.16	227.17
872.47	227.17
872.78	227.09
873.09	227.10
873.40	227.11
873.71	227.12
874.02	227.11
874.33	227.16
874.64	227.16
874.95	227.15
875.26	227.14
875.56	227.15
875.87	227.19
876.18	227.19
876.49	227.30
876.80	227.31
877.11	227.32
877.42	227.35
877.73	227.34
878.04	227.33
878.35	227.36
878.66	227.38
878.96	227.37
879.27	227.40
879.58	227.37
879.89	227.37
880.20	227.40
880.51	227.39
880.82	227.38
881.12	227.38
881.43	227.39
881.74	227.38
882.05	227.40
882.36	227.38
882.67	227.39
882.97	227.29
883.28	227.28
883.59	227.28
883.90	227.29
884.21	227.28
884.51	227.29
884.82	227.29
885.13	227.29
885.44	227.29
885.74	227.28
886.05	227.30
886.36	227.27
886.67	227.23
886.98	227.27
887.28	227.28
887.59	227.29
887.90	227.28
888.20	227.31
888.51	227.29
888.82	227.29
889.13	227.30
889.43	227.36
889.74	227.33
890.05	227.35
890.35	227.32
890.66	227.30
890.97	227.24
891.28	227.22
891.58	227.23
891.89	227.24
892.20	227.22
892.50	227.18
892.81	227.18
893.12	227.21
893.42	227.17
893.73	227.18
894.04	227.12
894.34	227.12
894.65	227.08
894.95	227.06
895.26	227.05
895.57	227.07
895.87	226.98
896.18	227.02
896.48	227.03
896.79	227.00
897.10	227.02
897.40	227.04
897.71	227.03
898.01	227.01
898.32	227.01
898.63	227.01
898.93	227.03
899.24	227.01
899.54	226.99
899.85	226.96
900.15	226.93
900.46	226.96
900.76	226.97
901.07	226.96
901.38	226.95
901.68	226.95
901.99	226.91
902.29	226.88
902.60	226.82
902.90	226.82
903.21	226.80
903.51	226.78
903.82	226.80
904.12	226.79
904.43	226.77
904.73	226.75
905.03	226.77
905.34	226.83
905.64	226.84
905.95	226.82
906.25	226.86
906.56	226.85
906.86	226.85
907.17	226.80
907.47	226.81
907.77	226.81
908.08	226.77
908.38	226.78
908.69	226.82
908.99	226.86
909.30	226.83
909.60	226.87
909.90	226.88
910.21	226.84
910.51	226.85
910.81	226.87
911.12	226.87
911.42	226.84
911.73	226.78
912.03	226.81
912.33	226.85
912.64	226.81
912.94	226.84
913.24	226.81
913.55	226.83
913.85	226.86
914.15	226.93
914.46	226.97
914.76	226.96
915.06	226.96
915.37	226.92
915.67	226.97
915.97	226.95
916.27	226.93
916.58	226.95
916.88	226.95
917.18	226.96
917.49	227.03
917.79	227.05
918.09	227.07
918.39	227.10
918.70	227.08
919.00	227.10
919.30	227.14
919.60	227.14
919.91	227.13
920.21	227.11
920.51	227.05
920.81	227.06
921.12	227.11
921.42	227.10
921.72	227.13
922.02	227.14
922.32	227.18
922.63	227.20
922.93	227.26
923.23	227.27
923.53	227.22
923.83	227.17
924.13	227.18
924.44	227.17
924.74	227.17
925.04	227.19
925.34	227.19
925.64	227.16
925.94	227.18
926.24	227.24
926.55	227.24
926.85	227.25
927.15	227.25
927.45	227.24
927.75	227.26
928.05	227.22
928.35	227.20
928.65	227.22
928.95	227.23
929.26	227.16
929.56	227.18
929.86	227.20
930.16	227.21
930.46	227.15
930.76	227.13
931.06	227.12
931.36	227.09
931.66	227.11
931.96	227.10
932.26	227.09
932.56	227.03
932.86	227.02
933.16	227.03
933.46	227.00
933.76	226.97
934.06	226.98
934.36	227.06
934.66	227.04
934.96	227.03
935.26	227.03
935.56	227.04
935.86	227.00
936.16	226.97
936.46	226.96
936.76	226.99
937.06	226.99
937.36	226.96
937.66	226.95
937.96	226.94
938.26	226.91
938.56	226.93
938.86	226.93
939.16	226.93
939.46	226.91
939.76	226.91
940.06	226.91
940.35	226.87
940.65	226.78
940.95	226.76
941.25	226.72
941.55	226.71
941.85	226.70
942.15	226.72
942.45	226.74
942.75	226.73
943.04	226.72
943.34	226.75
943.64	226.75
943.94	226.72
944.24	226.70
944.54	226.71
944.84	226.68
945.13	226.67
945.43	226.69
945.73	226.71
946.03	226.70
946.33	226.68
946.62	226.68
946.92	226.72
947.22	226.72
947.52	226.73
947.82	226.74
948.11	226.73
948.41	226.71
948.71	226.73
949.01	226.74
949.31	226.75
949.60	226.73
949.90	226.73
950.20	226.74
950.50	226.77
950.79	226.77
951.09	226.79
951.39	226.78
951.69	226.73
951.98	226.76
952.28	226.77
952.58	226.78
952.87	226.78
953.17	226.77
953.47	226.79
953.76	226.81
954.06	226.81
954.36	226.82
954.66	226.81
954.95	226.84
955.25	226.84
955.55	226.85
955.84	226.83
956.14	226.84
956.44	226.85
956.73	226.81
957.03	226.81
957.32	226.80
957.62	226.78
957.92	226.82
958.21	226.79
958.51	226.90
958.81	226.93
959.10	226.91
959.40	226.94
959.69	226.94
959.99	226.92
960.29	226.90
960.58	226.88
960.88	226.95
961.17	226.90
961.47	226.87
961.76	226.83
962.06	226.85
962.36	226.84
962.65	226.84
962.95	226.88
963.24	226.87
963.54	226.89
963.83	226.92
964.13	226.91
964.42	226.91
964.72	226.82
965.01	226.80
965.31	226.82
965.60	226.79
965.90	226.83
966.19	226.79
966.49	226.78
966.78	226.79
967.08	226.76
967.37	226.78
967.67	226.77
967.96	226.80
968.26	226.81
968.55	226.82
968.85	226.83
969.14	226.79
969.43	226.78
969.73	226.75
970.02	226.72
970.32	226.71
970.61	226.73
970.91	226.71
971.20	226.70
971.49	226.70
971.79	226.68
972.08	226.65
972.38	226.68
972.67	226.69
972.96	226.70
973.26	226.68
973.55	226.74
973.85	226.74
974.14	226.71
974.43	226.73
974.73	226.70
975.02	226.71
975.31	226.71
975.61	226.71
975.90	226.69
976.19	226.67
976.49	226.70
976.78	226.68
977.07	226.66
977.37	226.66
977.66	226.70
977.95	226.71
978.24	226.68
978.54	226.68
978.83	226.70
979.12	226.68
979.42	226.66
979.71	226.62
980.00	226.63
980.29	226.67
980.59	226.62
980.88	226.68
981.17	226.66
981.46	226.66
981.76	226.66
982.05	226.73
982.34	226.79
982.63	226.79
982.93	226.79
983.22	226.81
983.51	226.81
983.80	226.80
984.09	226.83
984.39	226.85
984.68	226.87
984.97	226.85
985.26	226.85
985.55	226.87
985.85	226.84
986.14	226.83
986.43	226.84
986.72	226.86
987.01	226.80
987.30	226.78
987.59	226.79
987.89	226.80
988.18	226.75
988.47	226.75
988.76	226.72
989.05	226.73
989.34	226.72
989.63	226.76
989.92	226.71
990.22	226.70
990.51	226.67
990.80	226.66
991.09	226.67
991.38	226.71
991.67	226.70
991.96	226.72
992.25	226.75
992.54	226.73
992.83	226.74
993.12	226.74
993.41	226.78
993.70	226.81
993.99	226.82
994.28	226.84
994.58	226.82
994.87	226.82
995.16	226.82
995.45	226.82
995.74	226.79
996.03	226.84
996.32	226.86
996.61	226.89
996.90	226.91
997.19	226.90
997.48	226.90
997.77	226.87
998.06	226.91
998.34	226.91
998.63	226.90
998.92	226.89
999.21	226.90
999.50	226.89
999.79	226.89
1000.08	226.89
1000.37	226.89
1000.66	226.92
1000.95	226.96
1001.24	226.97
1001.53	226.98
1001.82	226.95
1002.11	226.93
1002.40	226.93
1002.68	226.99
1002.97	227.01
1003.26	226.97
1003.55	226.94
1003.84	226.97
1004.13	226.94
1004.42	226.92
1004.71	226.94
1004.99	226.93
1005.28	226.97
1005.57	226.97
1005.86	226.95
1006.15	226.92
1006.44	226.90
1006.72	226.89
1007.01	226.84
1007.30	226.83
1007.59	226.81
1007.88	226.83
1008.17	226.83
1008.45	226.80
1008.74	226.77
1009.03	226.73
1009.32	226.76
1009.60	226.76
1009.89	226.75
1010.18	226.71
1010.47	226.72
1010.76	226.72
1011.04	226.72
1011.33	226.70
1011.62	226.70
1011.91	226.67
1012.19	226.68
1012.48	226.68
1012.77	226.70
1013.05	226.76
1013.34	226.78
1013.63	226.79
1013.92	226.82
1014.20	226.79
1014.49	226.78
1014.78	226.77
1015.06	226.73
1015.35	226.71
1015.64	226.72
1015.92	226.71
1016.21	226.72
1016.50	226.71
1016.78	226.70
1017.07	226.70
1017.36	226.70
1017.64	226.67
1017.93	226.70
1018.22	226.70
1018.50	226.66
1018.79	226.61
1019.08	226.57
1019.36	226.57
1019.65	226.56
1019.93	226.54
1020.22	226.58
1020.51	226.61
1020.79	226.58
1021.08	226.19
1021.36	225.81
1021.65	226.41
1021.94	226.77
1022.22	227.05
1022.51	226.62
1022.79	226.96
1023.08	226.90
1023.36	227.34
1023.65	226.23
>>>>>End Processed Spectral Data<<<<<
