SpectraSuite Data File
++++++++++++++++++++++++++++++++++++
Date: Fri Feb 01 17:40:01 EST 2013
User: group
Dark Spectrum Present: No
Reference Spectrum Present: No
Number of Sampled Component Spectra: 1
Spectrometers: USB2E7196
Integration Time (usec): 35000 (USB2E7196)
Spectra Averaged: 100 (USB2E7196)
Boxcar Smoothing: 10 (USB2E7196)
Correct for Electrical Dark: No (USB2E7196)
Strobe/Lamp Enabled: No (USB2E7196)
Correct for Detector Non-linearity: No (USB2E7196)
Correct for Stray Light: No (USB2E7196)
Number of Pixels in Processed Spectrum: 2048
>>>>>Begin Processed Spectral Data<<<<<
339.09	0.00
339.48	212.85
339.86	214.03
340.24	216.33
340.63	217.05
341.01	219.53
341.39	219.90
341.78	220.96
342.16	222.20
342.54	223.38
342.93	211.41
343.31	222.10
343.69	222.65
344.07	223.14
344.46	223.52
344.84	223.92
345.22	224.19
345.60	224.45
345.99	224.65
346.37	224.81
346.75	224.86
347.13	224.96
347.52	224.99
347.90	225.08
348.28	225.09
348.66	225.11
349.05	225.13
349.43	225.11
349.81	225.13
350.19	225.20
350.57	225.28
350.96	225.34
351.34	225.41
351.72	225.47
352.10	225.56
352.48	225.66
352.87	225.69
353.25	225.73
353.63	225.78
354.01	225.83
354.39	225.88
354.77	225.98
355.15	226.07
355.54	226.09
355.92	226.11
356.30	226.23
356.68	226.36
357.06	226.41
357.44	226.49
357.82	226.55
358.20	226.58
358.58	226.65
358.97	226.73
359.35	226.82
359.73	226.88
360.11	226.92
360.49	226.94
360.87	227.00
361.25	227.05
361.63	227.09
362.01	227.13
362.39	227.14
362.77	227.18
363.15	227.18
363.53	227.22
363.91	227.23
364.29	227.21
364.67	227.14
365.05	227.15
365.43	227.17
365.81	227.17
366.19	227.23
366.57	227.23
366.95	227.20
367.33	227.16
367.71	227.16
368.09	227.19
368.47	227.18
368.85	227.17
369.23	227.17
369.61	227.14
369.99	227.15
370.37	227.15
370.75	227.15
371.13	227.11
371.51	227.07
371.89	227.04
372.27	227.01
372.65	226.98
373.03	226.92
373.41	226.88
373.78	226.83
374.16	226.72
374.54	226.66
374.92	226.62
375.30	226.56
375.68	226.46
376.06	226.39
376.44	226.38
376.82	226.31
377.19	226.26
377.57	226.23
377.95	226.14
378.33	226.07
378.71	225.96
379.09	225.91
379.47	225.87
379.84	225.79
380.22	225.72
380.60	225.63
380.98	225.57
381.36	225.51
381.73	225.45
382.11	225.42
382.49	225.36
382.87	225.30
383.25	225.28
383.62	225.34
384.00	225.28
384.38	225.18
384.76	225.14
385.13	225.12
385.51	225.01
385.89	224.95
386.27	224.90
386.64	224.90
387.02	224.83
387.40	224.79
387.78	224.76
388.15	224.72
388.53	224.70
388.91	224.69
389.29	224.66
389.66	224.68
390.04	224.62
390.42	224.60
390.79	224.58
391.17	224.56
391.55	224.44
391.92	224.44
392.30	224.47
392.68	224.44
393.05	224.45
393.43	224.46
393.81	224.50
394.18	224.50
394.56	224.48
394.94	224.54
395.31	224.54
395.69	224.59
396.06	224.66
396.44	224.69
396.82	224.67
397.19	224.75
397.57	224.73
397.95	224.80
398.32	224.83
398.70	224.88
399.07	224.91
399.45	224.97
399.82	224.99
400.20	225.00
400.58	225.05
400.95	225.06
401.33	225.13
401.70	225.26
402.08	225.33
402.45	225.42
402.83	225.49
403.20	225.58
403.58	225.66
403.95	225.77
404.33	225.91
404.71	226.03
405.08	226.19
405.46	226.29
405.83	226.43
406.21	226.56
406.58	226.71
406.96	226.88
407.33	227.06
407.70	227.23
408.08	227.50
408.45	227.72
408.83	227.94
409.20	228.17
409.58	228.33
409.95	228.62
410.33	228.90
410.70	229.14
411.08	229.46
411.45	229.76
411.82	230.05
412.20	230.37
412.57	230.83
412.95	231.14
413.32	231.58
413.69	232.02
414.07	232.47
414.44	232.94
414.82	233.46
415.19	234.06
415.56	234.66
415.94	235.26
416.31	235.92
416.68	236.63
417.06	237.41
417.43	238.12
417.81	238.96
418.18	239.79
418.55	240.72
418.93	241.64
419.30	242.63
419.67	243.63
420.04	244.69
420.42	245.75
420.79	247.04
421.16	248.29
421.54	249.59
421.91	250.92
422.28	252.32
422.66	253.77
423.03	255.16
423.40	256.63
423.77	258.16
424.15	259.75
424.52	261.35
424.89	263.12
425.26	264.82
425.64	266.37
426.01	268.09
426.38	269.86
426.75	271.70
427.13	273.55
427.50	275.55
427.87	277.58
428.24	279.60
428.61	281.54
428.99	283.66
429.36	285.95
429.73	288.18
430.10	290.36
430.47	292.60
430.85	294.91
431.22	297.32
431.59	299.91
431.96	302.34
432.33	305.06
432.70	307.63
433.08	310.71
433.45	313.55
433.82	316.41
434.19	319.57
434.56	322.63
434.93	325.52
435.30	328.40
435.68	331.53
436.05	334.61
436.42	337.62
436.79	340.37
437.16	343.28
437.53	346.38
437.90	349.43
438.27	352.41
438.64	355.51
439.01	358.33
439.38	360.73
439.75	363.07
440.13	365.76
440.50	368.28
440.87	370.30
441.24	372.45
441.61	374.80
441.98	376.45
442.35	378.42
442.72	380.43
443.09	382.38
443.46	383.51
443.83	384.15
444.20	384.71
444.57	385.61
444.94	385.91
445.31	386.33
445.68	386.73
446.05	386.82
446.42	386.37
446.79	385.95
447.16	385.51
447.53	385.20
447.90	383.94
448.27	382.71
448.64	381.01
449.01	379.78
449.37	377.64
449.74	375.57
450.11	373.15
450.48	370.44
450.85	367.71
451.22	365.38
451.59	363.20
451.96	361.09
452.33	358.27
452.70	355.71
453.07	352.61
453.43	349.49
453.80	346.51
454.17	343.63
454.54	340.87
454.91	337.93
455.28	335.02
455.65	332.33
456.02	329.65
456.38	327.31
456.75	324.44
457.12	322.00
457.49	319.56
457.86	317.21
458.23	315.22
458.59	312.99
458.96	310.68
459.33	308.70
459.70	306.63
460.07	305.00
460.43	303.16
460.80	301.37
461.17	299.81
461.54	298.18
461.91	296.64
462.27	295.08
462.64	293.69
463.01	292.22
463.38	290.82
463.74	289.33
464.11	288.03
464.48	286.89
464.85	285.70
465.21	284.78
465.58	283.77
465.95	282.58
466.32	281.56
466.68	280.60
467.05	279.60
467.42	278.70
467.78	277.70
468.15	276.77
468.52	276.06
468.88	275.11
469.25	274.25
469.62	273.57
469.98	272.85
470.35	272.15
470.72	271.55
471.08	270.82
471.45	270.25
471.82	269.67
472.18	269.01
472.55	268.55
472.92	267.97
473.28	267.46
473.65	266.99
474.02	266.55
474.38	266.17
474.75	265.83
475.11	265.43
475.48	265.13
475.85	264.87
476.21	264.61
476.58	264.40
476.94	264.22
477.31	264.02
477.67	263.86
478.04	263.72
478.41	263.60
478.77	263.65
479.14	263.61
479.50	263.64
479.87	263.72
480.23	263.78
480.60	263.84
480.96	263.94
481.33	264.19
481.69	264.37
482.06	264.55
482.42	264.72
482.79	264.97
483.15	265.26
483.52	265.65
483.88	266.04
484.25	266.45
484.61	266.90
484.98	267.37
485.34	267.89
485.71	268.50
486.07	269.11
486.44	269.64
486.80	270.33
487.17	271.05
487.53	271.88
487.90	272.69
488.26	273.66
488.62	274.64
488.99	275.60
489.35	276.66
489.72	277.75
490.08	278.96
490.44	280.17
490.81	281.50
491.17	282.83
491.54	284.30
491.90	285.82
492.26	287.43
492.63	289.18
492.99	290.95
493.36	292.84
493.72	294.85
494.08	296.97
494.45	299.20
494.81	301.59
495.17	304.02
495.54	306.57
495.90	309.20
496.26	311.98
496.63	314.91
496.99	317.99
497.35	321.22
497.72	324.62
498.08	328.14
498.44	331.81
498.80	335.74
499.17	339.74
499.53	343.88
499.89	348.24
500.26	352.68
500.62	357.32
500.98	362.24
501.34	367.33
501.71	372.60
502.07	378.04
502.43	383.58
502.79	389.36
503.16	395.43
503.52	401.67
503.88	408.06
504.24	414.63
504.60	421.45
504.97	428.53
505.33	435.73
505.69	443.44
506.05	451.15
506.41	458.94
506.78	467.02
507.14	475.40
507.50	484.01
507.86	492.93
508.22	502.09
508.59	511.27
508.95	520.69
509.31	530.39
509.67	540.35
510.03	550.53
510.39	560.96
510.75	571.58
511.12	582.27
511.48	593.43
511.84	604.83
512.20	616.17
512.56	627.95
512.92	640.03
513.28	652.20
513.64	664.54
514.00	677.09
514.37	689.88
514.73	702.76
515.09	715.63
515.45	728.79
515.81	742.08
516.17	755.79
516.53	769.70
516.89	783.64
517.25	797.61
517.61	811.84
517.97	826.10
518.33	840.26
518.69	854.92
519.05	869.60
519.41	884.47
519.77	899.78
520.13	914.99
520.49	930.22
520.85	945.31
521.21	960.78
521.57	976.77
521.93	992.24
522.29	1008.30
522.65	1024.37
523.01	1040.21
523.37	1056.02
523.73	1071.97
524.09	1087.90
524.45	1104.04
524.81	1120.37
525.17	1136.80
525.53	1153.32
525.89	1169.99
526.25	1186.63
526.61	1202.77
526.97	1219.38
527.33	1235.65
527.68	1252.07
528.04	1268.26
528.40	1284.62
528.76	1301.44
529.12	1317.82
529.48	1334.64
529.84	1350.47
530.20	1366.89
530.56	1383.75
530.91	1401.04
531.27	1417.76
531.63	1433.99
531.99	1450.35
532.35	1466.38
532.71	1482.25
533.07	1498.40
533.42	1514.36
533.78	1530.36
534.14	1546.57
534.50	1561.77
534.86	1577.67
535.21	1592.88
535.57	1608.68
535.93	1624.19
536.29	1639.00
536.65	1654.01
537.00	1668.58
537.36	1683.99
537.72	1698.51
538.08	1712.98
538.44	1726.80
538.79	1740.69
539.15	1754.45
539.51	1768.33
539.87	1782.62
540.22	1796.38
540.58	1810.38
540.94	1823.58
541.29	1836.36
541.65	1849.22
542.01	1862.65
542.37	1875.10
542.72	1887.61
543.08	1899.75
543.44	1912.37
543.79	1923.80
544.15	1934.92
544.51	1946.85
544.87	1958.04
545.22	1969.17
545.58	1979.77
545.94	1989.78
546.29	2000.01
546.65	2010.22
547.01	2019.90
547.36	2029.05
547.72	2037.91
548.07	2046.17
548.43	2054.87
548.79	2063.23
549.14	2071.34
549.50	2078.90
549.86	2086.83
550.21	2094.54
550.57	2102.14
550.92	2109.24
551.28	2116.75
551.64	2124.23
551.99	2131.20
552.35	2137.91
552.70	2144.57
553.06	2151.07
553.41	2158.08
553.77	2164.44
554.13	2171.01
554.48	2177.60
554.84	2183.79
555.19	2189.45
555.55	2195.15
555.90	2200.16
556.26	2205.95
556.61	2211.00
556.97	2216.12
557.32	2220.94
557.68	2225.65
558.03	2230.32
558.39	2234.43
558.74	2239.58
559.10	2244.22
559.45	2248.45
559.81	2253.06
560.16	2257.37
560.52	2261.13
560.87	2264.87
561.23	2268.11
561.58	2271.41
561.94	2274.51
562.29	2277.05
562.64	2280.56
563.00	2283.55
563.35	2287.51
563.71	2291.08
564.06	2294.70
564.42	2298.03
564.77	2301.09
565.12	2304.14
565.48	2306.64
565.83	2309.19
566.19	2311.16
566.54	2312.37
566.89	2314.10
567.25	2315.46
567.60	2317.21
567.96	2319.49
568.31	2320.91
568.66	2322.56
569.02	2323.70
569.37	2324.54
569.72	2326.02
570.08	2326.59
570.43	2327.15
570.78	2327.18
571.14	2326.08
571.49	2325.17
571.84	2325.04
572.20	2324.41
572.55	2323.76
572.90	2322.63
573.26	2321.74
573.61	2320.18
573.96	2319.17
574.31	2316.66
574.67	2313.95
575.02	2310.75
575.37	2307.65
575.72	2304.44
576.08	2301.28
576.43	2298.31
576.78	2295.24
577.13	2292.27
577.49	2289.29
577.84	2286.28
578.19	2282.72
578.54	2279.61
578.90	2276.00
579.25	2270.92
579.60	2266.26
579.95	2261.52
580.30	2256.85
580.66	2251.85
581.01	2247.34
581.36	2242.59
581.71	2238.74
582.06	2234.74
582.42	2230.69
582.77	2225.72
583.12	2221.28
583.47	2217.16
583.82	2212.68
584.17	2207.45
584.53	2202.39
584.88	2197.18
585.23	2191.58
585.58	2186.46
585.93	2181.11
586.28	2176.19
586.63	2171.43
586.98	2166.50
587.34	2161.75
587.69	2156.94
588.04	2151.96
588.39	2146.43
588.74	2140.00
589.09	2133.83
589.44	2127.35
589.79	2121.08
590.14	2115.64
590.49	2109.13
590.84	2102.51
591.19	2096.51
591.54	2090.25
591.89	2083.05
592.25	2076.52
592.60	2069.47
592.95	2062.04
593.30	2054.61
593.65	2047.28
594.00	2040.22
594.35	2033.08
594.70	2025.07
595.05	2018.25
595.40	2011.01
595.75	2003.63
596.10	1997.67
596.45	1991.23
596.80	1984.91
597.15	1978.45
597.50	1971.50
597.85	1965.14
598.19	1958.72
598.54	1951.83
598.89	1945.17
599.24	1939.28
599.59	1932.77
599.94	1926.53
600.29	1920.14
600.64	1913.55
600.99	1906.15
601.34	1899.31
601.69	1892.15
602.04	1885.48
602.39	1877.78
602.74	1870.94
603.08	1864.22
603.43	1857.25
603.78	1849.73
604.13	1842.49
604.48	1835.32
604.83	1828.31
605.18	1821.53
605.53	1813.54
605.87	1805.27
606.22	1797.91
606.57	1789.69
606.92	1781.85
607.27	1774.60
607.62	1767.51
607.96	1760.28
608.31	1753.73
608.66	1746.00
609.01	1738.48
609.36	1730.84
609.70	1722.78
610.05	1714.46
610.40	1706.59
610.75	1698.23
611.10	1690.53
611.44	1681.80
611.79	1673.41
612.14	1664.49
612.49	1654.96
612.83	1646.23
613.18	1637.79
613.53	1629.33
613.88	1620.68
614.22	1612.16
614.57	1603.12
614.92	1594.81
615.27	1587.04
615.61	1578.52
615.96	1570.30
616.31	1562.35
616.65	1554.57
617.00	1546.74
617.35	1538.84
617.70	1530.27
618.04	1521.50
618.39	1512.82
618.74	1504.97
619.08	1496.56
619.43	1488.70
619.78	1481.25
620.12	1473.85
620.47	1466.11
620.82	1457.62
621.16	1449.73
621.51	1441.91
621.85	1434.00
622.20	1425.27
622.55	1416.51
622.89	1408.26
623.24	1400.18
623.59	1392.39
623.93	1384.62
624.28	1377.07
624.62	1369.27
624.97	1361.76
625.32	1354.55
625.66	1347.19
626.01	1339.81
626.35	1332.26
626.70	1324.14
627.04	1316.37
627.39	1308.36
627.73	1300.59
628.08	1293.49
628.43	1286.15
628.77	1278.65
629.12	1271.01
629.46	1263.60
629.81	1255.73
630.15	1248.16
630.50	1240.59
630.84	1232.32
631.19	1224.04
631.53	1216.26
631.88	1208.50
632.22	1200.66
632.57	1193.09
632.91	1185.30
633.26	1177.70
633.60	1169.94
633.95	1162.59
634.29	1155.23
634.64	1148.25
634.98	1140.78
635.32	1133.43
635.67	1126.45
636.01	1119.54
636.36	1112.57
636.70	1105.88
637.05	1099.19
637.39	1092.57
637.73	1085.91
638.08	1079.78
638.42	1073.68
638.77	1067.09
639.11	1060.38
639.45	1053.85
639.80	1047.10
640.14	1040.58
640.49	1033.91
640.83	1027.45
641.17	1021.12
641.52	1014.69
641.86	1008.09
642.20	1002.11
642.55	995.56
642.89	989.05
643.23	982.18
643.58	976.20
643.92	969.79
644.26	963.82
644.61	957.49
644.95	951.38
645.29	944.64
645.64	937.70
645.98	931.16
646.32	924.97
646.66	918.77
647.01	912.80
647.35	906.98
647.69	900.81
648.04	895.12
648.38	889.20
648.72	883.13
649.06	876.97
649.41	870.81
649.75	864.75
650.09	858.59
650.43	852.84
650.78	846.51
651.12	840.45
651.46	834.43
651.80	828.68
652.14	823.00
652.49	817.54
652.83	812.22
653.17	806.50
653.51	800.71
653.85	795.07
654.20	789.33
654.54	783.18
654.88	777.32
655.22	771.20
655.56	765.29
655.90	759.57
656.25	754.08
656.59	748.65
656.93	743.45
657.27	738.19
657.61	732.49
657.95	727.24
658.29	721.97
658.64	716.51
658.98	711.03
659.32	705.43
659.66	700.11
660.00	694.75
660.34	689.62
660.68	684.57
661.02	679.39
661.36	674.56
661.70	669.93
662.05	665.54
662.39	661.17
662.73	656.64
663.07	652.15
663.41	647.68
663.75	643.11
664.09	638.41
664.43	633.89
664.77	629.76
665.11	625.41
665.45	621.13
665.79	617.06
666.13	612.79
666.47	608.64
666.81	604.31
667.15	600.01
667.49	596.03
667.83	592.06
668.17	588.04
668.51	583.89
668.85	579.71
669.19	575.68
669.53	571.78
669.87	567.82
670.21	564.06
670.55	560.26
670.89	556.68
671.23	553.11
671.57	549.47
671.91	545.91
672.25	542.34
672.58	538.77
672.92	535.22
673.26	532.00
673.60	528.76
673.94	525.68
674.28	522.67
674.62	519.68
674.96	516.59
675.30	513.69
675.64	510.72
675.97	507.89
676.31	505.00
676.65	502.00
676.99	499.24
677.33	496.31
677.67	493.46
678.01	490.44
678.34	487.47
678.68	484.52
679.02	481.53
679.36	478.65
679.70	475.88
680.04	473.03
680.37	470.14
680.71	467.27
681.05	464.54
681.39	461.78
681.73	459.03
682.06	456.37
682.40	453.73
682.74	451.10
683.08	448.49
683.42	445.79
683.75	443.15
684.09	440.46
684.43	437.85
684.77	435.30
685.10	432.90
685.44	430.48
685.78	428.14
686.12	425.86
686.45	423.54
686.79	421.19
687.13	418.95
687.46	416.68
687.80	414.41
688.14	412.06
688.48	409.93
688.81	407.65
689.15	405.47
689.49	403.19
689.82	401.07
690.16	398.84
690.50	396.79
690.83	394.83
691.17	392.80
691.51	390.90
691.84	388.98
692.18	386.97
692.52	385.00
692.85	382.96
693.19	380.98
693.52	379.02
693.86	377.15
694.20	375.31
694.53	373.48
694.87	371.61
695.21	369.80
695.54	367.89
695.88	366.01
696.21	364.18
696.55	362.48
696.88	360.67
697.22	358.97
697.56	357.26
697.89	355.56
698.23	353.92
698.56	352.26
698.90	350.66
699.23	348.97
699.57	347.36
699.90	345.78
700.24	344.20
700.58	342.65
700.91	341.10
701.25	339.60
701.58	338.17
701.92	336.80
702.25	335.36
702.59	334.00
702.92	332.69
703.26	331.33
703.59	329.98
703.93	328.81
704.26	327.60
704.60	326.33
704.93	325.01
705.26	323.70
705.60	322.45
705.93	321.23
706.27	320.14
706.60	318.99
706.94	317.89
707.27	316.70
707.61	315.60
707.94	314.55
708.27	313.41
708.61	312.30
708.94	311.23
709.28	310.20
709.61	309.20
709.94	308.19
710.28	307.19
710.61	306.20
710.95	305.07
711.28	304.09
711.61	303.04
711.95	302.08
712.28	301.12
712.61	300.12
712.95	299.13
713.28	298.18
713.61	297.28
713.95	296.38
714.28	295.51
714.61	294.59
714.95	293.67
715.28	292.80
715.61	291.90
715.95	290.98
716.28	290.10
716.61	289.21
716.95	288.35
717.28	287.56
717.61	286.75
717.94	285.98
718.28	285.14
718.61	284.41
718.94	283.69
719.27	282.96
719.61	282.30
719.94	281.64
720.27	280.94
720.60	280.22
720.94	279.55
721.27	278.95
721.60	278.35
721.93	277.76
722.27	277.19
722.60	276.58
722.93	276.01
723.26	275.47
723.59	274.91
723.93	274.34
724.26	273.76
724.59	273.19
724.92	272.64
725.25	272.11
725.59	271.60
725.92	271.07
726.25	270.55
726.58	270.01
726.91	269.48
727.24	268.96
727.57	268.46
727.91	267.96
728.24	267.47
728.57	266.93
728.90	266.45
729.23	265.90
729.56	265.48
729.89	264.94
730.22	264.40
730.55	263.88
730.89	263.42
731.22	262.94
731.55	262.50
731.88	262.02
732.21	261.56
732.54	261.05
732.87	260.62
733.20	260.21
733.53	259.81
733.86	259.41
734.19	258.95
734.52	258.58
734.85	258.21
735.18	257.73
735.51	257.37
735.84	256.95
736.17	256.57
736.50	256.11
736.83	255.92
737.16	255.61
737.49	255.28
737.82	254.90
738.15	254.55
738.48	254.17
738.81	253.85
739.14	253.52
739.47	253.22
739.80	252.89
740.13	252.57
740.46	252.23
740.79	251.88
741.12	251.60
741.45	251.26
741.78	250.91
742.11	250.64
742.44	250.29
742.77	250.02
743.10	249.69
743.43	249.40
743.75	248.99
744.08	248.82
744.41	248.52
744.74	248.23
745.07	247.93
745.40	247.71
745.73	247.45
746.06	247.17
746.39	246.88
746.71	246.60
747.04	246.33
747.37	246.04
747.70	245.80
748.03	245.51
748.36	245.30
748.68	245.04
749.01	244.78
749.34	244.56
749.67	244.32
750.00	244.17
750.33	244.01
750.65	243.77
750.98	243.39
751.31	243.17
751.64	242.98
751.97	242.84
752.29	242.60
752.62	242.34
752.95	242.12
753.28	241.90
753.60	241.68
753.93	241.51
754.26	241.31
754.59	241.09
754.91	240.89
755.24	240.68
755.57	240.53
755.90	240.35
756.22	240.19
756.55	239.98
756.88	239.71
757.20	239.50
757.53	239.33
757.86	239.18
758.19	239.02
758.51	238.85
758.84	238.63
759.17	238.44
759.49	238.28
759.82	238.16
760.15	238.03
760.47	237.90
760.80	237.67
761.13	237.57
761.45	237.40
761.78	237.25
762.11	237.09
762.43	236.89
762.76	236.72
763.08	236.53
763.41	236.38
763.74	236.25
764.06	236.07
764.39	235.90
764.71	235.72
765.04	235.57
765.37	235.41
765.69	235.26
766.02	235.13
766.34	235.02
766.67	234.86
767.00	234.76
767.32	234.68
767.65	234.64
767.97	234.49
768.30	234.38
768.62	234.26
768.95	234.10
769.27	233.99
769.60	233.89
769.92	233.79
770.25	233.67
770.57	233.54
770.90	233.44
771.22	233.32
771.55	233.21
771.87	233.10
772.20	233.01
772.52	233.00
772.85	233.02
773.17	232.90
773.50	232.80
773.82	232.66
774.15	232.49
774.47	232.35
774.80	232.24
775.12	232.11
775.45	232.03
775.77	231.99
776.09	231.92
776.42	231.81
776.74	231.72
777.07	231.64
777.39	231.57
777.72	231.50
778.04	231.40
778.36	231.34
778.69	231.27
779.01	231.17
779.33	231.01
779.66	230.82
779.98	230.72
780.31	230.64
780.63	230.59
780.95	230.54
781.28	230.44
781.60	230.31
781.92	230.26
782.25	230.19
782.57	230.09
782.89	230.01
783.22	229.96
783.54	229.93
783.86	229.89
784.19	229.80
784.51	229.76
784.83	229.72
785.16	229.67
785.48	229.62
785.80	229.57
786.12	229.50
786.45	229.47
786.77	229.46
787.09	229.41
787.42	229.33
787.74	229.31
788.06	229.28
788.38	229.27
788.71	229.24
789.03	229.22
789.35	229.20
789.67	229.15
789.99	229.11
790.32	229.06
790.64	229.04
790.96	229.10
791.28	229.05
791.61	229.00
791.93	228.94
792.25	228.92
792.57	228.97
792.89	228.95
793.21	228.91
793.54	228.88
793.86	228.84
794.18	228.85
794.50	228.77
794.82	228.75
795.14	228.78
795.47	228.76
795.79	228.73
796.11	228.67
796.43	228.64
796.75	228.63
797.07	228.62
797.39	228.58
797.71	228.51
798.04	228.49
798.36	228.48
798.68	228.47
799.00	228.45
799.32	228.38
799.64	228.39
799.96	228.37
800.28	228.37
800.60	228.36
800.92	228.31
801.24	228.31
801.56	228.29
801.89	228.23
802.21	228.22
802.53	228.19
802.85	228.21
803.17	228.18
803.49	228.11
803.81	228.07
804.13	228.02
804.45	227.97
804.77	227.95
805.09	227.93
805.41	227.90
805.73	227.85
806.05	227.79
806.37	227.72
806.69	227.67
807.01	227.60
807.33	227.56
807.65	227.49
807.97	227.49
808.28	227.46
808.60	227.40
808.92	227.33
809.24	227.38
809.56	227.34
809.88	227.31
810.20	227.29
810.52	227.29
810.84	227.26
811.16	227.21
811.48	227.17
811.80	227.15
812.12	227.10
812.43	227.08
812.75	227.06
813.07	227.00
813.39	226.97
813.71	226.92
814.03	226.89
814.35	226.85
814.67	226.77
814.98	226.74
815.30	226.72
815.62	226.66
815.94	226.51
816.26	226.52
816.58	226.45
816.89	226.40
817.21	226.36
817.53	226.32
817.85	226.32
818.17	226.28
818.48	226.21
818.80	226.22
819.12	226.16
819.44	226.13
819.76	226.10
820.07	226.08
820.39	226.07
820.71	226.05
821.03	226.05
821.34	226.04
821.66	225.98
821.98	225.99
822.30	225.99
822.61	226.08
822.93	226.01
823.25	226.02
823.57	226.03
823.88	226.01
824.20	226.00
824.52	226.00
824.83	225.99
825.15	225.99
825.47	225.97
825.79	225.97
826.10	225.95
826.42	225.96
826.74	225.97
827.05	225.95
827.37	225.96
827.69	225.93
828.00	225.91
828.32	225.94
828.64	225.90
828.95	225.92
829.27	225.87
829.58	225.87
829.90	225.88
830.22	225.88
830.53	225.84
830.85	225.84
831.17	225.79
831.48	225.78
831.80	225.79
832.11	225.79
832.43	225.76
832.75	225.74
833.06	225.76
833.38	225.74
833.69	225.71
834.01	225.70
834.32	225.71
834.64	225.73
834.96	225.71
835.27	225.73
835.59	225.71
835.90	225.69
836.22	225.69
836.53	225.66
836.85	225.67
837.16	225.78
837.48	225.77
837.79	225.81
838.11	225.82
838.42	225.81
838.74	225.80
839.05	225.81
839.37	225.82
839.68	225.80
840.00	225.80
840.31	225.81
840.63	225.80
840.94	225.80
841.26	225.77
841.57	225.77
841.88	225.73
842.20	225.71
842.51	225.69
842.83	225.65
843.14	225.74
843.46	225.72
843.77	225.67
844.08	225.67
844.40	225.64
844.71	225.63
845.03	225.59
845.34	225.57
845.65	225.57
845.97	225.56
846.28	225.56
846.60	225.57
846.91	225.56
847.22	225.57
847.54	225.58
847.85	225.58
848.16	225.58
848.48	225.58
848.79	225.58
849.10	225.61
849.42	225.62
849.73	225.52
850.04	225.48
850.36	225.42
850.67	225.41
850.98	225.39
851.30	225.38
851.61	225.41
851.92	225.39
852.23	225.38
852.55	225.36
852.86	225.34
853.17	225.34
853.49	225.35
853.80	225.35
854.11	225.33
854.42	225.32
854.74	225.30
855.05	225.28
855.36	225.24
855.67	225.21
855.99	225.20
856.30	225.32
856.61	225.31
856.92	225.29
857.23	225.29
857.55	225.28
857.86	225.27
858.17	225.26
858.48	225.29
858.79	225.28
859.11	225.30
859.42	225.27
859.73	225.22
860.04	225.20
860.35	225.16
860.66	225.15
860.98	225.16
861.29	225.14
861.60	225.17
861.91	225.21
862.22	225.19
862.53	225.17
862.84	225.05
863.16	225.10
863.47	225.11
863.78	225.08
864.09	225.08
864.40	225.06
864.71	225.06
865.02	225.07
865.33	225.04
865.64	225.04
865.95	225.05
866.27	225.16
866.58	225.17
866.89	225.19
867.20	225.16
867.51	225.16
867.82	225.15
868.13	225.16
868.44	225.15
868.75	225.17
869.06	225.21
869.37	225.20
869.68	225.12
869.99	225.12
870.30	225.13
870.61	225.14
870.92	225.16
871.23	225.14
871.54	225.15
871.85	225.19
872.16	225.19
872.47	225.19
872.78	225.11
873.09	225.15
873.40	225.11
873.71	225.14
874.02	225.14
874.33	225.14
874.64	225.14
874.95	225.15
875.26	225.14
875.56	225.13
875.87	225.16
876.18	225.19
876.49	225.30
876.80	225.32
877.11	225.29
877.42	225.29
877.73	225.31
878.04	225.24
878.35	225.23
878.66	225.26
878.96	225.30
879.27	225.28
879.58	225.24
879.89	225.26
880.20	225.29
880.51	225.27
880.82	225.26
881.12	225.25
881.43	225.25
881.74	225.24
882.05	225.21
882.36	225.19
882.67	225.21
882.97	225.12
883.28	225.09
883.59	225.07
883.90	225.08
884.21	225.09
884.51	225.11
884.82	225.08
885.13	225.05
885.44	224.98
885.74	225.01
886.05	225.01
886.36	224.99
886.67	224.98
886.98	225.07
887.28	225.08
887.59	225.09
887.90	225.06
888.20	225.07
888.51	225.09
888.82	225.08
889.13	225.08
889.43	225.11
889.74	225.10
890.05	225.10
890.35	225.11
890.66	225.09
890.97	225.06
891.28	225.11
891.58	225.10
891.89	225.11
892.20	225.09
892.50	225.04
892.81	225.02
893.12	224.96
893.42	224.89
893.73	224.89
894.04	224.88
894.34	224.90
894.65	224.88
894.95	224.87
895.26	224.86
895.57	224.91
895.87	224.85
896.18	224.88
896.48	224.90
896.79	224.88
897.10	224.88
897.40	224.90
897.71	224.89
898.01	224.87
898.32	224.88
898.63	224.87
898.93	224.88
899.24	224.90
899.54	224.92
899.85	224.93
900.15	224.91
900.46	224.91
900.76	224.94
901.07	224.91
901.38	224.89
901.68	224.91
901.99	224.85
902.29	224.84
902.60	224.84
902.90	224.80
903.21	224.81
903.51	224.82
903.82	224.86
904.12	224.87
904.43	224.89
904.73	224.87
905.03	224.90
905.34	224.99
905.64	224.98
905.95	224.99
906.25	224.98
906.56	225.00
906.86	224.98
907.17	224.96
907.47	224.98
907.77	225.01
908.08	224.99
908.38	225.00
908.69	225.04
908.99	225.05
909.30	225.06
909.60	225.08
909.90	225.07
910.21	225.02
910.51	224.97
910.81	224.99
911.12	225.02
911.42	224.98
911.73	224.90
912.03	224.92
912.33	224.93
912.64	224.96
912.94	224.95
913.24	224.95
913.55	224.93
913.85	224.91
914.15	224.91
914.46	224.91
914.76	224.87
915.06	224.89
915.37	224.86
915.67	224.89
915.97	224.87
916.27	224.86
916.58	224.88
916.88	224.90
917.18	224.88
917.49	224.93
917.79	224.96
918.09	224.97
918.39	225.00
918.70	225.00
919.00	225.00
919.30	225.06
919.60	225.06
919.91	225.06
920.21	225.06
920.51	225.02
920.81	225.02
921.12	225.06
921.42	225.01
921.72	225.00
922.02	224.98
922.32	224.99
922.63	224.99
922.93	225.02
923.23	225.03
923.53	225.01
923.83	224.95
924.13	224.94
924.44	224.94
924.74	224.91
925.04	224.90
925.34	224.85
925.64	224.80
925.94	224.78
926.24	224.84
926.55	224.86
926.85	224.86
927.15	224.87
927.45	224.89
927.75	224.86
928.05	224.86
928.35	224.87
928.65	224.89
928.95	224.90
929.26	224.89
929.56	224.90
929.86	224.91
930.16	224.92
930.46	224.91
930.76	224.94
931.06	224.87
931.36	224.86
931.66	224.90
931.96	224.89
932.26	224.89
932.56	224.83
932.86	224.82
933.16	224.84
933.46	224.79
933.76	224.74
934.06	224.77
934.36	224.81
934.66	224.79
934.96	224.79
935.26	224.78
935.56	224.76
935.86	224.73
936.16	224.70
936.46	224.67
936.76	224.68
937.06	224.61
937.36	224.67
937.66	224.64
937.96	224.65
938.26	224.62
938.56	224.59
938.86	224.60
939.16	224.61
939.46	224.62
939.76	224.65
940.06	224.66
940.35	224.65
940.65	224.59
940.95	224.60
941.25	224.55
941.55	224.59
941.85	224.59
942.15	224.60
942.45	224.62
942.75	224.61
943.04	224.62
943.34	224.67
943.64	224.64
943.94	224.66
944.24	224.65
944.54	224.65
944.84	224.70
945.13	224.68
945.43	224.67
945.73	224.66
946.03	224.67
946.33	224.64
946.62	224.63
946.92	224.64
947.22	224.65
947.52	224.66
947.82	224.64
948.11	224.61
948.41	224.61
948.71	224.56
949.01	224.57
949.31	224.56
949.60	224.56
949.90	224.62
950.20	224.61
950.50	224.61
950.79	224.61
951.09	224.60
951.39	224.64
951.69	224.62
951.98	224.66
952.28	224.66
952.58	224.66
952.87	224.68
953.17	224.70
953.47	224.70
953.76	224.71
954.06	224.71
954.36	224.71
954.66	224.69
954.95	224.74
955.25	224.77
955.55	224.81
955.84	224.81
956.14	224.79
956.44	224.81
956.73	224.82
957.03	224.86
957.32	224.88
957.62	224.85
957.92	224.89
958.21	224.85
958.51	224.96
958.81	225.00
959.10	224.99
959.40	225.01
959.69	225.03
959.99	225.03
960.29	225.00
960.58	225.03
960.88	225.07
961.17	225.08
961.47	225.08
961.76	225.04
962.06	225.05
962.36	225.02
962.65	225.06
962.95	225.05
963.24	225.02
963.54	224.98
963.83	224.99
964.13	224.95
964.42	224.92
964.72	224.87
965.01	224.86
965.31	224.87
965.60	224.83
965.90	224.85
966.19	224.84
966.49	224.86
966.78	224.84
967.08	224.85
967.37	224.84
967.67	224.79
967.96	224.77
968.26	224.76
968.55	224.78
968.85	224.73
969.14	224.72
969.43	224.69
969.73	224.64
970.02	224.59
970.32	224.58
970.61	224.62
970.91	224.54
971.20	224.54
971.49	224.50
971.79	224.51
972.08	224.44
972.38	224.42
972.67	224.39
972.96	224.37
973.26	224.32
973.55	224.33
973.85	224.32
974.14	224.33
974.43	224.33
974.73	224.28
975.02	224.25
975.31	224.22
975.61	224.23
975.90	224.26
976.19	224.29
976.49	224.33
976.78	224.30
977.07	224.32
977.37	224.30
977.66	224.31
977.95	224.29
978.24	224.33
978.54	224.37
978.83	224.34
979.12	224.37
979.42	224.37
979.71	224.37
980.00	224.37
980.29	224.39
980.59	224.36
980.88	224.42
981.17	224.44
981.46	224.45
981.76	224.46
982.05	224.51
982.34	224.51
982.63	224.52
982.93	224.52
983.22	224.50
983.51	224.48
983.80	224.47
984.09	224.48
984.39	224.46
984.68	224.44
984.97	224.45
985.26	224.44
985.55	224.43
985.85	224.42
986.14	224.46
986.43	224.47
986.72	224.47
987.01	224.44
987.30	224.42
987.59	224.40
987.89	224.38
988.18	224.33
988.47	224.34
988.76	224.29
989.05	224.28
989.34	224.30
989.63	224.37
989.92	224.38
990.22	224.36
990.51	224.35
990.80	224.36
991.09	224.39
991.38	224.39
991.67	224.41
991.96	224.42
992.25	224.44
992.54	224.40
992.83	224.37
993.12	224.35
993.41	224.39
993.70	224.46
993.99	224.50
994.28	224.53
994.58	224.54
994.87	224.55
995.16	224.57
995.45	224.60
995.74	224.56
996.03	224.59
996.32	224.64
996.61	224.66
996.90	224.68
997.19	224.69
997.48	224.70
997.77	224.70
998.06	224.69
998.34	224.65
998.63	224.69
998.92	224.71
999.21	224.74
999.50	224.77
999.79	224.73
1000.08	224.72
1000.37	224.71
1000.66	224.69
1000.95	224.72
1001.24	224.73
1001.53	224.70
1001.82	224.71
1002.11	224.69
1002.40	224.67
1002.68	224.68
1002.97	224.75
1003.26	224.72
1003.55	224.71
1003.84	224.71
1004.13	224.77
1004.42	224.75
1004.71	224.76
1004.99	224.77
1005.28	224.79
1005.57	224.74
1005.86	224.72
1006.15	224.71
1006.44	224.69
1006.72	224.70
1007.01	224.69
1007.30	224.67
1007.59	224.68
1007.88	224.66
1008.17	224.65
1008.45	224.63
1008.74	224.58
1009.03	224.52
1009.32	224.53
1009.60	224.52
1009.89	224.48
1010.18	224.40
1010.47	224.39
1010.76	224.35
1011.04	224.34
1011.33	224.35
1011.62	224.35
1011.91	224.34
1012.19	224.35
1012.48	224.36
1012.77	224.33
1013.05	224.35
1013.34	224.34
1013.63	224.30
1013.92	224.29
1014.20	224.29
1014.49	224.28
1014.78	224.30
1015.06	224.28
1015.35	224.26
1015.64	224.28
1015.92	224.30
1016.21	224.33
1016.50	224.33
1016.78	224.35
1017.07	224.34
1017.36	224.31
1017.64	224.32
1017.93	224.33
1018.22	224.32
1018.50	224.31
1018.79	224.30
1019.08	224.26
1019.36	224.27
1019.65	224.27
1019.93	224.29
1020.22	224.32
1020.51	224.35
1020.79	224.33
1021.08	224.27
1021.36	223.81
1021.65	224.10
1021.94	224.32
1022.22	224.15
1022.51	223.98
1022.79	224.50
1023.08	224.73
1023.36	224.90
1023.65	224.16
>>>>>End Processed Spectral Data<<<<<
