SpectraSuite Data File
++++++++++++++++++++++++++++++++++++
Date: Fri Feb 01 16:20:41 EST 2013
User: group
Dark Spectrum Present: No
Reference Spectrum Present: No
Number of Sampled Component Spectra: 1
Spectrometers: USB2E7196
Integration Time (usec): 35000 (USB2E7196)
Spectra Averaged: 100 (USB2E7196)
Boxcar Smoothing: 10 (USB2E7196)
Correct for Electrical Dark: No (USB2E7196)
Strobe/Lamp Enabled: No (USB2E7196)
Correct for Detector Non-linearity: No (USB2E7196)
Correct for Stray Light: No (USB2E7196)
Number of Pixels in Processed Spectrum: 2048
>>>>>Begin Processed Spectral Data<<<<<
339.09	0.00
339.48	214.44
339.86	215.85
340.24	217.44
340.63	219.29
341.01	221.70
341.39	221.47
341.78	223.06
342.16	223.65
342.54	224.30
342.93	212.73
343.31	223.45
343.69	223.97
344.07	224.43
344.46	224.85
344.84	225.20
345.22	225.40
345.60	225.66
345.99	225.81
346.37	225.96
346.75	226.05
347.13	226.12
347.52	226.14
347.90	226.18
348.28	226.20
348.66	226.19
349.05	226.17
349.43	226.19
349.81	226.19
350.19	226.23
350.57	226.26
350.96	226.30
351.34	226.40
351.72	226.47
352.10	226.57
352.48	226.62
352.87	226.65
353.25	226.72
353.63	226.76
354.01	226.81
354.39	226.87
354.77	226.91
355.15	226.98
355.54	227.05
355.92	227.11
356.30	227.18
356.68	227.33
357.06	227.40
357.44	227.48
357.82	227.53
358.20	227.61
358.58	227.68
358.97	227.77
359.35	227.82
359.73	227.92
360.11	227.94
360.49	227.96
360.87	228.00
361.25	228.05
361.63	228.11
362.01	228.16
362.39	228.16
362.77	228.23
363.15	228.24
363.53	228.26
363.91	228.27
364.29	228.30
364.67	228.23
365.05	228.26
365.43	228.28
365.81	228.34
366.19	228.34
366.57	228.40
366.95	228.40
367.33	228.38
367.71	228.34
368.09	228.35
368.47	228.37
368.85	228.35
369.23	228.36
369.61	228.29
369.99	228.27
370.37	228.25
370.75	228.28
371.13	228.22
371.51	228.15
371.89	228.15
372.27	228.12
372.65	228.10
373.03	228.03
373.41	227.94
373.78	227.88
374.16	227.83
374.54	227.75
374.92	227.70
375.30	227.65
375.68	227.57
376.06	227.52
376.44	227.44
376.82	227.40
377.19	227.31
377.57	227.27
377.95	227.21
378.33	227.18
378.71	227.05
379.09	227.04
379.47	227.01
379.84	226.87
380.22	226.79
380.60	226.72
380.98	226.66
381.36	226.62
381.73	226.55
382.11	226.50
382.49	226.43
382.87	226.32
383.25	226.25
383.62	226.33
384.00	226.26
384.38	226.17
384.76	226.14
385.13	226.11
385.51	226.05
385.89	225.98
386.27	225.91
386.64	225.84
387.02	225.78
387.40	225.73
387.78	225.76
388.15	225.72
388.53	225.65
388.91	225.61
389.29	225.59
389.66	225.52
390.04	225.48
390.42	225.48
390.79	225.48
391.17	225.50
391.55	225.35
391.92	225.36
392.30	225.38
392.68	225.36
393.05	225.35
393.43	225.37
393.81	225.39
394.18	225.37
394.56	225.39
394.94	225.45
395.31	225.48
395.69	225.52
396.06	225.57
396.44	225.62
396.82	225.68
397.19	225.76
397.57	225.84
397.95	225.92
398.32	225.92
398.70	225.95
399.07	226.01
399.45	226.08
399.82	226.12
400.20	226.15
400.58	226.20
400.95	226.24
401.33	226.33
401.70	226.45
402.08	226.54
402.45	226.64
402.83	226.72
403.20	226.77
403.58	226.85
403.95	226.97
404.33	227.08
404.71	227.20
405.08	227.34
405.46	227.43
405.83	227.56
406.21	227.74
406.58	227.92
406.96	228.07
407.33	228.24
407.70	228.45
408.08	228.72
408.45	228.94
408.83	229.19
409.20	229.39
409.58	229.55
409.95	229.84
410.33	230.07
410.70	230.32
411.08	230.64
411.45	230.94
411.82	231.22
412.20	231.61
412.57	231.98
412.95	232.31
413.32	232.73
413.69	233.16
414.07	233.60
414.44	234.08
414.82	234.58
415.19	235.14
415.56	235.68
415.94	236.26
416.31	236.92
416.68	237.57
417.06	238.28
417.43	239.01
417.81	239.79
418.18	240.60
418.55	241.47
418.93	242.35
419.30	243.28
419.67	244.24
420.04	245.16
420.42	246.19
420.79	247.35
421.16	248.52
421.54	249.67
421.91	250.88
422.28	252.12
422.66	253.42
423.03	254.68
423.40	256.04
423.77	257.44
424.15	258.85
424.52	260.32
424.89	261.94
425.26	263.45
425.64	264.87
426.01	266.47
426.38	268.13
426.75	269.82
427.13	271.53
427.50	273.33
427.87	275.22
428.24	277.05
428.61	278.78
428.99	280.73
429.36	282.83
429.73	284.88
430.10	286.91
430.47	288.99
430.85	291.11
431.22	293.36
431.59	295.72
431.96	297.95
432.33	300.43
432.70	302.80
433.08	305.60
433.45	308.24
433.82	310.83
434.19	313.70
434.56	316.49
434.93	319.11
435.30	321.75
435.68	324.64
436.05	327.48
436.42	330.31
436.79	332.77
437.16	335.49
437.53	338.31
437.90	341.11
438.27	343.83
438.64	346.71
439.01	349.29
439.38	351.50
439.75	353.68
440.13	356.18
440.50	358.48
440.87	360.33
441.24	362.23
441.61	364.40
441.98	365.85
442.35	367.66
442.72	369.50
443.09	371.28
443.46	372.21
443.83	372.82
444.20	373.32
444.57	374.17
444.94	374.42
445.31	374.78
445.68	375.13
446.05	375.25
446.42	374.85
446.79	374.42
447.16	374.02
447.53	373.67
447.90	372.49
448.27	371.36
448.64	369.77
449.01	368.64
449.37	366.68
449.74	364.84
450.11	362.61
450.48	360.21
450.85	357.66
451.22	355.56
451.59	353.51
451.96	351.57
452.33	348.98
452.70	346.64
453.07	343.79
453.43	340.92
453.80	338.11
454.17	335.42
454.54	332.89
454.91	330.15
455.28	327.49
455.65	325.02
456.02	322.57
456.38	320.43
456.75	317.78
457.12	315.50
457.49	313.26
457.86	311.10
458.23	309.20
458.59	307.20
458.96	305.12
459.33	303.32
459.70	301.45
460.07	299.96
460.43	298.26
460.80	296.65
461.17	295.19
461.54	293.73
461.91	292.31
462.27	290.86
462.64	289.60
463.01	288.26
463.38	286.97
463.74	285.62
464.11	284.48
464.48	283.48
464.85	282.40
465.21	281.55
465.58	280.64
465.95	279.56
466.32	278.63
466.68	277.75
467.05	276.85
467.42	275.98
467.78	275.07
468.15	274.21
468.52	273.57
468.88	272.71
469.25	271.93
469.62	271.31
469.98	270.61
470.35	269.97
470.72	269.39
471.08	268.74
471.45	268.19
471.82	267.67
472.18	267.09
472.55	266.66
472.92	266.15
473.28	265.66
473.65	265.21
474.02	264.79
474.38	264.43
474.75	264.12
475.11	263.75
475.48	263.51
475.85	263.25
476.21	263.00
476.58	262.83
476.94	262.71
477.31	262.56
477.67	262.40
478.04	262.31
478.41	262.25
478.77	262.29
479.14	262.27
479.50	262.33
479.87	262.40
480.23	262.48
480.60	262.54
480.96	262.64
481.33	262.88
481.69	263.09
482.06	263.32
482.42	263.53
482.79	263.82
483.15	264.14
483.52	264.55
483.88	264.93
484.25	265.33
484.61	265.74
484.98	266.23
485.34	266.82
485.71	267.43
486.07	268.07
486.44	268.65
486.80	269.37
487.17	270.08
487.53	270.90
487.90	271.79
488.26	272.77
488.62	273.76
488.99	274.74
489.35	275.82
489.72	276.93
490.08	278.11
490.44	279.32
490.81	280.68
491.17	282.04
491.54	283.53
491.90	285.09
492.26	286.77
492.63	288.46
492.99	290.25
493.36	292.10
493.72	294.19
494.08	296.29
494.45	298.54
494.81	300.87
495.17	303.27
495.54	305.80
495.90	308.46
496.26	311.27
496.63	314.22
496.99	317.32
497.35	320.59
497.72	324.03
498.08	327.55
498.44	331.19
498.80	335.16
499.17	339.17
499.53	343.35
499.89	347.69
500.26	352.22
500.62	356.91
500.98	361.88
501.34	366.87
501.71	372.22
502.07	377.66
502.43	383.29
502.79	389.18
503.16	395.29
503.52	401.53
503.88	407.93
504.24	414.57
504.60	421.45
504.97	428.62
505.33	435.92
505.69	443.66
506.05	451.48
506.41	459.32
506.78	467.47
507.14	475.93
507.50	484.68
507.86	493.71
508.22	502.93
508.59	512.14
508.95	521.83
509.31	531.60
509.67	541.71
510.03	551.98
510.39	562.49
510.75	573.31
511.12	584.24
511.48	595.60
511.84	607.05
512.20	618.49
512.56	630.42
512.92	642.65
513.28	654.91
513.64	667.43
514.00	680.09
514.37	692.95
514.73	706.00
515.09	719.01
515.45	732.30
515.81	745.84
516.17	759.89
516.53	773.96
516.89	788.14
517.25	802.29
517.61	816.71
517.97	831.16
518.33	845.50
518.69	860.31
519.05	875.24
519.41	890.45
519.77	906.02
520.13	921.46
520.49	936.85
520.85	952.32
521.21	968.01
521.57	984.23
521.93	1000.09
522.29	1016.48
522.65	1032.76
523.01	1048.99
523.37	1065.14
523.73	1081.21
524.09	1097.32
524.45	1113.63
524.81	1130.24
525.17	1147.00
525.53	1163.95
525.89	1180.84
526.25	1197.62
526.61	1213.99
526.97	1230.61
527.33	1247.01
527.68	1263.53
528.04	1279.87
528.40	1296.41
528.76	1313.39
529.12	1330.08
529.48	1346.86
529.84	1362.85
530.20	1379.35
530.56	1396.17
530.91	1413.46
531.27	1430.15
531.63	1446.52
531.99	1462.94
532.35	1478.83
532.71	1494.71
533.07	1510.85
533.42	1526.69
533.78	1542.70
534.14	1558.94
534.50	1574.28
534.86	1590.15
535.21	1605.12
535.57	1620.83
535.93	1636.25
536.29	1651.00
536.65	1665.82
537.00	1680.48
537.36	1695.67
537.72	1710.11
538.08	1724.58
538.44	1738.25
538.79	1752.13
539.15	1765.62
539.51	1779.25
539.87	1793.54
540.22	1807.19
540.58	1820.85
540.94	1834.11
541.29	1846.81
541.65	1859.39
542.01	1872.48
542.37	1884.76
542.72	1897.25
543.08	1909.12
543.44	1921.43
543.79	1932.78
544.15	1943.70
544.51	1955.22
544.87	1966.10
545.22	1976.90
545.58	1986.99
545.94	1996.60
546.29	2006.39
546.65	2016.28
547.01	2025.57
547.36	2034.20
547.72	2042.60
548.07	2050.38
548.43	2058.46
548.79	2066.55
549.14	2074.01
549.50	2081.32
549.86	2088.79
550.21	2096.00
550.57	2103.10
550.92	2109.65
551.28	2116.40
551.64	2123.47
551.99	2130.03
552.35	2136.06
552.70	2142.13
553.06	2148.18
553.41	2154.67
553.77	2160.64
554.13	2166.83
554.48	2173.03
554.84	2178.43
555.19	2183.72
555.55	2188.85
555.90	2193.33
556.26	2198.19
556.61	2202.98
556.97	2207.38
557.32	2211.61
557.68	2215.75
558.03	2220.00
558.39	2223.61
558.74	2228.34
559.10	2232.28
559.45	2235.89
559.81	2240.33
560.16	2244.32
560.52	2247.53
560.87	2250.84
561.23	2253.51
561.58	2256.37
561.94	2258.76
562.29	2261.23
562.64	2263.82
563.00	2266.41
563.35	2269.82
563.71	2272.92
564.06	2276.17
564.42	2278.97
564.77	2281.36
565.12	2283.73
565.48	2285.57
565.83	2287.67
566.19	2288.76
566.54	2289.61
566.89	2290.83
567.25	2291.30
567.60	2292.36
567.96	2294.16
568.31	2294.97
568.66	2296.14
569.02	2296.71
569.37	2297.04
569.72	2297.80
570.08	2297.96
570.43	2298.22
570.78	2297.91
571.14	2296.43
571.49	2295.07
571.84	2294.72
572.20	2293.76
572.55	2292.77
572.90	2291.46
573.26	2290.09
573.61	2288.56
573.96	2286.76
574.31	2283.73
574.67	2280.82
575.02	2277.38
575.37	2273.89
575.72	2270.20
576.08	2266.95
576.43	2263.58
576.78	2260.03
577.13	2257.02
577.49	2254.13
577.84	2250.64
578.19	2246.79
578.54	2243.18
578.90	2238.97
579.25	2233.39
579.60	2228.45
579.95	2223.49
580.30	2218.58
580.66	2213.34
581.01	2208.51
581.36	2203.69
581.71	2199.59
582.06	2195.22
582.42	2190.77
582.77	2185.65
583.12	2181.18
583.47	2176.39
583.82	2171.52
584.17	2166.34
584.53	2160.83
584.88	2155.12
585.23	2149.32
585.58	2143.87
585.93	2138.46
586.28	2133.76
586.63	2128.88
586.98	2123.83
587.34	2119.10
587.69	2114.16
588.04	2108.96
588.39	2103.30
588.74	2096.90
589.09	2090.84
589.44	2084.03
589.79	2078.04
590.14	2072.38
590.49	2065.75
590.84	2059.40
591.19	2053.41
591.54	2046.99
591.89	2039.80
592.25	2033.03
592.60	2025.90
592.95	2018.43
593.30	2011.21
593.65	2003.60
594.00	1996.52
594.35	1989.35
594.70	1981.42
595.05	1974.18
595.40	1966.94
595.75	1959.42
596.10	1953.30
596.45	1946.64
596.80	1940.62
597.15	1934.18
597.50	1927.05
597.85	1920.74
598.19	1914.16
598.54	1907.07
598.89	1900.43
599.24	1894.42
599.59	1887.84
599.94	1881.58
600.29	1875.24
600.64	1868.64
600.99	1861.24
601.34	1854.52
601.69	1847.68
602.04	1840.89
602.39	1833.56
602.74	1826.76
603.08	1820.06
603.43	1813.32
603.78	1805.93
604.13	1798.76
604.48	1791.30
604.83	1784.59
605.18	1777.60
605.53	1769.60
605.87	1761.63
606.22	1754.48
606.57	1746.48
606.92	1739.12
607.27	1731.87
607.62	1724.93
607.96	1717.68
608.31	1711.10
608.66	1703.54
609.01	1695.82
609.36	1688.16
609.70	1680.20
610.05	1672.10
610.40	1664.43
610.75	1656.08
611.10	1648.50
611.44	1640.07
611.79	1632.18
612.14	1623.54
612.49	1614.44
612.83	1606.04
613.18	1598.02
613.53	1589.85
613.88	1581.37
614.22	1573.03
614.57	1564.61
614.92	1556.59
615.27	1549.11
615.61	1540.76
615.96	1532.69
616.31	1525.18
616.65	1517.76
617.00	1510.25
617.35	1502.58
617.70	1494.20
618.04	1485.63
618.39	1477.37
618.74	1469.84
619.08	1461.51
619.43	1453.81
619.78	1446.84
620.12	1439.72
620.47	1432.14
620.82	1423.92
621.16	1416.56
621.51	1409.07
621.85	1401.35
622.20	1392.80
622.55	1384.30
622.89	1376.47
623.24	1368.79
623.59	1361.31
623.93	1353.79
624.28	1346.55
624.62	1339.09
624.97	1331.96
625.32	1325.30
625.66	1318.32
626.01	1311.11
626.35	1303.66
626.70	1296.02
627.04	1288.22
627.39	1280.50
627.73	1273.04
628.08	1266.17
628.43	1258.80
628.77	1251.42
629.12	1243.93
629.46	1236.86
629.81	1229.46
630.15	1222.20
630.50	1214.87
630.84	1206.74
631.19	1198.88
631.53	1191.35
631.88	1183.76
632.22	1176.08
632.57	1168.79
632.91	1161.17
633.26	1153.72
633.60	1146.40
633.95	1139.20
634.29	1132.22
634.64	1125.51
634.98	1118.28
635.32	1111.07
635.67	1104.52
636.01	1097.86
636.36	1090.99
636.70	1084.41
637.05	1077.89
637.39	1071.29
637.73	1064.75
638.08	1058.73
638.42	1052.67
638.77	1046.20
639.11	1039.66
639.45	1033.26
639.80	1026.47
640.14	1020.06
640.49	1013.43
640.83	1007.09
641.17	1000.91
641.52	994.51
641.86	987.95
642.20	981.98
642.55	975.75
642.89	969.34
643.23	962.75
643.58	956.92
643.92	950.75
644.26	944.62
644.61	938.66
644.95	932.53
645.29	925.98
645.64	919.22
645.98	912.88
646.32	907.02
646.66	900.96
647.01	895.16
647.35	889.43
647.69	883.59
648.04	878.07
648.38	872.21
648.72	866.19
649.06	860.22
649.41	854.34
649.75	848.25
650.09	842.27
650.43	836.51
650.78	830.33
651.12	824.35
651.46	818.61
651.80	812.90
652.14	807.58
652.49	802.26
652.83	797.09
653.17	791.34
653.51	785.57
653.85	780.28
654.20	774.67
654.54	768.72
654.88	763.00
655.22	757.01
655.56	751.34
655.90	745.89
656.25	740.60
656.59	735.20
656.93	730.21
657.27	725.02
657.61	719.60
657.95	714.60
658.29	709.54
658.64	704.24
658.98	698.86
659.32	693.40
659.66	688.17
660.00	682.87
660.34	678.02
660.68	673.12
661.02	667.99
661.36	663.33
661.70	658.84
662.05	654.49
662.39	650.26
662.73	645.83
663.07	641.50
663.41	637.05
663.75	632.52
664.09	627.95
664.43	623.55
664.77	619.42
665.11	615.17
665.45	610.99
665.79	606.97
666.13	602.93
666.47	598.82
666.81	594.69
667.15	590.59
667.49	586.58
667.83	582.74
668.17	578.86
668.51	574.74
668.85	570.69
669.19	566.86
669.53	563.02
669.87	559.13
670.21	555.41
670.55	551.77
670.89	548.41
671.23	544.98
671.57	541.43
671.91	537.89
672.25	534.32
672.58	530.81
672.92	527.38
673.26	524.20
673.60	521.04
673.94	517.91
674.28	514.99
674.62	512.10
674.96	508.96
675.30	505.97
675.64	503.05
675.97	500.27
676.31	497.38
676.65	494.46
676.99	491.70
677.33	488.82
677.67	485.95
678.01	482.89
678.34	479.91
678.68	477.04
679.02	474.20
679.36	471.46
679.70	468.81
680.04	466.03
680.37	463.12
680.71	460.35
681.05	457.65
681.39	454.92
681.73	452.27
682.06	449.79
682.40	447.28
682.74	444.70
683.08	442.10
683.42	439.50
683.75	436.94
684.09	434.40
684.43	431.94
684.77	429.48
685.10	427.17
685.44	424.82
685.78	422.55
686.12	420.27
686.45	417.94
686.79	415.53
687.13	413.35
687.46	411.14
687.80	408.95
688.14	406.77
688.48	404.72
688.81	402.45
689.15	400.28
689.49	398.13
689.82	396.07
690.16	393.99
690.50	392.03
690.83	390.09
691.17	388.14
691.51	386.20
691.84	384.39
692.18	382.41
692.52	380.41
692.85	378.45
693.19	376.56
693.52	374.74
693.86	372.98
694.20	371.18
694.53	369.41
694.87	367.53
695.21	365.77
695.54	363.92
695.88	362.23
696.21	360.50
696.55	358.81
696.88	357.15
697.22	355.51
697.56	353.90
697.89	352.23
698.23	350.57
698.56	348.97
698.90	347.37
699.23	345.76
699.57	344.24
699.90	342.74
700.24	341.26
700.58	339.73
700.91	338.23
701.25	336.81
701.58	335.43
701.92	334.10
702.25	332.71
702.59	331.37
702.92	330.03
703.26	328.75
703.59	327.50
703.93	326.30
704.26	325.05
704.60	323.73
704.93	322.48
705.26	321.26
705.60	320.08
705.93	318.92
706.27	317.86
706.60	316.80
706.94	315.69
707.27	314.52
707.61	313.50
707.94	312.47
708.27	311.35
708.61	310.27
708.94	309.27
709.28	308.30
709.61	307.34
709.94	306.36
710.28	305.33
710.61	304.33
710.95	303.25
711.28	302.39
711.61	301.43
711.95	300.52
712.28	299.57
712.61	298.60
712.95	297.68
713.28	296.80
713.61	295.89
713.95	295.03
714.28	294.19
714.61	293.29
714.95	292.45
715.28	291.62
715.61	290.78
715.95	289.92
716.28	289.08
716.61	288.22
716.95	287.40
717.28	286.67
717.61	285.91
717.94	285.16
718.28	284.30
718.61	283.59
718.94	282.85
719.27	282.20
719.61	281.55
719.94	280.90
720.27	280.19
720.60	279.53
720.94	278.87
721.27	278.27
721.60	277.70
721.93	277.10
722.27	276.52
722.60	275.93
722.93	275.35
723.26	274.76
723.59	274.18
723.93	273.61
724.26	273.06
724.59	272.47
724.92	271.94
725.25	271.45
725.59	270.92
725.92	270.42
726.25	269.85
726.58	269.35
726.91	268.84
727.24	268.33
727.57	267.83
727.91	267.32
728.24	266.84
728.57	266.33
728.90	265.86
729.23	265.37
729.56	264.92
729.89	264.39
730.22	263.94
730.55	263.50
730.89	263.09
731.22	262.63
731.55	262.23
731.88	261.78
732.21	261.36
732.54	260.94
732.87	260.51
733.20	260.14
733.53	259.73
733.86	259.31
734.19	258.90
734.52	258.54
734.85	258.23
735.18	257.81
735.51	257.47
735.84	257.07
736.17	256.71
736.50	256.30
736.83	256.10
737.16	255.74
737.49	255.43
737.82	255.05
738.15	254.70
738.48	254.35
738.81	254.04
739.14	253.67
739.47	253.36
739.80	253.04
740.13	252.73
740.46	252.42
740.79	252.09
741.12	251.82
741.45	251.46
741.78	251.11
742.11	250.85
742.44	250.49
742.77	250.20
743.10	249.92
743.43	249.65
743.75	249.28
744.08	249.15
744.41	248.83
744.74	248.57
745.07	248.29
745.40	248.09
745.73	247.87
746.06	247.62
746.39	247.38
746.71	247.10
747.04	246.84
747.37	246.59
747.70	246.36
748.03	246.09
748.36	245.93
748.68	245.69
749.01	245.46
749.34	245.28
749.67	245.05
750.00	244.83
750.33	244.71
750.65	244.51
750.98	244.15
751.31	243.93
751.64	243.75
751.97	243.62
752.29	243.35
752.62	243.09
752.95	242.89
753.28	242.66
753.60	242.50
753.93	242.30
754.26	242.10
754.59	241.86
754.91	241.67
755.24	241.44
755.57	241.25
755.90	241.04
756.22	240.82
756.55	240.65
756.88	240.44
757.20	240.20
757.53	240.03
757.86	239.90
758.19	239.76
758.51	239.60
758.84	239.40
759.17	239.24
759.49	239.11
759.82	238.99
760.15	238.82
760.47	238.65
760.80	238.49
761.13	238.34
761.45	238.21
761.78	238.07
762.11	237.94
762.43	237.78
762.76	237.62
763.08	237.52
763.41	237.38
763.74	237.25
764.06	237.08
764.39	236.90
764.71	236.74
765.04	236.56
765.37	236.35
765.69	236.21
766.02	236.11
766.34	235.92
766.67	235.75
767.00	235.65
767.32	235.60
767.65	235.55
767.97	235.44
768.30	235.30
768.62	235.17
768.95	235.04
769.27	234.93
769.60	234.84
769.92	234.69
770.25	234.58
770.57	234.44
770.90	234.37
771.22	234.26
771.55	234.17
771.87	234.10
772.20	234.02
772.52	233.98
772.85	233.96
773.17	233.88
773.50	233.75
773.82	233.62
774.15	233.47
774.47	233.34
774.80	233.23
775.12	233.14
775.45	233.06
775.77	232.99
776.09	232.93
776.42	232.86
776.74	232.82
777.07	232.70
777.39	232.64
777.72	232.53
778.04	232.48
778.36	232.38
778.69	232.29
779.01	232.27
779.33	232.11
779.66	231.94
779.98	231.87
780.31	231.87
780.63	231.86
780.95	231.80
781.28	231.69
781.60	231.61
781.92	231.61
782.25	231.55
782.57	231.48
782.89	231.44
783.22	231.36
783.54	231.30
783.86	231.26
784.19	231.20
784.51	231.19
784.83	231.14
785.16	231.11
785.48	231.09
785.80	231.03
786.12	230.99
786.45	230.98
786.77	230.98
787.09	230.92
787.42	230.87
787.74	230.87
788.06	230.85
788.38	230.82
788.71	230.75
789.03	230.71
789.35	230.69
789.67	230.62
789.99	230.59
790.32	230.53
790.64	230.51
790.96	230.58
791.28	230.49
791.61	230.46
791.93	230.46
792.25	230.40
792.57	230.42
792.89	230.37
793.21	230.33
793.54	230.24
793.86	230.19
794.18	230.13
794.50	230.04
794.82	230.03
795.14	230.02
795.47	229.99
795.79	229.97
796.11	229.89
796.43	229.85
796.75	229.84
797.07	229.81
797.39	229.76
797.71	229.63
798.04	229.63
798.36	229.56
798.68	229.51
799.00	229.46
799.32	229.40
799.64	229.42
799.96	229.38
800.28	229.38
800.60	229.33
800.92	229.30
801.24	229.26
801.56	229.20
801.89	229.17
802.21	229.15
802.53	229.08
802.85	229.11
803.17	229.14
803.49	229.05
803.81	229.00
804.13	228.98
804.45	228.96
804.77	228.94
805.09	228.90
805.41	228.86
805.73	228.81
806.05	228.71
806.37	228.64
806.69	228.59
807.01	228.56
807.33	228.54
807.65	228.51
807.97	228.53
808.28	228.51
808.60	228.48
808.92	228.44
809.24	228.48
809.56	228.42
809.88	228.35
810.20	228.37
810.52	228.39
810.84	228.36
811.16	228.32
811.48	228.27
811.80	228.30
812.12	228.28
812.43	228.26
812.75	228.25
813.07	228.23
813.39	228.23
813.71	228.18
814.03	228.13
814.35	228.12
814.67	228.06
814.98	228.03
815.30	227.99
815.62	227.95
815.94	227.87
816.26	227.88
816.58	227.85
816.89	227.81
817.21	227.77
817.53	227.76
817.85	227.72
818.17	227.69
818.48	227.62
818.80	227.62
819.12	227.60
819.44	227.59
819.76	227.55
820.07	227.55
820.39	227.55
820.71	227.55
821.03	227.50
821.34	227.50
821.66	227.48
821.98	227.49
822.30	227.49
822.61	227.53
822.93	227.49
823.25	227.49
823.57	227.47
823.88	227.48
824.20	227.45
824.52	227.49
824.83	227.51
825.15	227.49
825.47	227.46
825.79	227.45
826.10	227.45
826.42	227.45
826.74	227.42
827.05	227.41
827.37	227.39
827.69	227.37
828.00	227.37
828.32	227.37
828.64	227.32
828.95	227.35
829.27	227.30
829.58	227.29
829.90	227.29
830.22	227.28
830.53	227.22
830.85	227.18
831.17	227.14
831.48	227.10
831.80	227.13
832.11	227.12
832.43	227.10
832.75	227.07
833.06	227.14
833.38	227.10
833.69	227.06
834.01	227.08
834.32	227.08
834.64	227.05
834.96	227.04
835.27	227.03
835.59	227.00
835.90	226.95
836.22	226.92
836.53	226.86
836.85	226.87
837.16	226.97
837.48	226.99
837.79	227.01
838.11	227.00
838.42	226.98
838.74	226.99
839.05	226.99
839.37	226.97
839.68	226.86
840.00	226.87
840.31	226.88
840.63	226.88
840.94	226.87
841.26	226.86
841.57	226.87
841.88	226.88
842.20	226.81
842.51	226.84
842.83	226.86
843.14	226.96
843.46	226.92
843.77	226.85
844.08	226.81
844.40	226.79
844.71	226.76
845.03	226.76
845.34	226.76
845.65	226.75
845.97	226.79
846.28	226.82
846.60	226.85
846.91	226.87
847.22	226.83
847.54	226.86
847.85	226.86
848.16	226.84
848.48	226.83
848.79	226.88
849.10	226.91
849.42	226.91
849.73	226.83
850.04	226.88
850.36	226.83
850.67	226.87
850.98	226.89
851.30	226.90
851.61	226.88
851.92	226.86
852.23	226.87
852.55	226.91
852.86	226.90
853.17	226.89
853.49	226.91
853.80	226.96
854.11	226.96
854.42	226.96
854.74	226.97
855.05	227.01
855.36	226.96
855.67	226.95
855.99	226.95
856.30	227.07
856.61	227.03
856.92	227.06
857.23	227.06
857.55	227.04
857.86	227.02
858.17	227.07
858.48	227.05
858.79	227.04
859.11	227.02
859.42	227.01
859.73	226.99
860.04	226.99
860.35	226.92
860.66	226.91
860.98	226.93
861.29	226.94
861.60	226.92
861.91	226.93
862.22	226.88
862.53	226.89
862.84	226.79
863.16	226.83
863.47	226.79
863.78	226.78
864.09	226.78
864.40	226.80
864.71	226.75
865.02	226.78
865.33	226.77
865.64	226.73
865.95	226.73
866.27	226.80
866.58	226.76
866.89	226.80
867.20	226.77
867.51	226.70
867.82	226.63
868.13	226.67
868.44	226.65
868.75	226.70
869.06	226.68
869.37	226.65
869.68	226.63
869.99	226.68
870.30	226.66
870.61	226.65
870.92	226.64
871.23	226.64
871.54	226.63
871.85	226.64
872.16	226.63
872.47	226.61
872.78	226.55
873.09	226.57
873.40	226.51
873.71	226.54
874.02	226.54
874.33	226.55
874.64	226.49
874.95	226.51
875.26	226.48
875.56	226.45
875.87	226.42
876.18	226.40
876.49	226.48
876.80	226.47
877.11	226.45
877.42	226.45
877.73	226.46
878.04	226.43
878.35	226.43
878.66	226.39
878.96	226.39
879.27	226.36
879.58	226.33
879.89	226.32
880.20	226.34
880.51	226.34
880.82	226.34
881.12	226.34
881.43	226.35
881.74	226.37
882.05	226.37
882.36	226.40
882.67	226.41
882.97	226.30
883.28	226.30
883.59	226.31
883.90	226.30
884.21	226.31
884.51	226.36
884.82	226.35
885.13	226.44
885.44	226.46
885.74	226.47
886.05	226.51
886.36	226.54
886.67	226.52
886.98	226.55
887.28	226.57
887.59	226.58
887.90	226.54
888.20	226.52
888.51	226.56
888.82	226.53
889.13	226.54
889.43	226.61
889.74	226.60
890.05	226.61
890.35	226.64
890.66	226.60
890.97	226.56
891.28	226.53
891.58	226.51
891.89	226.49
892.20	226.51
892.50	226.47
892.81	226.46
893.12	226.42
893.42	226.39
893.73	226.41
894.04	226.40
894.34	226.43
894.65	226.42
894.95	226.39
895.26	226.42
895.57	226.44
895.87	226.37
896.18	226.39
896.48	226.40
896.79	226.36
897.10	226.37
897.40	226.37
897.71	226.41
898.01	226.39
898.32	226.41
898.63	226.40
898.93	226.39
899.24	226.42
899.54	226.46
899.85	226.47
900.15	226.46
900.46	226.47
900.76	226.44
901.07	226.44
901.38	226.45
901.68	226.46
901.99	226.41
902.29	226.45
902.60	226.45
902.90	226.46
903.21	226.46
903.51	226.45
903.82	226.46
904.12	226.45
904.43	226.44
904.73	226.42
905.03	226.43
905.34	226.53
905.64	226.50
905.95	226.47
906.25	226.50
906.56	226.48
906.86	226.47
907.17	226.50
907.47	226.50
907.77	226.46
908.08	226.43
908.38	226.42
908.69	226.39
908.99	226.38
909.30	226.37
909.60	226.35
909.90	226.38
910.21	226.39
910.51	226.36
910.81	226.36
911.12	226.36
911.42	226.35
911.73	226.22
912.03	226.23
912.33	226.24
912.64	226.21
912.94	226.21
913.24	226.19
913.55	226.15
913.85	226.14
914.15	226.16
914.46	226.17
914.76	226.19
915.06	226.18
915.37	226.15
915.67	226.17
915.97	226.18
916.27	226.16
916.58	226.15
916.88	226.15
917.18	226.14
917.49	226.20
917.79	226.18
918.09	226.21
918.39	226.22
918.70	226.24
919.00	226.22
919.30	226.26
919.60	226.28
919.91	226.30
920.21	226.31
920.51	226.30
920.81	226.28
921.12	226.28
921.42	226.28
921.72	226.30
922.02	226.29
922.32	226.32
922.63	226.31
922.93	226.35
923.23	226.38
923.53	226.37
923.83	226.30
924.13	226.36
924.44	226.34
924.74	226.35
925.04	226.37
925.34	226.35
925.64	226.31
925.94	226.31
926.24	226.35
926.55	226.35
926.85	226.36
927.15	226.36
927.45	226.35
927.75	226.35
928.05	226.35
928.35	226.34
928.65	226.33
928.95	226.32
929.26	226.28
929.56	226.28
929.86	226.29
930.16	226.28
930.46	226.22
930.76	226.21
931.06	226.18
931.36	226.12
931.66	226.18
931.96	226.19
932.26	226.15
932.56	226.12
932.86	226.09
933.16	226.09
933.46	226.10
933.76	226.09
934.06	226.09
934.36	226.13
934.66	226.14
934.96	226.12
935.26	226.13
935.56	226.15
935.86	226.11
936.16	226.10
936.46	226.10
936.76	226.10
937.06	226.12
937.36	226.13
937.66	226.17
937.96	226.13
938.26	226.12
938.56	226.13
938.86	226.15
939.16	226.19
939.46	226.16
939.76	226.16
940.06	226.20
940.35	226.19
940.65	226.12
940.95	226.08
941.25	226.07
941.55	226.06
941.85	226.05
942.15	226.11
942.45	226.14
942.75	226.17
943.04	226.18
943.34	226.20
943.64	226.17
943.94	226.17
944.24	226.16
944.54	226.18
944.84	226.17
945.13	226.15
945.43	226.16
945.73	226.16
946.03	226.19
946.33	226.13
946.62	226.12
946.92	226.14
947.22	226.17
947.52	226.17
947.82	226.19
948.11	226.16
948.41	226.14
948.71	226.10
949.01	226.09
949.31	226.07
949.60	226.07
949.90	226.11
950.20	226.10
950.50	226.11
950.79	226.09
951.09	226.09
951.39	226.12
951.69	226.09
951.98	226.13
952.28	226.10
952.58	226.14
952.87	226.15
953.17	226.15
953.47	226.14
953.76	226.15
954.06	226.12
954.36	226.11
954.66	226.11
954.95	226.12
955.25	226.12
955.55	226.12
955.84	226.11
956.14	226.11
956.44	226.10
956.73	226.08
957.03	226.07
957.32	226.09
957.62	226.04
957.92	226.06
958.21	226.03
958.51	226.13
958.81	226.14
959.10	226.13
959.40	226.13
959.69	226.16
959.99	226.18
960.29	226.21
960.58	226.17
960.88	226.24
961.17	226.26
961.47	226.27
961.76	226.25
962.06	226.26
962.36	226.24
962.65	226.25
962.95	226.28
963.24	226.28
963.54	226.30
963.83	226.32
964.13	226.31
964.42	226.30
964.72	226.22
965.01	226.19
965.31	226.18
965.60	226.17
965.90	226.21
966.19	226.17
966.49	226.16
966.78	226.18
967.08	226.13
967.37	226.10
967.67	226.05
967.96	226.09
968.26	226.10
968.55	226.11
968.85	226.10
969.14	226.09
969.43	226.06
969.73	226.04
970.02	226.04
970.32	226.03
970.61	226.02
970.91	225.98
971.20	225.97
971.49	225.98
971.79	225.97
972.08	225.87
972.38	225.87
972.67	225.86
972.96	225.85
973.26	225.83
973.55	225.88
973.85	225.87
974.14	225.83
974.43	225.83
974.73	225.79
975.02	225.77
975.31	225.76
975.61	225.77
975.90	225.77
976.19	225.76
976.49	225.78
976.78	225.78
977.07	225.79
977.37	225.81
977.66	225.84
977.95	225.82
978.24	225.88
978.54	225.89
978.83	225.89
979.12	225.92
979.42	225.93
979.71	225.88
980.00	225.91
980.29	225.91
980.59	225.90
980.88	225.98
981.17	225.99
981.46	226.01
981.76	225.99
982.05	226.02
982.34	226.00
982.63	225.98
982.93	226.00
983.22	226.04
983.51	226.05
983.80	226.04
984.09	226.06
984.39	226.05
984.68	226.02
984.97	226.00
985.26	225.98
985.55	225.93
985.85	225.94
986.14	225.93
986.43	225.96
986.72	225.96
987.01	225.91
987.30	225.90
987.59	225.89
987.89	225.92
988.18	225.88
988.47	225.89
988.76	225.89
989.05	225.88
989.34	225.89
989.63	225.91
989.92	225.90
990.22	225.88
990.51	225.88
990.80	225.90
991.09	225.94
991.38	225.95
991.67	226.00
991.96	226.00
992.25	226.02
992.54	225.99
992.83	226.00
993.12	226.01
993.41	226.04
993.70	226.08
993.99	226.13
994.28	226.14
994.58	226.13
994.87	226.13
995.16	226.16
995.45	226.13
995.74	226.09
996.03	226.11
996.32	226.11
996.61	226.13
996.90	226.13
997.19	226.13
997.48	226.15
997.77	226.14
998.06	226.14
998.34	226.12
998.63	226.11
998.92	226.11
999.21	226.14
999.50	226.13
999.79	226.14
1000.08	226.10
1000.37	226.11
1000.66	226.12
1000.95	226.14
1001.24	226.11
1001.53	226.13
1001.82	226.15
1002.11	226.14
1002.40	226.17
1002.68	226.17
1002.97	226.25
1003.26	226.22
1003.55	226.18
1003.84	226.19
1004.13	226.21
1004.42	226.23
1004.71	226.24
1004.99	226.24
1005.28	226.21
1005.57	226.21
1005.86	226.16
1006.15	226.16
1006.44	226.12
1006.72	226.15
1007.01	226.14
1007.30	226.19
1007.59	226.15
1007.88	226.14
1008.17	226.13
1008.45	226.11
1008.74	226.09
1009.03	226.05
1009.32	226.05
1009.60	226.08
1009.89	226.07
1010.18	226.03
1010.47	226.01
1010.76	226.01
1011.04	226.00
1011.33	226.04
1011.62	226.02
1011.91	226.02
1012.19	226.04
1012.48	226.06
1012.77	226.08
1013.05	226.12
1013.34	226.11
1013.63	226.13
1013.92	226.14
1014.20	226.11
1014.49	226.15
1014.78	226.11
1015.06	226.08
1015.35	226.06
1015.64	226.06
1015.92	226.05
1016.21	226.07
1016.50	226.08
1016.78	226.05
1017.07	226.07
1017.36	226.04
1017.64	226.05
1017.93	226.06
1018.22	226.04
1018.50	226.03
1018.79	226.00
1019.08	225.96
1019.36	225.96
1019.65	225.91
1019.93	225.90
1020.22	225.93
1020.51	225.97
1020.79	225.99
1021.08	225.97
1021.36	225.83
1021.65	226.11
1021.94	226.23
1022.22	226.41
1022.51	225.43
1022.79	225.93
1023.08	226.00
1023.36	227.61
1023.65	225.63
>>>>>End Processed Spectral Data<<<<<
