SpectraSuite Data File
++++++++++++++++++++++++++++++++++++
Date: Fri Feb 01 16:35:28 EST 2013
User: group
Dark Spectrum Present: No
Reference Spectrum Present: No
Number of Sampled Component Spectra: 1
Spectrometers: USB2E7196
Integration Time (usec): 35000 (USB2E7196)
Spectra Averaged: 100 (USB2E7196)
Boxcar Smoothing: 10 (USB2E7196)
Correct for Electrical Dark: No (USB2E7196)
Strobe/Lamp Enabled: No (USB2E7196)
Correct for Detector Non-linearity: No (USB2E7196)
Correct for Stray Light: No (USB2E7196)
Number of Pixels in Processed Spectrum: 2048
>>>>>Begin Processed Spectral Data<<<<<
339.09	0.00
339.48	213.94
339.86	215.08
340.24	216.44
340.63	218.53
341.01	221.06
341.39	220.97
341.78	222.37
342.16	223.00
342.54	223.95
342.93	212.28
343.31	223.00
343.69	223.54
344.07	223.99
344.46	224.44
344.84	224.80
345.22	225.03
345.60	225.26
345.99	225.41
346.37	225.57
346.75	225.65
347.13	225.74
347.52	225.76
347.90	225.81
348.28	225.85
348.66	225.90
349.05	225.90
349.43	225.94
349.81	225.99
350.19	226.03
350.57	226.08
350.96	226.14
351.34	226.23
351.72	226.29
352.10	226.40
352.48	226.48
352.87	226.50
353.25	226.55
353.63	226.65
354.01	226.74
354.39	226.78
354.77	226.89
355.15	226.96
355.54	227.06
355.92	227.11
356.30	227.18
356.68	227.28
357.06	227.37
357.44	227.42
357.82	227.44
358.20	227.51
358.58	227.57
358.97	227.63
359.35	227.69
359.73	227.80
360.11	227.86
360.49	227.91
360.87	228.01
361.25	228.08
361.63	228.11
362.01	228.16
362.39	228.18
362.77	228.22
363.15	228.23
363.53	228.25
363.91	228.30
364.29	228.34
364.67	228.30
365.05	228.31
365.43	228.32
365.81	228.39
366.19	228.43
366.57	228.48
366.95	228.47
367.33	228.47
367.71	228.45
368.09	228.42
368.47	228.38
368.85	228.34
369.23	228.30
369.61	228.27
369.99	228.29
370.37	228.30
370.75	228.29
371.13	228.25
371.51	228.21
371.89	228.17
372.27	228.12
372.65	228.05
373.03	228.02
373.41	227.97
373.78	227.90
374.16	227.81
374.54	227.72
374.92	227.62
375.30	227.55
375.68	227.48
376.06	227.45
376.44	227.39
376.82	227.34
377.19	227.28
377.57	227.22
377.95	227.11
378.33	227.03
378.71	226.91
379.09	226.86
379.47	226.80
379.84	226.74
380.22	226.64
380.60	226.55
380.98	226.48
381.36	226.41
381.73	226.35
382.11	226.30
382.49	226.26
382.87	226.20
383.25	226.16
383.62	226.18
384.00	226.09
384.38	226.03
384.76	225.98
385.13	225.99
385.51	225.93
385.89	225.84
386.27	225.79
386.64	225.77
387.02	225.74
387.40	225.67
387.78	225.59
388.15	225.56
388.53	225.53
388.91	225.48
389.29	225.46
389.66	225.46
390.04	225.42
390.42	225.40
390.79	225.38
391.17	225.36
391.55	225.22
391.92	225.23
392.30	225.25
392.68	225.24
393.05	225.22
393.43	225.21
393.81	225.26
394.18	225.28
394.56	225.31
394.94	225.32
395.31	225.35
395.69	225.43
396.06	225.51
396.44	225.55
396.82	225.59
397.19	225.67
397.57	225.68
397.95	225.76
398.32	225.78
398.70	225.84
399.07	225.91
399.45	226.00
399.82	226.01
400.20	226.08
400.58	226.16
400.95	226.20
401.33	226.29
401.70	226.46
402.08	226.51
402.45	226.60
402.83	226.71
403.20	226.81
403.58	226.90
403.95	226.99
404.33	227.10
404.71	227.23
405.08	227.40
405.46	227.53
405.83	227.66
406.21	227.80
406.58	227.99
406.96	228.14
407.33	228.33
407.70	228.56
408.08	228.82
408.45	229.04
408.83	229.27
409.20	229.47
409.58	229.60
409.95	229.90
410.33	230.14
410.70	230.38
411.08	230.70
411.45	230.98
411.82	231.25
412.20	231.63
412.57	232.02
412.95	232.30
413.32	232.66
413.69	233.06
414.07	233.49
414.44	233.91
414.82	234.37
415.19	234.88
415.56	235.42
415.94	235.92
416.31	236.53
416.68	237.14
417.06	237.89
417.43	238.54
417.81	239.30
418.18	240.06
418.55	240.89
418.93	241.76
419.30	242.67
419.67	243.63
420.04	244.58
420.42	245.58
420.79	246.73
421.16	247.88
421.54	249.06
421.91	250.25
422.28	251.52
422.66	252.83
423.03	254.16
423.40	255.47
423.77	256.89
424.15	258.31
424.52	259.78
424.89	261.34
425.26	262.91
425.64	264.34
426.01	265.92
426.38	267.56
426.75	269.21
427.13	270.92
427.50	272.73
427.87	274.58
428.24	276.43
428.61	278.20
428.99	280.17
429.36	282.25
429.73	284.32
430.10	286.33
430.47	288.36
430.85	290.45
431.22	292.68
431.59	295.02
431.96	297.20
432.33	299.68
432.70	302.04
433.08	304.80
433.45	307.39
433.82	310.01
434.19	312.90
434.56	315.68
434.93	318.28
435.30	320.90
435.68	323.73
436.05	326.56
436.42	329.28
436.79	331.76
437.16	334.44
437.53	337.26
437.90	340.06
438.27	342.85
438.64	345.66
439.01	348.22
439.38	350.46
439.75	352.65
440.13	355.10
440.50	357.42
440.87	359.30
441.24	361.24
441.61	363.30
441.98	364.71
442.35	366.52
442.72	368.37
443.09	370.17
443.46	371.17
443.83	371.78
444.20	372.32
444.57	373.17
444.94	373.49
445.31	373.79
445.68	374.11
446.05	374.14
446.42	373.73
446.79	373.35
447.16	372.91
447.53	372.61
447.90	371.50
448.27	370.33
448.64	368.73
449.01	367.54
449.37	365.65
449.74	363.86
450.11	361.63
450.48	359.18
450.85	356.60
451.22	354.50
451.59	352.49
451.96	350.57
452.33	347.99
452.70	345.60
453.07	342.79
453.43	339.95
453.80	337.23
454.17	334.59
454.54	332.03
454.91	329.31
455.28	326.63
455.65	324.13
456.02	321.75
456.38	319.65
456.75	317.07
457.12	314.82
457.49	312.58
457.86	310.40
458.23	308.58
458.59	306.58
458.96	304.46
459.33	302.59
459.70	300.72
460.07	299.22
460.43	297.58
460.80	295.99
461.17	294.55
461.54	293.04
461.91	291.63
462.27	290.19
462.64	289.00
463.01	287.67
463.38	286.44
463.74	285.08
464.11	283.89
464.48	282.88
464.85	281.81
465.21	280.97
465.58	280.05
465.95	278.96
466.32	278.06
466.68	277.20
467.05	276.33
467.42	275.43
467.78	274.51
468.15	273.63
468.52	273.03
468.88	272.16
469.25	271.39
469.62	270.76
469.98	270.13
470.35	269.45
470.72	268.87
471.08	268.20
471.45	267.63
471.82	267.14
472.18	266.55
472.55	266.12
472.92	265.60
473.28	265.12
473.65	264.69
474.02	264.24
474.38	263.89
474.75	263.58
475.11	263.30
475.48	263.04
475.85	262.81
476.21	262.54
476.58	262.40
476.94	262.27
477.31	262.13
477.67	261.99
478.04	261.92
478.41	261.84
478.77	261.88
479.14	261.86
479.50	261.87
479.87	261.95
480.23	262.02
480.60	262.07
480.96	262.18
481.33	262.37
481.69	262.59
482.06	262.77
482.42	262.94
482.79	263.13
483.15	263.45
483.52	263.79
483.88	264.12
484.25	264.48
484.61	264.88
484.98	265.31
485.34	265.83
485.71	266.38
486.07	267.02
486.44	267.55
486.80	268.23
487.17	268.95
487.53	269.77
487.90	270.59
488.26	271.53
488.62	272.56
488.99	273.56
489.35	274.60
489.72	275.78
490.08	276.99
490.44	278.29
490.81	279.64
491.17	281.04
491.54	282.55
491.90	284.06
492.26	285.78
492.63	287.54
492.99	289.35
493.36	291.29
493.72	293.32
494.08	295.45
494.45	297.73
494.81	300.09
495.17	302.53
495.54	305.14
495.90	307.86
496.26	310.66
496.63	313.62
496.99	316.80
497.35	320.03
497.72	323.46
498.08	327.01
498.44	330.70
498.80	334.64
499.17	338.74
499.53	342.99
499.89	347.36
500.26	351.92
500.62	356.59
500.98	361.56
501.34	366.72
501.71	372.10
502.07	377.65
502.43	383.27
502.79	389.14
503.16	395.21
503.52	401.54
503.88	407.95
504.24	414.58
504.60	421.46
504.97	428.66
505.33	435.97
505.69	443.70
506.05	451.47
506.41	459.32
506.78	467.51
507.14	475.93
507.50	484.64
507.86	493.62
508.22	502.85
508.59	512.07
508.95	521.59
509.31	531.35
509.67	541.29
510.03	551.55
510.39	562.07
510.75	572.84
511.12	583.72
511.48	595.03
511.84	606.55
512.20	618.00
512.56	629.86
512.92	641.97
513.28	654.35
513.64	666.81
514.00	679.45
514.37	692.34
514.73	705.40
515.09	718.43
515.45	731.73
515.81	745.27
516.17	759.30
516.53	773.40
516.89	787.58
517.25	801.86
517.61	816.30
517.97	830.71
518.33	845.06
518.69	859.74
519.05	874.55
519.41	889.63
519.77	905.15
520.13	920.52
520.49	935.89
520.85	951.11
521.21	966.70
521.57	982.86
521.93	998.50
522.29	1014.82
522.65	1030.96
523.01	1047.05
523.37	1063.06
523.73	1079.08
524.09	1095.05
524.45	1111.29
524.81	1127.74
525.17	1144.33
525.53	1161.15
525.89	1178.07
526.25	1194.80
526.61	1211.28
526.97	1227.77
527.33	1244.18
527.68	1260.73
528.04	1277.14
528.40	1293.62
528.76	1310.61
529.12	1327.12
529.48	1343.89
529.84	1359.80
530.20	1376.24
530.56	1393.09
530.91	1410.31
531.27	1426.96
531.63	1443.29
531.99	1459.72
532.35	1475.69
532.71	1491.52
533.07	1507.67
533.42	1523.36
533.78	1539.38
534.14	1555.40
534.50	1570.83
534.86	1586.55
535.21	1601.53
535.57	1617.27
535.93	1632.60
536.29	1647.21
536.65	1662.03
537.00	1676.57
537.36	1691.67
537.72	1706.03
538.08	1720.32
538.44	1733.88
538.79	1747.53
539.15	1760.96
539.51	1774.38
539.87	1788.46
540.22	1801.91
540.58	1815.31
540.94	1828.35
541.29	1840.94
541.65	1853.42
542.01	1866.21
542.37	1878.37
542.72	1890.60
543.08	1902.32
543.44	1914.49
543.79	1925.66
544.15	1936.63
544.51	1948.16
544.87	1959.06
545.22	1969.93
545.58	1980.13
545.94	1989.82
546.29	1999.62
546.65	2009.66
547.01	2019.03
547.36	2027.67
547.72	2036.27
548.07	2044.34
548.43	2052.63
548.79	2060.54
549.14	2068.24
549.50	2075.66
549.86	2083.25
550.21	2090.60
550.57	2097.72
550.92	2104.46
551.28	2111.48
551.64	2118.55
551.99	2125.07
552.35	2131.29
552.70	2137.51
553.06	2143.51
553.41	2150.02
553.77	2156.02
554.13	2161.88
554.48	2167.98
554.84	2173.56
555.19	2178.81
555.55	2183.97
555.90	2188.47
556.26	2193.56
556.61	2198.12
556.97	2202.67
557.32	2206.84
557.68	2211.00
558.03	2215.16
558.39	2218.79
558.74	2223.42
559.10	2227.25
559.45	2230.97
559.81	2235.11
560.16	2238.93
560.52	2242.17
560.87	2245.46
561.23	2248.29
561.58	2251.18
561.94	2253.62
562.29	2255.86
562.64	2258.51
563.00	2260.94
563.35	2264.48
563.71	2267.56
564.06	2270.78
564.42	2273.44
564.77	2276.07
565.12	2278.41
565.48	2280.55
565.83	2282.57
566.19	2283.94
566.54	2284.86
566.89	2286.00
567.25	2286.68
567.60	2287.82
567.96	2289.54
568.31	2290.43
568.66	2291.68
569.02	2292.43
569.37	2292.92
569.72	2293.82
570.08	2294.18
570.43	2294.32
570.78	2293.78
571.14	2292.27
571.49	2290.98
571.84	2290.73
572.20	2289.69
572.55	2288.77
572.90	2287.19
573.26	2285.79
573.61	2284.07
573.96	2282.42
574.31	2279.58
574.67	2276.70
575.02	2273.22
575.37	2269.73
575.72	2266.00
576.08	2262.40
576.43	2259.10
576.78	2255.63
577.13	2252.50
577.49	2249.33
577.84	2245.93
578.19	2242.09
578.54	2238.58
578.90	2234.49
579.25	2228.98
579.60	2223.96
579.95	2218.96
580.30	2214.00
580.66	2208.88
581.01	2203.91
581.36	2199.01
581.71	2194.96
582.06	2190.71
582.42	2186.34
582.77	2181.19
583.12	2176.71
583.47	2172.39
583.82	2167.50
584.17	2162.30
584.53	2156.82
584.88	2151.22
585.23	2145.58
585.58	2140.31
585.93	2134.93
586.28	2130.05
586.63	2125.18
586.98	2120.32
587.34	2115.66
587.69	2110.76
588.04	2105.72
588.39	2100.26
588.74	2093.96
589.09	2087.77
589.44	2080.95
589.79	2074.86
590.14	2069.37
590.49	2062.77
590.84	2056.16
591.19	2050.22
591.54	2043.78
591.89	2036.72
592.25	2030.12
592.60	2022.99
592.95	2015.44
593.30	2008.19
593.65	2000.68
594.00	1993.44
594.35	1986.18
594.70	1978.06
595.05	1971.08
595.40	1963.81
595.75	1956.45
596.10	1950.38
596.45	1943.90
596.80	1937.75
597.15	1931.34
597.50	1924.45
597.85	1918.18
598.19	1911.77
598.54	1904.86
598.89	1898.29
599.24	1892.30
599.59	1885.71
599.94	1879.52
600.29	1873.21
600.64	1866.59
600.99	1859.36
601.34	1852.86
601.69	1845.91
602.04	1839.29
602.39	1831.90
602.74	1825.16
603.08	1818.35
603.43	1811.50
603.78	1804.12
604.13	1796.93
604.48	1789.71
604.83	1782.78
605.18	1775.82
605.53	1767.83
605.87	1759.64
606.22	1752.26
606.57	1744.30
606.92	1736.67
607.27	1729.46
607.62	1722.55
607.96	1715.27
608.31	1708.71
608.66	1701.01
609.01	1693.52
609.36	1685.81
609.70	1677.80
610.05	1669.72
610.40	1662.05
610.75	1653.70
611.10	1645.90
611.44	1637.37
611.79	1629.25
612.14	1620.61
612.49	1611.46
612.83	1602.98
613.18	1594.97
613.53	1586.89
613.88	1578.38
614.22	1570.24
614.57	1561.60
614.92	1553.67
615.27	1546.26
615.61	1537.93
615.96	1529.99
616.31	1522.28
616.65	1515.07
617.00	1507.63
617.35	1499.88
617.70	1491.74
618.04	1483.43
618.39	1475.23
618.74	1467.79
619.08	1459.44
619.43	1451.88
619.78	1444.94
620.12	1438.03
620.47	1430.46
620.82	1422.32
621.16	1414.92
621.51	1407.39
621.85	1399.75
622.20	1391.15
622.55	1382.68
622.89	1374.88
623.24	1367.15
623.59	1359.70
623.93	1352.18
624.28	1344.88
624.62	1337.45
624.97	1330.18
625.32	1323.29
625.66	1316.32
626.01	1309.16
626.35	1301.95
626.70	1294.10
627.04	1286.55
627.39	1278.60
627.73	1271.10
628.08	1264.19
628.43	1257.04
628.77	1249.68
629.12	1242.28
629.46	1235.22
629.81	1227.81
630.15	1220.50
630.50	1213.16
630.84	1205.07
631.19	1197.09
631.53	1189.49
631.88	1181.84
632.22	1174.18
632.57	1166.82
632.91	1159.30
633.26	1151.92
633.60	1144.44
633.95	1137.27
634.29	1130.07
634.64	1123.26
634.98	1116.05
635.32	1108.93
635.67	1102.22
636.01	1095.59
636.36	1088.73
636.70	1082.17
637.05	1075.68
637.39	1069.27
637.73	1062.83
638.08	1056.86
638.42	1050.88
638.77	1044.55
639.11	1038.18
639.45	1031.80
639.80	1025.27
640.14	1018.91
640.49	1012.41
640.83	1006.18
641.17	1000.06
641.52	993.80
641.86	987.45
642.20	981.53
642.55	975.18
642.89	968.80
643.23	962.17
643.58	956.43
643.92	950.31
644.26	944.32
644.61	938.32
644.95	932.27
645.29	925.76
645.64	919.06
645.98	912.74
646.32	906.66
646.66	900.64
647.01	894.81
647.35	889.15
647.69	883.22
648.04	877.56
648.38	871.79
648.72	865.87
649.06	859.83
649.41	853.91
649.75	848.01
650.09	842.11
650.43	836.45
650.78	830.21
651.12	824.23
651.46	818.47
651.80	812.70
652.14	807.31
652.49	802.04
652.83	796.77
653.17	791.13
653.51	785.52
653.85	780.11
654.20	774.52
654.54	768.49
654.88	762.71
655.22	756.90
655.56	751.15
655.90	745.60
656.25	740.38
656.59	735.03
656.93	729.91
657.27	724.65
657.61	719.17
657.95	714.15
658.29	709.03
658.64	703.71
658.98	698.31
659.32	692.84
659.66	687.55
660.00	682.32
660.34	677.34
660.68	672.39
661.02	667.25
661.36	662.49
661.70	657.93
662.05	653.67
662.39	649.32
662.73	644.88
663.07	640.53
663.41	636.13
663.75	631.69
664.09	627.14
664.43	622.76
664.77	618.67
665.11	614.46
665.45	610.31
665.79	606.28
666.13	602.15
666.47	597.99
666.81	593.85
667.15	589.72
667.49	585.75
667.83	581.90
668.17	578.02
668.51	573.99
668.85	569.99
669.19	566.04
669.53	562.25
669.87	558.43
670.21	554.72
670.55	551.03
670.89	547.59
671.23	544.24
671.57	540.72
671.91	537.19
672.25	533.65
672.58	530.16
672.92	526.72
673.26	523.56
673.60	520.41
673.94	517.27
674.28	514.31
674.62	511.41
674.96	508.30
675.30	505.43
675.64	502.53
675.97	499.73
676.31	496.96
676.65	493.98
676.99	491.30
677.33	488.42
677.67	485.57
678.01	482.54
678.34	479.51
678.68	476.67
679.02	473.87
679.36	471.08
679.70	468.31
680.04	465.58
680.37	462.82
680.71	460.05
681.05	457.40
681.39	454.66
681.73	451.98
682.06	449.56
682.40	447.01
682.74	444.43
683.08	441.88
683.42	439.21
683.75	436.73
684.09	434.07
684.43	431.63
684.77	429.18
685.10	426.83
685.44	424.55
685.78	422.26
686.12	419.98
686.45	417.66
686.79	415.42
687.13	413.20
687.46	410.99
687.80	408.84
688.14	406.66
688.48	404.68
688.81	402.48
689.15	400.24
689.49	398.09
689.82	396.03
690.16	393.91
690.50	391.89
690.83	389.90
691.17	387.93
691.51	386.03
691.84	384.20
692.18	382.29
692.52	380.31
692.85	378.37
693.19	376.52
693.52	374.69
693.86	372.85
694.20	371.07
694.53	369.27
694.87	367.41
695.21	365.61
695.54	363.75
695.88	361.99
696.21	360.31
696.55	358.67
696.88	356.95
697.22	355.32
697.56	353.74
697.89	352.17
698.23	350.61
698.56	348.95
698.90	347.37
699.23	345.73
699.57	344.13
699.90	342.56
700.24	340.98
700.58	339.54
700.91	338.02
701.25	336.56
701.58	335.19
701.92	333.84
702.25	332.47
702.59	331.08
702.92	329.75
703.26	328.40
703.59	327.08
703.93	325.92
704.26	324.68
704.60	323.35
704.93	322.03
705.26	320.79
705.60	319.58
705.93	318.41
706.27	317.36
706.60	316.34
706.94	315.25
707.27	314.18
707.61	313.01
707.94	311.95
708.27	310.89
708.61	309.76
708.94	308.77
709.28	307.75
709.61	306.79
709.94	305.85
710.28	304.83
710.61	303.86
710.95	302.75
711.28	301.82
711.61	300.91
711.95	300.03
712.28	299.08
712.61	298.16
712.95	297.21
713.28	296.31
713.61	295.40
713.95	294.52
714.28	293.63
714.61	292.81
714.95	292.02
715.28	291.11
715.61	290.25
715.95	289.38
716.28	288.57
716.61	287.72
716.95	286.88
717.28	286.11
717.61	285.30
717.94	284.57
718.28	283.75
718.61	283.04
718.94	282.32
719.27	281.67
719.61	281.01
719.94	280.32
720.27	279.58
720.60	278.91
720.94	278.28
721.27	277.67
721.60	277.09
721.93	276.48
722.27	275.96
722.60	275.41
722.93	274.86
723.26	274.31
723.59	273.76
723.93	273.18
724.26	272.66
724.59	272.10
724.92	271.57
725.25	271.09
725.59	270.54
725.92	270.02
726.25	269.48
726.58	269.01
726.91	268.55
727.24	268.07
727.57	267.61
727.91	267.07
728.24	266.60
728.57	266.11
728.90	265.66
729.23	265.18
729.56	264.76
729.89	264.28
730.22	263.76
730.55	263.32
730.89	262.93
731.22	262.46
731.55	262.04
731.88	261.62
732.21	261.18
732.54	260.75
732.87	260.34
733.20	259.97
733.53	259.56
733.86	259.18
734.19	258.79
734.52	258.39
734.85	258.10
735.18	257.69
735.51	257.30
735.84	256.92
736.17	256.56
736.50	256.13
736.83	255.89
737.16	255.60
737.49	255.25
737.82	254.90
738.15	254.60
738.48	254.29
738.81	253.96
739.14	253.64
739.47	253.31
739.80	252.99
740.13	252.66
740.46	252.31
740.79	251.95
741.12	251.64
741.45	251.32
741.78	250.95
742.11	250.66
742.44	250.34
742.77	250.01
743.10	249.68
743.43	249.38
743.75	249.01
744.08	248.84
744.41	248.54
744.74	248.29
745.07	248.01
745.40	247.71
745.73	247.45
746.06	247.18
746.39	246.93
746.71	246.64
747.04	246.36
747.37	246.09
747.70	245.86
748.03	245.61
748.36	245.37
748.68	245.12
749.01	244.89
749.34	244.63
749.67	244.45
750.00	244.25
750.33	244.09
750.65	243.84
750.98	243.48
751.31	243.27
751.64	243.00
751.97	242.80
752.29	242.59
752.62	242.36
752.95	242.13
753.28	241.86
753.60	241.64
753.93	241.49
754.26	241.26
754.59	241.03
754.91	240.81
755.24	240.61
755.57	240.45
755.90	240.23
756.22	240.04
756.55	239.83
756.88	239.64
757.20	239.42
757.53	239.25
757.86	239.12
758.19	238.95
758.51	238.81
758.84	238.61
759.17	238.44
759.49	238.32
759.82	238.19
760.15	238.08
760.47	237.94
760.80	237.73
761.13	237.63
761.45	237.51
761.78	237.39
762.11	237.25
762.43	237.11
762.76	236.99
763.08	236.90
763.41	236.77
763.74	236.63
764.06	236.48
764.39	236.34
764.71	236.17
765.04	236.03
765.37	235.89
765.69	235.75
766.02	235.63
766.34	235.47
766.67	235.30
767.00	235.20
767.32	235.13
767.65	235.12
767.97	235.02
768.30	234.87
768.62	234.75
768.95	234.66
769.27	234.57
769.60	234.45
769.92	234.31
770.25	234.20
770.57	234.08
770.90	234.00
771.22	233.92
771.55	233.80
771.87	233.70
772.20	233.62
772.52	233.65
772.85	233.66
773.17	233.59
773.50	233.53
773.82	233.48
774.15	233.34
774.47	233.16
774.80	233.06
775.12	233.00
775.45	232.93
775.77	232.85
776.09	232.76
776.42	232.70
776.74	232.62
777.07	232.56
777.39	232.50
777.72	232.38
778.04	232.30
778.36	232.26
778.69	232.21
779.01	232.15
779.33	232.00
779.66	231.82
779.98	231.71
780.31	231.65
780.63	231.60
780.95	231.55
781.28	231.52
781.60	231.44
781.92	231.38
782.25	231.32
782.57	231.23
782.89	231.16
783.22	231.11
783.54	231.08
783.86	231.03
784.19	230.98
784.51	230.96
784.83	230.88
785.16	230.81
785.48	230.78
785.80	230.71
786.12	230.67
786.45	230.65
786.77	230.64
787.09	230.58
787.42	230.49
787.74	230.48
788.06	230.44
788.38	230.40
788.71	230.36
789.03	230.32
789.35	230.32
789.67	230.29
789.99	230.23
790.32	230.16
790.64	230.12
790.96	230.15
791.28	230.10
791.61	230.06
791.93	230.05
792.25	229.98
792.57	230.01
792.89	229.94
793.21	229.88
793.54	229.83
793.86	229.77
794.18	229.77
794.50	229.70
794.82	229.63
795.14	229.59
795.47	229.55
795.79	229.54
796.11	229.45
796.43	229.40
796.75	229.37
797.07	229.37
797.39	229.37
797.71	229.28
798.04	229.22
798.36	229.23
798.68	229.14
799.00	229.10
799.32	229.03
799.64	229.02
799.96	229.00
800.28	228.99
800.60	228.95
800.92	228.90
801.24	228.86
801.56	228.87
801.89	228.85
802.21	228.83
802.53	228.73
802.85	228.75
803.17	228.74
803.49	228.68
803.81	228.64
804.13	228.59
804.45	228.56
804.77	228.56
805.09	228.52
805.41	228.51
805.73	228.47
806.05	228.42
806.37	228.37
806.69	228.34
807.01	228.29
807.33	228.31
807.65	228.24
807.97	228.27
808.28	228.22
808.60	228.19
808.92	228.18
809.24	228.27
809.56	228.24
809.88	228.21
810.20	228.20
810.52	228.18
810.84	228.13
811.16	228.04
811.48	228.02
811.80	228.03
812.12	228.01
812.43	228.00
812.75	228.02
813.07	227.98
813.39	227.97
813.71	227.94
814.03	227.91
814.35	227.89
814.67	227.82
814.98	227.84
815.30	227.82
815.62	227.78
815.94	227.65
816.26	227.66
816.58	227.64
816.89	227.66
817.21	227.64
817.53	227.67
817.85	227.70
818.17	227.68
818.48	227.63
818.80	227.66
819.12	227.64
819.44	227.58
819.76	227.59
820.07	227.59
820.39	227.58
820.71	227.58
821.03	227.58
821.34	227.58
821.66	227.57
821.98	227.57
822.30	227.58
822.61	227.68
822.93	227.62
823.25	227.62
823.57	227.55
823.88	227.55
824.20	227.52
824.52	227.54
824.83	227.53
825.15	227.53
825.47	227.49
825.79	227.51
826.10	227.50
826.42	227.51
826.74	227.51
827.05	227.50
827.37	227.46
827.69	227.43
828.00	227.39
828.32	227.34
828.64	227.33
828.95	227.34
829.27	227.28
829.58	227.27
829.90	227.27
830.22	227.31
830.53	227.28
830.85	227.25
831.17	227.22
831.48	227.20
831.80	227.16
832.11	227.18
832.43	227.11
832.75	227.13
833.06	227.18
833.38	227.10
833.69	227.10
834.01	227.11
834.32	227.13
834.64	227.13
834.96	227.15
835.27	227.13
835.59	227.11
835.90	227.07
836.22	227.07
836.53	227.05
836.85	227.01
837.16	227.10
837.48	227.09
837.79	227.08
838.11	227.07
838.42	227.09
838.74	227.08
839.05	227.09
839.37	227.07
839.68	226.99
840.00	227.02
840.31	227.00
840.63	227.01
840.94	226.98
841.26	226.97
841.57	226.93
841.88	226.95
842.20	226.90
842.51	226.86
842.83	226.87
843.14	226.95
843.46	226.96
843.77	226.87
844.08	226.88
844.40	226.85
844.71	226.85
845.03	226.83
845.34	226.80
845.65	226.79
845.97	226.77
846.28	226.77
846.60	226.75
846.91	226.73
847.22	226.72
847.54	226.75
847.85	226.73
848.16	226.72
848.48	226.66
848.79	226.72
849.10	226.78
849.42	226.76
849.73	226.66
850.04	226.65
850.36	226.59
850.67	226.60
850.98	226.64
851.30	226.62
851.61	226.58
851.92	226.57
852.23	226.60
852.55	226.65
852.86	226.61
853.17	226.60
853.49	226.63
853.80	226.65
854.11	226.63
854.42	226.64
854.74	226.61
855.05	226.66
855.36	226.56
855.67	226.52
855.99	226.52
856.30	226.62
856.61	226.60
856.92	226.62
857.23	226.62
857.55	226.57
857.86	226.56
858.17	226.61
858.48	226.60
858.79	226.57
859.11	226.55
859.42	226.58
859.73	226.56
860.04	226.57
860.35	226.49
860.66	226.45
860.98	226.49
861.29	226.50
861.60	226.46
861.91	226.50
862.22	226.48
862.53	226.44
862.84	226.33
863.16	226.34
863.47	226.34
863.78	226.30
864.09	226.28
864.40	226.30
864.71	226.29
865.02	226.30
865.33	226.26
865.64	226.21
865.95	226.19
866.27	226.25
866.58	226.21
866.89	226.24
867.20	226.24
867.51	226.20
867.82	226.19
868.13	226.23
868.44	226.19
868.75	226.24
869.06	226.23
869.37	226.24
869.68	226.17
869.99	226.18
870.30	226.18
870.61	226.22
870.92	226.15
871.23	226.13
871.54	226.13
871.85	226.18
872.16	226.21
872.47	226.21
872.78	226.17
873.09	226.18
873.40	226.18
873.71	226.16
874.02	226.15
874.33	226.15
874.64	226.11
874.95	226.14
875.26	226.08
875.56	226.07
875.87	226.03
876.18	226.09
876.49	226.17
876.80	226.14
877.11	226.11
877.42	226.13
877.73	226.10
878.04	226.08
878.35	226.04
878.66	226.03
878.96	226.03
879.27	225.99
879.58	225.96
879.89	225.96
880.20	226.01
880.51	225.99
880.82	225.98
881.12	226.00
881.43	225.97
881.74	225.97
882.05	225.98
882.36	226.01
882.67	225.98
882.97	225.89
883.28	225.89
883.59	225.89
883.90	225.90
884.21	225.94
884.51	225.96
884.82	225.96
885.13	225.95
885.44	225.94
885.74	225.93
886.05	225.91
886.36	225.91
886.67	225.87
886.98	225.92
887.28	225.91
887.59	225.92
887.90	225.92
888.20	225.92
888.51	225.94
888.82	225.95
889.13	225.98
889.43	226.06
889.74	226.07
890.05	226.05
890.35	226.05
890.66	226.04
890.97	226.05
891.28	226.05
891.58	226.06
891.89	226.07
892.20	226.10
892.50	226.15
892.81	226.16
893.12	226.19
893.42	226.18
893.73	226.19
894.04	226.19
894.34	226.21
894.65	226.19
894.95	226.18
895.26	226.17
895.57	226.22
895.87	226.13
896.18	226.17
896.48	226.19
896.79	226.20
897.10	226.19
897.40	226.20
897.71	226.21
898.01	226.23
898.32	226.23
898.63	226.22
898.93	226.21
899.24	226.21
899.54	226.18
899.85	226.15
900.15	226.16
900.46	226.13
900.76	226.12
901.07	226.15
901.38	226.17
901.68	226.16
901.99	226.09
902.29	226.08
902.60	226.07
902.90	226.06
903.21	226.07
903.51	226.08
903.82	226.07
904.12	226.06
904.43	226.02
904.73	226.01
905.03	226.03
905.34	226.12
905.64	226.08
905.95	226.07
906.25	226.08
906.56	226.06
906.86	226.09
907.17	226.08
907.47	226.08
907.77	226.02
908.08	225.99
908.38	226.00
908.69	225.98
908.99	225.96
909.30	225.98
909.60	225.94
909.90	225.93
910.21	225.85
910.51	225.82
910.81	225.82
911.12	225.82
911.42	225.82
911.73	225.69
912.03	225.72
912.33	225.75
912.64	225.73
912.94	225.72
913.24	225.70
913.55	225.68
913.85	225.66
914.15	225.69
914.46	225.71
914.76	225.71
915.06	225.74
915.37	225.72
915.67	225.70
915.97	225.70
916.27	225.69
916.58	225.74
916.88	225.78
917.18	225.77
917.49	225.82
917.79	225.83
918.09	225.83
918.39	225.86
918.70	225.84
919.00	225.85
919.30	225.92
919.60	225.93
919.91	225.94
920.21	225.95
920.51	225.96
920.81	225.95
921.12	225.96
921.42	225.95
921.72	225.97
922.02	225.98
922.32	226.00
922.63	226.01
922.93	226.07
923.23	226.07
923.53	226.06
923.83	226.02
924.13	226.02
924.44	226.06
924.74	226.08
925.04	226.10
925.34	226.11
925.64	226.05
925.94	226.06
926.24	226.11
926.55	226.11
926.85	226.09
927.15	226.08
927.45	226.07
927.75	226.07
928.05	226.07
928.35	226.08
928.65	226.06
928.95	226.07
929.26	226.03
929.56	226.02
929.86	226.06
930.16	226.04
930.46	226.05
930.76	226.03
931.06	225.97
931.36	225.96
931.66	225.94
931.96	225.96
932.26	225.95
932.56	225.92
932.86	225.91
933.16	225.93
933.46	225.93
933.76	225.93
934.06	225.96
934.36	226.00
934.66	225.98
934.96	226.04
935.26	226.06
935.56	226.09
935.86	226.07
936.16	226.04
936.46	226.02
936.76	226.01
937.06	225.99
937.36	225.99
937.66	225.99
937.96	225.99
938.26	225.96
938.56	225.94
938.86	225.93
939.16	225.98
939.46	225.97
939.76	225.97
940.06	225.97
940.35	225.95
940.65	225.85
940.95	225.89
941.25	225.83
941.55	225.79
941.85	225.74
942.15	225.78
942.45	225.81
942.75	225.81
943.04	225.77
943.34	225.82
943.64	225.78
943.94	225.75
944.24	225.75
944.54	225.77
944.84	225.78
945.13	225.78
945.43	225.75
945.73	225.75
946.03	225.72
946.33	225.75
946.62	225.71
946.92	225.74
947.22	225.72
947.52	225.70
947.82	225.73
948.11	225.72
948.41	225.68
948.71	225.64
949.01	225.66
949.31	225.68
949.60	225.65
949.90	225.70
950.20	225.70
950.50	225.68
950.79	225.67
951.09	225.67
951.39	225.66
951.69	225.62
951.98	225.67
952.28	225.68
952.58	225.64
952.87	225.66
953.17	225.67
953.47	225.66
953.76	225.65
954.06	225.62
954.36	225.60
954.66	225.61
954.95	225.64
955.25	225.65
955.55	225.66
955.84	225.64
956.14	225.65
956.44	225.68
956.73	225.68
957.03	225.67
957.32	225.67
957.62	225.66
957.92	225.71
958.21	225.68
958.51	225.79
958.81	225.81
959.10	225.80
959.40	225.85
959.69	225.88
959.99	225.91
960.29	225.91
960.58	225.95
960.88	226.00
961.17	226.02
961.47	226.03
961.76	226.01
962.06	226.02
962.36	226.00
962.65	226.00
962.95	226.04
963.24	226.03
963.54	226.05
963.83	226.08
964.13	226.08
964.42	226.05
964.72	225.98
965.01	225.97
965.31	225.98
965.60	225.97
965.90	226.01
966.19	226.01
966.49	226.00
966.78	225.99
967.08	225.99
967.37	225.95
967.67	225.90
967.96	225.89
968.26	225.87
968.55	225.91
968.85	225.91
969.14	225.91
969.43	225.90
969.73	225.90
970.02	225.91
970.32	225.89
970.61	225.89
970.91	225.82
971.20	225.79
971.49	225.77
971.79	225.74
972.08	225.66
972.38	225.64
972.67	225.65
972.96	225.67
973.26	225.63
973.55	225.64
973.85	225.65
974.14	225.65
974.43	225.67
974.73	225.64
975.02	225.61
975.31	225.56
975.61	225.55
975.90	225.51
976.19	225.50
976.49	225.50
976.78	225.53
977.07	225.55
977.37	225.55
977.66	225.55
977.95	225.55
978.24	225.60
978.54	225.60
978.83	225.58
979.12	225.53
979.42	225.53
979.71	225.51
980.00	225.51
980.29	225.54
980.59	225.54
980.88	225.53
981.17	225.53
981.46	225.55
981.76	225.57
982.05	225.62
982.34	225.62
982.63	225.63
982.93	225.58
983.22	225.60
983.51	225.63
983.80	225.68
984.09	225.67
984.39	225.64
984.68	225.64
984.97	225.67
985.26	225.66
985.55	225.64
985.85	225.63
986.14	225.64
986.43	225.67
986.72	225.65
987.01	225.63
987.30	225.61
987.59	225.59
987.89	225.58
988.18	225.52
988.47	225.49
988.76	225.48
989.05	225.48
989.34	225.49
989.63	225.52
989.92	225.50
990.22	225.50
990.51	225.49
990.80	225.47
991.09	225.45
991.38	225.49
991.67	225.49
991.96	225.52
992.25	225.51
992.54	225.43
992.83	225.44
993.12	225.44
993.41	225.43
993.70	225.48
993.99	225.52
994.28	225.55
994.58	225.56
994.87	225.54
995.16	225.56
995.45	225.55
995.74	225.49
996.03	225.47
996.32	225.50
996.61	225.53
996.90	225.54
997.19	225.53
997.48	225.53
997.77	225.54
998.06	225.52
998.34	225.51
998.63	225.54
998.92	225.54
999.21	225.55
999.50	225.57
999.79	225.56
1000.08	225.54
1000.37	225.53
1000.66	225.54
1000.95	225.58
1001.24	225.58
1001.53	225.59
1001.82	225.59
1002.11	225.57
1002.40	225.59
1002.68	225.63
1002.97	225.69
1003.26	225.71
1003.55	225.69
1003.84	225.71
1004.13	225.75
1004.42	225.78
1004.71	225.78
1004.99	225.78
1005.28	225.82
1005.57	225.81
1005.86	225.78
1006.15	225.80
1006.44	225.80
1006.72	225.84
1007.01	225.83
1007.30	225.85
1007.59	225.83
1007.88	225.84
1008.17	225.88
1008.45	225.85
1008.74	225.80
1009.03	225.79
1009.32	225.82
1009.60	225.83
1009.89	225.81
1010.18	225.76
1010.47	225.72
1010.76	225.74
1011.04	225.76
1011.33	225.77
1011.62	225.80
1011.91	225.84
1012.19	225.84
1012.48	225.88
1012.77	225.86
1013.05	225.95
1013.34	225.93
1013.63	225.95
1013.92	225.97
1014.20	225.95
1014.49	225.96
1014.78	226.01
1015.06	225.98
1015.35	225.95
1015.64	225.97
1015.92	225.99
1016.21	226.01
1016.50	226.06
1016.78	226.06
1017.07	226.04
1017.36	226.05
1017.64	226.03
1017.93	226.04
1018.22	226.02
1018.50	225.99
1018.79	225.98
1019.08	225.89
1019.36	225.90
1019.65	225.88
1019.93	225.90
1020.22	225.92
1020.51	225.97
1020.79	225.94
1021.08	225.76
1021.36	225.74
1021.65	225.68
1021.94	225.79
1022.22	225.99
1022.51	225.59
1022.79	226.45
1023.08	225.95
1023.36	227.10
1023.65	225.88
>>>>>End Processed Spectral Data<<<<<
