SpectraSuite Data File
++++++++++++++++++++++++++++++++++++
Date: Fri Feb 01 16:13:34 EST 2013
User: group
Dark Spectrum Present: No
Reference Spectrum Present: No
Number of Sampled Component Spectra: 1
Spectrometers: USB2E7196
Integration Time (usec): 35000 (USB2E7196)
Spectra Averaged: 100 (USB2E7196)
Boxcar Smoothing: 10 (USB2E7196)
Correct for Electrical Dark: No (USB2E7196)
Strobe/Lamp Enabled: No (USB2E7196)
Correct for Detector Non-linearity: No (USB2E7196)
Correct for Stray Light: No (USB2E7196)
Number of Pixels in Processed Spectrum: 2048
>>>>>Begin Processed Spectral Data<<<<<
339.09	0.00
339.48	214.01
339.86	215.97
340.24	216.83
340.63	218.15
341.01	221.02
341.39	221.34
341.78	221.60
342.16	224.11
342.54	223.84
342.93	212.44
343.31	223.21
343.69	223.78
344.07	224.22
344.46	224.67
344.84	225.10
345.22	225.34
345.60	225.59
345.99	225.84
346.37	225.98
346.75	226.09
347.13	226.17
347.52	226.25
347.90	226.35
348.28	226.38
348.66	226.43
349.05	226.43
349.43	226.48
349.81	226.55
350.19	226.57
350.57	226.65
350.96	226.76
351.34	226.82
351.72	226.86
352.10	226.95
352.48	227.01
352.87	227.04
353.25	227.10
353.63	227.19
354.01	227.23
354.39	227.29
354.77	227.35
355.15	227.47
355.54	227.55
355.92	227.59
356.30	227.67
356.68	227.81
357.06	227.88
357.44	227.90
357.82	227.95
358.20	228.06
358.58	228.12
358.97	228.17
359.35	228.23
359.73	228.34
360.11	228.36
360.49	228.39
360.87	228.45
361.25	228.52
361.63	228.55
362.01	228.60
362.39	228.62
362.77	228.67
363.15	228.68
363.53	228.72
363.91	228.74
364.29	228.75
364.67	228.64
365.05	228.66
365.43	228.68
365.81	228.67
366.19	228.72
366.57	228.70
366.95	228.69
367.33	228.66
367.71	228.62
368.09	228.64
368.47	228.64
368.85	228.59
369.23	228.60
369.61	228.55
369.99	228.55
370.37	228.52
370.75	228.54
371.13	228.45
371.51	228.36
371.89	228.32
372.27	228.28
372.65	228.24
373.03	228.19
373.41	228.13
373.78	228.09
374.16	227.97
374.54	227.89
374.92	227.81
375.30	227.77
375.68	227.70
376.06	227.62
376.44	227.55
376.82	227.48
377.19	227.39
377.57	227.30
377.95	227.20
378.33	227.13
378.71	227.03
379.09	227.00
379.47	226.95
379.84	226.86
380.22	226.76
380.60	226.67
380.98	226.59
381.36	226.53
381.73	226.43
382.11	226.36
382.49	226.34
382.87	226.29
383.25	226.21
383.62	226.25
384.00	226.20
384.38	226.13
384.76	226.13
385.13	226.15
385.51	226.11
385.89	226.08
386.27	226.01
386.64	225.97
387.02	225.91
387.40	225.89
387.78	225.86
388.15	225.86
388.53	225.87
388.91	225.87
389.29	225.84
389.66	225.86
390.04	225.86
390.42	225.87
390.79	225.84
391.17	225.85
391.55	225.73
391.92	225.72
392.30	225.75
392.68	225.72
393.05	225.70
393.43	225.73
393.81	225.72
394.18	225.74
394.56	225.76
394.94	225.81
395.31	225.78
395.69	225.84
396.06	225.88
396.44	225.89
396.82	225.95
397.19	226.03
397.57	226.05
397.95	226.10
398.32	226.11
398.70	226.19
399.07	226.28
399.45	226.35
399.82	226.44
400.20	226.50
400.58	226.58
400.95	226.62
401.33	226.70
401.70	226.84
402.08	226.88
402.45	226.98
402.83	227.09
403.20	227.21
403.58	227.29
403.95	227.42
404.33	227.57
404.71	227.65
405.08	227.82
405.46	227.95
405.83	228.09
406.21	228.25
406.58	228.42
406.96	228.54
407.33	228.73
407.70	228.94
408.08	229.19
408.45	229.38
408.83	229.57
409.20	229.77
409.58	229.95
409.95	230.24
410.33	230.48
410.70	230.73
411.08	231.04
411.45	231.36
411.82	231.61
412.20	231.95
412.57	232.33
412.95	232.62
413.32	233.05
413.69	233.46
414.07	233.86
414.44	234.32
414.82	234.82
415.19	235.34
415.56	235.86
415.94	236.39
416.31	237.03
416.68	237.68
417.06	238.43
417.43	239.11
417.81	239.88
418.18	240.64
418.55	241.46
418.93	242.32
419.30	243.21
419.67	244.17
420.04	245.09
420.42	246.08
420.79	247.25
421.16	248.40
421.54	249.57
421.91	250.78
422.28	252.02
422.66	253.35
423.03	254.64
423.40	255.97
423.77	257.42
424.15	258.86
424.52	260.34
424.89	261.89
425.26	263.42
425.64	264.81
426.01	266.41
426.38	268.09
426.75	269.77
427.13	271.46
427.50	273.25
427.87	275.17
428.24	277.03
428.61	278.82
428.99	280.71
429.36	282.82
429.73	284.87
430.10	286.94
430.47	288.96
430.85	291.08
431.22	293.30
431.59	295.64
431.96	297.83
432.33	300.29
432.70	302.68
433.08	305.53
433.45	308.18
433.82	310.80
434.19	313.62
434.56	316.41
434.93	319.09
435.30	321.67
435.68	324.53
436.05	327.34
436.42	330.11
436.79	332.65
437.16	335.33
437.53	338.21
437.90	340.98
438.27	343.75
438.64	346.56
439.01	349.15
439.38	351.39
439.75	353.60
440.13	356.08
440.50	358.41
440.87	360.21
441.24	362.19
441.61	364.36
441.98	365.87
442.35	367.65
442.72	369.48
443.09	371.31
443.46	372.32
443.83	372.90
444.20	373.39
444.57	374.23
444.94	374.46
445.31	374.71
445.68	375.07
446.05	375.08
446.42	374.71
446.79	374.30
447.16	373.87
447.53	373.52
447.90	372.38
448.27	371.21
448.64	369.65
449.01	368.49
449.37	366.49
449.74	364.62
450.11	362.39
450.48	359.98
450.85	357.48
451.22	355.30
451.59	353.33
451.96	351.39
452.33	348.79
452.70	346.51
453.07	343.77
453.43	340.84
453.80	338.12
454.17	335.46
454.54	332.91
454.91	330.16
455.28	327.50
455.65	324.98
456.02	322.53
456.38	320.41
456.75	317.77
457.12	315.52
457.49	313.28
457.86	311.11
458.23	309.25
458.59	307.16
458.96	305.11
459.33	303.25
459.70	301.41
460.07	299.92
460.43	298.17
460.80	296.54
461.17	295.13
461.54	293.68
461.91	292.25
462.27	290.83
462.64	289.63
463.01	288.30
463.38	287.07
463.74	285.73
464.11	284.55
464.48	283.52
464.85	282.46
465.21	281.59
465.58	280.66
465.95	279.56
466.32	278.69
466.68	277.80
467.05	276.90
467.42	276.04
467.78	275.10
468.15	274.29
468.52	273.67
468.88	272.80
469.25	272.04
469.62	271.42
469.98	270.75
470.35	270.11
470.72	269.55
471.08	268.87
471.45	268.34
471.82	267.79
472.18	267.20
472.55	266.77
472.92	266.29
473.28	265.86
473.65	265.43
474.02	264.99
474.38	264.61
474.75	264.31
475.11	263.94
475.48	263.66
475.85	263.41
476.21	263.16
476.58	262.99
476.94	262.84
477.31	262.69
477.67	262.56
478.04	262.46
478.41	262.40
478.77	262.48
479.14	262.41
479.50	262.46
479.87	262.55
480.23	262.62
480.60	262.66
480.96	262.75
481.33	262.96
481.69	263.17
482.06	263.36
482.42	263.58
482.79	263.88
483.15	264.20
483.52	264.61
483.88	264.96
484.25	265.37
484.61	265.75
484.98	266.19
485.34	266.74
485.71	267.34
486.07	267.93
486.44	268.49
486.80	269.24
487.17	269.91
487.53	270.69
487.90	271.54
488.26	272.50
488.62	273.49
488.99	274.52
489.35	275.55
489.72	276.69
490.08	277.87
490.44	279.06
490.81	280.41
491.17	281.71
491.54	283.19
491.90	284.72
492.26	286.41
492.63	288.18
492.99	289.94
493.36	291.83
493.72	293.82
494.08	295.92
494.45	298.15
494.81	300.53
495.17	302.99
495.54	305.57
495.90	308.27
496.26	311.07
496.63	313.98
496.99	317.10
497.35	320.39
497.72	323.83
498.08	327.41
498.44	331.07
498.80	335.01
499.17	338.99
499.53	343.16
499.89	347.52
500.26	352.01
500.62	356.70
500.98	361.64
501.34	366.77
501.71	372.12
502.07	377.58
502.43	383.22
502.79	389.08
503.16	395.13
503.52	401.41
503.88	407.84
504.24	414.44
504.60	421.34
504.97	428.44
505.33	435.74
505.69	443.41
506.05	451.21
506.41	459.14
506.78	467.36
507.14	475.87
507.50	484.59
507.86	493.62
508.22	502.83
508.59	512.07
508.95	521.65
509.31	531.46
509.67	541.51
510.03	551.81
510.39	562.34
510.75	573.15
511.12	584.08
511.48	595.36
511.84	606.83
512.20	618.30
512.56	630.26
512.92	642.39
513.28	654.84
513.64	667.28
514.00	679.95
514.37	692.88
514.73	705.85
515.09	718.83
515.45	732.05
515.81	745.65
516.17	759.67
516.53	773.82
516.89	788.00
517.25	802.19
517.61	816.56
517.97	831.02
518.33	845.43
518.69	860.16
519.05	875.11
519.41	890.27
519.77	905.84
520.13	921.21
520.49	936.66
520.85	952.00
521.21	967.72
521.57	984.00
521.93	999.74
522.29	1016.15
522.65	1032.40
523.01	1048.57
523.37	1064.62
523.73	1080.63
524.09	1096.63
524.45	1112.82
524.81	1129.36
525.17	1146.09
525.53	1162.80
525.89	1179.67
526.25	1196.52
526.61	1212.91
526.97	1229.61
527.33	1246.02
527.68	1262.59
528.04	1278.91
528.40	1295.46
528.76	1312.39
529.12	1328.81
529.48	1345.69
529.84	1361.62
530.20	1378.22
530.56	1395.17
530.91	1412.38
531.27	1429.13
531.63	1445.58
531.99	1462.13
532.35	1478.10
532.71	1494.06
533.07	1510.47
533.42	1526.31
533.78	1542.31
534.14	1558.53
534.50	1573.77
534.86	1589.61
535.21	1604.73
535.57	1620.68
535.93	1636.03
536.29	1650.85
536.65	1665.84
537.00	1680.57
537.36	1695.85
537.72	1710.29
538.08	1724.75
538.44	1738.49
538.79	1752.31
539.15	1765.90
539.51	1779.60
539.87	1793.84
540.22	1807.38
540.58	1820.94
540.94	1833.99
541.29	1846.61
541.65	1859.21
542.01	1872.33
542.37	1884.57
542.72	1897.04
543.08	1908.81
543.44	1921.14
543.79	1932.29
544.15	1943.32
544.51	1954.79
544.87	1965.58
545.22	1976.31
545.58	1986.46
545.94	1996.22
546.29	2006.05
546.65	2015.98
547.01	2025.19
547.36	2033.93
547.72	2042.36
548.07	2050.31
548.43	2058.59
548.79	2066.63
549.14	2074.22
549.50	2081.43
549.86	2088.88
550.21	2095.99
550.57	2103.12
550.92	2109.70
551.28	2116.70
551.64	2123.69
551.99	2130.10
552.35	2136.36
552.70	2142.56
553.06	2148.50
553.41	2154.81
553.77	2160.69
554.13	2166.57
554.48	2172.55
554.84	2178.11
555.19	2183.36
555.55	2188.46
555.90	2192.84
556.26	2197.72
556.61	2202.30
556.97	2206.83
557.32	2211.10
557.68	2215.30
558.03	2219.40
558.39	2222.97
558.74	2227.49
559.10	2231.38
559.45	2235.11
559.81	2239.35
560.16	2243.19
560.52	2246.49
560.87	2249.86
561.23	2252.62
561.58	2255.59
561.94	2258.32
562.29	2260.61
562.64	2263.45
563.00	2265.93
563.35	2269.47
563.71	2272.68
564.06	2275.95
564.42	2278.70
564.77	2281.20
565.12	2283.58
565.48	2285.67
565.83	2287.68
566.19	2289.12
566.54	2289.91
566.89	2291.01
567.25	2291.67
567.60	2292.83
567.96	2294.64
568.31	2295.44
568.66	2296.65
569.02	2297.21
569.37	2297.44
569.72	2298.28
570.08	2298.45
570.43	2298.61
570.78	2298.00
571.14	2296.40
571.49	2294.96
571.84	2294.65
572.20	2293.65
572.55	2292.45
572.90	2290.77
573.26	2289.32
573.61	2287.62
573.96	2286.02
574.31	2283.11
574.67	2280.11
575.02	2276.59
575.37	2273.04
575.72	2269.44
576.08	2266.08
576.43	2262.81
576.78	2259.18
577.13	2255.94
577.49	2252.68
577.84	2249.19
578.19	2245.57
578.54	2242.08
578.90	2238.04
579.25	2232.65
579.60	2227.83
579.95	2222.98
580.30	2218.04
580.66	2212.93
581.01	2208.04
581.36	2202.98
581.71	2198.82
582.06	2194.54
582.42	2190.22
582.77	2185.12
583.12	2180.58
583.47	2175.91
583.82	2171.00
584.17	2165.84
584.53	2160.44
584.88	2154.84
585.23	2149.06
585.58	2143.65
585.93	2138.14
586.28	2133.28
586.63	2128.17
586.98	2123.00
587.34	2118.39
587.69	2113.43
588.04	2108.42
588.39	2102.84
588.74	2096.43
589.09	2090.32
589.44	2083.36
589.79	2077.15
590.14	2071.35
590.49	2064.60
590.84	2058.18
591.19	2052.17
591.54	2045.77
591.89	2038.45
592.25	2031.75
592.60	2024.69
592.95	2017.21
593.30	2009.86
593.65	2002.24
594.00	1995.25
594.35	1987.91
594.70	1979.79
595.05	1972.76
595.40	1965.35
595.75	1957.83
596.10	1951.85
596.45	1945.10
596.80	1939.08
597.15	1932.56
597.50	1925.83
597.85	1919.52
598.19	1913.08
598.54	1905.99
598.89	1899.40
599.24	1893.56
599.59	1887.06
599.94	1880.75
600.29	1874.36
600.64	1867.80
600.99	1860.43
601.34	1853.60
601.69	1846.68
602.04	1839.83
602.39	1832.46
602.74	1825.69
603.08	1818.95
603.43	1812.17
603.78	1804.97
604.13	1797.74
604.48	1790.62
604.83	1783.57
605.18	1776.71
605.53	1768.65
605.87	1760.56
606.22	1753.21
606.57	1745.22
606.92	1737.77
607.27	1730.73
607.62	1723.86
607.96	1716.75
608.31	1710.28
608.66	1702.64
609.01	1695.17
609.36	1687.69
609.70	1679.76
610.05	1671.73
610.40	1664.13
610.75	1655.80
611.10	1648.10
611.44	1639.64
611.79	1631.57
612.14	1622.94
612.49	1613.81
612.83	1605.42
613.18	1597.48
613.53	1589.46
613.88	1581.01
614.22	1572.75
614.57	1564.06
614.92	1556.09
615.27	1548.52
615.61	1540.26
615.96	1532.24
616.31	1524.64
616.65	1517.26
617.00	1509.66
617.35	1501.90
617.70	1493.60
618.04	1485.19
618.39	1476.96
618.74	1469.42
619.08	1461.14
619.43	1453.55
619.78	1446.55
620.12	1439.41
620.47	1431.83
620.82	1423.59
621.16	1416.13
621.51	1408.43
621.85	1400.74
622.20	1392.18
622.55	1383.77
622.89	1375.81
623.24	1368.15
623.59	1360.62
623.93	1353.05
624.28	1345.87
624.62	1338.40
624.97	1331.15
625.32	1324.35
625.66	1317.32
626.01	1310.13
626.35	1302.71
626.70	1294.87
627.04	1287.23
627.39	1279.32
627.73	1271.87
628.08	1265.00
628.43	1257.79
628.77	1250.57
629.12	1243.01
629.46	1235.86
629.81	1228.37
630.15	1221.15
630.50	1213.82
630.84	1205.66
631.19	1197.68
631.53	1190.10
631.88	1182.50
632.22	1174.90
632.57	1167.45
632.91	1159.86
633.26	1152.42
633.60	1145.02
633.95	1137.87
634.29	1130.80
634.64	1124.11
634.98	1116.71
635.32	1109.57
635.67	1102.84
636.01	1096.15
636.36	1089.41
636.70	1082.83
637.05	1076.36
637.39	1069.95
637.73	1063.42
638.08	1057.49
638.42	1051.56
638.77	1045.20
639.11	1038.73
639.45	1032.30
639.80	1025.68
640.14	1019.34
640.49	1012.83
640.83	1006.47
641.17	1000.36
641.52	993.97
641.86	987.54
642.20	981.68
642.55	975.28
642.89	968.84
643.23	962.22
643.58	956.53
643.92	950.39
644.26	944.37
644.61	938.15
644.95	932.12
645.29	925.73
645.64	919.00
645.98	912.57
646.32	906.59
646.66	900.57
647.01	894.74
647.35	889.07
647.69	883.22
648.04	877.66
648.38	871.80
648.72	865.86
649.06	859.89
649.41	854.10
649.75	848.21
650.09	842.29
650.43	836.53
650.78	830.38
651.12	824.38
651.46	818.64
651.80	813.01
652.14	807.63
652.49	802.16
652.83	797.05
653.17	791.43
653.51	785.75
653.85	780.37
654.20	774.83
654.54	768.74
654.88	763.01
655.22	757.13
655.56	751.46
655.90	745.95
656.25	740.68
656.59	735.21
656.93	730.14
657.27	724.93
657.61	719.51
657.95	714.45
658.29	709.42
658.64	704.05
658.98	698.69
659.32	693.28
659.66	688.05
660.00	682.64
660.34	677.67
660.68	672.71
661.02	667.62
661.36	662.88
661.70	658.44
662.05	654.14
662.39	649.79
662.73	645.34
663.07	641.02
663.41	636.60
663.75	632.13
664.09	627.54
664.43	623.22
664.77	619.10
665.11	614.78
665.45	610.61
665.79	606.64
666.13	602.58
666.47	598.39
666.81	594.26
667.15	590.18
667.49	586.22
667.83	582.43
668.17	578.52
668.51	574.48
668.85	570.37
669.19	566.48
669.53	562.69
669.87	558.89
670.21	555.08
670.55	551.44
670.89	548.03
671.23	544.55
671.57	541.04
671.91	537.55
672.25	534.04
672.58	530.51
672.92	527.00
673.26	523.78
673.60	520.65
673.94	517.58
674.28	514.68
674.62	511.73
674.96	508.64
675.30	505.80
675.64	502.85
675.97	500.09
676.31	497.22
676.65	494.28
676.99	491.56
677.33	488.75
677.67	485.89
678.01	482.86
678.34	479.94
678.68	477.01
679.02	474.15
679.36	471.37
679.70	468.63
680.04	465.90
680.37	463.05
680.71	460.26
681.05	457.60
681.39	454.87
681.73	452.24
682.06	449.72
682.40	447.13
682.74	444.62
683.08	442.09
683.42	439.47
683.75	436.97
684.09	434.36
684.43	431.87
684.77	429.41
685.10	427.05
685.44	424.75
685.78	422.48
686.12	420.26
686.45	417.99
686.79	415.71
687.13	413.56
687.46	411.35
687.80	409.19
688.14	406.97
688.48	404.96
688.81	402.79
689.15	400.69
689.49	398.55
689.82	396.37
690.16	394.27
690.50	392.28
690.83	390.38
691.17	388.40
691.51	386.51
691.84	384.63
692.18	382.71
692.52	380.73
692.85	378.75
693.19	376.84
693.52	374.98
693.86	373.18
694.20	371.36
694.53	369.54
694.87	367.71
695.21	365.93
695.54	364.03
695.88	362.28
696.21	360.51
696.55	358.85
696.88	357.21
697.22	355.59
697.56	354.01
697.89	352.37
698.23	350.78
698.56	349.19
698.90	347.61
699.23	345.98
699.57	344.43
699.90	342.94
700.24	341.39
700.58	339.90
700.91	338.42
701.25	336.99
701.58	335.66
701.92	334.28
702.25	332.91
702.59	331.53
702.92	330.19
703.26	328.86
703.59	327.51
703.93	326.32
704.26	325.07
704.60	323.75
704.93	322.46
705.26	321.20
705.60	320.02
705.93	318.85
706.27	317.80
706.60	316.72
706.94	315.65
707.27	314.51
707.61	313.43
707.94	312.37
708.27	311.26
708.61	310.20
708.94	309.16
709.28	308.18
709.61	307.27
709.94	306.29
710.28	305.26
710.61	304.28
710.95	303.21
711.28	302.28
711.61	301.28
711.95	300.33
712.28	299.39
712.61	298.42
712.95	297.51
713.28	296.61
713.61	295.71
713.95	294.80
714.28	293.99
714.61	293.15
714.95	292.28
715.28	291.41
715.61	290.53
715.95	289.68
716.28	288.83
716.61	287.94
716.95	287.10
717.28	286.39
717.61	285.63
717.94	284.89
718.28	284.08
718.61	283.38
718.94	282.69
719.27	282.03
719.61	281.35
719.94	280.71
720.27	279.98
720.60	279.31
720.94	278.69
721.27	278.10
721.60	277.51
721.93	276.92
722.27	276.36
722.60	275.81
722.93	275.26
723.26	274.75
723.59	274.21
723.93	273.70
724.26	273.11
724.59	272.54
724.92	272.02
725.25	271.52
725.59	271.02
725.92	270.51
726.25	269.98
726.58	269.48
726.91	268.95
727.24	268.49
727.57	268.02
727.91	267.50
728.24	267.00
728.57	266.46
728.90	266.00
729.23	265.53
729.56	265.12
729.89	264.63
730.22	264.10
730.55	263.62
730.89	263.16
731.22	262.71
731.55	262.31
731.88	261.88
732.21	261.43
732.54	261.00
732.87	260.58
733.20	260.22
733.53	259.82
733.86	259.42
734.19	259.02
734.52	258.66
734.85	258.36
735.18	257.94
735.51	257.61
735.84	257.24
736.17	256.90
736.50	256.48
736.83	256.26
737.16	255.94
737.49	255.65
737.82	255.32
738.15	255.02
738.48	254.66
738.81	254.34
739.14	254.03
739.47	253.73
739.80	253.40
740.13	253.06
740.46	252.75
740.79	252.45
741.12	252.14
741.45	251.84
741.78	251.49
742.11	251.19
742.44	250.87
742.77	250.61
743.10	250.29
743.43	250.01
743.75	249.64
744.08	249.49
744.41	249.21
744.74	248.94
745.07	248.68
745.40	248.46
745.73	248.22
746.06	247.96
746.39	247.68
746.71	247.43
747.04	247.14
747.37	246.84
747.70	246.58
748.03	246.33
748.36	246.11
748.68	245.86
749.01	245.61
749.34	245.40
749.67	245.13
750.00	244.91
750.33	244.75
750.65	244.55
750.98	244.21
751.31	243.99
751.64	243.78
751.97	243.59
752.29	243.34
752.62	243.06
752.95	242.86
753.28	242.63
753.60	242.43
753.93	242.28
754.26	242.14
754.59	241.96
754.91	241.76
755.24	241.53
755.57	241.35
755.90	241.15
756.22	240.98
756.55	240.80
756.88	240.63
757.20	240.35
757.53	240.11
757.86	239.94
758.19	239.79
758.51	239.58
758.84	239.35
759.17	239.23
759.49	239.05
759.82	238.90
760.15	238.78
760.47	238.63
760.80	238.48
761.13	238.35
761.45	238.14
761.78	238.01
762.11	237.86
762.43	237.71
762.76	237.59
763.08	237.44
763.41	237.26
763.74	237.15
764.06	237.02
764.39	236.89
764.71	236.72
765.04	236.57
765.37	236.46
765.69	236.36
766.02	236.16
766.34	236.08
766.67	235.94
767.00	235.81
767.32	235.75
767.65	235.66
767.97	235.53
768.30	235.42
768.62	235.28
768.95	235.13
769.27	235.04
769.60	234.91
769.92	234.80
770.25	234.74
770.57	234.59
770.90	234.52
771.22	234.39
771.55	234.35
771.87	234.25
772.20	234.12
772.52	234.11
772.85	234.15
773.17	234.04
773.50	233.97
773.82	233.88
774.15	233.72
774.47	233.57
774.80	233.45
775.12	233.40
775.45	233.39
775.77	233.38
776.09	233.28
776.42	233.25
776.74	233.21
777.07	233.12
777.39	233.04
777.72	232.94
778.04	232.90
778.36	232.81
778.69	232.75
779.01	232.72
779.33	232.56
779.66	232.41
779.98	232.35
780.31	232.27
780.63	232.24
780.95	232.20
781.28	232.15
781.60	232.10
781.92	232.04
782.25	231.93
782.57	231.82
782.89	231.77
783.22	231.68
783.54	231.59
783.86	231.54
784.19	231.50
784.51	231.49
784.83	231.42
785.16	231.38
785.48	231.32
785.80	231.28
786.12	231.21
786.45	231.17
786.77	231.13
787.09	231.08
787.42	230.99
787.74	230.93
788.06	230.90
788.38	230.87
788.71	230.82
789.03	230.79
789.35	230.76
789.67	230.73
789.99	230.70
790.32	230.65
790.64	230.62
790.96	230.66
791.28	230.60
791.61	230.54
791.93	230.54
792.25	230.50
792.57	230.51
792.89	230.47
793.21	230.42
793.54	230.37
793.86	230.32
794.18	230.29
794.50	230.25
794.82	230.20
795.14	230.15
795.47	230.11
795.79	230.09
796.11	230.04
796.43	230.00
796.75	229.94
797.07	229.91
797.39	229.86
797.71	229.75
798.04	229.70
798.36	229.69
798.68	229.60
799.00	229.57
799.32	229.48
799.64	229.47
799.96	229.43
800.28	229.40
800.60	229.36
800.92	229.33
801.24	229.26
801.56	229.26
801.89	229.23
802.21	229.20
802.53	229.12
802.85	229.10
803.17	229.12
803.49	229.08
803.81	229.01
804.13	228.95
804.45	228.88
804.77	228.81
805.09	228.82
805.41	228.80
805.73	228.73
806.05	228.66
806.37	228.62
806.69	228.56
807.01	228.49
807.33	228.47
807.65	228.39
807.97	228.45
808.28	228.37
808.60	228.36
808.92	228.31
809.24	228.34
809.56	228.28
809.88	228.19
810.20	228.16
810.52	228.19
810.84	228.19
811.16	228.18
811.48	228.18
811.80	228.15
812.12	228.13
812.43	228.14
812.75	228.16
813.07	228.13
813.39	228.17
813.71	228.17
814.03	228.17
814.35	228.19
814.67	228.11
814.98	228.13
815.30	228.11
815.62	228.07
815.94	228.01
816.26	228.07
816.58	228.04
816.89	228.03
817.21	228.01
817.53	227.98
817.85	227.96
818.17	227.98
818.48	227.96
818.80	227.93
819.12	227.91
819.44	227.89
819.76	227.89
820.07	227.86
820.39	227.86
820.71	227.87
821.03	227.84
821.34	227.83
821.66	227.81
821.98	227.81
822.30	227.83
822.61	227.88
822.93	227.81
823.25	227.81
823.57	227.80
823.88	227.78
824.20	227.80
824.52	227.84
824.83	227.83
825.15	227.81
825.47	227.82
825.79	227.83
826.10	227.79
826.42	227.75
826.74	227.76
827.05	227.77
827.37	227.73
827.69	227.75
828.00	227.75
828.32	227.75
828.64	227.72
828.95	227.76
829.27	227.71
829.58	227.72
829.90	227.73
830.22	227.77
830.53	227.73
830.85	227.70
831.17	227.62
831.48	227.62
831.80	227.60
832.11	227.64
832.43	227.59
832.75	227.58
833.06	227.67
833.38	227.62
833.69	227.57
834.01	227.57
834.32	227.52
834.64	227.47
834.96	227.46
835.27	227.46
835.59	227.42
835.90	227.43
836.22	227.41
836.53	227.36
836.85	227.33
837.16	227.43
837.48	227.45
837.79	227.49
838.11	227.49
838.42	227.45
838.74	227.39
839.05	227.39
839.37	227.40
839.68	227.31
840.00	227.28
840.31	227.29
840.63	227.29
840.94	227.29
841.26	227.29
841.57	227.26
841.88	227.23
842.20	227.21
842.51	227.12
842.83	227.08
843.14	227.16
843.46	227.18
843.77	227.08
844.08	227.05
844.40	226.98
844.71	226.95
845.03	226.94
845.34	226.93
845.65	226.89
845.97	226.86
846.28	226.82
846.60	226.82
846.91	226.74
847.22	226.70
847.54	226.69
847.85	226.67
848.16	226.66
848.48	226.62
848.79	226.64
849.10	226.67
849.42	226.68
849.73	226.58
850.04	226.53
850.36	226.50
850.67	226.50
850.98	226.51
851.30	226.49
851.61	226.48
851.92	226.49
852.23	226.53
852.55	226.56
852.86	226.59
853.17	226.59
853.49	226.65
853.80	226.69
854.11	226.71
854.42	226.74
854.74	226.76
855.05	226.77
855.36	226.70
855.67	226.68
855.99	226.67
856.30	226.81
856.61	226.78
856.92	226.80
857.23	226.81
857.55	226.82
857.86	226.81
858.17	226.84
858.48	226.82
858.79	226.79
859.11	226.80
859.42	226.79
859.73	226.81
860.04	226.83
860.35	226.77
860.66	226.72
860.98	226.71
861.29	226.71
861.60	226.70
861.91	226.76
862.22	226.78
862.53	226.81
862.84	226.67
863.16	226.75
863.47	226.74
863.78	226.73
864.09	226.72
864.40	226.76
864.71	226.75
865.02	226.78
865.33	226.78
865.64	226.75
865.95	226.74
866.27	226.77
866.58	226.77
866.89	226.79
867.20	226.81
867.51	226.79
867.82	226.76
868.13	226.77
868.44	226.74
868.75	226.75
869.06	226.73
869.37	226.75
869.68	226.68
869.99	226.68
870.30	226.67
870.61	226.67
870.92	226.65
871.23	226.66
871.54	226.65
871.85	226.64
872.16	226.64
872.47	226.62
872.78	226.56
873.09	226.56
873.40	226.59
873.71	226.57
874.02	226.58
874.33	226.60
874.64	226.61
874.95	226.60
875.26	226.56
875.56	226.57
875.87	226.55
876.18	226.55
876.49	226.63
876.80	226.59
877.11	226.58
877.42	226.58
877.73	226.54
878.04	226.51
878.35	226.56
878.66	226.50
878.96	226.52
879.27	226.49
879.58	226.48
879.89	226.42
880.20	226.45
880.51	226.42
880.82	226.40
881.12	226.37
881.43	226.36
881.74	226.34
882.05	226.30
882.36	226.30
882.67	226.31
882.97	226.20
883.28	226.22
883.59	226.20
883.90	226.21
884.21	226.25
884.51	226.26
884.82	226.20
885.13	226.26
885.44	226.24
885.74	226.25
886.05	226.26
886.36	226.25
886.67	226.17
886.98	226.24
887.28	226.25
887.59	226.29
887.90	226.26
888.20	226.27
888.51	226.30
888.82	226.27
889.13	226.28
889.43	226.35
889.74	226.31
890.05	226.32
890.35	226.28
890.66	226.27
890.97	226.25
891.28	226.25
891.58	226.24
891.89	226.27
892.20	226.27
892.50	226.22
892.81	226.23
893.12	226.24
893.42	226.18
893.73	226.19
894.04	226.16
894.34	226.18
894.65	226.19
894.95	226.19
895.26	226.23
895.57	226.23
895.87	226.15
896.18	226.20
896.48	226.21
896.79	226.19
897.10	226.15
897.40	226.17
897.71	226.18
898.01	226.16
898.32	226.17
898.63	226.17
898.93	226.20
899.24	226.20
899.54	226.21
899.85	226.21
900.15	226.17
900.46	226.17
900.76	226.19
901.07	226.23
901.38	226.23
901.68	226.24
901.99	226.22
902.29	226.25
902.60	226.24
902.90	226.26
903.21	226.27
903.51	226.28
903.82	226.30
904.12	226.32
904.43	226.30
904.73	226.28
905.03	226.26
905.34	226.38
905.64	226.39
905.95	226.41
906.25	226.43
906.56	226.45
906.86	226.46
907.17	226.45
907.47	226.44
907.77	226.45
908.08	226.43
908.38	226.43
908.69	226.44
908.99	226.48
909.30	226.47
909.60	226.52
909.90	226.54
910.21	226.50
910.51	226.51
910.81	226.55
911.12	226.56
911.42	226.56
911.73	226.45
912.03	226.47
912.33	226.48
912.64	226.50
912.94	226.51
913.24	226.53
913.55	226.50
913.85	226.48
914.15	226.47
914.46	226.46
914.76	226.47
915.06	226.46
915.37	226.40
915.67	226.36
915.97	226.34
916.27	226.31
916.58	226.33
916.88	226.31
917.18	226.28
917.49	226.35
917.79	226.36
918.09	226.38
918.39	226.35
918.70	226.32
919.00	226.31
919.30	226.37
919.60	226.34
919.91	226.33
920.21	226.34
920.51	226.29
920.81	226.29
921.12	226.29
921.42	226.29
921.72	226.31
922.02	226.34
922.32	226.33
922.63	226.31
922.93	226.36
923.23	226.36
923.53	226.35
923.83	226.27
924.13	226.24
924.44	226.22
924.74	226.27
925.04	226.34
925.34	226.34
925.64	226.25
925.94	226.26
926.24	226.30
926.55	226.29
926.85	226.28
927.15	226.27
927.45	226.29
927.75	226.27
928.05	226.26
928.35	226.22
928.65	226.26
928.95	226.30
929.26	226.25
929.56	226.27
929.86	226.29
930.16	226.32
930.46	226.33
930.76	226.32
931.06	226.27
931.36	226.21
931.66	226.22
931.96	226.25
932.26	226.26
932.56	226.23
932.86	226.25
933.16	226.28
933.46	226.29
933.76	226.28
934.06	226.30
934.36	226.33
934.66	226.37
934.96	226.35
935.26	226.34
935.56	226.38
935.86	226.37
936.16	226.37
936.46	226.32
936.76	226.34
937.06	226.35
937.36	226.36
937.66	226.36
937.96	226.34
938.26	226.31
938.56	226.30
938.86	226.30
939.16	226.33
939.46	226.35
939.76	226.36
940.06	226.36
940.35	226.34
940.65	226.32
940.95	226.30
941.25	226.28
941.55	226.27
941.85	226.24
942.15	226.25
942.45	226.28
942.75	226.28
943.04	226.28
943.34	226.28
943.64	226.26
943.94	226.27
944.24	226.28
944.54	226.32
944.84	226.32
945.13	226.34
945.43	226.31
945.73	226.27
946.03	226.25
946.33	226.25
946.62	226.26
946.92	226.27
947.22	226.29
947.52	226.30
947.82	226.32
948.11	226.29
948.41	226.30
948.71	226.27
949.01	226.28
949.31	226.29
949.60	226.29
949.90	226.32
950.20	226.32
950.50	226.31
950.79	226.28
951.09	226.30
951.39	226.29
951.69	226.28
951.98	226.27
952.28	226.28
952.58	226.26
952.87	226.23
953.17	226.22
953.47	226.18
953.76	226.18
954.06	226.16
954.36	226.15
954.66	226.11
954.95	226.12
955.25	226.14
955.55	226.14
955.84	226.11
956.14	226.12
956.44	226.07
956.73	226.04
957.03	226.05
957.32	226.03
957.62	226.02
957.92	226.02
958.21	226.01
958.51	226.10
958.81	226.12
959.10	226.11
959.40	226.14
959.69	226.16
959.99	226.15
960.29	226.18
960.58	226.17
960.88	226.22
961.17	226.20
961.47	226.20
961.76	226.20
962.06	226.21
962.36	226.17
962.65	226.19
962.95	226.24
963.24	226.21
963.54	226.21
963.83	226.24
964.13	226.25
964.42	226.26
964.72	226.23
965.01	226.22
965.31	226.27
965.60	226.23
965.90	226.28
966.19	226.30
966.49	226.28
966.78	226.27
967.08	226.27
967.37	226.26
967.67	226.24
967.96	226.24
968.26	226.25
968.55	226.28
968.85	226.28
969.14	226.26
969.43	226.27
969.73	226.30
970.02	226.26
970.32	226.27
970.61	226.27
970.91	226.23
971.20	226.20
971.49	226.19
971.79	226.21
972.08	226.14
972.38	226.13
972.67	226.11
972.96	226.14
973.26	226.11
973.55	226.14
973.85	226.12
974.14	226.09
974.43	226.12
974.73	226.09
975.02	226.10
975.31	226.06
975.61	226.08
975.90	226.04
976.19	226.05
976.49	226.05
976.78	226.07
977.07	226.06
977.37	226.07
977.66	226.05
977.95	226.04
978.24	226.04
978.54	226.07
978.83	226.11
979.12	226.10
979.42	226.13
979.71	226.12
980.00	226.14
980.29	226.17
980.59	226.14
980.88	226.18
981.17	226.18
981.46	226.23
981.76	226.22
982.05	226.28
982.34	226.28
982.63	226.29
982.93	226.30
983.22	226.32
983.51	226.33
983.80	226.36
984.09	226.40
984.39	226.38
984.68	226.34
984.97	226.32
985.26	226.29
985.55	226.27
985.85	226.24
986.14	226.24
986.43	226.24
986.72	226.25
987.01	226.20
987.30	226.21
987.59	226.19
987.89	226.19
988.18	226.11
988.47	226.11
988.76	226.09
989.05	226.09
989.34	226.05
989.63	226.06
989.92	226.01
990.22	226.00
990.51	226.02
990.80	226.00
991.09	226.03
991.38	226.05
991.67	226.03
991.96	226.05
992.25	226.07
992.54	226.08
992.83	226.05
993.12	226.06
993.41	226.04
993.70	226.08
993.99	226.13
994.28	226.15
994.58	226.17
994.87	226.16
995.16	226.15
995.45	226.15
995.74	226.12
996.03	226.15
996.32	226.15
996.61	226.16
996.90	226.17
997.19	226.14
997.48	226.12
997.77	226.14
998.06	226.11
998.34	226.10
998.63	226.08
998.92	226.08
999.21	226.12
999.50	226.12
999.79	226.07
1000.08	226.02
1000.37	226.03
1000.66	226.00
1000.95	226.01
1001.24	226.00
1001.53	226.00
1001.82	225.98
1002.11	225.93
1002.40	225.90
1002.68	225.91
1002.97	225.96
1003.26	225.96
1003.55	225.97
1003.84	225.97
1004.13	226.02
1004.42	226.00
1004.71	226.00
1004.99	225.97
1005.28	225.96
1005.57	225.94
1005.86	225.94
1006.15	225.91
1006.44	225.88
1006.72	225.88
1007.01	225.86
1007.30	225.83
1007.59	225.81
1007.88	225.81
1008.17	225.85
1008.45	225.85
1008.74	225.82
1009.03	225.79
1009.32	225.76
1009.60	225.75
1009.89	225.72
1010.18	225.68
1010.47	225.68
1010.76	225.67
1011.04	225.72
1011.33	225.71
1011.62	225.77
1011.91	225.78
1012.19	225.80
1012.48	225.82
1012.77	225.82
1013.05	225.88
1013.34	225.91
1013.63	225.93
1013.92	225.96
1014.20	225.97
1014.49	225.99
1014.78	226.00
1015.06	225.98
1015.35	226.02
1015.64	226.03
1015.92	226.05
1016.21	226.06
1016.50	226.07
1016.78	226.09
1017.07	226.08
1017.36	226.09
1017.64	226.04
1017.93	226.05
1018.22	226.05
1018.50	226.04
1018.79	226.06
1019.08	226.01
1019.36	226.04
1019.65	226.07
1019.93	226.09
1020.22	226.10
1020.51	226.18
1020.79	226.20
1021.08	225.75
1021.36	225.78
1021.65	226.22
1021.94	226.24
1022.22	226.39
1022.51	226.56
1022.79	226.52
1023.08	226.35
1023.36	227.70
1023.65	226.30
>>>>>End Processed Spectral Data<<<<<
