SpectraSuite Data File
++++++++++++++++++++++++++++++++++++
Date: Fri Feb 01 15:34:58 EST 2013
User: group
Dark Spectrum Present: No
Reference Spectrum Present: No
Number of Sampled Component Spectra: 1
Spectrometers: USB2E7196
Integration Time (usec): 35000 (USB2E7196)
Spectra Averaged: 100 (USB2E7196)
Boxcar Smoothing: 10 (USB2E7196)
Correct for Electrical Dark: No (USB2E7196)
Strobe/Lamp Enabled: No (USB2E7196)
Correct for Detector Non-linearity: No (USB2E7196)
Correct for Stray Light: No (USB2E7196)
Number of Pixels in Processed Spectrum: 2048
>>>>>Begin Processed Spectral Data<<<<<
339.09	0.00
339.48	215.47
339.86	216.33
340.24	217.72
340.63	219.06
341.01	221.85
341.39	221.67
341.78	223.08
342.16	224.34
342.54	225.20
342.93	213.18
343.31	223.95
343.69	224.45
344.07	224.88
344.46	225.29
344.84	225.67
345.22	225.90
345.60	226.15
345.99	226.30
346.37	226.41
346.75	226.49
347.13	226.58
347.52	226.62
347.90	226.69
348.28	226.73
348.66	226.73
349.05	226.75
349.43	226.78
349.81	226.82
350.19	226.87
350.57	226.89
350.96	226.98
351.34	227.06
351.72	227.16
352.10	227.27
352.48	227.34
352.87	227.39
353.25	227.44
353.63	227.50
354.01	227.59
354.39	227.68
354.77	227.74
355.15	227.85
355.54	227.95
355.92	228.02
356.30	228.08
356.68	228.24
357.06	228.33
357.44	228.38
357.82	228.44
358.20	228.53
358.58	228.61
358.97	228.68
359.35	228.74
359.73	228.82
360.11	228.92
360.49	229.00
360.87	229.01
361.25	229.12
361.63	229.18
362.01	229.22
362.39	229.23
362.77	229.30
363.15	229.29
363.53	229.31
363.91	229.31
364.29	229.32
364.67	229.24
365.05	229.23
365.43	229.24
365.81	229.30
366.19	229.34
366.57	229.38
366.95	229.39
367.33	229.39
367.71	229.36
368.09	229.34
368.47	229.33
368.85	229.36
369.23	229.34
369.61	229.29
369.99	229.33
370.37	229.35
370.75	229.37
371.13	229.35
371.51	229.30
371.89	229.30
372.27	229.25
372.65	229.23
373.03	229.17
373.41	229.13
373.78	229.04
374.16	228.98
374.54	228.88
374.92	228.77
375.30	228.73
375.68	228.67
376.06	228.61
376.44	228.51
376.82	228.45
377.19	228.38
377.57	228.30
377.95	228.18
378.33	228.10
378.71	227.96
379.09	227.91
379.47	227.86
379.84	227.76
380.22	227.69
380.60	227.60
380.98	227.52
381.36	227.46
381.73	227.35
382.11	227.27
382.49	227.19
382.87	227.10
383.25	227.05
383.62	227.07
384.00	226.99
384.38	226.92
384.76	226.89
385.13	226.86
385.51	226.82
385.89	226.76
386.27	226.72
386.64	226.69
387.02	226.60
387.40	226.56
387.78	226.51
388.15	226.46
388.53	226.38
388.91	226.34
389.29	226.35
389.66	226.36
390.04	226.31
390.42	226.33
390.79	226.32
391.17	226.28
391.55	226.18
391.92	226.20
392.30	226.24
392.68	226.18
393.05	226.20
393.43	226.21
393.81	226.24
394.18	226.21
394.56	226.23
394.94	226.29
395.31	226.31
395.69	226.37
396.06	226.44
396.44	226.52
396.82	226.58
397.19	226.61
397.57	226.65
397.95	226.71
398.32	226.70
398.70	226.81
399.07	226.86
399.45	226.93
399.82	226.97
400.20	227.03
400.58	227.14
400.95	227.18
401.33	227.29
401.70	227.43
402.08	227.52
402.45	227.60
402.83	227.67
403.20	227.78
403.58	227.87
403.95	227.99
404.33	228.10
404.71	228.22
405.08	228.42
405.46	228.57
405.83	228.72
406.21	228.88
406.58	228.99
406.96	229.16
407.33	229.36
407.70	229.56
408.08	229.81
408.45	230.03
408.83	230.26
409.20	230.46
409.58	230.64
409.95	230.89
410.33	231.18
410.70	231.47
411.08	231.76
411.45	232.10
411.82	232.40
412.20	232.78
412.57	233.20
412.95	233.46
413.32	233.88
413.69	234.30
414.07	234.80
414.44	235.30
414.82	235.82
415.19	236.31
415.56	236.85
415.94	237.38
416.31	237.99
416.68	238.63
417.06	239.38
417.43	240.06
417.81	240.84
418.18	241.61
418.55	242.43
418.93	243.32
419.30	244.19
419.67	245.12
420.04	246.06
420.42	247.03
420.79	248.26
421.16	249.40
421.54	250.59
421.91	251.77
422.28	253.03
422.66	254.36
423.03	255.69
423.40	257.04
423.77	258.47
424.15	259.89
424.52	261.37
424.89	262.93
425.26	264.49
425.64	265.94
426.01	267.54
426.38	269.21
426.75	270.87
427.13	272.59
427.50	274.38
427.87	276.28
428.24	278.18
428.61	279.92
428.99	281.86
429.36	283.97
429.73	286.03
430.10	288.04
430.47	290.09
430.85	292.22
431.22	294.46
431.59	296.84
431.96	299.10
432.33	301.60
432.70	304.01
433.08	306.84
433.45	309.53
433.82	312.13
434.19	315.00
434.56	317.85
434.93	320.56
435.30	323.26
435.68	326.16
436.05	329.01
436.42	331.85
436.79	334.41
437.16	337.09
437.53	339.97
437.90	342.82
438.27	345.58
438.64	348.44
439.01	351.01
439.38	353.27
439.75	355.45
440.13	357.96
440.50	360.31
440.87	362.13
441.24	364.06
441.61	366.22
441.98	367.73
442.35	369.50
442.72	371.35
443.09	373.14
443.46	374.14
443.83	374.69
444.20	375.14
444.57	375.95
444.94	376.27
445.31	376.57
445.68	376.89
446.05	376.99
446.42	376.61
446.79	376.27
447.16	375.79
447.53	375.46
447.90	374.30
448.27	373.17
448.64	371.58
449.01	370.43
449.37	368.47
449.74	366.58
450.11	364.33
450.48	361.85
450.85	359.33
451.22	357.18
451.59	355.17
451.96	353.25
452.33	350.66
452.70	348.26
453.07	345.43
453.43	342.52
453.80	339.70
454.17	336.99
454.54	334.38
454.91	331.67
455.28	329.00
455.65	326.50
456.02	324.02
456.38	321.87
456.75	319.21
457.12	316.96
457.49	314.70
457.86	312.53
458.23	310.66
458.59	308.57
458.96	306.44
459.33	304.57
459.70	302.69
460.07	301.15
460.43	299.46
460.80	297.82
461.17	296.40
461.54	294.92
461.91	293.52
462.27	292.09
462.64	290.82
463.01	289.49
463.38	288.19
463.74	286.84
464.11	285.68
464.48	284.70
464.85	283.59
465.21	282.73
465.58	281.80
465.95	280.71
466.32	279.80
466.68	278.89
467.05	277.99
467.42	277.10
467.78	276.18
468.15	275.29
468.52	274.64
468.88	273.77
469.25	272.99
469.62	272.34
469.98	271.64
470.35	271.04
470.72	270.42
471.08	269.75
471.45	269.18
471.82	268.64
472.18	267.97
472.55	267.51
472.92	266.99
473.28	266.51
473.65	266.05
474.02	265.60
474.38	265.28
474.75	264.95
475.11	264.59
475.48	264.31
475.85	264.08
476.21	263.84
476.58	263.65
476.94	263.48
477.31	263.34
477.67	263.17
478.04	263.03
478.41	262.99
478.77	263.02
479.14	262.96
479.50	262.95
479.87	263.05
480.23	263.15
480.60	263.25
480.96	263.35
481.33	263.55
481.69	263.76
482.06	263.95
482.42	264.16
482.79	264.38
483.15	264.71
483.52	265.09
483.88	265.45
484.25	265.83
484.61	266.26
484.98	266.68
485.34	267.27
485.71	267.85
486.07	268.44
486.44	269.04
486.80	269.75
487.17	270.50
487.53	271.30
487.90	272.12
488.26	273.07
488.62	274.04
488.99	274.99
489.35	276.04
489.72	277.16
490.08	278.36
490.44	279.62
490.81	280.97
491.17	282.31
491.54	283.82
491.90	285.36
492.26	287.02
492.63	288.77
492.99	290.54
493.36	292.45
493.72	294.51
494.08	296.60
494.45	298.85
494.81	301.18
495.17	303.63
495.54	306.16
495.90	308.85
496.26	311.69
496.63	314.70
496.99	317.80
497.35	321.05
497.72	324.45
498.08	327.96
498.44	331.66
498.80	335.63
499.17	339.64
499.53	343.79
499.89	348.21
500.26	352.69
500.62	357.33
500.98	362.30
501.34	367.33
501.71	372.67
502.07	378.07
502.43	383.71
502.79	389.52
503.16	395.61
503.52	401.86
503.88	408.16
504.24	414.70
504.60	421.62
504.97	428.71
505.33	436.01
505.69	443.71
506.05	451.41
506.41	459.27
506.78	467.44
507.14	475.92
507.50	484.61
507.86	493.62
508.22	502.81
508.59	511.96
508.95	521.56
509.31	531.36
509.67	541.48
510.03	551.78
510.39	562.31
510.75	573.12
511.12	584.04
511.48	595.41
511.84	606.93
512.20	618.39
512.56	630.34
512.92	642.54
513.28	654.87
513.64	667.41
514.00	680.13
514.37	693.04
514.73	706.11
515.09	719.10
515.45	732.35
515.81	745.95
516.17	759.99
516.53	774.08
516.89	788.28
517.25	802.51
517.61	816.88
517.97	831.44
518.33	845.88
518.69	860.59
519.05	875.59
519.41	890.84
519.77	906.51
520.13	921.99
520.49	937.40
520.85	952.85
521.21	968.50
521.57	984.70
521.93	1000.48
522.29	1016.89
522.65	1033.22
523.01	1049.52
523.37	1065.58
523.73	1081.70
524.09	1097.95
524.45	1114.28
524.81	1130.97
525.17	1147.92
525.53	1164.75
525.89	1181.60
526.25	1198.50
526.61	1214.93
526.97	1231.64
527.33	1248.00
527.68	1264.71
528.04	1281.17
528.40	1297.86
528.76	1315.06
529.12	1331.64
529.48	1348.56
529.84	1364.65
530.20	1381.29
530.56	1398.42
530.91	1415.94
531.27	1432.83
531.63	1449.18
531.99	1465.82
532.35	1481.70
532.71	1497.53
533.07	1513.86
533.42	1529.86
533.78	1546.04
534.14	1562.35
534.50	1577.63
534.86	1593.62
535.21	1608.81
535.57	1624.85
535.93	1640.31
536.29	1655.11
536.65	1670.35
537.00	1685.19
537.36	1700.49
537.72	1714.96
538.08	1729.26
538.44	1742.97
538.79	1756.94
539.15	1770.78
539.51	1784.54
539.87	1798.87
540.22	1812.74
540.58	1826.57
540.94	1839.92
541.29	1852.74
541.65	1865.57
542.01	1878.88
542.37	1891.23
542.72	1903.70
543.08	1915.39
543.44	1927.84
543.79	1939.00
544.15	1949.98
544.51	1961.55
544.87	1972.57
545.22	1983.53
545.58	1993.82
545.94	2003.70
546.29	2013.47
546.65	2023.27
547.01	2032.50
547.36	2041.33
547.72	2049.77
548.07	2057.58
548.43	2065.76
548.79	2073.90
549.14	2081.31
549.50	2088.68
549.86	2096.41
550.21	2103.67
550.57	2110.96
550.92	2117.55
551.28	2124.79
551.64	2131.81
551.99	2138.43
552.35	2144.47
552.70	2150.53
553.06	2156.56
553.41	2162.94
553.77	2169.07
554.13	2175.18
554.48	2181.33
554.84	2186.75
555.19	2192.03
555.55	2197.24
555.90	2201.67
556.26	2206.52
556.61	2211.34
556.97	2215.66
557.32	2219.78
557.68	2223.91
558.03	2228.17
558.39	2231.86
558.74	2236.33
559.10	2240.16
559.45	2243.82
559.81	2248.18
560.16	2252.05
560.52	2255.38
560.87	2258.74
561.23	2261.35
561.58	2264.35
561.94	2266.90
562.29	2269.37
562.64	2272.08
563.00	2274.60
563.35	2278.06
563.71	2281.16
564.06	2284.24
564.42	2287.08
564.77	2289.54
565.12	2291.78
565.48	2293.60
565.83	2295.42
566.19	2296.75
566.54	2297.78
566.89	2298.88
567.25	2299.40
567.60	2300.81
567.96	2302.24
568.31	2303.08
568.66	2304.11
569.02	2304.51
569.37	2304.73
569.72	2305.44
570.08	2305.60
570.43	2305.60
570.78	2305.10
571.14	2303.54
571.49	2302.18
571.84	2301.68
572.20	2300.49
572.55	2299.40
572.90	2297.96
573.26	2296.53
573.61	2294.81
573.96	2292.92
574.31	2289.89
574.67	2286.88
575.02	2283.09
575.37	2279.77
575.72	2275.92
576.08	2272.68
576.43	2269.26
576.78	2265.55
577.13	2262.47
577.49	2259.26
577.84	2255.74
578.19	2251.87
578.54	2248.18
578.90	2243.84
579.25	2238.39
579.60	2233.29
579.95	2228.34
580.30	2223.21
580.66	2217.99
581.01	2212.96
581.36	2207.94
581.71	2203.68
582.06	2199.21
582.42	2194.87
582.77	2189.61
583.12	2184.95
583.47	2180.09
583.82	2175.16
584.17	2169.75
584.53	2164.16
584.88	2158.56
585.23	2152.69
585.58	2147.25
585.93	2141.76
586.28	2137.00
586.63	2131.79
586.98	2126.69
587.34	2121.99
587.69	2117.05
588.04	2111.80
588.39	2106.13
588.74	2099.75
589.09	2093.51
589.44	2086.56
589.79	2080.43
590.14	2074.68
590.49	2068.16
590.84	2061.82
591.19	2055.68
591.54	2049.19
591.89	2041.66
592.25	2034.70
592.60	2027.44
592.95	2019.79
593.30	2012.37
593.65	2004.69
594.00	1997.79
594.35	1990.58
594.70	1982.40
595.05	1975.12
595.40	1967.78
595.75	1960.09
596.10	1953.74
596.45	1946.87
596.80	1940.70
597.15	1933.95
597.50	1926.86
597.85	1920.47
598.19	1913.62
598.54	1906.49
598.89	1900.02
599.24	1894.11
599.59	1887.40
599.94	1881.28
600.29	1874.92
600.64	1868.23
600.99	1860.77
601.34	1853.71
601.69	1846.83
602.04	1839.81
602.39	1832.42
602.74	1825.54
603.08	1818.85
603.43	1812.06
603.78	1804.81
604.13	1797.65
604.48	1790.35
604.83	1783.54
605.18	1776.29
605.53	1768.36
605.87	1760.33
606.22	1753.07
606.57	1745.12
606.92	1737.85
607.27	1730.59
607.62	1723.64
607.96	1716.44
608.31	1709.79
608.66	1702.16
609.01	1694.41
609.36	1686.88
609.70	1678.90
610.05	1670.79
610.40	1663.10
610.75	1654.76
611.10	1647.16
611.44	1638.78
611.79	1630.78
612.14	1621.95
612.49	1612.98
612.83	1604.59
613.18	1596.55
613.53	1588.44
613.88	1579.92
614.22	1571.46
614.57	1562.86
614.92	1554.85
615.27	1547.31
615.61	1538.87
615.96	1530.93
616.31	1523.45
616.65	1516.13
617.00	1508.52
617.35	1500.95
617.70	1492.55
618.04	1484.18
618.39	1475.93
618.74	1468.23
619.08	1460.00
619.43	1452.48
619.78	1445.42
620.12	1438.15
620.47	1430.61
620.82	1422.34
621.16	1414.95
621.51	1407.47
621.85	1399.86
622.20	1391.22
622.55	1382.82
622.89	1375.14
623.24	1367.54
623.59	1360.05
623.93	1352.63
624.28	1345.40
624.62	1337.86
624.97	1330.81
625.32	1324.07
625.66	1317.00
626.01	1309.83
626.35	1302.26
626.70	1294.48
627.04	1286.74
627.39	1278.97
627.73	1271.55
628.08	1264.69
628.43	1257.36
628.77	1249.91
629.12	1242.32
629.46	1235.20
629.81	1227.77
630.15	1220.56
630.50	1213.15
630.84	1204.93
631.19	1196.87
631.53	1189.35
631.88	1181.72
632.22	1174.10
632.57	1166.63
632.91	1159.05
633.26	1151.59
633.60	1144.30
633.95	1137.28
634.29	1130.23
634.64	1123.56
634.98	1116.06
635.32	1108.93
635.67	1102.29
636.01	1095.59
636.36	1088.82
636.70	1082.39
637.05	1075.77
637.39	1069.31
637.73	1062.75
638.08	1056.92
638.42	1051.02
638.77	1044.62
639.11	1037.97
639.45	1031.57
639.80	1024.90
640.14	1018.54
640.49	1012.06
640.83	1005.76
641.17	999.47
641.52	993.28
641.86	986.95
642.20	981.24
642.55	974.92
642.89	968.48
643.23	962.06
643.58	956.19
643.92	949.95
644.26	943.92
644.61	937.89
644.95	931.91
645.29	925.36
645.64	918.54
645.98	912.22
646.32	906.52
646.66	900.52
647.01	894.77
647.35	889.08
647.69	883.23
648.04	877.71
648.38	871.85
648.72	865.74
649.06	859.65
649.41	853.78
649.75	847.76
650.09	841.77
650.43	835.97
650.78	829.87
651.12	823.92
651.46	818.21
651.80	812.47
652.14	807.06
652.49	801.61
652.83	796.49
653.17	790.74
653.51	784.93
653.85	779.53
654.20	773.86
654.54	767.90
654.88	762.25
655.22	756.34
655.56	750.71
655.90	745.28
656.25	740.06
656.59	734.66
656.93	729.57
657.27	724.45
657.61	719.02
657.95	713.95
658.29	708.86
658.64	703.62
658.98	698.31
659.32	692.85
659.66	687.66
660.00	682.29
660.34	677.34
660.68	672.45
661.02	667.42
661.36	662.76
661.70	658.16
662.05	653.72
662.39	649.39
662.73	644.96
663.07	640.60
663.41	636.13
663.75	631.63
664.09	627.13
664.43	622.78
664.77	618.70
665.11	614.40
665.45	610.35
665.79	606.21
666.13	602.01
666.47	597.94
666.81	593.77
667.15	589.71
667.49	585.83
667.83	581.99
668.17	578.04
668.51	573.96
668.85	569.93
669.19	566.10
669.53	562.23
669.87	558.33
670.21	554.68
670.55	551.06
670.89	547.65
671.23	544.20
671.57	540.62
671.91	537.03
672.25	533.61
672.58	530.11
672.92	526.77
673.26	523.67
673.60	520.52
673.94	517.44
674.28	514.56
674.62	511.64
674.96	508.55
675.30	505.63
675.64	502.71
675.97	500.00
676.31	497.18
676.65	494.24
676.99	491.54
677.33	488.67
677.67	485.84
678.01	482.77
678.34	479.78
678.68	476.92
679.02	474.12
679.36	471.33
679.70	468.58
680.04	465.83
680.37	462.96
680.71	460.15
681.05	457.52
681.39	454.79
681.73	452.11
682.06	449.66
682.40	447.11
682.74	444.61
683.08	442.08
683.42	439.45
683.75	436.95
684.09	434.41
684.43	431.97
684.77	429.47
685.10	427.18
685.44	424.89
685.78	422.68
686.12	420.49
686.45	418.18
686.79	415.91
687.13	413.71
687.46	411.58
687.80	409.46
688.14	407.28
688.48	405.21
688.81	403.01
689.15	400.83
689.49	398.71
689.82	396.66
690.16	394.58
690.50	392.65
690.83	390.70
691.17	388.74
691.51	386.81
691.84	385.01
692.18	383.06
692.52	381.07
692.85	379.10
693.19	377.21
693.52	375.40
693.86	373.56
694.20	371.82
694.53	370.01
694.87	368.17
695.21	366.39
695.54	364.59
695.88	362.84
696.21	361.12
696.55	359.47
696.88	357.79
697.22	356.15
697.56	354.54
697.89	352.92
698.23	351.30
698.56	349.70
698.90	348.09
699.23	346.45
699.57	344.92
699.90	343.40
700.24	341.87
700.58	340.36
700.91	338.89
701.25	337.41
701.58	336.03
701.92	334.66
702.25	333.25
702.59	331.86
702.92	330.56
703.26	329.27
703.59	327.95
703.93	326.74
704.26	325.47
704.60	324.13
704.93	322.85
705.26	321.60
705.60	320.42
705.93	319.25
706.27	318.21
706.60	317.16
706.94	316.06
707.27	314.91
707.61	313.84
707.94	312.77
708.27	311.68
708.61	310.58
708.94	309.58
709.28	308.58
709.61	307.65
709.94	306.70
710.28	305.65
710.61	304.69
710.95	303.61
711.28	302.73
711.61	301.84
711.95	300.96
712.28	299.98
712.61	299.01
712.95	298.05
713.28	297.14
713.61	296.25
713.95	295.40
714.28	294.55
714.61	293.69
714.95	292.85
715.28	292.01
715.61	291.12
715.95	290.27
716.28	289.45
716.61	288.59
716.95	287.74
717.28	287.00
717.61	286.21
717.94	285.45
718.28	284.63
718.61	283.87
718.94	283.15
719.27	282.48
719.61	281.83
719.94	281.20
720.27	280.49
720.60	279.84
720.94	279.21
721.27	278.61
721.60	278.03
721.93	277.47
722.27	276.91
722.60	276.33
722.93	275.78
723.26	275.23
723.59	274.71
723.93	274.15
724.26	273.58
724.59	273.04
724.92	272.53
725.25	272.05
725.59	271.50
725.92	270.98
726.25	270.50
726.58	270.01
726.91	269.52
727.24	269.09
727.57	268.60
727.91	268.08
728.24	267.64
728.57	267.14
728.90	266.66
729.23	266.17
729.56	265.76
729.89	265.27
730.22	264.78
730.55	264.27
730.89	263.87
731.22	263.45
731.55	262.98
731.88	262.54
732.21	262.09
732.54	261.69
732.87	261.28
733.20	260.90
733.53	260.49
733.86	260.13
734.19	259.71
734.52	259.34
734.85	259.03
735.18	258.59
735.51	258.24
735.84	257.88
736.17	257.54
736.50	257.16
736.83	256.94
737.16	256.62
737.49	256.31
737.82	255.95
738.15	255.64
738.48	255.32
738.81	255.03
739.14	254.71
739.47	254.37
739.80	254.07
740.13	253.76
740.46	253.42
740.79	253.07
741.12	252.72
741.45	252.41
741.78	252.07
742.11	251.79
742.44	251.42
742.77	251.10
743.10	250.80
743.43	250.46
743.75	250.07
744.08	249.96
744.41	249.67
744.74	249.41
745.07	249.15
745.40	248.95
745.73	248.70
746.06	248.44
746.39	248.18
746.71	247.92
747.04	247.64
747.37	247.44
747.70	247.21
748.03	247.02
748.36	246.77
748.68	246.53
749.01	246.29
749.34	246.10
749.67	245.91
750.00	245.71
750.33	245.59
750.65	245.40
750.98	245.05
751.31	244.83
751.64	244.62
751.97	244.44
752.29	244.19
752.62	243.93
752.95	243.74
753.28	243.55
753.60	243.32
753.93	243.15
754.26	242.96
754.59	242.72
754.91	242.51
755.24	242.32
755.57	242.12
755.90	241.98
756.22	241.79
756.55	241.62
756.88	241.42
757.20	241.19
757.53	240.97
757.86	240.75
758.19	240.65
758.51	240.48
758.84	240.24
759.17	240.06
759.49	239.90
759.82	239.78
760.15	239.68
760.47	239.51
760.80	239.35
761.13	239.19
761.45	239.03
761.78	238.87
762.11	238.71
762.43	238.58
762.76	238.39
763.08	238.26
763.41	238.06
763.74	237.94
764.06	237.78
764.39	237.66
764.71	237.54
765.04	237.36
765.37	237.22
765.69	237.10
766.02	236.97
766.34	236.86
766.67	236.70
767.00	236.56
767.32	236.50
767.65	236.44
767.97	236.35
768.30	236.25
768.62	236.15
768.95	236.06
769.27	235.93
769.60	235.86
769.92	235.72
770.25	235.62
770.57	235.52
770.90	235.41
771.22	235.31
771.55	235.23
771.87	235.14
772.20	235.05
772.52	235.02
772.85	235.06
773.17	234.98
773.50	234.86
773.82	234.75
774.15	234.60
774.47	234.44
774.80	234.34
775.12	234.24
775.45	234.17
775.77	234.09
776.09	234.03
776.42	233.95
776.74	233.90
777.07	233.84
777.39	233.74
777.72	233.65
778.04	233.56
778.36	233.49
778.69	233.43
779.01	233.36
779.33	233.24
779.66	233.07
779.98	232.99
780.31	232.96
780.63	232.92
780.95	232.86
781.28	232.81
781.60	232.70
781.92	232.67
782.25	232.58
782.57	232.51
782.89	232.41
783.22	232.35
783.54	232.30
783.86	232.25
784.19	232.19
784.51	232.17
784.83	232.13
785.16	232.07
785.48	232.01
785.80	231.95
786.12	231.87
786.45	231.80
786.77	231.77
787.09	231.71
787.42	231.61
787.74	231.58
788.06	231.51
788.38	231.52
788.71	231.47
789.03	231.44
789.35	231.41
789.67	231.39
789.99	231.36
790.32	231.29
790.64	231.25
790.96	231.31
791.28	231.25
791.61	231.17
791.93	231.14
792.25	231.07
792.57	231.12
792.89	231.08
793.21	231.06
793.54	230.99
793.86	230.94
794.18	230.94
794.50	230.89
794.82	230.86
795.14	230.80
795.47	230.79
795.79	230.72
796.11	230.69
796.43	230.68
796.75	230.63
797.07	230.61
797.39	230.58
797.71	230.44
798.04	230.43
798.36	230.45
798.68	230.42
799.00	230.44
799.32	230.34
799.64	230.36
799.96	230.34
800.28	230.36
800.60	230.35
800.92	230.32
801.24	230.29
801.56	230.29
801.89	230.28
802.21	230.22
802.53	230.24
802.85	230.18
803.17	230.20
803.49	230.17
803.81	230.11
804.13	230.05
804.45	230.03
804.77	230.00
805.09	229.94
805.41	229.89
805.73	229.82
806.05	229.78
806.37	229.72
806.69	229.68
807.01	229.61
807.33	229.60
807.65	229.55
807.97	229.57
808.28	229.52
808.60	229.48
808.92	229.48
809.24	229.48
809.56	229.51
809.88	229.42
810.20	229.40
810.52	229.42
810.84	229.41
811.16	229.40
811.48	229.34
811.80	229.39
812.12	229.38
812.43	229.38
812.75	229.36
813.07	229.34
813.39	229.32
813.71	229.29
814.03	229.22
814.35	229.23
814.67	229.17
814.98	229.14
815.30	229.14
815.62	229.08
815.94	229.04
816.26	229.03
816.58	228.99
816.89	228.97
817.21	228.92
817.53	228.89
817.85	228.88
818.17	228.91
818.48	228.86
818.80	228.86
819.12	228.81
819.44	228.80
819.76	228.77
820.07	228.75
820.39	228.75
820.71	228.75
821.03	228.72
821.34	228.69
821.66	228.71
821.98	228.69
822.30	228.67
822.61	228.67
822.93	228.63
823.25	228.64
823.57	228.60
823.88	228.60
824.20	228.59
824.52	228.60
824.83	228.58
825.15	228.53
825.47	228.50
825.79	228.51
826.10	228.48
826.42	228.49
826.74	228.48
827.05	228.47
827.37	228.43
827.69	228.43
828.00	228.46
828.32	228.44
828.64	228.40
828.95	228.48
829.27	228.42
829.58	228.39
829.90	228.39
830.22	228.39
830.53	228.37
830.85	228.35
831.17	228.30
831.48	228.30
831.80	228.31
832.11	228.29
832.43	228.31
832.75	228.31
833.06	228.33
833.38	228.31
833.69	228.30
834.01	228.30
834.32	228.26
834.64	228.20
834.96	228.19
835.27	228.20
835.59	228.15
835.90	228.15
836.22	228.17
836.53	228.13
836.85	228.13
837.16	228.22
837.48	228.19
837.79	228.21
838.11	228.17
838.42	228.16
838.74	228.15
839.05	228.13
839.37	228.12
839.68	228.07
840.00	228.08
840.31	228.06
840.63	228.08
840.94	228.05
841.26	228.04
841.57	228.02
841.88	228.00
842.20	227.95
842.51	227.90
842.83	227.86
843.14	227.91
843.46	227.89
843.77	227.82
844.08	227.82
844.40	227.77
844.71	227.73
845.03	227.68
845.34	227.67
845.65	227.63
845.97	227.58
846.28	227.56
846.60	227.53
846.91	227.50
847.22	227.47
847.54	227.52
847.85	227.52
848.16	227.50
848.48	227.51
848.79	227.54
849.10	227.55
849.42	227.56
849.73	227.51
850.04	227.50
850.36	227.44
850.67	227.46
850.98	227.49
851.30	227.52
851.61	227.51
851.92	227.46
852.23	227.48
852.55	227.47
852.86	227.48
853.17	227.44
853.49	227.48
853.80	227.48
854.11	227.45
854.42	227.42
854.74	227.40
855.05	227.34
855.36	227.26
855.67	227.27
855.99	227.27
856.30	227.34
856.61	227.33
856.92	227.36
857.23	227.36
857.55	227.31
857.86	227.30
858.17	227.31
858.48	227.30
858.79	227.26
859.11	227.32
859.42	227.28
859.73	227.31
860.04	227.25
860.35	227.21
860.66	227.16
860.98	227.17
861.29	227.18
861.60	227.20
861.91	227.26
862.22	227.23
862.53	227.17
862.84	227.07
863.16	227.10
863.47	227.08
863.78	227.04
864.09	227.08
864.40	227.06
864.71	227.10
865.02	227.15
865.33	227.14
865.64	227.09
865.95	227.12
866.27	227.15
866.58	227.19
866.89	227.21
867.20	227.24
867.51	227.25
867.82	227.26
868.13	227.30
868.44	227.29
868.75	227.31
869.06	227.35
869.37	227.36
869.68	227.31
869.99	227.34
870.30	227.34
870.61	227.38
870.92	227.40
871.23	227.37
871.54	227.36
871.85	227.40
872.16	227.43
872.47	227.42
872.78	227.39
873.09	227.42
873.40	227.41
873.71	227.41
874.02	227.43
874.33	227.42
874.64	227.40
874.95	227.40
875.26	227.38
875.56	227.39
875.87	227.38
876.18	227.40
876.49	227.49
876.80	227.49
877.11	227.43
877.42	227.43
877.73	227.45
878.04	227.47
878.35	227.45
878.66	227.44
878.96	227.41
879.27	227.42
879.58	227.39
879.89	227.37
880.20	227.39
880.51	227.37
880.82	227.38
881.12	227.37
881.43	227.33
881.74	227.31
882.05	227.30
882.36	227.29
882.67	227.29
882.97	227.19
883.28	227.16
883.59	227.16
883.90	227.13
884.21	227.14
884.51	227.08
884.82	227.06
885.13	227.05
885.44	227.06
885.74	227.06
886.05	227.06
886.36	227.06
886.67	227.04
886.98	227.09
887.28	227.10
887.59	227.08
887.90	227.10
888.20	227.09
888.51	227.07
888.82	227.09
889.13	227.07
889.43	227.11
889.74	227.14
890.05	227.12
890.35	227.12
890.66	227.10
890.97	227.12
891.28	227.11
891.58	227.12
891.89	227.12
892.20	227.08
892.50	227.07
892.81	227.05
893.12	227.04
893.42	226.99
893.73	226.96
894.04	226.98
894.34	226.99
894.65	227.02
894.95	227.03
895.26	227.00
895.57	227.03
895.87	226.96
896.18	226.97
896.48	227.00
896.79	227.02
897.10	226.99
897.40	227.02
897.71	227.02
898.01	227.02
898.32	227.05
898.63	227.04
898.93	227.04
899.24	227.05
899.54	227.04
899.85	227.07
900.15	227.08
900.46	227.07
900.76	227.08
901.07	227.04
901.38	227.03
901.68	227.07
901.99	227.06
902.29	227.10
902.60	227.11
902.90	227.11
903.21	227.09
903.51	227.11
903.82	227.11
904.12	227.12
904.43	227.14
904.73	227.11
905.03	227.14
905.34	227.20
905.64	227.20
905.95	227.22
906.25	227.19
906.56	227.17
906.86	227.16
907.17	227.15
907.47	227.17
907.77	227.17
908.08	227.16
908.38	227.16
908.69	227.13
908.99	227.10
909.30	227.10
909.60	227.11
909.90	227.11
910.21	227.11
910.51	227.09
910.81	227.06
911.12	227.07
911.42	227.09
911.73	227.03
912.03	227.02
912.33	227.04
912.64	227.02
912.94	227.01
913.24	227.01
913.55	226.99
913.85	227.02
914.15	227.03
914.46	227.06
914.76	227.03
915.06	227.01
915.37	227.04
915.67	227.02
915.97	227.05
916.27	227.03
916.58	227.05
916.88	227.08
917.18	227.09
917.49	227.15
917.79	227.12
918.09	227.12
918.39	227.16
918.70	227.12
919.00	227.15
919.30	227.22
919.60	227.25
919.91	227.24
920.21	227.20
920.51	227.19
920.81	227.17
921.12	227.18
921.42	227.20
921.72	227.15
922.02	227.17
922.32	227.12
922.63	227.12
922.93	227.12
923.23	227.07
923.53	227.08
923.83	226.99
924.13	226.99
924.44	227.00
924.74	227.01
925.04	227.05
925.34	227.04
925.64	226.99
925.94	226.96
926.24	226.99
926.55	226.98
926.85	226.97
927.15	226.94
927.45	226.95
927.75	226.95
928.05	226.99
928.35	226.97
928.65	227.00
928.95	227.04
929.26	227.02
929.56	227.04
929.86	227.03
930.16	227.01
930.46	227.00
930.76	227.01
931.06	226.96
931.36	226.95
931.66	226.95
931.96	226.96
932.26	226.97
932.56	226.94
932.86	226.97
933.16	226.99
933.46	227.00
933.76	227.01
934.06	227.01
934.36	227.01
934.66	227.01
934.96	227.01
935.26	227.00
935.56	226.98
935.86	227.01
936.16	227.01
936.46	227.03
936.76	227.02
937.06	227.01
937.36	227.03
937.66	227.00
937.96	226.98
938.26	226.96
938.56	226.97
938.86	226.97
939.16	226.97
939.46	226.98
939.76	227.00
940.06	226.96
940.35	226.94
940.65	226.93
940.95	226.93
941.25	226.92
941.55	226.89
941.85	226.91
942.15	226.92
942.45	226.92
942.75	226.92
943.04	226.94
943.34	226.95
943.64	226.94
943.94	226.92
944.24	226.96
944.54	226.95
944.84	226.91
945.13	226.89
945.43	226.89
945.73	226.88
946.03	226.88
946.33	226.87
946.62	226.86
946.92	226.87
947.22	226.87
947.52	226.88
947.82	226.88
948.11	226.87
948.41	226.85
948.71	226.83
949.01	226.86
949.31	226.85
949.60	226.83
949.90	226.83
950.20	226.84
950.50	226.83
950.79	226.83
951.09	226.88
951.39	226.88
951.69	226.89
951.98	226.92
952.28	226.91
952.58	226.91
952.87	226.92
953.17	226.91
953.47	226.89
953.76	226.86
954.06	226.85
954.36	226.83
954.66	226.80
954.95	226.82
955.25	226.81
955.55	226.80
955.84	226.83
956.14	226.82
956.44	226.83
956.73	226.79
957.03	226.79
957.32	226.78
957.62	226.76
957.92	226.77
958.21	226.72
958.51	226.81
958.81	226.80
959.10	226.81
959.40	226.85
959.69	226.86
959.99	226.85
960.29	226.84
960.58	226.84
960.88	226.90
961.17	226.89
961.47	226.87
961.76	226.89
962.06	226.88
962.36	226.87
962.65	226.90
962.95	226.91
963.24	226.91
963.54	226.94
963.83	226.95
964.13	226.97
964.42	226.98
964.72	226.90
965.01	226.93
965.31	226.90
965.60	226.87
965.90	226.91
966.19	226.92
966.49	226.92
966.78	226.94
967.08	226.92
967.37	226.94
967.67	226.92
967.96	226.92
968.26	226.91
968.55	226.92
968.85	226.90
969.14	226.92
969.43	226.94
969.73	226.94
970.02	226.96
970.32	226.90
970.61	226.91
970.91	226.90
971.20	226.86
971.49	226.84
971.79	226.86
972.08	226.83
972.38	226.85
972.67	226.86
972.96	226.87
973.26	226.84
973.55	226.87
973.85	226.87
974.14	226.87
974.43	226.85
974.73	226.84
975.02	226.84
975.31	226.82
975.61	226.81
975.90	226.76
976.19	226.73
976.49	226.75
976.78	226.72
977.07	226.76
977.37	226.78
977.66	226.81
977.95	226.76
978.24	226.75
978.54	226.75
978.83	226.73
979.12	226.70
979.42	226.71
979.71	226.68
980.00	226.70
980.29	226.72
980.59	226.74
980.88	226.80
981.17	226.80
981.46	226.81
981.76	226.81
982.05	226.86
982.34	226.91
982.63	226.88
982.93	226.90
983.22	226.88
983.51	226.87
983.80	226.89
984.09	226.92
984.39	226.92
984.68	226.91
984.97	226.95
985.26	226.96
985.55	226.95
985.85	226.94
986.14	226.94
986.43	226.94
986.72	226.93
987.01	226.89
987.30	226.88
987.59	226.89
987.89	226.91
988.18	226.87
988.47	226.82
988.76	226.84
989.05	226.83
989.34	226.82
989.63	226.86
989.92	226.84
990.22	226.83
990.51	226.85
990.80	226.85
991.09	226.85
991.38	226.85
991.67	226.87
991.96	226.86
992.25	226.87
992.54	226.83
992.83	226.82
993.12	226.78
993.41	226.79
993.70	226.79
993.99	226.78
994.28	226.80
994.58	226.84
994.87	226.82
995.16	226.80
995.45	226.80
995.74	226.76
996.03	226.77
996.32	226.81
996.61	226.81
996.90	226.79
997.19	226.76
997.48	226.76
997.77	226.74
998.06	226.77
998.34	226.74
998.63	226.74
998.92	226.76
999.21	226.80
999.50	226.82
999.79	226.79
1000.08	226.81
1000.37	226.79
1000.66	226.79
1000.95	226.82
1001.24	226.86
1001.53	226.90
1001.82	226.91
1002.11	226.90
1002.40	226.87
1002.68	226.90
1002.97	226.99
1003.26	227.00
1003.55	227.02
1003.84	227.03
1004.13	227.07
1004.42	227.10
1004.71	227.15
1004.99	227.13
1005.28	227.16
1005.57	227.11
1005.86	227.13
1006.15	227.09
1006.44	227.14
1006.72	227.16
1007.01	227.15
1007.30	227.17
1007.59	227.12
1007.88	227.12
1008.17	227.11
1008.45	227.13
1008.74	227.08
1009.03	227.04
1009.32	227.03
1009.60	227.03
1009.89	227.05
1010.18	227.02
1010.47	227.03
1010.76	227.03
1011.04	227.05
1011.33	227.05
1011.62	227.09
1011.91	227.10
1012.19	227.15
1012.48	227.13
1012.77	227.11
1013.05	227.16
1013.34	227.14
1013.63	227.15
1013.92	227.19
1014.20	227.21
1014.49	227.21
1014.78	227.24
1015.06	227.18
1015.35	227.22
1015.64	227.20
1015.92	227.21
1016.21	227.19
1016.50	227.15
1016.78	227.15
1017.07	227.16
1017.36	227.14
1017.64	227.14
1017.93	227.15
1018.22	227.14
1018.50	227.12
1018.79	227.12
1019.08	227.09
1019.36	227.12
1019.65	227.12
1019.93	227.14
1020.22	227.15
1020.51	227.18
1020.79	227.15
1021.08	227.34
1021.36	226.77
1021.65	226.94
1021.94	227.38
1022.22	227.47
1022.51	226.97
1022.79	227.80
1023.08	227.37
1023.36	227.91
1023.65	226.63
>>>>>End Processed Spectral Data<<<<<
