SpectraSuite Data File
++++++++++++++++++++++++++++++++++++
Date: Fri Feb 01 16:05:17 EST 2013
User: group
Dark Spectrum Present: No
Reference Spectrum Present: No
Number of Sampled Component Spectra: 1
Spectrometers: USB2E7196
Integration Time (usec): 35000 (USB2E7196)
Spectra Averaged: 100 (USB2E7196)
Boxcar Smoothing: 10 (USB2E7196)
Correct for Electrical Dark: No (USB2E7196)
Strobe/Lamp Enabled: No (USB2E7196)
Correct for Detector Non-linearity: No (USB2E7196)
Correct for Stray Light: No (USB2E7196)
Number of Pixels in Processed Spectrum: 2048
>>>>>Begin Processed Spectral Data<<<<<
339.09	0.00
339.48	215.03
339.86	216.62
340.24	217.70
340.63	218.91
341.01	221.38
341.39	221.45
341.78	223.10
342.16	224.36
342.54	224.95
342.93	213.17
343.31	223.94
343.69	224.47
344.07	224.93
344.46	225.36
344.84	225.74
345.22	226.00
345.60	226.28
345.99	226.47
346.37	226.58
346.75	226.65
347.13	226.74
347.52	226.80
347.90	226.84
348.28	226.90
348.66	226.91
349.05	226.92
349.43	226.96
349.81	227.03
350.19	227.05
350.57	227.09
350.96	227.15
351.34	227.22
351.72	227.28
352.10	227.40
352.48	227.45
352.87	227.49
353.25	227.57
353.63	227.62
354.01	227.67
354.39	227.76
354.77	227.88
355.15	227.96
355.54	228.02
355.92	228.10
356.30	228.17
356.68	228.32
357.06	228.37
357.44	228.42
357.82	228.45
358.20	228.55
358.58	228.61
358.97	228.64
359.35	228.73
359.73	228.82
360.11	228.84
360.49	228.88
360.87	228.96
361.25	229.03
361.63	229.09
362.01	229.11
362.39	229.10
362.77	229.12
363.15	229.13
363.53	229.18
363.91	229.16
364.29	229.15
364.67	229.04
365.05	229.08
365.43	229.13
365.81	229.13
366.19	229.13
366.57	229.15
366.95	229.16
367.33	229.09
367.71	229.08
368.09	229.07
368.47	229.06
368.85	229.00
369.23	228.93
369.61	228.86
369.99	228.87
370.37	228.88
370.75	228.87
371.13	228.82
371.51	228.75
371.89	228.71
372.27	228.70
372.65	228.69
373.03	228.60
373.41	228.51
373.78	228.46
374.16	228.39
374.54	228.31
374.92	228.22
375.30	228.18
375.68	228.10
376.06	228.02
376.44	227.96
376.82	227.91
377.19	227.85
377.57	227.82
377.95	227.70
378.33	227.63
378.71	227.50
379.09	227.45
379.47	227.41
379.84	227.31
380.22	227.22
380.60	227.12
380.98	227.08
381.36	227.00
381.73	226.92
382.11	226.86
382.49	226.85
382.87	226.81
383.25	226.72
383.62	226.77
384.00	226.71
384.38	226.65
384.76	226.61
385.13	226.62
385.51	226.56
385.89	226.54
386.27	226.45
386.64	226.42
387.02	226.37
387.40	226.30
387.78	226.28
388.15	226.24
388.53	226.19
388.91	226.15
389.29	226.13
389.66	226.13
390.04	226.11
390.42	226.06
390.79	226.02
391.17	226.04
391.55	225.93
391.92	225.93
392.30	225.96
392.68	225.94
393.05	225.92
393.43	225.94
393.81	225.94
394.18	225.99
394.56	226.01
394.94	226.05
395.31	226.09
395.69	226.18
396.06	226.23
396.44	226.28
396.82	226.30
397.19	226.39
397.57	226.45
397.95	226.51
398.32	226.56
398.70	226.66
399.07	226.73
399.45	226.78
399.82	226.85
400.20	226.90
400.58	226.99
400.95	227.02
401.33	227.12
401.70	227.26
402.08	227.33
402.45	227.43
402.83	227.55
403.20	227.65
403.58	227.72
403.95	227.87
404.33	228.00
404.71	228.16
405.08	228.34
405.46	228.42
405.83	228.55
406.21	228.67
406.58	228.82
406.96	229.01
407.33	229.19
407.70	229.43
408.08	229.69
408.45	229.86
408.83	230.12
409.20	230.31
409.58	230.52
409.95	230.81
410.33	231.08
410.70	231.32
411.08	231.59
411.45	231.92
411.82	232.21
412.20	232.59
412.57	233.01
412.95	233.30
413.32	233.73
413.69	234.12
414.07	234.59
414.44	235.03
414.82	235.47
415.19	236.04
415.56	236.51
415.94	237.08
416.31	237.75
416.68	238.39
417.06	239.08
417.43	239.75
417.81	240.52
418.18	241.28
418.55	242.13
418.93	243.01
419.30	243.90
419.67	244.84
420.04	245.78
420.42	246.73
420.79	247.88
421.16	249.03
421.54	250.24
421.91	251.43
422.28	252.68
422.66	254.00
423.03	255.30
423.40	256.64
423.77	258.03
424.15	259.42
424.52	260.88
424.89	262.53
425.26	264.08
425.64	265.50
426.01	267.11
426.38	268.75
426.75	270.40
427.13	272.13
427.50	273.94
427.87	275.81
428.24	277.69
428.61	279.48
428.99	281.40
429.36	283.50
429.73	285.59
430.10	287.64
430.47	289.72
430.85	291.87
431.22	294.11
431.59	296.52
431.96	298.79
432.33	301.29
432.70	303.68
433.08	306.51
433.45	309.12
433.82	311.71
434.19	314.65
434.56	317.46
434.93	320.09
435.30	322.72
435.68	325.61
436.05	328.42
436.42	331.20
436.79	333.73
437.16	336.40
437.53	339.20
437.90	342.02
438.27	344.76
438.64	347.57
439.01	350.19
439.38	352.41
439.75	354.58
440.13	357.06
440.50	359.34
440.87	361.18
441.24	363.16
441.61	365.31
441.98	366.77
442.35	368.60
442.72	370.45
443.09	372.24
443.46	373.23
443.83	373.82
444.20	374.31
444.57	375.15
444.94	375.44
445.31	375.84
445.68	376.16
446.05	376.22
446.42	375.80
446.79	375.38
447.16	374.93
447.53	374.59
447.90	373.42
448.27	372.27
448.64	370.67
449.01	369.54
449.37	367.58
449.74	365.68
450.11	363.42
450.48	360.96
450.85	358.45
451.22	356.28
451.59	354.27
451.96	352.36
452.33	349.71
452.70	347.36
453.07	344.49
453.43	341.61
453.80	338.83
454.17	336.20
454.54	333.65
454.91	330.95
455.28	328.26
455.65	325.78
456.02	323.33
456.38	321.18
456.75	318.53
457.12	316.29
457.49	314.04
457.86	311.92
458.23	310.08
458.59	308.03
458.96	305.97
459.33	304.09
459.70	302.22
460.07	300.76
460.43	299.05
460.80	297.38
461.17	295.92
461.54	294.44
461.91	293.01
462.27	291.56
462.64	290.28
463.01	288.95
463.38	287.66
463.74	286.35
464.11	285.20
464.48	284.14
464.85	283.05
465.21	282.19
465.58	281.23
465.95	280.14
466.32	279.22
466.68	278.30
467.05	277.40
467.42	276.54
467.78	275.58
468.15	274.73
468.52	274.13
468.88	273.30
469.25	272.50
469.62	271.85
469.98	271.17
470.35	270.49
470.72	269.87
471.08	269.20
471.45	268.61
471.82	268.06
472.18	267.44
472.55	266.99
472.92	266.44
473.28	265.97
473.65	265.47
474.02	265.03
474.38	264.64
474.75	264.32
475.11	263.92
475.48	263.69
475.85	263.43
476.21	263.16
476.58	262.96
476.94	262.84
477.31	262.63
477.67	262.46
478.04	262.40
478.41	262.35
478.77	262.40
479.14	262.34
479.50	262.34
479.87	262.43
480.23	262.49
480.60	262.60
480.96	262.66
481.33	262.91
481.69	263.12
482.06	263.39
482.42	263.62
482.79	263.90
483.15	264.19
483.52	264.59
483.88	264.94
484.25	265.34
484.61	265.79
484.98	266.28
485.34	266.86
485.71	267.45
486.07	268.08
486.44	268.63
486.80	269.36
487.17	270.05
487.53	270.85
487.90	271.72
488.26	272.66
488.62	273.64
488.99	274.60
489.35	275.63
489.72	276.75
490.08	277.94
490.44	279.20
490.81	280.55
491.17	281.91
491.54	283.44
491.90	284.98
492.26	286.59
492.63	288.36
492.99	290.17
493.36	292.08
493.72	294.16
494.08	296.36
494.45	298.59
494.81	301.06
495.17	303.54
495.54	306.15
495.90	308.82
496.26	311.64
496.63	314.66
496.99	317.80
497.35	321.04
497.72	324.45
498.08	327.94
498.44	331.64
498.80	335.61
499.17	339.61
499.53	343.81
499.89	348.23
500.26	352.73
500.62	357.36
500.98	362.32
501.34	367.36
501.71	372.60
502.07	378.08
502.43	383.63
502.79	389.44
503.16	395.50
503.52	401.79
503.88	408.20
504.24	414.79
504.60	421.69
504.97	428.86
505.33	436.17
505.69	444.02
506.05	451.75
506.41	459.58
506.78	467.78
507.14	476.24
507.50	484.97
507.86	494.02
508.22	503.32
508.59	512.59
508.95	522.22
509.31	532.03
509.67	542.10
510.03	552.54
510.39	563.09
510.75	573.88
511.12	584.84
511.48	596.19
511.84	607.68
512.20	619.24
512.56	631.22
512.92	643.45
513.28	655.70
513.64	668.23
514.00	680.93
514.37	693.82
514.73	706.85
515.09	719.93
515.45	733.19
515.81	746.73
516.17	760.68
516.53	774.83
516.89	789.06
517.25	803.25
517.61	817.59
517.97	832.10
518.33	846.53
518.69	861.36
519.05	876.28
519.41	891.44
519.77	906.91
520.13	922.33
520.49	937.72
520.85	953.12
521.21	968.81
521.57	985.11
521.93	1000.92
522.29	1017.32
522.65	1033.48
523.01	1049.71
523.37	1065.73
523.73	1081.93
524.09	1097.96
524.45	1114.26
524.81	1130.76
525.17	1147.54
525.53	1164.34
525.89	1181.19
526.25	1197.92
526.61	1214.40
526.97	1231.16
527.33	1247.65
527.68	1264.23
528.04	1280.67
528.40	1297.19
528.76	1314.15
529.12	1330.70
529.48	1347.41
529.84	1363.36
530.20	1380.01
530.56	1396.95
530.91	1414.34
531.27	1431.04
531.63	1447.41
531.99	1464.01
532.35	1480.04
532.71	1495.89
533.07	1512.09
533.42	1527.88
533.78	1543.92
534.14	1560.05
534.50	1575.35
534.86	1591.20
535.21	1606.26
535.57	1622.13
535.93	1637.61
536.29	1652.43
536.65	1667.44
537.00	1682.31
537.36	1697.56
537.72	1711.96
538.08	1726.32
538.44	1739.94
538.79	1753.63
539.15	1767.35
539.51	1781.07
539.87	1795.48
540.22	1809.15
540.58	1822.84
540.94	1836.26
541.29	1849.09
541.65	1861.73
542.01	1874.78
542.37	1887.01
542.72	1899.42
543.08	1911.17
543.44	1923.54
543.79	1934.71
544.15	1945.69
544.51	1957.27
544.87	1968.18
545.22	1978.93
545.58	1989.17
545.94	1998.90
546.29	2008.88
546.65	2018.63
547.01	2027.93
547.36	2036.49
547.72	2045.00
548.07	2052.96
548.43	2061.00
548.79	2068.92
549.14	2076.55
549.50	2083.99
549.86	2091.66
550.21	2098.91
550.57	2106.09
550.92	2112.68
551.28	2119.75
551.64	2126.77
551.99	2133.24
552.35	2139.42
552.70	2145.53
553.06	2151.49
553.41	2157.96
553.77	2163.87
554.13	2169.94
554.48	2175.93
554.84	2181.41
555.19	2186.63
555.55	2191.67
555.90	2196.17
556.26	2201.27
556.61	2205.92
556.97	2210.20
557.32	2214.32
557.68	2218.59
558.03	2222.90
558.39	2226.55
558.74	2231.13
559.10	2234.87
559.45	2238.45
559.81	2242.77
560.16	2246.67
560.52	2249.91
560.87	2253.28
561.23	2256.03
561.58	2258.97
561.94	2261.48
562.29	2263.84
562.64	2266.54
563.00	2269.23
563.35	2272.69
563.71	2275.71
564.06	2278.89
564.42	2281.72
564.77	2284.18
565.12	2286.44
565.48	2288.32
565.83	2290.36
566.19	2291.73
566.54	2292.69
566.89	2293.97
567.25	2294.63
567.60	2295.93
567.96	2297.70
568.31	2298.54
568.66	2299.75
569.02	2300.37
569.37	2300.75
569.72	2301.62
570.08	2301.90
570.43	2301.89
570.78	2301.34
571.14	2299.86
571.49	2298.53
571.84	2298.17
572.20	2297.02
572.55	2295.99
572.90	2294.45
573.26	2293.01
573.61	2291.27
573.96	2289.65
574.31	2286.81
574.67	2283.76
575.02	2280.14
575.37	2276.66
575.72	2272.89
576.08	2269.46
576.43	2266.10
576.78	2262.33
577.13	2259.16
577.49	2255.76
577.84	2252.38
578.19	2248.70
578.54	2245.02
578.90	2240.76
579.25	2235.29
579.60	2230.57
579.95	2225.58
580.30	2220.45
580.66	2215.17
581.01	2210.17
581.36	2205.26
581.71	2201.00
582.06	2196.78
582.42	2192.37
582.77	2187.21
583.12	2182.71
583.47	2178.16
583.82	2173.25
584.17	2168.14
584.53	2162.64
584.88	2157.19
585.23	2151.47
585.58	2145.97
585.93	2140.52
586.28	2135.89
586.63	2130.78
586.98	2125.73
587.34	2120.98
587.69	2116.20
588.04	2110.96
588.39	2105.51
588.74	2098.93
589.09	2092.74
589.44	2085.82
589.79	2079.80
590.14	2074.06
590.49	2067.39
590.84	2060.80
591.19	2054.71
591.54	2048.18
591.89	2040.93
592.25	2034.09
592.60	2026.95
592.95	2019.54
593.30	2012.21
593.65	2004.50
594.00	1997.51
594.35	1990.23
594.70	1982.19
595.05	1975.11
595.40	1968.05
595.75	1960.53
596.10	1954.45
596.45	1947.70
596.80	1941.52
597.15	1934.91
597.50	1927.99
597.85	1921.61
598.19	1915.05
598.54	1908.05
598.89	1901.47
599.24	1895.56
599.59	1888.96
599.94	1882.55
600.29	1876.09
600.64	1869.45
600.99	1862.03
601.34	1855.20
601.69	1848.13
602.04	1841.23
602.39	1833.86
602.74	1826.93
603.08	1820.15
603.43	1813.44
603.78	1806.17
604.13	1799.06
604.48	1791.79
604.83	1784.87
605.18	1778.01
605.53	1770.06
605.87	1762.06
606.22	1754.77
606.57	1746.86
606.92	1739.50
607.27	1732.52
607.62	1725.66
607.96	1718.58
608.31	1712.08
608.66	1704.44
609.01	1696.92
609.36	1689.47
609.70	1681.40
610.05	1673.45
610.40	1665.75
610.75	1657.31
611.10	1649.67
611.44	1641.17
611.79	1633.13
612.14	1624.51
612.49	1615.35
612.83	1606.96
613.18	1598.86
613.53	1590.76
613.88	1582.16
614.22	1573.89
614.57	1565.12
614.92	1557.11
615.27	1549.45
615.61	1540.96
615.96	1533.03
616.31	1525.42
616.65	1517.95
617.00	1510.39
617.35	1502.66
617.70	1494.30
618.04	1485.92
618.39	1477.61
618.74	1470.00
619.08	1461.73
619.43	1454.11
619.78	1447.07
620.12	1439.86
620.47	1432.30
620.82	1424.12
621.16	1416.70
621.51	1409.15
621.85	1401.56
622.20	1393.06
622.55	1384.65
622.89	1376.79
623.24	1369.10
623.59	1361.73
623.93	1354.18
624.28	1346.87
624.62	1339.25
624.97	1332.14
625.32	1325.29
625.66	1318.24
626.01	1311.14
626.35	1303.78
626.70	1295.94
627.04	1288.29
627.39	1280.55
627.73	1273.04
628.08	1266.22
628.43	1259.00
628.77	1251.56
629.12	1244.01
629.46	1236.84
629.81	1229.36
630.15	1222.29
630.50	1214.89
630.84	1206.62
631.19	1198.79
631.53	1191.34
631.88	1183.76
632.22	1175.99
632.57	1168.70
632.91	1161.16
633.26	1153.56
633.60	1146.12
633.95	1139.01
634.29	1131.98
634.64	1125.22
634.98	1117.88
635.32	1110.76
635.67	1104.07
636.01	1097.44
636.36	1090.65
636.70	1083.94
637.05	1077.37
637.39	1070.87
637.73	1064.35
638.08	1058.48
638.42	1052.48
638.77	1046.05
639.11	1039.55
639.45	1033.35
639.80	1026.66
640.14	1020.36
640.49	1013.92
640.83	1007.58
641.17	1001.40
641.52	995.02
641.86	988.56
642.20	982.78
642.55	976.36
642.89	969.93
643.23	963.35
643.58	957.60
643.92	951.53
644.26	945.50
644.61	939.51
644.95	933.47
645.29	926.90
645.64	920.04
645.98	913.73
646.32	907.85
646.66	901.70
647.01	895.90
647.35	890.10
647.69	884.31
648.04	878.82
648.38	873.00
648.72	866.98
649.06	860.97
649.41	855.02
649.75	849.08
650.09	843.14
650.43	837.32
650.78	831.11
651.12	825.17
651.46	819.50
651.80	813.72
652.14	808.37
652.49	802.97
652.83	797.81
653.17	792.05
653.51	786.31
653.85	780.89
654.20	775.28
654.54	769.26
654.88	763.34
655.22	757.40
655.56	751.69
655.90	746.31
656.25	741.02
656.59	735.66
656.93	730.52
657.27	725.30
657.61	719.90
657.95	714.80
658.29	709.67
658.64	704.31
658.98	698.97
659.32	693.48
659.66	688.30
660.00	683.01
660.34	678.07
660.68	673.13
661.02	668.17
661.36	663.46
661.70	658.92
662.05	654.65
662.39	650.34
662.73	645.87
663.07	641.46
663.41	636.99
663.75	632.49
664.09	627.96
664.43	623.61
664.77	619.50
665.11	615.23
665.45	611.06
665.79	607.05
666.13	602.90
666.47	598.80
666.81	594.62
667.15	590.46
667.49	586.57
667.83	582.73
668.17	578.69
668.51	574.60
668.85	570.60
669.19	566.75
669.53	562.84
669.87	558.98
670.21	555.32
670.55	551.73
670.89	548.27
671.23	544.82
671.57	541.22
671.91	537.65
672.25	534.20
672.58	530.73
672.92	527.32
673.26	524.08
673.60	520.87
673.94	517.82
674.28	514.91
674.62	511.93
674.96	508.86
675.30	505.97
675.64	503.03
675.97	500.22
676.31	497.38
676.65	494.52
676.99	491.86
677.33	488.89
677.67	486.01
678.01	482.98
678.34	480.03
678.68	477.22
679.02	474.45
679.36	471.64
679.70	468.90
680.04	466.13
680.37	463.29
680.71	460.52
681.05	457.88
681.39	455.21
681.73	452.53
682.06	450.05
682.40	447.55
682.74	445.04
683.08	442.47
683.42	439.82
683.75	437.24
684.09	434.63
684.43	432.20
684.77	429.73
685.10	427.37
685.44	425.03
685.78	422.74
686.12	420.41
686.45	418.09
686.79	415.83
687.13	413.67
687.46	411.57
687.80	409.38
688.14	407.11
688.48	405.02
688.81	402.83
689.15	400.62
689.49	398.48
689.82	396.32
690.16	394.26
690.50	392.36
690.83	390.51
691.17	388.49
691.51	386.64
691.84	384.82
692.18	382.92
692.52	380.96
692.85	378.99
693.19	377.18
693.52	375.38
693.86	373.53
694.20	371.68
694.53	369.86
694.87	368.05
695.21	366.31
695.54	364.49
695.88	362.71
696.21	360.99
696.55	359.32
696.88	357.66
697.22	355.99
697.56	354.34
697.89	352.65
698.23	351.07
698.56	349.43
698.90	347.84
699.23	346.18
699.57	344.62
699.90	343.12
700.24	341.56
700.58	340.07
700.91	338.57
701.25	337.12
701.58	335.72
701.92	334.36
702.25	332.95
702.59	331.57
702.92	330.26
703.26	328.94
703.59	327.62
703.93	326.49
704.26	325.26
704.60	324.00
704.93	322.74
705.26	321.47
705.60	320.22
705.93	319.05
706.27	318.01
706.60	316.97
706.94	315.89
707.27	314.73
707.61	313.64
707.94	312.63
708.27	311.56
708.61	310.50
708.94	309.46
709.28	308.50
709.61	307.56
709.94	306.61
710.28	305.57
710.61	304.61
710.95	303.50
711.28	302.58
711.61	301.63
711.95	300.73
712.28	299.81
712.61	298.89
712.95	297.92
713.28	297.03
713.61	296.14
713.95	295.25
714.28	294.45
714.61	293.59
714.95	292.76
715.28	291.90
715.61	291.04
715.95	290.19
716.28	289.29
716.61	288.44
716.95	287.60
717.28	286.90
717.61	286.10
717.94	285.34
718.28	284.53
718.61	283.75
718.94	283.00
719.27	282.33
719.61	281.68
719.94	281.04
720.27	280.32
720.60	279.63
720.94	279.00
721.27	278.35
721.60	277.75
721.93	277.12
722.27	276.55
722.60	275.99
722.93	275.46
723.26	274.98
723.59	274.40
723.93	273.84
724.26	273.26
724.59	272.71
724.92	272.19
725.25	271.71
725.59	271.21
725.92	270.75
726.25	270.25
726.58	269.75
726.91	269.25
727.24	268.79
727.57	268.32
727.91	267.80
728.24	267.33
728.57	266.85
728.90	266.40
729.23	265.93
729.56	265.48
729.89	264.98
730.22	264.47
730.55	264.01
730.89	263.59
731.22	263.15
731.55	262.72
731.88	262.34
732.21	261.90
732.54	261.49
732.87	261.05
733.20	260.66
733.53	260.25
733.86	259.86
734.19	259.50
734.52	259.15
734.85	258.87
735.18	258.45
735.51	258.09
735.84	257.71
736.17	257.38
736.50	257.02
736.83	256.79
737.16	256.51
737.49	256.20
737.82	255.85
738.15	255.51
738.48	255.20
738.81	254.84
739.14	254.56
739.47	254.23
739.80	253.93
740.13	253.64
740.46	253.31
740.79	252.99
741.12	252.68
741.45	252.35
741.78	251.98
742.11	251.72
742.44	251.42
742.77	251.14
743.10	250.83
743.43	250.51
743.75	250.12
744.08	249.94
744.41	249.67
744.74	249.42
745.07	249.15
745.40	248.88
745.73	248.67
746.06	248.35
746.39	248.08
746.71	247.79
747.04	247.51
747.37	247.26
747.70	247.05
748.03	246.78
748.36	246.59
748.68	246.39
749.01	246.13
749.34	245.91
749.67	245.72
750.00	245.47
750.33	245.30
750.65	245.06
750.98	244.70
751.31	244.48
751.64	244.26
751.97	244.11
752.29	243.90
752.62	243.65
752.95	243.47
753.28	243.27
753.60	243.05
753.93	242.87
754.26	242.72
754.59	242.48
754.91	242.27
755.24	242.05
755.57	241.84
755.90	241.65
756.22	241.44
756.55	241.20
756.88	241.04
757.20	240.82
757.53	240.65
757.86	240.50
758.19	240.30
758.51	240.11
758.84	239.91
759.17	239.74
759.49	239.54
759.82	239.40
760.15	239.24
760.47	239.10
760.80	238.91
761.13	238.76
761.45	238.59
761.78	238.45
762.11	238.31
762.43	238.12
762.76	238.02
763.08	237.90
763.41	237.78
763.74	237.63
764.06	237.50
764.39	237.36
764.71	237.22
765.04	237.04
765.37	236.92
765.69	236.75
766.02	236.62
766.34	236.49
766.67	236.36
767.00	236.25
767.32	236.18
767.65	236.13
767.97	236.03
768.30	235.94
768.62	235.82
768.95	235.69
769.27	235.57
769.60	235.43
769.92	235.30
770.25	235.21
770.57	235.07
770.90	234.95
771.22	234.85
771.55	234.76
771.87	234.70
772.20	234.60
772.52	234.58
772.85	234.59
773.17	234.52
773.50	234.42
773.82	234.32
774.15	234.18
774.47	234.03
774.80	233.87
775.12	233.78
775.45	233.67
775.77	233.60
776.09	233.58
776.42	233.52
776.74	233.42
777.07	233.30
777.39	233.23
777.72	233.15
778.04	233.09
778.36	233.00
778.69	232.96
779.01	232.91
779.33	232.75
779.66	232.58
779.98	232.50
780.31	232.44
780.63	232.43
780.95	232.41
781.28	232.37
781.60	232.33
781.92	232.27
782.25	232.21
782.57	232.14
782.89	232.04
783.22	231.96
783.54	231.93
783.86	231.90
784.19	231.87
784.51	231.87
784.83	231.80
785.16	231.75
785.48	231.71
785.80	231.67
786.12	231.65
786.45	231.61
786.77	231.58
787.09	231.56
787.42	231.44
787.74	231.39
788.06	231.31
788.38	231.28
788.71	231.25
789.03	231.26
789.35	231.23
789.67	231.18
789.99	231.15
790.32	231.09
790.64	231.06
790.96	231.06
791.28	230.98
791.61	230.94
791.93	230.94
792.25	230.87
792.57	230.89
792.89	230.87
793.21	230.85
793.54	230.82
793.86	230.75
794.18	230.75
794.50	230.70
794.82	230.69
795.14	230.67
795.47	230.63
795.79	230.56
796.11	230.49
796.43	230.48
796.75	230.48
797.07	230.45
797.39	230.40
797.71	230.34
798.04	230.31
798.36	230.31
798.68	230.23
799.00	230.20
799.32	230.11
799.64	230.07
799.96	230.04
800.28	230.04
800.60	230.02
800.92	230.00
801.24	229.96
801.56	229.95
801.89	229.91
802.21	229.87
802.53	229.84
802.85	229.85
803.17	229.85
803.49	229.76
803.81	229.71
804.13	229.69
804.45	229.61
804.77	229.56
805.09	229.51
805.41	229.49
805.73	229.45
806.05	229.40
806.37	229.36
806.69	229.32
807.01	229.25
807.33	229.22
807.65	229.17
807.97	229.19
808.28	229.13
808.60	229.08
808.92	229.08
809.24	229.11
809.56	229.06
809.88	228.99
810.20	229.00
810.52	229.03
810.84	228.98
811.16	228.96
811.48	228.95
811.80	228.98
812.12	228.96
812.43	228.97
812.75	228.95
813.07	228.94
813.39	228.91
813.71	228.86
814.03	228.82
814.35	228.81
814.67	228.71
814.98	228.70
815.30	228.68
815.62	228.64
815.94	228.54
816.26	228.57
816.58	228.53
816.89	228.50
817.21	228.43
817.53	228.43
817.85	228.43
818.17	228.39
818.48	228.32
818.80	228.33
819.12	228.32
819.44	228.29
819.76	228.22
820.07	228.18
820.39	228.16
820.71	228.13
821.03	228.10
821.34	228.11
821.66	228.11
821.98	228.08
822.30	228.07
822.61	228.13
822.93	228.05
823.25	228.04
823.57	228.00
823.88	228.02
824.20	227.98
824.52	228.00
824.83	227.98
825.15	227.93
825.47	227.90
825.79	227.86
826.10	227.83
826.42	227.84
826.74	227.85
827.05	227.85
827.37	227.84
827.69	227.83
828.00	227.81
828.32	227.80
828.64	227.81
828.95	227.83
829.27	227.78
829.58	227.77
829.90	227.78
830.22	227.78
830.53	227.74
830.85	227.71
831.17	227.63
831.48	227.65
831.80	227.71
832.11	227.71
832.43	227.71
832.75	227.69
833.06	227.75
833.38	227.72
833.69	227.70
834.01	227.68
834.32	227.68
834.64	227.68
834.96	227.63
835.27	227.60
835.59	227.58
835.90	227.56
836.22	227.55
836.53	227.52
836.85	227.48
837.16	227.60
837.48	227.60
837.79	227.64
838.11	227.62
838.42	227.57
838.74	227.58
839.05	227.57
839.37	227.59
839.68	227.52
840.00	227.54
840.31	227.56
840.63	227.57
840.94	227.56
841.26	227.52
841.57	227.53
841.88	227.55
842.20	227.53
842.51	227.49
842.83	227.50
843.14	227.59
843.46	227.60
843.77	227.53
844.08	227.52
844.40	227.46
844.71	227.43
845.03	227.43
845.34	227.40
845.65	227.36
845.97	227.34
846.28	227.33
846.60	227.30
846.91	227.27
847.22	227.28
847.54	227.27
847.85	227.28
848.16	227.27
848.48	227.22
848.79	227.24
849.10	227.26
849.42	227.26
849.73	227.16
850.04	227.17
850.36	227.12
850.67	227.16
850.98	227.19
851.30	227.19
851.61	227.16
851.92	227.15
852.23	227.20
852.55	227.19
852.86	227.21
853.17	227.23
853.49	227.25
853.80	227.26
854.11	227.28
854.42	227.30
854.74	227.26
855.05	227.31
855.36	227.26
855.67	227.29
855.99	227.28
856.30	227.39
856.61	227.38
856.92	227.39
857.23	227.39
857.55	227.41
857.86	227.40
858.17	227.42
858.48	227.41
858.79	227.36
859.11	227.40
859.42	227.37
859.73	227.34
860.04	227.33
860.35	227.30
860.66	227.25
860.98	227.25
861.29	227.25
861.60	227.24
861.91	227.28
862.22	227.27
862.53	227.27
862.84	227.15
863.16	227.15
863.47	227.12
863.78	227.08
864.09	227.08
864.40	227.11
864.71	227.11
865.02	227.13
865.33	227.11
865.64	227.07
865.95	227.08
866.27	227.15
866.58	227.13
866.89	227.15
867.20	227.12
867.51	227.07
867.82	227.11
868.13	227.10
868.44	227.04
868.75	227.03
869.06	227.02
869.37	227.02
869.68	227.02
869.99	227.03
870.30	227.04
870.61	227.03
870.92	227.03
871.23	227.06
871.54	227.06
871.85	227.10
872.16	227.11
872.47	227.11
872.78	227.06
873.09	227.05
873.40	227.00
873.71	227.03
874.02	227.05
874.33	227.04
874.64	227.01
874.95	227.02
875.26	226.99
875.56	226.96
875.87	226.94
876.18	226.97
876.49	227.07
876.80	227.07
877.11	227.06
877.42	227.04
877.73	227.01
878.04	226.99
878.35	227.01
878.66	227.02
878.96	226.98
879.27	226.96
879.58	226.95
879.89	226.96
880.20	227.00
880.51	227.00
880.82	226.98
881.12	226.99
881.43	227.00
881.74	226.99
882.05	226.99
882.36	227.01
882.67	226.96
882.97	226.84
883.28	226.84
883.59	226.83
883.90	226.85
884.21	226.87
884.51	226.89
884.82	226.87
885.13	226.87
885.44	226.90
885.74	226.92
886.05	226.92
886.36	226.92
886.67	226.89
886.98	226.94
887.28	226.97
887.59	226.95
887.90	226.93
888.20	226.93
888.51	226.94
888.82	226.91
889.13	226.94
889.43	227.02
889.74	226.94
890.05	226.94
890.35	226.90
890.66	226.87
890.97	226.81
891.28	226.80
891.58	226.79
891.89	226.79
892.20	226.76
892.50	226.75
892.81	226.76
893.12	226.74
893.42	226.68
893.73	226.67
894.04	226.71
894.34	226.71
894.65	226.70
894.95	226.68
895.26	226.68
895.57	226.75
895.87	226.64
896.18	226.70
896.48	226.71
896.79	226.71
897.10	226.73
897.40	226.76
897.71	226.74
898.01	226.74
898.32	226.74
898.63	226.75
898.93	226.74
899.24	226.74
899.54	226.75
899.85	226.77
900.15	226.75
900.46	226.71
900.76	226.72
901.07	226.75
901.38	226.76
901.68	226.79
901.99	226.71
902.29	226.74
902.60	226.69
902.90	226.66
903.21	226.65
903.51	226.63
903.82	226.61
904.12	226.61
904.43	226.61
904.73	226.59
905.03	226.60
905.34	226.69
905.64	226.66
905.95	226.63
906.25	226.62
906.56	226.62
906.86	226.64
907.17	226.65
907.47	226.66
907.77	226.63
908.08	226.61
908.38	226.63
908.69	226.62
908.99	226.69
909.30	226.69
909.60	226.70
909.90	226.70
910.21	226.70
910.51	226.70
910.81	226.68
911.12	226.67
911.42	226.66
911.73	226.55
912.03	226.53
912.33	226.54
912.64	226.54
912.94	226.52
913.24	226.49
913.55	226.45
913.85	226.45
914.15	226.49
914.46	226.49
914.76	226.47
915.06	226.45
915.37	226.44
915.67	226.45
915.97	226.45
916.27	226.44
916.58	226.43
916.88	226.42
917.18	226.43
917.49	226.54
917.79	226.54
918.09	226.59
918.39	226.64
918.70	226.69
919.00	226.68
919.30	226.76
919.60	226.76
919.91	226.76
920.21	226.75
920.51	226.70
920.81	226.68
921.12	226.69
921.42	226.69
921.72	226.68
922.02	226.71
922.32	226.73
922.63	226.73
922.93	226.78
923.23	226.79
923.53	226.79
923.83	226.72
924.13	226.74
924.44	226.75
924.74	226.76
925.04	226.76
925.34	226.77
925.64	226.72
925.94	226.76
926.24	226.81
926.55	226.78
926.85	226.81
927.15	226.84
927.45	226.86
927.75	226.90
928.05	226.89
928.35	226.87
928.65	226.86
928.95	226.91
929.26	226.87
929.56	226.93
929.86	226.93
930.16	226.89
930.46	226.90
930.76	226.89
931.06	226.87
931.36	226.86
931.66	226.87
931.96	226.88
932.26	226.89
932.56	226.83
932.86	226.86
933.16	226.87
933.46	226.85
933.76	226.82
934.06	226.85
934.36	226.89
934.66	226.86
934.96	226.89
935.26	226.87
935.56	226.90
935.86	226.85
936.16	226.85
936.46	226.87
936.76	226.84
937.06	226.83
937.36	226.80
937.66	226.82
937.96	226.82
938.26	226.77
938.56	226.77
938.86	226.83
939.16	226.84
939.46	226.87
939.76	226.87
940.06	226.86
940.35	226.81
940.65	226.72
940.95	226.71
941.25	226.67
941.55	226.61
941.85	226.61
942.15	226.58
942.45	226.60
942.75	226.58
943.04	226.58
943.34	226.56
943.64	226.55
943.94	226.51
944.24	226.51
944.54	226.54
944.84	226.51
945.13	226.45
945.43	226.44
945.73	226.41
946.03	226.41
946.33	226.42
946.62	226.42
946.92	226.44
947.22	226.45
947.52	226.44
947.82	226.46
948.11	226.45
948.41	226.43
948.71	226.39
949.01	226.41
949.31	226.40
949.60	226.46
949.90	226.48
950.20	226.48
950.50	226.45
950.79	226.44
951.09	226.45
951.39	226.45
951.69	226.44
951.98	226.45
952.28	226.46
952.58	226.45
952.87	226.43
953.17	226.46
953.47	226.50
953.76	226.52
954.06	226.49
954.36	226.45
954.66	226.49
954.95	226.53
955.25	226.51
955.55	226.52
955.84	226.45
956.14	226.46
956.44	226.49
956.73	226.48
957.03	226.48
957.32	226.49
957.62	226.47
957.92	226.48
958.21	226.47
958.51	226.56
958.81	226.57
959.10	226.57
959.40	226.59
959.69	226.58
959.99	226.61
960.29	226.65
960.58	226.64
960.88	226.70
961.17	226.69
961.47	226.71
961.76	226.68
962.06	226.73
962.36	226.75
962.65	226.74
962.95	226.76
963.24	226.78
963.54	226.76
963.83	226.79
964.13	226.80
964.42	226.76
964.72	226.70
965.01	226.72
965.31	226.73
965.60	226.71
965.90	226.76
966.19	226.75
966.49	226.74
966.78	226.75
967.08	226.73
967.37	226.73
967.67	226.71
967.96	226.75
968.26	226.73
968.55	226.72
968.85	226.71
969.14	226.69
969.43	226.64
969.73	226.65
970.02	226.61
970.32	226.59
970.61	226.62
970.91	226.59
971.20	226.57
971.49	226.54
971.79	226.54
972.08	226.50
972.38	226.50
972.67	226.51
972.96	226.55
973.26	226.50
973.55	226.54
973.85	226.55
974.14	226.55
974.43	226.59
974.73	226.57
975.02	226.57
975.31	226.60
975.61	226.63
975.90	226.61
976.19	226.67
976.49	226.69
976.78	226.69
977.07	226.68
977.37	226.67
977.66	226.70
977.95	226.68
978.24	226.67
978.54	226.69
978.83	226.69
979.12	226.64
979.42	226.67
979.71	226.63
980.00	226.63
980.29	226.65
980.59	226.62
980.88	226.62
981.17	226.62
981.46	226.62
981.76	226.63
982.05	226.68
982.34	226.64
982.63	226.64
982.93	226.65
983.22	226.70
983.51	226.71
983.80	226.73
984.09	226.77
984.39	226.78
984.68	226.75
984.97	226.78
985.26	226.78
985.55	226.78
985.85	226.78
986.14	226.79
986.43	226.79
986.72	226.75
987.01	226.73
987.30	226.73
987.59	226.73
987.89	226.73
988.18	226.66
988.47	226.68
988.76	226.69
989.05	226.67
989.34	226.67
989.63	226.67
989.92	226.62
990.22	226.59
990.51	226.61
990.80	226.59
991.09	226.56
991.38	226.60
991.67	226.57
991.96	226.56
992.25	226.58
992.54	226.51
992.83	226.53
993.12	226.55
993.41	226.53
993.70	226.56
993.99	226.57
994.28	226.61
994.58	226.60
994.87	226.56
995.16	226.55
995.45	226.52
995.74	226.53
996.03	226.57
996.32	226.57
996.61	226.57
996.90	226.61
997.19	226.62
997.48	226.61
997.77	226.62
998.06	226.63
998.34	226.58
998.63	226.61
998.92	226.62
999.21	226.63
999.50	226.59
999.79	226.58
1000.08	226.56
1000.37	226.54
1000.66	226.52
1000.95	226.56
1001.24	226.55
1001.53	226.58
1001.82	226.58
1002.11	226.55
1002.40	226.57
1002.68	226.59
1002.97	226.63
1003.26	226.61
1003.55	226.63
1003.84	226.64
1004.13	226.66
1004.42	226.69
1004.71	226.66
1004.99	226.64
1005.28	226.66
1005.57	226.69
1005.86	226.64
1006.15	226.64
1006.44	226.64
1006.72	226.66
1007.01	226.65
1007.30	226.67
1007.59	226.67
1007.88	226.66
1008.17	226.67
1008.45	226.65
1008.74	226.62
1009.03	226.58
1009.32	226.60
1009.60	226.60
1009.89	226.60
1010.18	226.58
1010.47	226.58
1010.76	226.64
1011.04	226.66
1011.33	226.62
1011.62	226.64
1011.91	226.66
1012.19	226.67
1012.48	226.67
1012.77	226.70
1013.05	226.73
1013.34	226.74
1013.63	226.71
1013.92	226.69
1014.20	226.68
1014.49	226.67
1014.78	226.66
1015.06	226.62
1015.35	226.58
1015.64	226.56
1015.92	226.54
1016.21	226.53
1016.50	226.50
1016.78	226.48
1017.07	226.46
1017.36	226.48
1017.64	226.47
1017.93	226.46
1018.22	226.47
1018.50	226.46
1018.79	226.43
1019.08	226.40
1019.36	226.36
1019.65	226.33
1019.93	226.38
1020.22	226.39
1020.51	226.45
1020.79	226.44
1021.08	226.71
1021.36	226.14
1021.65	226.47
1021.94	226.43
1022.22	226.02
1022.51	225.99
1022.79	226.98
1023.08	226.72
1023.36	227.82
1023.65	226.15
>>>>>End Processed Spectral Data<<<<<
