SpectraSuite Data File
++++++++++++++++++++++++++++++++++++
Date: Fri Feb 01 16:16:07 EST 2013
User: group
Dark Spectrum Present: No
Reference Spectrum Present: No
Number of Sampled Component Spectra: 1
Spectrometers: USB2E7196
Integration Time (usec): 35000 (USB2E7196)
Spectra Averaged: 100 (USB2E7196)
Boxcar Smoothing: 10 (USB2E7196)
Correct for Electrical Dark: No (USB2E7196)
Strobe/Lamp Enabled: No (USB2E7196)
Correct for Detector Non-linearity: No (USB2E7196)
Correct for Stray Light: No (USB2E7196)
Number of Pixels in Processed Spectrum: 2048
>>>>>Begin Processed Spectral Data<<<<<
339.09	0.00
339.48	214.26
339.86	216.16
340.24	217.04
340.63	218.38
341.01	221.41
341.39	221.17
341.78	222.37
342.16	223.21
342.54	223.69
342.93	212.56
343.31	223.30
343.69	223.84
344.07	224.28
344.46	224.69
344.84	225.09
345.22	225.30
345.60	225.56
345.99	225.75
346.37	225.90
346.75	225.98
347.13	226.02
347.52	226.07
347.90	226.12
348.28	226.16
348.66	226.15
349.05	226.12
349.43	226.15
349.81	226.22
350.19	226.25
350.57	226.30
350.96	226.40
351.34	226.48
351.72	226.54
352.10	226.64
352.48	226.72
352.87	226.75
353.25	226.83
353.63	226.85
354.01	226.89
354.39	226.93
354.77	227.03
355.15	227.13
355.54	227.21
355.92	227.24
356.30	227.28
356.68	227.45
357.06	227.56
357.44	227.61
357.82	227.62
358.20	227.72
358.58	227.79
358.97	227.85
359.35	227.93
359.73	228.01
360.11	228.06
360.49	228.11
360.87	228.16
361.25	228.24
361.63	228.34
362.01	228.38
362.39	228.44
362.77	228.47
363.15	228.49
363.53	228.50
363.91	228.53
364.29	228.59
364.67	228.49
365.05	228.48
365.43	228.50
365.81	228.54
366.19	228.56
366.57	228.59
366.95	228.60
367.33	228.56
367.71	228.55
368.09	228.54
368.47	228.53
368.85	228.51
369.23	228.48
369.61	228.42
369.99	228.41
370.37	228.39
370.75	228.42
371.13	228.36
371.51	228.32
371.89	228.32
372.27	228.23
372.65	228.20
373.03	228.13
373.41	228.05
373.78	227.99
374.16	227.90
374.54	227.81
374.92	227.72
375.30	227.66
375.68	227.57
376.06	227.53
376.44	227.47
376.82	227.38
377.19	227.33
377.57	227.26
377.95	227.20
378.33	227.15
378.71	227.03
379.09	227.00
379.47	226.94
379.84	226.86
380.22	226.81
380.60	226.73
380.98	226.69
381.36	226.65
381.73	226.59
382.11	226.51
382.49	226.45
382.87	226.36
383.25	226.32
383.62	226.37
384.00	226.30
384.38	226.24
384.76	226.24
385.13	226.19
385.51	226.16
385.89	226.09
386.27	226.05
386.64	226.02
387.02	225.96
387.40	225.91
387.78	225.84
388.15	225.83
388.53	225.75
388.91	225.73
389.29	225.70
389.66	225.69
390.04	225.65
390.42	225.63
390.79	225.66
391.17	225.62
391.55	225.51
391.92	225.51
392.30	225.51
392.68	225.47
393.05	225.48
393.43	225.46
393.81	225.48
394.18	225.45
394.56	225.47
394.94	225.52
395.31	225.54
395.69	225.62
396.06	225.63
396.44	225.71
396.82	225.73
397.19	225.83
397.57	225.87
397.95	225.95
398.32	226.02
398.70	226.07
399.07	226.16
399.45	226.24
399.82	226.31
400.20	226.36
400.58	226.47
400.95	226.49
401.33	226.59
401.70	226.76
402.08	226.89
402.45	226.97
402.83	227.08
403.20	227.20
403.58	227.27
403.95	227.42
404.33	227.53
404.71	227.65
405.08	227.82
405.46	227.94
405.83	228.08
406.21	228.21
406.58	228.36
406.96	228.53
407.33	228.69
407.70	228.84
408.08	229.11
408.45	229.26
408.83	229.48
409.20	229.73
409.58	229.88
409.95	230.11
410.33	230.36
410.70	230.65
411.08	230.95
411.45	231.25
411.82	231.56
412.20	231.95
412.57	232.36
412.95	232.64
413.32	233.03
413.69	233.42
414.07	233.86
414.44	234.32
414.82	234.79
415.19	235.34
415.56	235.89
415.94	236.45
416.31	237.10
416.68	237.75
417.06	238.44
417.43	239.11
417.81	239.84
418.18	240.63
418.55	241.43
418.93	242.31
419.30	243.21
419.67	244.12
420.04	245.05
420.42	246.06
420.79	247.21
421.16	248.38
421.54	249.59
421.91	250.78
422.28	252.05
422.66	253.35
423.03	254.66
423.40	256.01
423.77	257.36
424.15	258.82
424.52	260.28
424.89	261.89
425.26	263.44
425.64	264.93
426.01	266.52
426.38	268.18
426.75	269.83
427.13	271.53
427.50	273.35
427.87	275.19
428.24	277.01
428.61	278.77
428.99	280.70
429.36	282.81
429.73	284.90
430.10	286.88
430.47	288.95
430.85	291.05
431.22	293.28
431.59	295.70
431.96	297.95
432.33	300.40
432.70	302.73
433.08	305.57
433.45	308.20
433.82	310.78
434.19	313.66
434.56	316.49
434.93	319.19
435.30	321.80
435.68	324.74
436.05	327.62
436.42	330.45
436.79	332.96
437.16	335.58
437.53	338.42
437.90	341.26
438.27	343.98
438.64	346.82
439.01	349.37
439.38	351.56
439.75	353.71
440.13	356.19
440.50	358.52
440.87	360.35
441.24	362.31
441.61	364.51
441.98	366.00
442.35	367.79
442.72	369.58
443.09	371.40
443.46	372.34
443.83	372.90
444.20	373.40
444.57	374.28
444.94	374.57
445.31	374.85
445.68	375.22
446.05	375.30
446.42	374.90
446.79	374.49
447.16	374.05
447.53	373.71
447.90	372.62
448.27	371.52
448.64	369.94
449.01	368.80
449.37	366.80
449.74	364.90
450.11	362.68
450.48	360.21
450.85	357.63
451.22	355.49
451.59	353.49
451.96	351.51
452.33	348.83
452.70	346.49
453.07	343.72
453.43	340.78
453.80	338.03
454.17	335.33
454.54	332.84
454.91	330.15
455.28	327.55
455.65	324.99
456.02	322.51
456.38	320.38
456.75	317.66
457.12	315.47
457.49	313.21
457.86	311.00
458.23	309.18
458.59	307.18
458.96	305.12
459.33	303.29
459.70	301.44
460.07	299.98
460.43	298.30
460.80	296.65
461.17	295.26
461.54	293.74
461.91	292.37
462.27	290.90
462.64	289.66
463.01	288.24
463.38	286.98
463.74	285.61
464.11	284.42
464.48	283.43
464.85	282.29
465.21	281.44
465.58	280.51
465.95	279.38
466.32	278.48
466.68	277.57
467.05	276.65
467.42	275.76
467.78	274.79
468.15	273.91
468.52	273.27
468.88	272.36
469.25	271.61
469.62	270.97
469.98	270.30
470.35	269.67
470.72	269.08
471.08	268.43
471.45	267.87
471.82	267.35
472.18	266.77
472.55	266.33
472.92	265.80
473.28	265.35
473.65	264.92
474.02	264.49
474.38	264.13
474.75	263.81
475.11	263.45
475.48	263.22
475.85	262.98
476.21	262.76
476.58	262.63
476.94	262.49
477.31	262.33
477.67	262.19
478.04	262.10
478.41	262.06
478.77	262.15
479.14	262.13
479.50	262.14
479.87	262.21
480.23	262.30
480.60	262.38
480.96	262.48
481.33	262.73
481.69	262.94
482.06	263.15
482.42	263.37
482.79	263.66
483.15	264.01
483.52	264.42
483.88	264.75
484.25	265.14
484.61	265.58
484.98	266.06
485.34	266.62
485.71	267.19
486.07	267.83
486.44	268.36
486.80	269.09
487.17	269.84
487.53	270.63
487.90	271.48
488.26	272.42
488.62	273.44
488.99	274.37
489.35	275.39
489.72	276.50
490.08	277.73
490.44	278.96
490.81	280.28
491.17	281.64
491.54	283.15
491.90	284.68
492.26	286.33
492.63	288.07
492.99	289.82
493.36	291.70
493.72	293.75
494.08	295.88
494.45	298.08
494.81	300.46
495.17	302.96
495.54	305.55
495.90	308.23
496.26	311.02
496.63	314.01
496.99	317.15
497.35	320.45
497.72	323.85
498.08	327.37
498.44	331.07
498.80	334.96
499.17	338.98
499.53	343.14
499.89	347.53
500.26	352.03
500.62	356.75
500.98	361.74
501.34	366.81
501.71	372.12
502.07	377.59
502.43	383.21
502.79	389.02
503.16	395.11
503.52	401.43
503.88	407.85
504.24	414.50
504.60	421.40
504.97	428.48
505.33	435.82
505.69	443.55
506.05	451.32
506.41	459.25
506.78	467.47
507.14	475.97
507.50	484.71
507.86	493.81
508.22	503.03
508.59	512.20
508.95	521.77
509.31	531.60
509.67	541.77
510.03	552.03
510.39	562.54
510.75	573.26
511.12	584.19
511.48	595.51
511.84	607.01
512.20	618.48
512.56	630.47
512.92	642.65
513.28	654.94
513.64	667.40
514.00	680.16
514.37	693.04
514.73	706.07
515.09	719.09
515.45	732.31
515.81	745.84
516.17	759.85
516.53	773.98
516.89	788.22
517.25	802.31
517.61	816.74
517.97	831.22
518.33	845.70
518.69	860.43
519.05	875.35
519.41	890.43
519.77	906.05
520.13	921.45
520.49	936.72
520.85	952.12
521.21	967.81
521.57	983.98
521.93	999.77
522.29	1016.06
522.65	1032.16
523.01	1048.36
523.37	1064.38
523.73	1080.49
524.09	1096.60
524.45	1112.83
524.81	1129.41
525.17	1146.15
525.53	1163.03
525.89	1179.89
526.25	1196.63
526.61	1213.08
526.97	1229.78
527.33	1246.26
527.68	1262.89
528.04	1279.43
528.40	1295.97
528.76	1312.96
529.12	1329.54
529.48	1346.33
529.84	1362.36
530.20	1379.01
530.56	1395.90
530.91	1413.40
531.27	1430.01
531.63	1446.31
531.99	1462.85
532.35	1478.77
532.71	1494.56
533.07	1510.69
533.42	1526.48
533.78	1542.49
534.14	1558.58
534.50	1573.92
534.86	1589.66
535.21	1604.78
535.57	1620.68
535.93	1636.16
536.29	1651.01
536.65	1665.93
537.00	1680.71
537.36	1695.86
537.72	1710.47
538.08	1724.92
538.44	1738.65
538.79	1752.49
539.15	1766.06
539.51	1779.67
539.87	1793.86
540.22	1807.47
540.58	1821.17
540.94	1834.48
541.29	1847.38
541.65	1859.99
542.01	1873.26
542.37	1885.53
542.72	1897.94
543.08	1909.70
543.44	1921.98
543.79	1933.12
544.15	1943.97
544.51	1955.41
544.87	1966.42
545.22	1976.98
545.58	1987.03
545.94	1996.64
546.29	2006.57
546.65	2016.46
547.01	2025.64
547.36	2034.45
547.72	2042.95
548.07	2050.77
548.43	2058.80
548.79	2066.82
549.14	2074.38
549.50	2081.60
549.86	2089.19
550.21	2096.34
550.57	2103.35
550.92	2109.94
551.28	2116.99
551.64	2124.07
551.99	2130.57
552.35	2136.77
552.70	2143.05
553.06	2149.15
553.41	2155.44
553.77	2161.47
554.13	2167.53
554.48	2173.57
554.84	2179.07
555.19	2184.37
555.55	2189.53
555.90	2193.98
556.26	2198.78
556.61	2203.56
556.97	2207.66
557.32	2211.76
557.68	2215.96
558.03	2220.32
558.39	2223.99
558.74	2228.55
559.10	2232.42
559.45	2235.98
559.81	2240.10
560.16	2243.85
560.52	2246.94
560.87	2250.36
561.23	2252.93
561.58	2256.00
561.94	2258.57
562.29	2260.84
562.64	2263.49
563.00	2266.09
563.35	2269.78
563.71	2272.95
564.06	2275.98
564.42	2279.13
564.77	2281.67
565.12	2283.88
565.48	2285.76
565.83	2287.82
566.19	2289.18
566.54	2290.25
566.89	2291.57
567.25	2292.24
567.60	2293.51
567.96	2295.33
568.31	2296.13
568.66	2297.42
569.02	2297.84
569.37	2298.25
569.72	2299.19
570.08	2299.48
570.43	2299.60
570.78	2298.95
571.14	2297.37
571.49	2296.15
571.84	2295.74
572.20	2294.60
572.55	2293.64
572.90	2292.11
573.26	2290.65
573.61	2289.00
573.96	2287.24
574.31	2284.47
574.67	2281.53
575.02	2278.07
575.37	2274.72
575.72	2270.98
576.08	2267.59
576.43	2264.49
576.78	2260.81
577.13	2257.67
577.49	2254.59
577.84	2251.05
578.19	2247.35
578.54	2243.81
578.90	2239.65
579.25	2234.03
579.60	2229.11
579.95	2224.14
580.30	2219.05
580.66	2213.90
581.01	2209.08
581.36	2204.28
581.71	2199.97
582.06	2195.61
582.42	2191.13
582.77	2185.93
583.12	2181.44
583.47	2176.81
583.82	2171.69
584.17	2166.41
584.53	2160.95
584.88	2155.30
585.23	2149.59
585.58	2144.17
585.93	2138.77
586.28	2134.10
586.63	2129.14
586.98	2124.16
587.34	2119.45
587.69	2114.70
588.04	2109.44
588.39	2103.73
588.74	2097.16
589.09	2091.00
589.44	2084.18
589.79	2078.24
590.14	2072.66
590.49	2066.13
590.84	2059.54
591.19	2053.59
591.54	2047.44
591.89	2040.19
592.25	2033.46
592.60	2026.37
592.95	2018.89
593.30	2011.56
593.65	2003.83
594.00	1996.72
594.35	1989.62
594.70	1981.62
595.05	1974.53
595.40	1967.22
595.75	1959.77
596.10	1953.66
596.45	1947.03
596.80	1940.96
597.15	1934.24
597.50	1927.07
597.85	1920.72
598.19	1914.23
598.54	1907.14
598.89	1900.28
599.24	1894.38
599.59	1887.67
599.94	1881.49
600.29	1875.06
600.64	1868.45
600.99	1861.12
601.34	1854.37
601.69	1847.33
602.04	1840.43
602.39	1833.09
602.74	1826.37
603.08	1819.66
603.43	1812.85
603.78	1805.51
604.13	1798.16
604.48	1791.00
604.83	1784.17
605.18	1777.25
605.53	1769.17
605.87	1761.17
606.22	1754.05
606.57	1746.06
606.92	1738.76
607.27	1731.54
607.62	1724.73
607.96	1717.37
608.31	1710.73
608.66	1703.17
609.01	1695.57
609.36	1688.11
609.70	1680.04
610.05	1672.02
610.40	1664.28
610.75	1655.95
611.10	1648.29
611.44	1639.99
611.79	1631.99
612.14	1623.39
612.49	1614.04
612.83	1605.73
613.18	1597.68
613.53	1589.58
613.88	1581.04
614.22	1572.76
614.57	1564.15
614.92	1556.11
615.27	1548.72
615.61	1540.45
615.96	1532.36
616.31	1524.83
616.65	1517.41
617.00	1509.84
617.35	1502.08
617.70	1493.72
618.04	1485.20
618.39	1476.90
618.74	1469.25
619.08	1460.86
619.43	1453.29
619.78	1446.35
620.12	1439.26
620.47	1431.59
620.82	1423.39
621.16	1415.87
621.51	1408.26
621.85	1400.62
622.20	1392.10
622.55	1383.63
622.89	1375.78
623.24	1368.18
623.59	1360.69
623.93	1353.19
624.28	1345.94
624.62	1338.41
624.97	1331.27
625.32	1324.58
625.66	1317.53
626.01	1310.42
626.35	1303.03
626.70	1295.23
627.04	1287.58
627.39	1279.71
627.73	1272.44
628.08	1265.64
628.43	1258.40
628.77	1250.97
629.12	1243.41
629.46	1236.21
629.81	1228.86
630.15	1221.69
630.50	1214.27
630.84	1206.11
631.19	1198.06
631.53	1190.50
631.88	1182.97
632.22	1175.27
632.57	1167.90
632.91	1160.45
633.26	1152.96
633.60	1145.58
633.95	1138.47
634.29	1131.46
634.64	1124.85
634.98	1117.43
635.32	1110.18
635.67	1103.55
636.01	1096.99
636.36	1090.15
636.70	1083.58
637.05	1076.95
637.39	1070.40
637.73	1063.89
638.08	1058.05
638.42	1052.12
638.77	1045.66
639.11	1039.10
639.45	1032.76
639.80	1026.09
640.14	1019.65
640.49	1013.16
640.83	1006.87
641.17	1000.57
641.52	994.18
641.86	987.70
642.20	981.83
642.55	975.53
642.89	969.07
643.23	962.42
643.58	956.73
643.92	950.57
644.26	944.45
644.61	938.43
644.95	932.36
645.29	925.73
645.64	919.03
645.98	912.71
646.32	906.85
646.66	900.73
647.01	894.99
647.35	889.29
647.69	883.44
648.04	877.98
648.38	872.20
648.72	866.23
649.06	860.21
649.41	854.35
649.75	848.39
650.09	842.49
650.43	836.78
650.78	830.53
651.12	824.55
651.46	818.94
651.80	813.13
652.14	807.76
652.49	802.41
652.83	797.20
653.17	791.58
653.51	785.86
653.85	780.52
654.20	774.87
654.54	768.88
654.88	763.15
655.22	757.13
655.56	751.50
655.90	746.04
656.25	740.74
656.59	735.35
656.93	730.27
657.27	725.17
657.61	719.76
657.95	714.68
658.29	709.62
658.64	704.33
658.98	699.09
659.32	693.67
659.66	688.45
660.00	683.13
660.34	678.12
660.68	673.15
661.02	668.12
661.36	663.32
661.70	658.82
662.05	654.40
662.39	650.11
662.73	645.59
663.07	641.23
663.41	636.81
663.75	632.25
664.09	627.60
664.43	623.17
664.77	619.00
665.11	614.78
665.45	610.61
665.79	606.54
666.13	602.40
666.47	598.26
666.81	594.07
667.15	589.96
667.49	586.07
667.83	582.27
668.17	578.28
668.51	574.23
668.85	570.22
669.19	566.43
669.53	562.55
669.87	558.68
670.21	554.99
670.55	551.33
670.89	547.96
671.23	544.62
671.57	541.06
671.91	537.55
672.25	534.02
672.58	530.47
672.92	527.05
673.26	523.86
673.60	520.72
673.94	517.59
674.28	514.69
674.62	511.71
674.96	508.62
675.30	505.73
675.64	502.81
675.97	499.93
676.31	497.04
676.65	494.12
676.99	491.37
677.33	488.49
677.67	485.69
678.01	482.67
678.34	479.65
678.68	476.80
679.02	474.00
679.36	471.24
679.70	468.56
680.04	465.85
680.37	462.96
680.71	460.11
681.05	457.51
681.39	454.77
681.73	452.17
682.06	449.60
682.40	447.02
682.74	444.51
683.08	441.97
683.42	439.33
683.75	436.86
684.09	434.30
684.43	431.83
684.77	429.31
685.10	426.92
685.44	424.60
685.78	422.28
686.12	419.97
686.45	417.69
686.79	415.33
687.13	413.15
687.46	411.02
687.80	408.90
688.14	406.72
688.48	404.67
688.81	402.38
689.15	400.24
689.49	398.09
689.82	396.02
690.16	393.94
690.50	391.98
690.83	390.04
691.17	388.13
691.51	386.17
691.84	384.30
692.18	382.42
692.52	380.39
692.85	378.49
693.19	376.62
693.52	374.79
693.86	373.05
694.20	371.22
694.53	369.43
694.87	367.56
695.21	365.77
695.54	364.00
695.88	362.29
696.21	360.57
696.55	358.93
696.88	357.21
697.22	355.57
697.56	354.03
697.89	352.36
698.23	350.73
698.56	349.19
698.90	347.65
699.23	345.93
699.57	344.44
699.90	342.92
700.24	341.37
700.58	339.82
700.91	338.28
701.25	336.82
701.58	335.44
701.92	334.08
702.25	332.67
702.59	331.24
702.92	329.93
703.26	328.61
703.59	327.33
703.93	326.11
704.26	324.90
704.60	323.53
704.93	322.24
705.26	320.98
705.60	319.75
705.93	318.55
706.27	317.56
706.60	316.47
706.94	315.37
707.27	314.19
707.61	313.10
707.94	312.11
708.27	311.00
708.61	309.88
708.94	308.87
709.28	307.87
709.61	306.90
709.94	305.91
710.28	304.90
710.61	303.89
710.95	302.83
711.28	301.86
711.61	300.93
711.95	300.00
712.28	299.04
712.61	298.03
712.95	297.09
713.28	296.20
713.61	295.32
713.95	294.43
714.28	293.58
714.61	292.74
714.95	291.84
715.28	290.99
715.61	290.10
715.95	289.24
716.28	288.37
716.61	287.52
716.95	286.71
717.28	285.98
717.61	285.22
717.94	284.47
718.28	283.66
718.61	282.94
718.94	282.21
719.27	281.58
719.61	280.97
719.94	280.30
720.27	279.58
720.60	278.91
720.94	278.26
721.27	277.72
721.60	277.15
721.93	276.55
722.27	275.99
722.60	275.47
722.93	274.90
723.26	274.39
723.59	273.79
723.93	273.21
724.26	272.64
724.59	272.07
724.92	271.60
725.25	271.12
725.59	270.58
725.92	270.09
726.25	269.57
726.58	269.08
726.91	268.58
727.24	268.10
727.57	267.66
727.91	267.19
728.24	266.74
728.57	266.27
728.90	265.86
729.23	265.40
729.56	264.98
729.89	264.54
730.22	264.04
730.55	263.64
730.89	263.23
731.22	262.78
731.55	262.38
731.88	261.94
732.21	261.54
732.54	261.11
732.87	260.70
733.20	260.32
733.53	259.96
733.86	259.63
734.19	259.24
734.52	258.87
734.85	258.55
735.18	258.14
735.51	257.78
735.84	257.40
736.17	257.08
736.50	256.68
736.83	256.46
737.16	256.16
737.49	255.84
737.82	255.55
738.15	255.24
738.48	254.92
738.81	254.60
739.14	254.27
739.47	253.94
739.80	253.66
740.13	253.37
740.46	253.04
740.79	252.71
741.12	252.40
741.45	252.08
741.78	251.74
742.11	251.45
742.44	251.11
742.77	250.80
743.10	250.49
743.43	250.23
743.75	249.82
744.08	249.66
744.41	249.36
744.74	249.08
745.07	248.80
745.40	248.56
745.73	248.31
746.06	248.03
746.39	247.78
746.71	247.50
747.04	247.20
747.37	246.94
747.70	246.69
748.03	246.49
748.36	246.23
748.68	245.99
749.01	245.70
749.34	245.48
749.67	245.26
750.00	245.00
750.33	244.81
750.65	244.60
750.98	244.26
751.31	244.04
751.64	243.79
751.97	243.59
752.29	243.36
752.62	243.11
752.95	242.89
753.28	242.67
753.60	242.43
753.93	242.23
754.26	242.00
754.59	241.76
754.91	241.52
755.24	241.31
755.57	241.09
755.90	240.92
756.22	240.70
756.55	240.47
756.88	240.29
757.20	240.02
757.53	239.77
757.86	239.60
758.19	239.42
758.51	239.25
758.84	239.01
759.17	238.79
759.49	238.61
759.82	238.46
760.15	238.31
760.47	238.19
760.80	238.01
761.13	237.87
761.45	237.73
761.78	237.56
762.11	237.41
762.43	237.26
762.76	237.13
763.08	237.00
763.41	236.85
763.74	236.69
764.06	236.55
764.39	236.44
764.71	236.28
765.04	236.15
765.37	236.02
765.69	235.93
766.02	235.84
766.34	235.72
766.67	235.57
767.00	235.51
767.32	235.47
767.65	235.41
767.97	235.29
768.30	235.16
768.62	235.01
768.95	234.88
769.27	234.79
769.60	234.71
769.92	234.60
770.25	234.50
770.57	234.40
770.90	234.30
771.22	234.21
771.55	234.13
771.87	234.06
772.20	233.98
772.52	233.99
772.85	234.01
773.17	233.93
773.50	233.85
773.82	233.73
774.15	233.59
774.47	233.47
774.80	233.36
775.12	233.30
775.45	233.26
775.77	233.25
776.09	233.17
776.42	233.07
776.74	233.04
777.07	232.98
777.39	232.92
777.72	232.85
778.04	232.80
778.36	232.74
778.69	232.67
779.01	232.63
779.33	232.50
779.66	232.34
779.98	232.30
780.31	232.24
780.63	232.23
780.95	232.21
781.28	232.17
781.60	232.15
781.92	232.07
782.25	232.01
782.57	231.96
782.89	231.93
783.22	231.88
783.54	231.82
783.86	231.77
784.19	231.74
784.51	231.72
784.83	231.65
785.16	231.61
785.48	231.57
785.80	231.53
786.12	231.45
786.45	231.41
786.77	231.37
787.09	231.35
787.42	231.25
787.74	231.19
788.06	231.14
788.38	231.11
788.71	231.06
789.03	231.04
789.35	230.98
789.67	230.89
789.99	230.85
790.32	230.75
790.64	230.73
790.96	230.75
791.28	230.66
791.61	230.64
791.93	230.60
792.25	230.53
792.57	230.50
792.89	230.47
793.21	230.42
793.54	230.34
793.86	230.23
794.18	230.19
794.50	230.13
794.82	230.10
795.14	230.02
795.47	230.01
795.79	229.97
796.11	229.90
796.43	229.84
796.75	229.79
797.07	229.75
797.39	229.70
797.71	229.58
798.04	229.57
798.36	229.51
798.68	229.46
799.00	229.43
799.32	229.33
799.64	229.29
799.96	229.22
800.28	229.17
800.60	229.17
800.92	229.12
801.24	229.05
801.56	229.00
801.89	228.95
802.21	228.91
802.53	228.82
802.85	228.81
803.17	228.82
803.49	228.77
803.81	228.76
804.13	228.72
804.45	228.65
804.77	228.59
805.09	228.59
805.41	228.57
805.73	228.55
806.05	228.50
806.37	228.46
806.69	228.46
807.01	228.45
807.33	228.39
807.65	228.36
807.97	228.39
808.28	228.36
808.60	228.36
808.92	228.35
809.24	228.41
809.56	228.37
809.88	228.32
810.20	228.32
810.52	228.34
810.84	228.34
811.16	228.37
811.48	228.35
811.80	228.36
812.12	228.35
812.43	228.33
812.75	228.32
813.07	228.33
813.39	228.31
813.71	228.28
814.03	228.29
814.35	228.29
814.67	228.24
814.98	228.20
815.30	228.15
815.62	228.15
815.94	228.08
816.26	228.13
816.58	228.13
816.89	228.13
817.21	228.08
817.53	228.07
817.85	228.07
818.17	228.09
818.48	228.03
818.80	228.03
819.12	228.02
819.44	228.02
819.76	228.01
820.07	228.03
820.39	228.02
820.71	228.02
821.03	227.99
821.34	227.99
821.66	227.97
821.98	228.02
822.30	228.01
822.61	228.07
822.93	228.00
823.25	228.00
823.57	227.96
823.88	227.96
824.20	227.95
824.52	227.96
824.83	227.90
825.15	227.89
825.47	227.87
825.79	227.89
826.10	227.91
826.42	227.90
826.74	227.91
827.05	227.90
827.37	227.91
827.69	227.89
828.00	227.89
828.32	227.91
828.64	227.89
828.95	227.91
829.27	227.83
829.58	227.80
829.90	227.79
830.22	227.76
830.53	227.75
830.85	227.69
831.17	227.62
831.48	227.64
831.80	227.65
832.11	227.63
832.43	227.56
832.75	227.50
833.06	227.51
833.38	227.43
833.69	227.41
834.01	227.38
834.32	227.38
834.64	227.30
834.96	227.27
835.27	227.21
835.59	227.17
835.90	227.14
836.22	227.13
836.53	227.05
836.85	227.02
837.16	227.07
837.48	227.05
837.79	227.03
838.11	226.99
838.42	226.94
838.74	226.89
839.05	226.89
839.37	226.85
839.68	226.77
840.00	226.76
840.31	226.74
840.63	226.73
840.94	226.67
841.26	226.68
841.57	226.65
841.88	226.64
842.20	226.63
842.51	226.58
842.83	226.55
843.14	226.68
843.46	226.71
843.77	226.64
844.08	226.64
844.40	226.62
844.71	226.60
845.03	226.57
845.34	226.60
845.65	226.57
845.97	226.57
846.28	226.58
846.60	226.56
846.91	226.54
847.22	226.54
847.54	226.58
847.85	226.57
848.16	226.54
848.48	226.51
848.79	226.51
849.10	226.55
849.42	226.59
849.73	226.48
850.04	226.49
850.36	226.46
850.67	226.47
850.98	226.48
851.30	226.51
851.61	226.52
851.92	226.54
852.23	226.59
852.55	226.62
852.86	226.64
853.17	226.67
853.49	226.70
853.80	226.69
854.11	226.69
854.42	226.73
854.74	226.74
855.05	226.78
855.36	226.77
855.67	226.76
855.99	226.74
856.30	226.86
856.61	226.86
856.92	226.85
857.23	226.88
857.55	226.85
857.86	226.84
858.17	226.89
858.48	226.83
858.79	226.79
859.11	226.76
859.42	226.74
859.73	226.73
860.04	226.74
860.35	226.71
860.66	226.73
860.98	226.73
861.29	226.74
861.60	226.73
861.91	226.73
862.22	226.73
862.53	226.74
862.84	226.62
863.16	226.68
863.47	226.68
863.78	226.65
864.09	226.69
864.40	226.66
864.71	226.64
865.02	226.70
865.33	226.67
865.64	226.69
865.95	226.68
866.27	226.76
866.58	226.74
866.89	226.77
867.20	226.77
867.51	226.74
867.82	226.76
868.13	226.79
868.44	226.77
868.75	226.81
869.06	226.81
869.37	226.81
869.68	226.72
869.99	226.72
870.30	226.75
870.61	226.73
870.92	226.71
871.23	226.71
871.54	226.68
871.85	226.71
872.16	226.73
872.47	226.68
872.78	226.58
873.09	226.58
873.40	226.53
873.71	226.52
874.02	226.53
874.33	226.48
874.64	226.43
874.95	226.44
875.26	226.37
875.56	226.36
875.87	226.34
876.18	226.33
876.49	226.39
876.80	226.37
877.11	226.32
877.42	226.34
877.73	226.30
878.04	226.28
878.35	226.28
878.66	226.24
878.96	226.28
879.27	226.29
879.58	226.28
879.89	226.29
880.20	226.29
880.51	226.26
880.82	226.28
881.12	226.30
881.43	226.28
881.74	226.26
882.05	226.23
882.36	226.25
882.67	226.27
882.97	226.17
883.28	226.13
883.59	226.15
883.90	226.14
884.21	226.19
884.51	226.19
884.82	226.17
885.13	226.16
885.44	226.15
885.74	226.15
886.05	226.14
886.36	226.16
886.67	226.13
886.98	226.17
887.28	226.17
887.59	226.17
887.90	226.17
888.20	226.21
888.51	226.22
888.82	226.22
889.13	226.24
889.43	226.34
889.74	226.36
890.05	226.37
890.35	226.39
890.66	226.37
890.97	226.37
891.28	226.38
891.58	226.39
891.89	226.41
892.20	226.39
892.50	226.41
892.81	226.41
893.12	226.41
893.42	226.41
893.73	226.41
894.04	226.44
894.34	226.45
894.65	226.45
894.95	226.46
895.26	226.48
895.57	226.52
895.87	226.47
896.18	226.47
896.48	226.48
896.79	226.49
897.10	226.53
897.40	226.51
897.71	226.53
898.01	226.54
898.32	226.54
898.63	226.56
898.93	226.55
899.24	226.52
899.54	226.53
899.85	226.53
900.15	226.53
900.46	226.51
900.76	226.50
901.07	226.49
901.38	226.47
901.68	226.47
901.99	226.40
902.29	226.38
902.60	226.38
902.90	226.41
903.21	226.40
903.51	226.37
903.82	226.43
904.12	226.41
904.43	226.42
904.73	226.40
905.03	226.44
905.34	226.54
905.64	226.53
905.95	226.52
906.25	226.51
906.56	226.50
906.86	226.50
907.17	226.51
907.47	226.47
907.77	226.49
908.08	226.45
908.38	226.45
908.69	226.42
908.99	226.42
909.30	226.42
909.60	226.39
909.90	226.39
910.21	226.35
910.51	226.34
910.81	226.33
911.12	226.34
911.42	226.28
911.73	226.20
912.03	226.21
912.33	226.21
912.64	226.19
912.94	226.19
913.24	226.13
913.55	226.11
913.85	226.13
914.15	226.14
914.46	226.15
914.76	226.15
915.06	226.17
915.37	226.16
915.67	226.12
915.97	226.14
916.27	226.10
916.58	226.08
916.88	226.08
917.18	226.08
917.49	226.13
917.79	226.13
918.09	226.13
918.39	226.16
918.70	226.15
919.00	226.15
919.30	226.17
919.60	226.18
919.91	226.16
920.21	226.17
920.51	226.11
920.81	226.09
921.12	226.12
921.42	226.08
921.72	226.08
922.02	226.07
922.32	226.06
922.63	226.07
922.93	226.14
923.23	226.13
923.53	226.10
923.83	226.05
924.13	226.07
924.44	226.06
924.74	226.07
925.04	226.11
925.34	226.12
925.64	226.10
925.94	226.12
926.24	226.21
926.55	226.20
926.85	226.23
927.15	226.25
927.45	226.24
927.75	226.28
928.05	226.29
928.35	226.33
928.65	226.37
928.95	226.38
929.26	226.31
929.56	226.33
929.86	226.35
930.16	226.33
930.46	226.32
930.76	226.34
931.06	226.27
931.36	226.25
931.66	226.26
931.96	226.28
932.26	226.30
932.56	226.27
932.86	226.28
933.16	226.29
933.46	226.31
933.76	226.31
934.06	226.31
934.36	226.36
934.66	226.32
934.96	226.30
935.26	226.30
935.56	226.36
935.86	226.35
936.16	226.32
936.46	226.33
936.76	226.35
937.06	226.33
937.36	226.37
937.66	226.37
937.96	226.38
938.26	226.36
938.56	226.37
938.86	226.37
939.16	226.40
939.46	226.40
939.76	226.39
940.06	226.38
940.35	226.36
940.65	226.31
940.95	226.34
941.25	226.33
941.55	226.31
941.85	226.25
942.15	226.27
942.45	226.30
942.75	226.26
943.04	226.23
943.34	226.22
943.64	226.20
943.94	226.16
944.24	226.15
944.54	226.14
944.84	226.10
945.13	226.08
945.43	226.04
945.73	226.03
946.03	226.01
946.33	226.00
946.62	225.98
946.92	225.97
947.22	225.98
947.52	225.97
947.82	226.00
948.11	226.01
948.41	225.95
948.71	225.93
949.01	225.97
949.31	225.96
949.60	225.97
949.90	225.97
950.20	225.98
950.50	225.98
950.79	225.95
951.09	225.98
951.39	225.97
951.69	225.98
951.98	226.00
952.28	226.01
952.58	226.01
952.87	226.02
953.17	226.02
953.47	225.98
953.76	226.00
954.06	225.99
954.36	225.96
954.66	225.93
954.95	225.95
955.25	225.93
955.55	225.94
955.84	225.91
956.14	225.90
956.44	225.89
956.73	225.87
957.03	225.91
957.32	225.86
957.62	225.85
957.92	225.84
958.21	225.79
958.51	225.88
958.81	225.89
959.10	225.87
959.40	225.91
959.69	225.91
959.99	225.90
960.29	225.90
960.58	225.90
960.88	226.00
961.17	225.99
961.47	226.01
961.76	226.02
962.06	226.05
962.36	226.03
962.65	226.03
962.95	226.03
963.24	226.01
963.54	226.07
963.83	226.05
964.13	226.03
964.42	226.03
964.72	225.97
965.01	225.95
965.31	225.95
965.60	225.92
965.90	225.97
966.19	225.94
966.49	225.95
966.78	225.97
967.08	225.94
967.37	225.93
967.67	225.90
967.96	225.90
968.26	225.92
968.55	225.94
968.85	225.95
969.14	225.98
969.43	225.97
969.73	225.95
970.02	225.97
970.32	225.98
970.61	226.03
970.91	226.02
971.20	226.04
971.49	226.07
971.79	226.09
972.08	226.03
972.38	226.04
972.67	226.01
972.96	226.05
973.26	226.03
973.55	226.05
973.85	226.09
974.14	226.08
974.43	226.06
974.73	226.05
975.02	226.06
975.31	226.06
975.61	226.10
975.90	226.07
976.19	226.08
976.49	226.09
976.78	226.06
977.07	226.07
977.37	226.03
977.66	226.02
977.95	226.02
978.24	226.03
978.54	226.09
978.83	226.09
979.12	226.02
979.42	226.02
979.71	225.99
980.00	225.97
980.29	225.98
980.59	225.95
980.88	225.99
981.17	225.95
981.46	225.91
981.76	225.93
982.05	225.98
982.34	225.98
982.63	225.99
982.93	225.99
983.22	226.00
983.51	226.03
983.80	226.01
984.09	226.01
984.39	226.01
984.68	225.97
984.97	225.98
985.26	226.00
985.55	226.01
985.85	226.02
986.14	226.02
986.43	226.01
986.72	226.00
987.01	225.93
987.30	225.97
987.59	226.01
987.89	225.93
988.18	225.89
988.47	225.90
988.76	225.88
989.05	225.84
989.34	225.83
989.63	225.84
989.92	225.87
990.22	225.85
990.51	225.83
990.80	225.81
991.09	225.80
991.38	225.81
991.67	225.80
991.96	225.78
992.25	225.77
992.54	225.78
992.83	225.81
993.12	225.83
993.41	225.82
993.70	225.83
993.99	225.89
994.28	225.89
994.58	225.89
994.87	225.90
995.16	225.91
995.45	225.87
995.74	225.83
996.03	225.86
996.32	225.85
996.61	225.89
996.90	225.92
997.19	225.91
997.48	225.91
997.77	225.94
998.06	225.98
998.34	226.01
998.63	226.03
998.92	226.01
999.21	226.02
999.50	226.05
999.79	226.03
1000.08	226.01
1000.37	226.01
1000.66	226.02
1000.95	226.03
1001.24	226.02
1001.53	226.07
1001.82	226.08
1002.11	226.05
1002.40	226.08
1002.68	226.08
1002.97	226.17
1003.26	226.19
1003.55	226.17
1003.84	226.17
1004.13	226.16
1004.42	226.17
1004.71	226.14
1004.99	226.15
1005.28	226.16
1005.57	226.13
1005.86	226.12
1006.15	226.12
1006.44	226.10
1006.72	226.09
1007.01	226.09
1007.30	226.10
1007.59	226.08
1007.88	226.09
1008.17	226.08
1008.45	226.04
1008.74	226.02
1009.03	225.93
1009.32	225.92
1009.60	225.91
1009.89	225.89
1010.18	225.86
1010.47	225.84
1010.76	225.84
1011.04	225.83
1011.33	225.88
1011.62	225.88
1011.91	225.88
1012.19	225.88
1012.48	225.86
1012.77	225.88
1013.05	225.89
1013.34	225.89
1013.63	225.90
1013.92	225.85
1014.20	225.84
1014.49	225.85
1014.78	225.88
1015.06	225.84
1015.35	225.85
1015.64	225.85
1015.92	225.85
1016.21	225.85
1016.50	225.85
1016.78	225.87
1017.07	225.88
1017.36	225.82
1017.64	225.81
1017.93	225.83
1018.22	225.82
1018.50	225.84
1018.79	225.88
1019.08	225.85
1019.36	225.85
1019.65	225.83
1019.93	225.90
1020.22	225.90
1020.51	225.95
1020.79	225.92
1021.08	225.75
1021.36	225.57
1021.65	226.75
1021.94	226.07
1022.22	225.60
1022.51	225.75
1022.79	226.57
1023.08	225.65
1023.36	226.95
1023.65	225.45
>>>>>End Processed Spectral Data<<<<<
