SpectraSuite Data File
++++++++++++++++++++++++++++++++++++
Date: Fri Feb 01 18:02:20 EST 2013
User: group
Dark Spectrum Present: No
Reference Spectrum Present: No
Number of Sampled Component Spectra: 1
Spectrometers: USB2E7196
Integration Time (usec): 35000 (USB2E7196)
Spectra Averaged: 100 (USB2E7196)
Boxcar Smoothing: 10 (USB2E7196)
Correct for Electrical Dark: No (USB2E7196)
Strobe/Lamp Enabled: No (USB2E7196)
Correct for Detector Non-linearity: No (USB2E7196)
Correct for Stray Light: No (USB2E7196)
Number of Pixels in Processed Spectrum: 2048
>>>>>Begin Processed Spectral Data<<<<<
339.09	0.00
339.48	212.92
339.86	214.36
340.24	215.76
340.63	216.78
341.01	219.38
341.39	219.99
341.78	221.07
342.16	222.32
342.54	222.54
342.93	211.24
343.31	221.92
343.69	222.46
344.07	222.93
344.46	223.34
344.84	223.72
345.22	223.99
345.60	224.23
345.99	224.39
346.37	224.51
346.75	224.61
347.13	224.66
347.52	224.72
347.90	224.78
348.28	224.80
348.66	224.84
349.05	224.86
349.43	224.91
349.81	224.94
350.19	224.97
350.57	225.04
350.96	225.11
351.34	225.18
351.72	225.27
352.10	225.36
352.48	225.45
352.87	225.50
353.25	225.55
353.63	225.61
354.01	225.73
354.39	225.83
354.77	225.93
355.15	226.05
355.54	226.09
355.92	226.13
356.30	226.22
356.68	226.37
357.06	226.48
357.44	226.54
357.82	226.61
358.20	226.71
358.58	226.79
358.97	226.83
359.35	226.93
359.73	227.03
360.11	227.10
360.49	227.16
360.87	227.25
361.25	227.34
361.63	227.40
362.01	227.47
362.39	227.50
362.77	227.54
363.15	227.59
363.53	227.67
363.91	227.72
364.29	227.74
364.67	227.67
365.05	227.70
365.43	227.71
365.81	227.75
366.19	227.81
366.57	227.84
366.95	227.87
367.33	227.85
367.71	227.81
368.09	227.82
368.47	227.84
368.85	227.81
369.23	227.83
369.61	227.79
369.99	227.76
370.37	227.75
370.75	227.75
371.13	227.70
371.51	227.63
371.89	227.61
372.27	227.57
372.65	227.56
373.03	227.50
373.41	227.47
373.78	227.39
374.16	227.26
374.54	227.18
374.92	227.11
375.30	227.04
375.68	226.98
376.06	226.94
376.44	226.86
376.82	226.82
377.19	226.70
377.57	226.66
377.95	226.58
378.33	226.53
378.71	226.40
379.09	226.33
379.47	226.30
379.84	226.25
380.22	226.21
380.60	226.10
380.98	226.03
381.36	225.95
381.73	225.89
382.11	225.85
382.49	225.80
382.87	225.74
383.25	225.71
383.62	225.75
384.00	225.63
384.38	225.59
384.76	225.52
385.13	225.53
385.51	225.47
385.89	225.40
386.27	225.32
386.64	225.31
387.02	225.29
387.40	225.24
387.78	225.18
388.15	225.12
388.53	225.11
388.91	225.09
389.29	225.07
389.66	225.03
390.04	225.01
390.42	225.00
390.79	224.99
391.17	224.98
391.55	224.88
391.92	224.90
392.30	224.88
392.68	224.86
393.05	224.86
393.43	224.86
393.81	224.88
394.18	224.89
394.56	224.88
394.94	224.91
395.31	224.91
395.69	224.97
396.06	224.99
396.44	225.01
396.82	225.03
397.19	225.09
397.57	225.14
397.95	225.17
398.32	225.23
398.70	225.26
399.07	225.37
399.45	225.43
399.82	225.49
400.20	225.56
400.58	225.65
400.95	225.70
401.33	225.77
401.70	225.91
402.08	226.04
402.45	226.13
402.83	226.22
403.20	226.34
403.58	226.45
403.95	226.61
404.33	226.76
404.71	226.89
405.08	227.12
405.46	227.27
405.83	227.49
406.21	227.62
406.58	227.83
406.96	227.98
407.33	228.21
407.70	228.45
408.08	228.73
408.45	228.99
408.83	229.31
409.20	229.59
409.58	229.84
409.95	230.15
410.33	230.55
410.70	230.90
411.08	231.29
411.45	231.70
411.82	232.10
412.20	232.53
412.57	233.07
412.95	233.45
413.32	234.01
413.69	234.53
414.07	235.12
414.44	235.73
414.82	236.37
415.19	237.08
415.56	237.80
415.94	238.58
416.31	239.45
416.68	240.27
417.06	241.29
417.43	242.22
417.81	243.22
418.18	244.26
418.55	245.38
418.93	246.56
419.30	247.75
419.67	249.01
420.04	250.32
420.42	251.66
420.79	253.23
421.16	254.76
421.54	256.33
421.91	258.00
422.28	259.70
422.66	261.52
423.03	263.28
423.40	265.10
423.77	267.01
424.15	268.93
424.52	270.94
424.89	273.07
425.26	275.16
425.64	277.13
426.01	279.29
426.38	281.58
426.75	283.82
427.13	286.20
427.50	288.67
427.87	291.23
428.24	293.76
428.61	296.19
428.99	298.81
429.36	301.72
429.73	304.53
430.10	307.27
430.47	310.03
430.85	312.95
431.22	315.99
431.59	319.18
431.96	322.19
432.33	325.58
432.70	328.83
433.08	332.66
433.45	336.26
433.82	339.79
434.19	343.65
434.56	347.47
434.93	351.04
435.30	354.61
435.68	358.55
436.05	362.41
436.42	366.22
436.79	369.73
437.16	373.37
437.53	377.22
437.90	381.09
438.27	384.85
438.64	388.66
439.01	392.21
439.38	395.27
439.75	398.31
440.13	401.65
440.50	404.87
440.87	407.40
441.24	410.07
441.61	413.07
441.98	415.11
442.35	417.60
442.72	420.18
443.09	422.59
443.46	423.95
443.83	424.80
444.20	425.50
444.57	426.65
444.94	427.10
445.31	427.57
445.68	428.02
446.05	428.17
446.42	427.69
446.79	427.14
447.16	426.59
447.53	426.15
447.90	424.66
448.27	423.09
448.64	420.93
449.01	419.35
449.37	416.62
449.74	414.07
450.11	410.99
450.48	407.64
450.85	404.23
451.22	401.35
451.59	398.55
451.96	395.87
452.33	392.28
452.70	389.03
453.07	385.20
453.43	381.30
453.80	377.51
454.17	373.88
454.54	370.42
454.91	366.69
455.28	363.04
455.65	359.65
456.02	356.22
456.38	353.28
456.75	349.67
457.12	346.67
457.49	343.61
457.86	340.69
458.23	338.06
458.59	335.24
458.96	332.35
459.33	329.81
459.70	327.26
460.07	325.23
460.43	322.86
460.80	320.59
461.17	318.56
461.54	316.46
461.91	314.48
462.27	312.47
462.64	310.75
463.01	308.87
463.38	307.05
463.74	305.22
464.11	303.64
464.48	302.23
464.85	300.65
465.21	299.40
465.58	298.14
465.95	296.64
466.32	295.38
466.68	294.11
467.05	292.90
467.42	291.66
467.78	290.33
468.15	289.13
468.52	288.20
468.88	287.05
469.25	285.98
469.62	285.06
469.98	284.12
470.35	283.26
470.72	282.41
471.08	281.51
471.45	280.75
471.82	279.98
472.18	279.14
472.55	278.51
472.92	277.84
473.28	277.14
473.65	276.54
474.02	275.91
474.38	275.43
474.75	274.96
475.11	274.42
475.48	274.06
475.85	273.72
476.21	273.35
476.58	273.06
476.94	272.82
477.31	272.59
477.67	272.32
478.04	272.07
478.41	271.92
478.77	271.88
479.14	271.73
479.50	271.65
479.87	271.69
480.23	271.73
480.60	271.73
480.96	271.74
481.33	271.93
481.69	272.10
482.06	272.20
482.42	272.32
482.79	272.57
483.15	272.82
483.52	273.18
483.88	273.50
484.25	273.83
484.61	274.20
484.98	274.62
485.34	275.20
485.71	275.76
486.07	276.38
486.44	276.96
486.80	277.68
487.17	278.42
487.53	279.22
487.90	280.09
488.26	281.05
488.62	282.11
488.99	283.09
489.35	284.17
489.72	285.38
490.08	286.66
490.44	287.96
490.81	289.35
491.17	290.79
491.54	292.38
491.90	294.03
492.26	295.77
492.63	297.61
492.99	299.49
493.36	301.51
493.72	303.71
494.08	305.93
494.45	308.33
494.81	310.86
495.17	313.44
495.54	316.18
495.90	319.06
496.26	322.03
496.63	325.16
496.99	328.46
497.35	331.88
497.72	335.51
498.08	339.25
498.44	343.19
498.80	347.34
499.17	351.62
499.53	356.06
499.89	360.73
500.26	365.54
500.62	370.50
500.98	375.80
501.34	381.15
501.71	386.81
502.07	392.66
502.43	398.61
502.79	404.82
503.16	411.23
503.52	417.86
503.88	424.66
504.24	431.68
504.60	438.95
504.97	446.56
505.33	454.35
505.69	462.63
506.05	470.95
506.41	479.38
506.78	488.07
507.14	497.08
507.50	506.36
507.86	515.95
508.22	525.75
508.59	535.56
508.95	545.80
509.31	556.24
509.67	566.98
510.03	578.00
510.39	589.28
510.75	600.88
511.12	612.63
511.48	624.75
511.84	637.04
512.20	649.49
512.56	662.33
512.92	675.39
513.28	688.61
513.64	701.99
514.00	715.68
514.37	729.68
514.73	743.74
515.09	757.81
515.45	772.18
515.81	786.90
516.17	801.99
516.53	817.35
516.89	832.78
517.25	848.06
517.61	863.69
517.97	879.49
518.33	895.13
518.69	911.11
519.05	927.37
519.41	943.91
519.77	960.78
520.13	977.64
520.49	994.41
520.85	1011.24
521.21	1028.31
521.57	1046.07
521.93	1063.26
522.29	1081.10
522.65	1098.98
523.01	1116.67
523.37	1134.28
523.73	1152.03
524.09	1169.63
524.45	1187.45
524.81	1205.82
525.17	1224.21
525.53	1242.79
525.89	1261.49
526.25	1280.21
526.61	1298.44
526.97	1317.00
527.33	1335.30
527.68	1353.55
528.04	1371.88
528.40	1390.21
528.76	1409.28
529.12	1427.67
529.48	1446.57
529.84	1464.54
530.20	1483.00
530.56	1501.98
530.91	1521.47
531.27	1540.29
531.63	1558.80
531.99	1577.46
532.35	1595.37
532.71	1613.54
533.07	1631.81
533.42	1649.72
533.78	1667.82
534.14	1686.11
534.50	1703.65
534.86	1721.68
535.21	1739.11
535.57	1757.20
535.93	1774.95
536.29	1791.86
536.65	1809.09
537.00	1825.88
537.36	1843.34
537.72	1859.98
538.08	1876.72
538.44	1892.68
538.79	1908.71
539.15	1924.53
539.51	1940.51
539.87	1957.30
540.22	1973.09
540.58	1989.13
540.94	2004.60
541.29	2019.67
541.65	2034.66
542.01	2050.16
542.37	2064.72
542.72	2079.41
543.08	2093.58
543.44	2108.27
543.79	2121.85
544.15	2135.16
544.51	2149.24
544.87	2162.52
545.22	2175.73
545.58	2188.12
545.94	2200.10
546.29	2212.25
546.65	2224.40
547.01	2235.83
547.36	2246.61
547.72	2257.37
548.07	2267.36
548.43	2277.64
548.79	2287.83
549.14	2297.41
549.50	2306.66
549.86	2316.47
550.21	2325.84
550.57	2334.99
550.92	2343.55
551.28	2352.55
551.64	2361.70
551.99	2370.03
552.35	2378.14
552.70	2386.24
553.06	2394.25
553.41	2402.31
553.77	2410.16
554.13	2418.21
554.48	2426.27
554.84	2433.68
555.19	2440.58
555.55	2447.62
555.90	2453.98
556.26	2460.62
556.61	2467.00
556.97	2473.12
557.32	2478.81
557.68	2484.71
558.03	2490.67
558.39	2495.93
558.74	2502.38
559.10	2507.71
559.45	2512.93
559.81	2518.71
560.16	2524.06
560.52	2528.69
560.87	2533.69
561.23	2537.72
561.58	2542.07
561.94	2546.17
562.29	2549.75
562.64	2554.07
563.00	2557.83
563.35	2562.68
563.71	2567.15
564.06	2571.85
564.42	2576.09
564.77	2579.92
565.12	2583.47
565.48	2586.56
565.83	2589.78
566.19	2592.19
566.54	2593.96
566.89	2596.17
567.25	2597.90
567.60	2600.27
567.96	2603.21
568.31	2605.08
568.66	2607.41
569.02	2608.82
569.37	2609.80
569.72	2611.68
570.08	2612.56
570.43	2613.46
570.78	2613.70
571.14	2612.64
571.49	2611.76
571.84	2611.97
572.20	2611.64
572.55	2611.09
572.90	2609.86
573.26	2609.00
573.61	2607.64
573.96	2606.61
574.31	2603.93
574.67	2601.17
575.02	2597.70
575.37	2594.23
575.72	2590.58
576.08	2587.20
576.43	2583.93
576.78	2580.47
577.13	2577.39
577.49	2574.12
577.84	2570.54
578.19	2566.56
578.54	2563.04
578.90	2558.90
579.25	2553.11
579.60	2547.69
579.95	2542.37
580.30	2537.13
580.66	2531.61
581.01	2526.33
581.36	2520.96
581.71	2516.63
582.06	2511.97
582.42	2507.31
582.77	2501.81
583.12	2496.98
583.47	2492.00
583.82	2486.63
584.17	2480.91
584.53	2474.93
584.88	2469.01
585.23	2462.86
585.58	2457.06
585.93	2451.12
586.28	2445.80
586.63	2440.33
586.98	2434.78
587.34	2429.66
587.69	2424.32
588.04	2418.53
588.39	2412.26
588.74	2405.17
589.09	2398.40
589.44	2390.88
589.79	2383.95
590.14	2377.66
590.49	2370.22
590.84	2363.07
591.19	2356.38
591.54	2349.24
591.89	2341.08
592.25	2333.42
592.60	2325.23
592.95	2316.65
593.30	2308.21
593.65	2299.58
594.00	2291.43
594.35	2283.24
594.70	2274.05
595.05	2266.02
595.40	2257.65
595.75	2249.13
596.10	2241.99
596.45	2234.15
596.80	2227.09
597.15	2219.76
597.50	2211.90
597.85	2204.43
598.19	2196.73
598.54	2188.65
598.89	2180.90
599.24	2173.92
599.59	2166.35
599.94	2159.21
600.29	2151.85
600.64	2144.24
600.99	2135.70
601.34	2127.98
601.69	2119.95
602.04	2112.09
602.39	2103.51
602.74	2095.55
603.08	2087.60
603.43	2079.73
603.78	2071.24
604.13	2062.85
604.48	2054.33
604.83	2046.16
605.18	2038.14
605.53	2028.86
605.87	2019.42
606.22	2010.89
606.57	2001.55
606.92	1992.72
607.27	1984.43
607.62	1976.39
607.96	1968.09
608.31	1960.45
608.66	1951.45
609.01	1942.60
609.36	1933.65
609.70	1924.18
610.05	1914.81
610.40	1905.85
610.75	1896.10
611.10	1887.03
611.44	1877.04
611.79	1867.53
612.14	1857.26
612.49	1846.45
612.83	1836.57
613.18	1826.96
613.53	1817.41
613.88	1807.41
614.22	1797.83
614.57	1787.57
614.92	1778.19
615.27	1769.21
615.61	1759.34
615.96	1749.89
616.31	1740.82
616.65	1732.16
617.00	1723.16
617.35	1713.90
617.70	1704.09
618.04	1694.05
618.39	1684.44
618.74	1675.49
619.08	1665.68
619.43	1656.60
619.78	1648.47
620.12	1640.10
620.47	1631.28
620.82	1621.60
621.16	1612.76
621.51	1603.64
621.85	1594.65
622.20	1584.56
622.55	1574.65
622.89	1565.36
623.24	1556.28
623.59	1547.43
623.93	1538.58
624.28	1530.14
624.62	1521.36
624.97	1512.88
625.32	1504.82
625.66	1496.45
626.01	1487.98
626.35	1479.31
626.70	1470.25
627.04	1461.07
627.39	1451.80
627.73	1443.03
628.08	1434.82
628.43	1426.36
628.77	1417.74
629.12	1408.85
629.46	1400.35
629.81	1391.46
630.15	1382.90
630.50	1374.24
630.84	1364.62
631.19	1355.21
631.53	1346.41
631.88	1337.60
632.22	1328.64
632.57	1320.09
632.91	1311.26
633.26	1302.63
633.60	1293.91
633.95	1285.62
634.29	1277.29
634.64	1269.45
634.98	1260.84
635.32	1252.50
635.67	1244.63
636.01	1236.87
636.36	1228.86
636.70	1221.20
637.05	1213.52
637.39	1205.96
637.73	1198.36
638.08	1191.42
638.42	1184.28
638.77	1176.71
639.11	1168.85
639.45	1161.34
639.80	1153.45
640.14	1145.95
640.49	1138.27
640.83	1130.86
641.17	1123.45
641.52	1116.02
641.86	1108.40
642.20	1101.55
642.55	1094.16
642.89	1086.67
643.23	1078.91
643.58	1072.19
643.92	1064.93
644.26	1057.96
644.61	1050.76
644.95	1043.72
645.29	1036.05
645.64	1028.26
645.98	1020.80
646.32	1014.06
646.66	1007.07
647.01	1000.48
647.35	993.82
647.69	986.93
648.04	980.50
648.38	973.90
648.72	967.12
649.06	960.18
649.41	953.33
649.75	946.45
650.09	939.54
650.43	932.86
650.78	925.69
651.12	918.82
651.46	912.20
651.80	905.68
652.14	899.41
652.49	893.26
652.83	887.32
653.17	880.79
653.51	874.21
653.85	867.90
654.20	861.31
654.54	854.36
654.88	847.72
655.22	840.82
655.56	834.17
655.90	827.77
656.25	821.67
656.59	815.44
656.93	809.53
657.27	803.59
657.61	797.25
657.95	791.35
658.29	785.42
658.64	779.20
658.98	773.01
659.32	766.61
659.66	760.53
660.00	754.35
660.34	748.54
660.68	742.79
661.02	736.94
661.36	731.46
661.70	726.21
662.05	721.20
662.39	716.25
662.73	711.02
663.07	705.95
663.41	700.78
663.75	695.59
664.09	690.28
664.43	685.18
664.77	680.45
665.11	675.56
665.45	670.82
665.79	666.16
666.13	661.40
666.47	656.70
666.81	651.92
667.15	647.09
667.49	642.57
667.83	638.11
668.17	633.64
668.51	628.99
668.85	624.29
669.19	619.82
669.53	615.38
669.87	610.94
670.21	606.62
670.55	602.39
670.89	598.43
671.23	594.41
671.57	590.33
671.91	586.24
672.25	582.06
672.58	578.00
672.92	574.01
673.26	570.35
673.60	566.71
673.94	563.12
674.28	559.82
674.62	556.40
674.96	552.87
675.30	549.42
675.64	546.07
675.97	542.90
676.31	539.60
676.65	536.24
676.99	533.11
677.33	529.82
677.67	526.57
678.01	523.06
678.34	519.73
678.68	516.40
679.02	513.16
679.36	510.05
679.70	506.89
680.04	503.75
680.37	500.44
680.71	497.20
681.05	494.20
681.39	491.04
681.73	488.01
682.06	485.12
682.40	482.20
682.74	479.27
683.08	476.30
683.42	473.27
683.75	470.42
684.09	467.40
684.43	464.53
684.77	461.68
685.10	458.87
685.44	456.12
685.78	453.48
686.12	450.88
686.45	448.15
686.79	445.48
687.13	442.88
687.46	440.34
687.80	437.81
688.14	435.21
688.48	432.85
688.81	430.24
689.15	427.71
689.49	425.22
689.82	422.78
690.16	420.35
690.50	418.08
690.83	415.77
691.17	413.53
691.51	411.30
691.84	409.14
692.18	406.99
692.52	404.73
692.85	402.46
693.19	400.26
693.52	398.18
693.86	396.07
694.20	394.03
694.53	391.94
694.87	389.79
695.21	387.69
695.54	385.52
695.88	383.49
696.21	381.48
696.55	379.49
696.88	377.51
697.22	375.56
697.56	373.66
697.89	371.74
698.23	369.88
698.56	368.00
698.90	366.13
699.23	364.20
699.57	362.42
699.90	360.64
700.24	358.83
700.58	357.04
700.91	355.29
701.25	353.57
701.58	351.95
701.92	350.36
702.25	348.78
702.59	347.19
702.92	345.69
703.26	344.16
703.59	342.66
703.93	341.25
704.26	339.85
704.60	338.34
704.93	336.85
705.26	335.36
705.60	333.94
705.93	332.61
706.27	331.40
706.60	330.12
706.94	328.85
707.27	327.52
707.61	326.31
707.94	325.10
708.27	323.83
708.61	322.54
708.94	321.36
709.28	320.18
709.61	319.07
709.94	317.91
710.28	316.70
710.61	315.58
710.95	314.37
711.28	313.26
711.61	312.17
711.95	311.13
712.28	310.05
712.61	308.92
712.95	307.81
713.28	306.79
713.61	305.77
713.95	304.72
714.28	303.76
714.61	302.72
714.95	301.77
715.28	300.78
715.61	299.80
715.95	298.78
716.28	297.77
716.61	296.79
716.95	295.84
717.28	294.99
717.61	294.07
717.94	293.19
718.28	292.29
718.61	291.42
718.94	290.61
719.27	289.84
719.61	289.12
719.94	288.39
720.27	287.53
720.60	286.74
720.94	286.00
721.27	285.30
721.60	284.65
721.93	283.94
722.27	283.30
722.60	282.64
722.93	282.01
723.26	281.42
723.59	280.76
723.93	280.13
724.26	279.47
724.59	278.83
724.92	278.25
725.25	277.67
725.59	277.08
725.92	276.45
726.25	275.85
726.58	275.27
726.91	274.63
727.24	274.10
727.57	273.54
727.91	272.92
728.24	272.36
728.57	271.78
728.90	271.24
729.23	270.68
729.56	270.19
729.89	269.64
730.22	269.04
730.55	268.50
730.89	268.02
731.22	267.52
731.55	267.03
731.88	266.48
732.21	265.98
732.54	265.46
732.87	264.95
733.20	264.48
733.53	264.02
733.86	263.61
734.19	263.12
734.52	262.69
734.85	262.35
735.18	261.86
735.51	261.47
735.84	261.04
736.17	260.64
736.50	260.18
736.83	259.89
737.16	259.53
737.49	259.14
737.82	258.69
738.15	258.32
738.48	257.90
738.81	257.53
739.14	257.13
739.47	256.76
739.80	256.40
740.13	256.06
740.46	255.67
740.79	255.30
741.12	254.98
741.45	254.60
741.78	254.23
742.11	253.93
742.44	253.52
742.77	253.18
743.10	252.81
743.43	252.49
743.75	252.03
744.08	251.84
744.41	251.54
744.74	251.23
745.07	250.89
745.40	250.63
745.73	250.34
746.06	250.03
746.39	249.70
746.71	249.40
747.04	249.07
747.37	248.73
747.70	248.42
748.03	248.11
748.36	247.82
748.68	247.52
749.01	247.20
749.34	246.94
749.67	246.64
750.00	246.41
750.33	246.17
750.65	245.97
750.98	245.55
751.31	245.27
751.64	245.00
751.97	244.80
752.29	244.53
752.62	244.22
752.95	243.98
753.28	243.73
753.60	243.48
753.93	243.29
754.26	243.13
754.59	242.89
754.91	242.63
755.24	242.44
755.57	242.21
755.90	242.00
756.22	241.76
756.55	241.52
756.88	241.30
757.20	241.04
757.53	240.79
757.86	240.59
758.19	240.43
758.51	240.23
758.84	239.98
759.17	239.77
759.49	239.61
759.82	239.44
760.15	239.29
760.47	239.14
760.80	238.92
761.13	238.73
761.45	238.53
761.78	238.36
762.11	238.21
762.43	238.04
762.76	237.89
763.08	237.78
763.41	237.65
763.74	237.48
764.06	237.33
764.39	237.18
764.71	237.02
765.04	236.86
765.37	236.70
765.69	236.58
766.02	236.46
766.34	236.29
766.67	236.15
767.00	236.04
767.32	235.95
767.65	235.91
767.97	235.77
768.30	235.68
768.62	235.57
768.95	235.44
769.27	235.32
769.60	235.20
769.92	235.06
770.25	234.93
770.57	234.81
770.90	234.69
771.22	234.55
771.55	234.47
771.87	234.36
772.20	234.30
772.52	234.26
772.85	234.26
773.17	234.21
773.50	234.08
773.82	233.98
774.15	233.80
774.47	233.62
774.80	233.53
775.12	233.43
775.45	233.36
775.77	233.27
776.09	233.19
776.42	233.12
776.74	233.05
777.07	232.96
777.39	232.85
777.72	232.75
778.04	232.70
778.36	232.64
778.69	232.56
779.01	232.48
779.33	232.35
779.66	232.18
779.98	232.05
780.31	232.00
780.63	231.94
780.95	231.90
781.28	231.81
781.60	231.73
781.92	231.68
782.25	231.61
782.57	231.50
782.89	231.41
783.22	231.34
783.54	231.23
783.86	231.15
784.19	231.10
784.51	231.10
784.83	231.01
785.16	230.92
785.48	230.86
785.80	230.80
786.12	230.73
786.45	230.67
786.77	230.62
787.09	230.55
787.42	230.48
787.74	230.43
788.06	230.39
788.38	230.34
788.71	230.24
789.03	230.16
789.35	230.15
789.67	230.09
789.99	230.04
790.32	230.00
790.64	229.95
790.96	229.98
791.28	229.89
791.61	229.84
791.93	229.78
792.25	229.77
792.57	229.76
792.89	229.68
793.21	229.62
793.54	229.60
793.86	229.53
794.18	229.45
794.50	229.39
794.82	229.36
795.14	229.32
795.47	229.29
795.79	229.27
796.11	229.17
796.43	229.14
796.75	229.08
797.07	229.05
797.39	229.00
797.71	228.88
798.04	228.83
798.36	228.80
798.68	228.77
799.00	228.69
799.32	228.62
799.64	228.60
799.96	228.59
800.28	228.55
800.60	228.51
800.92	228.47
801.24	228.43
801.56	228.37
801.89	228.30
802.21	228.28
802.53	228.25
802.85	228.23
803.17	228.23
803.49	228.18
803.81	228.13
804.13	228.12
804.45	228.07
804.77	228.03
805.09	228.01
805.41	227.95
805.73	227.90
806.05	227.86
806.37	227.81
806.69	227.73
807.01	227.69
807.33	227.69
807.65	227.65
807.97	227.64
808.28	227.61
808.60	227.59
808.92	227.54
809.24	227.54
809.56	227.49
809.88	227.43
810.20	227.42
810.52	227.40
810.84	227.35
811.16	227.35
811.48	227.31
811.80	227.29
812.12	227.29
812.43	227.29
812.75	227.28
813.07	227.26
813.39	227.25
813.71	227.23
814.03	227.20
814.35	227.20
814.67	227.17
814.98	227.14
815.30	227.13
815.62	227.12
815.94	227.04
816.26	227.08
816.58	227.06
816.89	227.06
817.21	227.02
817.53	227.00
817.85	227.02
818.17	227.02
818.48	227.00
818.80	226.99
819.12	226.98
819.44	226.93
819.76	226.90
820.07	226.90
820.39	226.91
820.71	226.88
821.03	226.83
821.34	226.79
821.66	226.78
821.98	226.79
822.30	226.78
822.61	226.81
822.93	226.78
823.25	226.76
823.57	226.71
823.88	226.70
824.20	226.68
824.52	226.65
824.83	226.61
825.15	226.56
825.47	226.54
825.79	226.53
826.10	226.54
826.42	226.52
826.74	226.49
827.05	226.46
827.37	226.44
827.69	226.45
828.00	226.44
828.32	226.43
828.64	226.44
828.95	226.51
829.27	226.47
829.58	226.42
829.90	226.44
830.22	226.43
830.53	226.40
830.85	226.40
831.17	226.39
831.48	226.42
831.80	226.40
832.11	226.41
832.43	226.39
832.75	226.34
833.06	226.39
833.38	226.38
833.69	226.37
834.01	226.39
834.32	226.38
834.64	226.39
834.96	226.38
835.27	226.33
835.59	226.24
835.90	226.20
836.22	226.20
836.53	226.14
836.85	226.12
837.16	226.20
837.48	226.21
837.79	226.16
838.11	226.12
838.42	226.16
838.74	226.11
839.05	226.09
839.37	226.11
839.68	226.04
840.00	226.03
840.31	226.01
840.63	225.96
840.94	225.97
841.26	225.94
841.57	225.93
841.88	225.95
842.20	225.94
842.51	225.91
842.83	225.88
843.14	225.97
843.46	225.97
843.77	225.91
844.08	225.90
844.40	225.88
844.71	225.87
845.03	225.82
845.34	225.81
845.65	225.80
845.97	225.77
846.28	225.76
846.60	225.75
846.91	225.71
847.22	225.73
847.54	225.70
847.85	225.70
848.16	225.69
848.48	225.64
848.79	225.68
849.10	225.69
849.42	225.69
849.73	225.60
850.04	225.60
850.36	225.58
850.67	225.58
850.98	225.59
851.30	225.59
851.61	225.61
851.92	225.64
852.23	225.69
852.55	225.69
852.86	225.69
853.17	225.70
853.49	225.72
853.80	225.73
854.11	225.74
854.42	225.73
854.74	225.69
855.05	225.72
855.36	225.67
855.67	225.66
855.99	225.69
856.30	225.81
856.61	225.81
856.92	225.76
857.23	225.75
857.55	225.74
857.86	225.73
858.17	225.72
858.48	225.68
858.79	225.62
859.11	225.63
859.42	225.63
859.73	225.63
860.04	225.65
860.35	225.61
860.66	225.59
860.98	225.61
861.29	225.64
861.60	225.62
861.91	225.66
862.22	225.65
862.53	225.62
862.84	225.52
863.16	225.55
863.47	225.55
863.78	225.57
864.09	225.59
864.40	225.65
864.71	225.67
865.02	225.67
865.33	225.67
865.64	225.68
865.95	225.66
866.27	225.74
866.58	225.75
866.89	225.75
867.20	225.72
867.51	225.72
867.82	225.70
868.13	225.70
868.44	225.65
868.75	225.65
869.06	225.64
869.37	225.63
869.68	225.59
869.99	225.65
870.30	225.66
870.61	225.66
870.92	225.61
871.23	225.59
871.54	225.63
871.85	225.63
872.16	225.63
872.47	225.65
872.78	225.55
873.09	225.55
873.40	225.57
873.71	225.59
874.02	225.57
874.33	225.56
874.64	225.55
874.95	225.58
875.26	225.55
875.56	225.56
875.87	225.54
876.18	225.52
876.49	225.57
876.80	225.52
877.11	225.48
877.42	225.46
877.73	225.43
878.04	225.39
878.35	225.38
878.66	225.37
878.96	225.34
879.27	225.34
879.58	225.31
879.89	225.28
880.20	225.31
880.51	225.33
880.82	225.30
881.12	225.27
881.43	225.24
881.74	225.25
882.05	225.21
882.36	225.22
882.67	225.22
882.97	225.13
883.28	225.11
883.59	225.11
883.90	225.10
884.21	225.12
884.51	225.11
884.82	225.09
885.13	225.09
885.44	225.08
885.74	225.07
886.05	225.07
886.36	225.09
886.67	225.04
886.98	225.06
887.28	225.10
887.59	225.09
887.90	225.07
888.20	225.07
888.51	225.10
888.82	225.10
889.13	225.09
889.43	225.14
889.74	225.12
890.05	225.12
890.35	225.10
890.66	225.10
890.97	225.09
891.28	225.09
891.58	225.06
891.89	225.07
892.20	225.05
892.50	225.02
892.81	225.00
893.12	224.99
893.42	224.94
893.73	224.93
894.04	224.93
894.34	224.98
894.65	224.95
894.95	224.93
895.26	224.95
895.57	224.98
895.87	224.90
896.18	224.92
896.48	224.94
896.79	224.95
897.10	224.94
897.40	224.91
897.71	224.90
898.01	224.92
898.32	224.90
898.63	224.91
898.93	224.91
899.24	224.91
899.54	224.89
899.85	224.90
900.15	224.89
900.46	224.87
900.76	224.86
901.07	224.90
901.38	224.89
901.68	224.88
901.99	224.85
902.29	224.88
902.60	224.88
902.90	224.87
903.21	224.88
903.51	224.89
903.82	224.91
904.12	224.93
904.43	224.94
904.73	224.98
905.03	224.97
905.34	225.09
905.64	225.11
905.95	225.15
906.25	225.14
906.56	225.15
906.86	225.16
907.17	225.16
907.47	225.17
907.77	225.18
908.08	225.16
908.38	225.19
908.69	225.18
908.99	225.19
909.30	225.19
909.60	225.22
909.90	225.23
910.21	225.22
910.51	225.21
910.81	225.20
911.12	225.21
911.42	225.23
911.73	225.11
912.03	225.10
912.33	225.08
912.64	225.08
912.94	225.06
913.24	225.05
913.55	225.06
913.85	225.04
914.15	225.06
914.46	225.06
914.76	225.02
915.06	225.01
915.37	225.00
915.67	224.98
915.97	224.99
916.27	224.97
916.58	224.96
916.88	224.97
917.18	224.99
917.49	225.01
917.79	225.00
918.09	225.03
918.39	225.05
918.70	225.04
919.00	225.04
919.30	225.09
919.60	225.11
919.91	225.05
920.21	225.07
920.51	225.02
920.81	225.03
921.12	225.07
921.42	225.05
921.72	225.05
922.02	225.07
922.32	225.04
922.63	225.04
922.93	225.12
923.23	225.09
923.53	225.07
923.83	225.03
924.13	225.04
924.44	225.04
924.74	225.04
925.04	225.06
925.34	225.08
925.64	225.03
925.94	225.02
926.24	225.08
926.55	225.06
926.85	225.10
927.15	225.06
927.45	225.04
927.75	225.06
928.05	225.05
928.35	225.03
928.65	225.05
928.95	225.02
929.26	224.95
929.56	224.96
929.86	224.97
930.16	224.94
930.46	224.94
930.76	224.94
931.06	224.90
931.36	224.89
931.66	224.88
931.96	224.91
932.26	224.94
932.56	224.88
932.86	224.87
933.16	224.84
933.46	224.87
933.76	224.86
934.06	224.88
934.36	224.92
934.66	224.92
934.96	224.89
935.26	224.91
935.56	224.91
935.86	224.87
936.16	224.87
936.46	224.89
936.76	224.89
937.06	224.91
937.36	224.92
937.66	224.92
937.96	224.91
938.26	224.86
938.56	224.86
938.86	224.89
939.16	224.91
939.46	224.95
939.76	224.95
940.06	224.95
940.35	224.93
940.65	224.88
940.95	224.88
941.25	224.89
941.55	224.90
941.85	224.93
942.15	224.95
942.45	224.94
942.75	224.92
943.04	224.94
943.34	224.92
943.64	224.89
943.94	224.88
944.24	224.88
944.54	224.90
944.84	224.93
945.13	224.89
945.43	224.87
945.73	224.86
946.03	224.86
946.33	224.84
946.62	224.81
946.92	224.80
947.22	224.78
947.52	224.80
947.82	224.78
948.11	224.80
948.41	224.81
948.71	224.79
949.01	224.79
949.31	224.79
949.60	224.79
949.90	224.82
950.20	224.82
950.50	224.80
950.79	224.80
951.09	224.77
951.39	224.81
951.69	224.79
951.98	224.79
952.28	224.78
952.58	224.79
952.87	224.83
953.17	224.86
953.47	224.87
953.76	224.87
954.06	224.86
954.36	224.82
954.66	224.84
954.95	224.87
955.25	224.87
955.55	224.84
955.84	224.80
956.14	224.82
956.44	224.81
956.73	224.82
957.03	224.80
957.32	224.80
957.62	224.77
957.92	224.82
958.21	224.83
958.51	224.95
958.81	224.95
959.10	224.97
959.40	224.96
959.69	224.96
959.99	224.97
960.29	224.97
960.58	224.97
960.88	225.01
961.17	224.99
961.47	224.97
961.76	224.96
962.06	224.97
962.36	224.94
962.65	224.94
962.95	224.92
963.24	224.92
963.54	224.92
963.83	224.93
964.13	224.94
964.42	224.92
964.72	224.82
965.01	224.81
965.31	224.79
965.60	224.74
965.90	224.80
966.19	224.76
966.49	224.75
966.78	224.75
967.08	224.71
967.37	224.75
967.67	224.74
967.96	224.74
968.26	224.74
968.55	224.76
968.85	224.78
969.14	224.77
969.43	224.79
969.73	224.77
970.02	224.77
970.32	224.74
970.61	224.73
970.91	224.69
971.20	224.68
971.49	224.66
971.79	224.66
972.08	224.59
972.38	224.61
972.67	224.60
972.96	224.61
973.26	224.56
973.55	224.58
973.85	224.62
974.14	224.65
974.43	224.66
974.73	224.63
975.02	224.62
975.31	224.65
975.61	224.66
975.90	224.66
976.19	224.69
976.49	224.69
976.78	224.71
977.07	224.73
977.37	224.75
977.66	224.77
977.95	224.78
978.24	224.83
978.54	224.83
978.83	224.85
979.12	224.87
979.42	224.88
979.71	224.88
980.00	224.88
980.29	224.88
980.59	224.86
980.88	224.90
981.17	224.90
981.46	224.90
981.76	224.90
982.05	224.93
982.34	224.89
982.63	224.90
982.93	224.93
983.22	224.97
983.51	224.98
983.80	225.02
984.09	225.04
984.39	225.01
984.68	225.05
984.97	225.06
985.26	225.03
985.55	225.09
985.85	225.01
986.14	225.01
986.43	225.00
986.72	225.05
987.01	225.03
987.30	225.05
987.59	225.05
987.89	225.03
988.18	225.03
988.47	225.06
988.76	225.03
989.05	224.99
989.34	224.96
989.63	225.02
989.92	224.98
990.22	224.99
990.51	224.99
990.80	224.94
991.09	224.94
991.38	224.93
991.67	224.91
991.96	224.92
992.25	224.94
992.54	224.95
992.83	224.91
993.12	224.88
993.41	224.86
993.70	224.90
993.99	224.93
994.28	224.92
994.58	224.90
994.87	224.90
995.16	224.85
995.45	224.87
995.74	224.81
996.03	224.83
996.32	224.82
996.61	224.90
996.90	224.93
997.19	224.93
997.48	224.95
997.77	224.92
998.06	224.94
998.34	224.92
998.63	224.92
998.92	224.92
999.21	224.93
999.50	224.93
999.79	224.89
1000.08	224.89
1000.37	224.88
1000.66	224.87
1000.95	224.89
1001.24	224.94
1001.53	224.93
1001.82	224.92
1002.11	224.90
1002.40	224.92
1002.68	224.87
1002.97	224.92
1003.26	224.91
1003.55	224.91
1003.84	224.93
1004.13	224.93
1004.42	224.96
1004.71	224.93
1004.99	224.96
1005.28	224.99
1005.57	225.00
1005.86	224.99
1006.15	224.97
1006.44	224.97
1006.72	225.00
1007.01	225.01
1007.30	224.99
1007.59	224.97
1007.88	224.98
1008.17	224.99
1008.45	224.94
1008.74	224.94
1009.03	224.89
1009.32	224.88
1009.60	224.87
1009.89	224.89
1010.18	224.87
1010.47	224.84
1010.76	224.85
1011.04	224.81
1011.33	224.81
1011.62	224.81
1011.91	224.82
1012.19	224.84
1012.48	224.83
1012.77	224.80
1013.05	224.87
1013.34	224.86
1013.63	224.88
1013.92	224.87
1014.20	224.88
1014.49	224.91
1014.78	224.89
1015.06	224.85
1015.35	224.85
1015.64	224.85
1015.92	224.84
1016.21	224.84
1016.50	224.84
1016.78	224.85
1017.07	224.90
1017.36	224.89
1017.64	224.90
1017.93	224.90
1018.22	224.87
1018.50	224.85
1018.79	224.85
1019.08	224.77
1019.36	224.81
1019.65	224.80
1019.93	224.85
1020.22	224.86
1020.51	224.90
1020.79	224.91
1021.08	224.63
1021.36	224.08
1021.65	224.80
1021.94	224.83
1022.22	225.13
1022.51	224.82
1022.79	225.58
1023.08	225.11
1023.36	226.36
1023.65	224.70
>>>>>End Processed Spectral Data<<<<<
