SpectraSuite Data File
++++++++++++++++++++++++++++++++++++
Date: Fri Feb 01 16:31:28 EST 2013
User: group
Dark Spectrum Present: No
Reference Spectrum Present: No
Number of Sampled Component Spectra: 1
Spectrometers: USB2E7196
Integration Time (usec): 35000 (USB2E7196)
Spectra Averaged: 100 (USB2E7196)
Boxcar Smoothing: 10 (USB2E7196)
Correct for Electrical Dark: No (USB2E7196)
Strobe/Lamp Enabled: No (USB2E7196)
Correct for Detector Non-linearity: No (USB2E7196)
Correct for Stray Light: No (USB2E7196)
Number of Pixels in Processed Spectrum: 2048
>>>>>Begin Processed Spectral Data<<<<<
339.09	0.00
339.48	214.27
339.86	215.94
340.24	217.22
340.63	218.24
341.01	220.92
341.39	221.20
341.78	222.30
342.16	223.56
342.54	223.67
342.93	212.48
343.31	223.22
343.69	223.76
344.07	224.21
344.46	224.63
344.84	225.00
345.22	225.24
345.60	225.48
345.99	225.65
346.37	225.78
346.75	225.88
347.13	225.94
347.52	225.99
347.90	226.08
348.28	226.10
348.66	226.13
349.05	226.09
349.43	226.13
349.81	226.17
350.19	226.19
350.57	226.25
350.96	226.32
351.34	226.39
351.72	226.46
352.10	226.55
352.48	226.63
352.87	226.69
353.25	226.75
353.63	226.81
354.01	226.90
354.39	226.97
354.77	227.06
355.15	227.16
355.54	227.24
355.92	227.27
356.30	227.34
356.68	227.49
357.06	227.61
357.44	227.64
357.82	227.69
358.20	227.76
358.58	227.82
358.97	227.89
359.35	227.97
359.73	228.04
360.11	228.09
360.49	228.10
360.87	228.15
361.25	228.20
361.63	228.26
362.01	228.32
362.39	228.35
362.77	228.39
363.15	228.42
363.53	228.43
363.91	228.46
364.29	228.48
364.67	228.38
365.05	228.38
365.43	228.38
365.81	228.40
366.19	228.45
366.57	228.49
366.95	228.48
367.33	228.46
367.71	228.43
368.09	228.46
368.47	228.45
368.85	228.42
369.23	228.41
369.61	228.36
369.99	228.32
370.37	228.28
370.75	228.31
371.13	228.26
371.51	228.20
371.89	228.14
372.27	228.08
372.65	228.04
373.03	227.99
373.41	227.99
373.78	227.92
374.16	227.80
374.54	227.70
374.92	227.64
375.30	227.55
375.68	227.45
376.06	227.37
376.44	227.29
376.82	227.24
377.19	227.17
377.57	227.09
377.95	227.03
378.33	226.95
378.71	226.82
379.09	226.74
379.47	226.70
379.84	226.64
380.22	226.59
380.60	226.49
380.98	226.39
381.36	226.29
381.73	226.20
382.11	226.21
382.49	226.12
382.87	226.04
383.25	226.00
383.62	226.08
384.00	226.03
384.38	225.99
384.76	225.94
385.13	225.92
385.51	225.87
385.89	225.79
386.27	225.76
386.64	225.74
387.02	225.72
387.40	225.70
387.78	225.67
388.15	225.63
388.53	225.63
388.91	225.64
389.29	225.61
389.66	225.64
390.04	225.58
390.42	225.56
390.79	225.58
391.17	225.55
391.55	225.42
391.92	225.40
392.30	225.39
392.68	225.39
393.05	225.42
393.43	225.43
393.81	225.45
394.18	225.45
394.56	225.46
394.94	225.47
395.31	225.48
395.69	225.54
396.06	225.60
396.44	225.64
396.82	225.64
397.19	225.72
397.57	225.73
397.95	225.79
398.32	225.85
398.70	225.87
399.07	225.98
399.45	226.07
399.82	226.13
400.20	226.21
400.58	226.26
400.95	226.30
401.33	226.40
401.70	226.57
402.08	226.66
402.45	226.75
402.83	226.86
403.20	226.96
403.58	227.03
403.95	227.13
404.33	227.26
404.71	227.40
405.08	227.56
405.46	227.67
405.83	227.82
406.21	227.96
406.58	228.12
406.96	228.25
407.33	228.44
407.70	228.63
408.08	228.91
408.45	229.13
408.83	229.36
409.20	229.56
409.58	229.71
409.95	229.96
410.33	230.24
410.70	230.49
411.08	230.78
411.45	231.11
411.82	231.43
412.20	231.76
412.57	232.15
412.95	232.46
413.32	232.91
413.69	233.32
414.07	233.74
414.44	234.19
414.82	234.66
415.19	235.17
415.56	235.74
415.94	236.27
416.31	236.92
416.68	237.55
417.06	238.28
417.43	238.98
417.81	239.75
418.18	240.48
418.55	241.34
418.93	242.18
419.30	243.07
419.67	244.00
420.04	244.95
420.42	245.94
420.79	247.11
421.16	248.27
421.54	249.43
421.91	250.63
422.28	251.91
422.66	253.24
423.03	254.56
423.40	255.88
423.77	257.30
424.15	258.70
424.52	260.16
424.89	261.75
425.26	263.30
425.64	264.73
426.01	266.39
426.38	268.03
426.75	269.72
427.13	271.42
427.50	273.23
427.87	275.14
428.24	277.01
428.61	278.74
428.99	280.66
429.36	282.78
429.73	284.87
430.10	286.87
430.47	288.91
430.85	291.01
431.22	293.21
431.59	295.51
431.96	297.76
432.33	300.25
432.70	302.59
433.08	305.35
433.45	308.03
433.82	310.56
434.19	313.41
434.56	316.20
434.93	318.83
435.30	321.44
435.68	324.26
436.05	327.08
436.42	329.87
436.79	332.37
437.16	335.08
437.53	337.88
437.90	340.67
438.27	343.40
438.64	346.22
439.01	348.81
439.38	351.09
439.75	353.20
440.13	355.67
440.50	358.01
440.87	359.86
441.24	361.71
441.61	363.84
441.98	365.32
442.35	367.12
442.72	369.00
443.09	370.76
443.46	371.72
443.83	372.27
444.20	372.76
444.57	373.62
444.94	373.87
445.31	374.17
445.68	374.52
446.05	374.61
446.42	374.20
446.79	373.74
447.16	373.29
447.53	373.00
447.90	371.84
448.27	370.63
448.64	369.07
449.01	367.96
449.37	366.02
449.74	364.19
450.11	361.92
450.48	359.42
450.85	356.89
451.22	354.84
451.59	352.80
451.96	350.86
452.33	348.23
452.70	345.91
453.07	343.13
453.43	340.27
453.80	337.52
454.17	334.87
454.54	332.40
454.91	329.66
455.28	326.99
455.65	324.52
456.02	322.15
456.38	320.02
456.75	317.40
457.12	315.14
457.49	312.87
457.86	310.74
458.23	308.89
458.59	306.87
458.96	304.75
459.33	302.92
459.70	301.11
460.07	299.60
460.43	297.89
460.80	296.25
461.17	294.83
461.54	293.35
461.91	291.91
462.27	290.44
462.64	289.24
463.01	287.91
463.38	286.63
463.74	285.25
464.11	284.09
464.48	283.07
464.85	282.01
465.21	281.13
465.58	280.21
465.95	279.11
466.32	278.19
466.68	277.34
467.05	276.49
467.42	275.58
467.78	274.67
468.15	273.80
468.52	273.14
468.88	272.28
469.25	271.50
469.62	270.93
469.98	270.27
470.35	269.60
470.72	268.99
471.08	268.32
471.45	267.79
471.82	267.24
472.18	266.65
472.55	266.21
472.92	265.70
473.28	265.25
473.65	264.84
474.02	264.46
474.38	264.08
474.75	263.75
475.11	263.42
475.48	263.19
475.85	263.00
476.21	262.83
476.58	262.66
476.94	262.54
477.31	262.35
477.67	262.20
478.04	262.12
478.41	262.07
478.77	262.12
479.14	262.07
479.50	262.11
479.87	262.21
480.23	262.30
480.60	262.41
480.96	262.52
481.33	262.74
481.69	262.93
482.06	263.12
482.42	263.31
482.79	263.57
483.15	263.83
483.52	264.21
483.88	264.49
484.25	264.86
484.61	265.25
484.98	265.72
485.34	266.29
485.71	266.89
486.07	267.50
486.44	268.10
486.80	268.79
487.17	269.53
487.53	270.31
487.90	271.14
488.26	272.12
488.62	273.11
488.99	274.09
489.35	275.15
489.72	276.32
490.08	277.55
490.44	278.86
490.81	280.24
491.17	281.55
491.54	283.06
491.90	284.64
492.26	286.31
492.63	288.07
492.99	289.85
493.36	291.75
493.72	293.82
494.08	295.92
494.45	298.23
494.81	300.59
495.17	303.00
495.54	305.63
495.90	308.29
496.26	311.14
496.63	314.10
496.99	317.21
497.35	320.45
497.72	323.86
498.08	327.35
498.44	331.03
498.80	335.01
499.17	339.09
499.53	343.26
499.89	347.70
500.26	352.26
500.62	356.99
500.98	361.99
501.34	367.10
501.71	372.42
502.07	377.89
502.43	383.57
502.79	389.45
503.16	395.52
503.52	401.84
503.88	408.20
504.24	414.88
504.60	421.80
504.97	428.95
505.33	436.31
505.69	444.04
506.05	451.86
506.41	459.75
506.78	467.90
507.14	476.36
507.50	485.14
507.86	494.12
508.22	503.31
508.59	512.53
508.95	522.10
509.31	531.97
509.67	542.04
510.03	552.26
510.39	562.79
510.75	573.59
511.12	584.49
511.48	595.88
511.84	607.33
512.20	618.81
512.56	630.72
512.92	642.87
513.28	655.18
513.64	667.65
514.00	680.33
514.37	693.30
514.73	706.40
515.09	719.35
515.45	732.65
515.81	746.17
516.17	760.07
516.53	774.12
516.89	788.31
517.25	802.41
517.61	816.79
517.97	831.24
518.33	845.66
518.69	860.38
519.05	875.17
519.41	890.28
519.77	905.74
520.13	921.12
520.49	936.38
520.85	951.78
521.21	967.37
521.57	983.51
521.93	999.15
522.29	1015.44
522.65	1031.61
523.01	1047.74
523.37	1063.63
523.73	1079.74
524.09	1095.77
524.45	1111.89
524.81	1128.53
525.17	1145.29
525.53	1162.04
525.89	1178.82
526.25	1195.55
526.61	1211.81
526.97	1228.49
527.33	1244.95
527.68	1261.42
528.04	1277.86
528.40	1294.35
528.76	1311.32
529.12	1327.86
529.48	1344.64
529.84	1360.54
530.20	1377.05
530.56	1393.92
530.91	1411.25
531.27	1427.98
531.63	1444.36
531.99	1460.87
532.35	1476.49
532.71	1492.28
533.07	1508.50
533.42	1524.29
533.78	1540.28
534.14	1556.63
534.50	1571.87
534.86	1587.74
535.21	1602.82
535.57	1618.52
535.93	1633.86
536.29	1648.55
536.65	1663.41
537.00	1678.00
537.36	1693.19
537.72	1707.69
538.08	1722.00
538.44	1735.72
538.79	1749.40
539.15	1762.98
539.51	1776.53
539.87	1790.99
540.22	1804.64
540.58	1818.27
540.94	1831.33
541.29	1844.14
541.65	1856.66
542.01	1869.76
542.37	1881.83
542.72	1894.12
543.08	1905.92
543.44	1918.20
543.79	1929.28
544.15	1940.22
544.51	1951.75
544.87	1962.46
545.22	1973.10
545.58	1983.19
545.94	1992.93
546.29	2002.72
546.65	2012.55
547.01	2021.77
547.36	2030.33
547.72	2038.67
548.07	2046.30
548.43	2054.62
548.79	2062.49
549.14	2069.88
549.50	2077.09
549.86	2084.68
550.21	2092.02
550.57	2099.23
550.92	2105.69
551.28	2112.73
551.64	2119.81
551.99	2126.44
552.35	2132.59
552.70	2138.68
553.06	2144.74
553.41	2151.06
553.77	2156.97
554.13	2162.95
554.48	2169.12
554.84	2174.63
555.19	2180.00
555.55	2185.30
555.90	2189.67
556.26	2194.50
556.61	2199.28
556.97	2203.58
557.32	2207.64
557.68	2211.74
558.03	2215.91
558.39	2219.76
558.74	2224.41
559.10	2228.20
559.45	2231.72
559.81	2236.25
560.16	2240.16
560.52	2243.31
560.87	2246.74
561.23	2249.51
561.58	2252.55
561.94	2254.99
562.29	2257.35
562.64	2259.94
563.00	2262.47
563.35	2265.88
563.71	2269.00
564.06	2272.25
564.42	2275.11
564.77	2277.80
565.12	2280.15
565.48	2281.97
565.83	2283.81
566.19	2285.15
566.54	2286.23
566.89	2287.47
567.25	2287.99
567.60	2289.27
567.96	2291.24
568.31	2292.08
568.66	2293.38
569.02	2293.92
569.37	2294.44
569.72	2295.29
570.08	2295.48
570.43	2295.73
570.78	2295.29
571.14	2293.94
571.49	2292.62
571.84	2292.40
572.20	2291.36
572.55	2290.38
572.90	2289.11
573.26	2287.89
573.61	2286.31
573.96	2284.48
574.31	2281.60
574.67	2278.78
575.02	2275.21
575.37	2271.57
575.72	2267.78
576.08	2264.41
576.43	2261.21
576.78	2257.62
577.13	2254.58
577.49	2251.59
577.84	2248.03
578.19	2244.43
578.54	2240.89
578.90	2236.92
579.25	2231.47
579.60	2226.52
579.95	2221.65
580.30	2216.64
580.66	2211.60
581.01	2206.63
581.36	2201.92
581.71	2197.85
582.06	2193.34
582.42	2188.92
582.77	2183.86
583.12	2179.48
583.47	2174.93
583.82	2169.91
584.17	2164.69
584.53	2159.30
584.88	2153.82
585.23	2148.22
585.58	2142.83
585.93	2137.42
586.28	2132.58
586.63	2127.61
586.98	2122.62
587.34	2117.91
587.69	2113.07
588.04	2107.82
588.39	2102.23
588.74	2095.86
589.09	2089.77
589.44	2083.00
589.79	2077.26
590.14	2071.78
590.49	2065.22
590.84	2058.85
591.19	2052.96
591.54	2046.47
591.89	2039.26
592.25	2032.50
592.60	2025.24
592.95	2017.73
593.30	2010.50
593.65	2002.91
594.00	1995.81
594.35	1988.69
594.70	1980.72
595.05	1973.57
595.40	1966.30
595.75	1958.97
596.10	1952.74
596.45	1946.01
596.80	1939.94
597.15	1933.20
597.50	1926.07
597.85	1919.66
598.19	1912.98
598.54	1905.69
598.89	1899.25
599.24	1893.22
599.59	1886.62
599.94	1880.55
600.29	1874.21
600.64	1867.60
600.99	1860.32
601.34	1853.58
601.69	1846.60
602.04	1839.83
602.39	1832.56
602.74	1825.74
603.08	1818.99
603.43	1812.20
603.78	1804.86
604.13	1797.73
604.48	1790.39
604.83	1783.59
605.18	1776.73
605.53	1768.85
605.87	1761.14
606.22	1753.91
606.57	1746.10
606.92	1738.72
607.27	1731.59
607.62	1724.75
607.96	1717.51
608.31	1710.89
608.66	1703.27
609.01	1695.72
609.36	1688.09
609.70	1680.00
610.05	1671.98
610.40	1664.25
610.75	1655.96
611.10	1648.39
611.44	1639.93
611.79	1632.10
612.14	1623.32
612.49	1614.08
612.83	1605.55
613.18	1597.46
613.53	1589.30
613.88	1580.71
614.22	1572.45
614.57	1563.74
614.92	1555.69
615.27	1548.19
615.61	1539.80
615.96	1531.81
616.31	1524.20
616.65	1516.82
617.00	1509.23
617.35	1501.50
617.70	1493.16
618.04	1484.66
618.39	1476.34
618.74	1468.70
619.08	1460.33
619.43	1452.83
619.78	1446.01
620.12	1438.88
620.47	1431.34
620.82	1423.15
621.16	1415.77
621.51	1408.23
621.85	1400.70
622.20	1392.19
622.55	1383.70
622.89	1375.89
623.24	1368.18
623.59	1360.76
623.93	1353.32
624.28	1346.16
624.62	1338.60
624.97	1331.53
625.32	1324.82
625.66	1317.94
626.01	1310.85
626.35	1303.39
626.70	1295.63
627.04	1287.80
627.39	1280.09
627.73	1272.55
628.08	1265.62
628.43	1258.25
628.77	1250.81
629.12	1243.23
629.46	1236.01
629.81	1228.61
630.15	1221.37
630.50	1214.12
630.84	1205.89
631.19	1197.98
631.53	1190.48
631.88	1183.07
632.22	1175.33
632.57	1167.99
632.91	1160.38
633.26	1152.90
633.60	1145.56
633.95	1138.43
634.29	1131.37
634.64	1124.66
634.98	1117.35
635.32	1110.20
635.67	1103.57
636.01	1096.94
636.36	1090.06
636.70	1083.57
637.05	1076.98
637.39	1070.58
637.73	1064.03
638.08	1058.12
638.42	1052.04
638.77	1045.53
639.11	1038.90
639.45	1032.56
639.80	1025.85
640.14	1019.41
640.49	1012.89
640.83	1006.58
641.17	1000.30
641.52	993.98
641.86	987.49
642.20	981.68
642.55	975.36
642.89	968.87
643.23	962.36
643.58	956.67
643.92	950.45
644.26	944.46
644.61	938.33
644.95	932.18
645.29	925.73
645.64	919.02
645.98	912.74
646.32	906.92
646.66	900.90
647.01	895.19
647.35	889.45
647.69	883.61
648.04	878.14
648.38	872.45
648.72	866.44
649.06	860.41
649.41	854.47
649.75	848.51
650.09	842.60
650.43	836.77
650.78	830.68
651.12	824.78
651.46	819.03
651.80	813.28
652.14	807.94
652.49	802.52
652.83	797.39
653.17	791.67
653.51	785.93
653.85	780.48
654.20	774.82
654.54	768.82
654.88	763.09
655.22	757.08
655.56	751.46
655.90	746.05
656.25	740.78
656.59	735.41
656.93	730.32
657.27	725.14
657.61	719.69
657.95	714.49
658.29	709.40
658.64	704.13
658.98	698.86
659.32	693.42
659.66	688.16
660.00	682.77
660.34	677.86
660.68	672.89
661.02	667.87
661.36	663.16
661.70	658.70
662.05	654.36
662.39	650.10
662.73	645.52
663.07	641.14
663.41	636.76
663.75	632.27
664.09	627.72
664.43	623.32
664.77	619.24
665.11	614.98
665.45	610.83
665.79	606.74
666.13	602.58
666.47	598.45
666.81	594.33
667.15	590.22
667.49	586.29
667.83	582.54
668.17	578.60
668.51	574.51
668.85	570.45
669.19	566.61
669.53	562.80
669.87	558.98
670.21	555.25
670.55	551.55
670.89	548.12
671.23	544.65
671.57	541.05
671.91	537.44
672.25	533.93
672.58	530.37
672.92	526.98
673.26	523.78
673.60	520.66
673.94	517.50
674.28	514.64
674.62	511.66
674.96	508.53
675.30	505.61
675.64	502.63
675.97	499.87
676.31	496.95
676.65	493.92
676.99	491.17
677.33	488.33
677.67	485.48
678.01	482.41
678.34	479.47
678.68	476.64
679.02	473.80
679.36	471.02
679.70	468.32
680.04	465.53
680.37	462.68
680.71	459.88
681.05	457.29
681.39	454.49
681.73	451.88
682.06	449.33
682.40	446.74
682.74	444.26
683.08	441.69
683.42	439.09
683.75	436.62
684.09	434.03
684.43	431.58
684.77	429.13
685.10	426.83
685.44	424.51
685.78	422.24
686.12	420.03
686.45	417.73
686.79	415.47
687.13	413.26
687.46	411.11
687.80	408.95
688.14	406.73
688.48	404.68
688.81	402.42
689.15	400.19
689.49	398.11
689.82	396.04
690.16	393.96
690.50	392.01
690.83	390.03
691.17	388.08
691.51	386.14
691.84	384.32
692.18	382.36
692.52	380.39
692.85	378.48
693.19	376.58
693.52	374.79
693.86	372.94
694.20	371.14
694.53	369.32
694.87	367.50
695.21	365.70
695.54	363.88
695.88	362.12
696.21	360.47
696.55	358.80
696.88	357.10
697.22	355.45
697.56	353.82
697.89	352.19
698.23	350.59
698.56	348.98
698.90	347.41
699.23	345.75
699.57	344.22
699.90	342.67
700.24	341.11
700.58	339.59
700.91	338.10
701.25	336.66
701.58	335.29
701.92	333.90
702.25	332.53
702.59	331.16
702.92	329.87
703.26	328.58
703.59	327.25
703.93	326.07
704.26	324.82
704.60	323.53
704.93	322.28
705.26	321.01
705.60	319.82
705.93	318.62
706.27	317.61
706.60	316.52
706.94	315.46
707.27	314.37
707.61	313.27
707.94	312.24
708.27	311.15
708.61	310.09
708.94	309.04
709.28	308.02
709.61	307.06
709.94	306.09
710.28	305.06
710.61	304.11
710.95	303.01
711.28	302.10
711.61	301.13
711.95	300.20
712.28	299.24
712.61	298.28
712.95	297.35
713.28	296.48
713.61	295.55
713.95	294.66
714.28	293.82
714.61	292.95
714.95	292.11
715.28	291.25
715.61	290.36
715.95	289.53
716.28	288.69
716.61	287.88
716.95	287.05
717.28	286.27
717.61	285.46
717.94	284.71
718.28	283.93
718.61	283.22
718.94	282.55
719.27	281.91
719.61	281.28
719.94	280.61
720.27	279.87
720.60	279.22
720.94	278.60
721.27	277.98
721.60	277.45
721.93	276.84
722.27	276.32
722.60	275.81
722.93	275.20
723.26	274.68
723.59	274.08
723.93	273.51
724.26	273.02
724.59	272.47
724.92	271.98
725.25	271.48
725.59	271.00
725.92	270.48
726.25	269.98
726.58	269.48
726.91	268.98
727.24	268.52
727.57	268.01
727.91	267.52
728.24	267.10
728.57	266.58
728.90	266.13
729.23	265.63
729.56	265.21
729.89	264.80
730.22	264.28
730.55	263.82
730.89	263.39
731.22	262.93
731.55	262.55
731.88	262.13
732.21	261.67
732.54	261.21
732.87	260.77
733.20	260.37
733.53	259.98
733.86	259.62
734.19	259.22
734.52	258.88
734.85	258.54
735.18	258.11
735.51	257.77
735.84	257.37
736.17	257.04
736.50	256.60
736.83	256.36
737.16	256.06
737.49	255.73
737.82	255.38
738.15	255.05
738.48	254.68
738.81	254.30
739.14	254.00
739.47	253.70
739.80	253.43
740.13	253.10
740.46	252.76
740.79	252.43
741.12	252.14
741.45	251.78
741.78	251.43
742.11	251.12
742.44	250.77
742.77	250.48
743.10	250.15
743.43	249.82
743.75	249.41
744.08	249.23
744.41	248.96
744.74	248.71
745.07	248.38
745.40	248.13
745.73	247.92
746.06	247.61
746.39	247.33
746.71	247.01
747.04	246.73
747.37	246.44
747.70	246.19
748.03	245.90
748.36	245.70
748.68	245.45
749.01	245.16
749.34	244.96
749.67	244.73
750.00	244.51
750.33	244.39
750.65	244.15
750.98	243.76
751.31	243.55
751.64	243.32
751.97	243.17
752.29	242.94
752.62	242.67
752.95	242.47
753.28	242.21
753.60	241.98
753.93	241.83
754.26	241.62
754.59	241.37
754.91	241.18
755.24	240.95
755.57	240.78
755.90	240.61
756.22	240.37
756.55	240.13
756.88	239.95
757.20	239.72
757.53	239.52
757.86	239.40
758.19	239.20
758.51	239.03
758.84	238.79
759.17	238.64
759.49	238.48
759.82	238.35
760.15	238.23
760.47	238.09
760.80	237.89
761.13	237.76
761.45	237.64
761.78	237.52
762.11	237.38
762.43	237.21
762.76	237.09
763.08	236.97
763.41	236.87
763.74	236.72
764.06	236.57
764.39	236.45
764.71	236.31
765.04	236.19
765.37	236.03
765.69	235.94
766.02	235.81
766.34	235.68
766.67	235.54
767.00	235.43
767.32	235.38
767.65	235.32
767.97	235.23
768.30	235.15
768.62	235.00
768.95	234.90
769.27	234.82
769.60	234.73
769.92	234.62
770.25	234.49
770.57	234.38
770.90	234.28
771.22	234.20
771.55	234.09
771.87	233.97
772.20	233.89
772.52	233.91
772.85	233.93
773.17	233.83
773.50	233.73
773.82	233.63
774.15	233.49
774.47	233.35
774.80	233.22
775.12	233.13
775.45	233.07
775.77	233.01
776.09	232.93
776.42	232.86
776.74	232.83
777.07	232.75
777.39	232.69
777.72	232.60
778.04	232.55
778.36	232.44
778.69	232.41
779.01	232.33
779.33	232.17
779.66	231.99
779.98	231.91
780.31	231.86
780.63	231.80
780.95	231.76
781.28	231.67
781.60	231.64
781.92	231.55
782.25	231.45
782.57	231.37
782.89	231.26
783.22	231.20
783.54	231.12
783.86	231.10
784.19	231.04
784.51	231.03
784.83	230.93
785.16	230.91
785.48	230.82
785.80	230.77
786.12	230.69
786.45	230.63
786.77	230.61
787.09	230.56
787.42	230.50
787.74	230.46
788.06	230.43
788.38	230.39
788.71	230.33
789.03	230.31
789.35	230.27
789.67	230.22
789.99	230.17
790.32	230.09
790.64	230.04
790.96	230.09
791.28	230.01
791.61	229.98
791.93	229.96
792.25	229.93
792.57	229.97
792.89	229.92
793.21	229.91
793.54	229.86
793.86	229.82
794.18	229.78
794.50	229.73
794.82	229.67
795.14	229.64
795.47	229.61
795.79	229.55
796.11	229.54
796.43	229.53
796.75	229.53
797.07	229.52
797.39	229.50
797.71	229.40
798.04	229.35
798.36	229.35
798.68	229.33
799.00	229.31
799.32	229.24
799.64	229.24
799.96	229.22
800.28	229.18
800.60	229.15
800.92	229.11
801.24	229.08
801.56	229.07
801.89	229.06
802.21	229.06
802.53	229.06
802.85	229.04
803.17	229.08
803.49	229.01
803.81	228.97
804.13	228.95
804.45	228.90
804.77	228.89
805.09	228.83
805.41	228.81
805.73	228.77
806.05	228.75
806.37	228.70
806.69	228.64
807.01	228.63
807.33	228.61
807.65	228.61
807.97	228.61
808.28	228.63
808.60	228.57
808.92	228.54
809.24	228.58
809.56	228.53
809.88	228.47
810.20	228.43
810.52	228.43
810.84	228.39
811.16	228.39
811.48	228.38
811.80	228.42
812.12	228.37
812.43	228.39
812.75	228.38
813.07	228.36
813.39	228.35
813.71	228.29
814.03	228.23
814.35	228.22
814.67	228.17
814.98	228.10
815.30	228.09
815.62	228.05
815.94	227.96
816.26	227.98
816.58	227.93
816.89	227.97
817.21	227.94
817.53	227.93
817.85	227.90
818.17	227.86
818.48	227.80
818.80	227.78
819.12	227.73
819.44	227.68
819.76	227.66
820.07	227.65
820.39	227.66
820.71	227.70
821.03	227.65
821.34	227.60
821.66	227.62
821.98	227.61
822.30	227.59
822.61	227.62
822.93	227.56
823.25	227.55
823.57	227.47
823.88	227.46
824.20	227.44
824.52	227.43
824.83	227.43
825.15	227.38
825.47	227.37
825.79	227.36
826.10	227.32
826.42	227.30
826.74	227.28
827.05	227.26
827.37	227.24
827.69	227.19
828.00	227.23
828.32	227.18
828.64	227.13
828.95	227.17
829.27	227.14
829.58	227.13
829.90	227.13
830.22	227.14
830.53	227.09
830.85	227.04
831.17	227.02
831.48	227.02
831.80	227.00
832.11	226.99
832.43	227.00
832.75	227.01
833.06	227.04
833.38	227.01
833.69	227.00
834.01	227.02
834.32	227.03
834.64	226.98
834.96	226.97
835.27	227.01
835.59	226.97
835.90	226.94
836.22	226.93
836.53	226.89
836.85	226.86
837.16	226.97
837.48	226.96
837.79	226.95
838.11	226.93
838.42	226.93
838.74	226.91
839.05	226.86
839.37	226.83
839.68	226.78
840.00	226.76
840.31	226.76
840.63	226.72
840.94	226.69
841.26	226.67
841.57	226.64
841.88	226.63
842.20	226.62
842.51	226.62
842.83	226.62
843.14	226.73
843.46	226.74
843.77	226.67
844.08	226.69
844.40	226.68
844.71	226.65
845.03	226.65
845.34	226.68
845.65	226.69
845.97	226.70
846.28	226.69
846.60	226.68
846.91	226.69
847.22	226.72
847.54	226.76
847.85	226.80
848.16	226.86
848.48	226.85
848.79	226.89
849.10	226.91
849.42	226.92
849.73	226.86
850.04	226.87
850.36	226.81
850.67	226.86
850.98	226.85
851.30	226.90
851.61	226.89
851.92	226.85
852.23	226.90
852.55	226.91
852.86	226.94
853.17	226.95
853.49	226.94
853.80	226.93
854.11	226.95
854.42	226.95
854.74	226.92
855.05	226.91
855.36	226.86
855.67	226.80
855.99	226.78
856.30	226.84
856.61	226.84
856.92	226.87
857.23	226.84
857.55	226.82
857.86	226.81
858.17	226.86
858.48	226.86
858.79	226.83
859.11	226.84
859.42	226.83
859.73	226.81
860.04	226.83
860.35	226.78
860.66	226.74
860.98	226.70
861.29	226.70
861.60	226.70
861.91	226.72
862.22	226.74
862.53	226.73
862.84	226.62
863.16	226.62
863.47	226.60
863.78	226.56
864.09	226.58
864.40	226.57
864.71	226.52
865.02	226.52
865.33	226.49
865.64	226.46
865.95	226.45
866.27	226.51
866.58	226.44
866.89	226.47
867.20	226.43
867.51	226.40
867.82	226.40
868.13	226.45
868.44	226.41
868.75	226.42
869.06	226.41
869.37	226.43
869.68	226.39
869.99	226.39
870.30	226.39
870.61	226.39
870.92	226.36
871.23	226.36
871.54	226.38
871.85	226.40
872.16	226.41
872.47	226.43
872.78	226.37
873.09	226.40
873.40	226.38
873.71	226.41
874.02	226.44
874.33	226.40
874.64	226.37
874.95	226.39
875.26	226.34
875.56	226.35
875.87	226.33
876.18	226.29
876.49	226.42
876.80	226.41
877.11	226.41
877.42	226.39
877.73	226.38
878.04	226.37
878.35	226.37
878.66	226.39
878.96	226.39
879.27	226.37
879.58	226.35
879.89	226.36
880.20	226.40
880.51	226.37
880.82	226.38
881.12	226.36
881.43	226.32
881.74	226.31
882.05	226.29
882.36	226.30
882.67	226.35
882.97	226.19
883.28	226.22
883.59	226.21
883.90	226.23
884.21	226.23
884.51	226.21
884.82	226.18
885.13	226.19
885.44	226.18
885.74	226.17
886.05	226.20
886.36	226.21
886.67	226.16
886.98	226.23
887.28	226.24
887.59	226.23
887.90	226.23
888.20	226.26
888.51	226.30
888.82	226.28
889.13	226.29
889.43	226.44
889.74	226.39
890.05	226.37
890.35	226.37
890.66	226.37
890.97	226.39
891.28	226.38
891.58	226.35
891.89	226.35
892.20	226.37
892.50	226.34
892.81	226.34
893.12	226.32
893.42	226.28
893.73	226.28
894.04	226.26
894.34	226.27
894.65	226.23
894.95	226.20
895.26	226.20
895.57	226.22
895.87	226.11
896.18	226.11
896.48	226.11
896.79	226.08
897.10	226.07
897.40	226.05
897.71	226.07
898.01	226.04
898.32	226.01
898.63	225.98
898.93	225.97
899.24	225.97
899.54	225.97
899.85	225.96
900.15	225.97
900.46	226.00
900.76	226.00
901.07	226.04
901.38	226.03
901.68	226.04
901.99	225.99
902.29	225.98
902.60	225.99
902.90	225.98
903.21	226.00
903.51	225.99
903.82	225.97
904.12	225.96
904.43	226.00
904.73	226.01
905.03	226.04
905.34	226.08
905.64	226.06
905.95	226.08
906.25	226.03
906.56	226.00
906.86	225.98
907.17	225.96
907.47	225.94
907.77	225.92
908.08	225.86
908.38	225.83
908.69	225.84
908.99	225.88
909.30	225.86
909.60	225.83
909.90	225.86
910.21	225.85
910.51	225.83
910.81	225.82
911.12	225.80
911.42	225.82
911.73	225.76
912.03	225.76
912.33	225.76
912.64	225.79
912.94	225.80
913.24	225.78
913.55	225.80
913.85	225.77
914.15	225.81
914.46	225.87
914.76	225.86
915.06	225.84
915.37	225.76
915.67	225.78
915.97	225.77
916.27	225.74
916.58	225.76
916.88	225.77
917.18	225.75
917.49	225.83
917.79	225.78
918.09	225.82
918.39	225.83
918.70	225.85
919.00	225.83
919.30	225.87
919.60	225.87
919.91	225.86
920.21	225.88
920.51	225.87
920.81	225.88
921.12	225.94
921.42	225.95
921.72	225.99
922.02	225.99
922.32	226.04
922.63	226.04
922.93	226.10
923.23	226.14
923.53	226.11
923.83	226.08
924.13	226.11
924.44	226.11
924.74	226.15
925.04	226.17
925.34	226.18
925.64	226.15
925.94	226.17
926.24	226.23
926.55	226.21
926.85	226.20
927.15	226.19
927.45	226.19
927.75	226.20
928.05	226.22
928.35	226.25
928.65	226.26
928.95	226.30
929.26	226.26
929.56	226.24
929.86	226.28
930.16	226.27
930.46	226.28
930.76	226.27
931.06	226.22
931.36	226.20
931.66	226.22
931.96	226.22
932.26	226.21
932.56	226.17
932.86	226.17
933.16	226.21
933.46	226.20
933.76	226.15
934.06	226.15
934.36	226.17
934.66	226.15
934.96	226.14
935.26	226.11
935.56	226.11
935.86	226.09
936.16	226.10
936.46	226.06
936.76	226.02
937.06	226.04
937.36	226.05
937.66	226.03
937.96	226.00
938.26	225.97
938.56	225.95
938.86	225.98
939.16	225.98
939.46	225.97
939.76	225.99
940.06	226.02
940.35	226.02
940.65	225.96
940.95	225.97
941.25	225.95
941.55	225.92
941.85	225.92
942.15	225.94
942.45	225.92
942.75	225.94
943.04	225.95
943.34	225.95
943.64	225.94
943.94	225.94
944.24	225.95
944.54	225.96
944.84	226.00
945.13	225.97
945.43	225.97
945.73	225.92
946.03	225.86
946.33	225.84
946.62	225.82
946.92	225.82
947.22	225.83
947.52	225.81
947.82	225.84
948.11	225.84
948.41	225.81
948.71	225.81
949.01	225.78
949.31	225.77
949.60	225.77
949.90	225.77
950.20	225.76
950.50	225.77
950.79	225.75
951.09	225.73
951.39	225.72
951.69	225.73
951.98	225.76
952.28	225.80
952.58	225.77
952.87	225.75
953.17	225.78
953.47	225.74
953.76	225.74
954.06	225.72
954.36	225.71
954.66	225.70
954.95	225.72
955.25	225.76
955.55	225.76
955.84	225.73
956.14	225.73
956.44	225.76
956.73	225.76
957.03	225.80
957.32	225.77
957.62	225.80
957.92	225.79
958.21	225.82
958.51	225.91
958.81	225.95
959.10	225.98
959.40	225.99
959.69	226.00
959.99	226.06
960.29	226.05
960.58	226.03
960.88	226.09
961.17	226.10
961.47	226.11
961.76	226.12
962.06	226.20
962.36	226.17
962.65	226.19
962.95	226.17
963.24	226.15
963.54	226.20
963.83	226.15
964.13	226.17
964.42	226.11
964.72	226.06
965.01	226.06
965.31	226.04
965.60	226.03
965.90	226.11
966.19	226.06
966.49	226.08
966.78	226.08
967.08	226.08
967.37	226.06
967.67	226.05
967.96	226.07
968.26	226.00
968.55	226.04
968.85	226.01
969.14	225.99
969.43	226.01
969.73	225.98
970.02	226.03
970.32	226.02
970.61	226.05
970.91	226.01
971.20	225.99
971.49	226.01
971.79	226.03
972.08	225.95
972.38	225.97
972.67	225.95
972.96	225.98
973.26	225.93
973.55	225.96
973.85	225.92
974.14	225.92
974.43	225.94
974.73	225.93
975.02	225.92
975.31	225.96
975.61	225.94
975.90	225.94
976.19	225.91
976.49	225.91
976.78	225.92
977.07	225.94
977.37	225.97
977.66	225.97
977.95	225.95
978.24	225.96
978.54	225.96
978.83	225.96
979.12	225.96
979.42	225.99
979.71	225.96
980.00	225.97
980.29	225.94
980.59	225.94
980.88	225.93
981.17	225.90
981.46	225.89
981.76	225.88
982.05	225.90
982.34	225.93
982.63	225.93
982.93	225.90
983.22	225.90
983.51	225.88
983.80	225.87
984.09	225.88
984.39	225.88
984.68	225.85
984.97	225.87
985.26	225.82
985.55	225.82
985.85	225.81
986.14	225.81
986.43	225.84
986.72	225.82
987.01	225.78
987.30	225.81
987.59	225.76
987.89	225.77
988.18	225.75
988.47	225.73
988.76	225.70
989.05	225.72
989.34	225.73
989.63	225.76
989.92	225.74
990.22	225.74
990.51	225.74
990.80	225.75
991.09	225.73
991.38	225.80
991.67	225.79
991.96	225.81
992.25	225.81
992.54	225.79
992.83	225.79
993.12	225.81
993.41	225.85
993.70	225.91
993.99	225.94
994.28	225.94
994.58	225.97
994.87	225.97
995.16	225.95
995.45	225.93
995.74	225.92
996.03	225.93
996.32	225.93
996.61	225.93
996.90	225.93
997.19	225.94
997.48	225.95
997.77	225.94
998.06	225.91
998.34	225.91
998.63	225.90
998.92	225.89
999.21	225.90
999.50	225.90
999.79	225.88
1000.08	225.86
1000.37	225.88
1000.66	225.84
1000.95	225.89
1001.24	225.91
1001.53	225.90
1001.82	225.88
1002.11	225.89
1002.40	225.90
1002.68	225.95
1002.97	226.02
1003.26	226.02
1003.55	225.94
1003.84	225.97
1004.13	226.03
1004.42	226.04
1004.71	226.06
1004.99	226.07
1005.28	226.11
1005.57	226.11
1005.86	226.10
1006.15	226.12
1006.44	226.10
1006.72	226.12
1007.01	226.08
1007.30	226.05
1007.59	226.05
1007.88	226.05
1008.17	226.04
1008.45	226.00
1008.74	225.94
1009.03	225.89
1009.32	225.88
1009.60	225.92
1009.89	225.87
1010.18	225.80
1010.47	225.83
1010.76	225.85
1011.04	225.83
1011.33	225.83
1011.62	225.83
1011.91	225.83
1012.19	225.85
1012.48	225.86
1012.77	225.85
1013.05	225.92
1013.34	225.96
1013.63	225.98
1013.92	225.97
1014.20	225.97
1014.49	225.99
1014.78	226.01
1015.06	225.96
1015.35	225.98
1015.64	225.99
1015.92	226.02
1016.21	226.05
1016.50	225.98
1016.78	225.99
1017.07	225.99
1017.36	225.92
1017.64	225.91
1017.93	225.92
1018.22	225.88
1018.50	225.85
1018.79	225.84
1019.08	225.77
1019.36	225.77
1019.65	225.74
1019.93	225.79
1020.22	225.81
1020.51	225.87
1020.79	225.84
1021.08	225.60
1021.36	225.65
1021.65	225.63
1021.94	225.68
1022.22	225.83
1022.51	225.81
1022.79	226.47
1023.08	226.13
1023.36	227.03
1023.65	225.18
>>>>>End Processed Spectral Data<<<<<
