SpectraSuite Data File
++++++++++++++++++++++++++++++++++++
Date: Fri Feb 01 15:00:43 EST 2013
User: group
Dark Spectrum Present: No
Reference Spectrum Present: No
Number of Sampled Component Spectra: 1
Spectrometers: USB2E7196
Integration Time (usec): 35000 (USB2E7196)
Spectra Averaged: 100 (USB2E7196)
Boxcar Smoothing: 10 (USB2E7196)
Correct for Electrical Dark: No (USB2E7196)
Strobe/Lamp Enabled: No (USB2E7196)
Correct for Detector Non-linearity: No (USB2E7196)
Correct for Stray Light: No (USB2E7196)
Number of Pixels in Processed Spectrum: 2048
>>>>>Begin Processed Spectral Data<<<<<
339.09	0.00
339.48	215.12
339.86	216.93
340.24	218.21
340.63	219.48
341.01	222.52
341.39	221.99
341.78	223.57
342.16	224.71
342.54	225.95
342.93	213.74
343.31	224.54
343.69	225.10
344.07	225.54
344.46	225.94
344.84	226.33
345.22	226.58
345.60	226.85
345.99	227.01
346.37	227.13
346.75	227.23
347.13	227.28
347.52	227.31
347.90	227.40
348.28	227.40
348.66	227.42
349.05	227.45
349.43	227.46
349.81	227.50
350.19	227.55
350.57	227.60
350.96	227.68
351.34	227.75
351.72	227.84
352.10	227.93
352.48	228.02
352.87	228.06
353.25	228.12
353.63	228.18
354.01	228.26
354.39	228.35
354.77	228.38
355.15	228.45
355.54	228.53
355.92	228.58
356.30	228.62
356.68	228.75
357.06	228.81
357.44	228.86
357.82	228.91
358.20	228.94
358.58	229.00
358.97	229.06
359.35	229.13
359.73	229.16
360.11	229.21
360.49	229.26
360.87	229.30
361.25	229.35
361.63	229.45
362.01	229.48
362.39	229.52
362.77	229.55
363.15	229.58
363.53	229.59
363.91	229.61
364.29	229.62
364.67	229.53
365.05	229.51
365.43	229.51
365.81	229.51
366.19	229.59
366.57	229.61
366.95	229.61
367.33	229.59
367.71	229.59
368.09	229.61
368.47	229.58
368.85	229.59
369.23	229.57
369.61	229.45
369.99	229.45
370.37	229.39
370.75	229.40
371.13	229.34
371.51	229.31
371.89	229.24
372.27	229.19
372.65	229.16
373.03	229.10
373.41	229.07
373.78	228.98
374.16	228.89
374.54	228.80
374.92	228.70
375.30	228.60
375.68	228.52
376.06	228.46
376.44	228.37
376.82	228.27
377.19	228.18
377.57	228.12
377.95	228.02
378.33	227.95
378.71	227.85
379.09	227.82
379.47	227.75
379.84	227.68
380.22	227.59
380.60	227.52
380.98	227.42
381.36	227.33
381.73	227.25
382.11	227.18
382.49	227.12
382.87	227.05
383.25	227.00
383.62	227.06
384.00	226.95
384.38	226.92
384.76	226.88
385.13	226.86
385.51	226.80
385.89	226.77
386.27	226.73
386.64	226.68
387.02	226.63
387.40	226.55
387.78	226.54
388.15	226.55
388.53	226.51
388.91	226.51
389.29	226.46
389.66	226.46
390.04	226.42
390.42	226.44
390.79	226.44
391.17	226.45
391.55	226.34
391.92	226.36
392.30	226.36
392.68	226.34
393.05	226.36
393.43	226.37
393.81	226.36
394.18	226.35
394.56	226.39
394.94	226.43
395.31	226.47
395.69	226.52
396.06	226.56
396.44	226.60
396.82	226.65
397.19	226.77
397.57	226.82
397.95	226.91
398.32	226.94
398.70	227.00
399.07	227.12
399.45	227.16
399.82	227.25
400.20	227.33
400.58	227.48
400.95	227.54
401.33	227.63
401.70	227.79
402.08	227.95
402.45	228.01
402.83	228.13
403.20	228.25
403.58	228.37
403.95	228.50
404.33	228.64
404.71	228.79
405.08	228.98
405.46	229.14
405.83	229.28
406.21	229.44
406.58	229.60
406.96	229.71
407.33	229.89
407.70	230.09
408.08	230.35
408.45	230.52
408.83	230.76
409.20	230.99
409.58	231.18
409.95	231.42
410.33	231.70
410.70	231.93
411.08	232.24
411.45	232.53
411.82	232.86
412.20	233.21
412.57	233.61
412.95	233.89
413.32	234.29
413.69	234.72
414.07	235.17
414.44	235.64
414.82	236.16
415.19	236.73
415.56	237.26
415.94	237.81
416.31	238.47
416.68	239.08
417.06	239.79
417.43	240.48
417.81	241.27
418.18	242.10
418.55	242.96
418.93	243.84
419.30	244.73
419.67	245.63
420.04	246.59
420.42	247.57
420.79	248.76
421.16	249.91
421.54	251.09
421.91	252.30
422.28	253.54
422.66	254.82
423.03	256.10
423.40	257.43
423.77	258.81
424.15	260.23
424.52	261.73
424.89	263.34
425.26	264.90
425.64	266.34
426.01	267.86
426.38	269.46
426.75	271.13
427.13	272.84
427.50	274.65
427.87	276.54
428.24	278.39
428.61	280.10
428.99	282.02
429.36	284.11
429.73	286.18
430.10	288.22
430.47	290.31
430.85	292.41
431.22	294.65
431.59	297.07
431.96	299.29
432.33	301.77
432.70	304.17
433.08	306.98
433.45	309.59
433.82	312.23
434.19	315.16
434.56	318.01
434.93	320.68
435.30	323.36
435.68	326.23
436.05	329.09
436.42	331.91
436.79	334.44
437.16	337.16
437.53	339.98
437.90	342.79
438.27	345.54
438.64	348.41
439.01	351.02
439.38	353.27
439.75	355.44
440.13	357.93
440.50	360.27
440.87	362.11
441.24	364.05
441.61	366.21
441.98	367.68
442.35	369.45
442.72	371.29
443.09	373.06
443.46	374.07
443.83	374.67
444.20	375.21
444.57	376.05
444.94	376.34
445.31	376.68
445.68	377.06
446.05	377.07
446.42	376.68
446.79	376.24
447.16	375.79
447.53	375.41
447.90	374.24
448.27	373.07
448.64	371.49
449.01	370.37
449.37	368.39
449.74	366.50
450.11	364.26
450.48	361.82
450.85	359.30
451.22	357.16
451.59	355.07
451.96	353.13
452.33	350.52
452.70	348.14
453.07	345.34
453.43	342.44
453.80	339.74
454.17	337.10
454.54	334.57
454.91	331.83
455.28	329.20
455.65	326.73
456.02	324.30
456.38	322.18
456.75	319.50
457.12	317.26
457.49	315.04
457.86	312.84
458.23	310.98
458.59	308.90
458.96	306.84
459.33	305.02
459.70	303.16
460.07	301.68
460.43	299.94
460.80	298.29
461.17	296.85
461.54	295.32
461.91	293.88
462.27	292.42
462.64	291.22
463.01	289.88
463.38	288.59
463.74	287.17
464.11	286.00
464.48	284.97
464.85	283.86
465.21	282.96
465.58	282.04
465.95	280.93
466.32	280.04
466.68	279.09
467.05	278.17
467.42	277.26
467.78	276.30
468.15	275.42
468.52	274.75
468.88	273.85
469.25	273.09
469.62	272.42
469.98	271.72
470.35	271.02
470.72	270.41
471.08	269.74
471.45	269.23
471.82	268.63
472.18	268.02
472.55	267.55
472.92	267.02
473.28	266.59
473.65	266.15
474.02	265.67
474.38	265.30
474.75	264.97
475.11	264.60
475.48	264.30
475.85	264.07
476.21	263.83
476.58	263.65
476.94	263.48
477.31	263.31
477.67	263.15
478.04	263.02
478.41	262.93
478.77	262.94
479.14	262.82
479.50	262.86
479.87	262.93
480.23	263.00
480.60	263.08
480.96	263.16
481.33	263.37
481.69	263.57
482.06	263.77
482.42	263.95
482.79	264.19
483.15	264.48
483.52	264.86
483.88	265.16
484.25	265.54
484.61	265.97
484.98	266.43
485.34	267.00
485.71	267.60
486.07	268.21
486.44	268.80
486.80	269.52
487.17	270.24
487.53	271.06
487.90	271.93
488.26	272.87
488.62	273.85
488.99	274.77
489.35	275.81
489.72	276.93
490.08	278.12
490.44	279.37
490.81	280.74
491.17	282.09
491.54	283.64
491.90	285.21
492.26	286.84
492.63	288.53
492.99	290.29
493.36	292.15
493.72	294.16
494.08	296.26
494.45	298.49
494.81	300.80
495.17	303.20
495.54	305.70
495.90	308.45
496.26	311.22
496.63	314.21
496.99	317.28
497.35	320.55
497.72	323.95
498.08	327.47
498.44	331.18
498.80	335.08
499.17	339.03
499.53	343.17
499.89	347.49
500.26	351.99
500.62	356.63
500.98	361.61
501.34	366.67
501.71	371.93
502.07	377.37
502.43	382.98
502.79	388.79
503.16	394.90
503.52	401.08
503.88	407.44
504.24	414.07
504.60	420.93
504.97	428.00
505.33	435.33
505.69	442.98
506.05	450.65
506.41	458.44
506.78	466.58
507.14	474.96
507.50	483.70
507.86	492.77
508.22	501.91
508.59	511.01
508.95	520.64
509.31	530.38
509.67	540.44
510.03	550.69
510.39	561.24
510.75	572.03
511.12	582.99
511.48	594.33
511.84	605.74
512.20	617.27
512.56	629.24
512.92	641.39
513.28	653.65
513.64	666.14
514.00	678.93
514.37	691.86
514.73	704.95
515.09	717.97
515.45	731.26
515.81	744.95
516.17	759.03
516.53	773.08
516.89	787.40
517.25	801.62
517.61	816.08
517.97	830.51
518.33	844.92
518.69	859.68
519.05	874.69
519.41	889.96
519.77	905.56
520.13	920.99
520.49	936.37
520.85	951.94
521.21	967.74
521.57	984.02
521.93	999.87
522.29	1016.29
522.65	1032.63
523.01	1048.82
523.37	1064.84
523.73	1081.04
524.09	1097.17
524.45	1113.45
524.81	1130.16
525.17	1147.07
525.53	1164.08
525.89	1181.00
526.25	1197.89
526.61	1214.37
526.97	1231.06
527.33	1247.63
527.68	1264.25
528.04	1280.75
528.40	1297.45
528.76	1314.65
529.12	1331.36
529.48	1348.31
529.84	1364.38
530.20	1380.99
530.56	1398.13
530.91	1415.61
531.27	1432.50
531.63	1449.10
531.99	1465.82
532.35	1481.84
532.71	1497.77
533.07	1514.10
533.42	1530.14
533.78	1546.22
534.14	1562.49
534.50	1577.95
534.86	1593.85
535.21	1609.21
535.57	1625.37
535.93	1640.93
536.29	1655.75
536.65	1670.90
537.00	1685.76
537.36	1701.26
537.72	1716.03
538.08	1730.51
538.44	1744.57
538.79	1758.63
539.15	1772.39
539.51	1786.24
539.87	1800.73
540.22	1814.64
540.58	1828.46
540.94	1841.98
541.29	1855.12
541.65	1867.98
542.01	1881.38
542.37	1893.69
542.72	1906.24
543.08	1918.09
543.44	1930.50
543.79	1941.74
544.15	1952.74
544.51	1964.48
544.87	1975.39
545.22	1986.14
545.58	1996.41
545.94	2006.05
546.29	2015.93
546.65	2025.80
547.01	2034.98
547.36	2043.78
547.72	2052.31
548.07	2060.29
548.43	2068.33
548.79	2076.41
549.14	2084.04
549.50	2091.35
549.86	2099.31
550.21	2106.53
550.57	2113.62
550.92	2120.25
551.28	2127.29
551.64	2134.29
551.99	2140.73
552.35	2146.92
552.70	2153.02
553.06	2158.94
553.41	2165.23
553.77	2171.21
554.13	2177.33
554.48	2183.49
554.84	2188.80
555.19	2194.03
555.55	2199.08
555.90	2203.61
556.26	2208.24
556.61	2212.74
556.97	2216.91
557.32	2220.90
557.68	2225.04
558.03	2229.44
558.39	2233.02
558.74	2237.70
559.10	2241.50
559.45	2245.00
559.81	2249.38
560.16	2253.27
560.52	2256.43
560.87	2259.88
561.23	2262.45
561.58	2265.39
561.94	2267.81
562.29	2270.15
562.64	2272.67
563.00	2275.19
563.35	2278.57
563.71	2281.77
564.06	2285.02
564.42	2287.79
564.77	2289.96
565.12	2292.03
565.48	2293.69
565.83	2295.57
566.19	2296.66
566.54	2297.68
566.89	2298.72
567.25	2299.01
567.60	2300.31
567.96	2301.92
568.31	2302.69
568.66	2303.58
569.02	2303.97
569.37	2304.19
569.72	2304.69
570.08	2304.68
570.43	2304.50
570.78	2303.59
571.14	2301.80
571.49	2300.33
571.84	2299.89
572.20	2298.58
572.55	2297.42
572.90	2295.77
573.26	2294.19
573.61	2292.47
573.96	2290.33
574.31	2287.31
574.67	2284.26
575.02	2280.39
575.37	2276.85
575.72	2272.74
576.08	2269.32
576.43	2265.76
576.78	2261.95
577.13	2258.78
577.49	2255.66
577.84	2252.18
578.19	2248.50
578.54	2244.68
578.90	2240.26
579.25	2234.61
579.60	2229.71
579.95	2224.66
580.30	2219.41
580.66	2214.04
581.01	2208.91
581.36	2203.96
581.71	2199.62
582.06	2195.00
582.42	2190.26
582.77	2184.86
583.12	2180.12
583.47	2175.30
583.82	2170.27
584.17	2164.82
584.53	2159.41
584.88	2153.56
585.23	2147.56
585.58	2141.89
585.93	2136.51
586.28	2131.64
586.63	2126.36
586.98	2121.09
587.34	2116.24
587.69	2111.23
588.04	2105.83
588.39	2100.10
588.74	2093.53
589.09	2087.27
589.44	2080.30
589.79	2074.30
590.14	2068.62
590.49	2062.07
590.84	2055.55
591.19	2049.36
591.54	2042.90
591.89	2035.13
592.25	2028.19
592.60	2020.80
592.95	2013.09
593.30	2005.60
593.65	1997.85
594.00	1990.81
594.35	1983.56
594.70	1975.36
595.05	1968.11
595.40	1960.79
595.75	1953.07
596.10	1946.63
596.45	1939.63
596.80	1933.40
597.15	1926.55
597.50	1919.36
597.85	1912.90
598.19	1906.08
598.54	1898.81
598.89	1892.10
599.24	1886.26
599.59	1879.53
599.94	1873.42
600.29	1867.06
600.64	1860.40
600.99	1852.83
601.34	1845.79
601.69	1838.82
602.04	1832.01
602.39	1824.60
602.74	1817.69
603.08	1810.98
603.43	1804.33
603.78	1797.21
604.13	1789.97
604.48	1782.69
604.83	1775.76
605.18	1768.64
605.53	1760.65
605.87	1752.68
606.22	1745.37
606.57	1737.36
606.92	1730.00
607.27	1722.70
607.62	1715.76
607.96	1708.36
608.31	1701.75
608.66	1694.23
609.01	1686.61
609.36	1678.97
609.70	1671.04
610.05	1663.09
610.40	1655.48
610.75	1647.13
611.10	1639.50
611.44	1631.28
611.79	1623.38
612.14	1614.70
612.49	1605.64
612.83	1597.36
613.18	1589.38
613.53	1581.42
613.88	1572.95
614.22	1564.91
614.57	1556.34
614.92	1548.33
615.27	1540.86
615.61	1532.65
615.96	1524.71
616.31	1517.11
616.65	1509.84
617.00	1502.19
617.35	1494.38
617.70	1486.02
618.04	1477.50
618.39	1469.24
618.74	1461.51
619.08	1453.26
619.43	1445.75
619.78	1438.86
620.12	1431.68
620.47	1424.12
620.82	1416.00
621.16	1408.64
621.51	1400.93
621.85	1393.51
622.20	1385.06
622.55	1376.73
622.89	1368.96
623.24	1361.38
623.59	1354.06
623.93	1346.56
624.28	1339.51
624.62	1332.06
624.97	1324.80
625.32	1318.14
625.66	1311.05
626.01	1303.93
626.35	1296.50
626.70	1288.75
627.04	1280.95
627.39	1273.29
627.73	1265.87
628.08	1258.87
628.43	1251.59
628.77	1244.14
629.12	1236.58
629.46	1229.48
629.81	1222.11
630.15	1214.84
630.50	1207.50
630.84	1199.29
631.19	1191.37
631.53	1183.89
631.88	1176.48
632.22	1169.01
632.57	1161.83
632.91	1154.48
633.26	1147.20
633.60	1139.90
633.95	1132.95
634.29	1126.08
634.64	1119.41
634.98	1112.14
635.32	1105.11
635.67	1098.67
636.01	1092.21
636.36	1085.40
636.70	1078.94
637.05	1072.43
637.39	1066.04
637.73	1059.54
638.08	1053.74
638.42	1047.82
638.77	1041.43
639.11	1034.81
639.45	1028.50
639.80	1021.79
640.14	1015.40
640.49	1008.74
640.83	1002.51
641.17	996.30
641.52	989.97
641.86	983.55
642.20	977.74
642.55	971.46
642.89	965.02
643.23	958.50
643.58	952.76
643.92	946.58
644.26	940.51
644.61	934.62
644.95	928.57
645.29	922.01
645.64	915.24
645.98	908.94
646.32	903.28
646.66	897.30
647.01	891.59
647.35	885.86
647.69	880.18
648.04	874.72
648.38	868.88
648.72	862.86
649.06	856.84
649.41	850.99
649.75	844.92
650.09	838.90
650.43	833.07
650.78	826.90
651.12	820.92
651.46	815.26
651.80	809.43
652.14	804.05
652.49	798.74
652.83	793.66
653.17	787.95
653.51	782.12
653.85	776.71
654.20	771.08
654.54	765.02
654.88	759.37
655.22	753.47
655.56	747.85
655.90	742.48
656.25	737.27
656.59	731.97
656.93	726.97
657.27	721.84
657.61	716.50
657.95	711.45
658.29	706.40
658.64	701.16
658.98	695.92
659.32	690.51
659.66	685.28
660.00	679.98
660.34	675.08
660.68	670.28
661.02	665.23
661.36	660.58
661.70	656.19
662.05	651.79
662.39	647.49
662.73	643.08
663.07	638.72
663.41	634.30
663.75	629.75
664.09	625.28
664.43	620.93
664.77	616.82
665.11	612.58
665.45	608.56
665.79	604.52
666.13	600.39
666.47	596.32
666.81	592.17
667.15	588.10
667.49	584.25
667.83	580.40
668.17	576.51
668.51	572.46
668.85	568.47
669.19	564.64
669.53	560.74
669.87	556.90
670.21	553.23
670.55	549.61
670.89	546.25
671.23	542.88
671.57	539.42
671.91	535.91
672.25	532.49
672.58	529.00
672.92	525.61
673.26	522.48
673.60	519.44
673.94	516.37
674.28	513.49
674.62	510.53
674.96	507.47
675.30	504.56
675.64	501.58
675.97	498.81
676.31	496.03
676.65	493.19
676.99	490.49
677.33	487.65
677.67	484.84
678.01	481.78
678.34	478.77
678.68	475.98
679.02	473.15
679.36	470.40
679.70	467.65
680.04	464.96
680.37	462.04
680.71	459.20
681.05	456.64
681.39	453.90
681.73	451.31
682.06	448.79
682.40	446.30
682.74	443.84
683.08	441.35
683.42	438.69
683.75	436.19
684.09	433.65
684.43	431.18
684.77	428.75
685.10	426.46
685.44	424.19
685.78	421.90
686.12	419.69
686.45	417.42
686.79	415.14
687.13	412.92
687.46	410.86
687.80	408.79
688.14	406.54
688.48	404.53
688.81	402.23
689.15	400.14
689.49	397.99
689.82	395.94
690.16	393.80
690.50	391.82
690.83	389.88
691.17	387.92
691.51	386.04
691.84	384.18
692.18	382.29
692.52	380.28
692.85	378.34
693.19	376.49
693.52	374.66
693.86	372.86
694.20	371.12
694.53	369.29
694.87	367.43
695.21	365.68
695.54	363.84
695.88	362.16
696.21	360.41
696.55	358.74
696.88	357.04
697.22	355.43
697.56	353.87
697.89	352.22
698.23	350.62
698.56	349.02
698.90	347.43
699.23	345.75
699.57	344.23
699.90	342.70
700.24	341.14
700.58	339.59
700.91	338.10
701.25	336.62
701.58	335.27
701.92	333.88
702.25	332.50
702.59	331.16
702.92	329.86
703.26	328.54
703.59	327.27
703.93	326.13
704.26	324.89
704.60	323.58
704.93	322.28
705.26	321.07
705.60	319.91
705.93	318.79
706.27	317.81
706.60	316.80
706.94	315.70
707.27	314.57
707.61	313.54
707.94	312.51
708.27	311.47
708.61	310.41
708.94	309.41
709.28	308.45
709.61	307.51
709.94	306.61
710.28	305.63
710.61	304.67
710.95	303.59
711.28	302.68
711.61	301.76
711.95	300.90
712.28	299.93
712.61	298.97
712.95	298.05
713.28	297.17
713.61	296.27
713.95	295.42
714.28	294.61
714.61	293.80
714.95	292.97
715.28	292.12
715.61	291.29
715.95	290.47
716.28	289.65
716.61	288.80
716.95	287.94
717.28	287.17
717.61	286.39
717.94	285.67
718.28	284.90
718.61	284.18
718.94	283.50
719.27	282.85
719.61	282.20
719.94	281.55
720.27	280.81
720.60	280.12
720.94	279.49
721.27	278.91
721.60	278.28
721.93	277.68
722.27	277.16
722.60	276.59
722.93	276.01
723.26	275.48
723.59	274.90
723.93	274.37
724.26	273.79
724.59	273.25
724.92	272.75
725.25	272.28
725.59	271.77
725.92	271.25
726.25	270.75
726.58	270.25
726.91	269.73
727.24	269.27
727.57	268.84
727.91	268.34
728.24	267.88
728.57	267.42
728.90	266.97
729.23	266.44
729.56	266.00
729.89	265.55
730.22	265.05
730.55	264.65
730.89	264.23
731.22	263.79
731.55	263.38
731.88	262.92
732.21	262.47
732.54	262.04
732.87	261.67
733.20	261.26
733.53	260.90
733.86	260.53
734.19	260.13
734.52	259.72
734.85	259.41
735.18	259.00
735.51	258.65
735.84	258.29
736.17	257.99
736.50	257.57
736.83	257.35
737.16	257.03
737.49	256.66
737.82	256.29
738.15	255.98
738.48	255.60
738.81	255.27
739.14	254.92
739.47	254.60
739.80	254.24
740.13	253.95
740.46	253.60
740.79	253.26
741.12	252.95
741.45	252.65
741.78	252.29
742.11	252.03
742.44	251.68
742.77	251.38
743.10	251.07
743.43	250.79
743.75	250.38
744.08	250.22
744.41	249.97
744.74	249.73
745.07	249.47
745.40	249.26
745.73	249.05
746.06	248.80
746.39	248.54
746.71	248.29
747.04	248.00
747.37	247.76
747.70	247.52
748.03	247.29
748.36	247.03
748.68	246.79
749.01	246.55
749.34	246.34
749.67	246.09
750.00	245.85
750.33	245.69
750.65	245.47
750.98	245.12
751.31	244.87
751.64	244.64
751.97	244.47
752.29	244.24
752.62	243.98
752.95	243.77
753.28	243.56
753.60	243.36
753.93	243.20
754.26	242.99
754.59	242.77
754.91	242.53
755.24	242.36
755.57	242.16
755.90	241.97
756.22	241.75
756.55	241.58
756.88	241.39
757.20	241.16
757.53	240.96
757.86	240.80
758.19	240.64
758.51	240.45
758.84	240.23
759.17	240.06
759.49	239.90
759.82	239.80
760.15	239.66
760.47	239.51
760.80	239.31
761.13	239.20
761.45	239.05
761.78	238.92
762.11	238.77
762.43	238.64
762.76	238.53
763.08	238.46
763.41	238.30
763.74	238.15
764.06	237.99
764.39	237.88
764.71	237.74
765.04	237.60
765.37	237.51
765.69	237.39
766.02	237.27
766.34	237.15
766.67	236.97
767.00	236.87
767.32	236.81
767.65	236.76
767.97	236.63
768.30	236.53
768.62	236.44
768.95	236.31
769.27	236.20
769.60	236.06
769.92	235.91
770.25	235.77
770.57	235.66
770.90	235.54
771.22	235.42
771.55	235.30
771.87	235.26
772.20	235.14
772.52	235.10
772.85	235.08
773.17	234.99
773.50	234.89
773.82	234.77
774.15	234.60
774.47	234.45
774.80	234.36
775.12	234.28
775.45	234.19
775.77	234.13
776.09	234.04
776.42	233.96
776.74	233.90
777.07	233.86
777.39	233.78
777.72	233.73
778.04	233.68
778.36	233.62
778.69	233.52
779.01	233.45
779.33	233.32
779.66	233.16
779.98	233.11
780.31	233.05
780.63	233.05
780.95	233.04
781.28	232.99
781.60	232.93
781.92	232.84
782.25	232.78
782.57	232.70
782.89	232.63
783.22	232.56
783.54	232.48
783.86	232.42
784.19	232.35
784.51	232.35
784.83	232.27
785.16	232.21
785.48	232.16
785.80	232.13
786.12	232.08
786.45	232.03
786.77	231.99
787.09	231.95
787.42	231.85
787.74	231.76
788.06	231.73
788.38	231.69
788.71	231.65
789.03	231.58
789.35	231.56
789.67	231.50
789.99	231.46
790.32	231.40
790.64	231.36
790.96	231.41
791.28	231.32
791.61	231.30
791.93	231.24
792.25	231.20
792.57	231.25
792.89	231.17
793.21	231.16
793.54	231.09
793.86	231.04
794.18	230.99
794.50	230.95
794.82	230.91
795.14	230.86
795.47	230.87
795.79	230.90
796.11	230.84
796.43	230.83
796.75	230.82
797.07	230.82
797.39	230.82
797.71	230.73
798.04	230.70
798.36	230.69
798.68	230.67
799.00	230.64
799.32	230.54
799.64	230.53
799.96	230.49
800.28	230.44
800.60	230.41
800.92	230.38
801.24	230.35
801.56	230.33
801.89	230.29
802.21	230.25
802.53	230.15
802.85	230.17
803.17	230.19
803.49	230.14
803.81	230.09
804.13	230.06
804.45	229.99
804.77	229.97
805.09	229.92
805.41	229.89
805.73	229.82
806.05	229.78
806.37	229.76
806.69	229.73
807.01	229.73
807.33	229.71
807.65	229.67
807.97	229.70
808.28	229.69
808.60	229.69
808.92	229.63
809.24	229.70
809.56	229.63
809.88	229.57
810.20	229.56
810.52	229.55
810.84	229.53
811.16	229.52
811.48	229.48
811.80	229.52
812.12	229.49
812.43	229.53
812.75	229.50
813.07	229.49
813.39	229.47
813.71	229.44
814.03	229.40
814.35	229.38
814.67	229.31
814.98	229.26
815.30	229.24
815.62	229.21
815.94	229.09
816.26	229.14
816.58	229.10
816.89	229.08
817.21	229.03
817.53	229.00
817.85	228.99
818.17	228.95
818.48	228.89
818.80	228.90
819.12	228.86
819.44	228.82
819.76	228.80
820.07	228.77
820.39	228.73
820.71	228.71
821.03	228.71
821.34	228.67
821.66	228.69
821.98	228.69
822.30	228.69
822.61	228.77
822.93	228.72
823.25	228.71
823.57	228.71
823.88	228.73
824.20	228.70
824.52	228.72
824.83	228.71
825.15	228.69
825.47	228.69
825.79	228.68
826.10	228.67
826.42	228.65
826.74	228.67
827.05	228.68
827.37	228.69
827.69	228.68
828.00	228.71
828.32	228.66
828.64	228.63
828.95	228.65
829.27	228.59
829.58	228.52
829.90	228.53
830.22	228.50
830.53	228.46
830.85	228.47
831.17	228.41
831.48	228.43
831.80	228.42
832.11	228.38
832.43	228.35
832.75	228.36
833.06	228.40
833.38	228.38
833.69	228.38
834.01	228.38
834.32	228.37
834.64	228.35
834.96	228.34
835.27	228.32
835.59	228.32
835.90	228.30
836.22	228.31
836.53	228.30
836.85	228.28
837.16	228.34
837.48	228.32
837.79	228.33
838.11	228.30
838.42	228.28
838.74	228.29
839.05	228.27
839.37	228.25
839.68	228.20
840.00	228.15
840.31	228.12
840.63	228.10
840.94	228.08
841.26	228.04
841.57	228.02
841.88	228.03
842.20	227.97
842.51	227.95
842.83	227.95
843.14	228.00
843.46	227.99
843.77	227.96
844.08	227.92
844.40	227.91
844.71	227.89
845.03	227.86
845.34	227.85
845.65	227.85
845.97	227.80
846.28	227.80
846.60	227.80
846.91	227.80
847.22	227.80
847.54	227.79
847.85	227.78
848.16	227.77
848.48	227.77
848.79	227.81
849.10	227.83
849.42	227.82
849.73	227.75
850.04	227.73
850.36	227.69
850.67	227.73
850.98	227.71
851.30	227.70
851.61	227.70
851.92	227.68
852.23	227.70
852.55	227.74
852.86	227.72
853.17	227.74
853.49	227.74
853.80	227.73
854.11	227.76
854.42	227.76
854.74	227.75
855.05	227.73
855.36	227.67
855.67	227.66
855.99	227.66
856.30	227.75
856.61	227.76
856.92	227.74
857.23	227.73
857.55	227.72
857.86	227.71
858.17	227.74
858.48	227.75
858.79	227.74
859.11	227.75
859.42	227.75
859.73	227.73
860.04	227.74
860.35	227.72
860.66	227.68
860.98	227.71
861.29	227.69
861.60	227.66
861.91	227.70
862.22	227.68
862.53	227.66
862.84	227.53
863.16	227.55
863.47	227.55
863.78	227.55
864.09	227.56
864.40	227.58
864.71	227.59
865.02	227.59
865.33	227.62
865.64	227.56
865.95	227.58
866.27	227.63
866.58	227.66
866.89	227.69
867.20	227.71
867.51	227.69
867.82	227.70
868.13	227.75
868.44	227.73
868.75	227.76
869.06	227.78
869.37	227.81
869.68	227.79
869.99	227.79
870.30	227.79
870.61	227.78
870.92	227.79
871.23	227.78
871.54	227.76
871.85	227.78
872.16	227.80
872.47	227.78
872.78	227.74
873.09	227.70
873.40	227.68
873.71	227.68
874.02	227.67
874.33	227.68
874.64	227.64
874.95	227.65
875.26	227.62
875.56	227.59
875.87	227.59
876.18	227.57
876.49	227.69
876.80	227.69
877.11	227.65
877.42	227.67
877.73	227.66
878.04	227.68
878.35	227.64
878.66	227.65
878.96	227.68
879.27	227.65
879.58	227.64
879.89	227.66
880.20	227.70
880.51	227.72
880.82	227.68
881.12	227.69
881.43	227.67
881.74	227.66
882.05	227.70
882.36	227.71
882.67	227.71
882.97	227.59
883.28	227.59
883.59	227.63
883.90	227.63
884.21	227.63
884.51	227.60
884.82	227.62
885.13	227.61
885.44	227.59
885.74	227.65
886.05	227.64
886.36	227.64
886.67	227.60
886.98	227.66
887.28	227.69
887.59	227.68
887.90	227.66
888.20	227.67
888.51	227.66
888.82	227.63
889.13	227.64
889.43	227.71
889.74	227.70
890.05	227.66
890.35	227.62
890.66	227.59
890.97	227.59
891.28	227.52
891.58	227.51
891.89	227.50
892.20	227.43
892.50	227.42
892.81	227.40
893.12	227.39
893.42	227.32
893.73	227.28
894.04	227.30
894.34	227.33
894.65	227.32
894.95	227.33
895.26	227.37
895.57	227.38
895.87	227.30
896.18	227.30
896.48	227.31
896.79	227.34
897.10	227.34
897.40	227.35
897.71	227.37
898.01	227.37
898.32	227.39
898.63	227.39
898.93	227.39
899.24	227.39
899.54	227.37
899.85	227.40
900.15	227.42
900.46	227.38
900.76	227.37
901.07	227.36
901.38	227.34
901.68	227.35
901.99	227.34
902.29	227.37
902.60	227.36
902.90	227.40
903.21	227.38
903.51	227.38
903.82	227.40
904.12	227.42
904.43	227.44
904.73	227.43
905.03	227.47
905.34	227.57
905.64	227.57
905.95	227.60
906.25	227.57
906.56	227.59
906.86	227.63
907.17	227.66
907.47	227.68
907.77	227.68
908.08	227.63
908.38	227.63
908.69	227.62
908.99	227.66
909.30	227.64
909.60	227.63
909.90	227.63
910.21	227.59
910.51	227.55
910.81	227.55
911.12	227.55
911.42	227.53
911.73	227.41
912.03	227.41
912.33	227.41
912.64	227.41
912.94	227.39
913.24	227.33
913.55	227.28
913.85	227.26
914.15	227.26
914.46	227.26
914.76	227.23
915.06	227.22
915.37	227.18
915.67	227.16
915.97	227.19
916.27	227.18
916.58	227.18
916.88	227.15
917.18	227.18
917.49	227.26
917.79	227.25
918.09	227.27
918.39	227.27
918.70	227.27
919.00	227.28
919.30	227.32
919.60	227.32
919.91	227.36
920.21	227.38
920.51	227.37
920.81	227.36
921.12	227.38
921.42	227.36
921.72	227.40
922.02	227.40
922.32	227.39
922.63	227.41
922.93	227.50
923.23	227.56
923.53	227.53
923.83	227.43
924.13	227.45
924.44	227.47
924.74	227.49
925.04	227.47
925.34	227.44
925.64	227.37
925.94	227.39
926.24	227.40
926.55	227.35
926.85	227.33
927.15	227.36
927.45	227.39
927.75	227.38
928.05	227.36
928.35	227.35
928.65	227.38
928.95	227.36
929.26	227.31
929.56	227.30
929.86	227.30
930.16	227.29
930.46	227.26
930.76	227.25
931.06	227.23
931.36	227.22
931.66	227.22
931.96	227.25
932.26	227.25
932.56	227.23
932.86	227.23
933.16	227.26
933.46	227.19
933.76	227.17
934.06	227.20
934.36	227.20
934.66	227.22
934.96	227.20
935.26	227.18
935.56	227.18
935.86	227.13
936.16	227.12
936.46	227.11
936.76	227.14
937.06	227.13
937.36	227.12
937.66	227.14
937.96	227.14
938.26	227.12
938.56	227.12
938.86	227.11
939.16	227.17
939.46	227.15
939.76	227.23
940.06	227.22
940.35	227.22
940.65	227.18
940.95	227.16
941.25	227.15
941.55	227.15
941.85	227.12
942.15	227.17
942.45	227.19
942.75	227.19
943.04	227.17
943.34	227.16
943.64	227.17
943.94	227.15
944.24	227.16
944.54	227.20
944.84	227.19
945.13	227.18
945.43	227.15
945.73	227.20
946.03	227.14
946.33	227.12
946.62	227.13
946.92	227.14
947.22	227.15
947.52	227.16
947.82	227.20
948.11	227.19
948.41	227.16
948.71	227.15
949.01	227.15
949.31	227.19
949.60	227.17
949.90	227.17
950.20	227.18
950.50	227.19
950.79	227.18
951.09	227.19
951.39	227.20
951.69	227.20
951.98	227.21
952.28	227.25
952.58	227.25
952.87	227.24
953.17	227.26
953.47	227.27
953.76	227.25
954.06	227.25
954.36	227.29
954.66	227.28
954.95	227.31
955.25	227.34
955.55	227.34
955.84	227.36
956.14	227.37
956.44	227.36
956.73	227.35
957.03	227.32
957.32	227.32
957.62	227.31
957.92	227.32
958.21	227.27
958.51	227.38
958.81	227.37
959.10	227.37
959.40	227.38
959.69	227.37
959.99	227.40
960.29	227.39
960.58	227.35
960.88	227.39
961.17	227.35
961.47	227.34
961.76	227.31
962.06	227.31
962.36	227.30
962.65	227.31
962.95	227.32
963.24	227.31
963.54	227.29
963.83	227.30
964.13	227.29
964.42	227.28
964.72	227.19
965.01	227.21
965.31	227.22
965.60	227.20
965.90	227.26
966.19	227.22
966.49	227.23
966.78	227.26
967.08	227.25
967.37	227.25
967.67	227.23
967.96	227.28
968.26	227.27
968.55	227.28
968.85	227.28
969.14	227.28
969.43	227.32
969.73	227.32
970.02	227.28
970.32	227.30
970.61	227.29
970.91	227.27
971.20	227.25
971.49	227.23
971.79	227.25
972.08	227.18
972.38	227.16
972.67	227.16
972.96	227.15
973.26	227.13
973.55	227.17
973.85	227.15
974.14	227.10
974.43	227.09
974.73	227.06
975.02	227.05
975.31	227.01
975.61	227.00
975.90	227.01
976.19	227.02
976.49	227.02
976.78	227.03
977.07	226.97
977.37	226.98
977.66	227.00
977.95	226.99
978.24	227.00
978.54	227.04
978.83	227.02
979.12	227.01
979.42	226.99
979.71	226.94
980.00	226.95
980.29	226.98
980.59	226.94
980.88	226.97
981.17	226.97
981.46	226.98
981.76	226.96
982.05	226.99
982.34	227.03
982.63	227.01
982.93	227.02
983.22	227.07
983.51	227.07
983.80	227.05
984.09	227.08
984.39	227.08
984.68	227.04
984.97	227.05
985.26	227.06
985.55	227.10
985.85	227.11
986.14	227.12
986.43	227.12
986.72	227.14
987.01	227.11
987.30	227.13
987.59	227.15
987.89	227.19
988.18	227.17
988.47	227.15
988.76	227.16
989.05	227.15
989.34	227.16
989.63	227.19
989.92	227.18
990.22	227.14
990.51	227.14
990.80	227.18
991.09	227.18
991.38	227.18
991.67	227.16
991.96	227.12
992.25	227.12
992.54	227.11
992.83	227.13
993.12	227.12
993.41	227.10
993.70	227.11
993.99	227.11
994.28	227.13
994.58	227.14
994.87	227.11
995.16	227.14
995.45	227.13
995.74	227.08
996.03	227.09
996.32	227.14
996.61	227.13
996.90	227.12
997.19	227.13
997.48	227.13
997.77	227.13
998.06	227.19
998.34	227.17
998.63	227.17
998.92	227.13
999.21	227.16
999.50	227.15
999.79	227.14
1000.08	227.13
1000.37	227.13
1000.66	227.12
1000.95	227.18
1001.24	227.17
1001.53	227.18
1001.82	227.21
1002.11	227.19
1002.40	227.18
1002.68	227.21
1002.97	227.27
1003.26	227.25
1003.55	227.23
1003.84	227.21
1004.13	227.23
1004.42	227.25
1004.71	227.25
1004.99	227.30
1005.28	227.32
1005.57	227.34
1005.86	227.31
1006.15	227.33
1006.44	227.30
1006.72	227.33
1007.01	227.30
1007.30	227.29
1007.59	227.26
1007.88	227.23
1008.17	227.25
1008.45	227.21
1008.74	227.17
1009.03	227.15
1009.32	227.15
1009.60	227.19
1009.89	227.20
1010.18	227.17
1010.47	227.15
1010.76	227.10
1011.04	227.10
1011.33	227.09
1011.62	227.08
1011.91	227.12
1012.19	227.12
1012.48	227.12
1012.77	227.11
1013.05	227.12
1013.34	227.09
1013.63	227.10
1013.92	227.11
1014.20	227.11
1014.49	227.12
1014.78	227.13
1015.06	227.07
1015.35	227.06
1015.64	227.05
1015.92	227.06
1016.21	227.06
1016.50	227.06
1016.78	227.10
1017.07	227.09
1017.36	227.09
1017.64	227.07
1017.93	227.05
1018.22	227.03
1018.50	227.03
1018.79	227.02
1019.08	226.98
1019.36	227.03
1019.65	227.02
1019.93	227.04
1020.22	227.02
1020.51	227.09
1020.79	227.10
1021.08	227.11
1021.36	227.17
1021.65	227.20
1021.94	226.94
1022.22	227.45
1022.51	226.86
1022.79	227.48
1023.08	226.62
1023.36	228.25
1023.65	226.91
>>>>>End Processed Spectral Data<<<<<
