SpectraSuite Data File
++++++++++++++++++++++++++++++++++++
Date: Fri Feb 01 16:03:57 EST 2013
User: group
Dark Spectrum Present: No
Reference Spectrum Present: No
Number of Sampled Component Spectra: 1
Spectrometers: USB2E7196
Integration Time (usec): 35000 (USB2E7196)
Spectra Averaged: 100 (USB2E7196)
Boxcar Smoothing: 10 (USB2E7196)
Correct for Electrical Dark: No (USB2E7196)
Strobe/Lamp Enabled: No (USB2E7196)
Correct for Detector Non-linearity: No (USB2E7196)
Correct for Stray Light: No (USB2E7196)
Number of Pixels in Processed Spectrum: 2048
>>>>>Begin Processed Spectral Data<<<<<
339.09	0.00
339.48	215.02
339.86	216.88
340.24	217.49
340.63	219.38
341.01	221.88
341.39	221.15
341.78	223.48
342.16	223.87
342.54	225.11
342.93	213.21
343.31	223.96
343.69	224.48
344.07	224.91
344.46	225.34
344.84	225.71
345.22	225.93
345.60	226.20
345.99	226.38
346.37	226.54
346.75	226.62
347.13	226.69
347.52	226.69
347.90	226.75
348.28	226.76
348.66	226.81
349.05	226.81
349.43	226.87
349.81	226.92
350.19	226.94
350.57	226.98
350.96	227.06
351.34	227.20
351.72	227.28
352.10	227.36
352.48	227.42
352.87	227.46
353.25	227.52
353.63	227.61
354.01	227.67
354.39	227.75
354.77	227.84
355.15	227.91
355.54	227.97
355.92	228.00
356.30	228.08
356.68	228.21
357.06	228.32
357.44	228.37
357.82	228.43
358.20	228.49
358.58	228.56
358.97	228.57
359.35	228.62
359.73	228.71
360.11	228.78
360.49	228.83
360.87	228.88
361.25	228.95
361.63	229.01
362.01	229.05
362.39	229.06
362.77	229.08
363.15	229.11
363.53	229.17
363.91	229.21
364.29	229.23
364.67	229.17
365.05	229.19
365.43	229.19
365.81	229.21
366.19	229.28
366.57	229.33
366.95	229.35
367.33	229.27
367.71	229.29
368.09	229.27
368.47	229.25
368.85	229.19
369.23	229.18
369.61	229.10
369.99	229.07
370.37	229.05
370.75	229.07
371.13	229.00
371.51	228.93
371.89	228.91
372.27	228.86
372.65	228.80
373.03	228.74
373.41	228.66
373.78	228.58
374.16	228.48
374.54	228.41
374.92	228.35
375.30	228.32
375.68	228.19
376.06	228.13
376.44	228.03
376.82	228.03
377.19	227.97
377.57	227.90
377.95	227.81
378.33	227.72
378.71	227.59
379.09	227.55
379.47	227.50
379.84	227.39
380.22	227.30
380.60	227.22
380.98	227.15
381.36	227.11
381.73	227.04
382.11	226.98
382.49	226.90
382.87	226.83
383.25	226.76
383.62	226.85
384.00	226.80
384.38	226.77
384.76	226.72
385.13	226.71
385.51	226.66
385.89	226.60
386.27	226.59
386.64	226.55
387.02	226.49
387.40	226.43
387.78	226.42
388.15	226.41
388.53	226.40
388.91	226.38
389.29	226.35
389.66	226.34
390.04	226.29
390.42	226.31
390.79	226.30
391.17	226.32
391.55	226.16
391.92	226.13
392.30	226.14
392.68	226.13
393.05	226.11
393.43	226.13
393.81	226.14
394.18	226.12
394.56	226.15
394.94	226.17
395.31	226.17
395.69	226.21
396.06	226.27
396.44	226.28
396.82	226.30
397.19	226.37
397.57	226.39
397.95	226.46
398.32	226.45
398.70	226.51
399.07	226.57
399.45	226.64
399.82	226.74
400.20	226.79
400.58	226.86
400.95	226.89
401.33	226.99
401.70	227.15
402.08	227.25
402.45	227.36
402.83	227.47
403.20	227.61
403.58	227.71
403.95	227.81
404.33	227.95
404.71	228.07
405.08	228.25
405.46	228.43
405.83	228.57
406.21	228.72
406.58	228.89
406.96	229.04
407.33	229.22
407.70	229.41
408.08	229.67
408.45	229.88
408.83	230.11
409.20	230.29
409.58	230.42
409.95	230.67
410.33	230.92
410.70	231.16
411.08	231.46
411.45	231.78
411.82	232.04
412.20	232.39
412.57	232.78
412.95	233.07
413.32	233.44
413.69	233.85
414.07	234.32
414.44	234.76
414.82	235.23
415.19	235.78
415.56	236.31
415.94	236.88
416.31	237.53
416.68	238.16
417.06	238.88
417.43	239.60
417.81	240.35
418.18	241.16
418.55	242.02
418.93	242.85
419.30	243.77
419.67	244.72
420.04	245.66
420.42	246.69
420.79	247.90
421.16	249.06
421.54	250.26
421.91	251.45
422.28	252.72
422.66	254.05
423.03	255.35
423.40	256.67
423.77	258.05
424.15	259.44
424.52	260.94
424.89	262.57
425.26	264.11
425.64	265.55
426.01	267.14
426.38	268.81
426.75	270.49
427.13	272.19
427.50	274.02
427.87	275.94
428.24	277.81
428.61	279.55
428.99	281.49
429.36	283.60
429.73	285.69
430.10	287.72
430.47	289.79
430.85	291.92
431.22	294.16
431.59	296.56
431.96	298.87
432.33	301.39
432.70	303.75
433.08	306.60
433.45	309.29
433.82	311.88
434.19	314.79
434.56	317.65
434.93	320.27
435.30	322.90
435.68	325.77
436.05	328.62
436.42	331.42
436.79	333.93
437.16	336.62
437.53	339.47
437.90	342.26
438.27	344.98
438.64	347.83
439.01	350.43
439.38	352.67
439.75	354.83
440.13	357.26
440.50	359.59
440.87	361.41
441.24	363.32
441.61	365.44
441.98	366.92
442.35	368.71
442.72	370.61
443.09	372.37
443.46	373.39
443.83	373.89
444.20	374.36
444.57	375.21
444.94	375.50
445.31	375.81
445.68	376.17
446.05	376.26
446.42	375.84
446.79	375.46
447.16	375.00
447.53	374.61
447.90	373.44
448.27	372.27
448.64	370.68
449.01	369.57
449.37	367.60
449.74	365.67
450.11	363.43
450.48	360.89
450.85	358.39
451.22	356.24
451.59	354.23
451.96	352.28
452.33	349.66
452.70	347.32
453.07	344.49
453.43	341.59
453.80	338.85
454.17	336.19
454.54	333.63
454.91	330.88
455.28	328.19
455.65	325.75
456.02	323.33
456.38	321.16
456.75	318.51
457.12	316.29
457.49	314.08
457.86	311.86
458.23	310.07
458.59	308.06
458.96	306.01
459.33	304.19
459.70	302.33
460.07	300.86
460.43	299.11
460.80	297.50
461.17	296.12
461.54	294.61
461.91	293.19
462.27	291.75
462.64	290.53
463.01	289.18
463.38	287.91
463.74	286.56
464.11	285.41
464.48	284.37
464.85	283.24
465.21	282.39
465.58	281.49
465.95	280.38
466.32	279.47
466.68	278.51
467.05	277.63
467.42	276.80
467.78	275.85
468.15	275.00
468.52	274.37
468.88	273.46
469.25	272.70
469.62	272.06
469.98	271.38
470.35	270.75
470.72	270.20
471.08	269.55
471.45	269.04
471.82	268.52
472.18	267.92
472.55	267.51
472.92	266.96
473.28	266.51
473.65	266.05
474.02	265.59
474.38	265.28
474.75	264.96
475.11	264.59
475.48	264.33
475.85	264.09
476.21	263.85
476.58	263.68
476.94	263.51
477.31	263.30
477.67	263.16
478.04	263.06
478.41	262.96
478.77	263.00
479.14	262.93
479.50	262.89
479.87	262.98
480.23	263.07
480.60	263.14
480.96	263.26
481.33	263.46
481.69	263.66
482.06	263.85
482.42	264.00
482.79	264.26
483.15	264.59
483.52	265.01
483.88	265.34
484.25	265.73
484.61	266.22
484.98	266.69
485.34	267.24
485.71	267.84
486.07	268.46
486.44	268.98
486.80	269.68
487.17	270.44
487.53	271.24
487.90	272.12
488.26	273.07
488.62	274.05
488.99	275.06
489.35	276.11
489.72	277.22
490.08	278.47
490.44	279.71
490.81	281.06
491.17	282.39
491.54	283.89
491.90	285.44
492.26	287.06
492.63	288.83
492.99	290.65
493.36	292.58
493.72	294.64
494.08	296.78
494.45	299.03
494.81	301.38
495.17	303.83
495.54	306.38
495.90	309.05
496.26	311.87
496.63	314.82
496.99	317.92
497.35	321.21
497.72	324.56
498.08	328.11
498.44	331.80
498.80	335.72
499.17	339.76
499.53	343.95
499.89	348.31
500.26	352.77
500.62	357.42
500.98	362.35
501.34	367.43
501.71	372.75
502.07	378.19
502.43	383.82
502.79	389.67
503.16	395.73
503.52	402.04
503.88	408.43
504.24	415.03
504.60	421.96
504.97	429.07
505.33	436.42
505.69	444.10
506.05	451.83
506.41	459.72
506.78	467.90
507.14	476.32
507.50	485.07
507.86	494.14
508.22	503.30
508.59	512.51
508.95	522.07
509.31	532.01
509.67	542.07
510.03	552.41
510.39	562.97
510.75	573.80
511.12	584.72
511.48	596.06
511.84	607.49
512.20	619.02
512.56	630.95
512.92	643.18
513.28	655.52
513.64	668.04
514.00	680.71
514.37	693.64
514.73	706.65
515.09	719.64
515.45	732.89
515.81	746.44
516.17	760.40
516.53	774.55
516.89	788.61
517.25	802.80
517.61	817.15
517.97	831.58
518.33	846.09
518.69	860.84
519.05	875.78
519.41	891.03
519.77	906.51
520.13	921.99
520.49	937.24
520.85	952.71
521.21	968.45
521.57	984.66
521.93	1000.40
522.29	1016.90
522.65	1033.22
523.01	1049.44
523.37	1065.58
523.73	1081.69
524.09	1097.73
524.45	1114.06
524.81	1130.71
525.17	1147.66
525.53	1164.47
525.89	1181.23
526.25	1198.07
526.61	1214.41
526.97	1231.14
527.33	1247.59
527.68	1264.09
528.04	1280.57
528.40	1296.91
528.76	1313.83
529.12	1330.41
529.48	1347.20
529.84	1363.11
530.20	1379.67
530.56	1396.63
530.91	1414.00
531.27	1430.80
531.63	1447.19
531.99	1463.73
532.35	1479.54
532.71	1495.33
533.07	1511.58
533.42	1527.43
533.78	1543.39
534.14	1559.67
534.50	1574.88
534.86	1590.71
535.21	1605.83
535.57	1621.85
535.93	1637.57
536.29	1652.37
536.65	1667.49
537.00	1682.26
537.36	1697.51
537.72	1712.07
538.08	1726.52
538.44	1740.25
538.79	1754.11
539.15	1767.84
539.51	1781.55
539.87	1795.93
540.22	1809.66
540.58	1823.48
540.94	1836.75
541.29	1849.58
541.65	1862.31
542.01	1875.51
542.37	1887.73
542.72	1900.20
543.08	1911.79
543.44	1924.07
543.79	1935.20
544.15	1946.20
544.51	1957.75
544.87	1968.78
545.22	1979.39
545.58	1989.57
545.94	1999.32
546.29	2009.05
546.65	2018.81
547.01	2028.01
547.36	2036.85
547.72	2045.11
548.07	2052.76
548.43	2060.86
548.79	2068.92
549.14	2076.28
549.50	2083.58
549.86	2091.21
550.21	2098.60
550.57	2105.77
550.92	2112.32
551.28	2119.38
551.64	2126.31
551.99	2132.81
552.35	2138.85
552.70	2145.10
553.06	2151.10
553.41	2157.53
553.77	2163.56
554.13	2169.74
554.48	2175.94
554.84	2181.34
555.19	2186.70
555.55	2191.94
555.90	2196.43
556.26	2201.35
556.61	2206.18
556.97	2210.46
557.32	2214.69
557.68	2218.82
558.03	2223.01
558.39	2226.75
558.74	2231.45
559.10	2235.41
559.45	2239.13
559.81	2243.54
560.16	2247.30
560.52	2250.44
560.87	2253.73
561.23	2256.46
561.58	2259.28
561.94	2261.67
562.29	2264.05
562.64	2266.63
563.00	2269.08
563.35	2272.77
563.71	2275.78
564.06	2279.03
564.42	2282.01
564.77	2284.49
565.12	2286.49
565.48	2288.66
565.83	2290.66
566.19	2292.05
566.54	2292.74
566.89	2293.93
567.25	2294.41
567.60	2295.70
567.96	2297.53
568.31	2298.40
568.66	2299.53
569.02	2300.25
569.37	2300.63
569.72	2301.41
570.08	2301.68
570.43	2301.89
570.78	2301.22
571.14	2299.75
571.49	2298.48
571.84	2298.06
572.20	2296.95
572.55	2296.15
572.90	2294.55
573.26	2293.03
573.61	2291.25
573.96	2289.54
574.31	2286.41
574.67	2283.47
575.02	2279.87
575.37	2276.39
575.72	2272.59
576.08	2269.25
576.43	2266.01
576.78	2262.32
577.13	2259.30
577.49	2256.21
577.84	2252.57
578.19	2248.89
578.54	2245.25
578.90	2240.83
579.25	2235.29
579.60	2230.25
579.95	2225.12
580.30	2220.00
580.66	2214.86
581.01	2210.00
581.36	2205.15
581.71	2201.00
582.06	2196.57
582.42	2192.24
582.77	2187.09
583.12	2182.61
583.47	2177.90
583.82	2172.80
584.17	2167.65
584.53	2161.95
584.88	2156.31
585.23	2150.70
585.58	2145.18
585.93	2139.74
586.28	2135.08
586.63	2130.11
586.98	2125.23
587.34	2120.54
587.69	2115.75
588.04	2110.49
588.39	2104.78
588.74	2098.41
589.09	2092.41
589.44	2085.63
589.79	2079.61
590.14	2073.97
590.49	2067.34
590.84	2060.89
591.19	2054.84
591.54	2048.30
591.89	2041.03
592.25	2034.27
592.60	2026.98
592.95	2019.42
593.30	2012.09
593.65	2004.44
594.00	1997.45
594.35	1990.17
594.70	1982.23
595.05	1974.97
595.40	1967.81
595.75	1960.37
596.10	1954.16
596.45	1947.36
596.80	1941.29
597.15	1934.64
597.50	1927.46
597.85	1921.08
598.19	1914.39
598.54	1907.28
598.89	1900.70
599.24	1894.84
599.59	1888.03
599.94	1882.01
600.29	1875.70
600.64	1869.19
600.99	1861.76
601.34	1854.97
601.69	1848.07
602.04	1841.21
602.39	1834.06
602.74	1827.17
603.08	1820.38
603.43	1813.65
603.78	1806.28
604.13	1798.89
604.48	1791.49
604.83	1784.63
605.18	1777.62
605.53	1769.81
605.87	1761.92
606.22	1754.67
606.57	1746.63
606.92	1739.42
607.27	1732.20
607.62	1725.32
607.96	1718.01
608.31	1711.52
608.66	1703.82
609.01	1696.21
609.36	1688.65
609.70	1680.44
610.05	1672.30
610.40	1664.66
610.75	1656.26
611.10	1648.75
611.44	1640.39
611.79	1632.53
612.14	1623.93
612.49	1614.74
612.83	1606.37
613.18	1598.13
613.53	1590.06
613.88	1581.47
614.22	1573.24
614.57	1564.58
614.92	1556.48
615.27	1548.97
615.61	1540.51
615.96	1532.51
616.31	1524.75
616.65	1517.27
617.00	1509.75
617.35	1502.16
617.70	1493.65
618.04	1485.17
618.39	1476.88
618.74	1469.30
619.08	1460.90
619.43	1453.39
619.78	1446.62
620.12	1439.28
620.47	1431.76
620.82	1423.65
621.16	1416.36
621.51	1408.69
621.85	1401.07
622.20	1392.53
622.55	1384.10
622.89	1376.26
623.24	1368.56
623.59	1361.34
623.93	1353.84
624.28	1346.69
624.62	1339.13
624.97	1332.05
625.32	1325.26
625.66	1318.24
626.01	1311.02
626.35	1303.64
626.70	1295.79
627.04	1287.94
627.39	1280.20
627.73	1272.77
628.08	1265.74
628.43	1258.41
628.77	1250.99
629.12	1243.40
629.46	1236.21
629.81	1228.81
630.15	1221.67
630.50	1214.30
630.84	1206.05
631.19	1198.19
631.53	1190.56
631.88	1183.00
632.22	1175.38
632.57	1168.16
632.91	1160.60
633.26	1153.15
633.60	1145.73
633.95	1138.54
634.29	1131.46
634.64	1124.81
634.98	1117.43
635.32	1110.23
635.67	1103.63
636.01	1097.03
636.36	1090.23
636.70	1083.71
637.05	1077.09
637.39	1070.57
637.73	1063.98
638.08	1058.08
638.42	1052.08
638.77	1045.67
639.11	1039.04
639.45	1032.60
639.80	1025.93
640.14	1019.55
640.49	1013.15
640.83	1006.81
641.17	1000.64
641.52	994.29
641.86	987.86
642.20	982.00
642.55	975.73
642.89	969.28
643.23	962.77
643.58	957.00
643.92	950.76
644.26	944.71
644.61	938.72
644.95	932.68
645.29	926.07
645.64	919.30
645.98	913.00
646.32	907.20
646.66	901.19
647.01	895.32
647.35	889.59
647.69	883.75
648.04	878.18
648.38	872.41
648.72	866.46
649.06	860.39
649.41	854.57
649.75	848.64
650.09	842.76
650.43	836.96
650.78	830.85
651.12	824.95
651.46	819.28
651.80	813.48
652.14	808.10
652.49	802.75
652.83	797.59
653.17	791.92
653.51	786.18
653.85	780.81
654.20	775.26
654.54	769.23
654.88	763.42
655.22	757.62
655.56	751.88
655.90	746.41
656.25	741.15
656.59	735.79
656.93	730.78
657.27	725.53
657.61	720.12
657.95	715.00
658.29	709.94
658.64	704.59
658.98	699.30
659.32	693.84
659.66	688.66
660.00	683.31
660.34	678.37
660.68	673.41
661.02	668.43
661.36	663.73
661.70	659.22
662.05	654.88
662.39	650.59
662.73	646.11
663.07	641.74
663.41	637.29
663.75	632.80
664.09	628.14
664.43	623.77
664.77	619.65
665.11	615.37
665.45	611.25
665.79	607.21
666.13	603.07
666.47	598.99
666.81	594.79
667.15	590.66
667.49	586.74
667.83	582.90
668.17	578.89
668.51	574.71
668.85	570.69
669.19	566.82
669.53	562.94
669.87	559.08
670.21	555.40
670.55	551.79
670.89	548.35
671.23	544.91
671.57	541.40
671.91	537.79
672.25	534.29
672.58	530.72
672.92	527.30
673.26	524.13
673.60	520.93
673.94	517.77
674.28	514.92
674.62	511.91
674.96	508.85
675.30	505.95
675.64	503.03
675.97	500.25
676.31	497.38
676.65	494.41
676.99	491.71
677.33	488.81
677.67	485.97
678.01	482.94
678.34	479.99
678.68	477.12
679.02	474.37
679.36	471.62
679.70	468.97
680.04	466.17
680.37	463.31
680.71	460.59
681.05	458.06
681.39	455.31
681.73	452.69
682.06	450.23
682.40	447.70
682.74	445.20
683.08	442.68
683.42	440.11
683.75	437.64
684.09	435.10
684.43	432.63
684.77	430.17
685.10	427.80
685.44	425.50
685.78	423.19
686.12	420.95
686.45	418.67
686.79	416.34
687.13	414.16
687.46	412.02
687.80	409.81
688.14	407.60
688.48	405.56
688.81	403.32
689.15	401.09
689.49	398.96
689.82	396.85
690.16	394.74
690.50	392.80
690.83	390.88
691.17	388.90
691.51	387.01
691.84	385.12
692.18	383.21
692.52	381.23
692.85	379.29
693.19	377.35
693.52	375.51
693.86	373.72
694.20	371.95
694.53	370.12
694.87	368.34
695.21	366.54
695.54	364.70
695.88	362.97
696.21	361.24
696.55	359.53
696.88	357.85
697.22	356.20
697.56	354.57
697.89	352.88
698.23	351.26
698.56	349.66
698.90	348.09
699.23	346.39
699.57	344.85
699.90	343.29
700.24	341.77
700.58	340.25
700.91	338.73
701.25	337.25
701.58	335.85
701.92	334.48
702.25	333.09
702.59	331.73
702.92	330.39
703.26	329.11
703.59	327.81
703.93	326.63
704.26	325.35
704.60	324.01
704.93	322.73
705.26	321.52
705.60	320.29
705.93	319.15
706.27	318.14
706.60	317.04
706.94	315.93
707.27	314.78
707.61	313.71
707.94	312.68
708.27	311.60
708.61	310.53
708.94	309.51
709.28	308.49
709.61	307.53
709.94	306.60
710.28	305.59
710.61	304.62
710.95	303.52
711.28	302.64
711.61	301.68
711.95	300.80
712.28	299.80
712.61	298.85
712.95	297.87
713.28	297.03
713.61	296.15
713.95	295.28
714.28	294.44
714.61	293.57
714.95	292.72
715.28	291.83
715.61	290.95
715.95	290.08
716.28	289.24
716.61	288.42
716.95	287.58
717.28	286.83
717.61	286.07
717.94	285.36
718.28	284.55
718.61	283.82
718.94	283.09
719.27	282.41
719.61	281.77
719.94	281.12
720.27	280.37
720.60	279.68
720.94	279.08
721.27	278.49
721.60	277.91
721.93	277.32
722.27	276.82
722.60	276.27
722.93	275.71
723.26	275.17
723.59	274.57
723.93	274.00
724.26	273.43
724.59	272.84
724.92	272.33
725.25	271.86
725.59	271.34
725.92	270.87
726.25	270.40
726.58	269.93
726.91	269.41
727.24	268.96
727.57	268.52
727.91	268.03
728.24	267.57
728.57	267.13
728.90	266.66
729.23	266.15
729.56	265.74
729.89	265.26
730.22	264.79
730.55	264.40
730.89	263.94
731.22	263.50
731.55	263.09
731.88	262.66
732.21	262.23
732.54	261.81
732.87	261.35
733.20	260.93
733.53	260.54
733.86	260.19
734.19	259.81
734.52	259.43
734.85	259.09
735.18	258.68
735.51	258.27
735.84	257.92
736.17	257.61
736.50	257.22
736.83	256.97
737.16	256.61
737.49	256.27
737.82	255.92
738.15	255.59
738.48	255.22
738.81	254.91
739.14	254.59
739.47	254.28
739.80	253.98
740.13	253.73
740.46	253.37
740.79	253.05
741.12	252.71
741.45	252.38
741.78	252.06
742.11	251.80
742.44	251.47
742.77	251.13
743.10	250.80
743.43	250.50
743.75	250.14
744.08	250.02
744.41	249.75
744.74	249.51
745.07	249.25
745.40	249.03
745.73	248.77
746.06	248.45
746.39	248.18
746.71	247.90
747.04	247.60
747.37	247.33
747.70	247.04
748.03	246.82
748.36	246.57
748.68	246.30
749.01	246.05
749.34	245.83
749.67	245.64
750.00	245.38
750.33	245.23
750.65	245.01
750.98	244.65
751.31	244.41
751.64	244.17
751.97	243.96
752.29	243.71
752.62	243.45
752.95	243.21
753.28	242.99
753.60	242.82
753.93	242.63
754.26	242.43
754.59	242.23
754.91	242.00
755.24	241.82
755.57	241.68
755.90	241.47
756.22	241.24
756.55	241.06
756.88	240.91
757.20	240.68
757.53	240.49
757.86	240.31
758.19	240.17
758.51	239.97
758.84	239.78
759.17	239.64
759.49	239.48
759.82	239.40
760.15	239.25
760.47	239.07
760.80	238.89
761.13	238.78
761.45	238.61
761.78	238.51
762.11	238.34
762.43	238.17
762.76	238.03
763.08	237.94
763.41	237.79
763.74	237.64
764.06	237.44
764.39	237.32
764.71	237.15
765.04	236.97
765.37	236.85
765.69	236.74
766.02	236.58
766.34	236.46
766.67	236.29
767.00	236.17
767.32	236.10
767.65	236.05
767.97	235.93
768.30	235.85
768.62	235.71
768.95	235.61
769.27	235.48
769.60	235.38
769.92	235.27
770.25	235.17
770.57	235.06
770.90	234.97
771.22	234.86
771.55	234.80
771.87	234.73
772.20	234.65
772.52	234.65
772.85	234.68
773.17	234.61
773.50	234.52
773.82	234.47
774.15	234.35
774.47	234.20
774.80	234.09
775.12	234.00
775.45	233.92
775.77	233.83
776.09	233.77
776.42	233.70
776.74	233.65
777.07	233.53
777.39	233.49
777.72	233.41
778.04	233.34
778.36	233.29
778.69	233.22
779.01	233.16
779.33	232.99
779.66	232.82
779.98	232.74
780.31	232.72
780.63	232.68
780.95	232.61
781.28	232.56
781.60	232.51
781.92	232.43
782.25	232.38
782.57	232.36
782.89	232.32
783.22	232.29
783.54	232.22
783.86	232.20
784.19	232.13
784.51	232.14
784.83	232.08
785.16	232.02
785.48	231.99
785.80	231.97
786.12	231.94
786.45	231.89
786.77	231.85
787.09	231.78
787.42	231.71
787.74	231.69
788.06	231.66
788.38	231.61
788.71	231.58
789.03	231.54
789.35	231.50
789.67	231.42
789.99	231.35
790.32	231.29
790.64	231.25
790.96	231.31
791.28	231.24
791.61	231.21
791.93	231.17
792.25	231.11
792.57	231.13
792.89	231.05
793.21	231.02
793.54	230.96
793.86	230.90
794.18	230.83
794.50	230.78
794.82	230.72
795.14	230.69
795.47	230.66
795.79	230.61
796.11	230.53
796.43	230.51
796.75	230.49
797.07	230.45
797.39	230.40
797.71	230.31
798.04	230.27
798.36	230.22
798.68	230.19
799.00	230.17
799.32	230.06
799.64	230.08
799.96	230.02
800.28	230.00
800.60	229.95
800.92	229.94
801.24	229.88
801.56	229.82
801.89	229.77
802.21	229.74
802.53	229.67
802.85	229.65
803.17	229.64
803.49	229.59
803.81	229.56
804.13	229.54
804.45	229.49
804.77	229.47
805.09	229.45
805.41	229.39
805.73	229.32
806.05	229.27
806.37	229.20
806.69	229.17
807.01	229.12
807.33	229.14
807.65	229.09
807.97	229.11
808.28	229.11
808.60	229.07
808.92	229.01
809.24	229.06
809.56	229.01
809.88	228.96
810.20	228.95
810.52	228.92
810.84	228.87
811.16	228.78
811.48	228.76
811.80	228.76
812.12	228.76
812.43	228.77
812.75	228.78
813.07	228.74
813.39	228.75
813.71	228.74
814.03	228.68
814.35	228.69
814.67	228.61
814.98	228.60
815.30	228.61
815.62	228.59
815.94	228.51
816.26	228.53
816.58	228.51
816.89	228.49
817.21	228.48
817.53	228.46
817.85	228.46
818.17	228.43
818.48	228.37
818.80	228.36
819.12	228.34
819.44	228.29
819.76	228.30
820.07	228.28
820.39	228.26
820.71	228.28
821.03	228.27
821.34	228.28
821.66	228.29
821.98	228.31
822.30	228.32
822.61	228.39
822.93	228.35
823.25	228.37
823.57	228.36
823.88	228.38
824.20	228.40
824.52	228.42
824.83	228.39
825.15	228.37
825.47	228.35
825.79	228.37
826.10	228.35
826.42	228.32
826.74	228.31
827.05	228.30
827.37	228.26
827.69	228.26
828.00	228.29
828.32	228.25
828.64	228.22
828.95	228.25
829.27	228.21
829.58	228.20
829.90	228.19
830.22	228.18
830.53	228.13
830.85	228.12
831.17	228.10
831.48	228.11
831.80	228.13
832.11	228.13
832.43	228.08
832.75	228.11
833.06	228.17
833.38	228.17
833.69	228.15
834.01	228.15
834.32	228.11
834.64	228.06
834.96	228.08
835.27	228.07
835.59	228.02
835.90	227.98
836.22	227.97
836.53	227.93
836.85	227.91
837.16	228.00
837.48	227.97
837.79	227.97
838.11	227.97
838.42	227.95
838.74	227.93
839.05	227.93
839.37	227.89
839.68	227.82
840.00	227.79
840.31	227.81
840.63	227.77
840.94	227.72
841.26	227.70
841.57	227.63
841.88	227.61
842.20	227.58
842.51	227.55
842.83	227.55
843.14	227.60
843.46	227.59
843.77	227.52
844.08	227.49
844.40	227.42
844.71	227.39
845.03	227.35
845.34	227.34
845.65	227.33
845.97	227.27
846.28	227.22
846.60	227.22
846.91	227.17
847.22	227.18
847.54	227.24
847.85	227.23
848.16	227.22
848.48	227.20
848.79	227.22
849.10	227.23
849.42	227.22
849.73	227.13
850.04	227.11
850.36	227.07
850.67	227.09
850.98	227.10
851.30	227.08
851.61	227.09
851.92	227.10
852.23	227.12
852.55	227.16
852.86	227.20
853.17	227.20
853.49	227.22
853.80	227.23
854.11	227.24
854.42	227.24
854.74	227.23
855.05	227.24
855.36	227.20
855.67	227.21
855.99	227.21
856.30	227.31
856.61	227.32
856.92	227.33
857.23	227.33
857.55	227.35
857.86	227.37
858.17	227.39
858.48	227.36
858.79	227.33
859.11	227.37
859.42	227.34
859.73	227.35
860.04	227.36
860.35	227.31
860.66	227.27
860.98	227.30
861.29	227.36
861.60	227.35
861.91	227.37
862.22	227.39
862.53	227.37
862.84	227.29
863.16	227.33
863.47	227.31
863.78	227.32
864.09	227.34
864.40	227.33
864.71	227.35
865.02	227.39
865.33	227.40
865.64	227.37
865.95	227.39
866.27	227.47
866.58	227.47
866.89	227.51
867.20	227.53
867.51	227.50
867.82	227.47
868.13	227.50
868.44	227.49
868.75	227.51
869.06	227.53
869.37	227.52
869.68	227.49
869.99	227.54
870.30	227.54
870.61	227.55
870.92	227.54
871.23	227.48
871.54	227.48
871.85	227.50
872.16	227.51
872.47	227.50
872.78	227.39
873.09	227.40
873.40	227.38
873.71	227.37
874.02	227.40
874.33	227.37
874.64	227.36
874.95	227.39
875.26	227.33
875.56	227.31
875.87	227.32
876.18	227.28
876.49	227.36
876.80	227.33
877.11	227.31
877.42	227.33
877.73	227.37
878.04	227.34
878.35	227.35
878.66	227.35
878.96	227.34
879.27	227.32
879.58	227.31
879.89	227.27
880.20	227.31
880.51	227.25
880.82	227.26
881.12	227.23
881.43	227.16
881.74	227.14
882.05	227.14
882.36	227.14
882.67	227.12
882.97	227.01
883.28	226.99
883.59	226.99
883.90	226.99
884.21	227.00
884.51	227.01
884.82	226.98
885.13	226.93
885.44	226.93
885.74	226.93
886.05	226.91
886.36	226.93
886.67	226.88
886.98	226.94
887.28	226.96
887.59	226.98
887.90	227.00
888.20	226.99
888.51	227.02
888.82	226.98
889.13	227.01
889.43	227.10
889.74	227.10
890.05	227.08
890.35	227.05
890.66	226.97
890.97	226.96
891.28	226.93
891.58	226.96
891.89	226.94
892.20	226.96
892.50	226.96
892.81	226.95
893.12	226.95
893.42	226.92
893.73	226.90
894.04	226.91
894.34	226.90
894.65	226.91
894.95	226.85
895.26	226.87
895.57	226.91
895.87	226.80
896.18	226.83
896.48	226.82
896.79	226.81
897.10	226.87
897.40	226.88
897.71	226.93
898.01	226.89
898.32	226.94
898.63	226.91
898.93	226.92
899.24	226.95
899.54	226.95
899.85	226.93
900.15	226.92
900.46	226.91
900.76	226.93
901.07	226.93
901.38	226.94
901.68	226.96
901.99	226.93
902.29	226.95
902.60	226.91
902.90	226.91
903.21	226.93
903.51	226.93
903.82	226.92
904.12	226.90
904.43	226.95
904.73	226.91
905.03	226.91
905.34	226.97
905.64	226.91
905.95	226.92
906.25	226.87
906.56	226.88
906.86	226.87
907.17	226.88
907.47	226.88
907.77	226.89
908.08	226.84
908.38	226.83
908.69	226.83
908.99	226.85
909.30	226.88
909.60	226.86
909.90	226.83
910.21	226.82
910.51	226.78
910.81	226.76
911.12	226.76
911.42	226.77
911.73	226.71
912.03	226.75
912.33	226.75
912.64	226.77
912.94	226.78
913.24	226.79
913.55	226.78
913.85	226.77
914.15	226.77
914.46	226.79
914.76	226.78
915.06	226.80
915.37	226.80
915.67	226.75
915.97	226.77
916.27	226.79
916.58	226.77
916.88	226.79
917.18	226.79
917.49	226.87
917.79	226.88
918.09	226.87
918.39	226.91
918.70	226.91
919.00	226.93
919.30	226.97
919.60	226.92
919.91	226.92
920.21	226.96
920.51	226.98
920.81	226.96
921.12	226.96
921.42	226.91
921.72	226.92
922.02	226.96
922.32	227.00
922.63	227.02
922.93	227.08
923.23	227.09
923.53	227.08
923.83	227.01
924.13	227.02
924.44	227.02
924.74	227.01
925.04	227.03
925.34	227.03
925.64	226.99
925.94	227.01
926.24	227.06
926.55	227.04
926.85	227.05
927.15	227.04
927.45	227.07
927.75	227.12
928.05	227.12
928.35	227.12
928.65	227.11
928.95	227.10
929.26	227.04
929.56	227.09
929.86	227.11
930.16	227.09
930.46	227.05
930.76	227.07
931.06	227.03
931.36	227.01
931.66	227.02
931.96	227.02
932.26	227.03
932.56	226.98
932.86	226.98
933.16	226.95
933.46	226.97
933.76	226.93
934.06	226.93
934.36	226.92
934.66	226.92
934.96	226.90
935.26	226.91
935.56	226.96
935.86	226.91
936.16	226.87
936.46	226.90
936.76	226.92
937.06	226.89
937.36	226.90
937.66	226.90
937.96	226.89
938.26	226.87
938.56	226.84
938.86	226.82
939.16	226.83
939.46	226.82
939.76	226.82
940.06	226.86
940.35	226.80
940.65	226.77
940.95	226.81
941.25	226.77
941.55	226.75
941.85	226.70
942.15	226.73
942.45	226.77
942.75	226.76
943.04	226.76
943.34	226.75
943.64	226.76
943.94	226.73
944.24	226.73
944.54	226.74
944.84	226.76
945.13	226.77
945.43	226.74
945.73	226.74
946.03	226.74
946.33	226.69
946.62	226.69
946.92	226.69
947.22	226.65
947.52	226.65
947.82	226.66
948.11	226.64
948.41	226.61
948.71	226.57
949.01	226.54
949.31	226.56
949.60	226.53
949.90	226.52
950.20	226.55
950.50	226.51
950.79	226.48
951.09	226.48
951.39	226.48
951.69	226.46
951.98	226.48
952.28	226.48
952.58	226.48
952.87	226.50
953.17	226.50
953.47	226.49
953.76	226.51
954.06	226.48
954.36	226.48
954.66	226.44
954.95	226.45
955.25	226.48
955.55	226.45
955.84	226.47
956.14	226.47
956.44	226.45
956.73	226.45
957.03	226.51
957.32	226.50
957.62	226.51
957.92	226.55
958.21	226.56
958.51	226.65
958.81	226.68
959.10	226.70
959.40	226.70
959.69	226.72
959.99	226.72
960.29	226.70
960.58	226.74
960.88	226.78
961.17	226.77
961.47	226.78
961.76	226.82
962.06	226.84
962.36	226.83
962.65	226.83
962.95	226.85
963.24	226.82
963.54	226.82
963.83	226.82
964.13	226.80
964.42	226.72
964.72	226.65
965.01	226.63
965.31	226.64
965.60	226.64
965.90	226.69
966.19	226.71
966.49	226.76
966.78	226.73
967.08	226.74
967.37	226.73
967.67	226.72
967.96	226.72
968.26	226.69
968.55	226.73
968.85	226.74
969.14	226.77
969.43	226.76
969.73	226.76
970.02	226.74
970.32	226.75
970.61	226.76
970.91	226.75
971.20	226.75
971.49	226.74
971.79	226.77
972.08	226.70
972.38	226.67
972.67	226.64
972.96	226.67
973.26	226.65
973.55	226.67
973.85	226.66
974.14	226.66
974.43	226.72
974.73	226.69
975.02	226.69
975.31	226.64
975.61	226.66
975.90	226.66
976.19	226.64
976.49	226.67
976.78	226.70
977.07	226.70
977.37	226.69
977.66	226.71
977.95	226.69
978.24	226.69
978.54	226.72
978.83	226.71
979.12	226.67
979.42	226.66
979.71	226.66
980.00	226.69
980.29	226.69
980.59	226.63
980.88	226.64
981.17	226.65
981.46	226.66
981.76	226.66
982.05	226.67
982.34	226.73
982.63	226.72
982.93	226.73
983.22	226.76
983.51	226.76
983.80	226.74
984.09	226.74
984.39	226.71
984.68	226.71
984.97	226.72
985.26	226.75
985.55	226.79
985.85	226.76
986.14	226.75
986.43	226.74
986.72	226.73
987.01	226.74
987.30	226.75
987.59	226.75
987.89	226.73
988.18	226.71
988.47	226.69
988.76	226.66
989.05	226.61
989.34	226.57
989.63	226.64
989.92	226.63
990.22	226.62
990.51	226.65
990.80	226.63
991.09	226.63
991.38	226.63
991.67	226.63
991.96	226.64
992.25	226.62
992.54	226.61
992.83	226.63
993.12	226.57
993.41	226.56
993.70	226.57
993.99	226.60
994.28	226.58
994.58	226.60
994.87	226.57
995.16	226.59
995.45	226.64
995.74	226.59
996.03	226.64
996.32	226.67
996.61	226.68
996.90	226.67
997.19	226.69
997.48	226.71
997.77	226.67
998.06	226.64
998.34	226.65
998.63	226.66
998.92	226.67
999.21	226.72
999.50	226.73
999.79	226.74
1000.08	226.72
1000.37	226.74
1000.66	226.70
1000.95	226.74
1001.24	226.75
1001.53	226.75
1001.82	226.72
1002.11	226.69
1002.40	226.69
1002.68	226.70
1002.97	226.80
1003.26	226.76
1003.55	226.73
1003.84	226.72
1004.13	226.79
1004.42	226.82
1004.71	226.82
1004.99	226.82
1005.28	226.87
1005.57	226.87
1005.86	226.84
1006.15	226.86
1006.44	226.85
1006.72	226.88
1007.01	226.87
1007.30	226.88
1007.59	226.86
1007.88	226.85
1008.17	226.87
1008.45	226.85
1008.74	226.84
1009.03	226.77
1009.32	226.78
1009.60	226.79
1009.89	226.82
1010.18	226.79
1010.47	226.77
1010.76	226.75
1011.04	226.75
1011.33	226.73
1011.62	226.73
1011.91	226.76
1012.19	226.77
1012.48	226.80
1012.77	226.79
1013.05	226.84
1013.34	226.84
1013.63	226.85
1013.92	226.90
1014.20	226.89
1014.49	226.89
1014.78	226.88
1015.06	226.88
1015.35	226.86
1015.64	226.88
1015.92	226.90
1016.21	226.89
1016.50	226.91
1016.78	226.92
1017.07	226.93
1017.36	226.90
1017.64	226.89
1017.93	226.90
1018.22	226.87
1018.50	226.84
1018.79	226.86
1019.08	226.82
1019.36	226.83
1019.65	226.82
1019.93	226.82
1020.22	226.86
1020.51	226.91
1020.79	226.92
1021.08	226.52
1021.36	226.60
1021.65	226.81
1021.94	226.89
1022.22	226.96
1022.51	226.80
1022.79	227.15
1023.08	227.79
1023.36	227.77
1023.65	226.85
>>>>>End Processed Spectral Data<<<<<
