SpectraSuite Data File
++++++++++++++++++++++++++++++++++++
Date: Fri Feb 01 16:10:38 EST 2013
User: group
Dark Spectrum Present: No
Reference Spectrum Present: No
Number of Sampled Component Spectra: 1
Spectrometers: USB2E7196
Integration Time (usec): 35000 (USB2E7196)
Spectra Averaged: 100 (USB2E7196)
Boxcar Smoothing: 10 (USB2E7196)
Correct for Electrical Dark: No (USB2E7196)
Strobe/Lamp Enabled: No (USB2E7196)
Correct for Detector Non-linearity: No (USB2E7196)
Correct for Stray Light: No (USB2E7196)
Number of Pixels in Processed Spectrum: 2048
>>>>>Begin Processed Spectral Data<<<<<
339.09	0.00
339.48	214.75
339.86	215.61
340.24	217.65
340.63	218.69
341.01	221.48
341.39	222.12
341.78	223.32
342.16	224.37
342.54	224.17
342.93	212.96
343.31	223.69
343.69	224.21
344.07	224.71
344.46	225.10
344.84	225.47
345.22	225.72
345.60	225.94
345.99	226.12
346.37	226.24
346.75	226.37
347.13	226.46
347.52	226.54
347.90	226.58
348.28	226.58
348.66	226.64
349.05	226.65
349.43	226.70
349.81	226.76
350.19	226.79
350.57	226.86
350.96	226.95
351.34	227.06
351.72	227.14
352.10	227.21
352.48	227.30
352.87	227.37
353.25	227.44
353.63	227.49
354.01	227.55
354.39	227.62
354.77	227.70
355.15	227.79
355.54	227.80
355.92	227.85
356.30	227.96
356.68	228.09
357.06	228.17
357.44	228.21
357.82	228.25
358.20	228.35
358.58	228.39
358.97	228.42
359.35	228.52
359.73	228.61
360.11	228.66
360.49	228.73
360.87	228.77
361.25	228.86
361.63	228.94
362.01	228.99
362.39	229.02
362.77	229.04
363.15	229.07
363.53	229.16
363.91	229.20
364.29	229.19
364.67	229.10
365.05	229.09
365.43	229.14
365.81	229.15
366.19	229.20
366.57	229.24
366.95	229.21
367.33	229.14
367.71	229.10
368.09	229.12
368.47	229.10
368.85	229.08
369.23	229.01
369.61	228.96
369.99	228.94
370.37	228.96
370.75	228.98
371.13	228.95
371.51	228.86
371.89	228.80
372.27	228.77
372.65	228.74
373.03	228.72
373.41	228.67
373.78	228.63
374.16	228.50
374.54	228.40
374.92	228.32
375.30	228.25
375.68	228.18
376.06	228.13
376.44	228.04
376.82	227.99
377.19	227.92
377.57	227.84
377.95	227.73
378.33	227.62
378.71	227.50
379.09	227.40
379.47	227.36
379.84	227.31
380.22	227.23
380.60	227.14
380.98	227.05
381.36	226.95
381.73	226.87
382.11	226.83
382.49	226.79
382.87	226.73
383.25	226.68
383.62	226.75
384.00	226.68
384.38	226.61
384.76	226.59
385.13	226.60
385.51	226.56
385.89	226.49
386.27	226.43
386.64	226.35
387.02	226.33
387.40	226.29
387.78	226.24
388.15	226.23
388.53	226.20
388.91	226.14
389.29	226.16
389.66	226.12
390.04	226.08
390.42	226.06
390.79	226.06
391.17	226.07
391.55	225.94
391.92	225.90
392.30	225.92
392.68	225.87
393.05	225.84
393.43	225.88
393.81	225.86
394.18	225.87
394.56	225.94
394.94	225.94
395.31	225.93
395.69	225.96
396.06	225.99
396.44	226.01
396.82	226.06
397.19	226.16
397.57	226.19
397.95	226.24
398.32	226.27
398.70	226.32
399.07	226.40
399.45	226.47
399.82	226.55
400.20	226.60
400.58	226.70
400.95	226.75
401.33	226.82
401.70	226.99
402.08	227.11
402.45	227.16
402.83	227.26
403.20	227.35
403.58	227.44
403.95	227.57
404.33	227.69
404.71	227.80
405.08	227.94
405.46	228.09
405.83	228.23
406.21	228.39
406.58	228.58
406.96	228.70
407.33	228.87
407.70	229.06
408.08	229.32
408.45	229.51
408.83	229.73
409.20	229.92
409.58	230.09
409.95	230.34
410.33	230.62
410.70	230.86
411.08	231.18
411.45	231.53
411.82	231.81
412.20	232.18
412.57	232.57
412.95	232.81
413.32	233.23
413.69	233.65
414.07	234.09
414.44	234.53
414.82	234.99
415.19	235.54
415.56	236.05
415.94	236.57
416.31	237.20
416.68	237.83
417.06	238.55
417.43	239.26
417.81	239.98
418.18	240.75
418.55	241.60
418.93	242.44
419.30	243.35
419.67	244.29
420.04	245.25
420.42	246.26
420.79	247.48
421.16	248.59
421.54	249.80
421.91	250.98
422.28	252.24
422.66	253.57
423.03	254.90
423.40	256.23
423.77	257.66
424.15	259.10
424.52	260.55
424.89	262.16
425.26	263.72
425.64	265.20
426.01	266.81
426.38	268.47
426.75	270.17
427.13	271.86
427.50	273.65
427.87	275.52
428.24	277.41
428.61	279.16
428.99	281.12
429.36	283.22
429.73	285.28
430.10	287.28
430.47	289.32
430.85	291.41
431.22	293.68
431.59	296.09
431.96	298.34
432.33	300.84
432.70	303.20
433.08	306.02
433.45	308.65
433.82	311.26
434.19	314.14
434.56	316.95
434.93	319.59
435.30	322.21
435.68	325.11
436.05	327.92
436.42	330.69
436.79	333.17
437.16	335.89
437.53	338.72
437.90	341.56
438.27	344.33
438.64	347.17
439.01	349.76
439.38	351.97
439.75	354.12
440.13	356.62
440.50	358.94
440.87	360.76
441.24	362.68
441.61	364.81
441.98	366.32
442.35	368.15
442.72	370.00
443.09	371.82
443.46	372.75
443.83	373.35
444.20	373.90
444.57	374.74
444.94	374.99
445.31	375.34
445.68	375.67
446.05	375.77
446.42	375.39
446.79	374.99
447.16	374.54
447.53	374.23
447.90	373.08
448.27	371.95
448.64	370.39
449.01	369.24
449.37	367.30
449.74	365.40
450.11	363.10
450.48	360.66
450.85	358.12
451.22	356.04
451.59	354.00
451.96	352.03
452.33	349.43
452.70	347.11
453.07	344.33
453.43	341.43
453.80	338.67
454.17	336.01
454.54	333.43
454.91	330.70
455.28	328.04
455.65	325.56
456.02	323.13
456.38	320.98
456.75	318.38
457.12	316.12
457.49	313.90
457.86	311.76
458.23	309.92
458.59	307.88
458.96	305.76
459.33	303.91
459.70	302.04
460.07	300.56
460.43	298.83
460.80	297.15
461.17	295.73
461.54	294.21
461.91	292.78
462.27	291.32
462.64	290.05
463.01	288.67
463.38	287.37
463.74	285.99
464.11	284.81
464.48	283.76
464.85	282.67
465.21	281.80
465.58	280.85
465.95	279.71
466.32	278.83
466.68	277.95
467.05	277.07
467.42	276.19
467.78	275.27
468.15	274.41
468.52	273.78
468.88	272.90
469.25	272.15
469.62	271.55
469.98	270.91
470.35	270.29
470.72	269.72
471.08	269.07
471.45	268.52
471.82	267.99
472.18	267.38
472.55	266.91
472.92	266.40
473.28	265.99
473.65	265.55
474.02	265.13
474.38	264.78
474.75	264.44
475.11	264.10
475.48	263.83
475.85	263.56
476.21	263.31
476.58	263.15
476.94	263.00
477.31	262.82
477.67	262.69
478.04	262.61
478.41	262.57
478.77	262.63
479.14	262.60
479.50	262.62
479.87	262.72
480.23	262.79
480.60	262.85
480.96	262.95
481.33	263.18
481.69	263.35
482.06	263.56
482.42	263.77
482.79	264.04
483.15	264.37
483.52	264.80
483.88	265.17
484.25	265.59
484.61	266.01
484.98	266.49
485.34	267.03
485.71	267.61
486.07	268.21
486.44	268.79
486.80	269.48
487.17	270.22
487.53	271.00
487.90	271.89
488.26	272.86
488.62	273.88
488.99	274.89
489.35	275.95
489.72	277.07
490.08	278.29
490.44	279.55
490.81	280.88
491.17	282.22
491.54	283.71
491.90	285.24
492.26	286.88
492.63	288.62
492.99	290.49
493.36	292.39
493.72	294.49
494.08	296.60
494.45	298.86
494.81	301.22
495.17	303.67
495.54	306.26
495.90	308.93
496.26	311.71
496.63	314.65
496.99	317.76
497.35	321.01
497.72	324.43
498.08	327.95
498.44	331.69
498.80	335.65
499.17	339.69
499.53	343.87
499.89	348.26
500.26	352.78
500.62	357.41
500.98	362.40
501.34	367.44
501.71	372.76
502.07	378.20
502.43	383.83
502.79	389.69
503.16	395.80
503.52	402.13
503.88	408.52
504.24	415.16
504.60	422.03
504.97	429.22
505.33	436.57
505.69	444.28
506.05	452.02
506.41	459.90
506.78	468.09
507.14	476.55
507.50	485.28
507.86	494.30
508.22	503.50
508.59	512.66
508.95	522.24
509.31	532.04
509.67	542.12
510.03	552.40
510.39	562.91
510.75	573.63
511.12	584.54
511.48	595.83
511.84	607.25
512.20	618.74
512.56	630.58
512.92	642.70
513.28	655.01
513.64	667.46
514.00	680.13
514.37	693.03
514.73	706.01
515.09	718.99
515.45	732.28
515.81	745.82
516.17	759.82
516.53	773.89
516.89	788.12
517.25	802.40
517.61	816.85
517.97	831.31
518.33	845.72
518.69	860.49
519.05	875.53
519.41	890.65
519.77	906.20
520.13	921.65
520.49	937.00
520.85	952.40
521.21	968.09
521.57	984.31
521.93	1000.02
522.29	1016.34
522.65	1032.56
523.01	1048.81
523.37	1064.79
523.73	1080.93
524.09	1097.02
524.45	1113.24
524.81	1129.76
525.17	1146.55
525.53	1163.40
525.89	1180.34
526.25	1197.19
526.61	1213.52
526.97	1230.34
527.33	1246.73
527.68	1263.25
528.04	1279.76
528.40	1296.28
528.76	1313.26
529.12	1329.71
529.48	1346.55
529.84	1362.58
530.20	1379.12
530.56	1396.12
530.91	1413.50
531.27	1430.15
531.63	1446.59
531.99	1463.14
532.35	1479.05
532.71	1494.74
533.07	1510.94
533.42	1526.73
533.78	1542.58
534.14	1558.82
534.50	1574.12
534.86	1589.99
535.21	1605.23
535.57	1620.96
535.93	1636.32
536.29	1651.11
536.65	1666.07
537.00	1680.87
537.36	1696.07
537.72	1710.64
538.08	1724.90
538.44	1738.57
538.79	1752.31
539.15	1765.89
539.51	1779.60
539.87	1793.85
540.22	1807.53
540.58	1821.17
540.94	1834.46
541.29	1847.31
541.65	1859.84
542.01	1872.94
542.37	1885.15
542.72	1897.43
543.08	1909.21
543.44	1921.55
543.79	1932.68
544.15	1943.71
544.51	1955.16
544.87	1966.15
545.22	1977.03
545.58	1987.23
545.94	1996.98
546.29	2007.01
546.65	2016.88
547.01	2025.98
547.36	2034.60
547.72	2043.08
548.07	2050.96
548.43	2058.96
548.79	2066.99
549.14	2074.64
549.50	2081.97
549.86	2089.67
550.21	2096.98
550.57	2104.05
550.92	2110.64
551.28	2117.79
551.64	2124.85
551.99	2131.22
552.35	2137.38
552.70	2143.45
553.06	2149.21
553.41	2155.60
553.77	2161.52
554.13	2167.52
554.48	2173.68
554.84	2179.24
555.19	2184.54
555.55	2189.67
555.90	2194.13
556.26	2199.01
556.61	2203.48
556.97	2207.59
557.32	2211.71
557.68	2215.89
558.03	2220.26
558.39	2223.90
558.74	2228.53
559.10	2232.41
559.45	2236.19
559.81	2240.46
560.16	2244.23
560.52	2247.52
560.87	2250.85
561.23	2253.51
561.58	2256.45
561.94	2259.04
562.29	2261.25
562.64	2263.90
563.00	2266.48
563.35	2270.11
563.71	2273.20
564.06	2276.64
564.42	2279.72
564.77	2282.29
565.12	2284.59
565.48	2286.52
565.83	2288.58
566.19	2289.97
566.54	2290.89
566.89	2291.95
567.25	2292.57
567.60	2293.97
567.96	2295.63
568.31	2296.57
568.66	2297.84
569.02	2298.54
569.37	2298.76
569.72	2299.88
570.08	2300.21
570.43	2300.36
570.78	2299.79
571.14	2298.23
571.49	2296.89
571.84	2296.56
572.20	2295.43
572.55	2294.37
572.90	2292.84
573.26	2291.53
573.61	2289.63
573.96	2287.80
574.31	2284.91
574.67	2281.88
575.02	2278.25
575.37	2275.08
575.72	2271.27
576.08	2267.80
576.43	2264.42
576.78	2260.79
577.13	2257.49
577.49	2254.28
577.84	2250.85
578.19	2247.17
578.54	2243.66
578.90	2239.43
579.25	2233.92
579.60	2229.01
579.95	2224.00
580.30	2219.09
580.66	2213.79
581.01	2209.00
581.36	2204.23
581.71	2200.27
582.06	2195.96
582.42	2191.57
582.77	2186.24
583.12	2181.75
583.47	2177.10
583.82	2172.23
584.17	2167.19
584.53	2161.75
584.88	2156.10
585.23	2150.18
585.58	2144.75
585.93	2139.41
586.28	2134.65
586.63	2129.67
586.98	2124.53
587.34	2119.88
587.69	2114.90
588.04	2109.72
588.39	2104.01
588.74	2097.58
589.09	2091.31
589.44	2084.56
589.79	2078.37
590.14	2072.86
590.49	2066.32
590.84	2059.90
591.19	2053.80
591.54	2047.30
591.89	2040.12
592.25	2033.45
592.60	2026.37
592.95	2018.89
593.30	2011.49
593.65	2003.85
594.00	1996.69
594.35	1989.47
594.70	1981.45
595.05	1974.32
595.40	1967.08
595.75	1959.61
596.10	1953.49
596.45	1946.84
596.80	1940.64
597.15	1934.28
597.50	1927.18
597.85	1920.73
598.19	1914.09
598.54	1906.97
598.89	1900.42
599.24	1894.37
599.59	1887.72
599.94	1881.60
600.29	1875.12
600.64	1868.50
600.99	1861.21
601.34	1854.37
601.69	1847.56
602.04	1840.76
602.39	1833.43
602.74	1826.77
603.08	1820.10
603.43	1813.22
603.78	1805.90
604.13	1798.72
604.48	1791.34
604.83	1784.53
605.18	1777.57
605.53	1769.62
605.87	1761.58
606.22	1754.28
606.57	1746.43
606.92	1739.07
607.27	1731.82
607.62	1725.01
607.96	1717.76
608.31	1711.18
608.66	1703.65
609.01	1696.06
609.36	1688.36
609.70	1680.38
610.05	1672.28
610.40	1664.56
610.75	1656.29
611.10	1648.62
611.44	1640.21
611.79	1632.25
612.14	1623.63
612.49	1614.37
612.83	1606.01
613.18	1598.01
613.53	1589.73
613.88	1581.08
614.22	1572.87
614.57	1564.24
614.92	1556.25
615.27	1548.67
615.61	1540.22
615.96	1532.29
616.31	1524.62
616.65	1517.38
617.00	1509.79
617.35	1502.09
617.70	1493.82
618.04	1485.30
618.39	1477.07
618.74	1469.45
619.08	1461.14
619.43	1453.46
619.78	1446.64
620.12	1439.51
620.47	1431.88
620.82	1423.84
621.16	1416.48
621.51	1408.84
621.85	1401.27
622.20	1392.72
622.55	1384.41
622.89	1376.58
623.24	1368.77
623.59	1361.29
623.93	1353.77
624.28	1346.53
624.62	1339.06
624.97	1331.65
625.32	1324.99
625.66	1317.98
626.01	1310.80
626.35	1303.32
626.70	1295.61
627.04	1287.96
627.39	1280.17
627.73	1272.82
628.08	1265.95
628.43	1258.80
628.77	1251.47
629.12	1243.87
629.46	1236.72
629.81	1229.30
630.15	1222.14
630.50	1214.74
630.84	1206.61
631.19	1198.63
631.53	1191.09
631.88	1183.42
632.22	1175.89
632.57	1168.50
632.91	1160.80
633.26	1153.36
633.60	1145.96
633.95	1138.78
634.29	1131.69
634.64	1125.01
634.98	1117.64
635.32	1110.43
635.67	1103.67
636.01	1096.94
636.36	1090.20
636.70	1083.58
637.05	1077.01
637.39	1070.48
637.73	1064.09
638.08	1058.16
638.42	1052.14
638.77	1045.66
639.11	1039.03
639.45	1032.67
639.80	1026.04
640.14	1019.75
640.49	1013.27
640.83	1007.01
641.17	1000.79
641.52	994.42
641.86	987.90
642.20	982.13
642.55	975.81
642.89	969.37
643.23	962.88
643.58	957.04
643.92	950.91
644.26	944.81
644.61	938.75
644.95	932.66
645.29	926.14
645.64	919.38
645.98	913.06
646.32	907.26
646.66	901.26
647.01	895.47
647.35	889.76
647.69	883.84
648.04	878.22
648.38	872.43
648.72	866.43
649.06	860.37
649.41	854.38
649.75	848.38
650.09	842.42
650.43	836.57
650.78	830.46
651.12	824.48
651.46	818.71
651.80	813.02
652.14	807.65
652.49	802.26
652.83	797.10
653.17	791.45
653.51	785.69
653.85	780.20
654.20	774.55
654.54	768.46
654.88	762.80
655.22	756.90
655.56	751.22
655.90	745.75
656.25	740.52
656.59	735.18
656.93	730.18
657.27	725.07
657.61	719.57
657.95	714.44
658.29	709.30
658.64	704.04
658.98	698.67
659.32	693.14
659.66	687.91
660.00	682.61
660.34	677.65
660.68	672.78
661.02	667.84
661.36	663.15
661.70	658.70
662.05	654.32
662.39	650.05
662.73	645.52
663.07	641.16
663.41	636.70
663.75	632.24
664.09	627.65
664.43	623.21
664.77	619.21
665.11	614.91
665.45	610.78
665.79	606.74
666.13	602.59
666.47	598.55
666.81	594.36
667.15	590.21
667.49	586.34
667.83	582.53
668.17	578.59
668.51	574.52
668.85	570.51
669.19	566.64
669.53	562.75
669.87	558.99
670.21	555.29
670.55	551.65
670.89	548.17
671.23	544.77
671.57	541.26
671.91	537.65
672.25	534.25
672.58	530.74
672.92	527.28
673.26	524.05
673.60	520.89
673.94	517.83
674.28	514.90
674.62	511.94
674.96	508.80
675.30	505.90
675.64	502.92
675.97	500.11
676.31	497.23
676.65	494.35
676.99	491.62
677.33	488.76
677.67	485.95
678.01	482.95
678.34	479.87
678.68	477.01
679.02	474.24
679.36	471.38
679.70	468.71
680.04	465.95
680.37	463.15
680.71	460.34
681.05	457.69
681.39	455.06
681.73	452.40
682.06	449.90
682.40	447.31
682.74	444.80
683.08	442.32
683.42	439.73
683.75	437.20
684.09	434.63
684.43	432.13
684.77	429.68
685.10	427.31
685.44	425.03
685.78	422.72
686.12	420.43
686.45	418.19
686.79	415.90
687.13	413.71
687.46	411.61
687.80	409.47
688.14	407.30
688.48	405.20
688.81	402.95
689.15	400.79
689.49	398.63
689.82	396.56
690.16	394.38
690.50	392.41
690.83	390.46
691.17	388.47
691.51	386.57
691.84	384.69
692.18	382.78
692.52	380.84
692.85	378.88
693.19	377.00
693.52	375.15
693.86	373.33
694.20	371.54
694.53	369.71
694.87	367.86
695.21	366.03
695.54	364.23
695.88	362.54
696.21	360.80
696.55	359.14
696.88	357.40
697.22	355.77
697.56	354.16
697.89	352.53
698.23	350.93
698.56	349.30
698.90	347.73
699.23	346.13
699.57	344.57
699.90	343.04
700.24	341.52
700.58	339.96
700.91	338.44
701.25	337.01
701.58	335.65
701.92	334.32
702.25	332.98
702.59	331.59
702.92	330.24
703.26	328.95
703.59	327.66
703.93	326.46
704.26	325.23
704.60	323.93
704.93	322.65
705.26	321.42
705.60	320.28
705.93	319.11
706.27	318.05
706.60	316.98
706.94	315.88
707.27	314.71
707.61	313.67
707.94	312.66
708.27	311.57
708.61	310.50
708.94	309.47
709.28	308.53
709.61	307.54
709.94	306.61
710.28	305.59
710.61	304.61
710.95	303.59
711.28	302.69
711.61	301.73
711.95	300.84
712.28	299.88
712.61	298.90
712.95	297.99
713.28	297.11
713.61	296.23
713.95	295.36
714.28	294.55
714.61	293.74
714.95	292.88
715.28	292.03
715.61	291.14
715.95	290.30
716.28	289.38
716.61	288.57
716.95	287.72
717.28	286.96
717.61	286.18
717.94	285.44
718.28	284.61
718.61	283.86
718.94	283.15
719.27	282.47
719.61	281.82
719.94	281.16
720.27	280.44
720.60	279.72
720.94	279.07
721.27	278.46
721.60	277.85
721.93	277.23
722.27	276.67
722.60	276.12
722.93	275.52
723.26	274.99
723.59	274.44
723.93	273.90
724.26	273.35
724.59	272.81
724.92	272.26
725.25	271.80
725.59	271.33
725.92	270.80
726.25	270.26
726.58	269.78
726.91	269.25
727.24	268.79
727.57	268.38
727.91	267.85
728.24	267.39
728.57	266.86
728.90	266.44
729.23	265.94
729.56	265.49
729.89	265.03
730.22	264.56
730.55	264.06
730.89	263.61
731.22	263.14
731.55	262.68
731.88	262.25
732.21	261.76
732.54	261.33
732.87	260.92
733.20	260.56
733.53	260.13
733.86	259.78
734.19	259.35
734.52	258.95
734.85	258.70
735.18	258.28
735.51	257.93
735.84	257.53
736.17	257.19
736.50	256.79
736.83	256.55
737.16	256.19
737.49	255.85
737.82	255.48
738.15	255.19
738.48	254.87
738.81	254.55
739.14	254.27
739.47	253.95
739.80	253.62
740.13	253.31
740.46	253.01
740.79	252.70
741.12	252.42
741.45	252.09
741.78	251.73
742.11	251.49
742.44	251.19
742.77	250.93
743.10	250.63
743.43	250.36
743.75	249.98
744.08	249.84
744.41	249.59
744.74	249.35
745.07	249.07
745.40	248.83
745.73	248.60
746.06	248.31
746.39	248.07
746.71	247.79
747.04	247.53
747.37	247.24
747.70	246.98
748.03	246.71
748.36	246.52
748.68	246.29
749.01	246.01
749.34	245.78
749.67	245.51
750.00	245.32
750.33	245.13
750.65	244.91
750.98	244.58
751.31	244.36
751.64	244.12
751.97	243.94
752.29	243.73
752.62	243.45
752.95	243.26
753.28	243.03
753.60	242.85
753.93	242.64
754.26	242.47
754.59	242.25
754.91	242.03
755.24	241.80
755.57	241.60
755.90	241.39
756.22	241.17
756.55	240.98
756.88	240.76
757.20	240.53
757.53	240.37
757.86	240.19
758.19	240.04
758.51	239.90
758.84	239.68
759.17	239.50
759.49	239.34
759.82	239.21
760.15	239.08
760.47	238.93
760.80	238.76
761.13	238.67
761.45	238.51
761.78	238.37
762.11	238.24
762.43	238.08
762.76	237.94
763.08	237.84
763.41	237.69
763.74	237.57
764.06	237.43
764.39	237.26
764.71	237.11
765.04	236.97
765.37	236.82
765.69	236.70
766.02	236.56
766.34	236.45
766.67	236.30
767.00	236.21
767.32	236.15
767.65	236.07
767.97	235.92
768.30	235.84
768.62	235.70
768.95	235.58
769.27	235.47
769.60	235.39
769.92	235.27
770.25	235.17
770.57	235.02
770.90	234.94
771.22	234.83
771.55	234.73
771.87	234.64
772.20	234.55
772.52	234.54
772.85	234.58
773.17	234.51
773.50	234.42
773.82	234.29
774.15	234.12
774.47	234.01
774.80	233.92
775.12	233.85
775.45	233.79
775.77	233.73
776.09	233.67
776.42	233.57
776.74	233.49
777.07	233.41
777.39	233.35
777.72	233.25
778.04	233.19
778.36	233.14
778.69	233.06
779.01	233.00
779.33	232.86
779.66	232.68
779.98	232.63
780.31	232.56
780.63	232.50
780.95	232.45
781.28	232.37
781.60	232.30
781.92	232.21
782.25	232.18
782.57	232.10
782.89	232.05
783.22	231.99
783.54	231.94
783.86	231.90
784.19	231.86
784.51	231.85
784.83	231.79
785.16	231.73
785.48	231.69
785.80	231.66
786.12	231.61
786.45	231.56
786.77	231.47
787.09	231.44
787.42	231.41
787.74	231.38
788.06	231.37
788.38	231.32
788.71	231.26
789.03	231.18
789.35	231.14
789.67	231.10
789.99	231.09
790.32	231.04
790.64	231.00
790.96	231.04
791.28	230.96
791.61	230.93
791.93	230.91
792.25	230.84
792.57	230.86
792.89	230.84
793.21	230.82
793.54	230.81
793.86	230.74
794.18	230.73
794.50	230.67
794.82	230.60
795.14	230.57
795.47	230.57
795.79	230.57
796.11	230.53
796.43	230.46
796.75	230.38
797.07	230.36
797.39	230.31
797.71	230.20
798.04	230.19
798.36	230.15
798.68	230.11
799.00	230.10
799.32	230.01
799.64	229.97
799.96	229.93
800.28	229.90
800.60	229.85
800.92	229.78
801.24	229.75
801.56	229.73
801.89	229.68
802.21	229.61
802.53	229.53
802.85	229.50
803.17	229.52
803.49	229.50
803.81	229.44
804.13	229.39
804.45	229.35
804.77	229.31
805.09	229.28
805.41	229.21
805.73	229.16
806.05	229.10
806.37	229.08
806.69	229.04
807.01	228.97
807.33	228.97
807.65	228.90
807.97	228.90
808.28	228.84
808.60	228.81
808.92	228.79
809.24	228.85
809.56	228.80
809.88	228.73
810.20	228.70
810.52	228.68
810.84	228.66
811.16	228.64
811.48	228.60
811.80	228.60
812.12	228.56
812.43	228.52
812.75	228.52
813.07	228.47
813.39	228.42
813.71	228.38
814.03	228.33
814.35	228.32
814.67	228.28
814.98	228.25
815.30	228.25
815.62	228.18
815.94	228.09
816.26	228.13
816.58	228.11
816.89	228.10
817.21	228.07
817.53	228.06
817.85	228.03
818.17	228.04
818.48	227.98
818.80	228.01
819.12	228.00
819.44	227.96
819.76	227.91
820.07	227.92
820.39	227.95
820.71	227.96
821.03	227.95
821.34	227.95
821.66	227.98
821.98	227.99
822.30	228.01
822.61	228.03
822.93	227.97
823.25	227.95
823.57	227.94
823.88	227.94
824.20	227.91
824.52	227.93
824.83	227.90
825.15	227.90
825.47	227.87
825.79	227.89
826.10	227.90
826.42	227.92
826.74	227.91
827.05	227.87
827.37	227.87
827.69	227.84
828.00	227.80
828.32	227.80
828.64	227.76
828.95	227.78
829.27	227.78
829.58	227.78
829.90	227.81
830.22	227.78
830.53	227.77
830.85	227.79
831.17	227.76
831.48	227.76
831.80	227.77
832.11	227.77
832.43	227.76
832.75	227.74
833.06	227.80
833.38	227.81
833.69	227.81
834.01	227.80
834.32	227.79
834.64	227.83
834.96	227.80
835.27	227.82
835.59	227.79
835.90	227.73
836.22	227.72
836.53	227.69
836.85	227.71
837.16	227.80
837.48	227.78
837.79	227.81
838.11	227.84
838.42	227.85
838.74	227.85
839.05	227.81
839.37	227.80
839.68	227.71
840.00	227.67
840.31	227.69
840.63	227.68
840.94	227.67
841.26	227.64
841.57	227.63
841.88	227.61
842.20	227.61
842.51	227.62
842.83	227.62
843.14	227.68
843.46	227.63
843.77	227.57
844.08	227.54
844.40	227.50
844.71	227.43
845.03	227.40
845.34	227.37
845.65	227.38
845.97	227.34
846.28	227.36
846.60	227.36
846.91	227.31
847.22	227.28
847.54	227.30
847.85	227.28
848.16	227.27
848.48	227.27
848.79	227.26
849.10	227.25
849.42	227.24
849.73	227.13
850.04	227.15
850.36	227.10
850.67	227.12
850.98	227.07
851.30	227.08
851.61	227.03
851.92	227.05
852.23	227.04
852.55	227.03
852.86	227.03
853.17	227.02
853.49	227.05
853.80	227.02
854.11	227.01
854.42	227.02
854.74	226.99
855.05	226.99
855.36	226.95
855.67	226.93
855.99	226.92
856.30	227.05
856.61	227.02
856.92	227.00
857.23	226.98
857.55	226.97
857.86	226.99
858.17	227.00
858.48	226.99
858.79	226.99
859.11	226.98
859.42	226.98
859.73	226.96
860.04	226.95
860.35	226.96
860.66	226.94
860.98	226.94
861.29	226.94
861.60	226.95
861.91	226.93
862.22	226.93
862.53	226.91
862.84	226.77
863.16	226.83
863.47	226.80
863.78	226.78
864.09	226.79
864.40	226.79
864.71	226.79
865.02	226.81
865.33	226.80
865.64	226.79
865.95	226.77
866.27	226.85
866.58	226.87
866.89	226.88
867.20	226.85
867.51	226.87
867.82	226.87
868.13	226.88
868.44	226.92
868.75	226.94
869.06	226.96
869.37	226.99
869.68	226.94
869.99	226.99
870.30	227.01
870.61	227.03
870.92	227.02
871.23	227.02
871.54	227.00
871.85	227.00
872.16	227.03
872.47	227.00
872.78	226.96
873.09	226.93
873.40	226.91
873.71	226.92
874.02	226.92
874.33	226.89
874.64	226.85
874.95	226.85
875.26	226.85
875.56	226.86
875.87	226.84
876.18	226.84
876.49	226.90
876.80	226.88
877.11	226.86
877.42	226.86
877.73	226.86
878.04	226.84
878.35	226.84
878.66	226.80
878.96	226.80
879.27	226.78
879.58	226.78
879.89	226.80
880.20	226.85
880.51	226.80
880.82	226.81
881.12	226.80
881.43	226.77
881.74	226.71
882.05	226.70
882.36	226.70
882.67	226.70
882.97	226.63
883.28	226.62
883.59	226.62
883.90	226.62
884.21	226.63
884.51	226.65
884.82	226.61
885.13	226.64
885.44	226.64
885.74	226.63
886.05	226.63
886.36	226.62
886.67	226.58
886.98	226.63
887.28	226.59
887.59	226.59
887.90	226.57
888.20	226.57
888.51	226.56
888.82	226.53
889.13	226.54
889.43	226.59
889.74	226.62
890.05	226.59
890.35	226.58
890.66	226.59
890.97	226.56
891.28	226.59
891.58	226.58
891.89	226.57
892.20	226.57
892.50	226.57
892.81	226.55
893.12	226.57
893.42	226.54
893.73	226.56
894.04	226.59
894.34	226.62
894.65	226.64
894.95	226.64
895.26	226.69
895.57	226.72
895.87	226.63
896.18	226.63
896.48	226.64
896.79	226.64
897.10	226.61
897.40	226.62
897.71	226.60
898.01	226.58
898.32	226.59
898.63	226.60
898.93	226.61
899.24	226.61
899.54	226.56
899.85	226.54
900.15	226.54
900.46	226.51
900.76	226.50
901.07	226.49
901.38	226.50
901.68	226.50
901.99	226.46
902.29	226.47
902.60	226.43
902.90	226.43
903.21	226.40
903.51	226.42
903.82	226.45
904.12	226.47
904.43	226.46
904.73	226.48
905.03	226.47
905.34	226.56
905.64	226.55
905.95	226.59
906.25	226.57
906.56	226.57
906.86	226.57
907.17	226.58
907.47	226.61
907.77	226.59
908.08	226.56
908.38	226.56
908.69	226.59
908.99	226.67
909.30	226.66
909.60	226.68
909.90	226.69
910.21	226.69
910.51	226.67
910.81	226.71
911.12	226.73
911.42	226.73
911.73	226.63
912.03	226.64
912.33	226.65
912.64	226.67
912.94	226.69
913.24	226.70
913.55	226.68
913.85	226.64
914.15	226.70
914.46	226.72
914.76	226.74
915.06	226.75
915.37	226.72
915.67	226.74
915.97	226.78
916.27	226.77
916.58	226.78
916.88	226.76
917.18	226.74
917.49	226.81
917.79	226.85
918.09	226.88
918.39	226.89
918.70	226.92
919.00	226.92
919.30	226.93
919.60	226.95
919.91	226.93
920.21	226.97
920.51	226.91
920.81	226.93
921.12	226.95
921.42	226.95
921.72	226.96
922.02	226.97
922.32	226.95
922.63	226.96
922.93	227.00
923.23	227.02
923.53	227.01
923.83	226.93
924.13	226.89
924.44	226.85
924.74	226.86
925.04	226.88
925.34	226.85
925.64	226.84
925.94	226.82
926.24	226.87
926.55	226.85
926.85	226.87
927.15	226.84
927.45	226.81
927.75	226.81
928.05	226.80
928.35	226.79
928.65	226.81
928.95	226.77
929.26	226.70
929.56	226.72
929.86	226.75
930.16	226.73
930.46	226.75
930.76	226.77
931.06	226.75
931.36	226.72
931.66	226.72
931.96	226.73
932.26	226.72
932.56	226.68
932.86	226.67
933.16	226.65
933.46	226.64
933.76	226.63
934.06	226.63
934.36	226.67
934.66	226.63
934.96	226.62
935.26	226.64
935.56	226.66
935.86	226.64
936.16	226.60
936.46	226.60
936.76	226.57
937.06	226.56
937.36	226.53
937.66	226.53
937.96	226.56
938.26	226.54
938.56	226.55
938.86	226.56
939.16	226.61
939.46	226.62
939.76	226.64
940.06	226.64
940.35	226.62
940.65	226.55
940.95	226.61
941.25	226.58
941.55	226.55
941.85	226.52
942.15	226.54
942.45	226.56
942.75	226.55
943.04	226.53
943.34	226.55
943.64	226.54
943.94	226.53
944.24	226.54
944.54	226.54
944.84	226.51
945.13	226.51
945.43	226.48
945.73	226.49
946.03	226.46
946.33	226.46
946.62	226.46
946.92	226.47
947.22	226.45
947.52	226.44
947.82	226.49
948.11	226.49
948.41	226.47
948.71	226.43
949.01	226.41
949.31	226.41
949.60	226.41
949.90	226.47
950.20	226.43
950.50	226.40
950.79	226.39
951.09	226.41
951.39	226.39
951.69	226.40
951.98	226.39
952.28	226.41
952.58	226.40
952.87	226.40
953.17	226.43
953.47	226.40
953.76	226.41
954.06	226.35
954.36	226.36
954.66	226.37
954.95	226.38
955.25	226.41
955.55	226.41
955.84	226.39
956.14	226.37
956.44	226.42
956.73	226.43
957.03	226.43
957.32	226.45
957.62	226.47
957.92	226.48
958.21	226.49
958.51	226.58
958.81	226.61
959.10	226.60
959.40	226.62
959.69	226.65
959.99	226.70
960.29	226.74
960.58	226.72
960.88	226.75
961.17	226.75
961.47	226.80
961.76	226.82
962.06	226.84
962.36	226.82
962.65	226.82
962.95	226.84
963.24	226.85
963.54	226.82
963.83	226.81
964.13	226.81
964.42	226.79
964.72	226.73
965.01	226.69
965.31	226.71
965.60	226.66
965.90	226.72
966.19	226.66
966.49	226.64
966.78	226.69
967.08	226.67
967.37	226.69
967.67	226.65
967.96	226.66
968.26	226.68
968.55	226.68
968.85	226.67
969.14	226.64
969.43	226.60
969.73	226.63
970.02	226.59
970.32	226.56
970.61	226.56
970.91	226.51
971.20	226.54
971.49	226.52
971.79	226.50
972.08	226.42
972.38	226.42
972.67	226.41
972.96	226.40
973.26	226.39
973.55	226.37
973.85	226.37
974.14	226.36
974.43	226.35
974.73	226.34
975.02	226.32
975.31	226.30
975.61	226.30
975.90	226.29
976.19	226.30
976.49	226.29
976.78	226.27
977.07	226.29
977.37	226.27
977.66	226.28
977.95	226.28
978.24	226.30
978.54	226.31
978.83	226.28
979.12	226.27
979.42	226.25
979.71	226.26
980.00	226.24
980.29	226.22
980.59	226.20
980.88	226.23
981.17	226.23
981.46	226.24
981.76	226.24
982.05	226.26
982.34	226.26
982.63	226.27
982.93	226.28
983.22	226.30
983.51	226.31
983.80	226.33
984.09	226.34
984.39	226.30
984.68	226.31
984.97	226.35
985.26	226.30
985.55	226.32
985.85	226.30
986.14	226.34
986.43	226.35
986.72	226.33
987.01	226.30
987.30	226.29
987.59	226.29
987.89	226.34
988.18	226.33
988.47	226.36
988.76	226.36
989.05	226.36
989.34	226.35
989.63	226.35
989.92	226.35
990.22	226.34
990.51	226.38
990.80	226.38
991.09	226.37
991.38	226.42
991.67	226.40
991.96	226.39
992.25	226.37
992.54	226.36
992.83	226.37
993.12	226.35
993.41	226.37
993.70	226.39
993.99	226.38
994.28	226.35
994.58	226.37
994.87	226.35
995.16	226.36
995.45	226.35
995.74	226.33
996.03	226.31
996.32	226.35
996.61	226.35
996.90	226.35
997.19	226.36
997.48	226.37
997.77	226.34
998.06	226.37
998.34	226.38
998.63	226.40
998.92	226.40
999.21	226.43
999.50	226.40
999.79	226.39
1000.08	226.38
1000.37	226.39
1000.66	226.34
1000.95	226.39
1001.24	226.41
1001.53	226.45
1001.82	226.47
1002.11	226.45
1002.40	226.44
1002.68	226.50
1002.97	226.55
1003.26	226.52
1003.55	226.53
1003.84	226.57
1004.13	226.58
1004.42	226.57
1004.71	226.58
1004.99	226.57
1005.28	226.60
1005.57	226.61
1005.86	226.62
1006.15	226.62
1006.44	226.63
1006.72	226.67
1007.01	226.66
1007.30	226.65
1007.59	226.61
1007.88	226.62
1008.17	226.62
1008.45	226.61
1008.74	226.57
1009.03	226.52
1009.32	226.53
1009.60	226.49
1009.89	226.47
1010.18	226.46
1010.47	226.44
1010.76	226.43
1011.04	226.42
1011.33	226.42
1011.62	226.43
1011.91	226.41
1012.19	226.43
1012.48	226.42
1012.77	226.39
1013.05	226.40
1013.34	226.41
1013.63	226.39
1013.92	226.39
1014.20	226.42
1014.49	226.41
1014.78	226.41
1015.06	226.39
1015.35	226.36
1015.64	226.39
1015.92	226.41
1016.21	226.39
1016.50	226.41
1016.78	226.43
1017.07	226.45
1017.36	226.43
1017.64	226.43
1017.93	226.44
1018.22	226.41
1018.50	226.40
1018.79	226.41
1019.08	226.38
1019.36	226.38
1019.65	226.41
1019.93	226.42
1020.22	226.42
1020.51	226.46
1020.79	226.41
1021.08	225.96
1021.36	225.93
1021.65	226.22
1021.94	226.61
1022.22	226.61
1022.51	226.66
1022.79	226.81
1023.08	226.58
1023.36	227.42
1023.65	225.68
>>>>>End Processed Spectral Data<<<<<
