SpectraSuite Data File
++++++++++++++++++++++++++++++++++++
Date: Fri Feb 01 15:53:58 EST 2013
User: group
Dark Spectrum Present: No
Reference Spectrum Present: No
Number of Sampled Component Spectra: 1
Spectrometers: USB2E7196
Integration Time (usec): 35000 (USB2E7196)
Spectra Averaged: 100 (USB2E7196)
Boxcar Smoothing: 10 (USB2E7196)
Correct for Electrical Dark: No (USB2E7196)
Strobe/Lamp Enabled: No (USB2E7196)
Correct for Detector Non-linearity: No (USB2E7196)
Correct for Stray Light: No (USB2E7196)
Number of Pixels in Processed Spectrum: 2048
>>>>>Begin Processed Spectral Data<<<<<
339.09	0.00
339.48	214.56
339.86	215.67
340.24	217.61
340.63	218.79
341.01	222.42
341.39	221.87
341.78	222.22
342.16	223.66
342.54	224.38
342.93	212.89
343.31	223.64
343.69	224.20
344.07	224.70
344.46	225.12
344.84	225.53
345.22	225.72
345.60	225.97
345.99	226.19
346.37	226.34
346.75	226.45
347.13	226.51
347.52	226.55
347.90	226.64
348.28	226.69
348.66	226.73
349.05	226.71
349.43	226.77
349.81	226.81
350.19	226.87
350.57	226.92
350.96	226.97
351.34	227.06
351.72	227.13
352.10	227.19
352.48	227.26
352.87	227.27
353.25	227.37
353.63	227.41
354.01	227.49
354.39	227.55
354.77	227.62
355.15	227.74
355.54	227.86
355.92	227.89
356.30	227.93
356.68	228.04
357.06	228.15
357.44	228.20
357.82	228.28
358.20	228.37
358.58	228.41
358.97	228.50
359.35	228.60
359.73	228.66
360.11	228.73
360.49	228.77
360.87	228.84
361.25	228.87
361.63	228.94
362.01	228.99
362.39	229.04
362.77	229.07
363.15	229.05
363.53	229.06
363.91	229.11
364.29	229.17
364.67	229.11
365.05	229.11
365.43	229.16
365.81	229.19
366.19	229.23
366.57	229.29
366.95	229.29
367.33	229.22
367.71	229.23
368.09	229.24
368.47	229.26
368.85	229.24
369.23	229.22
369.61	229.17
369.99	229.18
370.37	229.15
370.75	229.16
371.13	229.15
371.51	229.11
371.89	229.06
372.27	229.02
372.65	229.02
373.03	229.00
373.41	228.91
373.78	228.83
374.16	228.71
374.54	228.62
374.92	228.54
375.30	228.51
375.68	228.41
376.06	228.36
376.44	228.25
376.82	228.18
377.19	228.10
377.57	228.00
377.95	227.88
378.33	227.83
378.71	227.74
379.09	227.67
379.47	227.61
379.84	227.54
380.22	227.46
380.60	227.36
380.98	227.29
381.36	227.22
381.73	227.15
382.11	227.15
382.49	227.11
382.87	227.04
383.25	226.98
383.62	227.05
384.00	226.97
384.38	226.96
384.76	226.94
385.13	226.94
385.51	226.94
385.89	226.87
386.27	226.81
386.64	226.77
387.02	226.74
387.40	226.68
387.78	226.62
388.15	226.58
388.53	226.54
388.91	226.49
389.29	226.43
389.66	226.41
390.04	226.35
390.42	226.34
390.79	226.33
391.17	226.34
391.55	226.20
391.92	226.17
392.30	226.18
392.68	226.16
393.05	226.13
393.43	226.11
393.81	226.12
394.18	226.07
394.56	226.08
394.94	226.06
395.31	226.09
395.69	226.12
396.06	226.14
396.44	226.15
396.82	226.18
397.19	226.27
397.57	226.31
397.95	226.36
398.32	226.37
398.70	226.39
399.07	226.46
399.45	226.51
399.82	226.60
400.20	226.60
400.58	226.67
400.95	226.70
401.33	226.81
401.70	226.97
402.08	227.12
402.45	227.19
402.83	227.34
403.20	227.43
403.58	227.56
403.95	227.70
404.33	227.86
404.71	227.99
405.08	228.16
405.46	228.32
405.83	228.45
406.21	228.60
406.58	228.77
406.96	228.94
407.33	229.13
407.70	229.32
408.08	229.61
408.45	229.84
408.83	230.09
409.20	230.30
409.58	230.50
409.95	230.77
410.33	231.06
410.70	231.29
411.08	231.59
411.45	231.91
411.82	232.22
412.20	232.56
412.57	232.97
412.95	233.28
413.32	233.66
413.69	234.09
414.07	234.51
414.44	234.99
414.82	235.46
415.19	236.01
415.56	236.53
415.94	237.10
416.31	237.72
416.68	238.37
417.06	239.09
417.43	239.78
417.81	240.56
418.18	241.35
418.55	242.23
418.93	243.12
419.30	244.01
419.67	244.97
420.04	245.92
420.42	246.90
420.79	248.11
421.16	249.28
421.54	250.47
421.91	251.72
422.28	252.98
422.66	254.32
423.03	255.63
423.40	256.97
423.77	258.38
424.15	259.82
424.52	261.28
424.89	262.91
425.26	264.44
425.64	265.86
426.01	267.47
426.38	269.10
426.75	270.78
427.13	272.53
427.50	274.31
427.87	276.19
428.24	278.04
428.61	279.77
428.99	281.74
429.36	283.82
429.73	285.88
430.10	287.88
430.47	289.92
430.85	292.03
431.22	294.24
431.59	296.61
431.96	298.87
432.33	301.35
432.70	303.71
433.08	306.49
433.45	309.10
433.82	311.64
434.19	314.46
434.56	317.21
434.93	319.86
435.30	322.48
435.68	325.34
436.05	328.16
436.42	330.93
436.79	333.43
437.16	336.14
437.53	338.96
437.90	341.81
438.27	344.53
438.64	347.36
439.01	349.94
439.38	352.15
439.75	354.33
440.13	356.85
440.50	359.18
440.87	361.03
441.24	362.97
441.61	365.18
441.98	366.70
442.35	368.50
442.72	370.27
443.09	372.08
443.46	373.09
443.83	373.70
444.20	374.18
444.57	374.98
444.94	375.26
445.31	375.54
445.68	375.86
446.05	375.90
446.42	375.54
446.79	375.15
447.16	374.74
447.53	374.37
447.90	373.16
448.27	372.02
448.64	370.45
449.01	369.30
449.37	367.27
449.74	365.39
450.11	363.16
450.48	360.70
450.85	358.19
451.22	356.06
451.59	354.02
451.96	352.06
452.33	349.45
452.70	347.06
453.07	344.29
453.43	341.43
453.80	338.71
454.17	336.02
454.54	333.45
454.91	330.74
455.28	328.05
455.65	325.60
456.02	323.13
456.38	321.00
456.75	318.37
457.12	316.14
457.49	313.93
457.86	311.78
458.23	309.93
458.59	307.91
458.96	305.80
459.33	303.94
459.70	302.11
460.07	300.63
460.43	298.95
460.80	297.30
461.17	295.84
461.54	294.36
461.91	292.92
462.27	291.50
462.64	290.22
463.01	288.93
463.38	287.62
463.74	286.23
464.11	285.07
464.48	284.06
464.85	282.98
465.21	282.11
465.58	281.24
465.95	280.15
466.32	279.25
466.68	278.37
467.05	277.48
467.42	276.60
467.78	275.68
468.15	274.79
468.52	274.17
468.88	273.32
469.25	272.53
469.62	271.95
469.98	271.28
470.35	270.63
470.72	270.00
471.08	269.36
471.45	268.81
471.82	268.27
472.18	267.70
472.55	267.26
472.92	266.72
473.28	266.25
473.65	265.83
474.02	265.35
474.38	265.03
474.75	264.70
475.11	264.35
475.48	264.09
475.85	263.87
476.21	263.60
476.58	263.41
476.94	263.26
477.31	263.08
477.67	262.93
478.04	262.81
478.41	262.80
478.77	262.80
479.14	262.77
479.50	262.79
479.87	262.84
480.23	262.90
480.60	262.98
480.96	263.07
481.33	263.26
481.69	263.44
482.06	263.60
482.42	263.83
482.79	264.08
483.15	264.39
483.52	264.75
483.88	265.10
484.25	265.47
484.61	265.89
484.98	266.33
485.34	266.89
485.71	267.47
486.07	268.03
486.44	268.63
486.80	269.32
487.17	270.04
487.53	270.82
487.90	271.68
488.26	272.66
488.62	273.58
488.99	274.55
489.35	275.61
489.72	276.73
490.08	277.94
490.44	279.19
490.81	280.57
491.17	281.91
491.54	283.40
491.90	284.95
492.26	286.61
492.63	288.38
492.99	290.13
493.36	292.04
493.72	294.09
494.08	296.18
494.45	298.48
494.81	300.86
495.17	303.35
495.54	305.88
495.90	308.51
496.26	311.33
496.63	314.30
496.99	317.45
497.35	320.71
497.72	324.14
498.08	327.64
498.44	331.30
498.80	335.23
499.17	339.32
499.53	343.51
499.89	347.92
500.26	352.44
500.62	357.16
500.98	362.15
501.34	367.27
501.71	372.67
502.07	378.09
502.43	383.69
502.79	389.49
503.16	395.63
503.52	401.92
503.88	408.35
504.24	415.02
504.60	421.90
504.97	429.03
505.33	436.33
505.69	444.06
506.05	451.86
506.41	459.76
506.78	467.93
507.14	476.38
507.50	485.11
507.86	494.08
508.22	503.25
508.59	512.54
508.95	522.06
509.31	531.86
509.67	541.96
510.03	552.28
510.39	562.82
510.75	573.58
511.12	584.55
511.48	595.86
511.84	607.28
512.20	618.72
512.56	630.70
512.92	642.88
513.28	655.21
513.64	667.69
514.00	680.42
514.37	693.34
514.73	706.43
515.09	719.41
515.45	732.70
515.81	746.29
516.17	760.21
516.53	774.30
516.89	788.46
517.25	802.58
517.61	816.96
517.97	831.46
518.33	845.93
518.69	860.68
519.05	875.64
519.41	890.74
519.77	906.34
520.13	921.73
520.49	937.09
520.85	952.53
521.21	968.24
521.57	984.52
521.93	1000.15
522.29	1016.58
522.65	1032.83
523.01	1048.98
523.37	1064.97
523.73	1081.10
524.09	1097.26
524.45	1113.57
524.81	1130.32
525.17	1147.21
525.53	1163.98
525.89	1180.79
526.25	1197.60
526.61	1213.94
526.97	1230.69
527.33	1247.08
527.68	1263.63
528.04	1280.13
528.40	1296.73
528.76	1313.75
529.12	1330.36
529.48	1347.34
529.84	1363.30
530.20	1379.98
530.56	1397.15
530.91	1414.68
531.27	1431.39
531.63	1447.81
531.99	1464.32
532.35	1480.11
532.71	1495.96
533.07	1512.29
533.42	1528.17
533.78	1544.21
534.14	1560.57
534.50	1575.90
534.86	1591.94
535.21	1607.17
535.57	1623.02
535.93	1638.47
536.29	1653.31
536.65	1668.14
537.00	1682.85
537.36	1698.04
537.72	1712.49
538.08	1726.70
538.44	1740.33
538.79	1754.25
539.15	1767.90
539.51	1781.51
539.87	1795.87
540.22	1809.51
540.58	1823.20
540.94	1836.49
541.29	1849.29
541.65	1861.85
542.01	1875.04
542.37	1887.04
542.72	1899.51
543.08	1911.37
543.44	1923.74
543.79	1934.81
544.15	1945.82
544.51	1957.38
544.87	1968.41
545.22	1979.14
545.58	1989.47
545.94	1999.25
546.29	2008.99
546.65	2018.84
547.01	2028.26
547.36	2036.99
547.72	2045.45
548.07	2053.28
548.43	2061.54
548.79	2069.71
549.14	2077.33
549.50	2084.78
549.86	2092.60
550.21	2099.71
550.57	2106.82
550.92	2113.26
551.28	2120.32
551.64	2127.37
551.99	2133.83
552.35	2139.86
552.70	2146.06
553.06	2151.97
553.41	2158.33
553.77	2164.41
554.13	2170.42
554.48	2176.38
554.84	2181.73
555.19	2187.08
555.55	2192.29
555.90	2196.71
556.26	2201.46
556.61	2206.15
556.97	2210.23
557.32	2214.35
557.68	2218.54
558.03	2222.80
558.39	2226.64
558.74	2231.35
559.10	2235.18
559.45	2238.88
559.81	2243.31
560.16	2247.20
560.52	2250.51
560.87	2253.73
561.23	2256.54
561.58	2259.48
561.94	2262.10
562.29	2264.43
562.64	2267.10
563.00	2269.62
563.35	2273.07
563.71	2276.09
564.06	2279.30
564.42	2282.30
564.77	2284.69
565.12	2286.95
565.48	2288.77
565.83	2290.64
566.19	2291.79
566.54	2292.85
566.89	2293.91
567.25	2294.46
567.60	2295.69
567.96	2297.18
568.31	2298.20
568.66	2299.18
569.02	2299.71
569.37	2300.09
569.72	2301.24
570.08	2301.31
570.43	2301.37
570.78	2300.76
571.14	2299.30
571.49	2297.88
571.84	2297.41
572.20	2296.40
572.55	2295.45
572.90	2293.89
573.26	2292.42
573.61	2290.84
573.96	2288.90
574.31	2286.09
574.67	2283.05
575.02	2279.37
575.37	2276.10
575.72	2272.27
576.08	2269.00
576.43	2265.79
576.78	2261.99
577.13	2258.73
577.49	2255.70
577.84	2252.07
578.19	2248.41
578.54	2244.84
578.90	2240.65
579.25	2235.21
579.60	2230.20
579.95	2225.11
580.30	2220.17
580.66	2215.04
581.01	2210.10
581.36	2205.25
581.71	2200.96
582.06	2196.53
582.42	2192.09
582.77	2186.80
583.12	2182.29
583.47	2177.47
583.82	2172.42
584.17	2167.27
584.53	2161.64
584.88	2156.02
585.23	2150.40
585.58	2144.94
585.93	2139.43
586.28	2134.62
586.63	2129.57
586.98	2124.54
587.34	2119.98
587.69	2115.21
588.04	2109.84
588.39	2104.19
588.74	2097.84
589.09	2091.75
589.44	2085.00
589.79	2078.97
590.14	2073.51
590.49	2066.89
590.84	2060.65
591.19	2054.64
591.54	2048.17
591.89	2040.82
592.25	2033.99
592.60	2026.71
592.95	2019.08
593.30	2011.79
593.65	2004.24
594.00	1997.25
594.35	1989.96
594.70	1981.88
595.05	1974.55
595.40	1967.38
595.75	1959.84
596.10	1953.57
596.45	1946.77
596.80	1940.60
597.15	1934.02
597.50	1926.72
597.85	1920.37
598.19	1913.55
598.54	1906.32
598.89	1899.59
599.24	1893.68
599.59	1886.93
599.94	1880.83
600.29	1874.50
600.64	1867.95
600.99	1860.51
601.34	1853.66
601.69	1846.88
602.04	1839.90
602.39	1832.61
602.74	1825.73
603.08	1819.02
603.43	1812.25
603.78	1805.03
604.13	1797.82
604.48	1790.44
604.83	1783.66
605.18	1776.47
605.53	1768.53
605.87	1760.51
606.22	1753.36
606.57	1745.42
606.92	1738.16
607.27	1730.88
607.62	1723.87
607.96	1716.49
608.31	1709.88
608.66	1702.15
609.01	1694.42
609.36	1686.84
609.70	1678.67
610.05	1670.55
610.40	1662.82
610.75	1654.46
611.10	1646.76
611.44	1638.34
611.79	1630.39
612.14	1621.69
612.49	1612.71
612.83	1604.29
613.18	1596.21
613.53	1588.11
613.88	1579.54
614.22	1571.22
614.57	1562.75
614.92	1554.70
615.27	1547.21
615.61	1538.81
615.96	1530.94
616.31	1523.37
616.65	1516.13
617.00	1508.50
617.35	1500.99
617.70	1492.63
618.04	1484.12
618.39	1475.86
618.74	1468.26
619.08	1460.00
619.43	1452.48
619.78	1445.61
620.12	1438.41
620.47	1430.87
620.82	1422.66
621.16	1415.39
621.51	1407.84
621.85	1400.15
622.20	1391.78
622.55	1383.39
622.89	1375.49
623.24	1367.77
623.59	1360.34
623.93	1352.66
624.28	1345.61
624.62	1338.01
624.97	1330.83
625.32	1324.20
625.66	1317.10
626.01	1309.86
626.35	1302.32
626.70	1294.55
627.04	1286.76
627.39	1279.05
627.73	1271.77
628.08	1264.82
628.43	1257.39
628.77	1249.97
629.12	1242.37
629.46	1235.07
629.81	1227.71
630.15	1220.55
630.50	1213.17
630.84	1205.05
631.19	1197.20
631.53	1189.63
631.88	1182.04
632.22	1174.52
632.57	1167.11
632.91	1159.59
633.26	1152.29
633.60	1145.04
633.95	1138.03
634.29	1130.93
634.64	1124.29
634.98	1116.84
635.32	1109.78
635.67	1103.23
636.01	1096.57
636.36	1089.86
636.70	1083.38
637.05	1076.78
637.39	1070.35
637.73	1063.80
638.08	1057.89
638.42	1051.91
638.77	1045.46
639.11	1038.93
639.45	1032.51
639.80	1025.85
640.14	1019.45
640.49	1012.79
640.83	1006.45
641.17	1000.13
641.52	993.83
641.86	987.29
642.20	981.51
642.55	975.15
642.89	968.71
643.23	962.21
643.58	956.34
643.92	950.17
644.26	944.09
644.61	938.11
644.95	932.11
645.29	925.52
645.64	918.79
645.98	912.49
646.32	906.67
646.66	900.61
647.01	894.85
647.35	889.14
647.69	883.34
648.04	877.75
648.38	871.95
648.72	865.87
649.06	859.83
649.41	853.87
649.75	847.87
650.09	841.90
650.43	836.09
650.78	829.94
651.12	823.96
651.46	818.23
651.80	812.37
652.14	806.92
652.49	801.52
652.83	796.40
653.17	790.68
653.51	784.76
653.85	779.38
654.20	773.74
654.54	767.78
654.88	762.05
655.22	756.20
655.56	750.53
655.90	745.18
656.25	739.97
656.59	734.62
656.93	729.60
657.27	724.45
657.61	718.98
657.95	713.99
658.29	708.92
658.64	703.66
658.98	698.40
659.32	692.95
659.66	687.72
660.00	682.31
660.34	677.35
660.68	672.56
661.02	667.49
661.36	662.77
661.70	658.33
662.05	654.00
662.39	649.67
662.73	645.19
663.07	640.76
663.41	636.24
663.75	631.79
664.09	627.20
664.43	622.79
664.77	618.71
665.11	614.37
665.45	610.26
665.79	606.20
666.13	602.08
666.47	598.07
666.81	593.89
667.15	589.85
667.49	586.00
667.83	582.23
668.17	578.37
668.51	574.28
668.85	570.15
669.19	566.31
669.53	562.52
669.87	558.64
670.21	554.98
670.55	551.36
670.89	547.96
671.23	544.56
671.57	541.09
671.91	537.47
672.25	533.98
672.58	530.48
672.92	527.08
673.26	523.91
673.60	520.66
673.94	517.58
674.28	514.65
674.62	511.68
674.96	508.50
675.30	505.58
675.64	502.67
675.97	499.95
676.31	497.07
676.65	494.17
676.99	491.46
677.33	488.58
677.67	485.81
678.01	482.72
678.34	479.77
678.68	476.82
679.02	474.02
679.36	471.31
679.70	468.56
680.04	465.80
680.37	462.92
680.71	460.15
681.05	457.49
681.39	454.74
681.73	452.09
682.06	449.65
682.40	447.07
682.74	444.52
683.08	441.92
683.42	439.31
683.75	436.74
684.09	434.17
684.43	431.72
684.77	429.26
685.10	426.95
685.44	424.62
685.78	422.33
686.12	420.11
686.45	417.74
686.79	415.45
687.13	413.24
687.46	411.10
687.80	408.96
688.14	406.81
688.48	404.75
688.81	402.53
689.15	400.31
689.49	398.16
689.82	396.10
690.16	394.07
690.50	392.06
690.83	390.09
691.17	388.12
691.51	386.14
691.84	384.23
692.18	382.25
692.52	380.30
692.85	378.41
693.19	376.53
693.52	374.76
693.86	372.97
694.20	371.20
694.53	369.43
694.87	367.59
695.21	365.77
695.54	364.00
695.88	362.28
696.21	360.60
696.55	358.91
696.88	357.21
697.22	355.54
697.56	353.99
697.89	352.39
698.23	350.79
698.56	349.29
698.90	347.76
699.23	346.11
699.57	344.57
699.90	343.04
700.24	341.48
700.58	339.95
700.91	338.45
701.25	337.00
701.58	335.62
701.92	334.28
702.25	332.93
702.59	331.53
702.92	330.21
703.26	328.89
703.59	327.62
703.93	326.44
704.26	325.23
704.60	323.88
704.93	322.58
705.26	321.31
705.60	320.13
705.93	318.97
706.27	317.94
706.60	316.86
706.94	315.80
707.27	314.67
707.61	313.61
707.94	312.59
708.27	311.52
708.61	310.44
708.94	309.44
709.28	308.47
709.61	307.54
709.94	306.60
710.28	305.60
710.61	304.63
710.95	303.55
711.28	302.64
711.61	301.74
711.95	300.85
712.28	299.93
712.61	298.91
712.95	297.95
713.28	297.09
713.61	296.20
713.95	295.31
714.28	294.51
714.61	293.66
714.95	292.81
715.28	291.96
715.61	291.07
715.95	290.17
716.28	289.35
716.61	288.51
716.95	287.68
717.28	286.94
717.61	286.18
717.94	285.47
718.28	284.64
718.61	283.91
718.94	283.21
719.27	282.58
719.61	281.94
719.94	281.31
720.27	280.62
720.60	279.98
720.94	279.35
721.27	278.73
721.60	278.14
721.93	277.56
722.27	277.00
722.60	276.44
722.93	275.90
723.26	275.32
723.59	274.73
723.93	274.18
724.26	273.62
724.59	273.04
724.92	272.50
725.25	272.00
725.59	271.48
725.92	270.98
726.25	270.46
726.58	269.97
726.91	269.51
727.24	269.05
727.57	268.57
727.91	268.06
728.24	267.59
728.57	267.10
728.90	266.64
729.23	266.15
729.56	265.74
729.89	265.24
730.22	264.77
730.55	264.30
730.89	263.83
731.22	263.39
731.55	262.95
731.88	262.54
732.21	262.11
732.54	261.67
732.87	261.21
733.20	260.82
733.53	260.42
733.86	260.01
734.19	259.56
734.52	259.15
734.85	258.85
735.18	258.43
735.51	258.02
735.84	257.67
736.17	257.34
736.50	256.91
736.83	256.72
737.16	256.40
737.49	256.08
737.82	255.74
738.15	255.36
738.48	255.05
738.81	254.74
739.14	254.45
739.47	254.10
739.80	253.79
740.13	253.44
740.46	253.13
740.79	252.78
741.12	252.46
741.45	252.17
741.78	251.80
742.11	251.52
742.44	251.25
742.77	250.96
743.10	250.65
743.43	250.37
743.75	249.97
744.08	249.79
744.41	249.49
744.74	249.23
745.07	248.96
745.40	248.73
745.73	248.48
746.06	248.17
746.39	247.91
746.71	247.69
747.04	247.43
747.37	247.19
747.70	246.94
748.03	246.73
748.36	246.49
748.68	246.28
749.01	246.02
749.34	245.78
749.67	245.56
750.00	245.32
750.33	245.17
750.65	244.98
750.98	244.65
751.31	244.45
751.64	244.23
751.97	244.09
752.29	243.84
752.62	243.61
752.95	243.41
753.28	243.23
753.60	243.03
753.93	242.84
754.26	242.64
754.59	242.44
754.91	242.23
755.24	242.07
755.57	241.89
755.90	241.71
756.22	241.52
756.55	241.33
756.88	241.14
757.20	240.90
757.53	240.71
757.86	240.56
758.19	240.42
758.51	240.28
758.84	240.07
759.17	239.90
759.49	239.78
759.82	239.66
760.15	239.49
760.47	239.32
760.80	239.15
761.13	239.02
761.45	238.89
761.78	238.76
762.11	238.58
762.43	238.45
762.76	238.31
763.08	238.18
763.41	238.05
763.74	237.93
764.06	237.81
764.39	237.65
764.71	237.53
765.04	237.37
765.37	237.20
765.69	237.07
766.02	236.95
766.34	236.79
766.67	236.61
767.00	236.56
767.32	236.49
767.65	236.44
767.97	236.30
768.30	236.16
768.62	236.02
768.95	235.86
769.27	235.70
769.60	235.57
769.92	235.44
770.25	235.29
770.57	235.16
770.90	235.02
771.22	234.88
771.55	234.75
771.87	234.66
772.20	234.57
772.52	234.57
772.85	234.58
773.17	234.46
773.50	234.34
773.82	234.18
774.15	234.01
774.47	233.85
774.80	233.77
775.12	233.70
775.45	233.59
775.77	233.52
776.09	233.43
776.42	233.37
776.74	233.31
777.07	233.23
777.39	233.16
777.72	233.08
778.04	233.05
778.36	232.97
778.69	232.89
779.01	232.85
779.33	232.67
779.66	232.48
779.98	232.39
780.31	232.38
780.63	232.36
780.95	232.35
781.28	232.30
781.60	232.24
781.92	232.15
782.25	232.14
782.57	232.10
782.89	232.04
783.22	231.98
783.54	231.91
783.86	231.87
784.19	231.78
784.51	231.76
784.83	231.69
785.16	231.65
785.48	231.59
785.80	231.54
786.12	231.52
786.45	231.48
786.77	231.48
787.09	231.42
787.42	231.33
787.74	231.30
788.06	231.25
788.38	231.20
788.71	231.21
789.03	231.14
789.35	231.12
789.67	231.07
789.99	231.05
790.32	230.97
790.64	230.96
790.96	231.03
791.28	231.00
791.61	230.97
791.93	230.96
792.25	230.92
792.57	230.94
792.89	230.89
793.21	230.88
793.54	230.82
793.86	230.76
794.18	230.75
794.50	230.71
794.82	230.72
795.14	230.70
795.47	230.68
795.79	230.68
796.11	230.62
796.43	230.58
796.75	230.58
797.07	230.59
797.39	230.54
797.71	230.43
798.04	230.39
798.36	230.37
798.68	230.31
799.00	230.30
799.32	230.25
799.64	230.26
799.96	230.21
800.28	230.19
800.60	230.15
800.92	230.14
801.24	230.07
801.56	230.05
801.89	229.97
802.21	229.94
802.53	229.89
802.85	229.87
803.17	229.93
803.49	229.83
803.81	229.78
804.13	229.75
804.45	229.72
804.77	229.69
805.09	229.65
805.41	229.63
805.73	229.56
806.05	229.52
806.37	229.46
806.69	229.42
807.01	229.39
807.33	229.37
807.65	229.33
807.97	229.36
808.28	229.29
808.60	229.29
808.92	229.23
809.24	229.24
809.56	229.18
809.88	229.09
810.20	229.08
810.52	229.06
810.84	229.00
811.16	228.93
811.48	228.88
811.80	228.87
812.12	228.82
812.43	228.84
812.75	228.75
813.07	228.71
813.39	228.67
813.71	228.64
814.03	228.61
814.35	228.54
814.67	228.47
814.98	228.43
815.30	228.37
815.62	228.31
815.94	228.21
816.26	228.23
816.58	228.17
816.89	228.14
817.21	228.09
817.53	228.07
817.85	228.08
818.17	228.08
818.48	228.01
818.80	228.00
819.12	227.94
819.44	227.95
819.76	227.93
820.07	227.95
820.39	227.92
820.71	227.90
821.03	227.91
821.34	227.90
821.66	227.87
821.98	227.87
822.30	227.87
822.61	227.92
822.93	227.86
823.25	227.84
823.57	227.81
823.88	227.85
824.20	227.84
824.52	227.84
824.83	227.79
825.15	227.79
825.47	227.78
825.79	227.76
826.10	227.73
826.42	227.72
826.74	227.69
827.05	227.68
827.37	227.70
827.69	227.68
828.00	227.65
828.32	227.66
828.64	227.65
828.95	227.73
829.27	227.69
829.58	227.73
829.90	227.76
830.22	227.77
830.53	227.73
830.85	227.75
831.17	227.70
831.48	227.75
831.80	227.75
832.11	227.74
832.43	227.76
832.75	227.79
833.06	227.84
833.38	227.83
833.69	227.85
834.01	227.85
834.32	227.85
834.64	227.87
834.96	227.86
835.27	227.86
835.59	227.83
835.90	227.81
836.22	227.79
836.53	227.78
836.85	227.78
837.16	227.88
837.48	227.85
837.79	227.88
838.11	227.88
838.42	227.89
838.74	227.89
839.05	227.84
839.37	227.82
839.68	227.75
840.00	227.76
840.31	227.75
840.63	227.70
840.94	227.70
841.26	227.67
841.57	227.68
841.88	227.68
842.20	227.63
842.51	227.61
842.83	227.60
843.14	227.66
843.46	227.68
843.77	227.63
844.08	227.63
844.40	227.61
844.71	227.56
845.03	227.53
845.34	227.52
845.65	227.55
845.97	227.54
846.28	227.57
846.60	227.55
846.91	227.50
847.22	227.49
847.54	227.51
847.85	227.52
848.16	227.47
848.48	227.44
848.79	227.48
849.10	227.49
849.42	227.51
849.73	227.39
850.04	227.36
850.36	227.31
850.67	227.31
850.98	227.30
851.30	227.31
851.61	227.31
851.92	227.30
852.23	227.32
852.55	227.33
852.86	227.28
853.17	227.29
853.49	227.33
853.80	227.34
854.11	227.31
854.42	227.32
854.74	227.31
855.05	227.32
855.36	227.27
855.67	227.26
855.99	227.22
856.30	227.35
856.61	227.36
856.92	227.33
857.23	227.32
857.55	227.28
857.86	227.28
858.17	227.27
858.48	227.25
858.79	227.23
859.11	227.24
859.42	227.25
859.73	227.23
860.04	227.20
860.35	227.16
860.66	227.13
860.98	227.10
861.29	227.10
861.60	227.09
861.91	227.08
862.22	227.07
862.53	227.08
862.84	226.95
863.16	226.95
863.47	226.95
863.78	226.96
864.09	226.97
864.40	226.97
864.71	226.98
865.02	227.00
865.33	226.96
865.64	226.90
865.95	226.88
866.27	226.94
866.58	226.94
866.89	227.01
867.20	227.03
867.51	227.02
867.82	227.06
868.13	227.11
868.44	227.11
868.75	227.11
869.06	227.12
869.37	227.15
869.68	227.14
869.99	227.15
870.30	227.18
870.61	227.19
870.92	227.20
871.23	227.19
871.54	227.23
871.85	227.25
872.16	227.29
872.47	227.29
872.78	227.24
873.09	227.26
873.40	227.21
873.71	227.24
874.02	227.24
874.33	227.23
874.64	227.19
874.95	227.19
875.26	227.21
875.56	227.20
875.87	227.20
876.18	227.21
876.49	227.32
876.80	227.31
877.11	227.32
877.42	227.33
877.73	227.33
878.04	227.30
878.35	227.32
878.66	227.30
878.96	227.32
879.27	227.31
879.58	227.27
879.89	227.28
880.20	227.28
880.51	227.29
880.82	227.30
881.12	227.30
881.43	227.30
881.74	227.27
882.05	227.27
882.36	227.27
882.67	227.26
882.97	227.17
883.28	227.15
883.59	227.12
883.90	227.10
884.21	227.11
884.51	227.06
884.82	227.05
885.13	227.07
885.44	227.04
885.74	227.02
886.05	227.02
886.36	227.00
886.67	226.97
886.98	227.03
887.28	227.00
887.59	227.00
887.90	226.99
888.20	226.98
888.51	226.98
888.82	226.97
889.13	226.99
889.43	227.05
889.74	227.00
890.05	227.00
890.35	226.97
890.66	226.95
890.97	226.95
891.28	226.92
891.58	226.90
891.89	226.90
892.20	226.89
892.50	226.88
892.81	226.89
893.12	226.85
893.42	226.75
893.73	226.77
894.04	226.74
894.34	226.73
894.65	226.75
894.95	226.71
895.26	226.70
895.57	226.66
895.87	226.53
896.18	226.54
896.48	226.54
896.79	226.55
897.10	226.55
897.40	226.58
897.71	226.61
898.01	226.55
898.32	226.56
898.63	226.58
898.93	226.57
899.24	226.56
899.54	226.60
899.85	226.61
900.15	226.59
900.46	226.61
900.76	226.61
901.07	226.60
901.38	226.59
901.68	226.59
901.99	226.61
902.29	226.62
902.60	226.62
902.90	226.65
903.21	226.68
903.51	226.63
903.82	226.64
904.12	226.62
904.43	226.68
904.73	226.67
905.03	226.65
905.34	226.75
905.64	226.73
905.95	226.71
906.25	226.72
906.56	226.73
906.86	226.74
907.17	226.73
907.47	226.72
907.77	226.73
908.08	226.71
908.38	226.70
908.69	226.71
908.99	226.72
909.30	226.72
909.60	226.67
909.90	226.73
910.21	226.70
910.51	226.70
910.81	226.70
911.12	226.75
911.42	226.78
911.73	226.67
912.03	226.72
912.33	226.73
912.64	226.75
912.94	226.78
913.24	226.75
913.55	226.77
913.85	226.80
914.15	226.87
914.46	226.90
914.76	226.91
915.06	226.91
915.37	226.93
915.67	226.89
915.97	226.94
916.27	226.94
916.58	226.97
916.88	226.97
917.18	226.97
917.49	227.02
917.79	227.05
918.09	227.10
918.39	227.12
918.70	227.13
919.00	227.10
919.30	227.12
919.60	227.13
919.91	227.11
920.21	227.10
920.51	227.05
920.81	227.01
921.12	227.03
921.42	227.01
921.72	227.03
922.02	227.01
922.32	227.01
922.63	226.97
922.93	227.01
923.23	227.02
923.53	226.99
923.83	226.90
924.13	226.87
924.44	226.84
924.74	226.82
925.04	226.82
925.34	226.82
925.64	226.75
925.94	226.72
926.24	226.76
926.55	226.75
926.85	226.75
927.15	226.78
927.45	226.77
927.75	226.72
928.05	226.70
928.35	226.72
928.65	226.73
928.95	226.75
929.26	226.68
929.56	226.68
929.86	226.66
930.16	226.66
930.46	226.64
930.76	226.64
931.06	226.58
931.36	226.55
931.66	226.55
931.96	226.57
932.26	226.58
932.56	226.55
932.86	226.53
933.16	226.51
933.46	226.48
933.76	226.47
934.06	226.54
934.36	226.56
934.66	226.54
934.96	226.48
935.26	226.50
935.56	226.50
935.86	226.46
936.16	226.44
936.46	226.44
936.76	226.43
937.06	226.41
937.36	226.41
937.66	226.41
937.96	226.41
938.26	226.39
938.56	226.38
938.86	226.38
939.16	226.38
939.46	226.41
939.76	226.41
940.06	226.40
940.35	226.37
940.65	226.32
940.95	226.31
941.25	226.27
941.55	226.26
941.85	226.27
942.15	226.31
942.45	226.39
942.75	226.38
943.04	226.38
943.34	226.44
943.64	226.45
943.94	226.47
944.24	226.47
944.54	226.50
944.84	226.52
945.13	226.51
945.43	226.52
945.73	226.50
946.03	226.52
946.33	226.52
946.62	226.53
946.92	226.54
947.22	226.58
947.52	226.62
947.82	226.63
948.11	226.61
948.41	226.59
948.71	226.53
949.01	226.56
949.31	226.57
949.60	226.54
949.90	226.57
950.20	226.56
950.50	226.54
950.79	226.54
951.09	226.55
951.39	226.57
951.69	226.55
951.98	226.61
952.28	226.61
952.58	226.61
952.87	226.63
953.17	226.64
953.47	226.65
953.76	226.68
954.06	226.67
954.36	226.66
954.66	226.67
954.95	226.74
955.25	226.72
955.55	226.73
955.84	226.73
956.14	226.73
956.44	226.75
956.73	226.76
957.03	226.77
957.32	226.77
957.62	226.79
957.92	226.81
958.21	226.78
958.51	226.88
958.81	226.92
959.10	226.93
959.40	226.96
959.69	226.99
959.99	226.98
960.29	226.96
960.58	226.95
960.88	226.97
961.17	226.92
961.47	226.95
961.76	226.94
962.06	226.95
962.36	226.91
962.65	226.90
962.95	226.89
963.24	226.84
963.54	226.81
963.83	226.79
964.13	226.76
964.42	226.74
964.72	226.62
965.01	226.57
965.31	226.55
965.60	226.51
965.90	226.53
966.19	226.52
966.49	226.54
966.78	226.54
967.08	226.54
967.37	226.51
967.67	226.50
967.96	226.53
968.26	226.51
968.55	226.54
968.85	226.52
969.14	226.53
969.43	226.55
969.73	226.55
970.02	226.55
970.32	226.55
970.61	226.55
970.91	226.53
971.20	226.54
971.49	226.51
971.79	226.53
972.08	226.47
972.38	226.49
972.67	226.48
972.96	226.50
973.26	226.48
973.55	226.53
973.85	226.51
974.14	226.47
974.43	226.47
974.73	226.45
975.02	226.44
975.31	226.44
975.61	226.46
975.90	226.46
976.19	226.45
976.49	226.43
976.78	226.45
977.07	226.49
977.37	226.47
977.66	226.50
977.95	226.48
978.24	226.48
978.54	226.50
978.83	226.47
979.12	226.49
979.42	226.48
979.71	226.47
980.00	226.47
980.29	226.46
980.59	226.48
980.88	226.49
981.17	226.50
981.46	226.49
981.76	226.48
982.05	226.52
982.34	226.53
982.63	226.57
982.93	226.56
983.22	226.58
983.51	226.62
983.80	226.66
984.09	226.67
984.39	226.67
984.68	226.66
984.97	226.70
985.26	226.69
985.55	226.73
985.85	226.73
986.14	226.77
986.43	226.82
986.72	226.83
987.01	226.83
987.30	226.85
987.59	226.89
987.89	226.92
988.18	226.91
988.47	226.91
988.76	226.90
989.05	226.91
989.34	226.92
989.63	226.96
989.92	226.94
990.22	226.94
990.51	226.95
990.80	226.97
991.09	226.98
991.38	226.98
991.67	226.96
991.96	226.97
992.25	226.97
992.54	226.96
992.83	226.96
993.12	226.97
993.41	226.94
993.70	226.99
993.99	226.98
994.28	227.01
994.58	227.02
994.87	227.00
995.16	227.01
995.45	226.97
995.74	226.95
996.03	226.95
996.32	226.95
996.61	226.96
996.90	226.95
997.19	226.94
997.48	226.96
997.77	226.95
998.06	226.94
998.34	226.92
998.63	226.91
998.92	226.93
999.21	226.94
999.50	226.95
999.79	226.89
1000.08	226.88
1000.37	226.85
1000.66	226.80
1000.95	226.85
1001.24	226.83
1001.53	226.84
1001.82	226.80
1002.11	226.77
1002.40	226.77
1002.68	226.76
1002.97	226.79
1003.26	226.77
1003.55	226.72
1003.84	226.71
1004.13	226.73
1004.42	226.70
1004.71	226.68
1004.99	226.64
1005.28	226.64
1005.57	226.65
1005.86	226.62
1006.15	226.63
1006.44	226.61
1006.72	226.64
1007.01	226.57
1007.30	226.53
1007.59	226.49
1007.88	226.50
1008.17	226.52
1008.45	226.50
1008.74	226.47
1009.03	226.42
1009.32	226.41
1009.60	226.42
1009.89	226.41
1010.18	226.34
1010.47	226.36
1010.76	226.36
1011.04	226.33
1011.33	226.34
1011.62	226.34
1011.91	226.35
1012.19	226.31
1012.48	226.32
1012.77	226.34
1013.05	226.40
1013.34	226.44
1013.63	226.45
1013.92	226.46
1014.20	226.46
1014.49	226.49
1014.78	226.49
1015.06	226.46
1015.35	226.45
1015.64	226.45
1015.92	226.47
1016.21	226.49
1016.50	226.50
1016.78	226.52
1017.07	226.55
1017.36	226.55
1017.64	226.51
1017.93	226.49
1018.22	226.48
1018.50	226.48
1018.79	226.47
1019.08	226.45
1019.36	226.45
1019.65	226.46
1019.93	226.50
1020.22	226.50
1020.51	226.55
1020.79	226.53
1021.08	225.85
1021.36	226.50
1021.65	226.49
1021.94	226.96
1022.22	226.54
1022.51	226.57
1022.79	227.53
1023.08	226.76
1023.36	227.92
1023.65	225.96
>>>>>End Processed Spectral Data<<<<<
