SpectraSuite Data File
++++++++++++++++++++++++++++++++++++
Date: Fri Feb 01 16:03:50 EST 2013
User: group
Dark Spectrum Present: No
Reference Spectrum Present: No
Number of Sampled Component Spectra: 1
Spectrometers: USB2E7196
Integration Time (usec): 35000 (USB2E7196)
Spectra Averaged: 100 (USB2E7196)
Boxcar Smoothing: 10 (USB2E7196)
Correct for Electrical Dark: No (USB2E7196)
Strobe/Lamp Enabled: No (USB2E7196)
Correct for Detector Non-linearity: No (USB2E7196)
Correct for Stray Light: No (USB2E7196)
Number of Pixels in Processed Spectrum: 2048
>>>>>Begin Processed Spectral Data<<<<<
339.09	0.00
339.48	215.32
339.86	216.04
340.24	217.34
340.63	219.39
341.01	222.22
341.39	221.50
341.78	223.27
342.16	223.89
342.54	224.80
342.93	213.17
343.31	223.92
343.69	224.42
344.07	224.90
344.46	225.34
344.84	225.67
345.22	225.93
345.60	226.17
345.99	226.37
346.37	226.49
346.75	226.61
347.13	226.66
347.52	226.69
347.90	226.75
348.28	226.79
348.66	226.83
349.05	226.82
349.43	226.87
349.81	226.89
350.19	226.96
350.57	227.00
350.96	227.02
351.34	227.13
351.72	227.22
352.10	227.27
352.48	227.37
352.87	227.45
353.25	227.45
353.63	227.52
354.01	227.58
354.39	227.68
354.77	227.73
355.15	227.84
355.54	227.94
355.92	227.95
356.30	228.00
356.68	228.12
357.06	228.17
357.44	228.20
357.82	228.26
358.20	228.34
358.58	228.39
358.97	228.50
359.35	228.59
359.73	228.65
360.11	228.73
360.49	228.75
360.87	228.82
361.25	228.87
361.63	228.96
362.01	229.00
362.39	229.04
362.77	229.09
363.15	229.12
363.53	229.12
363.91	229.19
364.29	229.22
364.67	229.14
365.05	229.16
365.43	229.23
365.81	229.24
366.19	229.26
366.57	229.31
366.95	229.28
367.33	229.24
367.71	229.24
368.09	229.23
368.47	229.24
368.85	229.21
369.23	229.24
369.61	229.15
369.99	229.10
370.37	229.10
370.75	229.09
371.13	229.03
371.51	228.97
371.89	228.94
372.27	228.92
372.65	228.91
373.03	228.86
373.41	228.79
373.78	228.72
374.16	228.60
374.54	228.52
374.92	228.46
375.30	228.38
375.68	228.30
376.06	228.25
376.44	228.19
376.82	228.12
377.19	228.01
377.57	227.97
377.95	227.88
378.33	227.78
378.71	227.67
379.09	227.62
379.47	227.57
379.84	227.46
380.22	227.36
380.60	227.31
380.98	227.25
381.36	227.15
381.73	227.12
382.11	227.06
382.49	227.00
382.87	226.91
383.25	226.88
383.62	226.93
384.00	226.86
384.38	226.78
384.76	226.74
385.13	226.72
385.51	226.68
385.89	226.64
386.27	226.60
386.64	226.57
387.02	226.50
387.40	226.47
387.78	226.45
388.15	226.41
388.53	226.34
388.91	226.30
389.29	226.31
389.66	226.27
390.04	226.27
390.42	226.26
390.79	226.25
391.17	226.23
391.55	226.11
391.92	226.11
392.30	226.14
392.68	226.12
393.05	226.11
393.43	226.13
393.81	226.15
394.18	226.16
394.56	226.18
394.94	226.22
395.31	226.22
395.69	226.29
396.06	226.36
396.44	226.40
396.82	226.45
397.19	226.52
397.57	226.57
397.95	226.61
398.32	226.65
398.70	226.73
399.07	226.82
399.45	226.89
399.82	226.94
400.20	227.00
400.58	227.08
400.95	227.13
401.33	227.23
401.70	227.42
402.08	227.49
402.45	227.61
402.83	227.73
403.20	227.86
403.58	227.97
403.95	228.08
404.33	228.23
404.71	228.33
405.08	228.51
405.46	228.65
405.83	228.82
406.21	228.98
406.58	229.15
406.96	229.29
407.33	229.46
407.70	229.68
408.08	229.96
408.45	230.21
408.83	230.46
409.20	230.61
409.58	230.77
409.95	231.06
410.33	231.30
410.70	231.55
411.08	231.85
411.45	232.15
411.82	232.45
412.20	232.77
412.57	233.20
412.95	233.49
413.32	233.86
413.69	234.27
414.07	234.69
414.44	235.15
414.82	235.62
415.19	236.13
415.56	236.65
415.94	237.20
416.31	237.80
416.68	238.40
417.06	239.12
417.43	239.79
417.81	240.57
418.18	241.35
418.55	242.16
418.93	243.00
419.30	243.90
419.67	244.82
420.04	245.81
420.42	246.80
420.79	247.98
421.16	249.14
421.54	250.31
421.91	251.51
422.28	252.78
422.66	254.13
423.03	255.47
423.40	256.79
423.77	258.18
424.15	259.60
424.52	261.12
424.89	262.72
425.26	264.26
425.64	265.70
426.01	267.29
426.38	268.95
426.75	270.63
427.13	272.38
427.50	274.20
427.87	276.07
428.24	277.87
428.61	279.58
428.99	281.56
429.36	283.67
429.73	285.73
430.10	287.73
430.47	289.78
430.85	291.88
431.22	294.14
431.59	296.51
431.96	298.75
432.33	301.20
432.70	303.60
433.08	306.39
433.45	308.98
433.82	311.55
434.19	314.44
434.56	317.27
434.93	319.87
435.30	322.51
435.68	325.40
436.05	328.27
436.42	331.06
436.79	333.54
437.16	336.19
437.53	339.00
437.90	341.79
438.27	344.56
438.64	347.39
439.01	349.98
439.38	352.21
439.75	354.39
440.13	356.89
440.50	359.19
440.87	361.08
441.24	363.06
441.61	365.26
441.98	366.75
442.35	368.53
442.72	370.42
443.09	372.19
443.46	373.13
443.83	373.73
444.20	374.22
444.57	375.09
444.94	375.39
445.31	375.73
445.68	376.08
446.05	376.16
446.42	375.82
446.79	375.35
447.16	374.89
447.53	374.57
447.90	373.40
448.27	372.30
448.64	370.70
449.01	369.50
449.37	367.51
449.74	365.62
450.11	363.38
450.48	360.86
450.85	358.36
451.22	356.26
451.59	354.23
451.96	352.31
452.33	349.68
452.70	347.33
453.07	344.53
453.43	341.65
453.80	338.86
454.17	336.13
454.54	333.58
454.91	330.88
455.28	328.22
455.65	325.75
456.02	323.28
456.38	321.14
456.75	318.54
457.12	316.32
457.49	314.10
457.86	311.94
458.23	310.12
458.59	308.08
458.96	306.02
459.33	304.14
459.70	302.31
460.07	300.83
460.43	299.12
460.80	297.49
461.17	296.09
461.54	294.60
461.91	293.19
462.27	291.80
462.64	290.56
463.01	289.20
463.38	287.88
463.74	286.51
464.11	285.34
464.48	284.32
464.85	283.22
465.21	282.36
465.58	281.44
465.95	280.37
466.32	279.44
466.68	278.50
467.05	277.62
467.42	276.71
467.78	275.78
468.15	274.92
468.52	274.26
468.88	273.38
469.25	272.59
469.62	271.99
469.98	271.31
470.35	270.63
470.72	270.03
471.08	269.41
471.45	268.85
471.82	268.30
472.18	267.70
472.55	267.25
472.92	266.74
473.28	266.23
473.65	265.76
474.02	265.33
474.38	264.98
474.75	264.69
475.11	264.37
475.48	264.10
475.85	263.86
476.21	263.62
476.58	263.43
476.94	263.30
477.31	263.09
477.67	262.95
478.04	262.89
478.41	262.84
478.77	262.83
479.14	262.78
479.50	262.78
479.87	262.83
480.23	262.89
480.60	262.97
480.96	263.09
481.33	263.29
481.69	263.48
482.06	263.66
482.42	263.82
482.79	264.06
483.15	264.36
483.52	264.72
483.88	265.05
484.25	265.40
484.61	265.82
484.98	266.24
485.34	266.80
485.71	267.38
486.07	267.96
486.44	268.54
486.80	269.25
487.17	269.97
487.53	270.78
487.90	271.62
488.26	272.55
488.62	273.53
488.99	274.52
489.35	275.55
489.72	276.65
490.08	277.85
490.44	279.10
490.81	280.43
491.17	281.78
491.54	283.28
491.90	284.88
492.26	286.51
492.63	288.28
492.99	290.08
493.36	291.98
493.72	294.06
494.08	296.16
494.45	298.41
494.81	300.81
495.17	303.21
495.54	305.80
495.90	308.49
496.26	311.30
496.63	314.25
496.99	317.37
497.35	320.65
497.72	324.10
498.08	327.60
498.44	331.27
498.80	335.22
499.17	339.28
499.53	343.45
499.89	347.85
500.26	352.38
500.62	357.02
500.98	361.97
501.34	367.02
501.71	372.43
502.07	377.89
502.43	383.55
502.79	389.42
503.16	395.49
503.52	401.77
503.88	408.22
504.24	414.87
504.60	421.78
504.97	428.90
505.33	436.20
505.69	443.87
506.05	451.69
506.41	459.60
506.78	467.78
507.14	476.24
507.50	485.03
507.86	494.07
508.22	503.28
508.59	512.53
508.95	522.14
509.31	531.93
509.67	542.05
510.03	552.29
510.39	562.86
510.75	573.71
511.12	584.60
511.48	595.95
511.84	607.41
512.20	618.94
512.56	630.92
512.92	643.15
513.28	655.57
513.64	668.13
514.00	680.85
514.37	693.76
514.73	706.92
515.09	719.91
515.45	733.21
515.81	746.77
516.17	760.87
516.53	775.03
516.89	789.17
517.25	803.32
517.61	817.73
517.97	832.26
518.33	846.62
518.69	861.44
519.05	876.32
519.41	891.41
519.77	906.91
520.13	922.37
520.49	937.59
520.85	953.04
521.21	968.76
521.57	984.98
521.93	1000.72
522.29	1016.96
522.65	1033.18
523.01	1049.37
523.37	1065.42
523.73	1081.40
524.09	1097.34
524.45	1113.58
524.81	1130.22
525.17	1147.06
525.53	1163.95
525.89	1180.90
526.25	1197.68
526.61	1214.11
526.97	1230.97
527.33	1247.40
527.68	1263.75
528.04	1280.23
528.40	1296.75
528.76	1313.60
529.12	1330.22
529.48	1347.14
529.84	1363.16
530.20	1379.77
530.56	1396.63
530.91	1414.12
531.27	1430.84
531.63	1447.35
531.99	1463.91
532.35	1479.82
532.71	1495.61
533.07	1511.71
533.42	1527.47
533.78	1543.43
534.14	1559.64
534.50	1574.90
534.86	1590.84
535.21	1606.12
535.57	1622.07
535.93	1637.38
536.29	1652.22
536.65	1667.12
537.00	1681.77
537.36	1697.03
537.72	1711.49
538.08	1726.08
538.44	1739.63
538.79	1753.45
539.15	1767.08
539.51	1780.79
539.87	1795.01
540.22	1808.72
540.58	1822.43
540.94	1835.85
541.29	1848.83
541.65	1861.53
542.01	1874.70
542.37	1886.99
542.72	1899.40
543.08	1911.19
543.44	1923.78
543.79	1935.00
544.15	1946.01
544.51	1957.58
544.87	1968.51
545.22	1979.31
545.58	1989.40
545.94	1999.24
546.29	2009.15
546.65	2019.08
547.01	2028.33
547.36	2037.09
547.72	2045.60
548.07	2053.29
548.43	2061.31
548.79	2069.25
549.14	2076.72
549.50	2083.97
549.86	2091.57
550.21	2098.86
550.57	2106.10
550.92	2112.45
551.28	2119.47
551.64	2126.55
551.99	2132.97
552.35	2139.05
552.70	2145.12
553.06	2151.14
553.41	2157.48
553.77	2163.60
554.13	2169.58
554.48	2175.74
554.84	2181.26
555.19	2186.45
555.55	2191.73
555.90	2196.33
556.26	2201.25
556.61	2206.01
556.97	2210.39
557.32	2214.45
557.68	2218.59
558.03	2222.82
558.39	2226.68
558.74	2231.32
559.10	2235.28
559.45	2239.06
559.81	2243.44
560.16	2247.30
560.52	2250.41
560.87	2253.83
561.23	2256.38
561.58	2259.46
561.94	2262.02
562.29	2264.37
562.64	2267.11
563.00	2269.64
563.35	2273.04
563.71	2276.04
564.06	2279.27
564.42	2282.10
564.77	2284.64
565.12	2287.07
565.48	2288.94
565.83	2290.76
566.19	2292.10
566.54	2292.87
566.89	2294.03
567.25	2294.56
567.60	2295.95
567.96	2297.61
568.31	2298.56
568.66	2299.68
569.02	2300.12
569.37	2300.39
569.72	2301.28
570.08	2301.47
570.43	2301.68
570.78	2301.11
571.14	2299.58
571.49	2298.22
571.84	2297.93
572.20	2296.85
572.55	2295.66
572.90	2294.15
573.26	2292.85
573.61	2291.03
573.96	2289.25
574.31	2286.24
574.67	2283.34
575.02	2279.76
575.37	2276.51
575.72	2272.57
576.08	2269.27
576.43	2266.16
576.78	2262.49
577.13	2259.27
577.49	2256.19
577.84	2252.60
578.19	2249.00
578.54	2245.39
578.90	2241.15
579.25	2235.59
579.60	2230.76
579.95	2225.69
580.30	2220.66
580.66	2215.44
581.01	2210.53
581.36	2205.68
581.71	2201.57
582.06	2197.05
582.42	2192.53
582.77	2187.38
583.12	2182.81
583.47	2178.01
583.82	2172.79
584.17	2167.57
584.53	2162.12
584.88	2156.49
585.23	2150.80
585.58	2145.26
585.93	2139.94
586.28	2135.10
586.63	2129.99
586.98	2124.80
587.34	2120.23
587.69	2115.32
588.04	2110.05
588.39	2104.51
588.74	2098.05
589.09	2091.85
589.44	2085.07
589.79	2079.21
590.14	2073.53
590.49	2067.02
590.84	2060.72
591.19	2054.76
591.54	2048.30
591.89	2040.96
592.25	2034.03
592.60	2026.76
592.95	2019.19
593.30	2011.86
593.65	2004.36
594.00	1997.41
594.35	1990.12
594.70	1982.19
595.05	1974.96
595.40	1967.78
595.75	1960.17
596.10	1953.96
596.45	1947.25
596.80	1941.26
597.15	1934.62
597.50	1927.48
597.85	1921.10
598.19	1914.46
598.54	1907.31
598.89	1900.73
599.24	1894.84
599.59	1888.30
599.94	1882.24
600.29	1875.85
600.64	1869.26
600.99	1861.88
601.34	1855.00
601.69	1848.24
602.04	1841.31
602.39	1834.09
602.74	1827.15
603.08	1820.51
603.43	1813.80
603.78	1806.40
604.13	1798.96
604.48	1791.70
604.83	1784.85
605.18	1777.87
605.53	1769.94
605.87	1762.15
606.22	1754.92
606.57	1746.96
606.92	1739.60
607.27	1732.34
607.62	1725.49
607.96	1718.06
608.31	1711.46
608.66	1703.85
609.01	1696.29
609.36	1688.54
609.70	1680.49
610.05	1672.54
610.40	1664.84
610.75	1656.53
611.10	1648.93
611.44	1640.63
611.79	1632.47
612.14	1623.81
612.49	1614.54
612.83	1606.10
613.18	1597.90
613.53	1589.80
613.88	1581.21
614.22	1572.93
614.57	1564.42
614.92	1556.31
615.27	1548.83
615.61	1540.52
615.96	1532.56
616.31	1524.83
616.65	1517.43
617.00	1509.74
617.35	1501.98
617.70	1493.62
618.04	1485.13
618.39	1476.87
618.74	1469.25
619.08	1461.02
619.43	1453.48
619.78	1446.60
620.12	1439.40
620.47	1431.74
620.82	1423.64
621.16	1416.32
621.51	1408.68
621.85	1401.03
622.20	1392.52
622.55	1384.23
622.89	1376.26
623.24	1368.57
623.59	1361.14
623.93	1353.76
624.28	1346.63
624.62	1339.09
624.97	1331.97
625.32	1325.14
625.66	1318.05
626.01	1310.86
626.35	1303.35
626.70	1295.55
627.04	1287.82
627.39	1280.02
627.73	1272.66
628.08	1265.64
628.43	1258.23
628.77	1250.83
629.12	1243.25
629.46	1236.14
629.81	1228.70
630.15	1221.57
630.50	1214.13
630.84	1205.99
631.19	1198.09
631.53	1190.61
631.88	1183.09
632.22	1175.40
632.57	1168.14
632.91	1160.68
633.26	1153.32
633.60	1145.98
633.95	1138.96
634.29	1131.95
634.64	1125.37
634.98	1117.98
635.32	1110.82
635.67	1104.29
636.01	1097.73
636.36	1090.89
636.70	1084.42
637.05	1077.88
637.39	1071.31
637.73	1064.87
638.08	1058.93
638.42	1052.91
638.77	1046.46
639.11	1039.87
639.45	1033.55
639.80	1026.87
640.14	1020.44
640.49	1013.82
640.83	1007.54
641.17	1001.27
641.52	994.88
641.86	988.33
642.20	982.43
642.55	976.19
642.89	969.74
643.23	963.15
643.58	957.34
643.92	951.10
644.26	944.92
644.61	938.96
644.95	932.92
645.29	926.31
645.64	919.54
645.98	913.19
646.32	907.42
646.66	901.32
647.01	895.50
647.35	889.76
647.69	884.00
648.04	878.47
648.38	872.56
648.72	866.58
649.06	860.57
649.41	854.74
649.75	848.72
650.09	842.68
650.43	836.93
650.78	830.84
651.12	824.85
651.46	819.17
651.80	813.34
652.14	807.90
652.49	802.49
652.83	797.28
653.17	791.55
653.51	785.74
653.85	780.32
654.20	774.68
654.54	768.65
654.88	762.84
655.22	756.97
655.56	751.34
655.90	745.88
656.25	740.63
656.59	735.24
656.93	730.17
657.27	725.06
657.61	719.61
657.95	714.51
658.29	709.45
658.64	704.22
658.98	698.90
659.32	693.47
659.66	688.33
660.00	683.02
660.34	678.12
660.68	673.20
661.02	668.21
661.36	663.48
661.70	659.09
662.05	654.76
662.39	650.39
662.73	645.92
663.07	641.50
663.41	636.99
663.75	632.56
664.09	627.94
664.43	623.54
664.77	619.43
665.11	615.05
665.45	610.88
665.79	606.71
666.13	602.59
666.47	598.47
666.81	594.29
667.15	590.16
667.49	586.26
667.83	582.42
668.17	578.41
668.51	574.32
668.85	570.22
669.19	566.39
669.53	562.51
669.87	558.63
670.21	554.92
670.55	551.25
670.89	547.81
671.23	544.43
671.57	540.89
671.91	537.35
672.25	533.93
672.58	530.43
672.92	527.08
673.26	523.97
673.60	520.81
673.94	517.69
674.28	514.82
674.62	511.83
674.96	508.76
675.30	505.95
675.64	503.06
675.97	500.32
676.31	497.43
676.65	494.51
676.99	491.84
677.33	489.06
677.67	486.25
678.01	483.22
678.34	480.20
678.68	477.34
679.02	474.48
679.36	471.74
679.70	469.01
680.04	466.22
680.37	463.30
680.71	460.55
681.05	457.96
681.39	455.28
681.73	452.64
682.06	450.10
682.40	447.50
682.74	444.99
683.08	442.50
683.42	439.92
683.75	437.44
684.09	434.87
684.43	432.43
684.77	430.01
685.10	427.62
685.44	425.40
685.78	423.12
686.12	420.94
686.45	418.62
686.79	416.40
687.13	414.23
687.46	412.12
687.80	409.95
688.14	407.71
688.48	405.63
688.81	403.41
689.15	401.26
689.49	399.13
689.82	397.08
690.16	394.94
690.50	392.98
690.83	391.02
691.17	389.00
691.51	387.08
691.84	385.25
692.18	383.33
692.52	381.32
692.85	379.41
693.19	377.45
693.52	375.62
693.86	373.74
694.20	371.94
694.53	370.11
694.87	368.19
695.21	366.42
695.54	364.58
695.88	362.82
696.21	361.08
696.55	359.38
696.88	357.63
697.22	355.95
697.56	354.31
697.89	352.63
698.23	351.05
698.56	349.40
698.90	347.78
699.23	346.16
699.57	344.59
699.90	343.01
700.24	341.51
700.58	340.02
700.91	338.54
701.25	337.12
701.58	335.76
701.92	334.46
702.25	333.08
702.59	331.70
702.92	330.38
703.26	329.07
703.59	327.76
703.93	326.62
704.26	325.41
704.60	324.12
704.93	322.87
705.26	321.65
705.60	320.48
705.93	319.33
706.27	318.27
706.60	317.19
706.94	316.10
707.27	314.95
707.61	313.90
707.94	312.82
708.27	311.69
708.61	310.60
708.94	309.57
709.28	308.60
709.61	307.64
709.94	306.68
710.28	305.70
710.61	304.74
710.95	303.67
711.28	302.73
711.61	301.79
711.95	300.85
712.28	299.84
712.61	298.85
712.95	297.89
713.28	297.01
713.61	296.12
713.95	295.26
714.28	294.42
714.61	293.55
714.95	292.70
715.28	291.86
715.61	291.00
715.95	290.16
716.28	289.32
716.61	288.52
716.95	287.67
717.28	286.91
717.61	286.18
717.94	285.41
718.28	284.59
718.61	283.87
718.94	283.18
719.27	282.52
719.61	281.88
719.94	281.25
720.27	280.54
720.60	279.87
720.94	279.21
721.27	278.60
721.60	278.03
721.93	277.47
722.27	276.92
722.60	276.40
722.93	275.80
723.26	275.24
723.59	274.64
723.93	274.17
724.26	273.61
724.59	273.02
724.92	272.51
725.25	272.10
725.59	271.57
725.92	271.07
726.25	270.59
726.58	270.13
726.91	269.59
727.24	269.15
727.57	268.69
727.91	268.19
728.24	267.71
728.57	267.19
728.90	266.74
729.23	266.23
729.56	265.79
729.89	265.33
730.22	264.85
730.55	264.41
730.89	263.94
731.22	263.48
731.55	263.05
731.88	262.60
732.21	262.12
732.54	261.69
732.87	261.30
733.20	260.90
733.53	260.49
733.86	260.14
734.19	259.71
734.52	259.36
734.85	259.08
735.18	258.70
735.51	258.36
735.84	257.99
736.17	257.66
736.50	257.28
736.83	257.04
737.16	256.72
737.49	256.39
737.82	256.07
738.15	255.73
738.48	255.42
738.81	255.10
739.14	254.78
739.47	254.48
739.80	254.16
740.13	253.84
740.46	253.52
740.79	253.20
741.12	252.91
741.45	252.58
741.78	252.22
742.11	251.95
742.44	251.61
742.77	251.31
743.10	250.99
743.43	250.69
743.75	250.31
744.08	250.17
744.41	249.85
744.74	249.55
745.07	249.27
745.40	249.01
745.73	248.78
746.06	248.48
746.39	248.20
746.71	247.91
747.04	247.63
747.37	247.34
747.70	247.08
748.03	246.83
748.36	246.58
748.68	246.32
749.01	246.07
749.34	245.85
749.67	245.62
750.00	245.40
750.33	245.20
750.65	244.99
750.98	244.61
751.31	244.43
751.64	244.22
751.97	244.11
752.29	243.90
752.62	243.63
752.95	243.44
753.28	243.22
753.60	243.01
753.93	242.86
754.26	242.67
754.59	242.46
754.91	242.28
755.24	242.07
755.57	241.91
755.90	241.69
756.22	241.47
756.55	241.25
756.88	241.05
757.20	240.80
757.53	240.58
757.86	240.41
758.19	240.23
758.51	240.05
758.84	239.79
759.17	239.60
759.49	239.43
759.82	239.31
760.15	239.14
760.47	238.99
760.80	238.79
761.13	238.65
761.45	238.50
761.78	238.32
762.11	238.17
762.43	237.98
762.76	237.85
763.08	237.75
763.41	237.62
763.74	237.49
764.06	237.36
764.39	237.21
764.71	237.08
765.04	236.96
765.37	236.81
765.69	236.65
766.02	236.52
766.34	236.42
766.67	236.26
767.00	236.16
767.32	236.08
767.65	236.03
767.97	235.91
768.30	235.80
768.62	235.69
768.95	235.56
769.27	235.46
769.60	235.36
769.92	235.23
770.25	235.11
770.57	234.98
770.90	234.88
771.22	234.79
771.55	234.68
771.87	234.63
772.20	234.56
772.52	234.59
772.85	234.63
773.17	234.54
773.50	234.44
773.82	234.37
774.15	234.26
774.47	234.10
774.80	234.00
775.12	233.88
775.45	233.79
775.77	233.76
776.09	233.68
776.42	233.62
776.74	233.59
777.07	233.52
777.39	233.46
777.72	233.39
778.04	233.35
778.36	233.32
778.69	233.24
779.01	233.18
779.33	233.01
779.66	232.82
779.98	232.72
780.31	232.69
780.63	232.63
780.95	232.55
781.28	232.51
781.60	232.46
781.92	232.43
782.25	232.35
782.57	232.29
782.89	232.23
783.22	232.15
783.54	232.07
783.86	232.01
784.19	231.95
784.51	231.93
784.83	231.85
785.16	231.79
785.48	231.71
785.80	231.67
786.12	231.66
786.45	231.62
786.77	231.60
787.09	231.56
787.42	231.47
787.74	231.43
788.06	231.45
788.38	231.40
788.71	231.36
789.03	231.34
789.35	231.30
789.67	231.24
789.99	231.22
790.32	231.16
790.64	231.13
790.96	231.20
791.28	231.13
791.61	231.10
791.93	231.05
792.25	231.02
792.57	231.02
792.89	230.94
793.21	230.90
793.54	230.86
793.86	230.79
794.18	230.75
794.50	230.70
794.82	230.61
795.14	230.57
795.47	230.56
795.79	230.53
796.11	230.45
796.43	230.42
796.75	230.37
797.07	230.35
797.39	230.29
797.71	230.17
798.04	230.14
798.36	230.12
798.68	230.07
799.00	230.00
799.32	229.94
799.64	229.97
799.96	229.94
800.28	229.91
800.60	229.88
800.92	229.88
801.24	229.87
801.56	229.87
801.89	229.83
802.21	229.78
802.53	229.72
802.85	229.77
803.17	229.76
803.49	229.73
803.81	229.70
804.13	229.66
804.45	229.63
804.77	229.63
805.09	229.57
805.41	229.57
805.73	229.58
806.05	229.53
806.37	229.45
806.69	229.39
807.01	229.35
807.33	229.34
807.65	229.26
807.97	229.29
808.28	229.24
808.60	229.22
808.92	229.19
809.24	229.26
809.56	229.20
809.88	229.15
810.20	229.12
810.52	229.14
810.84	229.15
811.16	229.12
811.48	229.06
811.80	229.07
812.12	229.02
812.43	228.99
812.75	228.97
813.07	228.97
813.39	228.97
813.71	228.96
814.03	228.91
814.35	228.91
814.67	228.84
814.98	228.84
815.30	228.82
815.62	228.81
815.94	228.68
816.26	228.70
816.58	228.69
816.89	228.71
817.21	228.65
817.53	228.61
817.85	228.60
818.17	228.59
818.48	228.56
818.80	228.57
819.12	228.53
819.44	228.50
819.76	228.45
820.07	228.46
820.39	228.45
820.71	228.44
821.03	228.43
821.34	228.39
821.66	228.38
821.98	228.36
822.30	228.32
822.61	228.39
822.93	228.31
823.25	228.24
823.57	228.20
823.88	228.20
824.20	228.19
824.52	228.19
824.83	228.15
825.15	228.10
825.47	228.07
825.79	228.08
826.10	228.04
826.42	228.06
826.74	228.01
827.05	228.00
827.37	228.00
827.69	227.98
828.00	227.98
828.32	227.93
828.64	227.92
828.95	227.97
829.27	227.96
829.58	227.96
829.90	228.01
830.22	228.01
830.53	227.97
830.85	227.97
831.17	227.93
831.48	227.94
831.80	227.94
832.11	227.95
832.43	227.94
832.75	227.96
833.06	227.97
833.38	227.93
833.69	227.93
834.01	227.93
834.32	227.92
834.64	227.93
834.96	227.94
835.27	227.94
835.59	227.91
835.90	227.87
836.22	227.88
836.53	227.82
836.85	227.82
837.16	227.89
837.48	227.86
837.79	227.88
838.11	227.88
838.42	227.90
838.74	227.91
839.05	227.88
839.37	227.88
839.68	227.85
840.00	227.86
840.31	227.88
840.63	227.85
840.94	227.85
841.26	227.83
841.57	227.85
841.88	227.83
842.20	227.82
842.51	227.81
842.83	227.79
843.14	227.90
843.46	227.87
843.77	227.83
844.08	227.86
844.40	227.82
844.71	227.79
845.03	227.80
845.34	227.75
845.65	227.76
845.97	227.77
846.28	227.74
846.60	227.72
846.91	227.66
847.22	227.69
847.54	227.69
847.85	227.67
848.16	227.63
848.48	227.60
848.79	227.65
849.10	227.62
849.42	227.63
849.73	227.55
850.04	227.54
850.36	227.49
850.67	227.48
850.98	227.46
851.30	227.45
851.61	227.41
851.92	227.42
852.23	227.45
852.55	227.43
852.86	227.44
853.17	227.44
853.49	227.46
853.80	227.40
854.11	227.40
854.42	227.44
854.74	227.44
855.05	227.42
855.36	227.32
855.67	227.34
855.99	227.33
856.30	227.40
856.61	227.42
856.92	227.41
857.23	227.42
857.55	227.45
857.86	227.43
858.17	227.45
858.48	227.44
858.79	227.38
859.11	227.38
859.42	227.38
859.73	227.37
860.04	227.36
860.35	227.34
860.66	227.29
860.98	227.27
861.29	227.28
861.60	227.27
861.91	227.31
862.22	227.26
862.53	227.23
862.84	227.11
863.16	227.12
863.47	227.10
863.78	227.08
864.09	227.06
864.40	227.03
864.71	227.02
865.02	227.03
865.33	227.01
865.64	226.99
865.95	226.99
866.27	227.05
866.58	227.07
866.89	227.09
867.20	227.11
867.51	227.08
867.82	227.07
868.13	227.08
868.44	227.06
868.75	227.09
869.06	227.10
869.37	227.13
869.68	227.06
869.99	227.09
870.30	227.08
870.61	227.09
870.92	227.11
871.23	227.09
871.54	227.13
871.85	227.17
872.16	227.18
872.47	227.14
872.78	227.05
873.09	227.09
873.40	227.08
873.71	227.07
874.02	227.06
874.33	227.06
874.64	227.07
874.95	227.05
875.26	227.04
875.56	227.04
875.87	227.01
876.18	227.07
876.49	227.15
876.80	227.13
877.11	227.13
877.42	227.14
877.73	227.14
878.04	227.09
878.35	227.09
878.66	227.10
878.96	227.12
879.27	227.13
879.58	227.11
879.89	227.10
880.20	227.09
880.51	227.13
880.82	227.11
881.12	227.09
881.43	227.08
881.74	227.06
882.05	227.07
882.36	227.07
882.67	227.07
882.97	227.00
883.28	227.01
883.59	227.03
883.90	227.03
884.21	227.04
884.51	227.03
884.82	227.04
885.13	227.01
885.44	226.98
885.74	226.99
886.05	226.98
886.36	227.00
886.67	226.99
886.98	227.01
887.28	227.05
887.59	227.08
887.90	227.09
888.20	227.10
888.51	227.09
888.82	227.08
889.13	227.04
889.43	227.08
889.74	227.09
890.05	227.04
890.35	227.05
890.66	227.03
890.97	227.02
891.28	227.00
891.58	227.00
891.89	227.02
892.20	227.03
892.50	227.00
892.81	226.98
893.12	226.98
893.42	226.91
893.73	226.88
894.04	226.85
894.34	226.88
894.65	226.86
894.95	226.86
895.26	226.85
895.57	226.89
895.87	226.80
896.18	226.79
896.48	226.82
896.79	226.83
897.10	226.84
897.40	226.84
897.71	226.85
898.01	226.84
898.32	226.85
898.63	226.85
898.93	226.85
899.24	226.85
899.54	226.84
899.85	226.85
900.15	226.85
900.46	226.85
900.76	226.83
901.07	226.81
901.38	226.78
901.68	226.81
901.99	226.79
902.29	226.79
902.60	226.80
902.90	226.80
903.21	226.76
903.51	226.74
903.82	226.76
904.12	226.76
904.43	226.77
904.73	226.77
905.03	226.76
905.34	226.87
905.64	226.86
905.95	226.86
906.25	226.84
906.56	226.83
906.86	226.84
907.17	226.81
907.47	226.85
907.77	226.85
908.08	226.82
908.38	226.81
908.69	226.81
908.99	226.81
909.30	226.79
909.60	226.78
909.90	226.78
910.21	226.76
910.51	226.73
910.81	226.75
911.12	226.75
911.42	226.78
911.73	226.66
912.03	226.68
912.33	226.71
912.64	226.72
912.94	226.72
913.24	226.72
913.55	226.76
913.85	226.76
914.15	226.80
914.46	226.81
914.76	226.78
915.06	226.79
915.37	226.80
915.67	226.80
915.97	226.84
916.27	226.81
916.58	226.82
916.88	226.81
917.18	226.79
917.49	226.85
917.79	226.80
918.09	226.85
918.39	226.86
918.70	226.87
919.00	226.87
919.30	226.93
919.60	226.91
919.91	226.89
920.21	226.90
920.51	226.89
920.81	226.89
921.12	226.95
921.42	226.93
921.72	226.94
922.02	226.94
922.32	226.95
922.63	226.98
922.93	227.02
923.23	227.04
923.53	227.04
923.83	226.94
924.13	226.96
924.44	226.95
924.74	226.98
925.04	227.00
925.34	227.03
925.64	226.98
925.94	227.00
926.24	227.03
926.55	227.03
926.85	227.04
927.15	227.04
927.45	227.04
927.75	227.06
928.05	227.05
928.35	227.04
928.65	227.02
928.95	227.04
929.26	227.02
929.56	227.03
929.86	227.02
930.16	227.04
930.46	227.02
930.76	227.00
931.06	226.94
931.36	226.91
931.66	226.91
931.96	226.91
932.26	226.91
932.56	226.89
932.86	226.88
933.16	226.89
933.46	226.88
933.76	226.84
934.06	226.86
934.36	226.88
934.66	226.87
934.96	226.88
935.26	226.90
935.56	226.88
935.86	226.86
936.16	226.83
936.46	226.82
936.76	226.81
937.06	226.79
937.36	226.79
937.66	226.76
937.96	226.74
938.26	226.71
938.56	226.67
938.86	226.65
939.16	226.65
939.46	226.63
939.76	226.64
940.06	226.63
940.35	226.58
940.65	226.54
940.95	226.55
941.25	226.52
941.55	226.50
941.85	226.53
942.15	226.56
942.45	226.63
942.75	226.63
943.04	226.67
943.34	226.69
943.64	226.69
943.94	226.69
944.24	226.71
944.54	226.73
944.84	226.71
945.13	226.68
945.43	226.71
945.73	226.70
946.03	226.67
946.33	226.69
946.62	226.69
946.92	226.69
947.22	226.71
947.52	226.71
947.82	226.70
948.11	226.64
948.41	226.60
948.71	226.55
949.01	226.56
949.31	226.55
949.60	226.53
949.90	226.55
950.20	226.54
950.50	226.55
950.79	226.52
951.09	226.59
951.39	226.64
951.69	226.62
951.98	226.64
952.28	226.68
952.58	226.65
952.87	226.68
953.17	226.69
953.47	226.68
953.76	226.69
954.06	226.69
954.36	226.72
954.66	226.72
954.95	226.75
955.25	226.76
955.55	226.74
955.84	226.75
956.14	226.75
956.44	226.78
956.73	226.75
957.03	226.79
957.32	226.77
957.62	226.73
957.92	226.75
958.21	226.75
958.51	226.87
958.81	226.88
959.10	226.85
959.40	226.87
959.69	226.85
959.99	226.86
960.29	226.84
960.58	226.84
960.88	226.92
961.17	226.88
961.47	226.90
961.76	226.89
962.06	226.91
962.36	226.90
962.65	226.89
962.95	226.91
963.24	226.85
963.54	226.85
963.83	226.86
964.13	226.85
964.42	226.78
964.72	226.67
965.01	226.70
965.31	226.70
965.60	226.68
965.90	226.76
966.19	226.71
966.49	226.75
966.78	226.70
967.08	226.64
967.37	226.67
967.67	226.65
967.96	226.66
968.26	226.63
968.55	226.62
968.85	226.60
969.14	226.57
969.43	226.57
969.73	226.55
970.02	226.54
970.32	226.53
970.61	226.57
970.91	226.53
971.20	226.52
971.49	226.54
971.79	226.57
972.08	226.50
972.38	226.50
972.67	226.46
972.96	226.44
973.26	226.39
973.55	226.38
973.85	226.36
974.14	226.35
974.43	226.35
974.73	226.35
975.02	226.35
975.31	226.37
975.61	226.38
975.90	226.38
976.19	226.34
976.49	226.34
976.78	226.33
977.07	226.33
977.37	226.33
977.66	226.31
977.95	226.26
978.24	226.30
978.54	226.31
978.83	226.31
979.12	226.35
979.42	226.35
979.71	226.34
980.00	226.35
980.29	226.36
980.59	226.36
980.88	226.37
981.17	226.37
981.46	226.37
981.76	226.40
982.05	226.42
982.34	226.45
982.63	226.45
982.93	226.45
983.22	226.49
983.51	226.53
983.80	226.51
984.09	226.55
984.39	226.51
984.68	226.51
984.97	226.55
985.26	226.57
985.55	226.61
985.85	226.59
986.14	226.59
986.43	226.62
986.72	226.64
987.01	226.62
987.30	226.63
987.59	226.62
987.89	226.60
988.18	226.61
988.47	226.60
988.76	226.62
989.05	226.63
989.34	226.62
989.63	226.62
989.92	226.64
990.22	226.63
990.51	226.63
990.80	226.65
991.09	226.67
991.38	226.67
991.67	226.68
991.96	226.69
992.25	226.73
992.54	226.72
992.83	226.74
993.12	226.73
993.41	226.76
993.70	226.78
993.99	226.81
994.28	226.81
994.58	226.83
994.87	226.83
995.16	226.82
995.45	226.83
995.74	226.82
996.03	226.82
996.32	226.83
996.61	226.84
996.90	226.81
997.19	226.78
997.48	226.79
997.77	226.76
998.06	226.74
998.34	226.73
998.63	226.74
998.92	226.71
999.21	226.73
999.50	226.74
999.79	226.73
1000.08	226.73
1000.37	226.73
1000.66	226.74
1000.95	226.74
1001.24	226.75
1001.53	226.75
1001.82	226.71
1002.11	226.67
1002.40	226.64
1002.68	226.66
1002.97	226.74
1003.26	226.73
1003.55	226.70
1003.84	226.72
1004.13	226.77
1004.42	226.74
1004.71	226.72
1004.99	226.67
1005.28	226.64
1005.57	226.61
1005.86	226.55
1006.15	226.53
1006.44	226.51
1006.72	226.50
1007.01	226.46
1007.30	226.43
1007.59	226.42
1007.88	226.42
1008.17	226.44
1008.45	226.44
1008.74	226.42
1009.03	226.39
1009.32	226.39
1009.60	226.38
1009.89	226.34
1010.18	226.31
1010.47	226.30
1010.76	226.32
1011.04	226.35
1011.33	226.37
1011.62	226.39
1011.91	226.40
1012.19	226.41
1012.48	226.42
1012.77	226.40
1013.05	226.46
1013.34	226.47
1013.63	226.46
1013.92	226.48
1014.20	226.47
1014.49	226.49
1014.78	226.46
1015.06	226.40
1015.35	226.42
1015.64	226.43
1015.92	226.48
1016.21	226.47
1016.50	226.48
1016.78	226.51
1017.07	226.54
1017.36	226.54
1017.64	226.54
1017.93	226.60
1018.22	226.61
1018.50	226.60
1018.79	226.64
1019.08	226.65
1019.36	226.65
1019.65	226.66
1019.93	226.66
1020.22	226.69
1020.51	226.73
1020.79	226.75
1021.08	226.61
1021.36	226.35
1021.65	226.75
1021.94	227.49
1022.22	226.55
1022.51	226.86
1022.79	226.63
1023.08	226.46
1023.36	227.76
1023.65	226.55
>>>>>End Processed Spectral Data<<<<<
