SpectraSuite Data File
++++++++++++++++++++++++++++++++++++
Date: Fri Feb 01 16:15:01 EST 2013
User: group
Dark Spectrum Present: No
Reference Spectrum Present: No
Number of Sampled Component Spectra: 1
Spectrometers: USB2E7196
Integration Time (usec): 35000 (USB2E7196)
Spectra Averaged: 100 (USB2E7196)
Boxcar Smoothing: 10 (USB2E7196)
Correct for Electrical Dark: No (USB2E7196)
Strobe/Lamp Enabled: No (USB2E7196)
Correct for Detector Non-linearity: No (USB2E7196)
Correct for Stray Light: No (USB2E7196)
Number of Pixels in Processed Spectrum: 2048
>>>>>Begin Processed Spectral Data<<<<<
339.09	0.00
339.48	214.22
339.86	216.05
340.24	217.21
340.63	218.36
341.01	221.41
341.39	220.75
341.78	221.98
342.16	223.23
342.54	224.92
342.93	212.64
343.31	223.38
343.69	223.94
344.07	224.40
344.46	224.80
344.84	225.20
345.22	225.42
345.60	225.69
345.99	225.90
346.37	226.04
346.75	226.12
347.13	226.19
347.52	226.23
347.90	226.27
348.28	226.29
348.66	226.33
349.05	226.30
349.43	226.36
349.81	226.40
350.19	226.41
350.57	226.48
350.96	226.56
351.34	226.62
351.72	226.66
352.10	226.73
352.48	226.81
352.87	226.84
353.25	226.89
353.63	226.95
354.01	226.99
354.39	227.07
354.77	227.16
355.15	227.24
355.54	227.27
355.92	227.31
356.30	227.38
356.68	227.52
357.06	227.61
357.44	227.62
357.82	227.65
358.20	227.72
358.58	227.74
358.97	227.77
359.35	227.83
359.73	227.90
360.11	227.96
360.49	228.00
360.87	228.06
361.25	228.11
361.63	228.18
362.01	228.23
362.39	228.23
362.77	228.28
363.15	228.31
363.53	228.36
363.91	228.42
364.29	228.43
364.67	228.35
365.05	228.37
365.43	228.40
365.81	228.44
366.19	228.48
366.57	228.56
366.95	228.56
367.33	228.55
367.71	228.56
368.09	228.58
368.47	228.57
368.85	228.54
369.23	228.55
369.61	228.48
369.99	228.50
370.37	228.50
370.75	228.45
371.13	228.35
371.51	228.30
371.89	228.22
372.27	228.19
372.65	228.13
373.03	228.06
373.41	227.98
373.78	227.96
374.16	227.85
374.54	227.76
374.92	227.69
375.30	227.66
375.68	227.56
376.06	227.49
376.44	227.41
376.82	227.33
377.19	227.26
377.57	227.19
377.95	227.09
378.33	227.01
378.71	226.91
379.09	226.88
379.47	226.83
379.84	226.77
380.22	226.68
380.60	226.62
380.98	226.57
381.36	226.51
381.73	226.41
382.11	226.36
382.49	226.29
382.87	226.23
383.25	226.14
383.62	226.19
384.00	226.10
384.38	226.06
384.76	226.06
385.13	226.04
385.51	226.00
385.89	225.95
386.27	225.92
386.64	225.87
387.02	225.83
387.40	225.78
387.78	225.75
388.15	225.73
388.53	225.69
388.91	225.67
389.29	225.62
389.66	225.62
390.04	225.63
390.42	225.65
390.79	225.64
391.17	225.62
391.55	225.55
391.92	225.55
392.30	225.57
392.68	225.53
393.05	225.54
393.43	225.56
393.81	225.59
394.18	225.58
394.56	225.62
394.94	225.65
395.31	225.67
395.69	225.71
396.06	225.75
396.44	225.81
396.82	225.84
397.19	225.94
397.57	225.95
397.95	225.99
398.32	225.97
398.70	226.03
399.07	226.10
399.45	226.13
399.82	226.18
400.20	226.22
400.58	226.28
400.95	226.32
401.33	226.41
401.70	226.51
402.08	226.59
402.45	226.64
402.83	226.75
403.20	226.83
403.58	226.90
403.95	227.04
404.33	227.14
404.71	227.25
405.08	227.41
405.46	227.56
405.83	227.71
406.21	227.88
406.58	228.04
406.96	228.21
407.33	228.37
407.70	228.59
408.08	228.85
408.45	229.08
408.83	229.32
409.20	229.53
409.58	229.74
409.95	230.02
410.33	230.30
410.70	230.59
411.08	230.94
411.45	231.27
411.82	231.58
412.20	231.92
412.57	232.34
412.95	232.64
413.32	233.02
413.69	233.40
414.07	233.85
414.44	234.29
414.82	234.75
415.19	235.30
415.56	235.83
415.94	236.35
416.31	236.98
416.68	237.58
417.06	238.27
417.43	238.90
417.81	239.63
418.18	240.43
418.55	241.21
418.93	242.05
419.30	242.95
419.67	243.84
420.04	244.83
420.42	245.84
420.79	247.04
421.16	248.19
421.54	249.41
421.91	250.61
422.28	251.90
422.66	253.24
423.03	254.57
423.40	255.88
423.77	257.31
424.15	258.74
424.52	260.19
424.89	261.84
425.26	263.41
425.64	264.89
426.01	266.48
426.38	268.12
426.75	269.81
427.13	271.54
427.50	273.37
427.87	275.23
428.24	277.08
428.61	278.78
428.99	280.73
429.36	282.83
429.73	284.90
430.10	286.90
430.47	288.95
430.85	291.03
431.22	293.29
431.59	295.61
431.96	297.86
432.33	300.36
432.70	302.74
433.08	305.55
433.45	308.17
433.82	310.76
434.19	313.64
434.56	316.46
434.93	319.16
435.30	321.77
435.68	324.62
436.05	327.44
436.42	330.26
436.79	332.77
437.16	335.43
437.53	338.26
437.90	341.03
438.27	343.82
438.64	346.69
439.01	349.28
439.38	351.59
439.75	353.73
440.13	356.24
440.50	358.55
440.87	360.38
441.24	362.35
441.61	364.48
441.98	366.01
442.35	367.72
442.72	369.55
443.09	371.34
443.46	372.36
443.83	372.99
444.20	373.49
444.57	374.33
444.94	374.64
445.31	374.95
445.68	375.31
446.05	375.35
446.42	374.92
446.79	374.50
447.16	374.04
447.53	373.74
447.90	372.55
448.27	371.38
448.64	369.81
449.01	368.65
449.37	366.69
449.74	364.79
450.11	362.59
450.48	360.08
450.85	357.57
451.22	355.46
451.59	353.43
451.96	351.49
452.33	348.91
452.70	346.57
453.07	343.78
453.43	340.94
453.80	338.19
454.17	335.54
454.54	333.00
454.91	330.24
455.28	327.53
455.65	325.05
456.02	322.59
456.38	320.46
456.75	317.80
457.12	315.57
457.49	313.30
457.86	311.13
458.23	309.31
458.59	307.25
458.96	305.17
459.33	303.28
459.70	301.38
460.07	299.83
460.43	298.10
460.80	296.45
461.17	294.96
461.54	293.46
461.91	292.04
462.27	290.61
462.64	289.39
463.01	288.07
463.38	286.74
463.74	285.40
464.11	284.27
464.48	283.27
464.85	282.15
465.21	281.34
465.58	280.48
465.95	279.38
466.32	278.50
466.68	277.56
467.05	276.70
467.42	275.86
467.78	274.98
468.15	274.11
468.52	273.45
468.88	272.62
469.25	271.83
469.62	271.24
469.98	270.54
470.35	269.91
470.72	269.33
471.08	268.71
471.45	268.18
471.82	267.61
472.18	267.02
472.55	266.59
472.92	266.05
473.28	265.55
473.65	265.13
474.02	264.67
474.38	264.32
474.75	263.98
475.11	263.63
475.48	263.37
475.85	263.13
476.21	262.93
476.58	262.75
476.94	262.66
477.31	262.49
477.67	262.35
478.04	262.27
478.41	262.24
478.77	262.32
479.14	262.26
479.50	262.30
479.87	262.41
480.23	262.54
480.60	262.62
480.96	262.76
481.33	262.99
481.69	263.25
482.06	263.46
482.42	263.72
482.79	264.00
483.15	264.37
483.52	264.79
483.88	265.17
484.25	265.58
484.61	266.00
484.98	266.48
485.34	267.07
485.71	267.67
486.07	268.27
486.44	268.87
486.80	269.64
487.17	270.39
487.53	271.19
487.90	272.03
488.26	273.01
488.62	273.97
488.99	274.94
489.35	275.96
489.72	277.07
490.08	278.26
490.44	279.52
490.81	280.81
491.17	282.16
491.54	283.63
491.90	285.16
492.26	286.82
492.63	288.52
492.99	290.34
493.36	292.24
493.72	294.28
494.08	296.33
494.45	298.54
494.81	300.92
495.17	303.31
495.54	305.88
495.90	308.56
496.26	311.36
496.63	314.35
496.99	317.47
497.35	320.77
497.72	324.20
498.08	327.73
498.44	331.38
498.80	335.29
499.17	339.31
499.53	343.52
499.89	347.92
500.26	352.42
500.62	357.05
500.98	361.99
501.34	367.09
501.71	372.42
502.07	377.87
502.43	383.48
502.79	389.34
503.16	395.42
503.52	401.67
503.88	408.08
504.24	414.70
504.60	421.53
504.97	428.61
505.33	435.88
505.69	443.56
506.05	451.36
506.41	459.28
506.78	467.49
507.14	475.91
507.50	484.56
507.86	493.61
508.22	502.79
508.59	512.03
508.95	521.57
509.31	531.40
509.67	541.55
510.03	551.84
510.39	562.39
510.75	573.17
511.12	584.13
511.48	595.45
511.84	606.89
512.20	618.42
512.56	630.35
512.92	642.55
513.28	654.91
513.64	667.41
514.00	680.12
514.37	693.02
514.73	706.04
515.09	719.07
515.45	732.34
515.81	745.97
516.17	759.89
516.53	774.05
516.89	788.25
517.25	802.39
517.61	816.77
517.97	831.23
518.33	845.66
518.69	860.43
519.05	875.31
519.41	890.45
519.77	905.93
520.13	921.43
520.49	936.78
520.85	952.09
521.21	967.74
521.57	984.01
521.93	999.78
522.29	1016.15
522.65	1032.34
523.01	1048.51
523.37	1064.48
523.73	1080.57
524.09	1096.56
524.45	1112.71
524.81	1129.22
525.17	1145.94
525.53	1162.75
525.89	1179.66
526.25	1196.40
526.61	1212.88
526.97	1229.56
527.33	1246.05
527.68	1262.51
528.04	1278.91
528.40	1295.46
528.76	1312.47
529.12	1328.85
529.48	1345.62
529.84	1361.57
530.20	1378.18
530.56	1395.08
530.91	1412.43
531.27	1429.29
531.63	1445.72
531.99	1462.35
532.35	1478.38
532.71	1494.22
533.07	1510.38
533.42	1526.01
533.78	1542.03
534.14	1558.11
534.50	1573.28
534.86	1588.96
535.21	1604.15
535.57	1620.03
535.93	1635.53
536.29	1650.27
536.65	1665.34
537.00	1679.99
537.36	1695.25
537.72	1709.71
538.08	1724.14
538.44	1737.85
538.79	1751.54
539.15	1765.10
539.51	1778.71
539.87	1793.04
540.22	1806.66
540.58	1820.20
540.94	1833.44
541.29	1846.17
541.65	1858.78
542.01	1872.02
542.37	1884.32
542.72	1896.63
543.08	1908.25
543.44	1920.53
543.79	1931.59
544.15	1942.30
544.51	1953.95
544.87	1964.86
545.22	1975.55
545.58	1985.69
545.94	1995.36
546.29	2005.02
546.65	2014.89
547.01	2024.23
547.36	2032.76
547.72	2041.19
548.07	2049.18
548.43	2057.39
548.79	2065.30
549.14	2072.81
549.50	2080.05
549.86	2087.69
550.21	2094.98
550.57	2102.16
550.92	2108.71
551.28	2115.77
551.64	2123.04
551.99	2129.40
552.35	2135.48
552.70	2141.71
553.06	2147.62
553.41	2153.92
553.77	2160.04
554.13	2166.08
554.48	2172.02
554.84	2177.38
555.19	2182.67
555.55	2187.74
555.90	2192.25
556.26	2197.37
556.61	2202.03
556.97	2206.33
557.32	2210.42
557.68	2214.57
558.03	2218.85
558.39	2222.54
558.74	2227.20
559.10	2231.00
559.45	2234.72
559.81	2239.07
560.16	2242.89
560.52	2246.16
560.87	2249.64
561.23	2252.38
561.58	2255.31
561.94	2257.76
562.29	2260.20
562.64	2262.93
563.00	2265.60
563.35	2269.17
563.71	2272.20
564.06	2275.43
564.42	2278.49
564.77	2281.19
565.12	2283.46
565.48	2285.59
565.83	2287.46
566.19	2288.88
566.54	2289.70
566.89	2290.92
567.25	2291.48
567.60	2292.75
567.96	2294.54
568.31	2295.40
568.66	2296.53
569.02	2297.09
569.37	2297.54
569.72	2298.44
570.08	2298.53
570.43	2298.61
570.78	2297.96
571.14	2296.47
571.49	2295.19
571.84	2294.82
572.20	2293.67
572.55	2292.63
572.90	2290.86
573.26	2289.54
573.61	2287.74
573.96	2286.25
574.31	2283.33
574.67	2280.50
575.02	2276.90
575.37	2273.48
575.72	2269.81
576.08	2266.42
576.43	2263.15
576.78	2259.68
577.13	2256.56
577.49	2253.49
577.84	2250.07
578.19	2246.33
578.54	2242.74
578.90	2238.60
579.25	2233.00
579.60	2228.21
579.95	2223.34
580.30	2218.38
580.66	2213.19
581.01	2208.31
581.36	2203.29
581.71	2199.04
582.06	2194.59
582.42	2190.20
582.77	2185.00
583.12	2180.58
583.47	2175.99
583.82	2171.11
584.17	2165.90
584.53	2160.48
584.88	2154.96
585.23	2149.16
585.58	2143.83
585.93	2138.25
586.28	2133.42
586.63	2128.48
586.98	2123.26
587.34	2118.55
587.69	2113.77
588.04	2108.61
588.39	2102.92
588.74	2096.56
589.09	2090.41
589.44	2083.64
589.79	2077.49
590.14	2071.98
590.49	2065.21
590.84	2058.70
591.19	2052.53
591.54	2046.10
591.89	2038.75
592.25	2032.03
592.60	2024.85
592.95	2017.24
593.30	2010.02
593.65	2002.50
594.00	1995.40
594.35	1988.29
594.70	1980.23
595.05	1973.18
595.40	1965.91
595.75	1958.43
596.10	1952.28
596.45	1945.60
596.80	1939.34
597.15	1932.87
597.50	1925.80
597.85	1919.42
598.19	1912.82
598.54	1905.93
598.89	1899.17
599.24	1893.26
599.59	1886.61
599.94	1880.38
600.29	1874.18
600.64	1867.60
600.99	1860.23
601.34	1853.43
601.69	1846.40
602.04	1839.60
602.39	1832.16
602.74	1825.34
603.08	1818.59
603.43	1811.67
603.78	1804.37
604.13	1797.30
604.48	1790.04
604.83	1783.08
605.18	1776.06
605.53	1768.18
605.87	1760.07
606.22	1752.83
606.57	1744.80
606.92	1737.36
607.27	1730.19
607.62	1723.16
607.96	1715.91
608.31	1709.34
608.66	1701.76
609.01	1694.26
609.36	1686.68
609.70	1678.75
610.05	1670.80
610.40	1663.21
610.75	1654.99
611.10	1647.40
611.44	1638.99
611.79	1630.94
612.14	1622.39
612.49	1613.38
612.83	1604.95
613.18	1596.87
613.53	1588.81
613.88	1580.34
614.22	1572.17
614.57	1563.61
614.92	1555.65
615.27	1548.23
615.61	1539.90
615.96	1531.89
616.31	1524.24
616.65	1516.78
617.00	1509.07
617.35	1501.33
617.70	1493.06
618.04	1484.61
618.39	1476.33
618.74	1468.74
619.08	1460.48
619.43	1452.84
619.78	1445.78
620.12	1438.73
620.47	1431.19
620.82	1423.02
621.16	1415.66
621.51	1408.02
621.85	1400.45
622.20	1391.92
622.55	1383.48
622.89	1375.58
623.24	1367.95
623.59	1360.51
623.93	1353.05
624.28	1345.91
624.62	1338.47
624.97	1331.26
625.32	1324.39
625.66	1317.44
626.01	1310.39
626.35	1303.11
626.70	1295.37
627.04	1287.65
627.39	1279.70
627.73	1272.37
628.08	1265.44
628.43	1258.13
628.77	1250.79
629.12	1243.31
629.46	1236.16
629.81	1228.67
630.15	1221.46
630.50	1214.07
630.84	1205.88
631.19	1197.97
631.53	1190.39
631.88	1182.76
632.22	1175.11
632.57	1167.92
632.91	1160.34
633.26	1152.79
633.60	1145.22
633.95	1138.10
634.29	1131.04
634.64	1124.46
634.98	1117.12
635.32	1110.02
635.67	1103.42
636.01	1096.73
636.36	1089.89
636.70	1083.40
637.05	1076.86
637.39	1070.34
637.73	1063.83
638.08	1057.94
638.42	1051.94
638.77	1045.55
639.11	1038.89
639.45	1032.54
639.80	1025.83
640.14	1019.41
640.49	1012.95
640.83	1006.69
641.17	1000.46
641.52	994.16
641.86	987.63
642.20	981.71
642.55	975.36
642.89	968.88
643.23	962.38
643.58	956.53
643.92	950.27
644.26	944.25
644.61	938.25
644.95	932.27
645.29	925.72
645.64	918.96
645.98	912.55
646.32	906.74
646.66	900.69
647.01	894.83
647.35	889.05
647.69	883.09
648.04	877.50
648.38	871.70
648.72	865.75
649.06	859.72
649.41	853.78
649.75	847.83
650.09	841.86
650.43	836.04
650.78	829.97
651.12	824.08
651.46	818.28
651.80	812.51
652.14	807.05
652.49	801.62
652.83	796.47
653.17	790.79
653.51	785.16
653.85	779.70
654.20	774.16
654.54	768.23
654.88	762.48
655.22	756.57
655.56	750.83
655.90	745.34
656.25	740.11
656.59	734.82
656.93	729.74
657.27	724.59
657.61	719.11
657.95	713.95
658.29	708.82
658.64	703.55
658.98	698.22
659.32	692.76
659.66	687.64
660.00	682.30
660.34	677.35
660.68	672.39
661.02	667.45
661.36	662.71
661.70	658.25
662.05	653.91
662.39	649.60
662.73	645.15
663.07	640.85
663.41	636.39
663.75	631.87
664.09	627.34
664.43	622.90
664.77	618.91
665.11	614.65
665.45	610.47
665.79	606.44
666.13	602.37
666.47	598.23
666.81	594.01
667.15	589.89
667.49	586.01
667.83	582.15
668.17	578.20
668.51	574.08
668.85	570.01
669.19	566.19
669.53	562.40
669.87	558.54
670.21	554.79
670.55	551.13
670.89	547.77
671.23	544.28
671.57	540.83
671.91	537.25
672.25	533.75
672.58	530.33
672.92	526.88
673.26	523.66
673.60	520.52
673.94	517.41
674.28	514.50
674.62	511.55
674.96	508.48
675.30	505.53
675.64	502.63
675.97	499.82
676.31	496.96
676.65	493.98
676.99	491.27
677.33	488.38
677.67	485.59
678.01	482.51
678.34	479.64
678.68	476.74
679.02	473.88
679.36	471.11
679.70	468.31
680.04	465.59
680.37	462.74
680.71	459.97
681.05	457.40
681.39	454.69
681.73	452.08
682.06	449.59
682.40	447.09
682.74	444.56
683.08	442.02
683.42	439.43
683.75	436.97
684.09	434.43
684.43	431.98
684.77	429.60
685.10	427.29
685.44	424.91
685.78	422.63
686.12	420.41
686.45	418.16
686.79	415.95
687.13	413.75
687.46	411.58
687.80	409.39
688.14	407.15
688.48	405.10
688.81	402.83
689.15	400.64
689.49	398.44
689.82	396.37
690.16	394.33
690.50	392.38
690.83	390.44
691.17	388.47
691.51	386.57
691.84	384.64
692.18	382.66
692.52	380.65
692.85	378.72
693.19	376.81
693.52	374.96
693.86	373.13
694.20	371.37
694.53	369.59
694.87	367.81
695.21	366.04
695.54	364.16
695.88	362.40
696.21	360.69
696.55	359.00
696.88	357.30
697.22	355.60
697.56	353.93
697.89	352.28
698.23	350.63
698.56	349.02
698.90	347.45
699.23	345.84
699.57	344.31
699.90	342.73
700.24	341.19
700.58	339.66
700.91	338.11
701.25	336.62
701.58	335.25
701.92	333.87
702.25	332.46
702.59	331.14
702.92	329.83
703.26	328.51
703.59	327.24
703.93	326.00
704.26	324.76
704.60	323.47
704.93	322.17
705.26	320.92
705.60	319.73
705.93	318.53
706.27	317.47
706.60	316.37
706.94	315.34
707.27	314.18
707.61	313.11
707.94	312.08
708.27	310.99
708.61	309.90
708.94	308.86
709.28	307.94
709.61	306.99
709.94	306.04
710.28	305.07
710.61	304.10
710.95	303.07
711.28	302.15
711.61	301.21
711.95	300.31
712.28	299.37
712.61	298.39
712.95	297.44
713.28	296.53
713.61	295.67
713.95	294.81
714.28	293.98
714.61	293.11
714.95	292.26
715.28	291.41
715.61	290.56
715.95	289.73
716.28	288.81
716.61	287.97
716.95	287.15
717.28	286.40
717.61	285.65
717.94	284.93
718.28	284.12
718.61	283.40
718.94	282.70
719.27	282.05
719.61	281.44
719.94	280.82
720.27	280.14
720.60	279.47
720.94	278.81
721.27	278.24
721.60	277.65
721.93	277.07
722.27	276.53
722.60	275.99
722.93	275.41
723.26	274.92
723.59	274.39
723.93	273.86
724.26	273.26
724.59	272.69
724.92	272.18
725.25	271.70
725.59	271.19
725.92	270.68
726.25	270.18
726.58	269.69
726.91	269.19
727.24	268.70
727.57	268.22
727.91	267.72
728.24	267.24
728.57	266.72
728.90	266.28
729.23	265.78
729.56	265.34
729.89	264.87
730.22	264.38
730.55	263.89
730.89	263.42
731.22	263.00
731.55	262.57
731.88	262.14
732.21	261.67
732.54	261.24
732.87	260.79
733.20	260.40
733.53	260.00
733.86	259.61
734.19	259.22
734.52	258.82
734.85	258.51
735.18	258.10
735.51	257.79
735.84	257.40
736.17	257.09
736.50	256.65
736.83	256.42
737.16	256.06
737.49	255.72
737.82	255.36
738.15	255.02
738.48	254.69
738.81	254.31
739.14	253.99
739.47	253.66
739.80	253.36
740.13	253.02
740.46	252.67
740.79	252.34
741.12	252.01
741.45	251.74
741.78	251.34
742.11	251.05
742.44	250.71
742.77	250.38
743.10	250.03
743.43	249.77
743.75	249.34
744.08	249.20
744.41	248.93
744.74	248.65
745.07	248.36
745.40	248.09
745.73	247.88
746.06	247.57
746.39	247.29
746.71	247.02
747.04	246.75
747.37	246.49
747.70	246.24
748.03	245.97
748.36	245.72
748.68	245.50
749.01	245.21
749.34	244.98
749.67	244.79
750.00	244.54
750.33	244.38
750.65	244.15
750.98	243.80
751.31	243.59
751.64	243.39
751.97	243.23
752.29	242.99
752.62	242.76
752.95	242.59
753.28	242.39
753.60	242.18
753.93	242.01
754.26	241.80
754.59	241.57
754.91	241.38
755.24	241.17
755.57	241.01
755.90	240.86
756.22	240.65
756.55	240.44
756.88	240.26
757.20	240.02
757.53	239.87
757.86	239.73
758.19	239.57
758.51	239.40
758.84	239.21
759.17	239.05
759.49	238.90
759.82	238.75
760.15	238.65
760.47	238.51
760.80	238.34
761.13	238.23
761.45	238.12
761.78	238.00
762.11	237.89
762.43	237.75
762.76	237.63
763.08	237.52
763.41	237.40
763.74	237.27
764.06	237.13
764.39	236.97
764.71	236.81
765.04	236.68
765.37	236.59
765.69	236.44
766.02	236.31
766.34	236.20
766.67	236.10
767.00	235.98
767.32	235.94
767.65	235.91
767.97	235.79
768.30	235.67
768.62	235.55
768.95	235.43
769.27	235.34
769.60	235.22
769.92	235.13
770.25	235.02
770.57	234.93
770.90	234.84
771.22	234.75
771.55	234.64
771.87	234.55
772.20	234.43
772.52	234.44
772.85	234.47
773.17	234.35
773.50	234.25
773.82	234.12
774.15	233.96
774.47	233.80
774.80	233.72
775.12	233.64
775.45	233.57
775.77	233.50
776.09	233.41
776.42	233.35
776.74	233.25
777.07	233.15
777.39	233.04
777.72	232.95
778.04	232.90
778.36	232.82
778.69	232.70
779.01	232.66
779.33	232.50
779.66	232.32
779.98	232.27
780.31	232.19
780.63	232.18
780.95	232.13
781.28	232.06
781.60	231.97
781.92	231.90
782.25	231.81
782.57	231.70
782.89	231.61
783.22	231.56
783.54	231.48
783.86	231.41
784.19	231.38
784.51	231.35
784.83	231.28
785.16	231.26
785.48	231.21
785.80	231.11
786.12	231.04
786.45	230.97
786.77	230.90
787.09	230.82
787.42	230.75
787.74	230.64
788.06	230.58
788.38	230.52
788.71	230.45
789.03	230.43
789.35	230.40
789.67	230.33
789.99	230.29
790.32	230.24
790.64	230.23
790.96	230.26
791.28	230.18
791.61	230.10
791.93	230.03
792.25	230.02
792.57	230.04
792.89	230.00
793.21	229.98
793.54	229.96
793.86	229.95
794.18	229.92
794.50	229.90
794.82	229.87
795.14	229.88
795.47	229.88
795.79	229.83
796.11	229.76
796.43	229.75
796.75	229.71
797.07	229.71
797.39	229.68
797.71	229.55
798.04	229.52
798.36	229.52
798.68	229.52
799.00	229.50
799.32	229.44
799.64	229.44
799.96	229.42
800.28	229.39
800.60	229.35
800.92	229.30
801.24	229.28
801.56	229.24
801.89	229.19
802.21	229.16
802.53	229.09
802.85	229.11
803.17	229.12
803.49	229.04
803.81	228.98
804.13	228.95
804.45	228.95
804.77	228.94
805.09	228.93
805.41	228.90
805.73	228.87
806.05	228.83
806.37	228.76
806.69	228.74
807.01	228.72
807.33	228.69
807.65	228.65
807.97	228.69
808.28	228.66
808.60	228.67
808.92	228.66
809.24	228.74
809.56	228.67
809.88	228.62
810.20	228.65
810.52	228.67
810.84	228.66
811.16	228.62
811.48	228.61
811.80	228.61
812.12	228.58
812.43	228.57
812.75	228.56
813.07	228.56
813.39	228.56
813.71	228.52
814.03	228.50
814.35	228.51
814.67	228.45
814.98	228.43
815.30	228.40
815.62	228.34
815.94	228.28
816.26	228.33
816.58	228.31
816.89	228.29
817.21	228.28
817.53	228.25
817.85	228.21
818.17	228.15
818.48	228.09
818.80	228.11
819.12	228.07
819.44	228.04
819.76	228.01
820.07	227.99
820.39	227.98
820.71	227.95
821.03	227.91
821.34	227.88
821.66	227.87
821.98	227.87
822.30	227.87
822.61	227.88
822.93	227.82
823.25	227.79
823.57	227.74
823.88	227.75
824.20	227.72
824.52	227.76
824.83	227.75
825.15	227.74
825.47	227.70
825.79	227.71
826.10	227.67
826.42	227.65
826.74	227.61
827.05	227.58
827.37	227.59
827.69	227.58
828.00	227.56
828.32	227.55
828.64	227.52
828.95	227.54
829.27	227.51
829.58	227.50
829.90	227.50
830.22	227.51
830.53	227.44
830.85	227.43
831.17	227.38
831.48	227.37
831.80	227.37
832.11	227.36
832.43	227.33
832.75	227.33
833.06	227.39
833.38	227.37
833.69	227.34
834.01	227.31
834.32	227.30
834.64	227.28
834.96	227.28
835.27	227.28
835.59	227.24
835.90	227.19
836.22	227.18
836.53	227.14
836.85	227.11
837.16	227.19
837.48	227.16
837.79	227.21
838.11	227.19
838.42	227.19
838.74	227.20
839.05	227.20
839.37	227.18
839.68	227.10
840.00	227.11
840.31	227.14
840.63	227.16
840.94	227.14
841.26	227.12
841.57	227.13
841.88	227.10
842.20	227.12
842.51	227.11
842.83	227.09
843.14	227.22
843.46	227.23
843.77	227.18
844.08	227.20
844.40	227.15
844.71	227.15
845.03	227.14
845.34	227.10
845.65	227.08
845.97	227.09
846.28	227.08
846.60	227.05
846.91	227.04
847.22	227.01
847.54	227.03
847.85	227.04
848.16	227.03
848.48	227.00
848.79	226.98
849.10	227.00
849.42	227.03
849.73	226.91
850.04	226.90
850.36	226.90
850.67	226.90
850.98	226.89
851.30	226.88
851.61	226.87
851.92	226.87
852.23	226.90
852.55	226.91
852.86	226.90
853.17	226.94
853.49	226.94
853.80	226.96
854.11	226.94
854.42	226.95
854.74	226.92
855.05	226.91
855.36	226.88
855.67	226.87
855.99	226.85
856.30	226.93
856.61	226.92
856.92	226.89
857.23	226.89
857.55	226.89
857.86	226.89
858.17	226.90
858.48	226.85
858.79	226.79
859.11	226.78
859.42	226.75
859.73	226.73
860.04	226.72
860.35	226.68
860.66	226.64
860.98	226.65
861.29	226.65
861.60	226.64
861.91	226.68
862.22	226.66
862.53	226.64
862.84	226.53
863.16	226.54
863.47	226.50
863.78	226.47
864.09	226.47
864.40	226.45
864.71	226.46
865.02	226.52
865.33	226.51
865.64	226.47
865.95	226.48
866.27	226.54
866.58	226.53
866.89	226.50
867.20	226.52
867.51	226.47
867.82	226.48
868.13	226.53
868.44	226.50
868.75	226.52
869.06	226.55
869.37	226.53
869.68	226.51
869.99	226.57
870.30	226.59
870.61	226.62
870.92	226.59
871.23	226.56
871.54	226.55
871.85	226.57
872.16	226.60
872.47	226.60
872.78	226.51
873.09	226.50
873.40	226.52
873.71	226.56
874.02	226.58
874.33	226.56
874.64	226.54
874.95	226.56
875.26	226.53
875.56	226.52
875.87	226.53
876.18	226.55
876.49	226.59
876.80	226.58
877.11	226.55
877.42	226.58
877.73	226.56
878.04	226.55
878.35	226.60
878.66	226.61
878.96	226.59
879.27	226.62
879.58	226.63
879.89	226.62
880.20	226.62
880.51	226.63
880.82	226.65
881.12	226.65
881.43	226.63
881.74	226.63
882.05	226.62
882.36	226.64
882.67	226.64
882.97	226.56
883.28	226.56
883.59	226.55
883.90	226.57
884.21	226.61
884.51	226.57
884.82	226.55
885.13	226.55
885.44	226.56
885.74	226.56
886.05	226.54
886.36	226.55
886.67	226.50
886.98	226.55
887.28	226.53
887.59	226.55
887.90	226.54
888.20	226.54
888.51	226.57
888.82	226.54
889.13	226.55
889.43	226.61
889.74	226.62
890.05	226.62
890.35	226.61
890.66	226.58
890.97	226.60
891.28	226.58
891.58	226.56
891.89	226.56
892.20	226.55
892.50	226.57
892.81	226.57
893.12	226.59
893.42	226.57
893.73	226.57
894.04	226.54
894.34	226.55
894.65	226.52
894.95	226.48
895.26	226.51
895.57	226.55
895.87	226.47
896.18	226.46
896.48	226.49
896.79	226.48
897.10	226.49
897.40	226.50
897.71	226.53
898.01	226.53
898.32	226.54
898.63	226.52
898.93	226.52
899.24	226.51
899.54	226.49
899.85	226.45
900.15	226.45
900.46	226.47
900.76	226.46
901.07	226.47
901.38	226.48
901.68	226.46
901.99	226.40
902.29	226.38
902.60	226.39
902.90	226.35
903.21	226.33
903.51	226.33
903.82	226.34
904.12	226.30
904.43	226.27
904.73	226.28
905.03	226.31
905.34	226.36
905.64	226.33
905.95	226.33
906.25	226.34
906.56	226.33
906.86	226.32
907.17	226.30
907.47	226.35
907.77	226.31
908.08	226.34
908.38	226.35
908.69	226.35
908.99	226.33
909.30	226.34
909.60	226.35
909.90	226.34
910.21	226.32
910.51	226.33
910.81	226.37
911.12	226.37
911.42	226.35
911.73	226.26
912.03	226.29
912.33	226.30
912.64	226.29
912.94	226.30
913.24	226.29
913.55	226.31
913.85	226.29
914.15	226.31
914.46	226.30
914.76	226.28
915.06	226.26
915.37	226.27
915.67	226.26
915.97	226.27
916.27	226.27
916.58	226.26
916.88	226.25
917.18	226.21
917.49	226.26
917.79	226.25
918.09	226.26
918.39	226.29
918.70	226.30
919.00	226.30
919.30	226.33
919.60	226.32
919.91	226.31
920.21	226.31
920.51	226.30
920.81	226.31
921.12	226.31
921.42	226.35
921.72	226.37
922.02	226.38
922.32	226.38
922.63	226.39
922.93	226.42
923.23	226.45
923.53	226.49
923.83	226.42
924.13	226.46
924.44	226.46
924.74	226.45
925.04	226.47
925.34	226.46
925.64	226.42
925.94	226.44
926.24	226.50
926.55	226.48
926.85	226.49
927.15	226.46
927.45	226.50
927.75	226.48
928.05	226.46
928.35	226.47
928.65	226.51
928.95	226.51
929.26	226.49
929.56	226.50
929.86	226.49
930.16	226.52
930.46	226.49
930.76	226.48
931.06	226.45
931.36	226.42
931.66	226.46
931.96	226.49
932.26	226.50
932.56	226.43
932.86	226.45
933.16	226.46
933.46	226.46
933.76	226.42
934.06	226.44
934.36	226.46
934.66	226.43
934.96	226.43
935.26	226.43
935.56	226.44
935.86	226.40
936.16	226.39
936.46	226.33
936.76	226.31
937.06	226.32
937.36	226.33
937.66	226.33
937.96	226.28
938.26	226.22
938.56	226.20
938.86	226.18
939.16	226.17
939.46	226.17
939.76	226.19
940.06	226.16
940.35	226.14
940.65	226.10
940.95	226.08
941.25	226.02
941.55	225.98
941.85	225.97
942.15	226.01
942.45	226.02
942.75	226.02
943.04	226.03
943.34	226.03
943.64	226.01
943.94	225.98
944.24	226.01
944.54	226.05
944.84	226.02
945.13	226.02
945.43	226.05
945.73	226.05
946.03	226.02
946.33	226.04
946.62	226.00
946.92	226.01
947.22	226.05
947.52	226.06
947.82	226.11
948.11	226.07
948.41	226.05
948.71	226.01
949.01	226.02
949.31	226.01
949.60	226.01
949.90	226.03
950.20	226.04
950.50	226.01
950.79	225.98
951.09	226.01
951.39	226.02
951.69	225.97
951.98	225.94
952.28	225.96
952.58	225.97
952.87	225.96
953.17	225.98
953.47	225.95
953.76	225.95
954.06	225.92
954.36	225.89
954.66	225.87
954.95	225.87
955.25	225.92
955.55	225.97
955.84	225.96
956.14	225.97
956.44	225.98
956.73	225.98
957.03	226.03
957.32	226.07
957.62	226.07
957.92	226.11
958.21	226.15
958.51	226.26
958.81	226.26
959.10	226.29
959.40	226.31
959.69	226.35
959.99	226.38
960.29	226.38
960.58	226.42
960.88	226.46
961.17	226.49
961.47	226.47
961.76	226.45
962.06	226.46
962.36	226.44
962.65	226.49
962.95	226.53
963.24	226.49
963.54	226.46
963.83	226.46
964.13	226.47
964.42	226.45
964.72	226.40
965.01	226.41
965.31	226.41
965.60	226.37
965.90	226.42
966.19	226.41
966.49	226.43
966.78	226.43
967.08	226.45
967.37	226.46
967.67	226.45
967.96	226.48
968.26	226.50
968.55	226.51
968.85	226.47
969.14	226.45
969.43	226.44
969.73	226.42
970.02	226.41
970.32	226.39
970.61	226.37
970.91	226.32
971.20	226.30
971.49	226.29
971.79	226.32
972.08	226.27
972.38	226.28
972.67	226.25
972.96	226.25
973.26	226.22
973.55	226.21
973.85	226.19
974.14	226.19
974.43	226.19
974.73	226.16
975.02	226.15
975.31	226.15
975.61	226.17
975.90	226.17
976.19	226.16
976.49	226.17
976.78	226.18
977.07	226.17
977.37	226.19
977.66	226.16
977.95	226.12
978.24	226.12
978.54	226.12
978.83	226.16
979.12	226.13
979.42	226.10
979.71	226.07
980.00	226.08
980.29	226.07
980.59	226.02
980.88	226.05
981.17	226.03
981.46	226.03
981.76	226.03
982.05	226.06
982.34	226.08
982.63	226.08
982.93	226.06
983.22	226.10
983.51	226.08
983.80	226.13
984.09	226.14
984.39	226.12
984.68	226.09
984.97	226.05
985.26	226.06
985.55	226.10
985.85	226.09
986.14	226.10
986.43	226.09
986.72	226.10
987.01	226.08
987.30	226.07
987.59	226.05
987.89	226.02
988.18	226.01
988.47	225.99
988.76	225.94
989.05	225.93
989.34	225.88
989.63	225.89
989.92	225.88
990.22	225.84
990.51	225.85
990.80	225.85
991.09	225.85
991.38	225.86
991.67	225.82
991.96	225.81
992.25	225.80
992.54	225.74
992.83	225.76
993.12	225.77
993.41	225.79
993.70	225.80
993.99	225.81
994.28	225.79
994.58	225.80
994.87	225.80
995.16	225.79
995.45	225.81
995.74	225.80
996.03	225.79
996.32	225.86
996.61	225.83
996.90	225.82
997.19	225.83
997.48	225.85
997.77	225.83
998.06	225.86
998.34	225.87
998.63	225.92
998.92	225.92
999.21	225.93
999.50	225.89
999.79	225.91
1000.08	225.93
1000.37	225.96
1000.66	225.94
1000.95	226.00
1001.24	226.00
1001.53	226.00
1001.82	226.03
1002.11	226.02
1002.40	225.99
1002.68	226.05
1002.97	226.13
1003.26	226.10
1003.55	226.10
1003.84	226.13
1004.13	226.16
1004.42	226.17
1004.71	226.18
1004.99	226.16
1005.28	226.19
1005.57	226.21
1005.86	226.19
1006.15	226.16
1006.44	226.19
1006.72	226.19
1007.01	226.14
1007.30	226.21
1007.59	226.21
1007.88	226.17
1008.17	226.19
1008.45	226.17
1008.74	226.13
1009.03	226.09
1009.32	226.11
1009.60	226.10
1009.89	226.10
1010.18	226.08
1010.47	226.07
1010.76	226.06
1011.04	226.07
1011.33	226.08
1011.62	226.12
1011.91	226.13
1012.19	226.17
1012.48	226.11
1012.77	226.15
1013.05	226.20
1013.34	226.16
1013.63	226.16
1013.92	226.19
1014.20	226.19
1014.49	226.20
1014.78	226.21
1015.06	226.17
1015.35	226.17
1015.64	226.18
1015.92	226.17
1016.21	226.15
1016.50	226.16
1016.78	226.17
1017.07	226.18
1017.36	226.11
1017.64	226.09
1017.93	226.07
1018.22	226.03
1018.50	226.05
1018.79	226.02
1019.08	226.01
1019.36	226.02
1019.65	225.98
1019.93	226.00
1020.22	225.99
1020.51	226.04
1020.79	226.03
1021.08	225.74
1021.36	225.71
1021.65	226.06
1021.94	226.60
1022.22	226.13
1022.51	225.45
1022.79	226.41
1023.08	225.98
1023.36	226.95
1023.65	225.74
>>>>>End Processed Spectral Data<<<<<
