SpectraSuite Data File
++++++++++++++++++++++++++++++++++++
Date: Fri Feb 01 17:41:25 EST 2013
User: group
Dark Spectrum Present: No
Reference Spectrum Present: No
Number of Sampled Component Spectra: 1
Spectrometers: USB2E7196
Integration Time (usec): 35000 (USB2E7196)
Spectra Averaged: 100 (USB2E7196)
Boxcar Smoothing: 10 (USB2E7196)
Correct for Electrical Dark: No (USB2E7196)
Strobe/Lamp Enabled: No (USB2E7196)
Correct for Detector Non-linearity: No (USB2E7196)
Correct for Stray Light: No (USB2E7196)
Number of Pixels in Processed Spectrum: 2048
>>>>>Begin Processed Spectral Data<<<<<
339.09	0.00
339.48	212.80
339.86	214.34
340.24	215.35
340.63	216.96
341.01	220.33
341.39	220.08
341.78	220.91
342.16	222.27
342.54	223.03
342.93	211.17
343.31	221.85
343.69	222.40
344.07	222.84
344.46	223.26
344.84	223.65
345.22	223.88
345.60	224.08
345.99	224.30
346.37	224.42
346.75	224.52
347.13	224.60
347.52	224.69
347.90	224.76
348.28	224.81
348.66	224.85
349.05	224.86
349.43	224.93
349.81	224.98
350.19	225.02
350.57	225.06
350.96	225.14
351.34	225.23
351.72	225.28
352.10	225.39
352.48	225.44
352.87	225.50
353.25	225.55
353.63	225.64
354.01	225.69
354.39	225.75
354.77	225.80
355.15	225.87
355.54	225.91
355.92	225.95
356.30	226.01
356.68	226.13
357.06	226.19
357.44	226.22
357.82	226.28
358.20	226.34
358.58	226.38
358.97	226.45
359.35	226.52
359.73	226.62
360.11	226.68
360.49	226.75
360.87	226.80
361.25	226.86
361.63	226.94
362.01	226.97
362.39	227.02
362.77	227.09
363.15	227.10
363.53	227.15
363.91	227.18
364.29	227.20
364.67	227.13
365.05	227.17
365.43	227.21
365.81	227.24
366.19	227.30
366.57	227.36
366.95	227.33
367.33	227.32
367.71	227.30
368.09	227.29
368.47	227.32
368.85	227.28
369.23	227.28
369.61	227.20
369.99	227.22
370.37	227.20
370.75	227.20
371.13	227.16
371.51	227.09
371.89	227.07
372.27	227.05
372.65	227.01
373.03	226.97
373.41	226.90
373.78	226.83
374.16	226.75
374.54	226.66
374.92	226.61
375.30	226.53
375.68	226.47
376.06	226.44
376.44	226.37
376.82	226.34
377.19	226.26
377.57	226.21
377.95	226.09
378.33	226.03
378.71	225.88
379.09	225.85
379.47	225.84
379.84	225.76
380.22	225.65
380.60	225.58
380.98	225.51
381.36	225.44
381.73	225.40
382.11	225.31
382.49	225.26
382.87	225.21
383.25	225.16
383.62	225.19
384.00	225.11
384.38	225.05
384.76	225.00
385.13	225.04
385.51	224.99
385.89	224.93
386.27	224.86
386.64	224.86
387.02	224.80
387.40	224.73
387.78	224.70
388.15	224.70
388.53	224.66
388.91	224.66
389.29	224.63
389.66	224.60
390.04	224.61
390.42	224.59
390.79	224.58
391.17	224.55
391.55	224.44
391.92	224.40
392.30	224.42
392.68	224.42
393.05	224.33
393.43	224.35
393.81	224.36
394.18	224.35
394.56	224.35
394.94	224.35
395.31	224.33
395.69	224.34
396.06	224.37
396.44	224.40
396.82	224.39
397.19	224.49
397.57	224.51
397.95	224.57
398.32	224.60
398.70	224.64
399.07	224.71
399.45	224.75
399.82	224.83
400.20	224.84
400.58	224.87
400.95	224.93
401.33	225.02
401.70	225.16
402.08	225.28
402.45	225.37
402.83	225.49
403.20	225.59
403.58	225.70
403.95	225.85
404.33	225.97
404.71	226.11
405.08	226.25
405.46	226.35
405.83	226.47
406.21	226.60
406.58	226.75
406.96	226.90
407.33	227.10
407.70	227.30
408.08	227.56
408.45	227.81
408.83	228.06
409.20	228.28
409.58	228.49
409.95	228.78
410.33	229.09
410.70	229.37
411.08	229.72
411.45	230.04
411.82	230.34
412.20	230.72
412.57	231.18
412.95	231.52
413.32	231.99
413.69	232.45
414.07	232.96
414.44	233.49
414.82	234.03
415.19	234.65
415.56	235.23
415.94	235.89
416.31	236.59
416.68	237.31
417.06	238.11
417.43	238.87
417.81	239.73
418.18	240.62
418.55	241.57
418.93	242.59
419.30	243.64
419.67	244.71
420.04	245.81
420.42	246.94
420.79	248.27
421.16	249.58
421.54	250.93
421.91	252.33
422.28	253.79
422.66	255.30
423.03	256.80
423.40	258.34
423.77	259.99
424.15	261.64
424.52	263.34
424.89	265.21
425.26	266.98
425.64	268.63
426.01	270.41
426.38	272.32
426.75	274.20
427.13	276.16
427.50	278.24
427.87	280.38
428.24	282.47
428.61	284.46
428.99	286.67
429.36	289.10
429.73	291.43
430.10	293.75
430.47	296.10
430.85	298.52
431.22	301.08
431.59	303.74
431.96	306.28
432.33	309.10
432.70	311.82
433.08	315.05
433.45	318.02
433.82	320.98
434.19	324.29
434.56	327.52
434.93	330.52
435.30	333.48
435.68	336.74
436.05	339.99
436.42	343.22
436.79	346.08
437.16	349.15
437.53	352.37
437.90	355.52
438.27	358.64
438.64	361.83
439.01	364.75
439.38	367.27
439.75	369.73
440.13	372.53
440.50	375.18
440.87	377.25
441.24	379.53
441.61	382.02
441.98	383.69
442.35	385.74
442.72	387.92
443.09	389.98
443.46	391.16
443.83	391.80
444.20	392.39
444.57	393.38
444.94	393.70
445.31	394.14
445.68	394.52
446.05	394.61
446.42	394.20
446.79	393.77
447.16	393.30
447.53	392.97
447.90	391.73
448.27	390.42
448.64	388.65
449.01	387.35
449.37	385.16
449.74	383.03
450.11	380.46
450.48	377.61
450.85	374.76
451.22	372.33
451.59	370.05
451.96	367.83
452.33	364.88
452.70	362.22
453.07	358.95
453.43	355.72
453.80	352.57
454.17	349.58
454.54	346.68
454.91	343.57
455.28	340.48
455.65	337.59
456.02	334.77
456.38	332.32
456.75	329.25
457.12	326.69
457.49	324.13
457.86	321.62
458.23	319.49
458.59	317.17
458.96	314.73
459.33	312.61
459.70	310.45
460.07	308.70
460.43	306.70
460.80	304.90
461.17	303.26
461.54	301.55
461.91	299.88
462.27	298.25
462.64	296.82
463.01	295.28
463.38	293.84
463.74	292.27
464.11	290.92
464.48	289.77
464.85	288.44
465.21	287.44
465.58	286.41
465.95	285.17
466.32	284.12
466.68	283.12
467.05	282.08
467.42	281.09
467.78	280.04
468.15	279.05
468.52	278.26
468.88	277.27
469.25	276.40
469.62	275.67
469.98	274.86
470.35	274.12
470.72	273.45
471.08	272.69
471.45	272.08
471.82	271.44
472.18	270.73
472.55	270.27
472.92	269.68
473.28	269.13
473.65	268.59
474.02	268.06
474.38	267.62
474.75	267.24
475.11	266.82
475.48	266.49
475.85	266.20
476.21	265.92
476.58	265.70
476.94	265.50
477.31	265.26
477.67	265.07
478.04	264.92
478.41	264.83
478.77	264.85
479.14	264.73
479.50	264.75
479.87	264.82
480.23	264.86
480.60	264.94
480.96	265.01
481.33	265.20
481.69	265.40
482.06	265.61
482.42	265.79
482.79	266.07
483.15	266.36
483.52	266.75
483.88	267.10
484.25	267.46
484.61	267.90
484.98	268.39
485.34	268.97
485.71	269.56
486.07	270.20
486.44	270.70
486.80	271.43
487.17	272.13
487.53	272.92
487.90	273.77
488.26	274.68
488.62	275.73
488.99	276.71
489.35	277.77
489.72	278.91
490.08	280.12
490.44	281.35
490.81	282.72
491.17	284.04
491.54	285.53
491.90	287.11
492.26	288.75
492.63	290.44
492.99	292.20
493.36	294.10
493.72	296.13
494.08	298.31
494.45	300.57
494.81	302.96
495.17	305.43
495.54	308.04
495.90	310.75
496.26	313.53
496.63	316.51
496.99	319.65
497.35	322.87
497.72	326.36
498.08	329.91
498.44	333.64
498.80	337.67
499.17	341.76
499.53	345.96
499.89	350.37
500.26	354.95
500.62	359.71
500.98	364.69
501.34	369.84
501.71	375.16
502.07	380.64
502.43	386.29
502.79	392.16
503.16	398.23
503.52	404.53
503.88	410.95
504.24	417.55
504.60	424.45
504.97	431.72
505.33	439.08
505.69	446.82
506.05	454.64
506.41	462.52
506.78	470.75
507.14	479.21
507.50	488.00
507.86	497.04
508.22	506.23
508.59	515.51
508.95	525.13
509.31	535.01
509.67	545.18
510.03	555.54
510.39	566.16
510.75	576.99
511.12	588.04
511.48	599.37
511.84	610.96
512.20	622.59
512.56	634.49
512.92	646.62
513.28	659.09
513.64	671.61
514.00	684.36
514.37	697.36
514.73	710.52
515.09	723.54
515.45	736.90
515.81	750.62
516.17	764.59
516.53	778.80
516.89	793.07
517.25	807.37
517.61	821.98
517.97	836.55
518.33	851.09
518.69	865.93
519.05	881.08
519.41	896.39
519.77	911.98
520.13	927.56
520.49	943.27
520.85	958.78
521.21	974.57
521.57	990.97
521.93	1006.86
522.29	1023.26
522.65	1039.77
523.01	1056.17
523.37	1072.38
523.73	1088.77
524.09	1104.96
524.45	1121.44
524.81	1138.16
525.17	1155.02
525.53	1172.00
525.89	1189.14
526.25	1206.17
526.61	1222.82
526.97	1239.83
527.33	1256.55
527.68	1273.34
528.04	1290.02
528.40	1306.82
528.76	1324.22
529.12	1341.05
529.48	1358.28
529.84	1374.53
530.20	1391.36
530.56	1408.59
530.91	1426.22
531.27	1443.38
531.63	1460.18
531.99	1477.04
532.35	1493.47
532.71	1509.73
533.07	1526.26
533.42	1542.60
533.78	1559.18
534.14	1575.77
534.50	1591.55
534.86	1607.93
535.21	1623.66
535.57	1639.97
535.93	1655.74
536.29	1670.82
536.65	1686.25
537.00	1701.28
537.36	1717.26
537.72	1732.20
538.08	1747.14
538.44	1761.40
538.79	1775.83
539.15	1790.00
539.51	1804.23
539.87	1819.08
540.22	1833.35
540.58	1847.69
540.94	1861.34
541.29	1874.38
541.65	1887.65
542.01	1901.35
542.37	1914.29
542.72	1927.32
543.08	1939.75
543.44	1953.05
543.79	1965.18
544.15	1976.93
544.51	1989.14
544.87	2000.76
545.22	2012.36
545.58	2023.26
545.94	2033.83
546.29	2044.39
546.65	2055.05
547.01	2065.11
547.36	2074.57
547.72	2083.77
548.07	2092.65
548.43	2101.60
548.79	2110.41
549.14	2118.85
549.50	2126.85
549.86	2135.16
550.21	2143.13
550.57	2151.06
550.92	2158.33
551.28	2166.01
551.64	2173.79
551.99	2181.24
552.35	2188.29
552.70	2195.30
553.06	2202.23
553.41	2209.37
553.77	2215.98
554.13	2222.71
554.48	2229.55
554.84	2235.85
555.19	2241.68
555.55	2247.48
555.90	2252.84
556.26	2258.88
556.61	2264.21
556.97	2269.49
557.32	2274.38
557.68	2279.32
558.03	2284.22
558.39	2288.60
558.74	2293.92
559.10	2298.69
559.45	2302.98
559.81	2307.75
560.16	2312.20
560.52	2316.13
560.87	2320.13
561.23	2323.58
561.58	2327.23
561.94	2330.63
562.29	2333.51
562.64	2337.42
563.00	2340.71
563.35	2344.79
563.71	2348.45
564.06	2352.25
564.42	2355.89
564.77	2359.08
565.12	2362.28
565.48	2365.14
565.83	2367.82
566.19	2370.12
566.54	2371.47
566.89	2373.42
567.25	2374.87
567.60	2376.80
567.96	2379.16
568.31	2380.65
568.66	2382.42
569.02	2383.52
569.37	2384.29
569.72	2386.04
570.08	2386.72
570.43	2387.23
570.78	2387.33
571.14	2386.38
571.49	2385.56
571.84	2385.40
572.20	2384.79
572.55	2384.03
572.90	2382.65
573.26	2381.61
573.61	2379.99
573.96	2378.92
574.31	2376.39
574.67	2373.73
575.02	2370.47
575.37	2367.43
575.72	2364.12
576.08	2361.00
576.43	2357.87
576.78	2354.85
577.13	2351.66
577.49	2348.50
577.84	2345.47
578.19	2341.98
578.54	2338.63
578.90	2334.81
579.25	2329.62
579.60	2324.96
579.95	2320.33
580.30	2315.63
580.66	2310.56
581.01	2305.88
581.36	2301.06
581.71	2297.20
582.06	2292.88
582.42	2288.77
582.77	2283.58
583.12	2279.18
583.47	2274.82
583.82	2270.22
584.17	2264.89
584.53	2259.57
584.88	2254.27
585.23	2248.63
585.58	2243.16
585.93	2237.69
586.28	2232.79
586.63	2227.89
586.98	2222.84
587.34	2218.00
587.69	2213.07
588.04	2208.18
588.39	2202.61
588.74	2195.93
589.09	2189.53
589.44	2182.82
589.79	2176.27
590.14	2170.58
590.49	2163.75
590.84	2157.01
591.19	2150.94
591.54	2144.39
591.89	2137.05
592.25	2130.17
592.60	2122.73
592.95	2115.21
593.30	2107.75
593.65	2099.98
594.00	2092.66
594.35	2085.33
594.70	2076.99
595.05	2069.77
595.40	2062.10
595.75	2054.29
596.10	2048.09
596.45	2041.20
596.80	2034.91
597.15	2028.33
597.50	2021.27
597.85	2014.72
598.19	2007.97
598.54	2000.89
598.89	1994.08
599.24	1988.00
599.59	1981.31
599.94	1974.80
600.29	1968.06
600.64	1961.11
600.99	1953.64
601.34	1946.65
601.69	1939.17
602.04	1932.09
602.39	1924.29
602.74	1917.15
603.08	1910.23
603.43	1903.20
603.78	1895.65
604.13	1887.95
604.48	1880.58
604.83	1873.47
605.18	1866.37
605.53	1858.18
605.87	1849.69
606.22	1842.02
606.57	1833.57
606.92	1825.49
607.27	1818.14
607.62	1811.09
607.96	1803.70
608.31	1796.90
608.66	1788.90
609.01	1781.17
609.36	1773.37
609.70	1765.06
610.05	1756.58
610.40	1748.48
610.75	1739.77
611.10	1731.75
611.44	1722.88
611.79	1714.29
612.14	1705.01
612.49	1695.22
612.83	1686.26
613.18	1677.50
613.53	1669.03
613.88	1660.12
614.22	1651.41
614.57	1642.08
614.92	1633.38
615.27	1625.47
615.61	1616.60
615.96	1608.11
616.31	1599.80
616.65	1591.96
617.00	1583.86
617.35	1575.76
617.70	1567.15
618.04	1558.11
618.39	1549.15
618.74	1541.25
619.08	1532.46
619.43	1524.33
619.78	1516.86
620.12	1509.42
620.47	1501.56
620.82	1492.74
621.16	1484.59
621.51	1476.50
621.85	1468.41
622.20	1459.47
622.55	1450.41
622.89	1441.99
623.24	1433.76
623.59	1425.85
623.93	1417.77
624.28	1410.01
624.62	1402.04
624.97	1394.13
625.32	1386.76
625.66	1379.24
626.01	1371.53
626.35	1363.78
626.70	1355.55
627.04	1347.40
627.39	1338.94
627.73	1330.99
628.08	1323.72
628.43	1316.26
628.77	1308.66
629.12	1300.64
629.46	1293.02
629.81	1285.01
630.15	1277.21
630.50	1269.38
630.84	1260.84
631.19	1252.36
631.53	1244.49
631.88	1236.36
632.22	1228.44
632.57	1220.62
632.91	1212.75
633.26	1204.83
633.60	1196.79
633.95	1189.09
634.29	1181.51
634.64	1174.39
634.98	1166.68
635.32	1159.02
635.67	1151.79
636.01	1144.48
636.36	1137.39
636.70	1130.34
637.05	1123.42
637.39	1116.56
637.73	1109.71
638.08	1103.39
638.42	1097.01
638.77	1090.09
639.11	1083.23
639.45	1076.31
639.80	1069.41
640.14	1062.60
640.49	1055.73
640.83	1049.09
641.17	1042.58
641.52	1036.04
641.86	1029.15
642.20	1022.86
642.55	1016.03
642.89	1009.29
643.23	1002.38
643.58	996.21
643.92	989.74
644.26	983.43
644.61	977.00
644.95	970.64
645.29	963.79
645.64	956.68
645.98	949.93
646.32	943.54
646.66	937.19
647.01	931.07
647.35	925.08
647.69	918.87
648.04	912.97
648.38	906.97
648.72	900.65
649.06	894.31
649.41	888.02
649.75	881.88
650.09	875.60
650.43	869.54
650.78	863.10
651.12	856.82
651.46	850.75
651.80	844.84
652.14	839.12
652.49	833.48
652.83	827.99
653.17	822.18
653.51	816.35
653.85	810.55
654.20	804.59
654.54	798.32
654.88	792.21
655.22	785.97
655.56	779.77
655.90	773.98
656.25	768.46
656.59	762.88
656.93	757.49
657.27	752.14
657.61	746.32
657.95	740.84
658.29	735.54
658.64	730.01
658.98	724.31
659.32	718.53
659.66	713.00
660.00	707.51
660.34	702.27
660.68	697.03
661.02	691.80
661.36	686.89
661.70	682.07
662.05	677.58
662.39	673.11
662.73	668.54
663.07	663.92
663.41	659.25
663.75	654.48
664.09	649.64
664.43	644.91
664.77	640.71
665.11	636.32
665.45	631.86
665.79	627.57
666.13	623.21
666.47	618.88
666.81	614.52
667.15	610.14
667.49	606.02
667.83	601.92
668.17	597.79
668.51	593.47
668.85	589.20
669.19	584.99
669.53	580.89
669.87	576.86
670.21	572.99
670.55	569.13
670.89	565.57
671.23	562.01
671.57	558.31
671.91	554.56
672.25	550.87
672.58	547.19
672.92	543.54
673.26	540.20
673.60	536.85
673.94	533.62
674.28	530.58
674.62	527.48
674.96	524.34
675.30	521.24
675.64	518.20
675.97	515.27
676.31	512.33
676.65	509.32
676.99	506.41
677.33	503.35
677.67	500.40
678.01	497.20
678.34	494.09
678.68	491.04
679.02	488.07
679.36	485.13
679.70	482.21
680.04	479.30
680.37	476.33
680.71	473.43
681.05	470.61
681.39	467.73
681.73	464.87
682.06	462.19
682.40	459.56
682.74	456.88
683.08	454.17
683.42	451.42
683.75	448.79
684.09	446.07
684.43	443.41
684.77	440.79
685.10	438.27
685.44	435.79
685.78	433.41
686.12	431.05
686.45	428.58
686.79	426.18
687.13	423.90
687.46	421.59
687.80	419.32
688.14	416.98
688.48	414.81
688.81	412.51
689.15	410.21
689.49	407.87
689.82	405.66
690.16	403.43
690.50	401.34
690.83	399.26
691.17	397.14
691.51	395.14
691.84	393.23
692.18	391.28
692.52	389.24
692.85	387.15
693.19	385.17
693.52	383.30
693.86	381.34
694.20	379.37
694.53	377.47
694.87	375.52
695.21	373.58
695.54	371.62
695.88	369.75
696.21	367.86
696.55	366.10
696.88	364.32
697.22	362.53
697.56	360.81
697.89	359.07
698.23	357.44
698.56	355.80
698.90	354.13
699.23	352.40
699.57	350.73
699.90	349.16
700.24	347.46
700.58	345.83
700.91	344.32
701.25	342.80
701.58	341.35
701.92	339.88
702.25	338.46
702.59	337.05
702.92	335.66
703.26	334.26
703.59	332.89
703.93	331.61
704.26	330.34
704.60	329.01
704.93	327.64
705.26	326.27
705.60	324.97
705.93	323.69
706.27	322.56
706.60	321.46
706.94	320.27
707.27	319.11
707.61	317.95
707.94	316.81
708.27	315.66
708.61	314.49
708.94	313.41
709.28	312.34
709.61	311.30
709.94	310.27
710.28	309.25
710.61	308.22
710.95	307.05
711.28	306.08
711.61	305.05
711.95	304.11
712.28	303.13
712.61	302.06
712.95	301.08
713.28	300.08
713.61	299.08
713.95	298.14
714.28	297.24
714.61	296.31
714.95	295.40
715.28	294.48
715.61	293.55
715.95	292.65
716.28	291.74
716.61	290.85
716.95	289.95
717.28	289.12
717.61	288.30
717.94	287.51
718.28	286.63
718.61	285.82
718.94	285.02
719.27	284.30
719.61	283.59
719.94	282.85
720.27	282.07
720.60	281.36
720.94	280.70
721.27	280.05
721.60	279.43
721.93	278.79
722.27	278.24
722.60	277.62
722.93	277.00
723.26	276.43
723.59	275.84
723.93	275.25
724.26	274.64
724.59	274.00
724.92	273.45
725.25	272.91
725.59	272.35
725.92	271.82
726.25	271.29
726.58	270.79
726.91	270.29
727.24	269.83
727.57	269.32
727.91	268.76
728.24	268.22
728.57	267.70
728.90	267.21
729.23	266.65
729.56	266.21
729.89	265.69
730.22	265.17
730.55	264.64
730.89	264.16
731.22	263.68
731.55	263.27
731.88	262.81
732.21	262.39
732.54	261.91
732.87	261.42
733.20	260.97
733.53	260.49
733.86	260.04
734.19	259.61
734.52	259.21
734.85	258.89
735.18	258.49
735.51	258.06
735.84	257.64
736.17	257.26
736.50	256.82
736.83	256.57
737.16	256.21
737.49	255.90
737.82	255.56
738.15	255.24
738.48	254.85
738.81	254.48
739.14	254.13
739.47	253.82
739.80	253.52
740.13	253.22
740.46	252.88
740.79	252.57
741.12	252.23
741.45	251.86
741.78	251.48
742.11	251.19
742.44	250.87
742.77	250.59
743.10	250.25
743.43	249.98
743.75	249.56
744.08	249.40
744.41	249.04
744.74	248.76
745.07	248.47
745.40	248.24
745.73	247.97
746.06	247.65
746.39	247.37
746.71	247.08
747.04	246.75
747.37	246.48
747.70	246.22
748.03	245.93
748.36	245.68
748.68	245.43
749.01	245.12
749.34	244.88
749.67	244.60
750.00	244.41
750.33	244.23
750.65	244.03
750.98	243.65
751.31	243.43
751.64	243.17
751.97	243.00
752.29	242.74
752.62	242.49
752.95	242.27
753.28	242.02
753.60	241.81
753.93	241.67
754.26	241.49
754.59	241.23
754.91	241.05
755.24	240.84
755.57	240.63
755.90	240.48
756.22	240.29
756.55	240.08
756.88	239.85
757.20	239.61
757.53	239.40
757.86	239.21
758.19	239.05
758.51	238.88
758.84	238.63
759.17	238.44
759.49	238.29
759.82	238.18
760.15	238.05
760.47	237.90
760.80	237.69
761.13	237.54
761.45	237.39
761.78	237.24
762.11	237.10
762.43	236.92
762.76	236.76
763.08	236.61
763.41	236.48
763.74	236.34
764.06	236.17
764.39	236.03
764.71	235.89
765.04	235.73
765.37	235.60
765.69	235.45
766.02	235.33
766.34	235.16
766.67	234.99
767.00	234.86
767.32	234.76
767.65	234.69
767.97	234.54
768.30	234.42
768.62	234.30
768.95	234.15
769.27	234.04
769.60	233.93
769.92	233.80
770.25	233.71
770.57	233.57
770.90	233.46
771.22	233.35
771.55	233.25
771.87	233.18
772.20	233.04
772.52	233.04
772.85	233.07
773.17	233.00
773.50	232.87
773.82	232.75
774.15	232.64
774.47	232.47
774.80	232.35
775.12	232.26
775.45	232.18
775.77	232.12
776.09	232.03
776.42	231.93
776.74	231.87
777.07	231.75
777.39	231.67
777.72	231.58
778.04	231.54
778.36	231.47
778.69	231.37
779.01	231.31
779.33	231.16
779.66	230.95
779.98	230.88
780.31	230.84
780.63	230.84
780.95	230.77
781.28	230.73
781.60	230.70
781.92	230.63
782.25	230.55
782.57	230.49
782.89	230.40
783.22	230.32
783.54	230.22
783.86	230.20
784.19	230.18
784.51	230.14
784.83	230.02
785.16	229.93
785.48	229.91
785.80	229.87
786.12	229.87
786.45	229.83
786.77	229.75
787.09	229.72
787.42	229.61
787.74	229.57
788.06	229.52
788.38	229.47
788.71	229.45
789.03	229.40
789.35	229.38
789.67	229.34
789.99	229.34
790.32	229.29
790.64	229.24
790.96	229.25
791.28	229.17
791.61	229.15
791.93	229.13
792.25	229.06
792.57	229.09
792.89	228.99
793.21	228.96
793.54	228.95
793.86	228.88
794.18	228.86
794.50	228.80
794.82	228.79
795.14	228.72
795.47	228.69
795.79	228.64
796.11	228.58
796.43	228.55
796.75	228.52
797.07	228.51
797.39	228.51
797.71	228.39
798.04	228.34
798.36	228.32
798.68	228.29
799.00	228.27
799.32	228.17
799.64	228.16
799.96	228.12
800.28	228.09
800.60	228.06
800.92	228.03
801.24	227.98
801.56	227.94
801.89	227.94
802.21	227.89
802.53	227.86
802.85	227.82
803.17	227.85
803.49	227.77
803.81	227.71
804.13	227.65
804.45	227.62
804.77	227.60
805.09	227.58
805.41	227.54
805.73	227.48
806.05	227.44
806.37	227.41
806.69	227.36
807.01	227.31
807.33	227.27
807.65	227.21
807.97	227.22
808.28	227.18
808.60	227.13
808.92	227.09
809.24	227.10
809.56	227.09
809.88	227.04
810.20	227.01
810.52	227.00
810.84	226.94
811.16	226.90
811.48	226.88
811.80	226.87
812.12	226.85
812.43	226.85
812.75	226.84
813.07	226.81
813.39	226.79
813.71	226.76
814.03	226.74
814.35	226.72
814.67	226.65
814.98	226.61
815.30	226.60
815.62	226.58
815.94	226.50
816.26	226.51
816.58	226.45
816.89	226.47
817.21	226.42
817.53	226.43
817.85	226.42
818.17	226.41
818.48	226.34
818.80	226.34
819.12	226.32
819.44	226.28
819.76	226.24
820.07	226.24
820.39	226.22
820.71	226.22
821.03	226.21
821.34	226.23
821.66	226.27
821.98	226.28
822.30	226.26
822.61	226.30
822.93	226.24
823.25	226.24
823.57	226.23
823.88	226.25
824.20	226.25
824.52	226.25
824.83	226.25
825.15	226.26
825.47	226.25
825.79	226.26
826.10	226.24
826.42	226.25
826.74	226.26
827.05	226.22
827.37	226.22
827.69	226.23
828.00	226.19
828.32	226.13
828.64	226.10
828.95	226.14
829.27	226.12
829.58	226.12
829.90	226.12
830.22	226.10
830.53	226.11
830.85	226.08
831.17	226.05
831.48	226.02
831.80	225.99
832.11	225.97
832.43	225.92
832.75	225.93
833.06	225.95
833.38	225.87
833.69	225.90
834.01	225.89
834.32	225.89
834.64	225.87
834.96	225.86
835.27	225.84
835.59	225.82
835.90	225.79
836.22	225.78
836.53	225.75
836.85	225.75
837.16	225.80
837.48	225.80
837.79	225.82
838.11	225.84
838.42	225.85
838.74	225.86
839.05	225.85
839.37	225.85
839.68	225.81
840.00	225.83
840.31	225.80
840.63	225.78
840.94	225.74
841.26	225.75
841.57	225.72
841.88	225.74
842.20	225.73
842.51	225.73
842.83	225.72
843.14	225.80
843.46	225.80
843.77	225.73
844.08	225.73
844.40	225.70
844.71	225.66
845.03	225.64
845.34	225.62
845.65	225.61
845.97	225.58
846.28	225.55
846.60	225.53
846.91	225.53
847.22	225.51
847.54	225.50
847.85	225.47
848.16	225.48
848.48	225.44
848.79	225.44
849.10	225.45
849.42	225.44
849.73	225.36
850.04	225.33
850.36	225.31
850.67	225.33
850.98	225.31
851.30	225.31
851.61	225.30
851.92	225.25
852.23	225.28
852.55	225.29
852.86	225.29
853.17	225.30
853.49	225.29
853.80	225.31
854.11	225.32
854.42	225.35
854.74	225.34
855.05	225.32
855.36	225.27
855.67	225.27
855.99	225.28
856.30	225.38
856.61	225.38
856.92	225.36
857.23	225.37
857.55	225.33
857.86	225.32
858.17	225.33
858.48	225.35
858.79	225.31
859.11	225.29
859.42	225.29
859.73	225.27
860.04	225.30
860.35	225.28
860.66	225.23
860.98	225.27
861.29	225.31
861.60	225.32
861.91	225.32
862.22	225.29
862.53	225.27
862.84	225.16
863.16	225.17
863.47	225.18
863.78	225.13
864.09	225.16
864.40	225.20
864.71	225.18
865.02	225.16
865.33	225.14
865.64	225.14
865.95	225.15
866.27	225.23
866.58	225.18
866.89	225.20
867.20	225.22
867.51	225.17
867.82	225.16
868.13	225.20
868.44	225.21
868.75	225.20
869.06	225.19
869.37	225.22
869.68	225.17
869.99	225.17
870.30	225.16
870.61	225.17
870.92	225.13
871.23	225.15
871.54	225.20
871.85	225.25
872.16	225.25
872.47	225.22
872.78	225.17
873.09	225.20
873.40	225.19
873.71	225.18
874.02	225.19
874.33	225.16
874.64	225.12
874.95	225.12
875.26	225.13
875.56	225.09
875.87	225.04
876.18	225.04
876.49	225.12
876.80	225.14
877.11	225.13
877.42	225.12
877.73	225.11
878.04	225.09
878.35	225.06
878.66	225.04
878.96	225.07
879.27	225.05
879.58	225.04
879.89	225.00
880.20	225.05
880.51	225.03
880.82	225.02
881.12	225.02
881.43	225.02
881.74	224.99
882.05	225.03
882.36	225.04
882.67	225.07
882.97	224.98
883.28	224.96
883.59	224.97
883.90	225.01
884.21	225.01
884.51	225.00
884.82	225.00
885.13	224.98
885.44	224.98
885.74	224.99
886.05	224.96
886.36	225.01
886.67	224.96
886.98	224.99
887.28	225.00
887.59	225.00
887.90	224.96
888.20	224.98
888.51	224.98
888.82	224.96
889.13	224.95
889.43	225.06
889.74	225.05
890.05	225.02
890.35	224.98
890.66	224.96
890.97	224.96
891.28	224.94
891.58	224.96
891.89	224.94
892.20	224.93
892.50	224.93
892.81	224.94
893.12	224.92
893.42	224.89
893.73	224.92
894.04	224.89
894.34	224.93
894.65	224.93
894.95	224.89
895.26	224.90
895.57	224.91
895.87	224.78
896.18	224.79
896.48	224.77
896.79	224.75
897.10	224.77
897.40	224.76
897.71	224.78
898.01	224.78
898.32	224.79
898.63	224.78
898.93	224.78
899.24	224.79
899.54	224.78
899.85	224.75
900.15	224.74
900.46	224.77
900.76	224.78
901.07	224.79
901.38	224.81
901.68	224.81
901.99	224.78
902.29	224.81
902.60	224.81
902.90	224.84
903.21	224.87
903.51	224.88
903.82	224.90
904.12	224.90
904.43	224.93
904.73	224.95
905.03	224.94
905.34	225.02
905.64	224.98
905.95	225.01
906.25	225.04
906.56	225.02
906.86	225.02
907.17	225.01
907.47	224.97
907.77	224.96
908.08	224.96
908.38	224.96
908.69	224.94
908.99	224.94
909.30	224.92
909.60	224.94
909.90	224.92
910.21	224.88
910.51	224.83
910.81	224.78
911.12	224.79
911.42	224.77
911.73	224.66
912.03	224.69
912.33	224.67
912.64	224.66
912.94	224.65
913.24	224.65
913.55	224.61
913.85	224.62
914.15	224.64
914.46	224.64
914.76	224.64
915.06	224.68
915.37	224.68
915.67	224.69
915.97	224.67
916.27	224.68
916.58	224.67
916.88	224.70
917.18	224.70
917.49	224.78
917.79	224.80
918.09	224.85
918.39	224.87
918.70	224.86
919.00	224.87
919.30	224.95
919.60	224.91
919.91	224.93
920.21	224.94
920.51	224.90
920.81	224.92
921.12	224.94
921.42	224.93
921.72	224.92
922.02	224.91
922.32	224.93
922.63	224.91
922.93	224.97
923.23	224.98
923.53	224.98
923.83	224.86
924.13	224.84
924.44	224.83
924.74	224.83
925.04	224.88
925.34	224.88
925.64	224.80
925.94	224.79
926.24	224.82
926.55	224.81
926.85	224.82
927.15	224.77
927.45	224.77
927.75	224.80
928.05	224.77
928.35	224.79
928.65	224.80
928.95	224.83
929.26	224.78
929.56	224.76
929.86	224.78
930.16	224.79
930.46	224.79
930.76	224.75
931.06	224.72
931.36	224.68
931.66	224.68
931.96	224.70
932.26	224.70
932.56	224.65
932.86	224.66
933.16	224.69
933.46	224.69
933.76	224.67
934.06	224.64
934.36	224.67
934.66	224.66
934.96	224.63
935.26	224.61
935.56	224.61
935.86	224.62
936.16	224.59
936.46	224.57
936.76	224.58
937.06	224.56
937.36	224.56
937.66	224.57
937.96	224.55
938.26	224.52
938.56	224.54
938.86	224.55
939.16	224.56
939.46	224.55
939.76	224.59
940.06	224.61
940.35	224.58
940.65	224.53
940.95	224.54
941.25	224.52
941.55	224.51
941.85	224.53
942.15	224.55
942.45	224.56
942.75	224.58
943.04	224.60
943.34	224.65
943.64	224.66
943.94	224.63
944.24	224.63
944.54	224.65
944.84	224.66
945.13	224.67
945.43	224.64
945.73	224.63
946.03	224.60
946.33	224.59
946.62	224.63
946.92	224.64
947.22	224.64
947.52	224.64
947.82	224.68
948.11	224.68
948.41	224.68
948.71	224.66
949.01	224.66
949.31	224.65
949.60	224.65
949.90	224.66
950.20	224.66
950.50	224.64
950.79	224.65
951.09	224.64
951.39	224.63
951.69	224.66
951.98	224.68
952.28	224.70
952.58	224.69
952.87	224.67
953.17	224.71
953.47	224.70
953.76	224.71
954.06	224.70
954.36	224.67
954.66	224.61
954.95	224.65
955.25	224.64
955.55	224.65
955.84	224.64
956.14	224.68
956.44	224.69
956.73	224.68
957.03	224.70
957.32	224.70
957.62	224.71
957.92	224.72
958.21	224.68
958.51	224.78
958.81	224.77
959.10	224.78
959.40	224.80
959.69	224.81
959.99	224.82
960.29	224.79
960.58	224.81
960.88	224.87
961.17	224.86
961.47	224.89
961.76	224.85
962.06	224.86
962.36	224.82
962.65	224.84
962.95	224.85
963.24	224.86
963.54	224.90
963.83	224.90
964.13	224.87
964.42	224.89
964.72	224.84
965.01	224.84
965.31	224.82
965.60	224.79
965.90	224.84
966.19	224.84
966.49	224.85
966.78	224.84
967.08	224.82
967.37	224.83
967.67	224.83
967.96	224.85
968.26	224.83
968.55	224.84
968.85	224.78
969.14	224.79
969.43	224.76
969.73	224.72
970.02	224.71
970.32	224.73
970.61	224.70
970.91	224.64
971.20	224.62
971.49	224.62
971.79	224.60
972.08	224.53
972.38	224.55
972.67	224.53
972.96	224.51
973.26	224.49
973.55	224.51
973.85	224.48
974.14	224.47
974.43	224.46
974.73	224.42
975.02	224.44
975.31	224.45
975.61	224.44
975.90	224.42
976.19	224.39
976.49	224.37
976.78	224.37
977.07	224.37
977.37	224.39
977.66	224.41
977.95	224.38
978.24	224.38
978.54	224.34
978.83	224.32
979.12	224.34
979.42	224.33
979.71	224.29
980.00	224.29
980.29	224.31
980.59	224.29
980.88	224.35
981.17	224.36
981.46	224.35
981.76	224.34
982.05	224.38
982.34	224.41
982.63	224.39
982.93	224.42
983.22	224.45
983.51	224.46
983.80	224.47
984.09	224.50
984.39	224.50
984.68	224.50
984.97	224.51
985.26	224.50
985.55	224.51
985.85	224.51
986.14	224.53
986.43	224.51
986.72	224.52
987.01	224.48
987.30	224.48
987.59	224.48
987.89	224.51
988.18	224.48
988.47	224.45
988.76	224.47
989.05	224.44
989.34	224.42
989.63	224.44
989.92	224.42
990.22	224.39
990.51	224.41
990.80	224.42
991.09	224.43
991.38	224.44
991.67	224.46
991.96	224.47
992.25	224.48
992.54	224.47
992.83	224.49
993.12	224.49
993.41	224.49
993.70	224.53
993.99	224.55
994.28	224.58
994.58	224.61
994.87	224.59
995.16	224.59
995.45	224.59
995.74	224.57
996.03	224.57
996.32	224.60
996.61	224.57
996.90	224.56
997.19	224.56
997.48	224.56
997.77	224.55
998.06	224.56
998.34	224.51
998.63	224.51
998.92	224.52
999.21	224.54
999.50	224.55
999.79	224.53
1000.08	224.52
1000.37	224.54
1000.66	224.52
1000.95	224.55
1001.24	224.56
1001.53	224.59
1001.82	224.58
1002.11	224.59
1002.40	224.61
1002.68	224.67
1002.97	224.75
1003.26	224.73
1003.55	224.71
1003.84	224.68
1004.13	224.70
1004.42	224.70
1004.71	224.73
1004.99	224.70
1005.28	224.70
1005.57	224.67
1005.86	224.65
1006.15	224.65
1006.44	224.59
1006.72	224.58
1007.01	224.55
1007.30	224.54
1007.59	224.48
1007.88	224.44
1008.17	224.43
1008.45	224.40
1008.74	224.34
1009.03	224.27
1009.32	224.28
1009.60	224.27
1009.89	224.28
1010.18	224.24
1010.47	224.28
1010.76	224.25
1011.04	224.28
1011.33	224.29
1011.62	224.28
1011.91	224.27
1012.19	224.24
1012.48	224.25
1012.77	224.26
1013.05	224.32
1013.34	224.33
1013.63	224.35
1013.92	224.39
1014.20	224.37
1014.49	224.34
1014.78	224.36
1015.06	224.35
1015.35	224.34
1015.64	224.35
1015.92	224.37
1016.21	224.39
1016.50	224.35
1016.78	224.38
1017.07	224.36
1017.36	224.33
1017.64	224.31
1017.93	224.35
1018.22	224.35
1018.50	224.34
1018.79	224.34
1019.08	224.33
1019.36	224.34
1019.65	224.35
1019.93	224.39
1020.22	224.40
1020.51	224.47
1020.79	224.48
1021.08	223.92
1021.36	224.19
1021.65	224.52
1021.94	224.92
1022.22	224.50
1022.51	224.54
1022.79	225.15
1023.08	224.30
1023.36	225.30
1023.65	224.52
>>>>>End Processed Spectral Data<<<<<
