SpectraSuite Data File
++++++++++++++++++++++++++++++++++++
Date: Fri Feb 01 14:57:52 EST 2013
User: group
Dark Spectrum Present: No
Reference Spectrum Present: No
Number of Sampled Component Spectra: 1
Spectrometers: USB2E7196
Integration Time (usec): 35000 (USB2E7196)
Spectra Averaged: 100 (USB2E7196)
Boxcar Smoothing: 10 (USB2E7196)
Correct for Electrical Dark: No (USB2E7196)
Strobe/Lamp Enabled: No (USB2E7196)
Correct for Detector Non-linearity: No (USB2E7196)
Correct for Stray Light: No (USB2E7196)
Number of Pixels in Processed Spectrum: 2048
>>>>>Begin Processed Spectral Data<<<<<
339.09	0.00
339.48	215.66
339.86	216.58
340.24	217.60
340.63	219.68
341.01	222.36
341.39	222.59
341.78	223.85
342.16	224.45
342.54	225.29
342.93	213.64
343.31	224.46
343.69	224.97
344.07	225.46
344.46	225.93
344.84	226.31
345.22	226.55
345.60	226.76
345.99	226.94
346.37	227.10
346.75	227.20
347.13	227.27
347.52	227.32
347.90	227.40
348.28	227.41
348.66	227.44
349.05	227.40
349.43	227.44
349.81	227.47
350.19	227.54
350.57	227.58
350.96	227.66
351.34	227.72
351.72	227.81
352.10	227.89
352.48	227.92
352.87	227.95
353.25	227.97
353.63	228.08
354.01	228.16
354.39	228.21
354.77	228.31
355.15	228.40
355.54	228.43
355.92	228.47
356.30	228.56
356.68	228.67
357.06	228.79
357.44	228.85
357.82	228.91
358.20	228.92
358.58	229.00
358.97	229.04
359.35	229.11
359.73	229.18
360.11	229.23
360.49	229.29
360.87	229.33
361.25	229.40
361.63	229.43
362.01	229.46
362.39	229.45
362.77	229.46
363.15	229.47
363.53	229.53
363.91	229.56
364.29	229.53
364.67	229.46
365.05	229.42
365.43	229.43
365.81	229.41
366.19	229.47
366.57	229.51
366.95	229.47
367.33	229.42
367.71	229.37
368.09	229.36
368.47	229.34
368.85	229.31
369.23	229.33
369.61	229.29
369.99	229.27
370.37	229.29
370.75	229.28
371.13	229.21
371.51	229.11
371.89	229.08
372.27	229.04
372.65	229.00
373.03	228.97
373.41	228.89
373.78	228.84
374.16	228.73
374.54	228.63
374.92	228.56
375.30	228.50
375.68	228.40
376.06	228.33
376.44	228.23
376.82	228.16
377.19	228.06
377.57	228.00
377.95	227.90
378.33	227.80
378.71	227.66
379.09	227.58
379.47	227.56
379.84	227.45
380.22	227.37
380.60	227.24
380.98	227.16
381.36	227.07
381.73	226.99
382.11	226.97
382.49	226.91
382.87	226.83
383.25	226.76
383.62	226.83
384.00	226.76
384.38	226.75
384.76	226.74
385.13	226.73
385.51	226.65
385.89	226.55
386.27	226.47
386.64	226.45
387.02	226.42
387.40	226.33
387.78	226.29
388.15	226.26
388.53	226.28
388.91	226.26
389.29	226.21
389.66	226.21
390.04	226.15
390.42	226.12
390.79	226.11
391.17	226.09
391.55	225.98
391.92	225.96
392.30	225.95
392.68	225.92
393.05	225.88
393.43	225.89
393.81	225.93
394.18	225.98
394.56	226.03
394.94	226.06
395.31	226.11
395.69	226.25
396.06	226.27
396.44	226.30
396.82	226.34
397.19	226.45
397.57	226.47
397.95	226.57
398.32	226.65
398.70	226.74
399.07	226.85
399.45	226.93
399.82	227.01
400.20	227.10
400.58	227.18
400.95	227.25
401.33	227.34
401.70	227.51
402.08	227.63
402.45	227.72
402.83	227.87
403.20	227.98
403.58	228.04
403.95	228.20
404.33	228.35
404.71	228.51
405.08	228.73
405.46	228.88
405.83	229.04
406.21	229.18
406.58	229.35
406.96	229.51
407.33	229.72
407.70	229.96
408.08	230.26
408.45	230.50
408.83	230.80
409.20	231.03
409.58	231.23
409.95	231.49
410.33	231.79
410.70	232.04
411.08	232.38
411.45	232.72
411.82	233.04
412.20	233.39
412.57	233.81
412.95	234.10
413.32	234.53
413.69	234.93
414.07	235.38
414.44	235.87
414.82	236.37
415.19	236.94
415.56	237.47
415.94	237.97
416.31	238.63
416.68	239.21
417.06	239.96
417.43	240.63
417.81	241.40
418.18	242.20
418.55	243.06
418.93	243.91
419.30	244.78
419.67	245.74
420.04	246.67
420.42	247.65
420.79	248.83
421.16	249.97
421.54	251.19
421.91	252.43
422.28	253.66
422.66	254.99
423.03	256.27
423.40	257.54
423.77	258.94
424.15	260.33
424.52	261.85
424.89	263.40
425.26	264.95
425.64	266.41
426.01	268.00
426.38	269.64
426.75	271.34
427.13	273.05
427.50	274.85
427.87	276.72
428.24	278.52
428.61	280.25
428.99	282.20
429.36	284.23
429.73	286.25
430.10	288.31
430.47	290.37
430.85	292.48
431.22	294.74
431.59	297.15
431.96	299.40
432.33	301.82
432.70	304.23
433.08	307.02
433.45	309.62
433.82	312.20
434.19	315.08
434.56	317.85
434.93	320.50
435.30	323.12
435.68	326.05
436.05	328.93
436.42	331.74
436.79	334.27
437.16	337.00
437.53	339.85
437.90	342.67
438.27	345.40
438.64	348.27
439.01	350.87
439.38	353.12
439.75	355.27
440.13	357.83
440.50	360.15
440.87	362.03
441.24	364.00
441.61	366.17
441.98	367.68
442.35	369.49
442.72	371.39
443.09	373.18
443.46	374.11
443.83	374.72
444.20	375.23
444.57	376.04
444.94	376.31
445.31	376.67
445.68	377.01
446.05	377.06
446.42	376.62
446.79	376.21
447.16	375.73
447.53	375.42
447.90	374.25
448.27	373.10
448.64	371.48
449.01	370.36
449.37	368.32
449.74	366.37
450.11	364.11
450.48	361.60
450.85	359.07
451.22	356.95
451.59	354.94
451.96	352.99
452.33	350.41
452.70	348.09
453.07	345.25
453.43	342.33
453.80	339.61
454.17	336.96
454.54	334.38
454.91	331.70
455.28	329.03
455.65	326.56
456.02	324.07
456.38	321.91
456.75	319.21
457.12	317.01
457.49	314.78
457.86	312.64
458.23	310.79
458.59	308.79
458.96	306.75
459.33	304.87
459.70	302.99
460.07	301.47
460.43	299.72
460.80	298.09
461.17	296.62
461.54	295.11
461.91	293.67
462.27	292.19
462.64	290.92
463.01	289.53
463.38	288.23
463.74	286.88
464.11	285.74
464.48	284.75
464.85	283.64
465.21	282.77
465.58	281.80
465.95	280.69
466.32	279.74
466.68	278.83
467.05	277.88
467.42	277.02
467.78	276.06
468.15	275.18
468.52	274.50
468.88	273.63
469.25	272.82
469.62	272.19
469.98	271.55
470.35	270.88
470.72	270.31
471.08	269.62
471.45	269.09
471.82	268.52
472.18	267.91
472.55	267.47
472.92	266.93
473.28	266.49
473.65	266.01
474.02	265.54
474.38	265.15
474.75	264.83
475.11	264.43
475.48	264.16
475.85	263.94
476.21	263.70
476.58	263.49
476.94	263.36
477.31	263.16
477.67	263.00
478.04	262.89
478.41	262.76
478.77	262.80
479.14	262.73
479.50	262.70
479.87	262.73
480.23	262.78
480.60	262.85
480.96	262.91
481.33	263.15
481.69	263.35
482.06	263.55
482.42	263.73
482.79	263.99
483.15	264.29
483.52	264.64
483.88	265.00
484.25	265.40
484.61	265.82
484.98	266.24
485.34	266.81
485.71	267.39
486.07	268.02
486.44	268.55
486.80	269.26
487.17	270.00
487.53	270.80
487.90	271.65
488.26	272.56
488.62	273.56
488.99	274.46
489.35	275.52
489.72	276.60
490.08	277.80
490.44	279.04
490.81	280.35
491.17	281.70
491.54	283.13
491.90	284.69
492.26	286.33
492.63	288.09
492.99	289.84
493.36	291.71
493.72	293.74
494.08	295.82
494.45	298.05
494.81	300.43
495.17	302.84
495.54	305.39
495.90	308.08
496.26	310.86
496.63	313.85
496.99	316.92
497.35	320.17
497.72	323.55
498.08	327.07
498.44	330.75
498.80	334.66
499.17	338.67
499.53	342.76
499.89	347.11
500.26	351.59
500.62	356.24
500.98	361.16
501.34	366.25
501.71	371.59
502.07	376.98
502.43	382.60
502.79	388.43
503.16	394.51
503.52	400.77
503.88	407.13
504.24	413.76
504.60	420.64
504.97	427.73
505.33	435.01
505.69	442.70
506.05	450.44
506.41	458.28
506.78	466.45
507.14	474.91
507.50	483.56
507.86	492.61
508.22	501.76
508.59	510.92
508.95	520.46
509.31	530.18
509.67	540.25
510.03	550.49
510.39	561.06
510.75	571.75
511.12	582.66
511.48	594.00
511.84	605.43
512.20	616.94
512.56	628.87
512.92	641.10
513.28	653.50
513.64	665.97
514.00	678.64
514.37	691.53
514.73	704.51
515.09	717.55
515.45	730.77
515.81	744.37
516.17	758.42
516.53	772.56
516.89	786.79
517.25	800.98
517.61	815.48
517.97	829.87
518.33	844.42
518.69	859.22
519.05	874.24
519.41	889.47
519.77	905.11
520.13	920.66
520.49	936.05
520.85	951.45
521.21	967.22
521.57	983.62
521.93	999.48
522.29	1016.00
522.65	1032.31
523.01	1048.59
523.37	1064.73
523.73	1081.05
524.09	1097.03
524.45	1113.46
524.81	1130.19
525.17	1147.07
525.53	1164.04
525.89	1180.91
526.25	1197.77
526.61	1214.10
526.97	1230.86
527.33	1247.32
527.68	1263.98
528.04	1280.55
528.40	1297.30
528.76	1314.39
529.12	1330.88
529.48	1347.93
529.84	1364.01
530.20	1380.81
530.56	1397.98
530.91	1415.39
531.27	1432.09
531.63	1448.78
531.99	1465.44
532.35	1481.44
532.71	1497.31
533.07	1513.67
533.42	1529.77
533.78	1545.81
534.14	1562.32
534.50	1577.63
534.86	1593.57
535.21	1608.71
535.57	1624.73
535.93	1640.24
536.29	1655.22
536.65	1670.52
537.00	1685.32
537.36	1700.83
537.72	1715.44
538.08	1729.88
538.44	1743.84
538.79	1757.78
539.15	1771.63
539.51	1785.48
539.87	1799.97
540.22	1813.81
540.58	1827.71
540.94	1841.10
541.29	1854.21
541.65	1867.06
542.01	1880.52
542.37	1892.90
542.72	1905.55
543.08	1917.37
543.44	1929.84
543.79	1941.00
544.15	1952.04
544.51	1963.53
544.87	1974.52
545.22	1985.21
545.58	1995.41
545.94	2005.10
546.29	2015.13
546.65	2024.89
547.01	2033.99
547.36	2042.79
547.72	2051.23
548.07	2059.10
548.43	2067.13
548.79	2075.20
549.14	2082.52
549.50	2089.85
549.86	2097.64
550.21	2104.94
550.57	2112.13
550.92	2118.74
551.28	2125.94
551.64	2132.96
551.99	2139.57
552.35	2145.54
552.70	2151.67
553.06	2157.75
553.41	2164.18
553.77	2170.10
554.13	2176.25
554.48	2182.45
554.84	2187.69
555.19	2193.06
555.55	2198.11
555.90	2202.58
556.26	2207.38
556.61	2212.21
556.97	2216.45
557.32	2220.51
557.68	2224.46
558.03	2228.82
558.39	2232.41
558.74	2236.85
559.10	2240.70
559.45	2244.33
559.81	2248.88
560.16	2252.76
560.52	2255.90
560.87	2259.36
561.23	2262.00
561.58	2264.93
561.94	2267.40
562.29	2269.83
562.64	2272.42
563.00	2274.96
563.35	2278.51
563.71	2281.52
564.06	2284.55
564.42	2287.30
564.77	2289.70
565.12	2291.87
565.48	2293.58
565.83	2295.24
566.19	2296.45
566.54	2297.27
566.89	2298.14
567.25	2298.45
567.60	2299.73
567.96	2301.16
568.31	2301.71
568.66	2302.58
569.02	2302.88
569.37	2303.08
569.72	2303.67
570.08	2303.58
570.43	2303.53
570.78	2302.65
571.14	2301.01
571.49	2299.56
571.84	2299.02
572.20	2297.64
572.55	2296.51
572.90	2294.75
573.26	2293.28
573.61	2291.40
573.96	2289.37
574.31	2286.38
574.67	2283.20
575.02	2279.27
575.37	2275.75
575.72	2271.89
576.08	2268.55
576.43	2265.17
576.78	2261.37
577.13	2258.13
577.49	2254.91
577.84	2251.17
578.19	2247.39
578.54	2243.58
578.90	2239.10
579.25	2233.42
579.60	2228.27
579.95	2223.06
580.30	2217.93
580.66	2212.54
581.01	2207.46
581.36	2202.45
581.71	2198.07
582.06	2193.46
582.42	2188.90
582.77	2183.54
583.12	2178.69
583.47	2173.53
583.82	2168.25
584.17	2162.84
584.53	2157.12
584.88	2151.39
585.23	2145.54
585.58	2139.85
585.93	2134.17
586.28	2129.32
586.63	2124.24
586.98	2119.09
587.34	2114.25
587.69	2109.25
588.04	2103.89
588.39	2098.15
588.74	2091.66
589.09	2085.41
589.44	2078.42
589.79	2072.23
590.14	2066.52
590.49	2059.91
590.84	2053.61
591.19	2047.50
591.54	2040.88
591.89	2033.40
592.25	2026.37
592.60	2018.99
592.95	2011.31
593.30	2003.78
593.65	1996.00
594.00	1988.83
594.35	1981.49
594.70	1973.33
595.05	1965.82
595.40	1958.48
595.75	1950.86
596.10	1944.41
596.45	1937.44
596.80	1931.09
597.15	1924.30
597.50	1917.01
597.85	1910.54
598.19	1903.81
598.54	1896.69
598.89	1890.03
599.24	1884.16
599.59	1877.45
599.94	1871.23
600.29	1864.85
600.64	1858.43
600.99	1851.01
601.34	1843.97
601.69	1836.97
602.04	1830.17
602.39	1822.97
602.74	1816.11
603.08	1809.30
603.43	1802.59
603.78	1795.38
604.13	1788.30
604.48	1781.08
604.83	1774.28
605.18	1767.19
605.53	1759.20
605.87	1751.26
606.22	1743.97
606.57	1736.03
606.92	1728.73
607.27	1721.48
607.62	1714.58
607.96	1707.20
608.31	1700.58
608.66	1693.08
609.01	1685.61
609.36	1677.96
609.70	1669.90
610.05	1661.80
610.40	1654.26
610.75	1645.97
611.10	1638.28
611.44	1629.93
611.79	1621.95
612.14	1613.32
612.49	1604.33
612.83	1596.03
613.18	1587.92
613.53	1579.97
613.88	1571.42
614.22	1563.13
614.57	1554.65
614.92	1546.57
615.27	1538.97
615.61	1530.68
615.96	1522.66
616.31	1514.90
616.65	1507.64
617.00	1500.13
617.35	1492.48
617.70	1484.03
618.04	1475.49
618.39	1467.35
618.74	1459.73
619.08	1451.47
619.43	1443.90
619.78	1436.94
620.12	1429.66
620.47	1421.98
620.82	1413.79
621.16	1406.35
621.51	1398.82
621.85	1391.25
622.20	1382.89
622.55	1374.75
622.89	1367.01
623.24	1359.51
623.59	1352.35
623.93	1344.78
624.28	1337.62
624.62	1330.17
624.97	1323.12
625.32	1316.46
625.66	1309.49
626.01	1302.27
626.35	1294.83
626.70	1287.22
627.04	1279.45
627.39	1271.76
627.73	1264.54
628.08	1257.60
628.43	1250.30
628.77	1242.92
629.12	1235.38
629.46	1228.24
629.81	1220.86
630.15	1213.63
630.50	1206.18
630.84	1197.92
631.19	1190.14
631.53	1182.67
631.88	1175.28
632.22	1167.69
632.57	1160.43
632.91	1152.94
633.26	1145.68
633.60	1138.46
633.95	1131.39
634.29	1124.55
634.64	1117.92
634.98	1110.63
635.32	1103.67
635.67	1097.25
636.01	1090.75
636.36	1083.96
636.70	1077.56
637.05	1071.07
637.39	1064.73
637.73	1058.39
638.08	1052.65
638.42	1046.72
638.77	1040.34
639.11	1033.74
639.45	1027.41
639.80	1020.78
640.14	1014.41
640.49	1007.93
640.83	1001.73
641.17	995.47
641.52	989.16
641.86	982.90
642.20	977.11
642.55	970.85
642.89	964.39
643.23	957.90
643.58	952.20
643.92	945.94
644.26	939.84
644.61	933.78
644.95	927.67
645.29	921.05
645.64	914.36
645.98	908.02
646.32	902.25
646.66	896.23
647.01	890.50
647.35	884.86
647.69	878.98
648.04	873.46
648.38	867.73
648.72	861.73
649.06	855.63
649.41	849.73
649.75	843.70
650.09	837.82
650.43	832.03
650.78	825.85
651.12	819.98
651.46	814.21
651.80	808.51
652.14	803.17
652.49	797.88
652.83	792.64
653.17	787.01
653.51	781.27
653.85	775.91
654.20	770.19
654.54	764.18
654.88	758.55
655.22	752.66
655.56	747.04
655.90	741.68
656.25	736.44
656.59	731.16
656.93	726.08
657.27	720.95
657.61	715.55
657.95	710.51
658.29	705.47
658.64	700.33
658.98	694.99
659.32	689.54
659.66	684.31
660.00	679.16
660.34	674.22
660.68	669.36
661.02	664.38
661.36	659.81
661.70	655.40
662.05	651.01
662.39	646.75
662.73	642.30
663.07	637.88
663.41	633.45
663.75	628.90
664.09	624.39
664.43	620.08
664.77	616.02
665.11	611.83
665.45	607.74
665.79	603.67
666.13	599.67
666.47	595.62
666.81	591.53
667.15	587.39
667.49	583.61
667.83	579.86
668.17	575.89
668.51	571.84
668.85	567.82
669.19	564.05
669.53	560.20
669.87	556.39
670.21	552.74
670.55	549.19
670.89	545.89
671.23	542.52
671.57	538.98
671.91	535.48
672.25	532.04
672.58	528.54
672.92	525.26
673.26	522.12
673.60	519.04
673.94	515.95
674.28	513.08
674.62	510.14
674.96	507.05
675.30	504.21
675.64	501.26
675.97	498.52
676.31	495.64
676.65	492.75
676.99	489.99
677.33	487.18
677.67	484.39
678.01	481.32
678.34	478.30
678.68	475.46
679.02	472.63
679.36	469.89
679.70	467.17
680.04	464.36
680.37	461.43
680.71	458.69
681.05	456.10
681.39	453.44
681.73	450.77
682.06	448.22
682.40	445.69
682.74	443.23
683.08	440.72
683.42	438.20
683.75	435.75
684.09	433.28
684.43	430.83
684.77	428.39
685.10	426.07
685.44	423.83
685.78	421.60
686.12	419.43
686.45	417.15
686.79	414.88
687.13	412.70
687.46	410.65
687.80	408.52
688.14	406.33
688.48	404.29
688.81	402.06
689.15	399.98
689.49	397.86
689.82	395.81
690.16	393.74
690.50	391.80
690.83	389.85
691.17	387.89
691.51	386.00
691.84	384.15
692.18	382.20
692.52	380.24
692.85	378.34
693.19	376.43
693.52	374.63
693.86	372.84
694.20	371.08
694.53	369.23
694.87	367.41
695.21	365.64
695.54	363.78
695.88	362.08
696.21	360.36
696.55	358.67
696.88	356.99
697.22	355.39
697.56	353.76
697.89	352.07
698.23	350.43
698.56	348.80
698.90	347.18
699.23	345.59
699.57	344.01
699.90	342.44
700.24	340.89
700.58	339.36
700.91	337.87
701.25	336.43
701.58	335.06
701.92	333.67
702.25	332.33
702.59	330.98
702.92	329.68
703.26	328.36
703.59	327.11
703.93	325.90
704.26	324.63
704.60	323.35
704.93	322.12
705.26	320.94
705.60	319.84
705.93	318.71
706.27	317.66
706.60	316.64
706.94	315.57
707.27	314.46
707.61	313.38
707.94	312.37
708.27	311.32
708.61	310.29
708.94	309.32
709.28	308.32
709.61	307.34
709.94	306.40
710.28	305.39
710.61	304.41
710.95	303.36
711.28	302.47
711.61	301.52
711.95	300.61
712.28	299.64
712.61	298.61
712.95	297.69
713.28	296.83
713.61	295.95
713.95	295.08
714.28	294.31
714.61	293.46
714.95	292.63
715.28	291.76
715.61	290.86
715.95	290.00
716.28	289.13
716.61	288.30
716.95	287.47
717.28	286.70
717.61	285.95
717.94	285.22
718.28	284.40
718.61	283.71
718.94	283.02
719.27	282.38
719.61	281.77
719.94	281.12
720.27	280.42
720.60	279.76
720.94	279.13
721.27	278.53
721.60	277.96
721.93	277.35
722.27	276.83
722.60	276.30
722.93	275.75
723.26	275.25
723.59	274.70
723.93	274.18
724.26	273.65
724.59	273.10
724.92	272.63
725.25	272.15
725.59	271.62
725.92	271.11
726.25	270.64
726.58	270.19
726.91	269.69
727.24	269.21
727.57	268.76
727.91	268.26
728.24	267.81
728.57	267.34
728.90	266.91
729.23	266.40
729.56	265.97
729.89	265.50
730.22	265.04
730.55	264.60
730.89	264.16
731.22	263.75
731.55	263.34
731.88	262.90
732.21	262.44
732.54	262.04
732.87	261.61
733.20	261.16
733.53	260.77
733.86	260.41
734.19	260.02
734.52	259.66
734.85	259.36
735.18	258.96
735.51	258.60
735.84	258.21
736.17	257.88
736.50	257.52
736.83	257.27
737.16	256.92
737.49	256.63
737.82	256.26
738.15	255.92
738.48	255.61
738.81	255.27
739.14	255.00
739.47	254.66
739.80	254.36
740.13	254.06
740.46	253.71
740.79	253.36
741.12	253.08
741.45	252.74
741.78	252.39
742.11	252.10
742.44	251.78
742.77	251.51
743.10	251.23
743.43	250.91
743.75	250.54
744.08	250.41
744.41	250.10
744.74	249.85
745.07	249.57
745.40	249.30
745.73	249.11
746.06	248.80
746.39	248.56
746.71	248.32
747.04	248.03
747.37	247.76
747.70	247.53
748.03	247.25
748.36	247.02
748.68	246.77
749.01	246.51
749.34	246.29
749.67	246.04
750.00	245.80
750.33	245.66
750.65	245.43
750.98	245.10
751.31	244.87
751.64	244.64
751.97	244.49
752.29	244.26
752.62	243.98
752.95	243.76
753.28	243.54
753.60	243.32
753.93	243.16
754.26	242.97
754.59	242.75
754.91	242.52
755.24	242.32
755.57	242.12
755.90	241.91
756.22	241.68
756.55	241.49
756.88	241.30
757.20	241.07
757.53	240.87
757.86	240.71
758.19	240.54
758.51	240.37
758.84	240.16
759.17	240.01
759.49	239.85
759.82	239.74
760.15	239.59
760.47	239.44
760.80	239.29
761.13	239.16
761.45	239.02
761.78	238.93
762.11	238.83
762.43	238.74
762.76	238.60
763.08	238.52
763.41	238.41
763.74	238.25
764.06	238.11
764.39	238.00
764.71	237.87
765.04	237.73
765.37	237.63
765.69	237.52
766.02	237.40
766.34	237.27
766.67	237.13
767.00	237.05
767.32	237.00
767.65	236.93
767.97	236.84
768.30	236.72
768.62	236.60
768.95	236.42
769.27	236.30
769.60	236.23
769.92	236.10
770.25	235.97
770.57	235.86
770.90	235.72
771.22	235.61
771.55	235.49
771.87	235.42
772.20	235.29
772.52	235.26
772.85	235.26
773.17	235.17
773.50	235.05
773.82	234.95
774.15	234.78
774.47	234.64
774.80	234.53
775.12	234.46
775.45	234.37
775.77	234.31
776.09	234.22
776.42	234.12
776.74	234.08
777.07	234.00
777.39	233.93
777.72	233.89
778.04	233.79
778.36	233.71
778.69	233.62
779.01	233.57
779.33	233.41
779.66	233.25
779.98	233.18
780.31	233.13
780.63	233.07
780.95	233.03
781.28	232.94
781.60	232.90
781.92	232.83
782.25	232.77
782.57	232.70
782.89	232.63
783.22	232.53
783.54	232.42
783.86	232.34
784.19	232.25
784.51	232.22
784.83	232.19
785.16	232.14
785.48	232.06
785.80	232.01
786.12	231.94
786.45	231.86
786.77	231.82
787.09	231.75
787.42	231.68
787.74	231.66
788.06	231.64
788.38	231.56
788.71	231.51
789.03	231.46
789.35	231.42
789.67	231.37
789.99	231.36
790.32	231.31
790.64	231.31
790.96	231.34
791.28	231.26
791.61	231.22
791.93	231.18
792.25	231.16
792.57	231.20
792.89	231.17
793.21	231.16
793.54	231.11
793.86	231.09
794.18	231.04
794.50	230.98
794.82	230.91
795.14	230.90
795.47	230.86
795.79	230.84
796.11	230.80
796.43	230.79
796.75	230.77
797.07	230.79
797.39	230.76
797.71	230.69
798.04	230.66
798.36	230.62
798.68	230.61
799.00	230.62
799.32	230.55
799.64	230.52
799.96	230.49
800.28	230.50
800.60	230.48
800.92	230.48
801.24	230.43
801.56	230.40
801.89	230.35
802.21	230.33
802.53	230.30
802.85	230.30
803.17	230.31
803.49	230.27
803.81	230.22
804.13	230.19
804.45	230.16
804.77	230.16
805.09	230.15
805.41	230.10
805.73	230.04
806.05	229.98
806.37	229.95
806.69	229.93
807.01	229.89
807.33	229.86
807.65	229.81
807.97	229.84
808.28	229.83
808.60	229.81
808.92	229.79
809.24	229.82
809.56	229.77
809.88	229.69
810.20	229.67
810.52	229.65
810.84	229.61
811.16	229.57
811.48	229.51
811.80	229.49
812.12	229.49
812.43	229.46
812.75	229.43
813.07	229.41
813.39	229.41
813.71	229.40
814.03	229.39
814.35	229.36
814.67	229.31
814.98	229.25
815.30	229.24
815.62	229.22
815.94	229.15
816.26	229.20
816.58	229.18
816.89	229.15
817.21	229.13
817.53	229.12
817.85	229.07
818.17	229.06
818.48	229.01
818.80	228.99
819.12	228.96
819.44	228.93
819.76	228.89
820.07	228.85
820.39	228.77
820.71	228.71
821.03	228.67
821.34	228.65
821.66	228.64
821.98	228.62
822.30	228.58
822.61	228.59
822.93	228.51
823.25	228.47
823.57	228.41
823.88	228.40
824.20	228.37
824.52	228.37
824.83	228.38
825.15	228.33
825.47	228.32
825.79	228.28
826.10	228.27
826.42	228.24
826.74	228.21
827.05	228.19
827.37	228.18
827.69	228.17
828.00	228.13
828.32	228.11
828.64	228.10
828.95	228.13
829.27	228.12
829.58	228.08
829.90	228.13
830.22	228.16
830.53	228.12
830.85	228.10
831.17	228.09
831.48	228.03
831.80	228.05
832.11	228.02
832.43	228.00
832.75	227.97
833.06	228.01
833.38	227.97
833.69	228.00
834.01	227.96
834.32	227.97
834.64	227.95
834.96	227.97
835.27	227.92
835.59	227.86
835.90	227.82
836.22	227.82
836.53	227.76
836.85	227.72
837.16	227.81
837.48	227.80
837.79	227.80
838.11	227.83
838.42	227.81
838.74	227.86
839.05	227.87
839.37	227.90
839.68	227.85
840.00	227.88
840.31	227.88
840.63	227.91
840.94	227.90
841.26	227.91
841.57	227.88
841.88	227.92
842.20	227.96
842.51	227.95
842.83	227.95
843.14	228.08
843.46	228.09
843.77	228.04
844.08	228.04
844.40	228.06
844.71	228.07
845.03	228.08
845.34	228.08
845.65	228.07
845.97	228.06
846.28	228.09
846.60	228.12
846.91	228.13
847.22	228.14
847.54	228.16
847.85	228.14
848.16	228.17
848.48	228.15
848.79	228.19
849.10	228.17
849.42	228.16
849.73	228.06
850.04	228.05
850.36	228.03
850.67	228.01
850.98	228.02
851.30	228.02
851.61	228.01
851.92	228.00
852.23	228.02
852.55	227.99
852.86	227.98
853.17	227.96
853.49	227.95
853.80	227.98
854.11	227.96
854.42	228.00
854.74	227.98
855.05	227.97
855.36	227.87
855.67	227.89
855.99	227.93
856.30	228.04
856.61	228.03
856.92	228.00
857.23	228.03
857.55	227.97
857.86	227.96
858.17	227.95
858.48	227.90
858.79	227.89
859.11	227.90
859.42	227.88
859.73	227.85
860.04	227.85
860.35	227.81
860.66	227.79
860.98	227.75
861.29	227.72
861.60	227.71
861.91	227.74
862.22	227.71
862.53	227.65
862.84	227.53
863.16	227.55
863.47	227.54
863.78	227.50
864.09	227.53
864.40	227.51
864.71	227.51
865.02	227.51
865.33	227.48
865.64	227.47
865.95	227.45
866.27	227.49
866.58	227.46
866.89	227.45
867.20	227.41
867.51	227.45
867.82	227.46
868.13	227.46
868.44	227.43
868.75	227.44
869.06	227.44
869.37	227.44
869.68	227.41
869.99	227.40
870.30	227.39
870.61	227.37
870.92	227.33
871.23	227.32
871.54	227.33
871.85	227.35
872.16	227.34
872.47	227.34
872.78	227.27
873.09	227.28
873.40	227.27
873.71	227.32
874.02	227.29
874.33	227.31
874.64	227.28
874.95	227.28
875.26	227.26
875.56	227.27
875.87	227.26
876.18	227.26
876.49	227.35
876.80	227.38
877.11	227.36
877.42	227.40
877.73	227.38
878.04	227.34
878.35	227.35
878.66	227.36
878.96	227.39
879.27	227.42
879.58	227.41
879.89	227.39
880.20	227.38
880.51	227.37
880.82	227.32
881.12	227.34
881.43	227.33
881.74	227.34
882.05	227.32
882.36	227.36
882.67	227.36
882.97	227.26
883.28	227.25
883.59	227.26
883.90	227.27
884.21	227.30
884.51	227.32
884.82	227.29
885.13	227.30
885.44	227.29
885.74	227.27
886.05	227.26
886.36	227.31
886.67	227.28
886.98	227.31
887.28	227.36
887.59	227.34
887.90	227.34
888.20	227.33
888.51	227.34
888.82	227.31
889.13	227.32
889.43	227.41
889.74	227.40
890.05	227.42
890.35	227.42
890.66	227.40
890.97	227.40
891.28	227.43
891.58	227.44
891.89	227.45
892.20	227.43
892.50	227.46
892.81	227.44
893.12	227.45
893.42	227.43
893.73	227.42
894.04	227.43
894.34	227.47
894.65	227.51
894.95	227.50
895.26	227.53
895.57	227.55
895.87	227.46
896.18	227.48
896.48	227.48
896.79	227.47
897.10	227.48
897.40	227.49
897.71	227.46
898.01	227.41
898.32	227.41
898.63	227.43
898.93	227.45
899.24	227.46
899.54	227.47
899.85	227.42
900.15	227.45
900.46	227.46
900.76	227.43
901.07	227.40
901.38	227.38
901.68	227.36
901.99	227.33
902.29	227.34
902.60	227.32
902.90	227.28
903.21	227.28
903.51	227.28
903.82	227.28
904.12	227.30
904.43	227.33
904.73	227.30
905.03	227.32
905.34	227.34
905.64	227.30
905.95	227.31
906.25	227.35
906.56	227.31
906.86	227.28
907.17	227.30
907.47	227.30
907.77	227.30
908.08	227.27
908.38	227.26
908.69	227.28
908.99	227.34
909.30	227.34
909.60	227.33
909.90	227.31
910.21	227.28
910.51	227.26
910.81	227.26
911.12	227.25
911.42	227.23
911.73	227.16
912.03	227.18
912.33	227.21
912.64	227.19
912.94	227.16
913.24	227.12
913.55	227.08
913.85	227.07
914.15	227.07
914.46	227.07
914.76	227.09
915.06	227.06
915.37	226.99
915.67	226.99
915.97	226.99
916.27	226.98
916.58	227.01
916.88	226.97
917.18	226.92
917.49	227.03
917.79	227.04
918.09	227.02
918.39	227.03
918.70	226.98
919.00	226.99
919.30	227.04
919.60	227.05
919.91	227.04
920.21	227.06
920.51	227.05
920.81	227.07
921.12	227.06
921.42	227.09
921.72	227.10
922.02	227.07
922.32	227.11
922.63	227.12
922.93	227.14
923.23	227.18
923.53	227.22
923.83	227.14
924.13	227.13
924.44	227.14
924.74	227.17
925.04	227.18
925.34	227.18
925.64	227.15
925.94	227.16
926.24	227.21
926.55	227.22
926.85	227.24
927.15	227.20
927.45	227.20
927.75	227.18
928.05	227.18
928.35	227.20
928.65	227.20
928.95	227.20
929.26	227.16
929.56	227.17
929.86	227.18
930.16	227.16
930.46	227.15
930.76	227.18
931.06	227.14
931.36	227.14
931.66	227.12
931.96	227.13
932.26	227.12
932.56	227.08
932.86	227.10
933.16	227.10
933.46	227.10
933.76	227.11
934.06	227.14
934.36	227.18
934.66	227.21
934.96	227.21
935.26	227.22
935.56	227.22
935.86	227.23
936.16	227.21
936.46	227.20
936.76	227.19
937.06	227.13
937.36	227.15
937.66	227.15
937.96	227.17
938.26	227.14
938.56	227.16
938.86	227.15
939.16	227.17
939.46	227.20
939.76	227.21
940.06	227.20
940.35	227.18
940.65	227.11
940.95	227.10
941.25	227.07
941.55	227.09
941.85	227.12
942.15	227.13
942.45	227.14
942.75	227.13
943.04	227.18
943.34	227.22
943.64	227.21
943.94	227.21
944.24	227.24
944.54	227.27
944.84	227.29
945.13	227.26
945.43	227.23
945.73	227.21
946.03	227.18
946.33	227.17
946.62	227.16
946.92	227.15
947.22	227.17
947.52	227.18
947.82	227.17
948.11	227.14
948.41	227.08
948.71	227.06
949.01	227.11
949.31	227.10
949.60	227.09
949.90	227.11
950.20	227.12
950.50	227.10
950.79	227.08
951.09	227.09
951.39	227.11
951.69	227.09
951.98	227.12
952.28	227.14
952.58	227.15
952.87	227.16
953.17	227.20
953.47	227.17
953.76	227.17
954.06	227.19
954.36	227.17
954.66	227.19
954.95	227.24
955.25	227.24
955.55	227.24
955.84	227.23
956.14	227.22
956.44	227.24
956.73	227.22
957.03	227.25
957.32	227.26
957.62	227.25
957.92	227.27
958.21	227.28
958.51	227.39
958.81	227.39
959.10	227.39
959.40	227.40
959.69	227.40
959.99	227.39
960.29	227.40
960.58	227.40
960.88	227.45
961.17	227.41
961.47	227.39
961.76	227.36
962.06	227.37
962.36	227.36
962.65	227.36
962.95	227.34
963.24	227.34
963.54	227.32
963.83	227.34
964.13	227.32
964.42	227.28
964.72	227.22
965.01	227.27
965.31	227.23
965.60	227.22
965.90	227.27
966.19	227.25
966.49	227.24
966.78	227.22
967.08	227.21
967.37	227.22
967.67	227.21
967.96	227.22
968.26	227.24
968.55	227.24
968.85	227.21
969.14	227.25
969.43	227.22
969.73	227.25
970.02	227.21
970.32	227.20
970.61	227.21
970.91	227.13
971.20	227.07
971.49	227.06
971.79	227.06
972.08	227.00
972.38	227.03
972.67	227.01
972.96	227.04
973.26	226.98
973.55	226.98
973.85	226.99
974.14	227.00
974.43	226.98
974.73	226.94
975.02	226.95
975.31	226.91
975.61	226.90
975.90	226.83
976.19	226.84
976.49	226.89
976.78	226.88
977.07	226.91
977.37	226.91
977.66	226.93
977.95	226.91
978.24	226.91
978.54	226.88
978.83	226.88
979.12	226.86
979.42	226.86
979.71	226.87
980.00	226.85
980.29	226.85
980.59	226.83
980.88	226.87
981.17	226.83
981.46	226.84
981.76	226.85
982.05	226.89
982.34	226.89
982.63	226.88
982.93	226.89
983.22	226.93
983.51	226.94
983.80	226.97
984.09	226.98
984.39	226.97
984.68	226.99
984.97	227.00
985.26	227.00
985.55	227.05
985.85	227.04
986.14	227.05
986.43	227.08
986.72	227.09
987.01	227.07
987.30	227.09
987.59	227.11
987.89	227.13
988.18	227.12
988.47	227.12
988.76	227.12
989.05	227.10
989.34	227.07
989.63	227.12
989.92	227.13
990.22	227.12
990.51	227.14
990.80	227.14
991.09	227.14
991.38	227.17
991.67	227.15
991.96	227.13
992.25	227.13
992.54	227.07
992.83	227.07
993.12	227.09
993.41	227.10
993.70	227.13
993.99	227.14
994.28	227.16
994.58	227.18
994.87	227.16
995.16	227.17
995.45	227.18
995.74	227.10
996.03	227.08
996.32	227.11
996.61	227.13
996.90	227.13
997.19	227.13
997.48	227.13
997.77	227.10
998.06	227.11
998.34	227.13
998.63	227.17
998.92	227.15
999.21	227.14
999.50	227.17
999.79	227.12
1000.08	227.13
1000.37	227.11
1000.66	227.11
1000.95	227.13
1001.24	227.14
1001.53	227.14
1001.82	227.17
1002.11	227.15
1002.40	227.14
1002.68	227.12
1002.97	227.16
1003.26	227.16
1003.55	227.15
1003.84	227.18
1004.13	227.20
1004.42	227.20
1004.71	227.19
1004.99	227.21
1005.28	227.25
1005.57	227.24
1005.86	227.23
1006.15	227.20
1006.44	227.19
1006.72	227.15
1007.01	227.11
1007.30	227.06
1007.59	227.08
1007.88	227.04
1008.17	227.05
1008.45	227.01
1008.74	226.98
1009.03	226.96
1009.32	226.92
1009.60	226.91
1009.89	226.90
1010.18	226.84
1010.47	226.81
1010.76	226.79
1011.04	226.76
1011.33	226.75
1011.62	226.74
1011.91	226.74
1012.19	226.73
1012.48	226.74
1012.77	226.75
1013.05	226.82
1013.34	226.86
1013.63	226.86
1013.92	226.87
1014.20	226.86
1014.49	226.84
1014.78	226.88
1015.06	226.83
1015.35	226.86
1015.64	226.88
1015.92	226.87
1016.21	226.90
1016.50	226.92
1016.78	226.90
1017.07	226.90
1017.36	226.87
1017.64	226.87
1017.93	226.86
1018.22	226.88
1018.50	226.85
1018.79	226.85
1019.08	226.79
1019.36	226.78
1019.65	226.75
1019.93	226.77
1020.22	226.78
1020.51	226.87
1020.79	226.85
1021.08	226.81
1021.36	226.59
1021.65	226.89
1021.94	226.67
1022.22	226.73
1022.51	226.60
1022.79	227.20
1023.08	226.86
1023.36	228.33
1023.65	226.66
>>>>>End Processed Spectral Data<<<<<
