SpectraSuite Data File
++++++++++++++++++++++++++++++++++++
Date: Fri Feb 01 15:14:47 EST 2013
User: group
Dark Spectrum Present: No
Reference Spectrum Present: No
Number of Sampled Component Spectra: 1
Spectrometers: USB2E7196
Integration Time (usec): 35000 (USB2E7196)
Spectra Averaged: 100 (USB2E7196)
Boxcar Smoothing: 10 (USB2E7196)
Correct for Electrical Dark: No (USB2E7196)
Strobe/Lamp Enabled: No (USB2E7196)
Correct for Detector Non-linearity: No (USB2E7196)
Correct for Stray Light: No (USB2E7196)
Number of Pixels in Processed Spectrum: 2048
>>>>>Begin Processed Spectral Data<<<<<
339.09	0.00
339.48	215.61
339.86	217.11
340.24	217.79
340.63	219.67
341.01	222.03
341.39	221.84
341.78	224.09
342.16	224.74
342.54	225.00
342.93	213.59
343.31	224.36
343.69	224.90
344.07	225.35
344.46	225.81
344.84	226.16
345.22	226.42
345.60	226.66
345.99	226.82
346.37	226.95
346.75	227.06
347.13	227.12
347.52	227.16
347.90	227.23
348.28	227.20
348.66	227.26
349.05	227.25
349.43	227.30
349.81	227.35
350.19	227.36
350.57	227.42
350.96	227.49
351.34	227.59
351.72	227.64
352.10	227.72
352.48	227.78
352.87	227.83
353.25	227.89
353.63	227.96
354.01	228.01
354.39	228.07
354.77	228.13
355.15	228.25
355.54	228.29
355.92	228.34
356.30	228.45
356.68	228.54
357.06	228.62
357.44	228.66
357.82	228.68
358.20	228.80
358.58	228.88
358.97	228.92
359.35	229.01
359.73	229.10
360.11	229.13
360.49	229.17
360.87	229.22
361.25	229.27
361.63	229.36
362.01	229.39
362.39	229.44
362.77	229.51
363.15	229.53
363.53	229.57
363.91	229.57
364.29	229.59
364.67	229.53
365.05	229.52
365.43	229.54
365.81	229.58
366.19	229.56
366.57	229.59
366.95	229.61
367.33	229.60
367.71	229.58
368.09	229.60
368.47	229.59
368.85	229.59
369.23	229.59
369.61	229.51
369.99	229.55
370.37	229.53
370.75	229.52
371.13	229.49
371.51	229.45
371.89	229.40
372.27	229.36
372.65	229.32
373.03	229.27
373.41	229.20
373.78	229.13
374.16	229.05
374.54	228.98
374.92	228.92
375.30	228.80
375.68	228.71
376.06	228.67
376.44	228.57
376.82	228.51
377.19	228.40
377.57	228.34
377.95	228.22
378.33	228.12
378.71	227.99
379.09	227.92
379.47	227.84
379.84	227.75
380.22	227.65
380.60	227.57
380.98	227.48
381.36	227.41
381.73	227.34
382.11	227.31
382.49	227.21
382.87	227.13
383.25	227.07
383.62	227.14
384.00	227.06
384.38	227.00
384.76	226.96
385.13	226.94
385.51	226.92
385.89	226.85
386.27	226.81
386.64	226.78
387.02	226.70
387.40	226.68
387.78	226.65
388.15	226.64
388.53	226.60
388.91	226.60
389.29	226.56
389.66	226.54
390.04	226.50
390.42	226.50
390.79	226.47
391.17	226.46
391.55	226.33
391.92	226.30
392.30	226.32
392.68	226.28
393.05	226.28
393.43	226.28
393.81	226.26
394.18	226.25
394.56	226.28
394.94	226.28
395.31	226.27
395.69	226.34
396.06	226.36
396.44	226.37
396.82	226.39
397.19	226.49
397.57	226.54
397.95	226.60
398.32	226.63
398.70	226.70
399.07	226.79
399.45	226.87
399.82	226.94
400.20	227.00
400.58	227.11
400.95	227.16
401.33	227.27
401.70	227.45
402.08	227.57
402.45	227.66
402.83	227.80
403.20	227.96
403.58	228.05
403.95	228.22
404.33	228.43
404.71	228.56
405.08	228.75
405.46	228.89
405.83	229.07
406.21	229.27
406.58	229.44
406.96	229.62
407.33	229.81
407.70	230.02
408.08	230.29
408.45	230.52
408.83	230.76
409.20	230.97
409.58	231.17
409.95	231.44
410.33	231.73
410.70	232.00
411.08	232.29
411.45	232.62
411.82	232.90
412.20	233.22
412.57	233.68
412.95	233.97
413.32	234.38
413.69	234.78
414.07	235.20
414.44	235.66
414.82	236.11
415.19	236.64
415.56	237.18
415.94	237.75
416.31	238.35
416.68	238.98
417.06	239.69
417.43	240.37
417.81	241.15
418.18	241.93
418.55	242.78
418.93	243.66
419.30	244.53
419.67	245.49
420.04	246.44
420.42	247.43
420.79	248.62
421.16	249.79
421.54	250.97
421.91	252.23
422.28	253.48
422.66	254.82
423.03	256.15
423.40	257.52
423.77	258.91
424.15	260.40
424.52	261.91
424.89	263.50
425.26	265.07
425.64	266.53
426.01	268.09
426.38	269.75
426.75	271.43
427.13	273.18
427.50	274.98
427.87	276.89
428.24	278.73
428.61	280.44
428.99	282.39
429.36	284.54
429.73	286.55
430.10	288.56
430.47	290.63
430.85	292.70
431.22	294.93
431.59	297.33
431.96	299.55
432.33	302.06
432.70	304.44
433.08	307.27
433.45	309.91
433.82	312.59
434.19	315.48
434.56	318.31
434.93	320.94
435.30	323.54
435.68	326.41
436.05	329.28
436.42	332.07
436.79	334.57
437.16	337.27
437.53	340.16
437.90	343.01
438.27	345.73
438.64	348.60
439.01	351.20
439.38	353.41
439.75	355.58
440.13	358.04
440.50	360.39
440.87	362.15
441.24	364.09
441.61	366.23
441.98	367.70
442.35	369.44
442.72	371.32
443.09	373.14
443.46	374.16
443.83	374.71
444.20	375.23
444.57	376.05
444.94	376.31
445.31	376.61
445.68	376.98
446.05	377.09
446.42	376.72
446.79	376.29
447.16	375.83
447.53	375.49
447.90	374.35
448.27	373.18
448.64	371.63
449.01	370.48
449.37	368.45
449.74	366.51
450.11	364.27
450.48	361.77
450.85	359.21
451.22	357.03
451.59	355.01
451.96	353.09
452.33	350.48
452.70	348.13
453.07	345.29
453.43	342.36
453.80	339.55
454.17	336.85
454.54	334.30
454.91	331.61
455.28	328.90
455.65	326.41
456.02	323.96
456.38	321.82
456.75	319.13
457.12	316.89
457.49	314.72
457.86	312.57
458.23	310.74
458.59	308.71
458.96	306.62
459.33	304.74
459.70	302.85
460.07	301.35
460.43	299.63
460.80	298.01
461.17	296.54
461.54	295.06
461.91	293.62
462.27	292.17
462.64	290.90
463.01	289.58
463.38	288.27
463.74	286.89
464.11	285.75
464.48	284.74
464.85	283.63
465.21	282.77
465.58	281.84
465.95	280.73
466.32	279.81
466.68	278.92
467.05	278.03
467.42	277.18
467.78	276.24
468.15	275.33
468.52	274.69
468.88	273.84
469.25	273.11
469.62	272.50
469.98	271.87
470.35	271.21
470.72	270.62
471.08	269.96
471.45	269.43
471.82	268.81
472.18	268.23
472.55	267.77
472.92	267.22
473.28	266.75
473.65	266.29
474.02	265.86
474.38	265.49
474.75	265.16
475.11	264.79
475.48	264.52
475.85	264.30
476.21	264.04
476.58	263.87
476.94	263.67
477.31	263.49
477.67	263.31
478.04	263.21
478.41	263.14
478.77	263.17
479.14	263.08
479.50	263.12
479.87	263.19
480.23	263.30
480.60	263.35
480.96	263.47
481.33	263.70
481.69	263.89
482.06	264.09
482.42	264.30
482.79	264.55
483.15	264.89
483.52	265.22
483.88	265.54
484.25	265.90
484.61	266.31
484.98	266.76
485.34	267.32
485.71	267.93
486.07	268.49
486.44	269.07
486.80	269.82
487.17	270.57
487.53	271.38
487.90	272.24
488.26	273.18
488.62	274.12
488.99	275.06
489.35	276.11
489.72	277.20
490.08	278.36
490.44	279.59
490.81	280.87
491.17	282.24
491.54	283.79
491.90	285.34
492.26	286.97
492.63	288.72
492.99	290.48
493.36	292.36
493.72	294.41
494.08	296.50
494.45	298.69
494.81	301.03
495.17	303.42
495.54	305.95
495.90	308.61
496.26	311.42
496.63	314.40
496.99	317.51
497.35	320.78
497.72	324.19
498.08	327.69
498.44	331.38
498.80	335.34
499.17	339.30
499.53	343.45
499.89	347.84
500.26	352.33
500.62	357.00
500.98	361.90
501.34	366.99
501.71	372.24
502.07	377.69
502.43	383.27
502.79	389.03
503.16	395.18
503.52	401.46
503.88	407.87
504.24	414.46
504.60	421.32
504.97	428.49
505.33	435.79
505.69	443.50
506.05	451.22
506.41	459.06
506.78	467.26
507.14	475.68
507.50	484.37
507.86	493.35
508.22	502.56
508.59	511.80
508.95	521.39
509.31	531.28
509.67	541.36
510.03	551.64
510.39	562.29
510.75	572.98
511.12	583.93
511.48	595.22
511.84	606.73
512.20	618.28
512.56	630.19
512.92	642.40
513.28	654.76
513.64	667.22
514.00	679.92
514.37	692.79
514.73	705.84
515.09	718.86
515.45	732.15
515.81	745.65
516.17	759.66
516.53	773.73
516.89	787.90
517.25	802.08
517.61	816.57
517.97	830.99
518.33	845.42
518.69	860.24
519.05	875.27
519.41	890.42
519.77	906.05
520.13	921.46
520.49	936.84
520.85	952.33
521.21	968.09
521.57	984.37
521.93	1000.21
522.29	1016.70
522.65	1033.07
523.01	1049.35
523.37	1065.50
523.73	1081.72
524.09	1097.82
524.45	1114.17
524.81	1130.83
525.17	1147.78
525.53	1164.80
525.89	1181.72
526.25	1198.51
526.61	1214.93
526.97	1231.67
527.33	1248.18
527.68	1264.91
528.04	1281.53
528.40	1298.16
528.76	1315.34
529.12	1332.00
529.48	1348.93
529.84	1365.00
530.20	1381.74
530.56	1398.89
530.91	1416.31
531.27	1433.07
531.63	1449.63
531.99	1466.31
532.35	1482.44
532.71	1498.19
533.07	1514.49
533.42	1530.34
533.78	1546.43
534.14	1562.86
534.50	1578.37
534.86	1594.20
535.21	1609.42
535.57	1625.38
535.93	1640.92
536.29	1655.75
536.65	1670.96
537.00	1685.83
537.36	1701.21
537.72	1715.75
538.08	1730.10
538.44	1744.02
538.79	1758.01
539.15	1772.06
539.51	1785.77
539.87	1800.20
540.22	1814.12
540.58	1828.00
540.94	1841.68
541.29	1854.85
541.65	1867.59
542.01	1880.91
542.37	1893.24
542.72	1905.65
543.08	1917.46
543.44	1929.96
543.79	1941.24
544.15	1952.20
544.51	1963.84
544.87	1974.78
545.22	1985.59
545.58	1995.93
545.94	2005.66
546.29	2015.56
546.65	2025.18
547.01	2034.59
547.36	2043.24
547.72	2051.80
548.07	2059.66
548.43	2067.85
548.79	2075.81
549.14	2083.41
549.50	2090.87
549.86	2098.72
550.21	2106.15
550.57	2113.44
550.92	2119.96
551.28	2127.17
551.64	2134.22
551.99	2140.82
552.35	2147.01
552.70	2153.21
553.06	2159.18
553.41	2165.59
553.77	2171.66
554.13	2177.78
554.48	2183.78
554.84	2189.16
555.19	2194.44
555.55	2199.57
555.90	2203.89
556.26	2208.80
556.61	2213.38
556.97	2217.44
557.32	2221.61
557.68	2225.84
558.03	2230.07
558.39	2233.97
558.74	2238.55
559.10	2242.33
559.45	2246.00
559.81	2250.40
560.16	2254.26
560.52	2257.53
560.87	2260.97
561.23	2263.60
561.58	2266.56
561.94	2269.13
562.29	2271.75
562.64	2274.51
563.00	2277.30
563.35	2280.79
563.71	2283.82
564.06	2287.01
564.42	2289.87
564.77	2292.33
565.12	2294.39
565.48	2296.18
565.83	2297.80
566.19	2298.98
566.54	2300.05
566.89	2300.98
567.25	2301.41
567.60	2302.68
567.96	2304.16
568.31	2304.91
568.66	2305.82
569.02	2306.30
569.37	2306.60
569.72	2307.27
570.08	2307.25
570.43	2307.01
570.78	2306.29
571.14	2304.70
571.49	2303.48
571.84	2303.08
572.20	2301.67
572.55	2300.72
572.90	2299.20
573.26	2297.71
573.61	2295.92
573.96	2293.99
574.31	2290.89
574.67	2287.81
575.02	2284.01
575.37	2280.56
575.72	2276.65
576.08	2273.42
576.43	2270.19
576.78	2266.34
577.13	2263.20
577.49	2260.09
577.84	2256.48
578.19	2252.73
578.54	2248.87
578.90	2244.32
579.25	2238.71
579.60	2233.71
579.95	2228.46
580.30	2223.39
580.66	2218.25
581.01	2213.25
581.36	2208.11
581.71	2203.80
582.06	2199.25
582.42	2194.70
582.77	2189.37
583.12	2184.70
583.47	2179.75
583.82	2174.49
584.17	2169.17
584.53	2163.47
584.88	2157.61
585.23	2151.77
585.58	2146.20
585.93	2140.74
586.28	2135.87
586.63	2130.73
586.98	2125.62
587.34	2120.92
587.69	2116.01
588.04	2110.54
588.39	2104.72
588.74	2098.24
589.09	2092.28
589.44	2085.39
589.79	2079.22
590.14	2073.51
590.49	2066.80
590.84	2060.37
591.19	2054.10
591.54	2047.60
591.89	2039.98
592.25	2033.06
592.60	2025.66
592.95	2018.00
593.30	2010.54
593.65	2002.91
594.00	1995.85
594.35	1988.50
594.70	1980.42
595.05	1972.77
595.40	1965.37
595.75	1957.81
596.10	1951.44
596.45	1944.43
596.80	1938.16
597.15	1931.45
597.50	1924.27
597.85	1917.84
598.19	1911.08
598.54	1904.10
598.89	1897.43
599.24	1891.58
599.59	1884.70
599.94	1878.52
600.29	1872.07
600.64	1865.52
600.99	1857.98
601.34	1850.95
601.69	1843.99
602.04	1836.89
602.39	1829.62
602.74	1822.85
603.08	1816.10
603.43	1809.44
603.78	1802.12
604.13	1794.94
604.48	1787.62
604.83	1780.83
605.18	1773.71
605.53	1765.75
605.87	1757.60
606.22	1750.36
606.57	1742.42
606.92	1735.31
607.27	1728.03
607.62	1721.12
607.96	1713.66
608.31	1707.03
608.66	1699.47
609.01	1691.81
609.36	1684.35
609.70	1676.28
610.05	1668.19
610.40	1660.41
610.75	1652.11
611.10	1644.41
611.44	1636.06
611.79	1628.19
612.14	1619.49
612.49	1610.51
612.83	1602.14
613.18	1594.09
613.53	1585.93
613.88	1577.35
614.22	1569.00
614.57	1560.47
614.92	1552.45
615.27	1544.88
615.61	1536.54
615.96	1528.57
616.31	1520.99
616.65	1513.62
617.00	1506.17
617.35	1498.58
617.70	1490.25
618.04	1481.74
618.39	1473.57
618.74	1465.83
619.08	1457.47
619.43	1449.86
619.78	1442.93
620.12	1435.74
620.47	1428.12
620.82	1420.02
621.16	1412.64
621.51	1405.08
621.85	1397.49
622.20	1389.03
622.55	1380.80
622.89	1373.08
623.24	1365.54
623.59	1358.24
623.93	1350.63
624.28	1343.35
624.62	1335.75
624.97	1328.61
625.32	1321.85
625.66	1314.80
626.01	1307.63
626.35	1300.12
626.70	1292.45
627.04	1284.70
627.39	1276.93
627.73	1269.59
628.08	1262.60
628.43	1255.26
628.77	1247.87
629.12	1240.33
629.46	1233.02
629.81	1225.57
630.15	1218.28
630.50	1210.69
630.84	1202.42
631.19	1194.57
631.53	1187.17
631.88	1179.60
632.22	1172.07
632.57	1164.76
632.91	1157.31
633.26	1149.97
633.60	1142.69
633.95	1135.58
634.29	1128.56
634.64	1121.96
634.98	1114.65
635.32	1107.58
635.67	1101.01
636.01	1094.44
636.36	1087.64
636.70	1081.23
637.05	1074.76
637.39	1068.36
637.73	1061.83
638.08	1056.00
638.42	1050.08
638.77	1043.59
639.11	1037.04
639.45	1030.72
639.80	1024.07
640.14	1017.62
640.49	1011.11
640.83	1004.93
641.17	998.63
641.52	992.26
641.86	985.82
642.20	980.03
642.55	973.76
642.89	967.26
643.23	960.70
643.58	954.89
643.92	948.72
644.26	942.57
644.61	936.62
644.95	930.67
645.29	924.06
645.64	917.20
645.98	910.91
646.32	905.12
646.66	898.99
647.01	893.20
647.35	887.54
647.69	881.76
648.04	876.23
648.38	870.50
648.72	864.49
649.06	858.47
649.41	852.52
649.75	846.44
650.09	840.51
650.43	834.68
650.78	828.58
651.12	822.61
651.46	816.91
651.80	811.04
652.14	805.64
652.49	800.36
652.83	795.25
653.17	789.54
653.51	783.79
653.85	778.47
654.20	772.77
654.54	766.77
654.88	761.04
655.22	755.13
655.56	749.47
655.90	744.08
656.25	738.83
656.59	733.51
656.93	728.46
657.27	723.27
657.61	717.86
657.95	712.73
658.29	707.71
658.64	702.50
658.98	697.21
659.32	691.79
659.66	686.53
660.00	681.20
660.34	676.28
660.68	671.42
661.02	666.38
661.36	661.72
661.70	657.26
662.05	652.84
662.39	648.46
662.73	644.04
663.07	639.67
663.41	635.21
663.75	630.65
664.09	626.14
664.43	621.91
664.77	617.75
665.11	613.52
665.45	609.38
665.79	605.32
666.13	601.22
666.47	597.18
666.81	593.03
667.15	588.92
667.49	585.04
667.83	581.25
668.17	577.25
668.51	573.20
668.85	569.18
669.19	565.42
669.53	561.63
669.87	557.68
670.21	553.96
670.55	550.31
670.89	546.95
671.23	543.60
671.57	540.05
671.91	536.55
672.25	533.10
672.58	529.62
672.92	526.22
673.26	523.14
673.60	520.04
673.94	516.98
674.28	514.08
674.62	511.16
674.96	507.96
675.30	505.08
675.64	502.18
675.97	499.36
676.31	496.49
676.65	493.55
676.99	490.90
677.33	488.03
677.67	485.25
678.01	482.20
678.34	479.09
678.68	476.31
679.02	473.52
679.36	470.81
679.70	468.11
680.04	465.39
680.37	462.49
680.71	459.67
681.05	457.07
681.39	454.39
681.73	451.73
682.06	449.27
682.40	446.78
682.74	444.28
683.08	441.78
683.42	439.15
683.75	436.72
684.09	434.18
684.43	431.74
684.77	429.29
685.10	427.04
685.44	424.83
685.78	422.51
686.12	420.30
686.45	418.00
686.79	415.70
687.13	413.51
687.46	411.38
687.80	409.25
688.14	407.08
688.48	405.03
688.81	402.82
689.15	400.72
689.49	398.57
689.82	396.52
690.16	394.46
690.50	392.54
690.83	390.59
691.17	388.62
691.51	386.79
691.84	384.93
692.18	383.00
692.52	381.01
692.85	379.11
693.19	377.16
693.52	375.34
693.86	373.55
694.20	371.78
694.53	369.98
694.87	368.14
695.21	366.29
695.54	364.47
695.88	362.74
696.21	361.00
696.55	359.34
696.88	357.63
697.22	355.99
697.56	354.34
697.89	352.65
698.23	351.06
698.56	349.42
698.90	347.82
699.23	346.11
699.57	344.56
699.90	343.00
700.24	341.54
700.58	340.04
700.91	338.55
701.25	337.13
701.58	335.73
701.92	334.35
702.25	332.99
702.59	331.63
702.92	330.31
703.26	329.02
703.59	327.71
703.93	326.53
704.26	325.31
704.60	324.06
704.93	322.82
705.26	321.56
705.60	320.43
705.93	319.27
706.27	318.31
706.60	317.27
706.94	316.16
707.27	315.01
707.61	313.89
707.94	312.87
708.27	311.76
708.61	310.70
708.94	309.71
709.28	308.74
709.61	307.81
709.94	306.85
710.28	305.86
710.61	304.91
710.95	303.85
711.28	302.90
711.61	301.94
711.95	301.06
712.28	300.12
712.61	299.12
712.95	298.20
713.28	297.28
713.61	296.39
713.95	295.52
714.28	294.66
714.61	293.81
714.95	292.96
715.28	292.13
715.61	291.26
715.95	290.39
716.28	289.55
716.61	288.72
716.95	287.94
717.28	287.24
717.61	286.48
717.94	285.75
718.28	284.99
718.61	284.29
718.94	283.59
719.27	282.95
719.61	282.31
719.94	281.65
720.27	280.97
720.60	280.30
720.94	279.69
721.27	279.14
721.60	278.57
721.93	277.96
722.27	277.41
722.60	276.89
722.93	276.36
723.26	275.86
723.59	275.28
723.93	274.74
724.26	274.15
724.59	273.59
724.92	273.07
725.25	272.58
725.59	272.06
725.92	271.54
726.25	271.03
726.58	270.52
726.91	270.04
727.24	269.56
727.57	269.10
727.91	268.61
728.24	268.14
728.57	267.70
728.90	267.25
729.23	266.77
729.56	266.32
729.89	265.84
730.22	265.34
730.55	264.89
730.89	264.45
731.22	263.98
731.55	263.56
731.88	263.12
732.21	262.68
732.54	262.28
732.87	261.85
733.20	261.47
733.53	261.09
733.86	260.71
734.19	260.35
734.52	259.97
734.85	259.65
735.18	259.26
735.51	258.89
735.84	258.55
736.17	258.18
736.50	257.80
736.83	257.56
737.16	257.20
737.49	256.84
737.82	256.45
738.15	256.14
738.48	255.74
738.81	255.40
739.14	255.05
739.47	254.71
739.80	254.41
740.13	254.13
740.46	253.81
740.79	253.45
741.12	253.15
741.45	252.82
741.78	252.48
742.11	252.18
742.44	251.85
742.77	251.55
743.10	251.24
743.43	250.94
743.75	250.56
744.08	250.43
744.41	250.20
744.74	249.93
745.07	249.64
745.40	249.43
745.73	249.21
746.06	248.95
746.39	248.68
746.71	248.41
747.04	248.09
747.37	247.81
747.70	247.54
748.03	247.28
748.36	247.05
748.68	246.79
749.01	246.54
749.34	246.29
749.67	246.03
750.00	245.80
750.33	245.62
750.65	245.42
750.98	245.05
751.31	244.85
751.64	244.67
751.97	244.50
752.29	244.29
752.62	244.06
752.95	243.81
753.28	243.62
753.60	243.39
753.93	243.23
754.26	243.04
754.59	242.87
754.91	242.64
755.24	242.45
755.57	242.28
755.90	242.08
756.22	241.89
756.55	241.71
756.88	241.54
757.20	241.33
757.53	241.11
757.86	240.95
758.19	240.77
758.51	240.60
758.84	240.40
759.17	240.27
759.49	240.09
759.82	240.00
760.15	239.89
760.47	239.76
760.80	239.58
761.13	239.47
761.45	239.31
761.78	239.19
762.11	239.04
762.43	238.89
762.76	238.76
763.08	238.62
763.41	238.51
763.74	238.35
764.06	238.21
764.39	238.11
764.71	237.98
765.04	237.85
765.37	237.71
765.69	237.56
766.02	237.39
766.34	237.28
766.67	237.11
767.00	237.00
767.32	236.93
767.65	236.86
767.97	236.73
768.30	236.67
768.62	236.53
768.95	236.40
769.27	236.28
769.60	236.18
769.92	236.08
770.25	235.98
770.57	235.88
770.90	235.78
771.22	235.71
771.55	235.61
771.87	235.50
772.20	235.42
772.52	235.41
772.85	235.42
773.17	235.31
773.50	235.22
773.82	235.07
774.15	234.92
774.47	234.78
774.80	234.69
775.12	234.55
775.45	234.48
775.77	234.42
776.09	234.36
776.42	234.28
776.74	234.25
777.07	234.14
777.39	234.03
777.72	233.90
778.04	233.81
778.36	233.72
778.69	233.66
779.01	233.58
779.33	233.44
779.66	233.25
779.98	233.22
780.31	233.15
780.63	233.15
780.95	233.11
781.28	233.04
781.60	232.92
781.92	232.88
782.25	232.83
782.57	232.75
782.89	232.66
783.22	232.58
783.54	232.47
783.86	232.42
784.19	232.38
784.51	232.36
784.83	232.25
785.16	232.19
785.48	232.12
785.80	232.04
786.12	232.00
786.45	231.98
786.77	231.93
787.09	231.85
787.42	231.79
787.74	231.75
788.06	231.71
788.38	231.70
788.71	231.66
789.03	231.61
789.35	231.59
789.67	231.54
789.99	231.51
790.32	231.44
790.64	231.38
790.96	231.41
791.28	231.34
791.61	231.32
791.93	231.29
792.25	231.27
792.57	231.31
792.89	231.24
793.21	231.21
793.54	231.18
793.86	231.15
794.18	231.08
794.50	231.04
794.82	231.01
795.14	230.99
795.47	230.93
795.79	230.91
796.11	230.83
796.43	230.81
796.75	230.79
797.07	230.81
797.39	230.79
797.71	230.68
798.04	230.67
798.36	230.66
798.68	230.63
799.00	230.59
799.32	230.52
799.64	230.55
799.96	230.52
800.28	230.49
800.60	230.45
800.92	230.45
801.24	230.41
801.56	230.38
801.89	230.34
802.21	230.33
802.53	230.28
802.85	230.29
803.17	230.33
803.49	230.29
803.81	230.24
804.13	230.21
804.45	230.21
804.77	230.15
805.09	230.08
805.41	230.05
805.73	230.02
806.05	229.96
806.37	229.92
806.69	229.86
807.01	229.84
807.33	229.84
807.65	229.76
807.97	229.78
808.28	229.76
808.60	229.75
808.92	229.72
809.24	229.75
809.56	229.68
809.88	229.61
810.20	229.59
810.52	229.60
810.84	229.57
811.16	229.54
811.48	229.53
811.80	229.57
812.12	229.55
812.43	229.54
812.75	229.51
813.07	229.48
813.39	229.49
813.71	229.47
814.03	229.41
814.35	229.40
814.67	229.33
814.98	229.32
815.30	229.27
815.62	229.24
815.94	229.17
816.26	229.22
816.58	229.19
816.89	229.16
817.21	229.10
817.53	229.09
817.85	229.06
818.17	229.06
818.48	229.00
818.80	228.99
819.12	228.94
819.44	228.90
819.76	228.85
820.07	228.83
820.39	228.81
820.71	228.80
821.03	228.79
821.34	228.78
821.66	228.75
821.98	228.74
822.30	228.72
822.61	228.76
822.93	228.70
823.25	228.68
823.57	228.64
823.88	228.65
824.20	228.61
824.52	228.61
824.83	228.58
825.15	228.54
825.47	228.53
825.79	228.53
826.10	228.52
826.42	228.50
826.74	228.46
827.05	228.44
827.37	228.42
827.69	228.40
828.00	228.38
828.32	228.36
828.64	228.35
828.95	228.38
829.27	228.31
829.58	228.29
829.90	228.27
830.22	228.27
830.53	228.24
830.85	228.21
831.17	228.16
831.48	228.16
831.80	228.16
832.11	228.14
832.43	228.11
832.75	228.07
833.06	228.15
833.38	228.14
833.69	228.13
834.01	228.15
834.32	228.16
834.64	228.13
834.96	228.13
835.27	228.11
835.59	228.07
835.90	228.06
836.22	228.04
836.53	228.02
836.85	228.02
837.16	228.11
837.48	228.11
837.79	228.15
838.11	228.17
838.42	228.16
838.74	228.16
839.05	228.15
839.37	228.19
839.68	228.13
840.00	228.10
840.31	228.10
840.63	228.06
840.94	228.03
841.26	228.02
841.57	228.00
841.88	228.04
842.20	228.01
842.51	227.99
842.83	227.99
843.14	228.07
843.46	228.07
843.77	228.01
844.08	228.02
844.40	228.00
844.71	227.97
845.03	227.98
845.34	227.99
845.65	228.03
845.97	228.01
846.28	227.99
846.60	228.01
846.91	228.00
847.22	228.01
847.54	228.03
847.85	228.05
848.16	228.06
848.48	227.97
848.79	228.01
849.10	228.01
849.42	228.03
849.73	227.93
850.04	227.93
850.36	227.91
850.67	227.93
850.98	227.94
851.30	227.96
851.61	227.92
851.92	227.88
852.23	227.90
852.55	227.92
852.86	227.94
853.17	227.89
853.49	227.92
853.80	227.94
854.11	227.96
854.42	227.99
854.74	227.96
855.05	228.00
855.36	227.96
855.67	227.95
855.99	227.96
856.30	228.06
856.61	228.05
856.92	228.05
857.23	228.04
857.55	228.02
857.86	227.97
858.17	227.96
858.48	227.96
858.79	227.89
859.11	227.92
859.42	227.89
859.73	227.89
860.04	227.84
860.35	227.82
860.66	227.76
860.98	227.72
861.29	227.75
861.60	227.74
861.91	227.75
862.22	227.74
862.53	227.74
862.84	227.64
863.16	227.65
863.47	227.60
863.78	227.62
864.09	227.60
864.40	227.63
864.71	227.65
865.02	227.64
865.33	227.63
865.64	227.58
865.95	227.58
866.27	227.68
866.58	227.69
866.89	227.70
867.20	227.68
867.51	227.66
867.82	227.66
868.13	227.67
868.44	227.68
868.75	227.68
869.06	227.67
869.37	227.67
869.68	227.62
869.99	227.64
870.30	227.60
870.61	227.59
870.92	227.58
871.23	227.57
871.54	227.59
871.85	227.64
872.16	227.65
872.47	227.64
872.78	227.57
873.09	227.57
873.40	227.54
873.71	227.56
874.02	227.54
874.33	227.52
874.64	227.51
874.95	227.51
875.26	227.53
875.56	227.49
875.87	227.50
876.18	227.51
876.49	227.59
876.80	227.60
877.11	227.58
877.42	227.62
877.73	227.63
878.04	227.63
878.35	227.65
878.66	227.63
878.96	227.64
879.27	227.62
879.58	227.63
879.89	227.64
880.20	227.68
880.51	227.71
880.82	227.73
881.12	227.74
881.43	227.72
881.74	227.71
882.05	227.70
882.36	227.69
882.67	227.72
882.97	227.66
883.28	227.66
883.59	227.68
883.90	227.64
884.21	227.65
884.51	227.64
884.82	227.59
885.13	227.60
885.44	227.60
885.74	227.63
886.05	227.60
886.36	227.63
886.67	227.58
886.98	227.63
887.28	227.64
887.59	227.63
887.90	227.64
888.20	227.63
888.51	227.64
888.82	227.62
889.13	227.63
889.43	227.72
889.74	227.69
890.05	227.69
890.35	227.72
890.66	227.71
890.97	227.67
891.28	227.67
891.58	227.68
891.89	227.69
892.20	227.67
892.50	227.68
892.81	227.64
893.12	227.63
893.42	227.59
893.73	227.59
894.04	227.57
894.34	227.58
894.65	227.56
894.95	227.56
895.26	227.55
895.57	227.62
895.87	227.51
896.18	227.54
896.48	227.55
896.79	227.54
897.10	227.55
897.40	227.56
897.71	227.59
898.01	227.57
898.32	227.57
898.63	227.56
898.93	227.55
899.24	227.54
899.54	227.51
899.85	227.50
900.15	227.45
900.46	227.46
900.76	227.45
901.07	227.47
901.38	227.47
901.68	227.51
901.99	227.41
902.29	227.43
902.60	227.41
902.90	227.37
903.21	227.36
903.51	227.33
903.82	227.34
904.12	227.32
904.43	227.32
904.73	227.30
905.03	227.29
905.34	227.38
905.64	227.39
905.95	227.42
906.25	227.42
906.56	227.43
906.86	227.42
907.17	227.40
907.47	227.40
907.77	227.39
908.08	227.37
908.38	227.35
908.69	227.31
908.99	227.28
909.30	227.33
909.60	227.30
909.90	227.30
910.21	227.27
910.51	227.26
910.81	227.24
911.12	227.23
911.42	227.23
911.73	227.14
912.03	227.13
912.33	227.10
912.64	227.09
912.94	227.07
913.24	227.10
913.55	227.07
913.85	227.05
914.15	227.08
914.46	227.10
914.76	227.12
915.06	227.13
915.37	227.12
915.67	227.11
915.97	227.14
916.27	227.15
916.58	227.14
916.88	227.12
917.18	227.15
917.49	227.24
917.79	227.22
918.09	227.23
918.39	227.23
918.70	227.26
919.00	227.31
919.30	227.38
919.60	227.37
919.91	227.39
920.21	227.40
920.51	227.38
920.81	227.37
921.12	227.40
921.42	227.38
921.72	227.44
922.02	227.43
922.32	227.43
922.63	227.43
922.93	227.52
923.23	227.55
923.53	227.56
923.83	227.49
924.13	227.54
924.44	227.53
924.74	227.59
925.04	227.62
925.34	227.59
925.64	227.57
925.94	227.57
926.24	227.62
926.55	227.61
926.85	227.62
927.15	227.63
927.45	227.63
927.75	227.67
928.05	227.62
928.35	227.64
928.65	227.65
928.95	227.64
929.26	227.60
929.56	227.59
929.86	227.58
930.16	227.56
930.46	227.54
930.76	227.55
931.06	227.50
931.36	227.48
931.66	227.49
931.96	227.46
932.26	227.47
932.56	227.43
932.86	227.44
933.16	227.41
933.46	227.39
933.76	227.35
934.06	227.36
934.36	227.44
934.66	227.41
934.96	227.39
935.26	227.38
935.56	227.39
935.86	227.36
936.16	227.33
936.46	227.34
936.76	227.29
937.06	227.28
937.36	227.27
937.66	227.25
937.96	227.23
938.26	227.22
938.56	227.18
938.86	227.18
939.16	227.19
939.46	227.22
939.76	227.21
940.06	227.23
940.35	227.20
940.65	227.11
940.95	227.11
941.25	227.05
941.55	227.04
941.85	227.03
942.15	227.06
942.45	227.09
942.75	227.06
943.04	227.09
943.34	227.08
943.64	227.07
943.94	227.07
944.24	227.05
944.54	227.05
944.84	227.05
945.13	227.06
945.43	227.05
945.73	227.01
946.03	227.04
946.33	227.02
946.62	227.03
946.92	227.04
947.22	227.04
947.52	227.08
947.82	227.09
948.11	227.06
948.41	227.04
948.71	227.01
949.01	227.03
949.31	227.04
949.60	227.06
949.90	227.10
950.20	227.11
950.50	227.14
950.79	227.13
951.09	227.15
951.39	227.12
951.69	227.09
951.98	227.14
952.28	227.10
952.58	227.11
952.87	227.11
953.17	227.13
953.47	227.09
953.76	227.07
954.06	227.05
954.36	227.06
954.66	227.10
954.95	227.14
955.25	227.15
955.55	227.14
955.84	227.14
956.14	227.14
956.44	227.14
956.73	227.12
957.03	227.16
957.32	227.14
957.62	227.18
957.92	227.21
958.21	227.19
958.51	227.31
958.81	227.32
959.10	227.32
959.40	227.32
959.69	227.36
959.99	227.37
960.29	227.39
960.58	227.39
960.88	227.41
961.17	227.42
961.47	227.42
961.76	227.40
962.06	227.40
962.36	227.37
962.65	227.39
962.95	227.39
963.24	227.35
963.54	227.32
963.83	227.32
964.13	227.29
964.42	227.27
964.72	227.20
965.01	227.21
965.31	227.20
965.60	227.18
965.90	227.21
966.19	227.21
966.49	227.21
966.78	227.22
967.08	227.18
967.37	227.14
967.67	227.13
967.96	227.17
968.26	227.18
968.55	227.20
968.85	227.18
969.14	227.18
969.43	227.19
969.73	227.23
970.02	227.23
970.32	227.23
970.61	227.23
970.91	227.21
971.20	227.17
971.49	227.18
971.79	227.18
972.08	227.14
972.38	227.12
972.67	227.11
972.96	227.12
973.26	227.08
973.55	227.13
973.85	227.12
974.14	227.09
974.43	227.09
974.73	227.05
975.02	227.05
975.31	227.06
975.61	227.03
975.90	227.02
976.19	226.98
976.49	226.97
976.78	226.94
977.07	226.93
977.37	226.96
977.66	226.98
977.95	226.98
978.24	226.98
978.54	227.00
978.83	227.01
979.12	226.96
979.42	226.98
979.71	226.93
980.00	226.91
980.29	226.93
980.59	226.89
980.88	226.93
981.17	226.91
981.46	226.92
981.76	226.99
982.05	226.96
982.34	226.98
982.63	227.02
982.93	227.03
983.22	227.04
983.51	227.04
983.80	227.00
984.09	227.05
984.39	227.02
984.68	226.98
984.97	226.97
985.26	226.99
985.55	227.00
985.85	226.97
986.14	227.01
986.43	227.01
986.72	227.01
987.01	226.99
987.30	226.98
987.59	226.94
987.89	226.92
988.18	226.91
988.47	226.92
988.76	226.89
989.05	226.89
989.34	226.90
989.63	226.95
989.92	226.97
990.22	226.93
990.51	226.97
990.80	226.99
991.09	227.01
991.38	227.03
991.67	227.06
991.96	227.06
992.25	227.07
992.54	227.08
992.83	227.06
993.12	227.08
993.41	227.11
993.70	227.17
993.99	227.21
994.28	227.22
994.58	227.25
994.87	227.26
995.16	227.24
995.45	227.23
995.74	227.19
996.03	227.17
996.32	227.21
996.61	227.22
996.90	227.22
997.19	227.22
997.48	227.22
997.77	227.20
998.06	227.20
998.34	227.17
998.63	227.15
998.92	227.16
999.21	227.15
999.50	227.12
999.79	227.14
1000.08	227.11
1000.37	227.13
1000.66	227.08
1000.95	227.11
1001.24	227.13
1001.53	227.14
1001.82	227.13
1002.11	227.12
1002.40	227.11
1002.68	227.15
1002.97	227.22
1003.26	227.22
1003.55	227.23
1003.84	227.22
1004.13	227.25
1004.42	227.26
1004.71	227.27
1004.99	227.28
1005.28	227.31
1005.57	227.29
1005.86	227.26
1006.15	227.27
1006.44	227.24
1006.72	227.26
1007.01	227.24
1007.30	227.22
1007.59	227.20
1007.88	227.19
1008.17	227.18
1008.45	227.16
1008.74	227.10
1009.03	227.01
1009.32	227.02
1009.60	226.98
1009.89	226.97
1010.18	226.96
1010.47	226.94
1010.76	226.94
1011.04	226.93
1011.33	226.93
1011.62	226.96
1011.91	226.95
1012.19	226.91
1012.48	226.92
1012.77	226.90
1013.05	226.90
1013.34	226.90
1013.63	226.90
1013.92	226.90
1014.20	226.89
1014.49	226.85
1014.78	226.88
1015.06	226.88
1015.35	226.85
1015.64	226.87
1015.92	226.85
1016.21	226.83
1016.50	226.84
1016.78	226.81
1017.07	226.81
1017.36	226.77
1017.64	226.77
1017.93	226.77
1018.22	226.78
1018.50	226.77
1018.79	226.78
1019.08	226.78
1019.36	226.79
1019.65	226.78
1019.93	226.81
1020.22	226.85
1020.51	226.89
1020.79	226.86
1021.08	226.91
1021.36	226.42
1021.65	227.04
1021.94	227.12
1022.22	226.90
1022.51	226.78
1022.79	227.29
1023.08	227.23
1023.36	227.47
1023.65	226.50
>>>>>End Processed Spectral Data<<<<<
