SpectraSuite Data File
++++++++++++++++++++++++++++++++++++
Date: Fri Feb 01 15:46:17 EST 2013
User: group
Dark Spectrum Present: No
Reference Spectrum Present: No
Number of Sampled Component Spectra: 1
Spectrometers: USB2E7196
Integration Time (usec): 35000 (USB2E7196)
Spectra Averaged: 100 (USB2E7196)
Boxcar Smoothing: 10 (USB2E7196)
Correct for Electrical Dark: No (USB2E7196)
Strobe/Lamp Enabled: No (USB2E7196)
Correct for Detector Non-linearity: No (USB2E7196)
Correct for Stray Light: No (USB2E7196)
Number of Pixels in Processed Spectrum: 2048
>>>>>Begin Processed Spectral Data<<<<<
339.09	0.00
339.48	214.75
339.86	216.22
340.24	218.07
340.63	219.20
341.01	221.68
341.39	221.63
341.78	223.17
342.16	224.20
342.54	224.72
342.93	213.13
343.31	223.91
343.69	224.44
344.07	224.93
344.46	225.36
344.84	225.72
345.22	225.97
345.60	226.23
345.99	226.41
346.37	226.54
346.75	226.64
347.13	226.72
347.52	226.77
347.90	226.82
348.28	226.82
348.66	226.92
349.05	226.96
349.43	227.00
349.81	227.08
350.19	227.13
350.57	227.18
350.96	227.24
351.34	227.31
351.72	227.43
352.10	227.49
352.48	227.53
352.87	227.58
353.25	227.66
353.63	227.71
354.01	227.80
354.39	227.91
354.77	228.00
355.15	228.08
355.54	228.16
355.92	228.18
356.30	228.24
356.68	228.33
357.06	228.40
357.44	228.47
357.82	228.53
358.20	228.63
358.58	228.69
358.97	228.77
359.35	228.88
359.73	228.92
360.11	228.97
360.49	229.03
360.87	229.12
361.25	229.16
361.63	229.25
362.01	229.30
362.39	229.31
362.77	229.36
363.15	229.40
363.53	229.43
363.91	229.47
364.29	229.51
364.67	229.45
365.05	229.47
365.43	229.47
365.81	229.50
366.19	229.52
366.57	229.58
366.95	229.55
367.33	229.51
367.71	229.51
368.09	229.51
368.47	229.52
368.85	229.48
369.23	229.50
369.61	229.46
369.99	229.45
370.37	229.42
370.75	229.42
371.13	229.37
371.51	229.31
371.89	229.31
372.27	229.29
372.65	229.28
373.03	229.22
373.41	229.20
373.78	229.14
374.16	229.05
374.54	228.97
374.92	228.93
375.30	228.84
375.68	228.78
376.06	228.73
376.44	228.66
376.82	228.62
377.19	228.55
377.57	228.45
377.95	228.34
378.33	228.29
378.71	228.18
379.09	228.12
379.47	228.09
379.84	227.98
380.22	227.90
380.60	227.79
380.98	227.71
381.36	227.63
381.73	227.55
382.11	227.49
382.49	227.42
382.87	227.37
383.25	227.32
383.62	227.37
384.00	227.28
384.38	227.21
384.76	227.14
385.13	227.08
385.51	227.04
385.89	226.98
386.27	226.91
386.64	226.88
387.02	226.83
387.40	226.76
387.78	226.73
388.15	226.69
388.53	226.66
388.91	226.64
389.29	226.61
389.66	226.59
390.04	226.57
390.42	226.57
390.79	226.54
391.17	226.50
391.55	226.39
391.92	226.37
392.30	226.39
392.68	226.37
393.05	226.39
393.43	226.40
393.81	226.44
394.18	226.42
394.56	226.44
394.94	226.45
395.31	226.47
395.69	226.51
396.06	226.51
396.44	226.53
396.82	226.54
397.19	226.60
397.57	226.65
397.95	226.70
398.32	226.70
398.70	226.76
399.07	226.83
399.45	226.89
399.82	226.94
400.20	226.97
400.58	227.04
400.95	227.06
401.33	227.15
401.70	227.24
402.08	227.33
402.45	227.41
402.83	227.55
403.20	227.64
403.58	227.74
403.95	227.88
404.33	228.04
404.71	228.19
405.08	228.37
405.46	228.49
405.83	228.64
406.21	228.79
406.58	228.95
406.96	229.15
407.33	229.33
407.70	229.55
408.08	229.85
408.45	230.09
408.83	230.34
409.20	230.58
409.58	230.77
409.95	231.04
410.33	231.30
410.70	231.56
411.08	231.90
411.45	232.23
411.82	232.52
412.20	232.85
412.57	233.29
412.95	233.57
413.32	233.95
413.69	234.33
414.07	234.78
414.44	235.29
414.82	235.75
415.19	236.31
415.56	236.84
415.94	237.36
416.31	237.99
416.68	238.61
417.06	239.31
417.43	240.02
417.81	240.78
418.18	241.58
418.55	242.41
418.93	243.25
419.30	244.12
419.67	245.05
420.04	246.01
420.42	246.98
420.79	248.18
421.16	249.36
421.54	250.57
421.91	251.80
422.28	253.05
422.66	254.39
423.03	255.66
423.40	256.98
423.77	258.42
424.15	259.82
424.52	261.28
424.89	262.91
425.26	264.48
425.64	265.94
426.01	267.54
426.38	269.21
426.75	270.91
427.13	272.64
427.50	274.49
427.87	276.38
428.24	278.26
428.61	280.01
428.99	281.95
429.36	284.07
429.73	286.12
430.10	288.11
430.47	290.16
430.85	292.32
431.22	294.58
431.59	296.96
431.96	299.26
432.33	301.81
432.70	304.21
433.08	307.02
433.45	309.67
433.82	312.28
434.19	315.14
434.56	317.98
434.93	320.65
435.30	323.28
435.68	326.19
436.05	329.05
436.42	331.84
436.79	334.37
437.16	337.03
437.53	339.88
437.90	342.72
438.27	345.50
438.64	348.27
439.01	350.89
439.38	353.09
439.75	355.23
440.13	357.69
440.50	359.96
440.87	361.80
441.24	363.75
441.61	365.88
441.98	367.37
442.35	369.13
442.72	370.99
443.09	372.80
443.46	373.76
443.83	374.32
444.20	374.78
444.57	375.60
444.94	375.89
445.31	376.25
445.68	376.63
446.05	376.66
446.42	376.30
446.79	375.87
447.16	375.42
447.53	375.11
447.90	373.93
448.27	372.80
448.64	371.19
449.01	370.01
449.37	368.05
449.74	366.17
450.11	363.91
450.48	361.41
450.85	358.84
451.22	356.69
451.59	354.65
451.96	352.71
452.33	350.07
452.70	347.71
453.07	344.84
453.43	341.88
453.80	339.11
454.17	336.45
454.54	333.87
454.91	331.14
455.28	328.40
455.65	325.94
456.02	323.45
456.38	321.29
456.75	318.63
457.12	316.37
457.49	314.11
457.86	311.95
458.23	310.10
458.59	308.05
458.96	305.99
459.33	304.12
459.70	302.25
460.07	300.79
460.43	299.08
460.80	297.46
461.17	296.03
461.54	294.55
461.91	293.12
462.27	291.71
462.64	290.50
463.01	289.18
463.38	287.90
463.74	286.56
464.11	285.42
464.48	284.38
464.85	283.28
465.21	282.44
465.58	281.51
465.95	280.45
466.32	279.55
466.68	278.64
467.05	277.77
467.42	276.93
467.78	276.02
468.15	275.15
468.52	274.51
468.88	273.67
469.25	272.88
469.62	272.28
469.98	271.63
470.35	271.00
470.72	270.42
471.08	269.76
471.45	269.24
471.82	268.69
472.18	268.14
472.55	267.69
472.92	267.12
473.28	266.68
473.65	266.22
474.02	265.78
474.38	265.42
474.75	265.07
475.11	264.70
475.48	264.42
475.85	264.21
476.21	263.93
476.58	263.70
476.94	263.56
477.31	263.38
477.67	263.23
478.04	263.13
478.41	263.04
478.77	263.07
479.14	262.97
479.50	262.99
479.87	263.03
480.23	263.13
480.60	263.27
480.96	263.35
481.33	263.55
481.69	263.76
482.06	263.95
482.42	264.19
482.79	264.45
483.15	264.76
483.52	265.11
483.88	265.47
484.25	265.86
484.61	266.28
484.98	266.74
485.34	267.26
485.71	267.82
486.07	268.45
486.44	269.03
486.80	269.74
487.17	270.45
487.53	271.27
487.90	272.13
488.26	273.05
488.62	274.04
488.99	275.00
489.35	276.03
489.72	277.15
490.08	278.31
490.44	279.51
490.81	280.82
491.17	282.19
491.54	283.66
491.90	285.19
492.26	286.85
492.63	288.57
492.99	290.34
493.36	292.25
493.72	294.25
494.08	296.34
494.45	298.61
494.81	300.99
495.17	303.39
495.54	305.96
495.90	308.65
496.26	311.43
496.63	314.41
496.99	317.52
497.35	320.76
497.72	324.19
498.08	327.73
498.44	331.41
498.80	335.28
499.17	339.33
499.53	343.51
499.89	347.89
500.26	352.40
500.62	357.08
500.98	362.06
501.34	367.14
501.71	372.45
502.07	377.86
502.43	383.45
502.79	389.29
503.16	395.34
503.52	401.62
503.88	408.00
504.24	414.65
504.60	421.59
504.97	428.81
505.33	436.10
505.69	443.85
506.05	451.65
506.41	459.54
506.78	467.75
507.14	476.25
507.50	484.93
507.86	493.96
508.22	503.14
508.59	512.39
508.95	521.99
509.31	531.84
509.67	541.96
510.03	552.34
510.39	562.93
510.75	573.71
511.12	584.59
511.48	595.97
511.84	607.41
512.20	618.89
512.56	630.85
512.92	643.09
513.28	655.47
513.64	667.94
514.00	680.76
514.37	693.63
514.73	706.70
515.09	719.81
515.45	733.14
515.81	746.68
516.17	760.61
516.53	774.78
516.89	789.01
517.25	803.22
517.61	817.61
517.97	832.17
518.33	846.64
518.69	861.51
519.05	876.48
519.41	891.65
519.77	907.26
520.13	922.72
520.49	938.05
520.85	953.46
521.21	969.23
521.57	985.37
521.93	1001.20
522.29	1017.61
522.65	1033.75
523.01	1050.00
523.37	1066.18
523.73	1082.43
524.09	1098.56
524.45	1114.85
524.81	1131.45
525.17	1148.33
525.53	1165.12
525.89	1181.98
526.25	1198.73
526.61	1215.14
526.97	1231.94
527.33	1248.34
527.68	1265.02
528.04	1281.64
528.40	1298.15
528.76	1315.22
529.12	1331.91
529.48	1348.75
529.84	1364.76
530.20	1381.45
530.56	1398.49
530.91	1415.96
531.27	1432.68
531.63	1449.17
531.99	1465.79
532.35	1481.76
532.71	1497.60
533.07	1513.87
533.42	1529.78
533.78	1545.93
534.14	1562.16
534.50	1577.53
534.86	1593.36
535.21	1608.50
535.57	1624.21
535.93	1639.69
536.29	1654.42
536.65	1669.40
537.00	1684.22
537.36	1699.50
537.72	1714.09
538.08	1728.45
538.44	1742.11
538.79	1755.96
539.15	1769.59
539.51	1783.23
539.87	1797.55
540.22	1811.26
540.58	1825.05
540.94	1838.29
541.29	1851.11
541.65	1863.91
542.01	1877.09
542.37	1889.49
542.72	1901.78
543.08	1913.68
543.44	1926.21
543.79	1937.56
544.15	1948.59
544.51	1960.17
544.87	1971.13
545.22	1981.82
545.58	1991.97
545.94	2001.73
546.29	2011.62
546.65	2021.33
547.01	2030.60
547.36	2039.39
547.72	2047.77
548.07	2055.57
548.43	2063.74
548.79	2071.92
549.14	2079.36
549.50	2086.68
549.86	2094.35
550.21	2101.67
550.57	2108.77
550.92	2115.25
551.28	2122.17
551.64	2129.33
551.99	2135.79
552.35	2141.99
552.70	2148.27
553.06	2154.31
553.41	2160.78
553.77	2166.74
554.13	2172.96
554.48	2179.16
554.84	2184.63
555.19	2190.05
555.55	2195.21
555.90	2199.82
556.26	2204.55
556.61	2209.41
556.97	2213.59
557.32	2217.74
557.68	2221.94
558.03	2226.44
558.39	2230.15
558.74	2234.95
559.10	2238.78
559.45	2242.55
559.81	2246.86
560.16	2250.66
560.52	2253.94
560.87	2257.32
561.23	2260.13
561.58	2263.09
561.94	2265.55
562.29	2267.91
562.64	2270.45
563.00	2273.04
563.35	2276.53
563.71	2279.65
564.06	2282.82
564.42	2285.74
564.77	2288.22
565.12	2290.56
565.48	2292.35
565.83	2294.21
566.19	2295.18
566.54	2296.01
566.89	2297.11
567.25	2297.70
567.60	2299.02
567.96	2300.57
568.31	2301.35
568.66	2302.36
569.02	2302.90
569.37	2303.18
569.72	2303.98
570.08	2304.26
570.43	2304.39
570.78	2303.76
571.14	2302.14
571.49	2300.82
571.84	2300.39
572.20	2299.31
572.55	2298.23
572.90	2296.63
573.26	2295.32
573.61	2293.84
573.96	2291.96
574.31	2288.89
574.67	2285.90
575.02	2282.32
575.37	2279.12
575.72	2275.25
576.08	2271.94
576.43	2268.56
576.78	2264.97
577.13	2261.81
577.49	2258.67
577.84	2255.09
578.19	2251.25
578.54	2247.68
578.90	2243.30
579.25	2237.85
579.60	2232.84
579.95	2227.71
580.30	2222.67
580.66	2217.41
581.01	2212.31
581.36	2207.47
581.71	2203.31
582.06	2198.68
582.42	2193.99
582.77	2188.62
583.12	2184.02
583.47	2179.28
583.82	2174.25
584.17	2168.84
584.53	2163.34
584.88	2157.60
585.23	2151.91
585.58	2146.50
585.93	2141.16
586.28	2136.46
586.63	2131.38
586.98	2126.31
587.34	2121.70
587.69	2116.76
588.04	2111.31
588.39	2105.68
588.74	2099.14
589.09	2092.91
589.44	2086.22
589.79	2080.32
590.14	2074.72
590.49	2068.24
590.84	2061.74
591.19	2055.78
591.54	2049.36
591.89	2041.93
592.25	2035.13
592.60	2027.88
592.95	2020.29
593.30	2012.86
593.65	2005.23
594.00	1998.19
594.35	1990.81
594.70	1982.71
595.05	1975.44
595.40	1968.21
595.75	1960.89
596.10	1954.69
596.45	1947.92
596.80	1941.66
597.15	1935.02
597.50	1927.70
597.85	1921.19
598.19	1914.63
598.54	1907.38
598.89	1900.71
599.24	1894.81
599.59	1888.22
599.94	1881.91
600.29	1875.62
600.64	1869.04
600.99	1861.57
601.34	1854.69
601.69	1847.80
602.04	1840.81
602.39	1833.54
602.74	1826.79
603.08	1820.00
603.43	1813.27
603.78	1806.16
604.13	1799.06
604.48	1791.66
604.83	1784.93
605.18	1777.84
605.53	1769.79
605.87	1761.79
606.22	1754.55
606.57	1746.59
606.92	1739.27
607.27	1732.03
607.62	1724.98
607.96	1717.56
608.31	1710.85
608.66	1703.22
609.01	1695.64
609.36	1688.15
609.70	1680.11
610.05	1671.94
610.40	1664.11
610.75	1655.81
611.10	1648.03
611.44	1639.56
611.79	1631.55
612.14	1622.78
612.49	1613.74
612.83	1605.38
613.18	1597.31
613.53	1589.32
613.88	1580.78
614.22	1572.46
614.57	1563.94
614.92	1555.88
615.27	1548.34
615.61	1540.07
615.96	1531.99
616.31	1524.40
616.65	1517.02
617.00	1509.43
617.35	1501.91
617.70	1493.57
618.04	1485.01
618.39	1476.70
618.74	1469.15
619.08	1460.92
619.43	1453.41
619.78	1446.42
620.12	1439.16
620.47	1431.62
620.82	1423.40
621.16	1416.02
621.51	1408.37
621.85	1400.89
622.20	1392.38
622.55	1384.01
622.89	1376.11
623.24	1368.55
623.59	1361.11
623.93	1353.53
624.28	1346.29
624.62	1338.69
624.97	1331.51
625.32	1324.84
625.66	1317.91
626.01	1310.60
626.35	1303.13
626.70	1295.44
627.04	1287.78
627.39	1280.08
627.73	1272.68
628.08	1265.73
628.43	1258.37
628.77	1250.93
629.12	1243.25
629.46	1236.08
629.81	1228.67
630.15	1221.45
630.50	1214.07
630.84	1205.86
631.19	1197.99
631.53	1190.51
631.88	1183.01
632.22	1175.36
632.57	1167.99
632.91	1160.44
633.26	1153.07
633.60	1145.78
633.95	1138.65
634.29	1131.58
634.64	1124.92
634.98	1117.48
635.32	1110.37
635.67	1103.84
636.01	1097.27
636.36	1090.50
636.70	1084.03
637.05	1077.41
637.39	1070.95
637.73	1064.39
638.08	1058.50
638.42	1052.51
638.77	1046.02
639.11	1039.30
639.45	1032.98
639.80	1026.33
640.14	1019.87
640.49	1013.31
640.83	1006.95
641.17	1000.60
641.52	994.25
641.86	987.73
642.20	981.87
642.55	975.58
642.89	969.02
643.23	962.50
643.58	956.62
643.92	950.38
644.26	944.34
644.61	938.39
644.95	932.35
645.29	925.81
645.64	919.09
645.98	912.81
646.32	907.15
646.66	901.06
647.01	895.27
647.35	889.52
647.69	883.66
648.04	878.07
648.38	872.43
648.72	866.39
649.06	860.40
649.41	854.57
649.75	848.54
650.09	842.64
650.43	836.80
650.78	830.62
651.12	824.67
651.46	818.95
651.80	813.09
652.14	807.68
652.49	802.23
652.83	797.05
653.17	791.26
653.51	785.42
653.85	780.06
654.20	774.40
654.54	768.45
654.88	762.78
655.22	757.00
655.56	751.26
655.90	745.86
656.25	740.59
656.59	735.26
656.93	730.16
657.27	724.96
657.61	719.60
657.95	714.62
658.29	709.51
658.64	704.32
658.98	699.04
659.32	693.57
659.66	688.38
660.00	682.98
660.34	678.12
660.68	673.22
661.02	668.21
661.36	663.45
661.70	658.95
662.05	654.55
662.39	650.17
662.73	645.68
663.07	641.25
663.41	636.83
663.75	632.33
664.09	627.83
664.43	623.36
664.77	619.19
665.11	614.91
665.45	610.84
665.79	606.68
666.13	602.58
666.47	598.55
666.81	594.42
667.15	590.35
667.49	586.50
667.83	582.76
668.17	578.75
668.51	574.69
668.85	570.68
669.19	566.90
669.53	563.07
669.87	559.14
670.21	555.51
670.55	551.88
670.89	548.39
671.23	544.85
671.57	541.39
671.91	537.84
672.25	534.35
672.58	530.81
672.92	527.45
673.26	524.27
673.60	521.11
673.94	517.98
674.28	515.06
674.62	512.09
674.96	508.90
675.30	506.03
675.64	503.14
675.97	500.33
676.31	497.41
676.65	494.45
676.99	491.80
677.33	488.92
677.67	485.99
678.01	482.98
678.34	480.08
678.68	477.20
679.02	474.36
679.36	471.60
679.70	468.87
680.04	466.09
680.37	463.20
680.71	460.40
681.05	457.80
681.39	455.07
681.73	452.39
682.06	449.88
682.40	447.29
682.74	444.73
683.08	442.21
683.42	439.58
683.75	437.10
684.09	434.53
684.43	432.09
684.77	429.69
685.10	427.39
685.44	425.09
685.78	422.82
686.12	420.57
686.45	418.28
686.79	415.99
687.13	413.82
687.46	411.69
687.80	409.56
688.14	407.37
688.48	405.32
688.81	403.09
689.15	400.95
689.49	398.85
689.82	396.76
690.16	394.70
690.50	392.80
690.83	390.84
691.17	388.87
691.51	386.93
691.84	385.13
692.18	383.14
692.52	381.16
692.85	379.26
693.19	377.39
693.52	375.57
693.86	373.81
694.20	372.04
694.53	370.21
694.87	368.39
695.21	366.59
695.54	364.80
695.88	363.08
696.21	361.37
696.55	359.71
696.88	358.04
697.22	356.39
697.56	354.74
697.89	353.12
698.23	351.53
698.56	349.92
698.90	348.28
699.23	346.68
699.57	345.10
699.90	343.54
700.24	342.02
700.58	340.48
700.91	339.01
701.25	337.55
701.58	336.20
701.92	334.83
702.25	333.43
702.59	332.01
702.92	330.66
703.26	329.34
703.59	328.04
703.93	326.86
704.26	325.60
704.60	324.34
704.93	323.05
705.26	321.82
705.60	320.67
705.93	319.49
706.27	318.42
706.60	317.40
706.94	316.33
707.27	315.21
707.61	314.13
707.94	313.06
708.27	311.96
708.61	310.84
708.94	309.78
709.28	308.80
709.61	307.87
709.94	306.94
710.28	305.93
710.61	304.93
710.95	303.86
711.28	302.93
711.61	301.92
711.95	300.98
712.28	300.04
712.61	299.00
712.95	298.09
713.28	297.19
713.61	296.28
713.95	295.38
714.28	294.51
714.61	293.63
714.95	292.75
715.28	291.92
715.61	291.06
715.95	290.23
716.28	289.35
716.61	288.49
716.95	287.70
717.28	286.95
717.61	286.20
717.94	285.47
718.28	284.66
718.61	283.93
718.94	283.25
719.27	282.57
719.61	281.94
719.94	281.32
720.27	280.62
720.60	279.93
720.94	279.30
721.27	278.70
721.60	278.11
721.93	277.55
722.27	276.99
722.60	276.45
722.93	275.88
723.26	275.35
723.59	274.77
723.93	274.23
724.26	273.68
724.59	273.09
724.92	272.56
725.25	272.07
725.59	271.60
725.92	271.09
726.25	270.61
726.58	270.13
726.91	269.64
727.24	269.17
727.57	268.71
727.91	268.25
728.24	267.82
728.57	267.37
728.90	266.93
729.23	266.47
729.56	266.07
729.89	265.61
730.22	265.13
730.55	264.72
730.89	264.24
731.22	263.80
731.55	263.40
731.88	262.97
732.21	262.56
732.54	262.13
732.87	261.71
733.20	261.32
733.53	260.96
733.86	260.57
734.19	260.15
734.52	259.79
734.85	259.46
735.18	259.04
735.51	258.68
735.84	258.28
736.17	257.89
736.50	257.47
736.83	257.25
737.16	256.99
737.49	256.64
737.82	256.31
738.15	255.99
738.48	255.67
738.81	255.35
739.14	255.04
739.47	254.71
739.80	254.41
740.13	254.11
740.46	253.75
740.79	253.42
741.12	253.15
741.45	252.82
741.78	252.47
742.11	252.21
742.44	251.91
742.77	251.67
743.10	251.37
743.43	251.10
743.75	250.69
744.08	250.53
744.41	250.23
744.74	249.99
745.07	249.68
745.40	249.42
745.73	249.20
746.06	248.88
746.39	248.61
746.71	248.33
747.04	248.03
747.37	247.76
747.70	247.50
748.03	247.21
748.36	246.99
748.68	246.73
749.01	246.46
749.34	246.20
749.67	245.95
750.00	245.74
750.33	245.56
750.65	245.32
750.98	244.96
751.31	244.76
751.64	244.51
751.97	244.33
752.29	244.12
752.62	243.86
752.95	243.65
753.28	243.42
753.60	243.22
753.93	242.99
754.26	242.79
754.59	242.56
754.91	242.34
755.24	242.13
755.57	241.94
755.90	241.72
756.22	241.48
756.55	241.27
756.88	241.05
757.20	240.81
757.53	240.61
757.86	240.42
758.19	240.22
758.51	240.05
758.84	239.82
759.17	239.64
759.49	239.46
759.82	239.32
760.15	239.19
760.47	239.03
760.80	238.88
761.13	238.75
761.45	238.57
761.78	238.42
762.11	238.27
762.43	238.09
762.76	237.96
763.08	237.87
763.41	237.71
763.74	237.58
764.06	237.45
764.39	237.36
764.71	237.22
765.04	237.09
765.37	236.98
765.69	236.85
766.02	236.73
766.34	236.62
766.67	236.49
767.00	236.37
767.32	236.32
767.65	236.27
767.97	236.17
768.30	236.07
768.62	235.99
768.95	235.89
769.27	235.83
769.60	235.77
769.92	235.66
770.25	235.59
770.57	235.47
770.90	235.38
771.22	235.24
771.55	235.16
771.87	235.14
772.20	235.03
772.52	235.06
772.85	235.06
773.17	235.00
773.50	234.92
773.82	234.80
774.15	234.68
774.47	234.54
774.80	234.44
775.12	234.39
775.45	234.33
775.77	234.27
776.09	234.19
776.42	234.06
776.74	234.03
777.07	233.94
777.39	233.91
777.72	233.83
778.04	233.81
778.36	233.72
778.69	233.63
779.01	233.59
779.33	233.44
779.66	233.29
779.98	233.22
780.31	233.16
780.63	233.18
780.95	233.13
781.28	233.09
781.60	233.03
781.92	232.99
782.25	232.93
782.57	232.84
782.89	232.78
783.22	232.77
783.54	232.65
783.86	232.61
784.19	232.54
784.51	232.51
784.83	232.44
785.16	232.40
785.48	232.34
785.80	232.27
786.12	232.24
786.45	232.18
786.77	232.10
787.09	232.02
787.42	231.91
787.74	231.87
788.06	231.82
788.38	231.78
788.71	231.72
789.03	231.66
789.35	231.70
789.67	231.61
789.99	231.53
790.32	231.45
790.64	231.41
790.96	231.46
791.28	231.37
791.61	231.29
791.93	231.23
792.25	231.17
792.57	231.20
792.89	231.11
793.21	231.05
793.54	231.02
793.86	230.98
794.18	230.93
794.50	230.85
794.82	230.75
795.14	230.71
795.47	230.64
795.79	230.59
796.11	230.46
796.43	230.44
796.75	230.39
797.07	230.39
797.39	230.33
797.71	230.19
798.04	230.15
798.36	230.16
798.68	230.09
799.00	230.06
799.32	229.96
799.64	229.93
799.96	229.88
800.28	229.84
800.60	229.80
800.92	229.77
801.24	229.73
801.56	229.71
801.89	229.69
802.21	229.66
802.53	229.60
802.85	229.61
803.17	229.62
803.49	229.59
803.81	229.56
804.13	229.54
804.45	229.50
804.77	229.50
805.09	229.45
805.41	229.42
805.73	229.40
806.05	229.35
806.37	229.33
806.69	229.31
807.01	229.28
807.33	229.26
807.65	229.22
807.97	229.26
808.28	229.27
808.60	229.24
808.92	229.22
809.24	229.30
809.56	229.24
809.88	229.20
810.20	229.19
810.52	229.19
810.84	229.19
811.16	229.19
811.48	229.16
811.80	229.18
812.12	229.15
812.43	229.16
812.75	229.16
813.07	229.13
813.39	229.16
813.71	229.18
814.03	229.14
814.35	229.12
814.67	229.06
814.98	229.05
815.30	229.01
815.62	228.99
815.94	228.90
816.26	228.95
816.58	228.93
816.89	228.92
817.21	228.87
817.53	228.85
817.85	228.83
818.17	228.84
818.48	228.79
818.80	228.80
819.12	228.77
819.44	228.75
819.76	228.74
820.07	228.74
820.39	228.72
820.71	228.74
821.03	228.75
821.34	228.74
821.66	228.72
821.98	228.72
822.30	228.71
822.61	228.76
822.93	228.69
823.25	228.71
823.57	228.68
823.88	228.68
824.20	228.64
824.52	228.63
824.83	228.60
825.15	228.58
825.47	228.57
825.79	228.55
826.10	228.50
826.42	228.49
826.74	228.44
827.05	228.41
827.37	228.39
827.69	228.39
828.00	228.37
828.32	228.38
828.64	228.37
828.95	228.40
829.27	228.36
829.58	228.35
829.90	228.32
830.22	228.32
830.53	228.27
830.85	228.24
831.17	228.25
831.48	228.24
831.80	228.23
832.11	228.25
832.43	228.24
832.75	228.26
833.06	228.31
833.38	228.28
833.69	228.27
834.01	228.26
834.32	228.21
834.64	228.21
834.96	228.17
835.27	228.14
835.59	228.09
835.90	228.08
836.22	228.06
836.53	228.05
836.85	228.02
837.16	228.11
837.48	228.12
837.79	228.14
838.11	228.12
838.42	228.10
838.74	228.05
839.05	228.03
839.37	228.00
839.68	227.88
840.00	227.86
840.31	227.82
840.63	227.82
840.94	227.80
841.26	227.76
841.57	227.74
841.88	227.76
842.20	227.73
842.51	227.69
842.83	227.67
843.14	227.74
843.46	227.73
843.77	227.67
844.08	227.68
844.40	227.60
844.71	227.58
845.03	227.56
845.34	227.54
845.65	227.52
845.97	227.49
846.28	227.52
846.60	227.53
846.91	227.52
847.22	227.46
847.54	227.48
847.85	227.48
848.16	227.47
848.48	227.41
848.79	227.45
849.10	227.48
849.42	227.48
849.73	227.40
850.04	227.42
850.36	227.37
850.67	227.37
850.98	227.38
851.30	227.39
851.61	227.40
851.92	227.40
852.23	227.44
852.55	227.47
852.86	227.49
853.17	227.50
853.49	227.54
853.80	227.60
854.11	227.64
854.42	227.66
854.74	227.65
855.05	227.66
855.36	227.61
855.67	227.61
855.99	227.62
856.30	227.70
856.61	227.68
856.92	227.69
857.23	227.66
857.55	227.66
857.86	227.66
858.17	227.70
858.48	227.72
858.79	227.70
859.11	227.71
859.42	227.71
859.73	227.70
860.04	227.69
860.35	227.69
860.66	227.66
860.98	227.68
861.29	227.68
861.60	227.73
861.91	227.74
862.22	227.72
862.53	227.72
862.84	227.63
863.16	227.65
863.47	227.63
863.78	227.66
864.09	227.67
864.40	227.65
864.71	227.65
865.02	227.64
865.33	227.63
865.64	227.61
865.95	227.59
866.27	227.63
866.58	227.59
866.89	227.58
867.20	227.54
867.51	227.51
867.82	227.53
868.13	227.49
868.44	227.48
868.75	227.49
869.06	227.48
869.37	227.47
869.68	227.42
869.99	227.42
870.30	227.42
870.61	227.38
870.92	227.38
871.23	227.31
871.54	227.31
871.85	227.33
872.16	227.34
872.47	227.33
872.78	227.28
873.09	227.29
873.40	227.30
873.71	227.30
874.02	227.31
874.33	227.26
874.64	227.24
874.95	227.24
875.26	227.21
875.56	227.22
875.87	227.21
876.18	227.23
876.49	227.30
876.80	227.27
877.11	227.26
877.42	227.26
877.73	227.27
878.04	227.23
878.35	227.23
878.66	227.22
878.96	227.25
879.27	227.23
879.58	227.22
879.89	227.19
880.20	227.21
880.51	227.21
880.82	227.23
881.12	227.25
881.43	227.24
881.74	227.21
882.05	227.23
882.36	227.23
882.67	227.23
882.97	227.16
883.28	227.16
883.59	227.16
883.90	227.20
884.21	227.21
884.51	227.23
884.82	227.21
885.13	227.18
885.44	227.17
885.74	227.16
886.05	227.18
886.36	227.20
886.67	227.18
886.98	227.22
887.28	227.23
887.59	227.20
887.90	227.20
888.20	227.22
888.51	227.22
888.82	227.22
889.13	227.24
889.43	227.28
889.74	227.30
890.05	227.30
890.35	227.27
890.66	227.26
890.97	227.25
891.28	227.26
891.58	227.26
891.89	227.27
892.20	227.25
892.50	227.23
892.81	227.23
893.12	227.23
893.42	227.21
893.73	227.23
894.04	227.24
894.34	227.25
894.65	227.26
894.95	227.26
895.26	227.22
895.57	227.25
895.87	227.20
896.18	227.22
896.48	227.22
896.79	227.24
897.10	227.24
897.40	227.24
897.71	227.26
898.01	227.26
898.32	227.28
898.63	227.28
898.93	227.29
899.24	227.32
899.54	227.33
899.85	227.34
900.15	227.34
900.46	227.32
900.76	227.36
901.07	227.35
901.38	227.33
901.68	227.38
901.99	227.33
902.29	227.32
902.60	227.31
902.90	227.33
903.21	227.34
903.51	227.32
903.82	227.34
904.12	227.34
904.43	227.36
904.73	227.35
905.03	227.36
905.34	227.45
905.64	227.41
905.95	227.40
906.25	227.39
906.56	227.35
906.86	227.36
907.17	227.30
907.47	227.30
907.77	227.31
908.08	227.25
908.38	227.27
908.69	227.28
908.99	227.28
909.30	227.27
909.60	227.24
909.90	227.30
910.21	227.28
910.51	227.23
910.81	227.20
911.12	227.20
911.42	227.19
911.73	227.06
912.03	227.05
912.33	227.05
912.64	227.00
912.94	227.01
913.24	227.00
913.55	227.02
913.85	226.99
914.15	226.96
914.46	226.98
914.76	226.94
915.06	226.91
915.37	226.86
915.67	226.86
915.97	226.86
916.27	226.79
916.58	226.78
916.88	226.77
917.18	226.77
917.49	226.82
917.79	226.81
918.09	226.83
918.39	226.87
918.70	226.86
919.00	226.88
919.30	226.90
919.60	226.89
919.91	226.88
920.21	226.90
920.51	226.88
920.81	226.89
921.12	226.91
921.42	226.92
921.72	226.92
922.02	226.91
922.32	226.89
922.63	226.91
922.93	226.94
923.23	226.94
923.53	226.92
923.83	226.88
924.13	226.90
924.44	226.88
924.74	226.89
925.04	226.91
925.34	226.90
925.64	226.87
925.94	226.87
926.24	226.91
926.55	226.93
926.85	226.94
927.15	226.94
927.45	226.95
927.75	226.93
928.05	226.97
928.35	226.96
928.65	226.99
928.95	227.00
929.26	227.00
929.56	227.04
929.86	227.07
930.16	227.05
930.46	227.04
930.76	227.06
931.06	227.00
931.36	226.95
931.66	226.94
931.96	227.00
932.26	227.00
932.56	226.97
932.86	226.98
933.16	227.01
933.46	226.99
933.76	226.98
934.06	227.01
934.36	227.06
934.66	227.06
934.96	227.04
935.26	227.06
935.56	227.07
935.86	227.06
936.16	227.05
936.46	227.05
936.76	227.07
937.06	227.07
937.36	227.10
937.66	227.12
937.96	227.14
938.26	227.08
938.56	227.07
938.86	227.06
939.16	227.07
939.46	227.06
939.76	227.10
940.06	227.05
940.35	227.04
940.65	227.01
940.95	227.02
941.25	227.02
941.55	226.99
941.85	226.97
942.15	226.99
942.45	226.99
942.75	226.97
943.04	226.94
943.34	226.96
943.64	226.93
943.94	226.91
944.24	226.91
944.54	226.92
944.84	226.91
945.13	226.90
945.43	226.87
945.73	226.87
946.03	226.82
946.33	226.86
946.62	226.82
946.92	226.79
947.22	226.79
947.52	226.79
947.82	226.79
948.11	226.75
948.41	226.72
948.71	226.69
949.01	226.70
949.31	226.68
949.60	226.66
949.90	226.67
950.20	226.68
950.50	226.69
950.79	226.66
951.09	226.70
951.39	226.70
951.69	226.69
951.98	226.70
952.28	226.73
952.58	226.70
952.87	226.71
953.17	226.73
953.47	226.71
953.76	226.68
954.06	226.65
954.36	226.64
954.66	226.66
954.95	226.69
955.25	226.70
955.55	226.69
955.84	226.65
956.14	226.67
956.44	226.64
956.73	226.60
957.03	226.62
957.32	226.59
957.62	226.54
957.92	226.56
958.21	226.51
958.51	226.63
958.81	226.66
959.10	226.68
959.40	226.69
959.69	226.71
959.99	226.74
960.29	226.76
960.58	226.82
960.88	226.84
961.17	226.85
961.47	226.86
961.76	226.89
962.06	226.93
962.36	226.91
962.65	226.97
962.95	226.99
963.24	226.99
963.54	227.00
963.83	227.06
964.13	227.06
964.42	227.09
964.72	226.99
965.01	226.98
965.31	226.98
965.60	226.94
965.90	227.00
966.19	227.00
966.49	227.00
966.78	226.96
967.08	226.95
967.37	226.94
967.67	226.92
967.96	226.92
968.26	226.88
968.55	226.90
968.85	226.89
969.14	226.88
969.43	226.89
969.73	226.89
970.02	226.86
970.32	226.87
970.61	226.85
970.91	226.85
971.20	226.83
971.49	226.84
971.79	226.89
972.08	226.85
972.38	226.87
972.67	226.86
972.96	226.88
973.26	226.86
973.55	226.89
973.85	226.90
974.14	226.90
974.43	226.91
974.73	226.88
975.02	226.87
975.31	226.89
975.61	226.87
975.90	226.87
976.19	226.88
976.49	226.86
976.78	226.88
977.07	226.86
977.37	226.87
977.66	226.87
977.95	226.86
978.24	226.85
978.54	226.84
978.83	226.85
979.12	226.84
979.42	226.86
979.71	226.85
980.00	226.81
980.29	226.81
980.59	226.81
980.88	226.86
981.17	226.84
981.46	226.82
981.76	226.83
982.05	226.84
982.34	226.87
982.63	226.87
982.93	226.85
983.22	226.88
983.51	226.87
983.80	226.85
984.09	226.86
984.39	226.82
984.68	226.83
984.97	226.83
985.26	226.83
985.55	226.81
985.85	226.78
986.14	226.82
986.43	226.83
986.72	226.82
987.01	226.79
987.30	226.78
987.59	226.76
987.89	226.78
988.18	226.74
988.47	226.70
988.76	226.73
989.05	226.73
989.34	226.66
989.63	226.68
989.92	226.70
990.22	226.64
990.51	226.61
990.80	226.56
991.09	226.57
991.38	226.58
991.67	226.59
991.96	226.56
992.25	226.57
992.54	226.55
992.83	226.54
993.12	226.53
993.41	226.58
993.70	226.64
993.99	226.64
994.28	226.63
994.58	226.67
994.87	226.63
995.16	226.63
995.45	226.65
995.74	226.62
996.03	226.65
996.32	226.67
996.61	226.71
996.90	226.71
997.19	226.68
997.48	226.69
997.77	226.69
998.06	226.73
998.34	226.73
998.63	226.74
998.92	226.72
999.21	226.71
999.50	226.69
999.79	226.65
1000.08	226.64
1000.37	226.71
1000.66	226.69
1000.95	226.73
1001.24	226.75
1001.53	226.79
1001.82	226.81
1002.11	226.76
1002.40	226.79
1002.68	226.81
1002.97	226.93
1003.26	226.93
1003.55	226.89
1003.84	226.91
1004.13	226.95
1004.42	226.92
1004.71	226.91
1004.99	226.93
1005.28	226.97
1005.57	226.97
1005.86	226.98
1006.15	227.00
1006.44	226.94
1006.72	226.98
1007.01	226.97
1007.30	226.96
1007.59	226.94
1007.88	226.93
1008.17	226.92
1008.45	226.92
1008.74	226.92
1009.03	226.88
1009.32	226.88
1009.60	226.90
1009.89	226.86
1010.18	226.80
1010.47	226.79
1010.76	226.79
1011.04	226.78
1011.33	226.91
1011.62	226.94
1011.91	226.92
1012.19	226.91
1012.48	226.93
1012.77	226.88
1013.05	226.92
1013.34	226.89
1013.63	226.92
1013.92	226.93
1014.20	226.96
1014.49	226.94
1014.78	226.94
1015.06	226.88
1015.35	226.89
1015.64	226.92
1015.92	226.93
1016.21	226.93
1016.50	226.94
1016.78	226.98
1017.07	227.00
1017.36	226.83
1017.64	226.78
1017.93	226.82
1018.22	226.83
1018.50	226.82
1018.79	226.82
1019.08	226.79
1019.36	226.80
1019.65	226.76
1019.93	226.78
1020.22	226.80
1020.51	226.82
1020.79	226.80
1021.08	227.03
1021.36	226.36
1021.65	226.55
1021.94	227.11
1022.22	226.59
1022.51	226.50
1022.79	227.19
1023.08	227.13
1023.36	227.45
1023.65	226.57
>>>>>End Processed Spectral Data<<<<<
