SpectraSuite Data File
++++++++++++++++++++++++++++++++++++
Date: Fri Feb 01 15:52:20 EST 2013
User: group
Dark Spectrum Present: No
Reference Spectrum Present: No
Number of Sampled Component Spectra: 1
Spectrometers: USB2E7196
Integration Time (usec): 35000 (USB2E7196)
Spectra Averaged: 100 (USB2E7196)
Boxcar Smoothing: 10 (USB2E7196)
Correct for Electrical Dark: No (USB2E7196)
Strobe/Lamp Enabled: No (USB2E7196)
Correct for Detector Non-linearity: No (USB2E7196)
Correct for Stray Light: No (USB2E7196)
Number of Pixels in Processed Spectrum: 2048
>>>>>Begin Processed Spectral Data<<<<<
339.09	0.00
339.48	214.74
339.86	216.19
340.24	217.51
340.63	219.02
341.01	222.23
341.39	221.76
341.78	223.38
342.16	224.73
342.54	225.05
342.93	213.11
343.31	223.88
343.69	224.43
344.07	224.92
344.46	225.35
344.84	225.75
345.22	225.98
345.60	226.23
345.99	226.39
346.37	226.50
346.75	226.57
347.13	226.68
347.52	226.75
347.90	226.83
348.28	226.84
348.66	226.90
349.05	226.93
349.43	226.93
349.81	226.97
350.19	227.00
350.57	227.06
350.96	227.16
351.34	227.25
351.72	227.34
352.10	227.40
352.48	227.47
352.87	227.49
353.25	227.54
353.63	227.60
354.01	227.69
354.39	227.74
354.77	227.82
355.15	227.93
355.54	228.00
355.92	228.03
356.30	228.10
356.68	228.19
357.06	228.29
357.44	228.37
357.82	228.43
358.20	228.48
358.58	228.57
358.97	228.63
359.35	228.70
359.73	228.77
360.11	228.82
360.49	228.88
360.87	228.92
361.25	228.97
361.63	229.05
362.01	229.08
362.39	229.12
362.77	229.18
363.15	229.17
363.53	229.19
363.91	229.23
364.29	229.29
364.67	229.23
365.05	229.20
365.43	229.22
365.81	229.25
366.19	229.32
366.57	229.35
366.95	229.35
367.33	229.33
367.71	229.31
368.09	229.33
368.47	229.32
368.85	229.33
369.23	229.32
369.61	229.25
369.99	229.27
370.37	229.26
370.75	229.28
371.13	229.23
371.51	229.19
371.89	229.14
372.27	229.05
372.65	229.02
373.03	228.99
373.41	228.94
373.78	228.90
374.16	228.83
374.54	228.74
374.92	228.65
375.30	228.61
375.68	228.55
376.06	228.50
376.44	228.44
376.82	228.38
377.19	228.34
377.57	228.31
377.95	228.21
378.33	228.11
378.71	227.99
379.09	227.93
379.47	227.88
379.84	227.81
380.22	227.76
380.60	227.67
380.98	227.60
381.36	227.55
381.73	227.46
382.11	227.39
382.49	227.33
382.87	227.27
383.25	227.17
383.62	227.21
384.00	227.13
384.38	227.04
384.76	227.02
385.13	226.97
385.51	226.88
385.89	226.81
386.27	226.79
386.64	226.74
387.02	226.70
387.40	226.63
387.78	226.60
388.15	226.58
388.53	226.55
388.91	226.53
389.29	226.51
389.66	226.46
390.04	226.43
390.42	226.44
390.79	226.43
391.17	226.44
391.55	226.32
391.92	226.31
392.30	226.34
392.68	226.31
393.05	226.31
393.43	226.34
393.81	226.38
394.18	226.37
394.56	226.41
394.94	226.42
395.31	226.43
395.69	226.51
396.06	226.51
396.44	226.52
396.82	226.54
397.19	226.60
397.57	226.65
397.95	226.72
398.32	226.72
398.70	226.79
399.07	226.87
399.45	226.91
399.82	226.97
400.20	227.01
400.58	227.07
400.95	227.08
401.33	227.18
401.70	227.29
402.08	227.42
402.45	227.44
402.83	227.58
403.20	227.70
403.58	227.78
403.95	227.95
404.33	228.10
404.71	228.22
405.08	228.43
405.46	228.57
405.83	228.70
406.21	228.82
406.58	228.95
406.96	229.09
407.33	229.28
407.70	229.48
408.08	229.77
408.45	229.98
408.83	230.23
409.20	230.42
409.58	230.62
409.95	230.86
410.33	231.18
410.70	231.40
411.08	231.71
411.45	232.00
411.82	232.28
412.20	232.64
412.57	233.06
412.95	233.29
413.32	233.74
413.69	234.17
414.07	234.62
414.44	235.13
414.82	235.61
415.19	236.17
415.56	236.71
415.94	237.23
416.31	237.90
416.68	238.55
417.06	239.27
417.43	239.94
417.81	240.72
418.18	241.50
418.55	242.36
418.93	243.19
419.30	244.08
419.67	244.99
420.04	245.93
420.42	246.91
420.79	248.09
421.16	249.24
421.54	250.41
421.91	251.61
422.28	252.86
422.66	254.24
423.03	255.54
423.40	256.87
423.77	258.28
424.15	259.64
424.52	261.10
424.89	262.71
425.26	264.27
425.64	265.66
426.01	267.20
426.38	268.85
426.75	270.56
427.13	272.30
427.50	274.13
427.87	276.03
428.24	277.90
428.61	279.64
428.99	281.50
429.36	283.59
429.73	285.68
430.10	287.71
430.47	289.72
430.85	291.82
431.22	294.09
431.59	296.49
431.96	298.75
432.33	301.26
432.70	303.69
433.08	306.49
433.45	309.16
433.82	311.83
434.19	314.70
434.56	317.48
434.93	320.14
435.30	322.76
435.68	325.63
436.05	328.42
436.42	331.24
436.79	333.81
437.16	336.47
437.53	339.33
437.90	342.14
438.27	344.91
438.64	347.73
439.01	350.35
439.38	352.55
439.75	354.76
440.13	357.22
440.50	359.49
440.87	361.37
441.24	363.33
441.61	365.47
441.98	366.99
442.35	368.81
442.72	370.69
443.09	372.54
443.46	373.56
443.83	374.17
444.20	374.74
444.57	375.59
444.94	375.90
445.31	376.27
445.68	376.61
446.05	376.69
446.42	376.30
446.79	375.84
447.16	375.42
447.53	375.05
447.90	373.91
448.27	372.74
448.64	371.16
449.01	370.01
449.37	368.02
449.74	366.09
450.11	363.85
450.48	361.38
450.85	358.81
451.22	356.69
451.59	354.70
451.96	352.69
452.33	350.10
452.70	347.75
453.07	344.88
453.43	341.95
453.80	339.16
454.17	336.53
454.54	334.01
454.91	331.28
455.28	328.66
455.65	326.18
456.02	323.77
456.38	321.61
456.75	318.95
457.12	316.73
457.49	314.52
457.86	312.33
458.23	310.43
458.59	308.34
458.96	306.23
459.33	304.36
459.70	302.52
460.07	301.00
460.43	299.27
460.80	297.65
461.17	296.21
461.54	294.72
461.91	293.28
462.27	291.83
462.64	290.58
463.01	289.18
463.38	287.93
463.74	286.53
464.11	285.39
464.48	284.36
464.85	283.21
465.21	282.34
465.58	281.44
465.95	280.37
466.32	279.49
466.68	278.59
467.05	277.71
467.42	276.79
467.78	275.84
468.15	274.98
468.52	274.36
468.88	273.50
469.25	272.70
469.62	272.08
469.98	271.39
470.35	270.77
470.72	270.17
471.08	269.49
471.45	268.94
471.82	268.36
472.18	267.76
472.55	267.35
472.92	266.85
473.28	266.39
473.65	265.93
474.02	265.49
474.38	265.12
474.75	264.78
475.11	264.44
475.48	264.20
475.85	263.97
476.21	263.68
476.58	263.51
476.94	263.41
477.31	263.24
477.67	263.10
478.04	262.94
478.41	262.89
478.77	262.91
479.14	262.89
479.50	262.91
479.87	263.00
480.23	263.06
480.60	263.13
480.96	263.19
481.33	263.44
481.69	263.67
482.06	263.83
482.42	264.01
482.79	264.30
483.15	264.61
483.52	265.03
483.88	265.37
484.25	265.81
484.61	266.24
484.98	266.68
485.34	267.21
485.71	267.83
486.07	268.45
486.44	269.02
486.80	269.75
487.17	270.52
487.53	271.36
487.90	272.22
488.26	273.15
488.62	274.12
488.99	275.06
489.35	276.11
489.72	277.23
490.08	278.49
490.44	279.74
490.81	281.07
491.17	282.38
491.54	283.89
491.90	285.37
492.26	286.98
492.63	288.75
492.99	290.54
493.36	292.43
493.72	294.49
494.08	296.57
494.45	298.80
494.81	301.15
495.17	303.54
495.54	306.11
495.90	308.78
496.26	311.61
496.63	314.56
496.99	317.65
497.35	320.97
497.72	324.34
498.08	327.83
498.44	331.50
498.80	335.45
499.17	339.46
499.53	343.66
499.89	348.04
500.26	352.56
500.62	357.23
500.98	362.13
501.34	367.24
501.71	372.55
502.07	378.03
502.43	383.62
502.79	389.45
503.16	395.53
503.52	401.79
503.88	408.19
504.24	414.85
504.60	421.73
504.97	428.83
505.33	436.13
505.69	443.84
506.05	451.61
506.41	459.48
506.78	467.63
507.14	476.11
507.50	484.81
507.86	493.77
508.22	503.01
508.59	512.30
508.95	521.85
509.31	531.66
509.67	541.74
510.03	551.99
510.39	562.56
510.75	573.37
511.12	584.39
511.48	595.70
511.84	607.20
512.20	618.76
512.56	630.71
512.92	642.92
513.28	655.27
513.64	667.75
514.00	680.46
514.37	693.39
514.73	706.43
515.09	719.53
515.45	732.82
515.81	746.35
516.17	760.38
516.53	774.48
516.89	788.68
517.25	802.85
517.61	817.34
517.97	831.77
518.33	846.15
518.69	860.96
519.05	875.96
519.41	891.11
519.77	906.59
520.13	921.99
520.49	937.37
520.85	952.73
521.21	968.47
521.57	984.61
521.93	1000.46
522.29	1016.91
522.65	1033.08
523.01	1049.38
523.37	1065.46
523.73	1081.59
524.09	1097.67
524.45	1114.02
524.81	1130.65
525.17	1147.44
525.53	1164.32
525.89	1181.30
526.25	1198.06
526.61	1214.36
526.97	1231.07
527.33	1247.55
527.68	1264.07
528.04	1280.52
528.40	1297.16
528.76	1314.22
529.12	1330.88
529.48	1347.66
529.84	1363.58
530.20	1380.24
530.56	1397.31
530.91	1414.64
531.27	1431.41
531.63	1447.90
531.99	1464.37
532.35	1480.27
532.71	1496.05
533.07	1512.25
533.42	1528.06
533.78	1544.13
534.14	1560.48
534.50	1575.94
534.86	1591.88
535.21	1607.16
535.57	1623.06
535.93	1638.62
536.29	1653.38
536.65	1668.32
537.00	1683.09
537.36	1698.43
537.72	1713.03
538.08	1727.28
538.44	1741.10
538.79	1754.95
539.15	1768.39
539.51	1782.09
539.87	1796.45
540.22	1810.32
540.58	1824.30
540.94	1837.68
541.29	1850.44
541.65	1863.16
542.01	1876.16
542.37	1888.45
542.72	1900.85
543.08	1912.57
543.44	1924.86
543.79	1936.10
544.15	1947.15
544.51	1958.75
544.87	1969.67
545.22	1980.38
545.58	1990.53
545.94	2000.29
546.29	2010.09
546.65	2020.16
547.01	2029.40
547.36	2038.10
547.72	2046.40
548.07	2053.98
548.43	2062.09
548.79	2070.28
549.14	2077.66
549.50	2084.94
549.86	2092.60
550.21	2099.90
550.57	2107.14
550.92	2113.70
551.28	2120.58
551.64	2127.67
551.99	2134.07
552.35	2140.16
552.70	2146.26
553.06	2152.28
553.41	2158.69
553.77	2164.65
554.13	2170.80
554.48	2177.02
554.84	2182.32
555.19	2187.77
555.55	2193.09
555.90	2197.49
556.26	2202.26
556.61	2207.03
556.97	2211.38
557.32	2215.43
557.68	2219.44
558.03	2223.69
558.39	2227.43
558.74	2232.33
559.10	2236.21
559.45	2239.94
559.81	2244.30
560.16	2248.25
560.52	2251.47
560.87	2254.75
561.23	2257.46
561.58	2260.37
561.94	2262.80
562.29	2265.37
562.64	2267.96
563.00	2270.51
563.35	2274.20
563.71	2277.34
564.06	2280.69
564.42	2283.54
564.77	2286.03
565.12	2288.32
565.48	2290.21
565.83	2292.03
566.19	2293.22
566.54	2294.10
566.89	2295.26
567.25	2295.77
567.60	2297.06
567.96	2298.68
568.31	2299.56
568.66	2300.72
569.02	2301.14
569.37	2301.47
569.72	2302.25
570.08	2302.35
570.43	2302.26
570.78	2301.40
571.14	2299.77
571.49	2298.28
571.84	2298.15
572.20	2297.11
572.55	2296.17
572.90	2294.64
573.26	2293.24
573.61	2291.55
573.96	2289.69
574.31	2286.67
574.67	2283.64
575.02	2279.91
575.37	2276.61
575.72	2272.82
576.08	2269.48
576.43	2266.23
576.78	2262.54
577.13	2259.54
577.49	2256.59
577.84	2253.17
578.19	2249.55
578.54	2245.99
578.90	2241.69
579.25	2235.96
579.60	2230.81
579.95	2225.69
580.30	2220.65
580.66	2215.47
581.01	2210.49
581.36	2205.73
581.71	2201.42
582.06	2197.03
582.42	2192.55
582.77	2187.39
583.12	2182.76
583.47	2178.03
583.82	2172.95
584.17	2167.84
584.53	2162.30
584.88	2156.48
585.23	2150.70
585.58	2145.34
585.93	2139.83
586.28	2135.16
586.63	2130.01
586.98	2125.03
587.34	2120.49
587.69	2115.66
588.04	2110.44
588.39	2104.77
588.74	2098.31
589.09	2092.29
589.44	2085.40
589.79	2079.55
590.14	2073.83
590.49	2067.37
590.84	2061.14
591.19	2055.12
591.54	2048.61
591.89	2041.01
592.25	2034.30
592.60	2026.98
592.95	2019.31
593.30	2011.99
593.65	2004.42
594.00	1997.45
594.35	1990.29
594.70	1982.18
595.05	1974.85
595.40	1967.58
595.75	1960.09
596.10	1953.79
596.45	1947.05
596.80	1941.00
597.15	1934.28
597.50	1927.11
597.85	1920.61
598.19	1913.62
598.54	1906.54
598.89	1899.83
599.24	1894.12
599.59	1887.40
599.94	1881.37
600.29	1874.93
600.64	1868.38
600.99	1860.97
601.34	1854.17
601.69	1847.25
602.04	1840.41
602.39	1833.03
602.74	1826.10
603.08	1819.31
603.43	1812.50
603.78	1805.22
604.13	1797.95
604.48	1790.59
604.83	1783.76
605.18	1776.74
605.53	1768.73
605.87	1760.74
606.22	1753.56
606.57	1745.63
606.92	1738.35
607.27	1731.13
607.62	1724.31
607.96	1716.98
608.31	1710.23
608.66	1702.67
609.01	1695.10
609.36	1687.50
609.70	1679.69
610.05	1671.66
610.40	1663.85
610.75	1655.58
611.10	1647.91
611.44	1639.60
611.79	1631.59
612.14	1622.95
612.49	1613.87
612.83	1605.72
613.18	1597.59
613.53	1589.54
613.88	1580.83
614.22	1572.38
614.57	1563.73
614.92	1555.72
615.27	1548.13
615.61	1539.78
615.96	1531.72
616.31	1524.07
616.65	1516.71
617.00	1509.03
617.35	1501.44
617.70	1493.21
618.04	1484.75
618.39	1476.56
618.74	1468.90
619.08	1460.69
619.43	1453.11
619.78	1446.12
620.12	1438.78
620.47	1431.25
620.82	1423.01
621.16	1415.77
621.51	1408.27
621.85	1400.68
622.20	1392.09
622.55	1383.71
622.89	1375.92
623.24	1368.26
623.59	1360.87
623.93	1353.33
624.28	1346.13
624.62	1338.48
624.97	1331.25
625.32	1324.55
625.66	1317.50
626.01	1310.33
626.35	1302.85
626.70	1295.05
627.04	1287.32
627.39	1279.59
627.73	1272.24
628.08	1265.37
628.43	1257.99
628.77	1250.65
629.12	1243.14
629.46	1236.05
629.81	1228.68
630.15	1221.40
630.50	1213.97
630.84	1205.77
631.19	1197.90
631.53	1190.42
631.88	1182.94
632.22	1175.29
632.57	1167.89
632.91	1160.35
633.26	1152.88
633.60	1145.45
633.95	1138.44
634.29	1131.51
634.64	1124.89
634.98	1117.46
635.32	1110.26
635.67	1103.62
636.01	1096.99
636.36	1090.14
636.70	1083.59
637.05	1077.03
637.39	1070.60
637.73	1064.09
638.08	1058.22
638.42	1052.18
638.77	1045.71
639.11	1039.08
639.45	1032.70
639.80	1026.02
640.14	1019.57
640.49	1013.05
640.83	1006.79
641.17	1000.43
641.52	993.97
641.86	987.51
642.20	981.69
642.55	975.45
642.89	969.01
643.23	962.42
643.58	956.63
643.92	950.35
644.26	944.16
644.61	938.10
644.95	932.05
645.29	925.36
645.64	918.61
645.98	912.27
646.32	906.49
646.66	900.51
647.01	894.74
647.35	889.00
647.69	883.05
648.04	877.49
648.38	871.78
648.72	865.82
649.06	859.75
649.41	853.87
649.75	847.77
650.09	841.82
650.43	836.03
650.78	829.83
651.12	823.91
651.46	818.29
651.80	812.64
652.14	807.31
652.49	801.99
652.83	796.80
653.17	791.05
653.51	785.25
653.85	779.88
654.20	774.18
654.54	768.21
654.88	762.61
655.22	756.79
655.56	751.14
655.90	745.71
656.25	740.50
656.59	735.14
656.93	730.11
657.27	724.93
657.61	719.56
657.95	714.45
658.29	709.40
658.64	704.14
658.98	698.83
659.32	693.32
659.66	688.17
660.00	682.86
660.34	677.97
660.68	673.12
661.02	668.07
661.36	663.42
661.70	658.93
662.05	654.55
662.39	650.24
662.73	645.78
663.07	641.38
663.41	636.90
663.75	632.40
664.09	627.88
664.43	623.48
664.77	619.31
665.11	615.13
665.45	611.05
665.79	606.94
666.13	602.73
666.47	598.67
666.81	594.45
667.15	590.27
667.49	586.34
667.83	582.57
668.17	578.66
668.51	574.60
668.85	570.61
669.19	566.79
669.53	562.86
669.87	558.91
670.21	555.23
670.55	551.61
670.89	548.15
671.23	544.72
671.57	541.25
671.91	537.71
672.25	534.20
672.58	530.63
672.92	527.32
673.26	524.22
673.60	521.05
673.94	517.94
674.28	515.04
674.62	512.08
674.96	508.89
675.30	505.97
675.64	503.00
675.97	500.26
676.31	497.38
676.65	494.56
676.99	491.96
677.33	489.12
677.67	486.28
678.01	483.22
678.34	480.24
678.68	477.35
679.02	474.53
679.36	471.78
679.70	469.12
680.04	466.33
680.37	463.42
680.71	460.68
681.05	458.05
681.39	455.41
681.73	452.80
682.06	450.32
682.40	447.79
682.74	445.30
683.08	442.70
683.42	440.12
683.75	437.59
684.09	434.95
684.43	432.43
684.77	430.00
685.10	427.69
685.44	425.40
685.78	423.15
686.12	420.93
686.45	418.63
686.79	416.25
687.13	414.05
687.46	411.89
687.80	409.75
688.14	407.60
688.48	405.47
688.81	403.21
689.15	401.04
689.49	398.91
689.82	396.79
690.16	394.72
690.50	392.74
690.83	390.76
691.17	388.82
691.51	386.94
691.84	385.06
692.18	383.07
692.52	381.09
692.85	379.11
693.19	377.21
693.52	375.42
693.86	373.66
694.20	371.87
694.53	370.06
694.87	368.17
695.21	366.34
695.54	364.58
695.88	362.88
696.21	361.16
696.55	359.46
696.88	357.77
697.22	356.11
697.56	354.53
697.89	352.87
698.23	351.28
698.56	349.67
698.90	348.07
699.23	346.46
699.57	344.91
699.90	343.42
700.24	341.91
700.58	340.32
700.91	338.80
701.25	337.35
701.58	335.99
701.92	334.63
702.25	333.26
702.59	331.88
702.92	330.55
703.26	329.29
703.59	328.00
703.93	326.84
704.26	325.58
704.60	324.20
704.93	322.92
705.26	321.63
705.60	320.45
705.93	319.29
706.27	318.25
706.60	317.17
706.94	316.08
707.27	314.93
707.61	313.84
707.94	312.82
708.27	311.69
708.61	310.56
708.94	309.59
709.28	308.60
709.61	307.60
709.94	306.65
710.28	305.59
710.61	304.59
710.95	303.50
711.28	302.60
711.61	301.69
711.95	300.81
712.28	299.88
712.61	298.89
712.95	297.97
713.28	297.09
713.61	296.20
713.95	295.28
714.28	294.46
714.61	293.62
714.95	292.76
715.28	291.91
715.61	291.10
715.95	290.20
716.28	289.39
716.61	288.58
716.95	287.71
717.28	286.99
717.61	286.24
717.94	285.51
718.28	284.71
718.61	283.99
718.94	283.29
719.27	282.62
719.61	282.03
719.94	281.36
720.27	280.63
720.60	280.00
720.94	279.40
721.27	278.82
721.60	278.29
721.93	277.75
722.27	277.21
722.60	276.62
722.93	276.01
723.26	275.45
723.59	274.90
723.93	274.41
724.26	273.84
724.59	273.29
724.92	272.82
725.25	272.32
725.59	271.81
725.92	271.33
726.25	270.82
726.58	270.29
726.91	269.81
727.24	269.39
727.57	268.86
727.91	268.34
728.24	267.86
728.57	267.34
728.90	266.86
729.23	266.39
729.56	265.98
729.89	265.57
730.22	265.10
730.55	264.59
730.89	264.11
731.22	263.64
731.55	263.21
731.88	262.75
732.21	262.34
732.54	261.92
732.87	261.44
733.20	261.05
733.53	260.66
733.86	260.27
734.19	259.83
734.52	259.47
734.85	259.14
735.18	258.71
735.51	258.38
735.84	257.98
736.17	257.62
736.50	257.24
736.83	257.00
737.16	256.68
737.49	256.37
737.82	256.05
738.15	255.73
738.48	255.40
738.81	255.05
739.14	254.71
739.47	254.37
739.80	254.10
740.13	253.82
740.46	253.48
740.79	253.15
741.12	252.84
741.45	252.51
741.78	252.18
742.11	251.93
742.44	251.57
742.77	251.29
743.10	250.96
743.43	250.65
743.75	250.24
744.08	250.06
744.41	249.81
744.74	249.51
745.07	249.21
745.40	248.99
745.73	248.76
746.06	248.49
746.39	248.22
746.71	247.92
747.04	247.61
747.37	247.34
747.70	247.10
748.03	246.85
748.36	246.63
748.68	246.38
749.01	246.15
749.34	245.95
749.67	245.75
750.00	245.55
750.33	245.37
750.65	245.16
750.98	244.83
751.31	244.58
751.64	244.40
751.97	244.29
752.29	244.02
752.62	243.79
752.95	243.56
753.28	243.36
753.60	243.18
753.93	243.02
754.26	242.86
754.59	242.67
754.91	242.47
755.24	242.28
755.57	242.09
755.90	241.90
756.22	241.69
756.55	241.47
756.88	241.30
757.20	241.07
757.53	240.90
757.86	240.75
758.19	240.60
758.51	240.42
758.84	240.16
759.17	240.02
759.49	239.86
759.82	239.76
760.15	239.65
760.47	239.46
760.80	239.33
761.13	239.19
761.45	239.02
761.78	238.89
762.11	238.76
762.43	238.62
762.76	238.43
763.08	238.30
763.41	238.18
763.74	238.01
764.06	237.91
764.39	237.78
764.71	237.66
765.04	237.52
765.37	237.39
765.69	237.31
766.02	237.19
766.34	237.07
766.67	236.88
767.00	236.77
767.32	236.74
767.65	236.64
767.97	236.50
768.30	236.40
768.62	236.29
768.95	236.14
769.27	236.01
769.60	235.91
769.92	235.81
770.25	235.72
770.57	235.62
770.90	235.49
771.22	235.36
771.55	235.26
771.87	235.17
772.20	235.07
772.52	235.02
772.85	235.02
773.17	234.94
773.50	234.86
773.82	234.73
774.15	234.58
774.47	234.43
774.80	234.34
775.12	234.24
775.45	234.17
775.77	234.10
776.09	234.04
776.42	233.97
776.74	233.92
777.07	233.82
777.39	233.71
777.72	233.63
778.04	233.60
778.36	233.50
778.69	233.42
779.01	233.35
779.33	233.20
779.66	233.03
779.98	232.95
780.31	232.84
780.63	232.82
780.95	232.78
781.28	232.71
781.60	232.61
781.92	232.55
782.25	232.48
782.57	232.39
782.89	232.30
783.22	232.24
783.54	232.14
783.86	232.08
784.19	232.04
784.51	232.00
784.83	231.91
785.16	231.83
785.48	231.75
785.80	231.67
786.12	231.63
786.45	231.59
786.77	231.56
787.09	231.53
787.42	231.42
787.74	231.35
788.06	231.29
788.38	231.26
788.71	231.19
789.03	231.16
789.35	231.15
789.67	231.09
789.99	231.08
790.32	231.03
790.64	230.97
790.96	231.02
791.28	230.97
791.61	230.95
791.93	230.92
792.25	230.91
792.57	230.95
792.89	230.91
793.21	230.87
793.54	230.83
793.86	230.78
794.18	230.76
794.50	230.76
794.82	230.73
795.14	230.71
795.47	230.71
795.79	230.68
796.11	230.64
796.43	230.64
796.75	230.61
797.07	230.58
797.39	230.57
797.71	230.49
798.04	230.45
798.36	230.43
798.68	230.41
799.00	230.38
799.32	230.33
799.64	230.30
799.96	230.26
800.28	230.26
800.60	230.24
800.92	230.22
801.24	230.18
801.56	230.22
801.89	230.20
802.21	230.17
802.53	230.14
802.85	230.11
803.17	230.13
803.49	230.09
803.81	230.10
804.13	230.07
804.45	230.00
804.77	230.02
805.09	230.01
805.41	229.96
805.73	229.89
806.05	229.84
806.37	229.82
806.69	229.79
807.01	229.74
807.33	229.71
807.65	229.67
807.97	229.68
808.28	229.59
808.60	229.56
808.92	229.52
809.24	229.53
809.56	229.50
809.88	229.41
810.20	229.39
810.52	229.33
810.84	229.28
811.16	229.26
811.48	229.17
811.80	229.16
812.12	229.16
812.43	229.19
812.75	229.17
813.07	229.11
813.39	229.12
813.71	229.10
814.03	229.04
814.35	229.02
814.67	228.94
814.98	228.93
815.30	228.87
815.62	228.85
815.94	228.74
816.26	228.77
816.58	228.74
816.89	228.74
817.21	228.70
817.53	228.71
817.85	228.68
818.17	228.68
818.48	228.62
818.80	228.59
819.12	228.55
819.44	228.49
819.76	228.48
820.07	228.42
820.39	228.35
820.71	228.35
821.03	228.33
821.34	228.30
821.66	228.27
821.98	228.30
822.30	228.24
822.61	228.31
822.93	228.22
823.25	228.21
823.57	228.16
823.88	228.17
824.20	228.14
824.52	228.16
824.83	228.12
825.15	228.09
825.47	228.09
825.79	228.09
826.10	228.09
826.42	228.06
826.74	228.05
827.05	228.06
827.37	228.07
827.69	228.03
828.00	228.02
828.32	228.03
828.64	227.98
828.95	228.05
829.27	227.99
829.58	228.00
829.90	227.98
830.22	227.95
830.53	227.95
830.85	227.93
831.17	227.89
831.48	227.89
831.80	227.87
832.11	227.86
832.43	227.83
832.75	227.81
833.06	227.86
833.38	227.84
833.69	227.83
834.01	227.82
834.32	227.84
834.64	227.79
834.96	227.75
835.27	227.77
835.59	227.71
835.90	227.68
836.22	227.65
836.53	227.65
836.85	227.63
837.16	227.68
837.48	227.66
837.79	227.68
838.11	227.68
838.42	227.71
838.74	227.71
839.05	227.71
839.37	227.73
839.68	227.72
840.00	227.74
840.31	227.76
840.63	227.77
840.94	227.78
841.26	227.82
841.57	227.86
841.88	227.86
842.20	227.87
842.51	227.88
842.83	227.89
843.14	227.97
843.46	227.98
843.77	227.91
844.08	227.91
844.40	227.89
844.71	227.85
845.03	227.83
845.34	227.82
845.65	227.80
845.97	227.77
846.28	227.73
846.60	227.70
846.91	227.69
847.22	227.67
847.54	227.70
847.85	227.67
848.16	227.64
848.48	227.63
848.79	227.62
849.10	227.64
849.42	227.64
849.73	227.53
850.04	227.54
850.36	227.52
850.67	227.55
850.98	227.56
851.30	227.59
851.61	227.59
851.92	227.57
852.23	227.60
852.55	227.60
852.86	227.61
853.17	227.65
853.49	227.70
853.80	227.66
854.11	227.65
854.42	227.66
854.74	227.65
855.05	227.65
855.36	227.63
855.67	227.62
855.99	227.66
856.30	227.80
856.61	227.80
856.92	227.82
857.23	227.82
857.55	227.76
857.86	227.76
858.17	227.78
858.48	227.77
858.79	227.75
859.11	227.76
859.42	227.73
859.73	227.68
860.04	227.61
860.35	227.61
860.66	227.57
860.98	227.58
861.29	227.58
861.60	227.55
861.91	227.57
862.22	227.55
862.53	227.52
862.84	227.41
863.16	227.42
863.47	227.38
863.78	227.36
864.09	227.41
864.40	227.40
864.71	227.38
865.02	227.40
865.33	227.36
865.64	227.36
865.95	227.35
866.27	227.41
866.58	227.42
866.89	227.44
867.20	227.45
867.51	227.42
867.82	227.39
868.13	227.43
868.44	227.44
868.75	227.47
869.06	227.46
869.37	227.40
869.68	227.38
869.99	227.43
870.30	227.44
870.61	227.45
870.92	227.44
871.23	227.43
871.54	227.43
871.85	227.47
872.16	227.50
872.47	227.49
872.78	227.42
873.09	227.43
873.40	227.43
873.71	227.43
874.02	227.44
874.33	227.47
874.64	227.48
874.95	227.47
875.26	227.45
875.56	227.45
875.87	227.50
876.18	227.50
876.49	227.58
876.80	227.53
877.11	227.51
877.42	227.52
877.73	227.53
878.04	227.53
878.35	227.52
878.66	227.46
878.96	227.47
879.27	227.48
879.58	227.48
879.89	227.46
880.20	227.46
880.51	227.47
880.82	227.45
881.12	227.41
881.43	227.40
881.74	227.37
882.05	227.38
882.36	227.38
882.67	227.36
882.97	227.26
883.28	227.26
883.59	227.25
883.90	227.25
884.21	227.27
884.51	227.26
884.82	227.23
885.13	227.24
885.44	227.23
885.74	227.24
886.05	227.20
886.36	227.21
886.67	227.20
886.98	227.23
887.28	227.25
887.59	227.24
887.90	227.20
888.20	227.21
888.51	227.19
888.82	227.18
889.13	227.19
889.43	227.25
889.74	227.25
890.05	227.24
890.35	227.24
890.66	227.20
890.97	227.19
891.28	227.18
891.58	227.20
891.89	227.20
892.20	227.16
892.50	227.19
892.81	227.17
893.12	227.18
893.42	227.13
893.73	227.12
894.04	227.11
894.34	227.13
894.65	227.10
894.95	227.11
895.26	227.09
895.57	227.09
895.87	227.00
896.18	227.00
896.48	226.99
896.79	226.97
897.10	226.96
897.40	226.93
897.71	226.92
898.01	226.91
898.32	226.91
898.63	226.93
898.93	226.92
899.24	226.91
899.54	226.86
899.85	226.83
900.15	226.77
900.46	226.78
900.76	226.78
901.07	226.78
901.38	226.75
901.68	226.78
901.99	226.72
902.29	226.73
902.60	226.75
902.90	226.71
903.21	226.70
903.51	226.70
903.82	226.71
904.12	226.74
904.43	226.70
904.73	226.70
905.03	226.71
905.34	226.78
905.64	226.78
905.95	226.81
906.25	226.81
906.56	226.87
906.86	226.85
907.17	226.85
907.47	226.86
907.77	226.87
908.08	226.82
908.38	226.87
908.69	226.89
908.99	226.93
909.30	226.97
909.60	226.99
909.90	227.02
910.21	227.00
910.51	226.99
910.81	227.04
911.12	227.03
911.42	227.02
911.73	226.95
912.03	226.95
912.33	226.96
912.64	226.93
912.94	226.91
913.24	226.93
913.55	226.92
913.85	226.93
914.15	226.95
914.46	226.97
914.76	226.95
915.06	226.96
915.37	226.91
915.67	226.92
915.97	226.92
916.27	226.89
916.58	226.90
916.88	226.90
917.18	226.86
917.49	226.94
917.79	226.92
918.09	226.93
918.39	226.96
918.70	226.98
919.00	227.01
919.30	227.07
919.60	227.02
919.91	227.04
920.21	227.04
920.51	227.02
920.81	227.01
921.12	227.09
921.42	227.06
921.72	227.08
922.02	227.06
922.32	227.10
922.63	227.13
922.93	227.21
923.23	227.22
923.53	227.23
923.83	227.16
924.13	227.22
924.44	227.23
924.74	227.26
925.04	227.25
925.34	227.26
925.64	227.22
925.94	227.27
926.24	227.32
926.55	227.29
926.85	227.30
927.15	227.31
927.45	227.27
927.75	227.30
928.05	227.28
928.35	227.30
928.65	227.29
928.95	227.28
929.26	227.22
929.56	227.26
929.86	227.28
930.16	227.26
930.46	227.20
930.76	227.17
931.06	227.12
931.36	227.11
931.66	227.12
931.96	227.13
932.26	227.12
932.56	227.06
932.86	227.08
933.16	227.10
933.46	227.07
933.76	227.03
934.06	227.02
934.36	227.06
934.66	227.02
934.96	227.00
935.26	226.97
935.56	227.00
935.86	226.94
936.16	226.90
936.46	226.89
936.76	226.86
937.06	226.87
937.36	226.87
937.66	226.86
937.96	226.86
938.26	226.83
938.56	226.78
938.86	226.80
939.16	226.79
939.46	226.77
939.76	226.79
940.06	226.79
940.35	226.77
940.65	226.72
940.95	226.73
941.25	226.73
941.55	226.70
941.85	226.66
942.15	226.68
942.45	226.70
942.75	226.72
943.04	226.78
943.34	226.79
943.64	226.80
943.94	226.79
944.24	226.77
944.54	226.77
944.84	226.78
945.13	226.77
945.43	226.79
945.73	226.79
946.03	226.76
946.33	226.76
946.62	226.79
946.92	226.79
947.22	226.81
947.52	226.81
947.82	226.86
948.11	226.85
948.41	226.84
948.71	226.84
949.01	226.86
949.31	226.83
949.60	226.83
949.90	226.84
950.20	226.86
950.50	226.87
950.79	226.87
951.09	226.88
951.39	226.86
951.69	226.86
951.98	226.90
952.28	226.94
952.58	226.95
952.87	226.91
953.17	226.93
953.47	226.92
953.76	226.93
954.06	226.91
954.36	226.90
954.66	226.89
954.95	226.93
955.25	226.93
955.55	226.92
955.84	226.89
956.14	226.90
956.44	226.91
956.73	226.90
957.03	226.95
957.32	226.98
957.62	226.99
957.92	227.01
958.21	226.98
958.51	227.05
958.81	227.04
959.10	227.06
959.40	227.08
959.69	227.10
959.99	227.12
960.29	227.13
960.58	227.13
960.88	227.16
961.17	227.13
961.47	227.17
961.76	227.21
962.06	227.25
962.36	227.25
962.65	227.23
962.95	227.22
963.24	227.19
963.54	227.20
963.83	227.20
964.13	227.18
964.42	227.17
964.72	227.10
965.01	227.11
965.31	227.12
965.60	227.12
965.90	227.16
966.19	227.14
966.49	227.12
966.78	227.14
967.08	227.15
967.37	227.15
967.67	227.10
967.96	227.08
968.26	227.07
968.55	227.06
968.85	227.04
969.14	227.05
969.43	227.04
969.73	226.99
970.02	226.95
970.32	226.97
970.61	226.98
970.91	226.96
971.20	226.97
971.49	226.95
971.79	226.92
972.08	226.85
972.38	226.84
972.67	226.87
972.96	226.87
973.26	226.87
973.55	226.89
973.85	226.89
974.14	226.90
974.43	226.89
974.73	226.86
975.02	226.84
975.31	226.85
975.61	226.80
975.90	226.83
976.19	226.83
976.49	226.80
976.78	226.80
977.07	226.79
977.37	226.76
977.66	226.75
977.95	226.72
978.24	226.69
978.54	226.70
978.83	226.66
979.12	226.65
979.42	226.63
979.71	226.62
980.00	226.63
980.29	226.63
980.59	226.59
980.88	226.62
981.17	226.63
981.46	226.62
981.76	226.64
982.05	226.65
982.34	226.67
982.63	226.67
982.93	226.67
983.22	226.74
983.51	226.76
983.80	226.82
984.09	226.86
984.39	226.88
984.68	226.87
984.97	226.86
985.26	226.89
985.55	226.90
985.85	226.85
986.14	226.85
986.43	226.84
986.72	226.86
987.01	226.83
987.30	226.86
987.59	226.87
987.89	226.88
988.18	226.89
988.47	226.88
988.76	226.88
989.05	226.87
989.34	226.82
989.63	226.84
989.92	226.84
990.22	226.84
990.51	226.87
990.80	226.86
991.09	226.88
991.38	226.87
991.67	226.84
991.96	226.87
992.25	226.91
992.54	226.91
992.83	226.91
993.12	226.91
993.41	226.92
993.70	226.95
993.99	226.98
994.28	227.02
994.58	227.04
994.87	227.04
995.16	227.02
995.45	227.02
995.74	226.97
996.03	226.94
996.32	226.91
996.61	226.94
996.90	226.93
997.19	226.93
997.48	226.95
997.77	226.97
998.06	226.97
998.34	226.94
998.63	226.93
998.92	226.96
999.21	226.98
999.50	226.97
999.79	226.93
1000.08	226.89
1000.37	226.85
1000.66	226.86
1000.95	226.90
1001.24	226.88
1001.53	226.91
1001.82	226.91
1002.11	226.92
1002.40	226.95
1002.68	226.94
1002.97	227.04
1003.26	227.05
1003.55	227.04
1003.84	227.02
1004.13	227.04
1004.42	227.04
1004.71	227.01
1004.99	227.00
1005.28	227.01
1005.57	226.99
1005.86	226.98
1006.15	226.98
1006.44	226.95
1006.72	226.94
1007.01	226.89
1007.30	226.93
1007.59	226.93
1007.88	226.92
1008.17	226.93
1008.45	226.90
1008.74	226.84
1009.03	226.79
1009.32	226.77
1009.60	226.72
1009.89	226.70
1010.18	226.64
1010.47	226.62
1010.76	226.65
1011.04	226.62
1011.33	226.62
1011.62	226.63
1011.91	226.67
1012.19	226.65
1012.48	226.68
1012.77	226.69
1013.05	226.74
1013.34	226.72
1013.63	226.69
1013.92	226.70
1014.20	226.68
1014.49	226.68
1014.78	226.71
1015.06	226.69
1015.35	226.70
1015.64	226.73
1015.92	226.79
1016.21	226.82
1016.50	226.80
1016.78	226.79
1017.07	226.81
1017.36	226.80
1017.64	226.79
1017.93	226.79
1018.22	226.77
1018.50	226.76
1018.79	226.77
1019.08	226.74
1019.36	226.76
1019.65	226.75
1019.93	226.79
1020.22	226.81
1020.51	226.85
1020.79	226.83
1021.08	226.02
1021.36	226.64
1021.65	227.48
1021.94	227.05
1022.22	226.92
1022.51	226.17
1022.79	227.32
1023.08	227.21
1023.36	227.77
1023.65	226.27
>>>>>End Processed Spectral Data<<<<<
