SpectraSuite Data File
++++++++++++++++++++++++++++++++++++
Date: Fri Feb 01 15:26:42 EST 2013
User: group
Dark Spectrum Present: No
Reference Spectrum Present: No
Number of Sampled Component Spectra: 1
Spectrometers: USB2E7196
Integration Time (usec): 35000 (USB2E7196)
Spectra Averaged: 100 (USB2E7196)
Boxcar Smoothing: 10 (USB2E7196)
Correct for Electrical Dark: No (USB2E7196)
Strobe/Lamp Enabled: No (USB2E7196)
Correct for Detector Non-linearity: No (USB2E7196)
Correct for Stray Light: No (USB2E7196)
Number of Pixels in Processed Spectrum: 2048
>>>>>Begin Processed Spectral Data<<<<<
339.09	0.00
339.48	214.69
339.86	216.55
340.24	217.70
340.63	219.30
341.01	222.01
341.39	222.05
341.78	223.21
342.16	224.23
342.54	224.92
342.93	213.37
343.31	224.16
343.69	224.74
344.07	225.22
344.46	225.64
344.84	226.02
345.22	226.28
345.60	226.52
345.99	226.72
346.37	226.89
346.75	227.02
347.13	227.08
347.52	227.15
347.90	227.26
348.28	227.31
348.66	227.37
349.05	227.36
349.43	227.41
349.81	227.44
350.19	227.49
350.57	227.56
350.96	227.63
351.34	227.70
351.72	227.80
352.10	227.87
352.48	227.98
352.87	228.01
353.25	228.08
353.63	228.16
354.01	228.23
354.39	228.26
354.77	228.33
355.15	228.46
355.54	228.52
355.92	228.56
356.30	228.59
356.68	228.77
357.06	228.83
357.44	228.86
357.82	228.91
358.20	228.96
358.58	229.04
358.97	229.10
359.35	229.21
359.73	229.24
360.11	229.31
360.49	229.35
360.87	229.42
361.25	229.46
361.63	229.53
362.01	229.57
362.39	229.60
362.77	229.61
363.15	229.61
363.53	229.62
363.91	229.59
364.29	229.60
364.67	229.52
365.05	229.54
365.43	229.56
365.81	229.56
366.19	229.60
366.57	229.58
366.95	229.56
367.33	229.50
367.71	229.46
368.09	229.41
368.47	229.40
368.85	229.34
369.23	229.29
369.61	229.18
369.99	229.16
370.37	229.13
370.75	229.17
371.13	229.08
371.51	229.03
371.89	229.00
372.27	228.95
372.65	228.86
373.03	228.79
373.41	228.74
373.78	228.68
374.16	228.56
374.54	228.46
374.92	228.39
375.30	228.32
375.68	228.26
376.06	228.23
376.44	228.12
376.82	228.07
377.19	228.02
377.57	227.97
377.95	227.84
378.33	227.75
378.71	227.57
379.09	227.52
379.47	227.46
379.84	227.39
380.22	227.33
380.60	227.27
380.98	227.22
381.36	227.13
381.73	227.05
382.11	227.02
382.49	226.96
382.87	226.86
383.25	226.77
383.62	226.82
384.00	226.77
384.38	226.72
384.76	226.70
385.13	226.67
385.51	226.62
385.89	226.59
386.27	226.56
386.64	226.56
387.02	226.51
387.40	226.48
387.78	226.44
388.15	226.42
388.53	226.38
388.91	226.36
389.29	226.31
389.66	226.33
390.04	226.28
390.42	226.31
390.79	226.32
391.17	226.34
391.55	226.25
391.92	226.22
392.30	226.22
392.68	226.22
393.05	226.22
393.43	226.29
393.81	226.30
394.18	226.33
394.56	226.37
394.94	226.40
395.31	226.45
395.69	226.55
396.06	226.58
396.44	226.66
396.82	226.72
397.19	226.87
397.57	226.89
397.95	226.99
398.32	227.04
398.70	227.13
399.07	227.21
399.45	227.31
399.82	227.38
400.20	227.49
400.58	227.58
400.95	227.63
401.33	227.71
401.70	227.89
402.08	227.98
402.45	228.08
402.83	228.23
403.20	228.32
403.58	228.38
403.95	228.53
404.33	228.68
404.71	228.76
405.08	228.93
405.46	229.10
405.83	229.22
406.21	229.35
406.58	229.51
406.96	229.69
407.33	229.84
407.70	230.03
408.08	230.27
408.45	230.51
408.83	230.77
409.20	230.97
409.58	231.15
409.95	231.40
410.33	231.66
410.70	231.87
411.08	232.15
411.45	232.45
411.82	232.73
412.20	233.02
412.57	233.44
412.95	233.74
413.32	234.13
413.69	234.55
414.07	234.98
414.44	235.42
414.82	235.90
415.19	236.43
415.56	237.01
415.94	237.55
416.31	238.19
416.68	238.79
417.06	239.52
417.43	240.18
417.81	240.98
418.18	241.76
418.55	242.59
418.93	243.48
419.30	244.38
419.67	245.31
420.04	246.25
420.42	247.24
420.79	248.42
421.16	249.58
421.54	250.73
421.91	251.95
422.28	253.21
422.66	254.53
423.03	255.85
423.40	257.18
423.77	258.56
424.15	259.95
424.52	261.43
424.89	263.01
425.26	264.58
425.64	265.99
426.01	267.58
426.38	269.24
426.75	270.90
427.13	272.64
427.50	274.49
427.87	276.40
428.24	278.27
428.61	279.98
428.99	281.90
429.36	284.07
429.73	286.12
430.10	288.16
430.47	290.20
430.85	292.30
431.22	294.56
431.59	296.99
431.96	299.26
432.33	301.77
432.70	304.16
433.08	306.95
433.45	309.60
433.82	312.23
434.19	315.13
434.56	317.94
434.93	320.58
435.30	323.21
435.68	326.10
436.05	328.90
436.42	331.74
436.79	334.25
437.16	336.91
437.53	339.75
437.90	342.59
438.27	345.37
438.64	348.21
439.01	350.79
439.38	353.04
439.75	355.17
440.13	357.67
440.50	360.00
440.87	361.82
441.24	363.80
441.61	365.96
441.98	367.49
442.35	369.29
442.72	371.20
443.09	373.01
443.46	374.02
443.83	374.65
444.20	375.14
444.57	375.99
444.94	376.28
445.31	376.65
445.68	376.98
446.05	377.07
446.42	376.66
446.79	376.24
447.16	375.77
447.53	375.48
447.90	374.33
448.27	373.21
448.64	371.69
449.01	370.54
449.37	368.56
449.74	366.64
450.11	364.44
450.48	361.91
450.85	359.39
451.22	357.24
451.59	355.21
451.96	353.25
452.33	350.68
452.70	348.34
453.07	345.48
453.43	342.59
453.80	339.81
454.17	337.14
454.54	334.56
454.91	331.86
455.28	329.19
455.65	326.64
456.02	324.17
456.38	322.01
456.75	319.33
457.12	317.09
457.49	314.86
457.86	312.66
458.23	310.83
458.59	308.75
458.96	306.68
459.33	304.83
459.70	302.95
460.07	301.39
460.43	299.68
460.80	298.07
461.17	296.64
461.54	295.16
461.91	293.73
462.27	292.31
462.64	291.07
463.01	289.72
463.38	288.45
463.74	287.07
464.11	285.88
464.48	284.89
464.85	283.76
465.21	282.86
465.58	281.93
465.95	280.82
466.32	279.91
466.68	278.98
467.05	278.08
467.42	277.21
467.78	276.31
468.15	275.45
468.52	274.75
468.88	273.84
469.25	273.02
469.62	272.39
469.98	271.72
470.35	271.07
470.72	270.43
471.08	269.78
471.45	269.20
471.82	268.64
472.18	268.01
472.55	267.57
472.92	267.05
473.28	266.62
473.65	266.14
474.02	265.68
474.38	265.32
474.75	264.93
475.11	264.59
475.48	264.29
475.85	264.00
476.21	263.78
476.58	263.62
476.94	263.46
477.31	263.31
477.67	263.12
478.04	263.01
478.41	262.95
478.77	262.96
479.14	262.91
479.50	262.95
479.87	263.03
480.23	263.09
480.60	263.14
480.96	263.22
481.33	263.45
481.69	263.64
482.06	263.85
482.42	264.10
482.79	264.36
483.15	264.66
483.52	265.04
483.88	265.38
484.25	265.73
484.61	266.15
484.98	266.59
485.34	267.21
485.71	267.78
486.07	268.38
486.44	268.96
486.80	269.66
487.17	270.37
487.53	271.15
487.90	272.01
488.26	272.97
488.62	273.97
488.99	274.97
489.35	276.02
489.72	277.13
490.08	278.32
490.44	279.55
490.81	280.88
491.17	282.23
491.54	283.69
491.90	285.24
492.26	286.90
492.63	288.61
492.99	290.33
493.36	292.23
493.72	294.27
494.08	296.39
494.45	298.61
494.81	301.02
495.17	303.50
495.54	306.06
495.90	308.74
496.26	311.53
496.63	314.50
496.99	317.60
497.35	320.86
497.72	324.28
498.08	327.83
498.44	331.55
498.80	335.53
499.17	339.60
499.53	343.79
499.89	348.17
500.26	352.66
500.62	357.35
500.98	362.31
501.34	367.38
501.71	372.73
502.07	378.16
502.43	383.80
502.79	389.61
503.16	395.73
503.52	402.00
503.88	408.39
504.24	415.01
504.60	421.90
504.97	429.07
505.33	436.39
505.69	444.03
506.05	451.81
506.41	459.65
506.78	467.85
507.14	476.34
507.50	485.05
507.86	494.04
508.22	503.21
508.59	512.39
508.95	522.01
509.31	531.75
509.67	541.89
510.03	552.15
510.39	562.69
510.75	573.41
511.12	584.34
511.48	595.65
511.84	607.04
512.20	618.59
512.56	630.52
512.92	642.62
513.28	654.99
513.64	667.41
514.00	680.07
514.37	692.92
514.73	705.96
515.09	719.01
515.45	732.35
515.81	745.97
516.17	760.02
516.53	774.16
516.89	788.40
517.25	802.66
517.61	817.07
517.97	831.57
518.33	846.12
518.69	860.95
519.05	875.97
519.41	891.17
519.77	906.65
520.13	922.19
520.49	937.65
520.85	953.18
521.21	968.97
521.57	985.30
521.93	1001.20
522.29	1017.54
522.65	1033.80
523.01	1050.10
523.37	1066.21
523.73	1082.48
524.09	1098.64
524.45	1114.98
524.81	1131.54
525.17	1148.44
525.53	1165.32
525.89	1182.14
526.25	1199.02
526.61	1215.36
526.97	1232.19
527.33	1248.77
527.68	1265.35
528.04	1281.94
528.40	1298.69
528.76	1315.83
529.12	1332.44
529.48	1349.33
529.84	1365.50
530.20	1382.24
530.56	1399.34
530.91	1416.70
531.27	1433.39
531.63	1449.91
531.99	1466.59
532.35	1482.71
532.71	1498.54
533.07	1514.93
533.42	1531.00
533.78	1547.11
534.14	1563.49
534.50	1578.93
534.86	1594.95
535.21	1610.09
535.57	1626.06
535.93	1641.49
536.29	1656.31
536.65	1671.47
537.00	1686.33
537.36	1701.65
537.72	1716.22
538.08	1730.60
538.44	1744.46
538.79	1758.50
539.15	1772.28
539.51	1786.07
539.87	1800.40
540.22	1814.29
540.58	1828.13
540.94	1841.52
541.29	1854.51
541.65	1867.37
542.01	1880.69
542.37	1893.01
542.72	1905.48
543.08	1917.26
543.44	1929.76
543.79	1941.01
544.15	1952.09
544.51	1963.67
544.87	1974.73
545.22	1985.54
545.58	1995.84
545.94	2005.59
546.29	2015.46
546.65	2025.34
547.01	2034.65
547.36	2043.46
547.72	2052.10
548.07	2060.03
548.43	2068.22
548.79	2076.28
549.14	2083.70
549.50	2091.06
549.86	2098.70
550.21	2106.19
550.57	2113.42
550.92	2119.84
551.28	2126.94
551.64	2134.19
551.99	2140.85
552.35	2147.02
552.70	2153.27
553.06	2159.36
553.41	2165.90
553.77	2171.96
554.13	2177.94
554.48	2184.19
554.84	2189.58
555.19	2194.86
555.55	2199.75
555.90	2204.21
556.26	2208.94
556.61	2213.78
556.97	2217.90
557.32	2221.98
557.68	2226.05
558.03	2230.39
558.39	2234.38
558.74	2238.88
559.10	2242.60
559.45	2246.20
559.81	2250.54
560.16	2254.23
560.52	2257.35
560.87	2260.72
561.23	2263.33
561.58	2266.35
561.94	2268.65
562.29	2271.11
562.64	2273.92
563.00	2276.75
563.35	2280.17
563.71	2283.37
564.06	2286.48
564.42	2289.42
564.77	2291.97
565.12	2294.30
565.48	2295.99
565.83	2297.63
566.19	2298.92
566.54	2299.93
566.89	2301.01
567.25	2301.49
567.60	2303.03
567.96	2304.70
568.31	2305.45
568.66	2306.29
569.02	2306.68
569.37	2307.02
569.72	2307.71
570.08	2307.55
570.43	2307.40
570.78	2306.76
571.14	2305.15
571.49	2303.89
571.84	2303.54
572.20	2302.37
572.55	2301.21
572.90	2299.70
573.26	2298.39
573.61	2296.79
573.96	2294.77
574.31	2291.63
574.67	2288.53
575.02	2284.75
575.37	2281.23
575.72	2277.23
576.08	2274.08
576.43	2270.81
576.78	2267.00
577.13	2263.80
577.49	2260.71
577.84	2257.14
578.19	2253.40
578.54	2249.60
578.90	2245.25
579.25	2239.65
579.60	2234.63
579.95	2229.46
580.30	2224.53
580.66	2219.18
581.01	2214.29
581.36	2209.42
581.71	2205.24
582.06	2200.65
582.42	2196.09
582.77	2190.87
583.12	2186.32
583.47	2181.57
583.82	2176.43
584.17	2171.16
584.53	2165.66
584.88	2159.96
585.23	2154.10
585.58	2148.63
585.93	2143.21
586.28	2138.38
586.63	2133.06
586.98	2127.96
587.34	2123.30
587.69	2118.19
588.04	2112.95
588.39	2107.00
588.74	2100.33
589.09	2094.12
589.44	2087.34
589.79	2081.15
590.14	2075.42
590.49	2068.85
590.84	2062.39
591.19	2056.30
591.54	2049.75
591.89	2042.18
592.25	2035.33
592.60	2028.06
592.95	2020.31
593.30	2012.90
593.65	2005.26
594.00	1998.28
594.35	1990.93
594.70	1982.81
595.05	1975.39
595.40	1968.00
595.75	1960.47
596.10	1954.14
596.45	1947.15
596.80	1940.97
597.15	1934.25
597.50	1927.03
597.85	1920.50
598.19	1913.72
598.54	1906.73
598.89	1900.13
599.24	1894.34
599.59	1887.49
599.94	1881.27
600.29	1874.89
600.64	1868.28
600.99	1860.72
601.34	1853.84
601.69	1846.80
602.04	1839.80
602.39	1832.50
602.74	1825.60
603.08	1818.83
603.43	1812.16
603.78	1804.96
604.13	1797.71
604.48	1790.39
604.83	1783.51
605.18	1776.35
605.53	1768.27
605.87	1760.15
606.22	1752.92
606.57	1744.82
606.92	1737.58
607.27	1730.37
607.62	1723.43
607.96	1716.04
608.31	1709.24
608.66	1701.52
609.01	1694.04
609.36	1686.48
609.70	1678.50
610.05	1670.39
610.40	1662.74
610.75	1654.37
611.10	1646.74
611.44	1638.31
611.79	1630.39
612.14	1621.72
612.49	1612.73
612.83	1604.48
613.18	1596.34
613.53	1588.14
613.88	1579.58
614.22	1571.18
614.57	1562.64
614.92	1554.61
615.27	1547.00
615.61	1538.87
615.96	1530.92
616.31	1523.28
616.65	1516.00
617.00	1508.47
617.35	1500.82
617.70	1492.38
618.04	1483.82
618.39	1475.54
618.74	1467.89
619.08	1459.54
619.43	1451.92
619.78	1445.05
620.12	1437.77
620.47	1430.23
620.82	1422.17
621.16	1414.79
621.51	1407.21
621.85	1399.55
622.20	1391.04
622.55	1382.74
622.89	1374.78
623.24	1367.15
623.59	1359.78
623.93	1352.11
624.28	1344.82
624.62	1337.31
624.97	1330.15
625.32	1323.44
625.66	1316.43
626.01	1309.16
626.35	1301.71
626.70	1293.91
627.04	1286.05
627.39	1278.34
627.73	1270.81
628.08	1263.81
628.43	1256.49
628.77	1249.06
629.12	1241.50
629.46	1234.29
629.81	1226.97
630.15	1219.76
630.50	1212.26
630.84	1204.01
631.19	1196.12
631.53	1188.58
631.88	1181.02
632.22	1173.41
632.57	1166.07
632.91	1158.63
633.26	1151.38
633.60	1144.12
633.95	1137.22
634.29	1130.29
634.64	1123.55
634.98	1116.19
635.32	1109.05
635.67	1102.59
636.01	1095.99
636.36	1089.15
636.70	1082.78
637.05	1076.15
637.39	1069.73
637.73	1063.28
638.08	1057.37
638.42	1051.38
638.77	1044.89
639.11	1038.30
639.45	1031.87
639.80	1025.21
640.14	1018.68
640.49	1012.07
640.83	1005.75
641.17	999.39
641.52	993.02
641.86	986.63
642.20	980.92
642.55	974.58
642.89	968.02
643.23	961.50
643.58	955.72
643.92	949.47
644.26	943.39
644.61	937.37
644.95	931.35
645.29	924.81
645.64	918.16
645.98	911.92
646.32	906.14
646.66	900.17
647.01	894.40
647.35	888.75
647.69	882.91
648.04	877.33
648.38	871.62
648.72	865.60
649.06	859.58
649.41	853.61
649.75	847.66
650.09	841.70
650.43	835.95
650.78	829.82
651.12	823.76
651.46	818.08
651.80	812.27
652.14	806.90
652.49	801.56
652.83	796.34
653.17	790.58
653.51	784.76
653.85	779.31
654.20	773.63
654.54	767.59
654.88	761.92
655.22	756.01
655.56	750.30
655.90	744.78
656.25	739.49
656.59	734.15
656.93	729.09
657.27	723.96
657.61	718.48
657.95	713.40
658.29	708.39
658.64	703.14
658.98	697.95
659.32	692.43
659.66	687.24
660.00	681.92
660.34	676.98
660.68	672.12
661.02	667.13
661.36	662.48
661.70	658.05
662.05	653.70
662.39	649.38
662.73	644.96
663.07	640.64
663.41	636.12
663.75	631.65
664.09	627.12
664.43	622.79
664.77	618.69
665.11	614.44
665.45	610.27
665.79	606.21
666.13	602.02
666.47	597.98
666.81	593.78
667.15	589.66
667.49	585.82
667.83	582.04
668.17	578.13
668.51	574.08
668.85	570.06
669.19	566.22
669.53	562.36
669.87	558.48
670.21	554.76
670.55	551.19
670.89	547.76
671.23	544.33
671.57	540.77
671.91	537.28
672.25	533.82
672.58	530.30
672.92	526.85
673.26	523.73
673.60	520.62
673.94	517.53
674.28	514.66
674.62	511.76
674.96	508.62
675.30	505.73
675.64	502.82
675.97	500.06
676.31	497.19
676.65	494.32
676.99	491.63
677.33	488.80
677.67	485.99
678.01	482.95
678.34	479.94
678.68	477.03
679.02	474.20
679.36	471.40
679.70	468.72
680.04	465.95
680.37	463.02
680.71	460.21
681.05	457.58
681.39	454.84
681.73	452.13
682.06	449.61
682.40	447.06
682.74	444.52
683.08	441.95
683.42	439.33
683.75	436.81
684.09	434.26
684.43	431.81
684.77	429.34
685.10	427.00
685.44	424.67
685.78	422.41
686.12	420.13
686.45	417.87
686.79	415.58
687.13	413.42
687.46	411.27
687.80	409.13
688.14	406.96
688.48	404.91
688.81	402.67
689.15	400.51
689.49	398.30
689.82	396.20
690.16	394.10
690.50	392.15
690.83	390.23
691.17	388.25
691.51	386.34
691.84	384.52
692.18	382.63
692.52	380.69
692.85	378.80
693.19	376.92
693.52	375.14
693.86	373.32
694.20	371.57
694.53	369.76
694.87	367.92
695.21	366.18
695.54	364.38
695.88	362.66
696.21	360.90
696.55	359.31
696.88	357.59
697.22	355.94
697.56	354.31
697.89	352.66
698.23	351.03
698.56	349.43
698.90	347.82
699.23	346.21
699.57	344.65
699.90	343.08
700.24	341.56
700.58	339.98
700.91	338.51
701.25	337.06
701.58	335.72
701.92	334.37
702.25	332.90
702.59	331.52
702.92	330.20
703.26	328.97
703.59	327.65
703.93	326.57
704.26	325.38
704.60	324.12
704.93	322.86
705.26	321.67
705.60	320.52
705.93	319.40
706.27	318.34
706.60	317.34
706.94	316.31
707.27	315.14
707.61	314.09
707.94	313.06
708.27	311.96
708.61	310.90
708.94	309.90
709.28	308.98
709.61	308.08
709.94	307.16
710.28	306.14
710.61	305.20
710.95	304.11
711.28	303.21
711.61	302.26
711.95	301.35
712.28	300.37
712.61	299.37
712.95	298.42
713.28	297.52
713.61	296.62
713.95	295.71
714.28	294.95
714.61	294.12
714.95	293.31
715.28	292.47
715.61	291.59
715.95	290.70
716.28	289.89
716.61	289.04
716.95	288.27
717.28	287.56
717.61	286.76
717.94	286.03
718.28	285.18
718.61	284.45
718.94	283.77
719.27	283.16
719.61	282.55
719.94	281.92
720.27	281.18
720.60	280.45
720.94	279.83
721.27	279.22
721.60	278.63
721.93	277.98
722.27	277.42
722.60	276.87
722.93	276.31
723.26	275.73
723.59	275.16
723.93	274.56
724.26	273.97
724.59	273.44
724.92	272.88
725.25	272.39
725.59	271.85
725.92	271.35
726.25	270.76
726.58	270.21
726.91	269.68
727.24	269.27
727.57	268.83
727.91	268.33
728.24	267.83
728.57	267.32
728.90	266.88
729.23	266.39
729.56	265.94
729.89	265.47
730.22	264.97
730.55	264.49
730.89	264.06
731.22	263.59
731.55	263.09
731.88	262.62
732.21	262.17
732.54	261.72
732.87	261.23
733.20	260.87
733.53	260.46
733.86	260.07
734.19	259.63
734.52	259.21
734.85	258.84
735.18	258.43
735.51	258.06
735.84	257.65
736.17	257.28
736.50	256.90
736.83	256.68
737.16	256.36
737.49	255.99
737.82	255.61
738.15	255.29
738.48	254.98
738.81	254.70
739.14	254.39
739.47	254.09
739.80	253.78
740.13	253.46
740.46	253.13
740.79	252.82
741.12	252.49
741.45	252.22
741.78	251.92
742.11	251.66
742.44	251.35
742.77	251.10
743.10	250.82
743.43	250.50
743.75	250.12
744.08	249.98
744.41	249.75
744.74	249.50
745.07	249.22
745.40	248.98
745.73	248.74
746.06	248.44
746.39	248.21
746.71	247.97
747.04	247.72
747.37	247.50
747.70	247.28
748.03	247.04
748.36	246.82
748.68	246.59
749.01	246.33
749.34	246.11
749.67	245.89
750.00	245.67
750.33	245.55
750.65	245.34
750.98	244.96
751.31	244.74
751.64	244.54
751.97	244.39
752.29	244.17
752.62	243.95
752.95	243.78
753.28	243.58
753.60	243.38
753.93	243.21
754.26	243.01
754.59	242.79
754.91	242.63
755.24	242.44
755.57	242.28
755.90	242.10
756.22	241.92
756.55	241.71
756.88	241.53
757.20	241.27
757.53	241.12
757.86	240.98
758.19	240.84
758.51	240.70
758.84	240.50
759.17	240.36
759.49	240.20
759.82	240.08
760.15	239.91
760.47	239.76
760.80	239.57
761.13	239.47
761.45	239.29
761.78	239.15
762.11	239.00
762.43	238.84
762.76	238.70
763.08	238.59
763.41	238.48
763.74	238.36
764.06	238.26
764.39	238.08
764.71	237.94
765.04	237.75
765.37	237.60
765.69	237.46
766.02	237.33
766.34	237.22
766.67	237.07
767.00	236.99
767.32	236.95
767.65	236.90
767.97	236.76
768.30	236.67
768.62	236.54
768.95	236.40
769.27	236.30
769.60	236.16
769.92	236.00
770.25	235.86
770.57	235.73
770.90	235.60
771.22	235.47
771.55	235.38
771.87	235.31
772.20	235.20
772.52	235.16
772.85	235.18
773.17	235.03
773.50	234.93
773.82	234.81
774.15	234.65
774.47	234.50
774.80	234.37
775.12	234.30
775.45	234.22
775.77	234.16
776.09	234.04
776.42	233.99
776.74	233.94
777.07	233.85
777.39	233.76
777.72	233.69
778.04	233.66
778.36	233.58
778.69	233.51
779.01	233.47
779.33	233.36
779.66	233.16
779.98	233.12
780.31	233.03
780.63	233.00
780.95	232.95
781.28	232.91
781.60	232.85
781.92	232.80
782.25	232.73
782.57	232.62
782.89	232.56
783.22	232.48
783.54	232.39
783.86	232.39
784.19	232.33
784.51	232.32
784.83	232.26
785.16	232.19
785.48	232.16
785.80	232.09
786.12	232.04
786.45	232.01
786.77	231.97
787.09	231.94
787.42	231.88
787.74	231.84
788.06	231.78
788.38	231.75
788.71	231.68
789.03	231.65
789.35	231.67
789.67	231.64
789.99	231.62
790.32	231.59
790.64	231.55
790.96	231.61
791.28	231.53
791.61	231.47
791.93	231.46
792.25	231.42
792.57	231.48
792.89	231.41
793.21	231.39
793.54	231.33
793.86	231.26
794.18	231.22
794.50	231.19
794.82	231.15
795.14	231.11
795.47	231.11
795.79	231.06
796.11	230.98
796.43	230.95
796.75	230.93
797.07	230.91
797.39	230.83
797.71	230.74
798.04	230.69
798.36	230.67
798.68	230.61
799.00	230.60
799.32	230.50
799.64	230.48
799.96	230.46
800.28	230.44
800.60	230.41
800.92	230.37
801.24	230.32
801.56	230.29
801.89	230.27
802.21	230.25
802.53	230.24
802.85	230.25
803.17	230.27
803.49	230.19
803.81	230.14
804.13	230.09
804.45	230.00
804.77	229.96
805.09	229.92
805.41	229.87
805.73	229.78
806.05	229.71
806.37	229.70
806.69	229.65
807.01	229.60
807.33	229.59
807.65	229.53
807.97	229.53
808.28	229.51
808.60	229.46
808.92	229.38
809.24	229.36
809.56	229.33
809.88	229.27
810.20	229.27
810.52	229.26
810.84	229.27
811.16	229.28
811.48	229.25
811.80	229.24
812.12	229.22
812.43	229.22
812.75	229.21
813.07	229.19
813.39	229.16
813.71	229.13
814.03	229.11
814.35	229.08
814.67	229.03
814.98	229.01
815.30	229.01
815.62	228.99
815.94	228.92
816.26	228.94
816.58	228.87
816.89	228.85
817.21	228.82
817.53	228.80
817.85	228.77
818.17	228.77
818.48	228.76
818.80	228.75
819.12	228.75
819.44	228.70
819.76	228.64
820.07	228.63
820.39	228.61
820.71	228.61
821.03	228.61
821.34	228.58
821.66	228.55
821.98	228.53
822.30	228.49
822.61	228.55
822.93	228.48
823.25	228.52
823.57	228.49
823.88	228.49
824.20	228.46
824.52	228.45
824.83	228.45
825.15	228.41
825.47	228.41
825.79	228.39
826.10	228.41
826.42	228.43
826.74	228.41
827.05	228.43
827.37	228.43
827.69	228.41
828.00	228.40
828.32	228.43
828.64	228.45
828.95	228.51
829.27	228.48
829.58	228.51
829.90	228.46
830.22	228.44
830.53	228.39
830.85	228.40
831.17	228.37
831.48	228.39
831.80	228.40
832.11	228.39
832.43	228.39
832.75	228.36
833.06	228.39
833.38	228.39
833.69	228.35
834.01	228.32
834.32	228.34
834.64	228.33
834.96	228.31
835.27	228.25
835.59	228.24
835.90	228.18
836.22	228.13
836.53	228.14
836.85	228.15
837.16	228.27
837.48	228.28
837.79	228.32
838.11	228.30
838.42	228.29
838.74	228.32
839.05	228.30
839.37	228.31
839.68	228.26
840.00	228.25
840.31	228.25
840.63	228.22
840.94	228.19
841.26	228.17
841.57	228.14
841.88	228.17
842.20	228.10
842.51	228.12
842.83	228.12
843.14	228.19
843.46	228.18
843.77	228.12
844.08	228.07
844.40	228.06
844.71	228.03
845.03	228.01
845.34	227.95
845.65	227.91
845.97	227.89
846.28	227.87
846.60	227.87
846.91	227.89
847.22	227.90
847.54	227.94
847.85	227.92
848.16	227.93
848.48	227.90
848.79	227.97
849.10	227.97
849.42	227.95
849.73	227.84
850.04	227.83
850.36	227.78
850.67	227.82
850.98	227.82
851.30	227.82
851.61	227.83
851.92	227.84
852.23	227.88
852.55	227.87
852.86	227.88
853.17	227.86
853.49	227.85
853.80	227.84
854.11	227.82
854.42	227.83
854.74	227.79
855.05	227.81
855.36	227.71
855.67	227.72
855.99	227.75
856.30	227.84
856.61	227.81
856.92	227.80
857.23	227.79
857.55	227.81
857.86	227.79
858.17	227.75
858.48	227.73
858.79	227.71
859.11	227.74
859.42	227.72
859.73	227.71
860.04	227.71
860.35	227.69
860.66	227.66
860.98	227.70
861.29	227.70
861.60	227.69
861.91	227.73
862.22	227.72
862.53	227.71
862.84	227.63
863.16	227.68
863.47	227.67
863.78	227.64
864.09	227.58
864.40	227.57
864.71	227.61
865.02	227.61
865.33	227.59
865.64	227.54
865.95	227.56
866.27	227.62
866.58	227.61
866.89	227.62
867.20	227.64
867.51	227.57
867.82	227.57
868.13	227.58
868.44	227.55
868.75	227.57
869.06	227.56
869.37	227.57
869.68	227.54
869.99	227.54
870.30	227.55
870.61	227.56
870.92	227.56
871.23	227.56
871.54	227.56
871.85	227.58
872.16	227.60
872.47	227.57
872.78	227.53
873.09	227.55
873.40	227.54
873.71	227.54
874.02	227.58
874.33	227.60
874.64	227.59
874.95	227.61
875.26	227.59
875.56	227.59
875.87	227.56
876.18	227.54
876.49	227.64
876.80	227.60
877.11	227.61
877.42	227.60
877.73	227.58
878.04	227.57
878.35	227.59
878.66	227.61
878.96	227.62
879.27	227.58
879.58	227.56
879.89	227.53
880.20	227.52
880.51	227.49
880.82	227.47
881.12	227.45
881.43	227.41
881.74	227.38
882.05	227.34
882.36	227.37
882.67	227.37
882.97	227.27
883.28	227.30
883.59	227.28
883.90	227.28
884.21	227.33
884.51	227.31
884.82	227.28
885.13	227.27
885.44	227.26
885.74	227.29
886.05	227.28
886.36	227.32
886.67	227.33
886.98	227.41
887.28	227.42
887.59	227.44
887.90	227.47
888.20	227.47
888.51	227.50
888.82	227.49
889.13	227.50
889.43	227.56
889.74	227.53
890.05	227.50
890.35	227.50
890.66	227.46
890.97	227.45
891.28	227.44
891.58	227.44
891.89	227.43
892.20	227.38
892.50	227.38
892.81	227.35
893.12	227.32
893.42	227.27
893.73	227.25
894.04	227.23
894.34	227.23
894.65	227.23
894.95	227.24
895.26	227.22
895.57	227.27
895.87	227.19
896.18	227.20
896.48	227.21
896.79	227.25
897.10	227.25
897.40	227.24
897.71	227.23
898.01	227.23
898.32	227.23
898.63	227.25
898.93	227.26
899.24	227.25
899.54	227.22
899.85	227.18
900.15	227.19
900.46	227.21
900.76	227.20
901.07	227.20
901.38	227.16
901.68	227.17
901.99	227.11
902.29	227.12
902.60	227.12
902.90	227.12
903.21	227.06
903.51	227.04
903.82	227.07
904.12	227.08
904.43	227.06
904.73	227.08
905.03	227.09
905.34	227.15
905.64	227.14
905.95	227.16
906.25	227.16
906.56	227.16
906.86	227.14
907.17	227.16
907.47	227.19
907.77	227.21
908.08	227.17
908.38	227.19
908.69	227.19
908.99	227.20
909.30	227.22
909.60	227.24
909.90	227.24
910.21	227.21
910.51	227.21
910.81	227.24
911.12	227.22
911.42	227.20
911.73	227.14
912.03	227.17
912.33	227.18
912.64	227.18
912.94	227.18
913.24	227.18
913.55	227.14
913.85	227.12
914.15	227.16
914.46	227.14
914.76	227.11
915.06	227.11
915.37	227.10
915.67	227.05
915.97	227.07
916.27	227.08
916.58	227.10
916.88	227.12
917.18	227.12
917.49	227.20
917.79	227.23
918.09	227.23
918.39	227.24
918.70	227.25
919.00	227.27
919.30	227.29
919.60	227.28
919.91	227.28
920.21	227.27
920.51	227.24
920.81	227.27
921.12	227.31
921.42	227.29
921.72	227.29
922.02	227.33
922.32	227.33
922.63	227.32
922.93	227.35
923.23	227.35
923.53	227.30
923.83	227.21
924.13	227.20
924.44	227.20
924.74	227.22
925.04	227.22
925.34	227.21
925.64	227.17
925.94	227.17
926.24	227.21
926.55	227.21
926.85	227.22
927.15	227.21
927.45	227.19
927.75	227.19
928.05	227.22
928.35	227.18
928.65	227.19
928.95	227.21
929.26	227.17
929.56	227.18
929.86	227.23
930.16	227.24
930.46	227.24
930.76	227.23
931.06	227.17
931.36	227.16
931.66	227.18
931.96	227.21
932.26	227.19
932.56	227.17
932.86	227.20
933.16	227.18
933.46	227.19
933.76	227.17
934.06	227.20
934.36	227.22
934.66	227.23
934.96	227.19
935.26	227.16
935.56	227.15
935.86	227.12
936.16	227.09
936.46	227.09
936.76	227.06
937.06	227.05
937.36	227.07
937.66	227.06
937.96	227.08
938.26	227.04
938.56	227.05
938.86	227.03
939.16	227.03
939.46	227.04
939.76	227.02
940.06	227.05
940.35	227.02
940.65	226.95
940.95	226.98
941.25	226.98
941.55	226.99
941.85	226.99
942.15	227.01
942.45	227.04
942.75	227.04
943.04	227.08
943.34	227.09
943.64	227.09
943.94	227.07
944.24	227.04
944.54	227.05
944.84	227.02
945.13	227.07
945.43	227.06
945.73	227.05
946.03	227.07
946.33	227.07
946.62	227.06
946.92	227.08
947.22	227.07
947.52	227.11
947.82	227.13
948.11	227.13
948.41	227.12
948.71	227.08
949.01	227.09
949.31	227.07
949.60	227.06
949.90	227.08
950.20	227.11
950.50	227.13
950.79	227.12
951.09	227.18
951.39	227.15
951.69	227.13
951.98	227.15
952.28	227.18
952.58	227.14
952.87	227.16
953.17	227.17
953.47	227.19
953.76	227.17
954.06	227.14
954.36	227.12
954.66	227.13
954.95	227.17
955.25	227.16
955.55	227.18
955.84	227.17
956.14	227.18
956.44	227.19
956.73	227.18
957.03	227.18
957.32	227.17
957.62	227.17
957.92	227.16
958.21	227.14
958.51	227.21
958.81	227.22
959.10	227.22
959.40	227.25
959.69	227.21
959.99	227.22
960.29	227.22
960.58	227.24
960.88	227.23
961.17	227.22
961.47	227.25
961.76	227.24
962.06	227.26
962.36	227.25
962.65	227.20
962.95	227.20
963.24	227.20
963.54	227.16
963.83	227.16
964.13	227.18
964.42	227.16
964.72	227.08
965.01	227.09
965.31	227.07
965.60	227.05
965.90	227.13
966.19	227.12
966.49	227.11
966.78	227.10
967.08	227.08
967.37	227.04
967.67	226.99
967.96	226.98
968.26	226.97
968.55	226.95
968.85	226.99
969.14	226.97
969.43	226.96
969.73	226.97
970.02	226.97
970.32	226.95
970.61	226.94
970.91	226.90
971.20	226.90
971.49	226.87
971.79	226.86
972.08	226.77
972.38	226.80
972.67	226.80
972.96	226.78
973.26	226.78
973.55	226.84
973.85	226.83
974.14	226.81
974.43	226.80
974.73	226.79
975.02	226.79
975.31	226.78
975.61	226.77
975.90	226.78
976.19	226.75
976.49	226.74
976.78	226.75
977.07	226.75
977.37	226.78
977.66	226.80
977.95	226.76
978.24	226.81
978.54	226.80
978.83	226.79
979.12	226.76
979.42	226.78
979.71	226.74
980.00	226.74
980.29	226.75
980.59	226.76
980.88	226.78
981.17	226.78
981.46	226.77
981.76	226.79
982.05	226.82
982.34	226.83
982.63	226.86
982.93	226.85
983.22	226.88
983.51	226.85
983.80	226.89
984.09	226.93
984.39	226.93
984.68	226.92
984.97	226.95
985.26	226.98
985.55	226.97
985.85	226.99
986.14	227.02
986.43	227.03
986.72	227.01
987.01	227.01
987.30	227.01
987.59	227.01
987.89	227.02
988.18	227.02
988.47	227.05
988.76	227.02
989.05	227.02
989.34	227.04
989.63	227.10
989.92	227.07
990.22	227.08
990.51	227.08
990.80	227.08
991.09	227.08
991.38	227.09
991.67	227.11
991.96	227.10
992.25	227.10
992.54	227.12
992.83	227.14
993.12	227.12
993.41	227.15
993.70	227.23
993.99	227.22
994.28	227.24
994.58	227.25
994.87	227.25
995.16	227.29
995.45	227.25
995.74	227.23
996.03	227.26
996.32	227.26
996.61	227.26
996.90	227.25
997.19	227.25
997.48	227.24
997.77	227.23
998.06	227.22
998.34	227.20
998.63	227.19
998.92	227.21
999.21	227.22
999.50	227.20
999.79	227.14
1000.08	227.16
1000.37	227.15
1000.66	227.14
1000.95	227.17
1001.24	227.14
1001.53	227.14
1001.82	227.14
1002.11	227.10
1002.40	227.10
1002.68	227.13
1002.97	227.20
1003.26	227.17
1003.55	227.14
1003.84	227.16
1004.13	227.22
1004.42	227.22
1004.71	227.22
1004.99	227.17
1005.28	227.20
1005.57	227.20
1005.86	227.18
1006.15	227.17
1006.44	227.13
1006.72	227.12
1007.01	227.11
1007.30	227.12
1007.59	227.10
1007.88	227.04
1008.17	227.07
1008.45	227.04
1008.74	227.00
1009.03	226.94
1009.32	226.93
1009.60	226.91
1009.89	226.88
1010.18	226.79
1010.47	226.81
1010.76	226.77
1011.04	226.79
1011.33	226.81
1011.62	226.78
1011.91	226.82
1012.19	226.78
1012.48	226.77
1012.77	226.77
1013.05	226.80
1013.34	226.81
1013.63	226.81
1013.92	226.84
1014.20	226.81
1014.49	226.81
1014.78	226.80
1015.06	226.75
1015.35	226.78
1015.64	226.83
1015.92	226.83
1016.21	226.90
1016.50	226.89
1016.78	226.89
1017.07	226.91
1017.36	226.84
1017.64	226.84
1017.93	226.84
1018.22	226.84
1018.50	226.86
1018.79	226.90
1019.08	226.84
1019.36	226.84
1019.65	226.83
1019.93	226.87
1020.22	226.91
1020.51	226.98
1020.79	227.00
1021.08	226.63
1021.36	226.90
1021.65	227.50
1021.94	226.45
1022.22	227.12
1022.51	226.64
1022.79	227.42
1023.08	227.29
1023.36	228.49
1023.65	227.06
>>>>>End Processed Spectral Data<<<<<
