SpectraSuite Data File
++++++++++++++++++++++++++++++++++++
Date: Fri Feb 01 16:09:21 EST 2013
User: group
Dark Spectrum Present: No
Reference Spectrum Present: No
Number of Sampled Component Spectra: 1
Spectrometers: USB2E7196
Integration Time (usec): 35000 (USB2E7196)
Spectra Averaged: 100 (USB2E7196)
Boxcar Smoothing: 10 (USB2E7196)
Correct for Electrical Dark: No (USB2E7196)
Strobe/Lamp Enabled: No (USB2E7196)
Correct for Detector Non-linearity: No (USB2E7196)
Correct for Stray Light: No (USB2E7196)
Number of Pixels in Processed Spectrum: 2048
>>>>>Begin Processed Spectral Data<<<<<
339.09	0.00
339.48	215.03
339.86	216.18
340.24	216.92
340.63	218.73
341.01	221.74
341.39	221.01
341.78	222.89
342.16	224.24
342.54	224.41
342.93	212.78
343.31	223.52
343.69	224.03
344.07	224.51
344.46	224.96
344.84	225.34
345.22	225.55
345.60	225.82
345.99	226.03
346.37	226.14
346.75	226.24
347.13	226.33
347.52	226.38
347.90	226.50
348.28	226.51
348.66	226.57
349.05	226.58
349.43	226.61
349.81	226.67
350.19	226.71
350.57	226.78
350.96	226.87
351.34	226.95
351.72	227.03
352.10	227.11
352.48	227.19
352.87	227.24
353.25	227.34
353.63	227.40
354.01	227.45
354.39	227.56
354.77	227.67
355.15	227.78
355.54	227.87
355.92	227.88
356.30	227.98
356.68	228.13
357.06	228.20
357.44	228.24
357.82	228.26
358.20	228.35
358.58	228.44
358.97	228.51
359.35	228.62
359.73	228.73
360.11	228.77
360.49	228.82
360.87	228.84
361.25	228.89
361.63	228.97
362.01	229.04
362.39	229.04
362.77	229.04
363.15	229.05
363.53	229.05
363.91	229.09
364.29	229.09
364.67	229.01
365.05	229.05
365.43	229.09
365.81	229.13
366.19	229.15
366.57	229.18
366.95	229.16
367.33	229.10
367.71	229.06
368.09	229.07
368.47	229.03
368.85	229.03
369.23	229.01
369.61	228.97
369.99	228.93
370.37	228.93
370.75	228.94
371.13	228.88
371.51	228.84
371.89	228.82
372.27	228.79
372.65	228.76
373.03	228.68
373.41	228.62
373.78	228.53
374.16	228.41
374.54	228.32
374.92	228.25
375.30	228.19
375.68	228.11
376.06	228.03
376.44	227.97
376.82	227.92
377.19	227.86
377.57	227.79
377.95	227.71
378.33	227.61
378.71	227.46
379.09	227.41
379.47	227.35
379.84	227.25
380.22	227.17
380.60	227.07
380.98	227.02
381.36	226.96
381.73	226.91
382.11	226.90
382.49	226.85
382.87	226.76
383.25	226.69
383.62	226.74
384.00	226.68
384.38	226.63
384.76	226.60
385.13	226.57
385.51	226.51
385.89	226.45
386.27	226.38
386.64	226.38
387.02	226.32
387.40	226.27
387.78	226.24
388.15	226.21
388.53	226.20
388.91	226.14
389.29	226.10
389.66	226.10
390.04	226.04
390.42	226.02
390.79	226.03
391.17	226.01
391.55	225.91
391.92	225.91
392.30	225.91
392.68	225.86
393.05	225.84
393.43	225.83
393.81	225.83
394.18	225.85
394.56	225.84
394.94	225.90
395.31	225.91
395.69	225.93
396.06	225.98
396.44	226.02
396.82	226.09
397.19	226.17
397.57	226.21
397.95	226.28
398.32	226.31
398.70	226.37
399.07	226.46
399.45	226.49
399.82	226.55
400.20	226.61
400.58	226.72
400.95	226.78
401.33	226.86
401.70	227.03
402.08	227.15
402.45	227.27
402.83	227.38
403.20	227.51
403.58	227.63
403.95	227.76
404.33	227.90
404.71	227.98
405.08	228.18
405.46	228.31
405.83	228.45
406.21	228.61
406.58	228.76
406.96	228.91
407.33	229.15
407.70	229.35
408.08	229.63
408.45	229.85
408.83	230.07
409.20	230.31
409.58	230.47
409.95	230.73
410.33	231.01
410.70	231.24
411.08	231.56
411.45	231.88
411.82	232.19
412.20	232.51
412.57	232.98
412.95	233.27
413.32	233.64
413.69	234.05
414.07	234.49
414.44	234.95
414.82	235.44
415.19	235.96
415.56	236.49
415.94	237.01
416.31	237.64
416.68	238.26
417.06	238.96
417.43	239.67
417.81	240.44
418.18	241.20
418.55	242.03
418.93	242.87
419.30	243.77
419.67	244.69
420.04	245.65
420.42	246.61
420.79	247.76
421.16	248.92
421.54	250.08
421.91	251.31
422.28	252.60
422.66	253.93
423.03	255.22
423.40	256.55
423.77	257.96
424.15	259.38
424.52	260.86
424.89	262.46
425.26	263.96
425.64	265.40
426.01	266.98
426.38	268.64
426.75	270.31
427.13	272.02
427.50	273.82
427.87	275.71
428.24	277.55
428.61	279.31
428.99	281.24
429.36	283.34
429.73	285.38
430.10	287.43
430.47	289.50
430.85	291.65
431.22	293.86
431.59	296.22
431.96	298.47
432.33	300.93
432.70	303.31
433.08	306.12
433.45	308.75
433.82	311.33
434.19	314.18
434.56	316.99
434.93	319.62
435.30	322.20
435.68	325.09
436.05	327.93
436.42	330.68
436.79	333.20
437.16	335.94
437.53	338.78
437.90	341.55
438.27	344.27
438.64	347.03
439.01	349.65
439.38	351.89
439.75	354.03
440.13	356.57
440.50	358.91
440.87	360.75
441.24	362.66
441.61	364.87
441.98	366.42
442.35	368.20
442.72	370.05
443.09	371.90
443.46	372.82
443.83	373.42
444.20	373.96
444.57	374.80
444.94	375.02
445.31	375.34
445.68	375.71
446.05	375.75
446.42	375.36
446.79	374.97
447.16	374.51
447.53	374.20
447.90	373.06
448.27	371.89
448.64	370.37
449.01	369.26
449.37	367.27
449.74	365.35
450.11	363.10
450.48	360.67
450.85	358.10
451.22	356.02
451.59	353.97
451.96	352.02
452.33	349.39
452.70	347.06
453.07	344.24
453.43	341.33
453.80	338.60
454.17	335.93
454.54	333.36
454.91	330.67
455.28	328.00
455.65	325.47
456.02	323.02
456.38	320.84
456.75	318.19
457.12	315.94
457.49	313.73
457.86	311.54
458.23	309.65
458.59	307.64
458.96	305.54
459.33	303.70
459.70	301.84
460.07	300.36
460.43	298.63
460.80	297.02
461.17	295.57
461.54	294.08
461.91	292.67
462.27	291.19
462.64	289.92
463.01	288.59
463.38	287.30
463.74	285.92
464.11	284.76
464.48	283.75
464.85	282.65
465.21	281.76
465.58	280.86
465.95	279.78
466.32	278.85
466.68	277.97
467.05	277.08
467.42	276.19
467.78	275.26
468.15	274.38
468.52	273.67
468.88	272.81
469.25	272.02
469.62	271.40
469.98	270.75
470.35	270.09
470.72	269.44
471.08	268.79
471.45	268.27
471.82	267.70
472.18	267.07
472.55	266.63
472.92	266.11
473.28	265.65
473.65	265.21
474.02	264.81
474.38	264.42
474.75	264.11
475.11	263.75
475.48	263.51
475.85	263.28
476.21	263.05
476.58	262.88
476.94	262.77
477.31	262.60
477.67	262.49
478.04	262.45
478.41	262.43
478.77	262.51
479.14	262.43
479.50	262.47
479.87	262.61
480.23	262.68
480.60	262.78
480.96	262.87
481.33	263.07
481.69	263.23
482.06	263.41
482.42	263.59
482.79	263.86
483.15	264.19
483.52	264.58
483.88	264.99
484.25	265.34
484.61	265.79
484.98	266.27
485.34	266.83
485.71	267.39
486.07	267.99
486.44	268.55
486.80	269.29
487.17	269.99
487.53	270.76
487.90	271.61
488.26	272.54
488.62	273.53
488.99	274.51
489.35	275.60
489.72	276.75
490.08	277.99
490.44	279.25
490.81	280.57
491.17	281.94
491.54	283.37
491.90	284.94
492.26	286.59
492.63	288.35
492.99	290.09
493.36	291.95
493.72	294.00
494.08	296.13
494.45	298.38
494.81	300.79
495.17	303.26
495.54	305.92
495.90	308.62
496.26	311.46
496.63	314.45
496.99	317.55
497.35	320.84
497.72	324.24
498.08	327.74
498.44	331.40
498.80	335.35
499.17	339.43
499.53	343.61
499.89	347.96
500.26	352.49
500.62	357.20
500.98	362.21
501.34	367.30
501.71	372.58
502.07	378.03
502.43	383.65
502.79	389.46
503.16	395.51
503.52	401.78
503.88	408.23
504.24	414.85
504.60	421.75
504.97	428.91
505.33	436.27
505.69	443.97
506.05	451.82
506.41	459.73
506.78	467.89
507.14	476.39
507.50	485.15
507.86	494.16
508.22	503.34
508.59	512.60
508.95	522.22
509.31	532.09
509.67	542.18
510.03	552.47
510.39	563.07
510.75	573.82
511.12	584.76
511.48	596.05
511.84	607.55
512.20	619.04
512.56	630.91
512.92	643.10
513.28	655.54
513.64	667.99
514.00	680.68
514.37	693.68
514.73	706.66
515.09	719.65
515.45	732.91
515.81	746.50
516.17	760.49
516.53	774.54
516.89	788.65
517.25	802.84
517.61	817.33
517.97	831.69
518.33	846.16
518.69	860.92
519.05	875.79
519.41	890.95
519.77	906.46
520.13	921.90
520.49	937.22
520.85	952.55
521.21	968.24
521.57	984.44
521.93	1000.13
522.29	1016.43
522.65	1032.73
523.01	1048.87
523.37	1064.83
523.73	1080.98
524.09	1097.03
524.45	1113.28
524.81	1129.88
525.17	1146.61
525.53	1163.46
525.89	1180.18
526.25	1196.98
526.61	1213.36
526.97	1230.08
527.33	1246.63
527.68	1263.21
528.04	1279.75
528.40	1296.30
528.76	1313.36
529.12	1329.98
529.48	1346.85
529.84	1362.87
530.20	1379.48
530.56	1396.42
530.91	1413.92
531.27	1430.59
531.63	1447.15
531.99	1463.69
532.35	1479.52
532.71	1495.26
533.07	1511.46
533.42	1527.36
533.78	1543.42
534.14	1559.74
534.50	1575.00
534.86	1590.64
535.21	1605.76
535.57	1621.49
535.93	1636.91
536.29	1651.47
536.65	1666.34
537.00	1680.93
537.36	1696.25
537.72	1710.59
538.08	1725.05
538.44	1738.74
538.79	1752.50
539.15	1765.83
539.51	1779.41
539.87	1793.74
540.22	1807.32
540.58	1820.87
540.94	1834.07
541.29	1846.81
541.65	1859.37
542.01	1872.41
542.37	1884.65
542.72	1896.96
543.08	1908.67
543.44	1920.91
543.79	1932.17
544.15	1943.06
544.51	1954.61
544.87	1965.49
545.22	1976.27
545.58	1986.31
545.94	1996.05
546.29	2005.79
546.65	2015.85
547.01	2025.19
547.36	2033.87
547.72	2042.44
548.07	2050.47
548.43	2058.64
548.79	2066.49
549.14	2074.03
549.50	2081.36
549.86	2089.11
550.21	2096.44
550.57	2103.75
550.92	2110.44
551.28	2117.44
551.64	2124.52
551.99	2131.01
552.35	2137.11
552.70	2143.30
553.06	2149.45
553.41	2155.73
553.77	2161.88
554.13	2167.88
554.48	2174.07
554.84	2179.46
555.19	2184.68
555.55	2189.77
555.90	2194.39
556.26	2199.50
556.61	2204.29
556.97	2208.65
557.32	2212.70
557.68	2216.87
558.03	2221.03
558.39	2224.72
558.74	2229.40
559.10	2233.36
559.45	2236.96
559.81	2241.34
560.16	2245.17
560.52	2248.32
560.87	2251.68
561.23	2254.29
561.58	2257.32
561.94	2259.82
562.29	2262.19
562.64	2264.92
563.00	2267.52
563.35	2270.93
563.71	2273.97
564.06	2277.05
564.42	2279.88
564.77	2282.54
565.12	2284.77
565.48	2286.69
565.83	2288.49
566.19	2289.88
566.54	2290.68
566.89	2291.90
567.25	2292.34
567.60	2293.64
567.96	2295.42
568.31	2296.25
568.66	2297.44
569.02	2297.85
569.37	2298.28
569.72	2299.31
570.08	2299.54
570.43	2299.68
570.78	2299.16
571.14	2297.65
571.49	2296.33
571.84	2296.09
572.20	2295.08
572.55	2294.13
572.90	2292.51
573.26	2291.19
573.61	2289.34
573.96	2287.82
574.31	2284.95
574.67	2282.09
575.02	2278.42
575.37	2275.00
575.72	2271.35
576.08	2268.00
576.43	2264.74
576.78	2261.00
577.13	2257.69
577.49	2254.56
577.84	2251.08
578.19	2247.33
578.54	2243.75
578.90	2239.64
579.25	2234.07
579.60	2229.03
579.95	2223.97
580.30	2219.05
580.66	2213.90
581.01	2209.07
581.36	2203.88
581.71	2199.70
582.06	2195.36
582.42	2191.09
582.77	2185.87
583.12	2181.45
583.47	2176.81
583.82	2171.97
584.17	2166.81
584.53	2161.53
584.88	2155.86
585.23	2150.21
585.58	2144.76
585.93	2139.22
586.28	2134.38
586.63	2129.40
586.98	2124.40
587.34	2119.73
587.69	2114.72
588.04	2109.48
588.39	2103.89
588.74	2097.60
589.09	2091.58
589.44	2084.80
589.79	2078.58
590.14	2072.99
590.49	2066.24
590.84	2059.83
591.19	2053.74
591.54	2047.35
591.89	2039.96
592.25	2033.25
592.60	2025.97
592.95	2018.42
593.30	2011.14
593.65	2003.45
594.00	1996.41
594.35	1989.09
594.70	1981.01
595.05	1973.98
595.40	1966.77
595.75	1959.39
596.10	1953.18
596.45	1946.31
596.80	1940.11
597.15	1933.68
597.50	1926.69
597.85	1920.29
598.19	1913.60
598.54	1906.56
598.89	1899.79
599.24	1893.82
599.59	1887.18
599.94	1881.09
600.29	1874.73
600.64	1868.22
600.99	1860.96
601.34	1854.15
601.69	1847.24
602.04	1840.47
602.39	1833.14
602.74	1826.35
603.08	1819.47
603.43	1812.71
603.78	1805.43
604.13	1798.24
604.48	1791.04
604.83	1784.05
605.18	1777.13
605.53	1769.11
605.87	1761.03
606.22	1753.81
606.57	1745.86
606.92	1738.44
607.27	1731.22
607.62	1724.29
607.96	1716.96
608.31	1710.28
608.66	1702.49
609.01	1694.96
609.36	1687.28
609.70	1679.30
610.05	1671.18
610.40	1663.47
610.75	1655.14
611.10	1647.45
611.44	1639.13
611.79	1630.95
612.14	1622.38
612.49	1613.12
612.83	1604.82
613.18	1596.83
613.53	1588.84
613.88	1580.31
614.22	1572.19
614.57	1563.45
614.92	1555.46
615.27	1547.90
615.61	1539.56
615.96	1531.72
616.31	1524.14
616.65	1516.87
617.00	1509.21
617.35	1501.60
617.70	1493.32
618.04	1484.90
618.39	1476.75
618.74	1469.02
619.08	1460.67
619.43	1453.03
619.78	1446.20
620.12	1439.07
620.47	1431.50
620.82	1423.25
621.16	1415.91
621.51	1408.18
621.85	1400.61
622.20	1392.10
622.55	1383.78
622.89	1376.00
623.24	1368.33
623.59	1360.94
623.93	1353.45
624.28	1346.29
624.62	1338.79
624.97	1331.57
625.32	1324.70
625.66	1317.65
626.01	1310.56
626.35	1303.25
626.70	1295.47
627.04	1287.70
627.39	1279.80
627.73	1272.34
628.08	1265.46
628.43	1258.12
628.77	1250.85
629.12	1243.33
629.46	1236.15
629.81	1228.69
630.15	1221.50
630.50	1214.08
630.84	1205.82
631.19	1197.78
631.53	1190.24
631.88	1182.60
632.22	1175.01
632.57	1167.76
632.91	1160.24
633.26	1152.72
633.60	1145.31
633.95	1138.15
634.29	1131.05
634.64	1124.54
634.98	1117.20
635.32	1110.07
635.67	1103.44
636.01	1096.79
636.36	1089.98
636.70	1083.39
637.05	1076.88
637.39	1070.33
637.73	1063.89
638.08	1058.00
638.42	1052.06
638.77	1045.69
639.11	1039.13
639.45	1032.73
639.80	1026.14
640.14	1019.71
640.49	1013.24
640.83	1006.93
641.17	1000.76
641.52	994.42
641.86	987.86
642.20	982.01
642.55	975.60
642.89	969.15
643.23	962.54
643.58	956.80
643.92	950.71
644.26	944.65
644.61	938.63
644.95	932.60
645.29	925.98
645.64	919.21
645.98	912.82
646.32	907.02
646.66	900.99
647.01	895.17
647.35	889.43
647.69	883.64
648.04	878.04
648.38	872.24
648.72	866.38
649.06	860.36
649.41	854.46
649.75	848.52
650.09	842.68
650.43	836.95
650.78	830.78
651.12	824.81
651.46	819.07
651.80	813.38
652.14	807.94
652.49	802.62
652.83	797.43
653.17	791.80
653.51	786.03
653.85	780.64
654.20	774.97
654.54	768.94
654.88	763.10
655.22	757.27
655.56	751.56
655.90	746.03
656.25	740.73
656.59	735.42
656.93	730.30
657.27	725.07
657.61	719.54
657.95	714.45
658.29	709.36
658.64	704.07
658.98	698.73
659.32	693.29
659.66	688.12
660.00	682.88
660.34	677.97
660.68	673.07
661.02	668.11
661.36	663.47
661.70	659.04
662.05	654.73
662.39	650.39
662.73	645.93
663.07	641.61
663.41	637.17
663.75	632.62
664.09	628.07
664.43	623.66
664.77	619.59
665.11	615.32
665.45	611.16
665.79	607.05
666.13	602.95
666.47	598.80
666.81	594.60
667.15	590.44
667.49	586.48
667.83	582.70
668.17	578.72
668.51	574.56
668.85	570.43
669.19	566.59
669.53	562.78
669.87	558.88
670.21	555.10
670.55	551.46
670.89	548.04
671.23	544.61
671.57	541.10
671.91	537.58
672.25	534.11
672.58	530.58
672.92	527.15
673.26	523.94
673.60	520.82
673.94	517.71
674.28	514.81
674.62	511.82
674.96	508.63
675.30	505.75
675.64	502.87
675.97	500.14
676.31	497.25
676.65	494.23
676.99	491.62
677.33	488.81
677.67	485.97
678.01	482.96
678.34	480.06
678.68	477.18
679.02	474.36
679.36	471.52
679.70	468.85
680.04	466.20
680.37	463.33
680.71	460.56
681.05	457.93
681.39	455.20
681.73	452.59
682.06	450.09
682.40	447.50
682.74	444.96
683.08	442.41
683.42	439.75
683.75	437.31
684.09	434.70
684.43	432.21
684.77	429.76
685.10	427.35
685.44	425.01
685.78	422.71
686.12	420.40
686.45	418.08
686.79	415.75
687.13	413.49
687.46	411.33
687.80	409.17
688.14	406.95
688.48	404.92
688.81	402.66
689.15	400.50
689.49	398.34
689.82	396.27
690.16	394.18
690.50	392.28
690.83	390.29
691.17	388.34
691.51	386.42
691.84	384.60
692.18	382.67
692.52	380.70
692.85	378.75
693.19	376.94
693.52	375.14
693.86	373.31
694.20	371.51
694.53	369.72
694.87	367.83
695.21	366.04
695.54	364.23
695.88	362.46
696.21	360.75
696.55	359.07
696.88	357.39
697.22	355.73
697.56	354.13
697.89	352.50
698.23	350.89
698.56	349.34
698.90	347.75
699.23	346.17
699.57	344.60
699.90	343.06
700.24	341.44
700.58	339.95
700.91	338.46
701.25	337.04
701.58	335.69
701.92	334.33
702.25	332.92
702.59	331.54
702.92	330.24
703.26	328.91
703.59	327.61
703.93	326.40
704.26	325.16
704.60	323.84
704.93	322.59
705.26	321.27
705.60	320.04
705.93	318.84
706.27	317.73
706.60	316.66
706.94	315.58
707.27	314.49
707.61	313.37
707.94	312.37
708.27	311.25
708.61	310.13
708.94	309.14
709.28	308.21
709.61	307.29
709.94	306.33
710.28	305.31
710.61	304.31
710.95	303.24
711.28	302.37
711.61	301.38
711.95	300.45
712.28	299.55
712.61	298.60
712.95	297.70
713.28	296.83
713.61	295.93
713.95	295.05
714.28	294.26
714.61	293.45
714.95	292.58
715.28	291.75
715.61	290.89
715.95	290.04
716.28	289.14
716.61	288.26
716.95	287.46
717.28	286.71
717.61	285.95
717.94	285.20
718.28	284.35
718.61	283.63
718.94	282.94
719.27	282.28
719.61	281.64
719.94	280.96
720.27	280.24
720.60	279.60
720.94	278.93
721.27	278.31
721.60	277.68
721.93	277.07
722.27	276.49
722.60	275.95
722.93	275.37
723.26	274.86
723.59	274.31
723.93	273.76
724.26	273.24
724.59	272.69
724.92	272.15
725.25	271.69
725.59	271.18
725.92	270.68
726.25	270.16
726.58	269.67
726.91	269.18
727.24	268.74
727.57	268.25
727.91	267.76
728.24	267.27
728.57	266.83
728.90	266.39
729.23	265.92
729.56	265.50
729.89	265.02
730.22	264.53
730.55	264.09
730.89	263.61
731.22	263.14
731.55	262.74
731.88	262.33
732.21	261.91
732.54	261.50
732.87	261.10
733.20	260.69
733.53	260.31
733.86	259.90
734.19	259.53
734.52	259.13
734.85	258.85
735.18	258.41
735.51	258.03
735.84	257.64
736.17	257.31
736.50	256.89
736.83	256.67
737.16	256.30
737.49	256.00
737.82	255.69
738.15	255.36
738.48	255.03
738.81	254.66
739.14	254.32
739.47	253.98
739.80	253.65
740.13	253.37
740.46	253.05
740.79	252.74
741.12	252.39
741.45	252.13
741.78	251.76
742.11	251.48
742.44	251.16
742.77	250.88
743.10	250.55
743.43	250.24
743.75	249.85
744.08	249.73
744.41	249.41
744.74	249.11
745.07	248.79
745.40	248.54
745.73	248.32
746.06	248.04
746.39	247.78
746.71	247.54
747.04	247.27
747.37	246.99
747.70	246.74
748.03	246.51
748.36	246.30
748.68	246.05
749.01	245.81
749.34	245.60
749.67	245.37
750.00	245.15
750.33	245.01
750.65	244.81
750.98	244.47
751.31	244.23
751.64	244.05
751.97	243.93
752.29	243.68
752.62	243.43
752.95	243.21
753.28	243.00
753.60	242.76
753.93	242.53
754.26	242.34
754.59	242.11
754.91	241.91
755.24	241.68
755.57	241.51
755.90	241.35
756.22	241.13
756.55	240.92
756.88	240.75
757.20	240.50
757.53	240.30
757.86	240.12
758.19	239.97
758.51	239.79
758.84	239.54
759.17	239.37
759.49	239.24
759.82	239.14
760.15	239.02
760.47	238.89
760.80	238.75
761.13	238.61
761.45	238.47
761.78	238.32
762.11	238.18
762.43	238.02
762.76	237.84
763.08	237.73
763.41	237.58
763.74	237.44
764.06	237.34
764.39	237.18
764.71	237.04
765.04	236.90
765.37	236.78
765.69	236.67
766.02	236.56
766.34	236.42
766.67	236.28
767.00	236.18
767.32	236.11
767.65	236.07
767.97	235.95
768.30	235.83
768.62	235.69
768.95	235.58
769.27	235.47
769.60	235.38
769.92	235.26
770.25	235.17
770.57	235.04
770.90	234.93
771.22	234.85
771.55	234.76
771.87	234.71
772.20	234.57
772.52	234.55
772.85	234.60
773.17	234.49
773.50	234.40
773.82	234.28
774.15	234.13
774.47	233.98
774.80	233.89
775.12	233.82
775.45	233.77
775.77	233.67
776.09	233.59
776.42	233.52
776.74	233.50
777.07	233.43
777.39	233.37
777.72	233.29
778.04	233.22
778.36	233.14
778.69	233.05
779.01	233.02
779.33	232.87
779.66	232.66
779.98	232.59
780.31	232.53
780.63	232.53
780.95	232.51
781.28	232.45
781.60	232.41
781.92	232.37
782.25	232.31
782.57	232.25
782.89	232.17
783.22	232.08
783.54	231.97
783.86	231.92
784.19	231.84
784.51	231.84
784.83	231.78
785.16	231.71
785.48	231.66
785.80	231.61
786.12	231.57
786.45	231.56
786.77	231.52
787.09	231.46
787.42	231.35
787.74	231.32
788.06	231.25
788.38	231.17
788.71	231.10
789.03	231.04
789.35	231.01
789.67	230.98
789.99	230.98
790.32	230.95
790.64	230.90
790.96	230.97
791.28	230.86
791.61	230.81
791.93	230.76
792.25	230.71
792.57	230.74
792.89	230.67
793.21	230.63
793.54	230.57
793.86	230.50
794.18	230.45
794.50	230.36
794.82	230.32
795.14	230.31
795.47	230.28
795.79	230.28
796.11	230.23
796.43	230.19
796.75	230.14
797.07	230.11
797.39	230.08
797.71	229.97
798.04	229.94
798.36	229.92
798.68	229.92
799.00	229.87
799.32	229.80
799.64	229.78
799.96	229.74
800.28	229.72
800.60	229.70
800.92	229.72
801.24	229.69
801.56	229.67
801.89	229.59
802.21	229.56
802.53	229.47
802.85	229.48
803.17	229.50
803.49	229.45
803.81	229.40
804.13	229.38
804.45	229.34
804.77	229.33
805.09	229.26
805.41	229.19
805.73	229.15
806.05	229.11
806.37	229.07
806.69	229.03
807.01	228.99
807.33	228.96
807.65	228.86
807.97	228.86
808.28	228.84
808.60	228.81
808.92	228.79
809.24	228.80
809.56	228.72
809.88	228.68
810.20	228.64
810.52	228.64
810.84	228.58
811.16	228.55
811.48	228.53
811.80	228.57
812.12	228.55
812.43	228.56
812.75	228.55
813.07	228.55
813.39	228.52
813.71	228.49
814.03	228.50
814.35	228.48
814.67	228.43
814.98	228.39
815.30	228.36
815.62	228.31
815.94	228.27
816.26	228.31
816.58	228.27
816.89	228.27
817.21	228.26
817.53	228.23
817.85	228.21
818.17	228.20
818.48	228.13
818.80	228.18
819.12	228.15
819.44	228.12
819.76	228.09
820.07	228.08
820.39	228.09
820.71	228.06
821.03	228.07
821.34	228.05
821.66	228.06
821.98	228.08
822.30	228.08
822.61	228.13
822.93	228.08
823.25	228.07
823.57	228.05
823.88	228.02
824.20	228.03
824.52	228.04
824.83	228.02
825.15	228.02
825.47	227.97
825.79	227.95
826.10	227.94
826.42	227.92
826.74	227.94
827.05	227.92
827.37	227.90
827.69	227.88
828.00	227.90
828.32	227.89
828.64	227.90
828.95	227.96
829.27	227.94
829.58	227.94
829.90	227.96
830.22	227.93
830.53	227.92
830.85	227.91
831.17	227.87
831.48	227.88
831.80	227.87
832.11	227.85
832.43	227.85
832.75	227.82
833.06	227.85
833.38	227.83
833.69	227.82
834.01	227.82
834.32	227.84
834.64	227.83
834.96	227.80
835.27	227.76
835.59	227.72
835.90	227.68
836.22	227.65
836.53	227.61
836.85	227.62
837.16	227.73
837.48	227.70
837.79	227.72
838.11	227.72
838.42	227.67
838.74	227.69
839.05	227.69
839.37	227.68
839.68	227.62
840.00	227.59
840.31	227.60
840.63	227.57
840.94	227.54
841.26	227.49
841.57	227.49
841.88	227.48
842.20	227.46
842.51	227.45
842.83	227.45
843.14	227.56
843.46	227.55
843.77	227.47
844.08	227.46
844.40	227.44
844.71	227.40
845.03	227.42
845.34	227.40
845.65	227.36
845.97	227.36
846.28	227.35
846.60	227.36
846.91	227.37
847.22	227.36
847.54	227.40
847.85	227.44
848.16	227.43
848.48	227.40
848.79	227.40
849.10	227.38
849.42	227.39
849.73	227.28
850.04	227.25
850.36	227.24
850.67	227.24
850.98	227.23
851.30	227.21
851.61	227.20
851.92	227.20
852.23	227.24
852.55	227.24
852.86	227.27
853.17	227.28
853.49	227.25
853.80	227.26
854.11	227.24
854.42	227.23
854.74	227.19
855.05	227.20
855.36	227.15
855.67	227.15
855.99	227.16
856.30	227.27
856.61	227.25
856.92	227.22
857.23	227.22
857.55	227.22
857.86	227.24
858.17	227.26
858.48	227.26
858.79	227.23
859.11	227.23
859.42	227.22
859.73	227.20
860.04	227.20
860.35	227.16
860.66	227.12
860.98	227.09
861.29	227.12
861.60	227.10
861.91	227.14
862.22	227.15
862.53	227.11
862.84	226.99
863.16	227.05
863.47	227.03
863.78	226.98
864.09	226.97
864.40	226.98
864.71	226.97
865.02	226.98
865.33	226.97
865.64	226.95
865.95	226.95
866.27	227.02
866.58	227.02
866.89	227.06
867.20	227.07
867.51	227.06
867.82	227.04
868.13	227.09
868.44	227.06
868.75	227.05
869.06	227.05
869.37	227.02
869.68	226.98
869.99	227.01
870.30	227.10
870.61	227.11
870.92	227.08
871.23	227.08
871.54	227.08
871.85	227.09
872.16	227.09
872.47	227.07
872.78	227.02
873.09	227.04
873.40	227.00
873.71	227.00
874.02	227.00
874.33	227.01
874.64	226.97
874.95	226.97
875.26	226.93
875.56	226.95
875.87	226.99
876.18	226.98
876.49	227.05
876.80	227.00
877.11	226.99
877.42	226.98
877.73	226.99
878.04	226.93
878.35	226.91
878.66	226.96
878.96	226.94
879.27	226.91
879.58	226.88
879.89	226.89
880.20	226.91
880.51	226.90
880.82	226.88
881.12	226.89
881.43	226.87
881.74	226.89
882.05	226.87
882.36	226.83
882.67	226.83
882.97	226.68
883.28	226.66
883.59	226.65
883.90	226.65
884.21	226.63
884.51	226.65
884.82	226.65
885.13	226.61
885.44	226.59
885.74	226.62
886.05	226.63
886.36	226.59
886.67	226.54
886.98	226.62
887.28	226.63
887.59	226.65
887.90	226.65
888.20	226.63
888.51	226.66
888.82	226.68
889.13	226.72
889.43	226.84
889.74	226.88
890.05	226.86
890.35	226.87
890.66	226.88
890.97	226.85
891.28	226.84
891.58	226.85
891.89	226.88
892.20	226.87
892.50	226.85
892.81	226.88
893.12	226.89
893.42	226.81
893.73	226.82
894.04	226.80
894.34	226.81
894.65	226.79
894.95	226.77
895.26	226.76
895.57	226.78
895.87	226.68
896.18	226.69
896.48	226.67
896.79	226.69
897.10	226.71
897.40	226.74
897.71	226.74
898.01	226.73
898.32	226.74
898.63	226.73
898.93	226.74
899.24	226.72
899.54	226.71
899.85	226.71
900.15	226.72
900.46	226.74
900.76	226.76
901.07	226.80
901.38	226.78
901.68	226.80
901.99	226.76
902.29	226.76
902.60	226.73
902.90	226.77
903.21	226.75
903.51	226.70
903.82	226.71
904.12	226.73
904.43	226.75
904.73	226.77
905.03	226.73
905.34	226.82
905.64	226.84
905.95	226.88
906.25	226.89
906.56	226.88
906.86	226.85
907.17	226.84
907.47	226.82
907.77	226.81
908.08	226.77
908.38	226.77
908.69	226.77
908.99	226.81
909.30	226.79
909.60	226.80
909.90	226.83
910.21	226.82
910.51	226.78
910.81	226.75
911.12	226.73
911.42	226.77
911.73	226.66
912.03	226.66
912.33	226.65
912.64	226.64
912.94	226.60
913.24	226.62
913.55	226.61
913.85	226.60
914.15	226.64
914.46	226.64
914.76	226.64
915.06	226.66
915.37	226.62
915.67	226.62
915.97	226.61
916.27	226.57
916.58	226.55
916.88	226.57
917.18	226.59
917.49	226.64
917.79	226.64
918.09	226.63
918.39	226.66
918.70	226.65
919.00	226.65
919.30	226.71
919.60	226.71
919.91	226.69
920.21	226.70
920.51	226.66
920.81	226.66
921.12	226.67
921.42	226.67
921.72	226.67
922.02	226.65
922.32	226.66
922.63	226.65
922.93	226.69
923.23	226.70
923.53	226.70
923.83	226.64
924.13	226.62
924.44	226.63
924.74	226.62
925.04	226.63
925.34	226.65
925.64	226.59
925.94	226.58
926.24	226.62
926.55	226.60
926.85	226.60
927.15	226.60
927.45	226.59
927.75	226.59
928.05	226.58
928.35	226.57
928.65	226.62
928.95	226.62
929.26	226.59
929.56	226.57
929.86	226.56
930.16	226.55
930.46	226.56
930.76	226.57
931.06	226.53
931.36	226.50
931.66	226.49
931.96	226.53
932.26	226.52
932.56	226.50
932.86	226.50
933.16	226.51
933.46	226.49
933.76	226.48
934.06	226.51
934.36	226.56
934.66	226.52
934.96	226.48
935.26	226.51
935.56	226.52
935.86	226.50
936.16	226.50
936.46	226.49
936.76	226.51
937.06	226.50
937.36	226.48
937.66	226.48
937.96	226.45
938.26	226.42
938.56	226.42
938.86	226.44
939.16	226.47
939.46	226.51
939.76	226.54
940.06	226.56
940.35	226.53
940.65	226.49
940.95	226.53
941.25	226.51
941.55	226.55
941.85	226.58
942.15	226.62
942.45	226.65
942.75	226.64
943.04	226.64
943.34	226.67
943.64	226.67
943.94	226.69
944.24	226.71
944.54	226.74
944.84	226.76
945.13	226.72
945.43	226.70
945.73	226.67
946.03	226.67
946.33	226.66
946.62	226.63
946.92	226.62
947.22	226.64
947.52	226.66
947.82	226.63
948.11	226.58
948.41	226.58
948.71	226.55
949.01	226.59
949.31	226.57
949.60	226.57
949.90	226.59
950.20	226.61
950.50	226.60
950.79	226.53
951.09	226.53
951.39	226.54
951.69	226.54
951.98	226.57
952.28	226.56
952.58	226.56
952.87	226.59
953.17	226.61
953.47	226.60
953.76	226.61
954.06	226.59
954.36	226.61
954.66	226.59
954.95	226.59
955.25	226.60
955.55	226.62
955.84	226.61
956.14	226.63
956.44	226.62
956.73	226.63
957.03	226.69
957.32	226.69
957.62	226.67
957.92	226.69
958.21	226.65
958.51	226.75
958.81	226.75
959.10	226.71
959.40	226.71
959.69	226.70
959.99	226.70
960.29	226.69
960.58	226.66
960.88	226.67
961.17	226.65
961.47	226.63
961.76	226.60
962.06	226.61
962.36	226.55
962.65	226.52
962.95	226.51
963.24	226.49
963.54	226.51
963.83	226.50
964.13	226.49
964.42	226.48
964.72	226.37
965.01	226.36
965.31	226.36
965.60	226.33
965.90	226.38
966.19	226.33
966.49	226.33
966.78	226.32
967.08	226.32
967.37	226.32
967.67	226.31
967.96	226.32
968.26	226.28
968.55	226.30
968.85	226.33
969.14	226.30
969.43	226.28
969.73	226.28
970.02	226.29
970.32	226.27
970.61	226.27
970.91	226.28
971.20	226.27
971.49	226.27
971.79	226.29
972.08	226.20
972.38	226.23
972.67	226.25
972.96	226.25
973.26	226.24
973.55	226.27
973.85	226.23
974.14	226.22
974.43	226.26
974.73	226.27
975.02	226.25
975.31	226.26
975.61	226.29
975.90	226.27
976.19	226.26
976.49	226.28
976.78	226.28
977.07	226.30
977.37	226.32
977.66	226.35
977.95	226.32
978.24	226.34
978.54	226.41
978.83	226.39
979.12	226.42
979.42	226.39
979.71	226.39
980.00	226.40
980.29	226.41
980.59	226.39
980.88	226.37
981.17	226.37
981.46	226.39
981.76	226.41
982.05	226.41
982.34	226.44
982.63	226.46
982.93	226.47
983.22	226.51
983.51	226.50
983.80	226.52
984.09	226.56
984.39	226.58
984.68	226.53
984.97	226.52
985.26	226.52
985.55	226.53
985.85	226.50
986.14	226.54
986.43	226.54
986.72	226.54
987.01	226.54
987.30	226.53
987.59	226.50
987.89	226.49
988.18	226.46
988.47	226.43
988.76	226.39
989.05	226.35
989.34	226.28
989.63	226.31
989.92	226.27
990.22	226.27
990.51	226.29
990.80	226.27
991.09	226.27
991.38	226.26
991.67	226.27
991.96	226.27
992.25	226.27
992.54	226.27
992.83	226.26
993.12	226.25
993.41	226.25
993.70	226.31
993.99	226.30
994.28	226.34
994.58	226.35
994.87	226.34
995.16	226.36
995.45	226.35
995.74	226.32
996.03	226.34
996.32	226.34
996.61	226.35
996.90	226.35
997.19	226.38
997.48	226.36
997.77	226.34
998.06	226.37
998.34	226.35
998.63	226.35
998.92	226.31
999.21	226.33
999.50	226.33
999.79	226.30
1000.08	226.31
1000.37	226.29
1000.66	226.28
1000.95	226.33
1001.24	226.33
1001.53	226.33
1001.82	226.32
1002.11	226.29
1002.40	226.30
1002.68	226.31
1002.97	226.38
1003.26	226.34
1003.55	226.35
1003.84	226.36
1004.13	226.36
1004.42	226.35
1004.71	226.36
1004.99	226.36
1005.28	226.39
1005.57	226.39
1005.86	226.36
1006.15	226.36
1006.44	226.34
1006.72	226.37
1007.01	226.36
1007.30	226.34
1007.59	226.36
1007.88	226.37
1008.17	226.37
1008.45	226.31
1008.74	226.26
1009.03	226.22
1009.32	226.23
1009.60	226.22
1009.89	226.21
1010.18	226.17
1010.47	226.19
1010.76	226.21
1011.04	226.23
1011.33	226.23
1011.62	226.27
1011.91	226.30
1012.19	226.30
1012.48	226.32
1012.77	226.31
1013.05	226.34
1013.34	226.37
1013.63	226.37
1013.92	226.40
1014.20	226.41
1014.49	226.44
1014.78	226.48
1015.06	226.44
1015.35	226.47
1015.64	226.51
1015.92	226.56
1016.21	226.60
1016.50	226.57
1016.78	226.55
1017.07	226.54
1017.36	226.52
1017.64	226.48
1017.93	226.48
1018.22	226.51
1018.50	226.54
1018.79	226.52
1019.08	226.49
1019.36	226.48
1019.65	226.45
1019.93	226.46
1020.22	226.48
1020.51	226.52
1020.79	226.52
1021.08	227.05
1021.36	226.84
1021.65	226.04
1021.94	226.44
1022.22	226.34
1022.51	225.74
1022.79	227.12
1023.08	226.51
1023.36	227.58
1023.65	226.24
>>>>>End Processed Spectral Data<<<<<
