SpectraSuite Data File
++++++++++++++++++++++++++++++++++++
Date: Fri Feb 01 15:00:47 EST 2013
User: group
Dark Spectrum Present: No
Reference Spectrum Present: No
Number of Sampled Component Spectra: 1
Spectrometers: USB2E7196
Integration Time (usec): 35000 (USB2E7196)
Spectra Averaged: 100 (USB2E7196)
Boxcar Smoothing: 10 (USB2E7196)
Correct for Electrical Dark: No (USB2E7196)
Strobe/Lamp Enabled: No (USB2E7196)
Correct for Detector Non-linearity: No (USB2E7196)
Correct for Stray Light: No (USB2E7196)
Number of Pixels in Processed Spectrum: 2048
>>>>>Begin Processed Spectral Data<<<<<
339.09	0.00
339.48	215.24
339.86	216.78
340.24	217.92
340.63	219.19
341.01	222.46
341.39	222.21
341.78	223.41
342.16	224.82
342.54	225.19
342.93	213.64
343.31	224.44
343.69	224.97
344.07	225.47
344.46	225.93
344.84	226.35
345.22	226.57
345.60	226.81
345.99	227.03
346.37	227.17
346.75	227.26
347.13	227.33
347.52	227.36
347.90	227.42
348.28	227.42
348.66	227.48
349.05	227.47
349.43	227.54
349.81	227.59
350.19	227.61
350.57	227.67
350.96	227.76
351.34	227.83
351.72	227.92
352.10	227.98
352.48	228.04
352.87	228.10
353.25	228.17
353.63	228.26
354.01	228.32
354.39	228.39
354.77	228.47
355.15	228.57
355.54	228.67
355.92	228.73
356.30	228.85
356.68	228.98
357.06	229.06
357.44	229.09
357.82	229.14
358.20	229.23
358.58	229.26
358.97	229.29
359.35	229.36
359.73	229.43
360.11	229.48
360.49	229.53
360.87	229.57
361.25	229.61
361.63	229.64
362.01	229.69
362.39	229.73
362.77	229.78
363.15	229.76
363.53	229.76
363.91	229.75
364.29	229.74
364.67	229.67
365.05	229.68
365.43	229.68
365.81	229.71
366.19	229.74
366.57	229.79
366.95	229.79
367.33	229.77
367.71	229.75
368.09	229.75
368.47	229.71
368.85	229.68
369.23	229.66
369.61	229.60
369.99	229.57
370.37	229.53
370.75	229.52
371.13	229.47
371.51	229.38
371.89	229.32
372.27	229.26
372.65	229.21
373.03	229.15
373.41	229.08
373.78	229.00
374.16	228.87
374.54	228.77
374.92	228.69
375.30	228.63
375.68	228.55
376.06	228.45
376.44	228.37
376.82	228.29
377.19	228.20
377.57	228.13
377.95	228.01
378.33	227.93
378.71	227.77
379.09	227.70
379.47	227.67
379.84	227.61
380.22	227.51
380.60	227.39
380.98	227.31
381.36	227.26
381.73	227.15
382.11	227.09
382.49	227.03
382.87	226.94
383.25	226.82
383.62	226.84
384.00	226.76
384.38	226.70
384.76	226.65
385.13	226.65
385.51	226.59
385.89	226.53
386.27	226.48
386.64	226.45
387.02	226.39
387.40	226.35
387.78	226.34
388.15	226.32
388.53	226.30
388.91	226.25
389.29	226.20
389.66	226.21
390.04	226.18
390.42	226.17
390.79	226.15
391.17	226.17
391.55	226.06
391.92	226.06
392.30	226.07
392.68	226.04
393.05	226.03
393.43	226.03
393.81	226.03
394.18	226.00
394.56	226.04
394.94	226.09
395.31	226.08
395.69	226.13
396.06	226.16
396.44	226.21
396.82	226.25
397.19	226.35
397.57	226.38
397.95	226.45
398.32	226.48
398.70	226.58
399.07	226.66
399.45	226.76
399.82	226.85
400.20	226.92
400.58	227.00
400.95	227.05
401.33	227.18
401.70	227.37
402.08	227.51
402.45	227.62
402.83	227.76
403.20	227.89
403.58	227.99
403.95	228.12
404.33	228.25
404.71	228.41
405.08	228.63
405.46	228.84
405.83	229.04
406.21	229.21
406.58	229.37
406.96	229.55
407.33	229.73
407.70	229.94
408.08	230.24
408.45	230.49
408.83	230.75
409.20	230.99
409.58	231.19
409.95	231.44
410.33	231.71
410.70	231.93
411.08	232.24
411.45	232.58
411.82	232.96
412.20	233.34
412.57	233.74
412.95	234.07
413.32	234.39
413.69	234.75
414.07	235.22
414.44	235.69
414.82	236.17
415.19	236.73
415.56	237.31
415.94	237.82
416.31	238.46
416.68	239.08
417.06	239.81
417.43	240.49
417.81	241.27
418.18	242.05
418.55	242.94
418.93	243.82
419.30	244.69
419.67	245.61
420.04	246.58
420.42	247.59
420.79	248.76
421.16	249.91
421.54	251.09
421.91	252.28
422.28	253.57
422.66	254.88
423.03	256.18
423.40	257.52
423.77	258.94
424.15	260.35
424.52	261.85
424.89	263.41
425.26	264.95
425.64	266.38
426.01	267.99
426.38	269.69
426.75	271.35
427.13	273.07
427.50	274.84
427.87	276.69
428.24	278.53
428.61	280.25
428.99	282.21
429.36	284.30
429.73	286.37
430.10	288.38
430.47	290.45
430.85	292.57
431.22	294.78
431.59	297.15
431.96	299.41
432.33	301.90
432.70	304.27
433.08	307.08
433.45	309.72
433.82	312.30
434.19	315.16
434.56	318.01
434.93	320.66
435.30	323.32
435.68	326.22
436.05	329.06
436.42	331.89
436.79	334.43
437.16	337.19
437.53	340.02
437.90	342.82
438.27	345.55
438.64	348.40
439.01	351.02
439.38	353.28
439.75	355.42
440.13	357.88
440.50	360.23
440.87	362.11
441.24	364.07
441.61	366.23
441.98	367.69
442.35	369.46
442.72	371.30
443.09	373.09
443.46	374.11
443.83	374.68
444.20	375.16
444.57	375.97
444.94	376.26
445.31	376.60
445.68	376.95
446.05	377.06
446.42	376.63
446.79	376.18
447.16	375.70
447.53	375.39
447.90	374.25
448.27	373.12
448.64	371.49
449.01	370.36
449.37	368.43
449.74	366.57
450.11	364.33
450.48	361.87
450.85	359.34
451.22	357.18
451.59	355.20
451.96	353.26
452.33	350.62
452.70	348.27
453.07	345.46
453.43	342.57
453.80	339.80
454.17	337.18
454.54	334.68
454.91	331.99
455.28	329.34
455.65	326.88
456.02	324.43
456.38	322.34
456.75	319.66
457.12	317.41
457.49	315.18
457.86	313.03
458.23	311.20
458.59	309.17
458.96	307.11
459.33	305.25
459.70	303.37
460.07	301.86
460.43	300.15
460.80	298.52
461.17	297.07
461.54	295.60
461.91	294.17
462.27	292.69
462.64	291.41
463.01	290.04
463.38	288.71
463.74	287.34
464.11	286.16
464.48	285.16
464.85	284.04
465.21	283.15
465.58	282.18
465.95	281.09
466.32	280.17
466.68	279.26
467.05	278.36
467.42	277.47
467.78	276.56
468.15	275.67
468.52	274.99
468.88	274.12
469.25	273.34
469.62	272.72
469.98	272.07
470.35	271.45
470.72	270.84
471.08	270.17
471.45	269.60
471.82	269.00
472.18	268.39
472.55	267.94
472.92	267.40
473.28	266.91
473.65	266.42
474.02	265.95
474.38	265.55
474.75	265.17
475.11	264.80
475.48	264.55
475.85	264.29
476.21	264.02
476.58	263.83
476.94	263.61
477.31	263.40
477.67	263.17
478.04	263.03
478.41	262.95
478.77	262.98
479.14	262.93
479.50	262.93
479.87	262.96
480.23	262.99
480.60	263.04
480.96	263.13
481.33	263.31
481.69	263.54
482.06	263.71
482.42	263.89
482.79	264.15
483.15	264.43
483.52	264.79
483.88	265.12
484.25	265.47
484.61	265.89
484.98	266.31
485.34	266.88
485.71	267.45
486.07	268.07
486.44	268.62
486.80	269.28
487.17	269.99
487.53	270.82
487.90	271.66
488.26	272.59
488.62	273.56
488.99	274.53
489.35	275.49
489.72	276.61
490.08	277.80
490.44	279.04
490.81	280.38
491.17	281.73
491.54	283.19
491.90	284.72
492.26	286.37
492.63	288.11
492.99	289.87
493.36	291.73
493.72	293.74
494.08	295.85
494.45	298.09
494.81	300.44
495.17	302.83
495.54	305.39
495.90	308.06
496.26	310.84
496.63	313.78
496.99	316.92
497.35	320.20
497.72	323.60
498.08	327.13
498.44	330.76
498.80	334.67
499.17	338.71
499.53	342.86
499.89	347.19
500.26	351.70
500.62	356.40
500.98	361.40
501.34	366.42
501.71	371.72
502.07	377.12
502.43	382.72
502.79	388.55
503.16	394.65
503.52	400.92
503.88	407.31
504.24	413.96
504.60	420.81
504.97	427.91
505.33	435.24
505.69	442.92
506.05	450.68
506.41	458.60
506.78	466.76
507.14	475.23
507.50	484.00
507.86	492.98
508.22	502.11
508.59	511.28
508.95	520.89
509.31	530.64
509.67	540.80
510.03	551.06
510.39	561.58
510.75	572.40
511.12	583.37
511.48	594.69
511.84	606.14
512.20	617.62
512.56	629.59
512.92	641.77
513.28	654.08
513.64	666.54
514.00	679.23
514.37	692.13
514.73	705.18
515.09	718.21
515.45	731.52
515.81	745.11
516.17	759.13
516.53	773.22
516.89	787.46
517.25	801.68
517.61	816.14
517.97	830.64
518.33	845.05
518.69	859.84
519.05	874.87
519.41	890.03
519.77	905.70
520.13	921.17
520.49	936.54
520.85	952.04
521.21	967.79
521.57	983.96
521.93	999.70
522.29	1016.25
522.65	1032.56
523.01	1048.92
523.37	1065.02
523.73	1081.29
524.09	1097.47
524.45	1113.83
524.81	1130.51
525.17	1147.43
525.53	1164.38
525.89	1181.26
526.25	1198.14
526.61	1214.44
526.97	1231.27
527.33	1247.84
527.68	1264.55
528.04	1281.14
528.40	1297.85
528.76	1315.03
529.12	1331.84
529.48	1348.84
529.84	1364.88
530.20	1381.54
530.56	1398.59
530.91	1416.17
531.27	1432.95
531.63	1449.50
531.99	1466.15
532.35	1482.12
532.71	1498.14
533.07	1514.54
533.42	1530.59
533.78	1546.65
534.14	1563.19
534.50	1578.53
534.86	1594.40
535.21	1609.66
535.57	1625.78
535.93	1641.31
536.29	1656.17
536.65	1671.31
537.00	1686.26
537.36	1701.60
537.72	1716.25
538.08	1730.71
538.44	1744.51
538.79	1758.51
539.15	1772.46
539.51	1786.27
539.87	1800.70
540.22	1814.42
540.58	1828.24
540.94	1841.79
541.29	1854.78
541.65	1867.59
542.01	1881.02
542.37	1893.45
542.72	1905.78
543.08	1917.53
543.44	1929.91
543.79	1941.25
544.15	1952.31
544.51	1963.92
544.87	1975.07
545.22	1985.92
545.58	1996.14
545.94	2005.96
546.29	2015.88
546.65	2025.61
547.01	2034.80
547.36	2043.65
547.72	2052.31
548.07	2060.24
548.43	2068.23
548.79	2076.32
549.14	2083.80
549.50	2091.18
549.86	2098.92
550.21	2106.35
550.57	2113.47
550.92	2120.14
551.28	2127.14
551.64	2134.31
551.99	2140.78
552.35	2146.95
552.70	2153.10
553.06	2159.08
553.41	2165.47
553.77	2171.50
554.13	2177.58
554.48	2183.71
554.84	2189.01
555.19	2194.22
555.55	2199.24
555.90	2203.66
556.26	2208.49
556.61	2213.19
556.97	2217.31
557.32	2221.37
557.68	2225.41
558.03	2229.75
558.39	2233.46
558.74	2238.09
559.10	2241.64
559.45	2245.25
559.81	2249.44
560.16	2253.16
560.52	2256.38
560.87	2259.69
561.23	2262.12
561.58	2265.04
561.94	2267.67
562.29	2270.16
562.64	2272.80
563.00	2275.45
563.35	2279.14
563.71	2282.18
564.06	2285.33
564.42	2288.01
564.77	2290.37
565.12	2292.53
565.48	2294.15
565.83	2295.92
566.19	2297.01
566.54	2298.08
566.89	2299.12
567.25	2299.57
567.60	2300.87
567.96	2302.37
568.31	2303.17
568.66	2304.17
569.02	2304.45
569.37	2304.65
569.72	2305.34
570.08	2305.22
570.43	2305.10
570.78	2304.19
571.14	2302.51
571.49	2300.94
571.84	2300.66
572.20	2299.28
572.55	2298.15
572.90	2296.53
573.26	2294.85
573.61	2293.01
573.96	2290.99
574.31	2287.88
574.67	2284.57
575.02	2280.79
575.37	2277.22
575.72	2273.20
576.08	2269.70
576.43	2266.48
576.78	2262.74
577.13	2259.42
577.49	2256.25
577.84	2252.61
578.19	2248.76
578.54	2244.83
578.90	2240.53
579.25	2234.83
579.60	2229.87
579.95	2224.59
580.30	2219.42
580.66	2214.25
581.01	2209.27
581.36	2204.11
581.71	2199.77
582.06	2195.28
582.42	2190.57
582.77	2185.27
583.12	2180.49
583.47	2175.75
583.82	2170.29
584.17	2164.78
584.53	2159.11
584.88	2153.24
585.23	2147.27
585.58	2141.64
585.93	2136.17
586.28	2131.18
586.63	2125.95
586.98	2120.81
587.34	2116.15
587.69	2111.19
588.04	2105.72
588.39	2099.84
588.74	2093.30
589.09	2087.11
589.44	2080.19
589.79	2074.09
590.14	2068.28
590.49	2061.65
590.84	2055.13
591.19	2049.19
591.54	2042.68
591.89	2035.05
592.25	2028.18
592.60	2020.85
592.95	2013.12
593.30	2005.73
593.65	1998.01
594.00	1990.84
594.35	1983.38
594.70	1975.32
595.05	1967.89
595.40	1960.60
595.75	1953.10
596.10	1946.72
596.45	1939.72
596.80	1933.49
597.15	1926.72
597.50	1919.55
597.85	1913.02
598.19	1906.25
598.54	1899.02
598.89	1892.21
599.24	1886.36
599.59	1879.60
599.94	1873.29
600.29	1866.92
600.64	1860.34
600.99	1852.90
601.34	1846.05
601.69	1839.16
602.04	1832.05
602.39	1824.78
602.74	1817.99
603.08	1811.22
603.43	1804.57
603.78	1797.36
604.13	1790.13
604.48	1782.84
604.83	1775.99
605.18	1768.94
605.53	1760.87
605.87	1752.90
606.22	1745.71
606.57	1737.75
606.92	1730.47
607.27	1723.27
607.62	1716.28
607.96	1708.96
608.31	1702.33
608.66	1694.70
609.01	1687.12
609.36	1679.68
609.70	1671.73
610.05	1663.46
610.40	1655.77
610.75	1647.41
611.10	1639.77
611.44	1631.55
611.79	1623.65
612.14	1615.03
612.49	1606.03
612.83	1597.82
613.18	1589.75
613.53	1581.60
613.88	1573.06
614.22	1564.89
614.57	1556.50
614.92	1548.53
615.27	1540.98
615.61	1532.68
615.96	1524.71
616.31	1516.99
616.65	1509.50
617.00	1501.83
617.35	1494.29
617.70	1485.92
618.04	1477.33
618.39	1469.04
618.74	1461.33
619.08	1453.03
619.43	1445.47
619.78	1438.52
620.12	1431.31
620.47	1423.73
620.82	1415.68
621.16	1408.40
621.51	1400.69
621.85	1392.98
622.20	1384.62
622.55	1376.26
622.89	1368.46
623.24	1360.95
623.59	1353.78
623.93	1346.46
624.28	1339.38
624.62	1331.85
624.97	1324.74
625.32	1318.10
625.66	1311.09
626.01	1303.90
626.35	1296.49
626.70	1288.83
627.04	1281.09
627.39	1273.34
627.73	1265.97
628.08	1259.05
628.43	1251.71
628.77	1244.40
629.12	1236.82
629.46	1229.63
629.81	1222.26
630.15	1215.08
630.50	1207.66
630.84	1199.42
631.19	1191.44
631.53	1183.90
631.88	1176.47
632.22	1168.92
632.57	1161.63
632.91	1154.29
633.26	1146.91
633.60	1139.66
633.95	1132.57
634.29	1125.68
634.64	1119.15
634.98	1111.88
635.32	1104.76
635.67	1098.28
636.01	1091.66
636.36	1084.98
636.70	1078.56
637.05	1072.09
637.39	1065.75
637.73	1059.20
638.08	1053.46
638.42	1047.58
638.77	1041.24
639.11	1034.62
639.45	1028.23
639.80	1021.70
640.14	1015.23
640.49	1008.76
640.83	1002.42
641.17	996.21
641.52	989.84
641.86	983.40
642.20	977.62
642.55	971.46
642.89	964.94
643.23	958.49
643.58	952.76
643.92	946.54
644.26	940.42
644.61	934.46
644.95	928.52
645.29	921.82
645.64	915.06
645.98	908.74
646.32	902.97
646.66	897.02
647.01	891.17
647.35	885.51
647.69	879.70
648.04	874.27
648.38	868.51
648.72	862.57
649.06	856.52
649.41	850.63
649.75	844.53
650.09	838.62
650.43	832.86
650.78	826.76
651.12	820.83
651.46	815.11
651.80	809.33
652.14	804.02
652.49	798.74
652.83	793.67
653.17	787.92
653.51	782.17
653.85	776.75
654.20	771.18
654.54	765.20
654.88	759.52
655.22	753.60
655.56	748.00
655.90	742.62
656.25	737.43
656.59	732.11
656.93	727.13
657.27	722.03
657.61	716.62
657.95	711.51
658.29	706.45
658.64	701.28
658.98	696.00
659.32	690.47
659.66	685.22
660.00	679.86
660.34	675.04
660.68	670.16
661.02	665.19
661.36	660.55
661.70	656.15
662.05	651.80
662.39	647.50
662.73	643.01
663.07	638.67
663.41	634.23
663.75	629.76
664.09	625.21
664.43	620.86
664.77	616.78
665.11	612.56
665.45	608.51
665.79	604.50
666.13	600.41
666.47	596.38
666.81	592.28
667.15	588.29
667.49	584.44
667.83	580.71
668.17	576.78
668.51	572.75
668.85	568.69
669.19	564.88
669.53	561.11
669.87	557.27
670.21	553.59
670.55	549.96
670.89	546.55
671.23	543.20
671.57	539.69
671.91	536.20
672.25	532.70
672.58	529.21
672.92	525.83
673.26	522.73
673.60	519.66
673.94	516.57
674.28	513.64
674.62	510.69
674.96	507.63
675.30	504.79
675.64	501.86
675.97	499.11
676.31	496.29
676.65	493.36
676.99	490.69
677.33	487.81
677.67	484.99
678.01	482.01
678.34	479.05
678.68	476.18
679.02	473.33
679.36	470.63
679.70	467.92
680.04	465.15
680.37	462.24
680.71	459.45
681.05	456.85
681.39	454.16
681.73	451.54
682.06	449.00
682.40	446.47
682.74	443.98
683.08	441.48
683.42	438.88
683.75	436.40
684.09	433.88
684.43	431.49
684.77	429.11
685.10	426.78
685.44	424.48
685.78	422.20
686.12	420.00
686.45	417.73
686.79	415.46
687.13	413.30
687.46	411.18
687.80	409.04
688.14	406.81
688.48	404.79
688.81	402.53
689.15	400.42
689.49	398.25
689.82	396.15
690.16	394.09
690.50	392.16
690.83	390.18
691.17	388.15
691.51	386.22
691.84	384.38
692.18	382.42
692.52	380.43
692.85	378.56
693.19	376.68
693.52	374.84
693.86	373.04
694.20	371.26
694.53	369.47
694.87	367.67
695.21	365.88
695.54	364.08
695.88	362.42
696.21	360.68
696.55	359.03
696.88	357.37
697.22	355.71
697.56	354.06
697.89	352.43
698.23	350.85
698.56	349.28
698.90	347.65
699.23	346.06
699.57	344.56
699.90	343.02
700.24	341.48
700.58	339.91
700.91	338.39
701.25	336.95
701.58	335.55
701.92	334.22
702.25	332.87
702.59	331.48
702.92	330.14
703.26	328.83
703.59	327.56
703.93	326.37
704.26	325.13
704.60	323.89
704.93	322.59
705.26	321.35
705.60	320.20
705.93	319.04
706.27	317.96
706.60	316.87
706.94	315.77
707.27	314.64
707.61	313.61
707.94	312.61
708.27	311.51
708.61	310.48
708.94	309.46
709.28	308.52
709.61	307.58
709.94	306.62
710.28	305.65
710.61	304.66
710.95	303.60
711.28	302.67
711.61	301.70
711.95	300.87
712.28	299.93
712.61	298.97
712.95	298.08
713.28	297.24
713.61	296.37
713.95	295.51
714.28	294.70
714.61	293.88
714.95	293.07
715.28	292.25
715.61	291.36
715.95	290.52
716.28	289.68
716.61	288.86
716.95	288.08
717.28	287.35
717.61	286.63
717.94	285.91
718.28	285.17
718.61	284.48
718.94	283.75
719.27	283.13
719.61	282.46
719.94	281.79
720.27	281.12
720.60	280.47
720.94	279.84
721.27	279.23
721.60	278.65
721.93	278.04
722.27	277.49
722.60	276.93
722.93	276.31
723.26	275.77
723.59	275.20
723.93	274.62
724.26	274.06
724.59	273.51
724.92	272.99
725.25	272.48
725.59	271.94
725.92	271.44
726.25	270.90
726.58	270.39
726.91	269.89
727.24	269.40
727.57	268.92
727.91	268.43
728.24	267.97
728.57	267.45
728.90	266.98
729.23	266.46
729.56	266.00
729.89	265.57
730.22	265.05
730.55	264.59
730.89	264.15
731.22	263.68
731.55	263.19
731.88	262.73
732.21	262.30
732.54	261.86
732.87	261.40
733.20	261.01
733.53	260.63
733.86	260.23
734.19	259.82
734.52	259.39
734.85	259.09
735.18	258.67
735.51	258.31
735.84	257.92
736.17	257.58
736.50	257.20
736.83	256.93
737.16	256.61
737.49	256.22
737.82	255.88
738.15	255.55
738.48	255.25
738.81	254.92
739.14	254.58
739.47	254.28
739.80	254.00
740.13	253.68
740.46	253.36
740.79	253.04
741.12	252.76
741.45	252.45
741.78	252.05
742.11	251.78
742.44	251.43
742.77	251.15
743.10	250.86
743.43	250.57
743.75	250.20
744.08	250.07
744.41	249.83
744.74	249.53
745.07	249.24
745.40	249.01
745.73	248.78
746.06	248.52
746.39	248.29
746.71	248.01
747.04	247.75
747.37	247.51
747.70	247.28
748.03	247.00
748.36	246.82
748.68	246.65
749.01	246.38
749.34	246.22
749.67	245.97
750.00	245.76
750.33	245.61
750.65	245.41
750.98	245.08
751.31	244.89
751.64	244.73
751.97	244.60
752.29	244.37
752.62	244.14
752.95	243.93
753.28	243.71
753.60	243.53
753.93	243.36
754.26	243.16
754.59	242.95
754.91	242.80
755.24	242.61
755.57	242.44
755.90	242.31
756.22	242.11
756.55	241.95
756.88	241.78
757.20	241.55
757.53	241.36
757.86	241.19
758.19	241.04
758.51	240.88
758.84	240.65
759.17	240.51
759.49	240.40
759.82	240.28
760.15	240.12
760.47	239.95
760.80	239.78
761.13	239.65
761.45	239.47
761.78	239.32
762.11	239.18
762.43	239.01
762.76	238.82
763.08	238.70
763.41	238.59
763.74	238.42
764.06	238.29
764.39	238.19
764.71	238.04
765.04	237.90
765.37	237.74
765.69	237.62
766.02	237.46
766.34	237.29
766.67	237.14
767.00	237.04
767.32	236.99
767.65	236.91
767.97	236.77
768.30	236.65
768.62	236.52
768.95	236.38
769.27	236.24
769.60	236.13
769.92	236.01
770.25	235.89
770.57	235.78
770.90	235.63
771.22	235.50
771.55	235.40
771.87	235.27
772.20	235.14
772.52	235.12
772.85	235.18
773.17	235.11
773.50	235.00
773.82	234.92
774.15	234.76
774.47	234.63
774.80	234.54
775.12	234.46
775.45	234.39
775.77	234.26
776.09	234.18
776.42	234.10
776.74	234.05
777.07	233.93
777.39	233.87
777.72	233.81
778.04	233.72
778.36	233.62
778.69	233.56
779.01	233.52
779.33	233.38
779.66	233.20
779.98	233.09
780.31	233.02
780.63	232.97
780.95	232.92
781.28	232.83
781.60	232.74
781.92	232.66
782.25	232.58
782.57	232.54
782.89	232.49
783.22	232.41
783.54	232.31
783.86	232.28
784.19	232.18
784.51	232.17
784.83	232.12
785.16	232.07
785.48	232.04
785.80	232.00
786.12	231.95
786.45	231.91
786.77	231.87
787.09	231.80
787.42	231.73
787.74	231.70
788.06	231.68
788.38	231.66
788.71	231.61
789.03	231.58
789.35	231.59
789.67	231.59
789.99	231.59
790.32	231.53
790.64	231.50
790.96	231.55
791.28	231.52
791.61	231.49
791.93	231.49
792.25	231.40
792.57	231.43
792.89	231.41
793.21	231.36
793.54	231.33
793.86	231.32
794.18	231.29
794.50	231.24
794.82	231.19
795.14	231.18
795.47	231.17
795.79	231.14
796.11	231.09
796.43	231.04
796.75	231.02
797.07	231.02
797.39	230.98
797.71	230.91
798.04	230.86
798.36	230.85
798.68	230.82
799.00	230.85
799.32	230.76
799.64	230.77
799.96	230.77
800.28	230.73
800.60	230.71
800.92	230.67
801.24	230.65
801.56	230.66
801.89	230.60
802.21	230.59
802.53	230.55
802.85	230.49
803.17	230.52
803.49	230.50
803.81	230.44
804.13	230.43
804.45	230.38
804.77	230.36
805.09	230.32
805.41	230.26
805.73	230.21
806.05	230.19
806.37	230.12
806.69	230.07
807.01	230.05
807.33	230.04
807.65	230.00
807.97	230.02
808.28	229.94
808.60	229.91
808.92	229.86
809.24	229.92
809.56	229.91
809.88	229.85
810.20	229.79
810.52	229.79
810.84	229.73
811.16	229.69
811.48	229.68
811.80	229.68
812.12	229.63
812.43	229.60
812.75	229.58
813.07	229.56
813.39	229.53
813.71	229.48
814.03	229.40
814.35	229.36
814.67	229.30
814.98	229.29
815.30	229.26
815.62	229.25
815.94	229.12
816.26	229.14
816.58	229.09
816.89	229.06
817.21	229.02
817.53	229.05
817.85	229.04
818.17	228.97
818.48	228.90
818.80	228.92
819.12	228.92
819.44	228.89
819.76	228.82
820.07	228.80
820.39	228.79
820.71	228.81
821.03	228.82
821.34	228.79
821.66	228.80
821.98	228.81
822.30	228.78
822.61	228.83
822.93	228.76
823.25	228.69
823.57	228.69
823.88	228.69
824.20	228.66
824.52	228.65
824.83	228.63
825.15	228.65
825.47	228.62
825.79	228.60
826.10	228.56
826.42	228.56
826.74	228.55
827.05	228.55
827.37	228.53
827.69	228.50
828.00	228.50
828.32	228.46
828.64	228.44
828.95	228.48
829.27	228.43
829.58	228.42
829.90	228.46
830.22	228.42
830.53	228.38
830.85	228.35
831.17	228.33
831.48	228.35
831.80	228.33
832.11	228.34
832.43	228.33
832.75	228.34
833.06	228.40
833.38	228.40
833.69	228.40
834.01	228.40
834.32	228.40
834.64	228.36
834.96	228.38
835.27	228.37
835.59	228.32
835.90	228.30
836.22	228.31
836.53	228.31
836.85	228.34
837.16	228.44
837.48	228.44
837.79	228.44
838.11	228.45
838.42	228.43
838.74	228.44
839.05	228.41
839.37	228.39
839.68	228.33
840.00	228.31
840.31	228.32
840.63	228.30
840.94	228.30
841.26	228.30
841.57	228.29
841.88	228.28
842.20	228.29
842.51	228.28
842.83	228.25
843.14	228.33
843.46	228.32
843.77	228.22
844.08	228.19
844.40	228.17
844.71	228.14
845.03	228.12
845.34	228.09
845.65	228.09
845.97	228.05
846.28	228.03
846.60	227.99
846.91	227.94
847.22	227.93
847.54	227.93
847.85	227.92
848.16	227.87
848.48	227.87
848.79	227.88
849.10	227.87
849.42	227.86
849.73	227.75
850.04	227.72
850.36	227.71
850.67	227.72
850.98	227.69
851.30	227.71
851.61	227.72
851.92	227.72
852.23	227.75
852.55	227.77
852.86	227.79
853.17	227.79
853.49	227.79
853.80	227.80
854.11	227.80
854.42	227.79
854.74	227.79
855.05	227.76
855.36	227.71
855.67	227.73
855.99	227.75
856.30	227.88
856.61	227.91
856.92	227.95
857.23	227.98
857.55	227.98
857.86	227.97
858.17	227.96
858.48	227.92
858.79	227.88
859.11	227.90
859.42	227.88
859.73	227.88
860.04	227.89
860.35	227.85
860.66	227.80
860.98	227.83
861.29	227.81
861.60	227.79
861.91	227.81
862.22	227.78
862.53	227.76
862.84	227.64
863.16	227.67
863.47	227.60
863.78	227.56
864.09	227.57
864.40	227.55
864.71	227.57
865.02	227.61
865.33	227.62
865.64	227.60
865.95	227.60
866.27	227.69
866.58	227.66
866.89	227.67
867.20	227.68
867.51	227.67
867.82	227.69
868.13	227.74
868.44	227.74
868.75	227.76
869.06	227.77
869.37	227.77
869.68	227.73
869.99	227.76
870.30	227.76
870.61	227.76
870.92	227.73
871.23	227.72
871.54	227.71
871.85	227.73
872.16	227.72
872.47	227.71
872.78	227.64
873.09	227.68
873.40	227.66
873.71	227.67
874.02	227.64
874.33	227.66
874.64	227.67
874.95	227.70
875.26	227.68
875.56	227.65
875.87	227.63
876.18	227.61
876.49	227.73
876.80	227.73
877.11	227.71
877.42	227.73
877.73	227.73
878.04	227.71
878.35	227.69
878.66	227.72
878.96	227.76
879.27	227.79
879.58	227.77
879.89	227.78
880.20	227.81
880.51	227.84
880.82	227.82
881.12	227.81
881.43	227.75
881.74	227.73
882.05	227.71
882.36	227.70
882.67	227.74
882.97	227.62
883.28	227.63
883.59	227.66
883.90	227.67
884.21	227.68
884.51	227.67
884.82	227.68
885.13	227.67
885.44	227.65
885.74	227.61
886.05	227.59
886.36	227.60
886.67	227.59
886.98	227.63
887.28	227.65
887.59	227.64
887.90	227.68
888.20	227.67
888.51	227.74
888.82	227.75
889.13	227.73
889.43	227.80
889.74	227.76
890.05	227.71
890.35	227.69
890.66	227.68
890.97	227.70
891.28	227.65
891.58	227.65
891.89	227.62
892.20	227.63
892.50	227.64
892.81	227.64
893.12	227.63
893.42	227.58
893.73	227.56
894.04	227.55
894.34	227.52
894.65	227.53
894.95	227.48
895.26	227.45
895.57	227.51
895.87	227.41
896.18	227.43
896.48	227.46
896.79	227.45
897.10	227.47
897.40	227.45
897.71	227.46
898.01	227.44
898.32	227.48
898.63	227.43
898.93	227.41
899.24	227.39
899.54	227.37
899.85	227.35
900.15	227.36
900.46	227.35
900.76	227.36
901.07	227.34
901.38	227.35
901.68	227.40
901.99	227.33
902.29	227.34
902.60	227.31
902.90	227.29
903.21	227.30
903.51	227.30
903.82	227.27
904.12	227.27
904.43	227.26
904.73	227.22
905.03	227.27
905.34	227.34
905.64	227.35
905.95	227.34
906.25	227.35
906.56	227.34
906.86	227.36
907.17	227.38
907.47	227.39
907.77	227.37
908.08	227.34
908.38	227.34
908.69	227.35
908.99	227.38
909.30	227.39
909.60	227.37
909.90	227.35
910.21	227.34
910.51	227.33
910.81	227.33
911.12	227.34
911.42	227.35
911.73	227.23
912.03	227.24
912.33	227.27
912.64	227.28
912.94	227.30
913.24	227.27
913.55	227.25
913.85	227.27
914.15	227.28
914.46	227.31
914.76	227.31
915.06	227.35
915.37	227.34
915.67	227.35
915.97	227.38
916.27	227.39
916.58	227.43
916.88	227.47
917.18	227.46
917.49	227.54
917.79	227.54
918.09	227.59
918.39	227.61
918.70	227.60
919.00	227.59
919.30	227.61
919.60	227.62
919.91	227.59
920.21	227.60
920.51	227.56
920.81	227.52
921.12	227.53
921.42	227.51
921.72	227.54
922.02	227.55
922.32	227.58
922.63	227.59
922.93	227.61
923.23	227.57
923.53	227.56
923.83	227.47
924.13	227.48
924.44	227.49
924.74	227.51
925.04	227.54
925.34	227.54
925.64	227.52
925.94	227.51
926.24	227.56
926.55	227.54
926.85	227.58
927.15	227.61
927.45	227.62
927.75	227.61
928.05	227.59
928.35	227.55
928.65	227.54
928.95	227.51
929.26	227.46
929.56	227.50
929.86	227.52
930.16	227.51
930.46	227.48
930.76	227.47
931.06	227.41
931.36	227.35
931.66	227.35
931.96	227.33
932.26	227.34
932.56	227.28
932.86	227.29
933.16	227.28
933.46	227.26
933.76	227.24
934.06	227.24
934.36	227.28
934.66	227.26
934.96	227.21
935.26	227.23
935.56	227.24
935.86	227.21
936.16	227.19
936.46	227.17
936.76	227.19
937.06	227.17
937.36	227.17
937.66	227.20
937.96	227.20
938.26	227.16
938.56	227.16
938.86	227.17
939.16	227.18
939.46	227.18
939.76	227.17
940.06	227.15
940.35	227.12
940.65	227.01
940.95	227.02
941.25	227.02
941.55	226.99
941.85	226.98
942.15	226.97
942.45	227.00
942.75	227.00
943.04	226.99
943.34	227.00
943.64	226.99
943.94	226.97
944.24	226.93
944.54	226.93
944.84	226.93
945.13	226.91
945.43	226.94
945.73	226.91
946.03	226.90
946.33	226.86
946.62	226.87
946.92	226.87
947.22	226.94
947.52	226.92
947.82	226.94
948.11	226.97
948.41	226.95
948.71	226.93
949.01	226.93
949.31	226.95
949.60	226.92
949.90	226.97
950.20	226.96
950.50	227.01
950.79	227.05
951.09	227.04
951.39	227.07
951.69	227.01
951.98	227.02
952.28	227.03
952.58	227.07
952.87	227.09
953.17	227.15
953.47	227.11
953.76	227.15
954.06	227.15
954.36	227.13
954.66	227.13
954.95	227.17
955.25	227.20
955.55	227.17
955.84	227.19
956.14	227.16
956.44	227.18
956.73	227.14
957.03	227.15
957.32	227.19
957.62	227.19
957.92	227.25
958.21	227.24
958.51	227.39
958.81	227.39
959.10	227.39
959.40	227.42
959.69	227.44
959.99	227.46
960.29	227.47
960.58	227.47
960.88	227.53
961.17	227.48
961.47	227.49
961.76	227.51
962.06	227.49
962.36	227.50
962.65	227.54
962.95	227.57
963.24	227.55
963.54	227.56
963.83	227.56
964.13	227.52
964.42	227.50
964.72	227.40
965.01	227.41
965.31	227.40
965.60	227.39
965.90	227.41
966.19	227.36
966.49	227.34
966.78	227.30
967.08	227.29
967.37	227.33
967.67	227.31
967.96	227.32
968.26	227.36
968.55	227.37
968.85	227.32
969.14	227.29
969.43	227.26
969.73	227.20
970.02	227.18
970.32	227.17
970.61	227.20
970.91	227.17
971.20	227.13
971.49	227.12
971.79	227.11
972.08	227.03
972.38	227.05
972.67	227.03
972.96	227.08
973.26	227.08
973.55	227.07
973.85	227.07
974.14	227.05
974.43	227.03
974.73	227.00
975.02	227.00
975.31	226.99
975.61	227.02
975.90	227.05
976.19	227.04
976.49	227.09
976.78	227.10
977.07	227.09
977.37	227.11
977.66	227.15
977.95	227.11
978.24	227.13
978.54	227.15
978.83	227.15
979.12	227.16
979.42	227.14
979.71	227.12
980.00	227.09
980.29	227.09
980.59	227.04
980.88	227.08
981.17	227.09
981.46	227.11
981.76	227.10
982.05	227.13
982.34	227.15
982.63	227.15
982.93	227.13
983.22	227.15
983.51	227.15
983.80	227.10
984.09	227.16
984.39	227.14
984.68	227.10
984.97	227.13
985.26	227.13
985.55	227.12
985.85	227.12
986.14	227.17
986.43	227.20
986.72	227.22
987.01	227.18
987.30	227.18
987.59	227.15
987.89	227.16
988.18	227.16
988.47	227.13
988.76	227.14
989.05	227.14
989.34	227.14
989.63	227.16
989.92	227.22
990.22	227.20
990.51	227.24
990.80	227.28
991.09	227.29
991.38	227.32
991.67	227.35
991.96	227.34
992.25	227.33
992.54	227.33
992.83	227.36
993.12	227.39
993.41	227.40
993.70	227.47
993.99	227.48
994.28	227.47
994.58	227.47
994.87	227.49
995.16	227.50
995.45	227.48
995.74	227.48
996.03	227.44
996.32	227.44
996.61	227.47
996.90	227.48
997.19	227.48
997.48	227.45
997.77	227.43
998.06	227.42
998.34	227.41
998.63	227.43
998.92	227.43
999.21	227.43
999.50	227.43
999.79	227.40
1000.08	227.42
1000.37	227.42
1000.66	227.44
1000.95	227.43
1001.24	227.42
1001.53	227.43
1001.82	227.39
1002.11	227.39
1002.40	227.41
1002.68	227.39
1002.97	227.44
1003.26	227.41
1003.55	227.37
1003.84	227.36
1004.13	227.39
1004.42	227.39
1004.71	227.36
1004.99	227.33
1005.28	227.35
1005.57	227.36
1005.86	227.32
1006.15	227.30
1006.44	227.26
1006.72	227.24
1007.01	227.21
1007.30	227.18
1007.59	227.14
1007.88	227.15
1008.17	227.16
1008.45	227.10
1008.74	227.07
1009.03	227.01
1009.32	226.99
1009.60	227.02
1009.89	227.01
1010.18	226.97
1010.47	226.95
1010.76	226.94
1011.04	226.93
1011.33	226.92
1011.62	226.89
1011.91	226.90
1012.19	226.89
1012.48	226.91
1012.77	226.91
1013.05	226.91
1013.34	226.92
1013.63	226.92
1013.92	226.95
1014.20	226.93
1014.49	226.96
1014.78	226.95
1015.06	226.91
1015.35	226.91
1015.64	226.93
1015.92	226.94
1016.21	226.95
1016.50	226.95
1016.78	226.98
1017.07	226.96
1017.36	226.92
1017.64	226.94
1017.93	226.91
1018.22	226.91
1018.50	226.91
1018.79	226.89
1019.08	226.88
1019.36	226.87
1019.65	226.89
1019.93	226.90
1020.22	226.95
1020.51	226.96
1020.79	226.98
1021.08	226.98
1021.36	227.09
1021.65	226.51
1021.94	226.99
1022.22	226.67
1022.51	226.89
1022.79	227.51
1023.08	227.61
1023.36	227.59
1023.65	226.97
>>>>>End Processed Spectral Data<<<<<
