SpectraSuite Data File
++++++++++++++++++++++++++++++++++++
Date: Fri Feb 01 15:35:30 EST 2013
User: group
Dark Spectrum Present: No
Reference Spectrum Present: No
Number of Sampled Component Spectra: 1
Spectrometers: USB2E7196
Integration Time (usec): 35000 (USB2E7196)
Spectra Averaged: 100 (USB2E7196)
Boxcar Smoothing: 10 (USB2E7196)
Correct for Electrical Dark: No (USB2E7196)
Strobe/Lamp Enabled: No (USB2E7196)
Correct for Detector Non-linearity: No (USB2E7196)
Correct for Stray Light: No (USB2E7196)
Number of Pixels in Processed Spectrum: 2048
>>>>>Begin Processed Spectral Data<<<<<
339.09	0.00
339.48	214.45
339.86	216.86
340.24	218.10
340.63	219.44
341.01	221.91
341.39	221.28
341.78	223.59
342.16	224.22
342.54	224.88
342.93	213.27
343.31	224.06
343.69	224.62
344.07	225.07
344.46	225.49
344.84	225.86
345.22	226.11
345.60	226.40
345.99	226.59
346.37	226.74
346.75	226.88
347.13	226.97
347.52	227.03
347.90	227.10
348.28	227.15
348.66	227.18
349.05	227.18
349.43	227.21
349.81	227.24
350.19	227.28
350.57	227.34
350.96	227.43
351.34	227.47
351.72	227.56
352.10	227.64
352.48	227.72
352.87	227.76
353.25	227.85
353.63	227.89
354.01	227.95
354.39	228.04
354.77	228.09
355.15	228.17
355.54	228.24
355.92	228.27
356.30	228.32
356.68	228.46
357.06	228.52
357.44	228.54
357.82	228.60
358.20	228.69
358.58	228.77
358.97	228.84
359.35	228.94
359.73	229.02
360.11	229.08
360.49	229.09
360.87	229.13
361.25	229.14
361.63	229.20
362.01	229.21
362.39	229.22
362.77	229.24
363.15	229.26
363.53	229.27
363.91	229.30
364.29	229.33
364.67	229.25
365.05	229.27
365.43	229.31
365.81	229.34
366.19	229.39
366.57	229.45
366.95	229.42
367.33	229.38
367.71	229.37
368.09	229.36
368.47	229.36
368.85	229.36
369.23	229.36
369.61	229.33
369.99	229.35
370.37	229.35
370.75	229.34
371.13	229.30
371.51	229.28
371.89	229.26
372.27	229.22
372.65	229.14
373.03	229.09
373.41	229.04
373.78	228.98
374.16	228.88
374.54	228.75
374.92	228.69
375.30	228.62
375.68	228.54
376.06	228.48
376.44	228.44
376.82	228.35
377.19	228.29
377.57	228.23
377.95	228.11
378.33	228.02
378.71	227.94
379.09	227.88
379.47	227.82
379.84	227.76
380.22	227.69
380.60	227.64
380.98	227.60
381.36	227.50
381.73	227.41
382.11	227.33
382.49	227.27
382.87	227.17
383.25	227.16
383.62	227.20
384.00	227.11
384.38	227.01
384.76	227.00
385.13	227.01
385.51	226.93
385.89	226.86
386.27	226.81
386.64	226.76
387.02	226.72
387.40	226.67
387.78	226.58
388.15	226.51
388.53	226.46
388.91	226.39
389.29	226.38
389.66	226.39
390.04	226.36
390.42	226.37
390.79	226.36
391.17	226.33
391.55	226.22
391.92	226.23
392.30	226.27
392.68	226.23
393.05	226.20
393.43	226.23
393.81	226.28
394.18	226.27
394.56	226.28
394.94	226.30
395.31	226.30
395.69	226.37
396.06	226.42
396.44	226.47
396.82	226.51
397.19	226.60
397.57	226.63
397.95	226.69
398.32	226.69
398.70	226.75
399.07	226.80
399.45	226.83
399.82	226.88
400.20	226.90
400.58	226.96
400.95	227.00
401.33	227.07
401.70	227.22
402.08	227.30
402.45	227.38
402.83	227.50
403.20	227.63
403.58	227.74
403.95	227.87
404.33	228.02
404.71	228.14
405.08	228.31
405.46	228.43
405.83	228.56
406.21	228.73
406.58	228.92
406.96	229.10
407.33	229.31
407.70	229.53
408.08	229.83
408.45	230.08
408.83	230.30
409.20	230.51
409.58	230.71
409.95	230.97
410.33	231.28
410.70	231.53
411.08	231.86
411.45	232.18
411.82	232.54
412.20	232.91
412.57	233.37
412.95	233.70
413.32	234.12
413.69	234.58
414.07	235.06
414.44	235.54
414.82	236.03
415.19	236.61
415.56	237.16
415.94	237.71
416.31	238.36
416.68	239.03
417.06	239.76
417.43	240.43
417.81	241.23
418.18	242.02
418.55	242.85
418.93	243.75
419.30	244.65
419.67	245.57
420.04	246.53
420.42	247.52
420.79	248.68
421.16	249.84
421.54	251.04
421.91	252.22
422.28	253.45
422.66	254.78
423.03	256.11
423.40	257.48
423.77	258.89
424.15	260.31
424.52	261.81
424.89	263.43
425.26	265.01
425.64	266.46
426.01	268.03
426.38	269.68
426.75	271.33
427.13	273.04
427.50	274.84
427.87	276.72
428.24	278.54
428.61	280.28
428.99	282.20
429.36	284.29
429.73	286.36
430.10	288.37
430.47	290.47
430.85	292.55
431.22	294.72
431.59	297.10
431.96	299.35
432.33	301.81
432.70	304.22
433.08	307.02
433.45	309.66
433.82	312.30
434.19	315.20
434.56	317.98
434.93	320.63
435.30	323.25
435.68	326.16
436.05	328.97
436.42	331.78
436.79	334.30
437.16	336.98
437.53	339.86
437.90	342.69
438.27	345.42
438.64	348.22
439.01	350.84
439.38	353.10
439.75	355.25
440.13	357.75
440.50	360.04
440.87	361.89
441.24	363.82
441.61	365.94
441.98	367.43
442.35	369.25
442.72	371.13
443.09	372.91
443.46	373.90
443.83	374.49
444.20	374.98
444.57	375.80
444.94	376.11
445.31	376.43
445.68	376.77
446.05	376.82
446.42	376.45
446.79	375.98
447.16	375.51
447.53	375.19
447.90	374.07
448.27	372.91
448.64	371.32
449.01	370.16
449.37	368.20
449.74	366.29
450.11	364.05
450.48	361.56
450.85	359.02
451.22	356.85
451.59	354.84
451.96	352.86
452.33	350.27
452.70	347.89
453.07	345.04
453.43	342.13
453.80	339.40
454.17	336.72
454.54	334.21
454.91	331.50
455.28	328.85
455.65	326.29
456.02	323.84
456.38	321.71
456.75	319.03
457.12	316.80
457.49	314.57
457.86	312.41
458.23	310.54
458.59	308.50
458.96	306.41
459.33	304.54
459.70	302.69
460.07	301.20
460.43	299.44
460.80	297.83
461.17	296.39
461.54	294.83
461.91	293.43
462.27	292.00
462.64	290.74
463.01	289.34
463.38	288.06
463.74	286.70
464.11	285.52
464.48	284.55
464.85	283.41
465.21	282.52
465.58	281.56
465.95	280.47
466.32	279.59
466.68	278.67
467.05	277.78
467.42	276.90
467.78	275.94
468.15	275.09
468.52	274.37
468.88	273.54
469.25	272.81
469.62	272.14
469.98	271.43
470.35	270.82
470.72	270.23
471.08	269.58
471.45	269.03
471.82	268.46
472.18	267.87
472.55	267.44
472.92	266.93
473.28	266.51
473.65	266.08
474.02	265.63
474.38	265.26
474.75	264.97
475.11	264.63
475.48	264.37
475.85	264.17
476.21	263.96
476.58	263.76
476.94	263.57
477.31	263.41
477.67	263.29
478.04	263.15
478.41	263.06
478.77	263.10
479.14	263.02
479.50	263.03
479.87	263.09
480.23	263.16
480.60	263.17
480.96	263.23
481.33	263.38
481.69	263.57
482.06	263.79
482.42	263.96
482.79	264.22
483.15	264.56
483.52	264.89
483.88	265.25
484.25	265.63
484.61	266.09
484.98	266.50
485.34	267.06
485.71	267.63
486.07	268.26
486.44	268.80
486.80	269.55
487.17	270.26
487.53	271.05
487.90	271.87
488.26	272.85
488.62	273.82
488.99	274.82
489.35	275.82
489.72	276.95
490.08	278.13
490.44	279.38
490.81	280.68
491.17	282.08
491.54	283.55
491.90	285.09
492.26	286.73
492.63	288.45
492.99	290.18
493.36	292.10
493.72	294.15
494.08	296.26
494.45	298.52
494.81	300.88
495.17	303.34
495.54	305.94
495.90	308.61
496.26	311.43
496.63	314.42
496.99	317.57
497.35	320.76
497.72	324.18
498.08	327.70
498.44	331.38
498.80	335.24
499.17	339.29
499.53	343.47
499.89	347.84
500.26	352.38
500.62	357.07
500.98	362.06
501.34	367.06
501.71	372.41
502.07	377.76
502.43	383.35
502.79	389.17
503.16	395.26
503.52	401.56
503.88	407.96
504.24	414.61
504.60	421.49
504.97	428.72
505.33	436.01
505.69	443.73
506.05	451.47
506.41	459.39
506.78	467.60
507.14	476.06
507.50	484.77
507.86	493.80
508.22	503.02
508.59	512.24
508.95	521.91
509.31	531.70
509.67	541.89
510.03	552.20
510.39	562.73
510.75	573.47
511.12	584.39
511.48	595.69
511.84	607.10
512.20	618.59
512.56	630.51
512.92	642.73
513.28	655.04
513.64	667.55
514.00	680.31
514.37	693.20
514.73	706.23
515.09	719.32
515.45	732.58
515.81	746.14
516.17	760.11
516.53	774.22
516.89	788.41
517.25	802.64
517.61	817.18
517.97	831.60
518.33	846.13
518.69	860.89
519.05	875.85
519.41	891.07
519.77	906.70
520.13	922.15
520.49	937.54
520.85	952.96
521.21	968.78
521.57	984.93
521.93	1000.67
522.29	1017.07
522.65	1033.41
523.01	1049.67
523.37	1065.83
523.73	1082.07
524.09	1098.24
524.45	1114.61
524.81	1131.20
525.17	1148.07
525.53	1165.09
525.89	1182.01
526.25	1198.94
526.61	1215.45
526.97	1232.24
527.33	1248.76
527.68	1265.35
528.04	1281.88
528.40	1298.51
528.76	1315.50
529.12	1332.22
529.48	1349.24
529.84	1365.32
530.20	1381.93
530.56	1399.01
530.91	1416.37
531.27	1433.14
531.63	1449.59
531.99	1466.23
532.35	1482.20
532.71	1498.06
533.07	1514.34
533.42	1530.19
533.78	1546.21
534.14	1562.39
534.50	1577.77
534.86	1593.52
535.21	1608.72
535.57	1624.75
535.93	1640.39
536.29	1655.19
536.65	1670.25
537.00	1685.10
537.36	1700.62
537.72	1715.23
538.08	1729.65
538.44	1743.46
538.79	1757.42
539.15	1771.16
539.51	1784.86
539.87	1799.31
540.22	1813.07
540.58	1826.92
540.94	1840.26
541.29	1853.21
541.65	1866.03
542.01	1879.35
542.37	1891.70
542.72	1904.30
543.08	1915.90
543.44	1928.25
543.79	1939.61
544.15	1950.65
544.51	1962.01
544.87	1972.77
545.22	1983.56
545.58	1993.83
545.94	2003.61
546.29	2013.43
546.65	2023.22
547.01	2032.42
547.36	2041.22
547.72	2049.67
548.07	2057.50
548.43	2065.55
548.79	2073.69
549.14	2081.18
549.50	2088.47
549.86	2096.31
550.21	2103.51
550.57	2110.74
550.92	2117.36
551.28	2124.38
551.64	2131.39
551.99	2138.01
552.35	2144.20
552.70	2150.26
553.06	2156.17
553.41	2162.71
553.77	2168.68
554.13	2174.84
554.48	2180.95
554.84	2186.29
555.19	2191.64
555.55	2196.77
555.90	2201.35
556.26	2206.09
556.61	2210.92
556.97	2215.08
557.32	2219.12
557.68	2223.30
558.03	2227.78
558.39	2231.46
558.74	2236.04
559.10	2239.82
559.45	2243.55
559.81	2247.91
560.16	2251.77
560.52	2255.11
560.87	2258.37
561.23	2261.09
561.58	2264.09
561.94	2266.62
562.29	2269.03
562.64	2271.49
563.00	2273.97
563.35	2277.58
563.71	2280.73
564.06	2283.83
564.42	2286.68
564.77	2289.30
565.12	2291.50
565.48	2293.19
565.83	2295.07
566.19	2296.32
566.54	2297.32
566.89	2298.31
567.25	2298.86
567.60	2300.20
567.96	2301.77
568.31	2302.49
568.66	2303.67
569.02	2304.05
569.37	2304.35
569.72	2305.17
570.08	2305.37
570.43	2305.54
570.78	2304.66
571.14	2303.22
571.49	2301.94
571.84	2301.68
572.20	2300.25
572.55	2299.12
572.90	2297.72
573.26	2296.18
573.61	2294.58
573.96	2292.80
574.31	2289.88
574.67	2286.76
575.02	2283.14
575.37	2279.75
575.72	2276.01
576.08	2272.53
576.43	2269.28
576.78	2265.58
577.13	2262.45
577.49	2259.38
577.84	2255.82
578.19	2252.32
578.54	2248.53
578.90	2244.19
579.25	2238.55
579.60	2233.73
579.95	2228.70
580.30	2223.63
580.66	2218.46
581.01	2213.49
581.36	2208.55
581.71	2204.25
582.06	2199.78
582.42	2195.37
582.77	2189.94
583.12	2185.21
583.47	2180.49
583.82	2175.33
584.17	2170.16
584.53	2164.50
584.88	2158.75
585.23	2152.80
585.58	2147.31
585.93	2141.69
586.28	2136.91
586.63	2131.82
586.98	2126.74
587.34	2122.15
587.69	2117.06
588.04	2111.75
588.39	2105.91
588.74	2099.35
589.09	2093.16
589.44	2086.22
589.79	2080.09
590.14	2074.51
590.49	2068.04
590.84	2061.63
591.19	2055.54
591.54	2049.02
591.89	2041.53
592.25	2034.76
592.60	2027.59
592.95	2019.83
593.30	2012.59
593.65	2004.88
594.00	1997.88
594.35	1990.62
594.70	1982.50
595.05	1975.32
595.40	1968.01
595.75	1960.47
596.10	1954.08
596.45	1947.37
596.80	1941.28
597.15	1934.46
597.50	1927.35
597.85	1920.85
598.19	1913.99
598.54	1906.99
598.89	1900.40
599.24	1894.61
599.59	1887.92
599.94	1881.63
600.29	1875.36
600.64	1868.67
600.99	1861.28
601.34	1854.35
601.69	1847.28
602.04	1840.36
602.39	1832.96
602.74	1826.09
603.08	1819.43
603.43	1812.77
603.78	1805.39
604.13	1798.07
604.48	1790.80
604.83	1783.99
605.18	1776.89
605.53	1769.00
605.87	1760.95
606.22	1753.56
606.57	1745.59
606.92	1738.22
607.27	1731.08
607.62	1724.03
607.96	1716.78
608.31	1710.08
608.66	1702.35
609.01	1694.69
609.36	1686.99
609.70	1678.91
610.05	1670.81
610.40	1663.07
610.75	1654.79
611.10	1647.13
611.44	1638.85
611.79	1630.84
612.14	1621.93
612.49	1612.86
612.83	1604.45
613.18	1596.34
613.53	1588.26
613.88	1579.66
614.22	1571.33
614.57	1562.73
614.92	1554.69
615.27	1547.10
615.61	1538.77
615.96	1530.79
616.31	1523.25
616.65	1516.01
617.00	1508.43
617.35	1500.72
617.70	1492.33
618.04	1483.77
618.39	1475.57
618.74	1467.92
619.08	1459.75
619.43	1452.31
619.78	1445.28
620.12	1438.06
620.47	1430.59
620.82	1422.37
621.16	1415.02
621.51	1407.38
621.85	1399.73
622.20	1391.15
622.55	1382.75
622.89	1374.91
623.24	1367.38
623.59	1360.01
623.93	1352.41
624.28	1345.24
624.62	1337.76
624.97	1330.55
625.32	1323.82
625.66	1316.75
626.01	1309.50
626.35	1301.88
626.70	1294.10
627.04	1286.49
627.39	1278.79
627.73	1271.21
628.08	1264.26
628.43	1256.90
628.77	1249.53
629.12	1241.98
629.46	1234.92
629.81	1227.59
630.15	1220.34
630.50	1212.82
630.84	1204.57
631.19	1196.65
631.53	1189.15
631.88	1181.59
632.22	1174.02
632.57	1166.78
632.91	1159.35
633.26	1151.96
633.60	1144.68
633.95	1137.70
634.29	1130.71
634.64	1124.04
634.98	1116.71
635.32	1109.65
635.67	1103.06
636.01	1096.37
636.36	1089.60
636.70	1083.07
637.05	1076.42
637.39	1070.00
637.73	1063.53
638.08	1057.67
638.42	1051.72
638.77	1045.29
639.11	1038.77
639.45	1032.37
639.80	1025.63
640.14	1019.14
640.49	1012.70
640.83	1006.37
641.17	1000.06
641.52	993.66
641.86	987.26
642.20	981.41
642.55	975.14
642.89	968.62
643.23	962.23
643.58	956.40
643.92	950.18
644.26	944.20
644.61	938.19
644.95	932.20
645.29	925.64
645.64	918.89
645.98	912.49
646.32	906.66
646.66	900.67
647.01	894.93
647.35	889.21
647.69	883.35
648.04	877.88
648.38	872.03
648.72	865.99
649.06	859.84
649.41	854.03
649.75	848.00
650.09	842.04
650.43	836.23
650.78	830.10
651.12	824.17
651.46	818.38
651.80	812.61
652.14	807.12
652.49	801.71
652.83	796.52
653.17	790.87
653.51	785.09
653.85	779.74
654.20	774.04
654.54	768.10
654.88	762.33
655.22	756.39
655.56	750.69
655.90	745.25
656.25	740.01
656.59	734.62
656.93	729.55
657.27	724.40
657.61	718.95
657.95	713.83
658.29	708.76
658.64	703.55
658.98	698.22
659.32	692.83
659.66	687.65
660.00	682.32
660.34	677.39
660.68	672.48
661.02	667.37
661.36	662.63
661.70	658.11
662.05	653.74
662.39	649.38
662.73	644.99
663.07	640.65
663.41	636.21
663.75	631.69
664.09	627.11
664.43	622.76
664.77	618.61
665.11	614.33
665.45	610.22
665.79	606.11
666.13	601.93
666.47	597.84
666.81	593.73
667.15	589.65
667.49	585.73
667.83	581.95
668.17	578.05
668.51	574.01
668.85	569.97
669.19	566.13
669.53	562.36
669.87	558.46
670.21	554.75
670.55	551.11
670.89	547.71
671.23	544.31
671.57	540.82
671.91	537.28
672.25	533.84
672.58	530.37
672.92	527.01
673.26	523.94
673.60	520.79
673.94	517.65
674.28	514.76
674.62	511.79
674.96	508.67
675.30	505.77
675.64	502.83
675.97	500.06
676.31	497.19
676.65	494.24
676.99	491.56
677.33	488.72
677.67	485.89
678.01	482.83
678.34	479.83
678.68	476.91
679.02	474.11
679.36	471.36
679.70	468.56
680.04	465.79
680.37	462.95
680.71	460.18
681.05	457.58
681.39	454.87
681.73	452.23
682.06	449.73
682.40	447.21
682.74	444.69
683.08	442.19
683.42	439.68
683.75	437.20
684.09	434.63
684.43	432.15
684.77	429.71
685.10	427.38
685.44	425.08
685.78	422.87
686.12	420.65
686.45	418.35
686.79	416.05
687.13	413.84
687.46	411.65
687.80	409.46
688.14	407.23
688.48	405.11
688.81	402.87
689.15	400.73
689.49	398.51
689.82	396.47
690.16	394.38
690.50	392.36
690.83	390.40
691.17	388.43
691.51	386.57
691.84	384.71
692.18	382.80
692.52	380.81
692.85	378.87
693.19	376.98
693.52	375.19
693.86	373.42
694.20	371.63
694.53	369.81
694.87	368.01
695.21	366.23
695.54	364.45
695.88	362.72
696.21	361.00
696.55	359.34
696.88	357.68
697.22	356.05
697.56	354.40
697.89	352.70
698.23	351.06
698.56	349.41
698.90	347.81
699.23	346.13
699.57	344.62
699.90	343.05
700.24	341.55
700.58	339.97
700.91	338.41
701.25	336.95
701.58	335.55
701.92	334.21
702.25	332.83
702.59	331.43
702.92	330.12
703.26	328.82
703.59	327.57
703.93	326.34
704.26	325.03
704.60	323.74
704.93	322.49
705.26	321.27
705.60	320.11
705.93	318.97
706.27	317.93
706.60	316.86
706.94	315.79
707.27	314.62
707.61	313.57
707.94	312.61
708.27	311.51
708.61	310.46
708.94	309.42
709.28	308.44
709.61	307.50
709.94	306.53
710.28	305.50
710.61	304.53
710.95	303.49
711.28	302.60
711.61	301.69
711.95	300.81
712.28	299.86
712.61	298.87
712.95	297.95
713.28	297.08
713.61	296.19
713.95	295.29
714.28	294.48
714.61	293.65
714.95	292.81
715.28	292.00
715.61	291.13
715.95	290.30
716.28	289.45
716.61	288.61
716.95	287.83
717.28	287.05
717.61	286.30
717.94	285.56
718.28	284.74
718.61	283.99
718.94	283.29
719.27	282.63
719.61	282.01
719.94	281.35
720.27	280.64
720.60	279.99
720.94	279.36
721.27	278.75
721.60	278.14
721.93	277.56
722.27	277.01
722.60	276.47
722.93	275.89
723.26	275.36
723.59	274.84
723.93	274.28
724.26	273.74
724.59	273.13
724.92	272.60
725.25	272.15
725.59	271.66
725.92	271.14
726.25	270.61
726.58	270.13
726.91	269.64
727.24	269.18
727.57	268.70
727.91	268.19
728.24	267.73
728.57	267.27
728.90	266.79
729.23	266.33
729.56	265.91
729.89	265.44
730.22	264.95
730.55	264.50
730.89	264.09
731.22	263.64
731.55	263.26
731.88	262.86
732.21	262.42
732.54	261.96
732.87	261.52
733.20	261.16
733.53	260.76
733.86	260.37
734.19	259.96
734.52	259.56
734.85	259.25
735.18	258.84
735.51	258.47
735.84	258.10
736.17	257.74
736.50	257.31
736.83	257.08
737.16	256.77
737.49	256.41
737.82	256.02
738.15	255.70
738.48	255.33
738.81	254.99
739.14	254.69
739.47	254.39
739.80	254.12
740.13	253.80
740.46	253.45
740.79	253.10
741.12	252.79
741.45	252.53
741.78	252.16
742.11	251.87
742.44	251.53
742.77	251.25
743.10	250.88
743.43	250.60
743.75	250.20
744.08	250.00
744.41	249.74
744.74	249.47
745.07	249.19
745.40	248.94
745.73	248.70
746.06	248.40
746.39	248.13
746.71	247.86
747.04	247.59
747.37	247.33
747.70	247.09
748.03	246.83
748.36	246.55
748.68	246.35
749.01	246.10
749.34	245.90
749.67	245.64
750.00	245.46
750.33	245.29
750.65	245.07
750.98	244.74
751.31	244.53
751.64	244.32
751.97	244.15
752.29	243.91
752.62	243.67
752.95	243.44
753.28	243.22
753.60	243.01
753.93	242.84
754.26	242.69
754.59	242.49
754.91	242.29
755.24	242.12
755.57	241.95
755.90	241.76
756.22	241.51
756.55	241.33
756.88	241.14
757.20	240.93
757.53	240.71
757.86	240.55
758.19	240.40
758.51	240.26
758.84	240.08
759.17	239.95
759.49	239.80
759.82	239.70
760.15	239.58
760.47	239.39
760.80	239.22
761.13	239.09
761.45	238.93
761.78	238.79
762.11	238.65
762.43	238.45
762.76	238.35
763.08	238.26
763.41	238.14
763.74	238.02
764.06	237.90
764.39	237.80
764.71	237.70
765.04	237.56
765.37	237.41
765.69	237.29
766.02	237.16
766.34	237.02
766.67	236.85
767.00	236.75
767.32	236.74
767.65	236.71
767.97	236.60
768.30	236.52
768.62	236.42
768.95	236.33
769.27	236.25
769.60	236.16
769.92	236.05
770.25	235.93
770.57	235.86
770.90	235.72
771.22	235.62
771.55	235.52
771.87	235.44
772.20	235.31
772.52	235.30
772.85	235.34
773.17	235.27
773.50	235.20
773.82	235.07
774.15	234.89
774.47	234.72
774.80	234.58
775.12	234.48
775.45	234.37
775.77	234.30
776.09	234.23
776.42	234.15
776.74	234.09
777.07	234.01
777.39	233.89
777.72	233.82
778.04	233.76
778.36	233.67
778.69	233.58
779.01	233.57
779.33	233.39
779.66	233.21
779.98	233.16
780.31	233.08
780.63	233.07
780.95	233.05
781.28	232.98
781.60	232.95
781.92	232.85
782.25	232.79
782.57	232.70
782.89	232.60
783.22	232.50
783.54	232.40
783.86	232.35
784.19	232.32
784.51	232.29
784.83	232.22
785.16	232.18
785.48	232.10
785.80	232.02
786.12	231.99
786.45	231.91
786.77	231.85
787.09	231.80
787.42	231.73
787.74	231.66
788.06	231.61
788.38	231.56
788.71	231.53
789.03	231.51
789.35	231.49
789.67	231.46
789.99	231.43
790.32	231.40
790.64	231.39
790.96	231.44
791.28	231.38
791.61	231.36
791.93	231.29
792.25	231.24
792.57	231.28
792.89	231.22
793.21	231.16
793.54	231.13
793.86	231.06
794.18	231.02
794.50	230.96
794.82	230.95
795.14	230.89
795.47	230.88
795.79	230.84
796.11	230.78
796.43	230.78
796.75	230.76
797.07	230.72
797.39	230.67
797.71	230.54
798.04	230.49
798.36	230.42
798.68	230.39
799.00	230.37
799.32	230.27
799.64	230.27
799.96	230.29
800.28	230.25
800.60	230.21
800.92	230.20
801.24	230.16
801.56	230.09
801.89	230.05
802.21	230.00
802.53	229.93
802.85	229.90
803.17	229.87
803.49	229.85
803.81	229.80
804.13	229.76
804.45	229.74
804.77	229.74
805.09	229.72
805.41	229.70
805.73	229.66
806.05	229.64
806.37	229.61
806.69	229.55
807.01	229.51
807.33	229.51
807.65	229.42
807.97	229.46
808.28	229.45
808.60	229.43
808.92	229.41
809.24	229.47
809.56	229.46
809.88	229.41
810.20	229.35
810.52	229.34
810.84	229.31
811.16	229.26
811.48	229.19
811.80	229.22
812.12	229.18
812.43	229.18
812.75	229.14
813.07	229.09
813.39	229.08
813.71	229.05
814.03	229.03
814.35	229.05
814.67	228.99
814.98	228.97
815.30	228.95
815.62	228.93
815.94	228.85
816.26	228.83
816.58	228.83
816.89	228.83
817.21	228.79
817.53	228.80
817.85	228.78
818.17	228.80
818.48	228.74
818.80	228.75
819.12	228.71
819.44	228.70
819.76	228.72
820.07	228.71
820.39	228.70
820.71	228.69
821.03	228.65
821.34	228.63
821.66	228.66
821.98	228.66
822.30	228.64
822.61	228.68
822.93	228.62
823.25	228.60
823.57	228.58
823.88	228.62
824.20	228.62
824.52	228.65
824.83	228.66
825.15	228.62
825.47	228.61
825.79	228.61
826.10	228.57
826.42	228.54
826.74	228.53
827.05	228.52
827.37	228.49
827.69	228.44
828.00	228.40
828.32	228.36
828.64	228.34
828.95	228.36
829.27	228.35
829.58	228.36
829.90	228.35
830.22	228.36
830.53	228.28
830.85	228.26
831.17	228.19
831.48	228.15
831.80	228.13
832.11	228.10
832.43	228.08
832.75	228.08
833.06	228.12
833.38	228.10
833.69	228.08
834.01	228.05
834.32	228.07
834.64	228.04
834.96	228.02
835.27	228.01
835.59	227.97
835.90	227.91
836.22	227.90
836.53	227.84
836.85	227.83
837.16	227.92
837.48	227.89
837.79	227.93
838.11	227.93
838.42	227.93
838.74	227.93
839.05	227.89
839.37	227.88
839.68	227.78
840.00	227.77
840.31	227.79
840.63	227.81
840.94	227.77
841.26	227.79
841.57	227.79
841.88	227.80
842.20	227.77
842.51	227.77
842.83	227.75
843.14	227.87
843.46	227.81
843.77	227.74
844.08	227.73
844.40	227.67
844.71	227.62
845.03	227.58
845.34	227.57
845.65	227.56
845.97	227.55
846.28	227.57
846.60	227.57
846.91	227.51
847.22	227.46
847.54	227.52
847.85	227.54
848.16	227.49
848.48	227.44
848.79	227.48
849.10	227.47
849.42	227.49
849.73	227.38
850.04	227.39
850.36	227.34
850.67	227.36
850.98	227.36
851.30	227.39
851.61	227.42
851.92	227.41
852.23	227.44
852.55	227.42
852.86	227.43
853.17	227.42
853.49	227.46
853.80	227.50
854.11	227.50
854.42	227.47
854.74	227.49
855.05	227.56
855.36	227.53
855.67	227.54
855.99	227.50
856.30	227.62
856.61	227.65
856.92	227.66
857.23	227.63
857.55	227.60
857.86	227.60
858.17	227.64
858.48	227.62
858.79	227.60
859.11	227.64
859.42	227.62
859.73	227.62
860.04	227.59
860.35	227.57
860.66	227.53
860.98	227.55
861.29	227.57
861.60	227.53
861.91	227.57
862.22	227.55
862.53	227.56
862.84	227.46
863.16	227.45
863.47	227.44
863.78	227.47
864.09	227.50
864.40	227.52
864.71	227.50
865.02	227.49
865.33	227.52
865.64	227.51
865.95	227.53
866.27	227.57
866.58	227.57
866.89	227.56
867.20	227.59
867.51	227.59
867.82	227.59
868.13	227.62
868.44	227.56
868.75	227.58
869.06	227.57
869.37	227.60
869.68	227.56
869.99	227.59
870.30	227.55
870.61	227.53
870.92	227.49
871.23	227.51
871.54	227.56
871.85	227.55
872.16	227.54
872.47	227.52
872.78	227.47
873.09	227.50
873.40	227.49
873.71	227.46
874.02	227.45
874.33	227.42
874.64	227.40
874.95	227.44
875.26	227.41
875.56	227.39
875.87	227.38
876.18	227.38
876.49	227.48
876.80	227.50
877.11	227.48
877.42	227.50
877.73	227.45
878.04	227.38
878.35	227.38
878.66	227.35
878.96	227.34
879.27	227.31
879.58	227.30
879.89	227.30
880.20	227.33
880.51	227.30
880.82	227.31
881.12	227.32
881.43	227.25
881.74	227.24
882.05	227.27
882.36	227.26
882.67	227.29
882.97	227.16
883.28	227.11
883.59	227.12
883.90	227.11
884.21	227.13
884.51	227.16
884.82	227.14
885.13	227.17
885.44	227.17
885.74	227.18
886.05	227.18
886.36	227.21
886.67	227.15
886.98	227.22
887.28	227.22
887.59	227.20
887.90	227.23
888.20	227.23
888.51	227.22
888.82	227.22
889.13	227.21
889.43	227.29
889.74	227.31
890.05	227.32
890.35	227.30
890.66	227.29
890.97	227.27
891.28	227.26
891.58	227.24
891.89	227.22
892.20	227.21
892.50	227.20
892.81	227.17
893.12	227.18
893.42	227.11
893.73	227.13
894.04	227.14
894.34	227.15
894.65	227.15
894.95	227.12
895.26	227.12
895.57	227.16
895.87	227.07
896.18	227.09
896.48	227.10
896.79	227.14
897.10	227.18
897.40	227.18
897.71	227.18
898.01	227.19
898.32	227.24
898.63	227.23
898.93	227.21
899.24	227.22
899.54	227.23
899.85	227.27
900.15	227.27
900.46	227.23
900.76	227.24
901.07	227.21
901.38	227.25
901.68	227.25
901.99	227.24
902.29	227.25
902.60	227.24
902.90	227.24
903.21	227.23
903.51	227.22
903.82	227.26
904.12	227.27
904.43	227.28
904.73	227.26
905.03	227.29
905.34	227.41
905.64	227.39
905.95	227.39
906.25	227.37
906.56	227.36
906.86	227.37
907.17	227.35
907.47	227.41
907.77	227.37
908.08	227.33
908.38	227.31
908.69	227.30
908.99	227.32
909.30	227.32
909.60	227.28
909.90	227.27
910.21	227.24
910.51	227.22
910.81	227.21
911.12	227.19
911.42	227.16
911.73	227.03
912.03	227.08
912.33	227.08
912.64	227.05
912.94	227.03
913.24	227.01
913.55	227.02
913.85	226.98
914.15	226.99
914.46	226.99
914.76	226.96
915.06	226.97
915.37	226.94
915.67	226.91
915.97	226.92
916.27	226.90
916.58	226.88
916.88	226.89
917.18	226.86
917.49	226.94
917.79	226.95
918.09	226.98
918.39	226.99
918.70	226.98
919.00	226.94
919.30	227.01
919.60	227.01
919.91	226.96
920.21	226.95
920.51	226.92
920.81	226.92
921.12	226.97
921.42	226.95
921.72	226.96
922.02	226.96
922.32	226.98
922.63	227.01
922.93	227.10
923.23	227.09
923.53	227.10
923.83	227.01
924.13	227.00
924.44	226.99
924.74	226.97
925.04	227.04
925.34	227.07
925.64	227.00
925.94	227.02
926.24	227.08
926.55	227.13
926.85	227.15
927.15	227.18
927.45	227.16
927.75	227.17
928.05	227.21
928.35	227.20
928.65	227.24
928.95	227.24
929.26	227.17
929.56	227.19
929.86	227.22
930.16	227.22
930.46	227.23
930.76	227.23
931.06	227.23
931.36	227.15
931.66	227.19
931.96	227.21
932.26	227.21
932.56	227.17
932.86	227.16
933.16	227.19
933.46	227.16
933.76	227.17
934.06	227.17
934.36	227.18
934.66	227.21
934.96	227.16
935.26	227.15
935.56	227.20
935.86	227.19
936.16	227.18
936.46	227.18
936.76	227.16
937.06	227.15
937.36	227.15
937.66	227.18
937.96	227.15
938.26	227.13
938.56	227.13
938.86	227.14
939.16	227.16
939.46	227.14
939.76	227.15
940.06	227.12
940.35	227.14
940.65	227.07
940.95	227.08
941.25	227.08
941.55	227.06
941.85	227.03
942.15	227.03
942.45	227.03
942.75	227.04
943.04	227.05
943.34	227.08
943.64	227.03
943.94	227.03
944.24	227.02
944.54	227.02
944.84	227.00
945.13	226.98
945.43	226.95
945.73	226.98
946.03	226.98
946.33	226.97
946.62	226.94
946.92	226.94
947.22	226.92
947.52	226.90
947.82	226.92
948.11	226.92
948.41	226.90
948.71	226.88
949.01	226.86
949.31	226.88
949.60	226.84
949.90	226.88
950.20	226.83
950.50	226.81
950.79	226.80
951.09	226.87
951.39	226.87
951.69	226.82
951.98	226.82
952.28	226.84
952.58	226.86
952.87	226.84
953.17	226.85
953.47	226.80
953.76	226.80
954.06	226.77
954.36	226.71
954.66	226.72
954.95	226.74
955.25	226.74
955.55	226.72
955.84	226.75
956.14	226.73
956.44	226.74
956.73	226.76
957.03	226.78
957.32	226.74
957.62	226.75
957.92	226.80
958.21	226.80
958.51	226.90
958.81	226.92
959.10	226.93
959.40	226.95
959.69	227.02
959.99	227.03
960.29	227.07
960.58	227.07
960.88	227.12
961.17	227.11
961.47	227.12
961.76	227.08
962.06	227.07
962.36	227.07
962.65	227.10
962.95	227.10
963.24	227.07
963.54	227.10
963.83	227.11
964.13	227.09
964.42	227.08
964.72	226.97
965.01	226.95
965.31	226.95
965.60	226.90
965.90	226.94
966.19	226.94
966.49	226.93
966.78	226.98
967.08	226.96
967.37	226.97
967.67	226.95
967.96	227.01
968.26	227.01
968.55	227.06
968.85	227.07
969.14	227.06
969.43	227.05
969.73	227.01
970.02	227.01
970.32	227.01
970.61	226.99
970.91	226.97
971.20	226.95
971.49	226.98
971.79	227.02
972.08	226.94
972.38	226.91
972.67	226.90
972.96	226.90
973.26	226.89
973.55	226.89
973.85	226.90
974.14	226.89
974.43	226.90
974.73	226.85
975.02	226.87
975.31	226.87
975.61	226.89
975.90	226.90
976.19	226.89
976.49	226.90
976.78	226.88
977.07	226.90
977.37	226.92
977.66	226.91
977.95	226.90
978.24	226.94
978.54	227.00
978.83	226.98
979.12	226.96
979.42	226.98
979.71	226.98
980.00	226.99
980.29	226.96
980.59	226.94
980.88	226.96
981.17	226.95
981.46	226.95
981.76	226.93
982.05	226.94
982.34	226.91
982.63	226.91
982.93	226.92
983.22	226.94
983.51	226.93
983.80	226.94
984.09	226.96
984.39	226.93
984.68	226.88
984.97	226.91
985.26	226.89
985.55	226.86
985.85	226.84
986.14	226.83
986.43	226.84
986.72	226.82
987.01	226.81
987.30	226.78
987.59	226.76
987.89	226.77
988.18	226.72
988.47	226.71
988.76	226.70
989.05	226.68
989.34	226.68
989.63	226.72
989.92	226.71
990.22	226.65
990.51	226.65
990.80	226.63
991.09	226.62
991.38	226.65
991.67	226.65
991.96	226.62
992.25	226.66
992.54	226.63
992.83	226.66
993.12	226.64
993.41	226.65
993.70	226.71
993.99	226.74
994.28	226.77
994.58	226.80
994.87	226.80
995.16	226.82
995.45	226.79
995.74	226.75
996.03	226.75
996.32	226.82
996.61	226.84
996.90	226.86
997.19	226.83
997.48	226.83
997.77	226.83
998.06	226.84
998.34	226.81
998.63	226.85
998.92	226.83
999.21	226.85
999.50	226.86
999.79	226.83
1000.08	226.83
1000.37	226.84
1000.66	226.84
1000.95	226.83
1001.24	226.82
1001.53	226.86
1001.82	226.88
1002.11	226.89
1002.40	226.89
1002.68	226.92
1002.97	227.00
1003.26	227.04
1003.55	227.00
1003.84	227.02
1004.13	227.06
1004.42	227.08
1004.71	227.09
1004.99	227.09
1005.28	227.09
1005.57	227.09
1005.86	227.08
1006.15	227.07
1006.44	227.05
1006.72	227.07
1007.01	227.08
1007.30	227.10
1007.59	227.08
1007.88	227.07
1008.17	227.08
1008.45	227.05
1008.74	227.02
1009.03	226.98
1009.32	226.96
1009.60	226.98
1009.89	226.96
1010.18	226.93
1010.47	226.92
1010.76	226.93
1011.04	226.95
1011.33	226.95
1011.62	226.96
1011.91	226.96
1012.19	226.98
1012.48	227.00
1012.77	226.98
1013.05	227.01
1013.34	226.99
1013.63	227.02
1013.92	227.02
1014.20	227.01
1014.49	227.03
1014.78	227.04
1015.06	227.01
1015.35	227.01
1015.64	227.04
1015.92	227.07
1016.21	227.08
1016.50	227.07
1016.78	227.04
1017.07	227.03
1017.36	226.99
1017.64	226.97
1017.93	227.01
1018.22	226.97
1018.50	226.96
1018.79	226.96
1019.08	226.92
1019.36	226.90
1019.65	226.86
1019.93	226.87
1020.22	226.88
1020.51	226.90
1020.79	226.88
1021.08	226.44
1021.36	226.61
1021.65	226.81
1021.94	226.66
1022.22	226.44
1022.51	226.50
1022.79	227.19
1023.08	227.15
1023.36	228.00
1023.65	226.54
>>>>>End Processed Spectral Data<<<<<
