SpectraSuite Data File
++++++++++++++++++++++++++++++++++++
Date: Fri Feb 01 16:03:02 EST 2013
User: group
Dark Spectrum Present: No
Reference Spectrum Present: No
Number of Sampled Component Spectra: 1
Spectrometers: USB2E7196
Integration Time (usec): 35000 (USB2E7196)
Spectra Averaged: 100 (USB2E7196)
Boxcar Smoothing: 10 (USB2E7196)
Correct for Electrical Dark: No (USB2E7196)
Strobe/Lamp Enabled: No (USB2E7196)
Correct for Detector Non-linearity: No (USB2E7196)
Correct for Stray Light: No (USB2E7196)
Number of Pixels in Processed Spectrum: 2048
>>>>>Begin Processed Spectral Data<<<<<
339.09	0.00
339.48	214.63
339.86	215.96
340.24	217.01
340.63	219.33
341.01	221.36
341.39	221.53
341.78	222.86
342.16	224.25
342.54	224.33
342.93	212.96
343.31	223.70
343.69	224.24
344.07	224.72
344.46	225.16
344.84	225.51
345.22	225.75
345.60	226.00
345.99	226.17
346.37	226.27
346.75	226.38
347.13	226.44
347.52	226.45
347.90	226.49
348.28	226.54
348.66	226.57
349.05	226.56
349.43	226.57
349.81	226.60
350.19	226.63
350.57	226.70
350.96	226.76
351.34	226.85
351.72	226.93
352.10	227.00
352.48	227.07
352.87	227.11
353.25	227.18
353.63	227.24
354.01	227.32
354.39	227.40
354.77	227.48
355.15	227.59
355.54	227.68
355.92	227.71
356.30	227.76
356.68	227.89
357.06	227.98
357.44	228.06
357.82	228.13
358.20	228.23
358.58	228.31
358.97	228.40
359.35	228.48
359.73	228.55
360.11	228.63
360.49	228.69
360.87	228.76
361.25	228.84
361.63	228.93
362.01	229.01
362.39	229.06
362.77	229.11
363.15	229.16
363.53	229.19
363.91	229.29
364.29	229.36
364.67	229.29
365.05	229.32
365.43	229.37
365.81	229.39
366.19	229.45
366.57	229.49
366.95	229.51
367.33	229.52
367.71	229.52
368.09	229.53
368.47	229.51
368.85	229.53
369.23	229.51
369.61	229.44
369.99	229.42
370.37	229.43
370.75	229.44
371.13	229.37
371.51	229.32
371.89	229.26
372.27	229.19
372.65	229.17
373.03	229.11
373.41	229.05
373.78	229.01
374.16	228.88
374.54	228.76
374.92	228.67
375.30	228.56
375.68	228.48
376.06	228.39
376.44	228.36
376.82	228.31
377.19	228.27
377.57	228.20
377.95	228.11
378.33	227.99
378.71	227.88
379.09	227.83
379.47	227.78
379.84	227.70
380.22	227.62
380.60	227.51
380.98	227.40
381.36	227.33
381.73	227.25
382.11	227.23
382.49	227.17
382.87	227.09
383.25	227.02
383.62	227.07
384.00	227.03
384.38	226.96
384.76	226.88
385.13	226.86
385.51	226.77
385.89	226.69
386.27	226.67
386.64	226.60
387.02	226.54
387.40	226.47
387.78	226.44
388.15	226.40
388.53	226.36
388.91	226.38
389.29	226.34
389.66	226.32
390.04	226.27
390.42	226.24
390.79	226.23
391.17	226.22
391.55	226.10
391.92	226.05
392.30	226.04
392.68	226.00
393.05	225.98
393.43	226.01
393.81	226.02
394.18	226.00
394.56	226.05
394.94	226.07
395.31	226.05
395.69	226.09
396.06	226.14
396.44	226.19
396.82	226.17
397.19	226.26
397.57	226.31
397.95	226.37
398.32	226.42
398.70	226.47
399.07	226.56
399.45	226.62
399.82	226.69
400.20	226.77
400.58	226.83
400.95	226.86
401.33	226.97
401.70	227.13
402.08	227.22
402.45	227.30
402.83	227.44
403.20	227.57
403.58	227.64
403.95	227.76
404.33	227.89
404.71	228.03
405.08	228.18
405.46	228.30
405.83	228.47
406.21	228.63
406.58	228.83
406.96	228.99
407.33	229.19
407.70	229.40
408.08	229.67
408.45	229.89
408.83	230.14
409.20	230.34
409.58	230.52
409.95	230.84
410.33	231.10
410.70	231.35
411.08	231.65
411.45	231.98
411.82	232.29
412.20	232.65
412.57	233.07
412.95	233.40
413.32	233.82
413.69	234.20
414.07	234.63
414.44	235.07
414.82	235.60
415.19	236.12
415.56	236.68
415.94	237.20
416.31	237.87
416.68	238.50
417.06	239.25
417.43	239.97
417.81	240.72
418.18	241.54
418.55	242.36
418.93	243.25
419.30	244.12
419.67	245.05
420.04	245.96
420.42	246.93
420.79	248.10
421.16	249.27
421.54	250.50
421.91	251.73
422.28	252.97
422.66	254.29
423.03	255.60
423.40	256.93
423.77	258.36
424.15	259.79
424.52	261.27
424.89	262.87
425.26	264.38
425.64	265.78
426.01	267.37
426.38	269.02
426.75	270.67
427.13	272.40
427.50	274.20
427.87	276.10
428.24	277.99
428.61	279.72
428.99	281.65
429.36	283.71
429.73	285.77
430.10	287.83
430.47	289.90
430.85	292.05
431.22	294.27
431.59	296.64
431.96	298.83
432.33	301.32
432.70	303.67
433.08	306.51
433.45	309.17
433.82	311.74
434.19	314.61
434.56	317.44
434.93	320.11
435.30	322.72
435.68	325.60
436.05	328.37
436.42	331.18
436.79	333.68
437.16	336.37
437.53	339.18
437.90	341.95
438.27	344.61
438.64	347.43
439.01	350.06
439.38	352.30
439.75	354.49
440.13	356.96
440.50	359.28
440.87	361.07
441.24	363.00
441.61	365.15
441.98	366.60
442.35	368.35
442.72	370.17
443.09	372.01
443.46	373.01
443.83	373.61
444.20	374.08
444.57	374.92
444.94	375.20
445.31	375.54
445.68	375.94
446.05	376.06
446.42	375.65
446.79	375.22
447.16	374.75
447.53	374.38
447.90	373.22
448.27	372.13
448.64	370.54
449.01	369.41
449.37	367.46
449.74	365.64
450.11	363.40
450.48	360.91
450.85	358.40
451.22	356.26
451.59	354.22
451.96	352.28
452.33	349.65
452.70	347.27
453.07	344.44
453.43	341.50
453.80	338.71
454.17	335.98
454.54	333.42
454.91	330.70
455.28	328.03
455.65	325.54
456.02	323.01
456.38	320.86
456.75	318.20
457.12	315.96
457.49	313.68
457.86	311.50
458.23	309.69
458.59	307.62
458.96	305.54
459.33	303.72
459.70	301.88
460.07	300.42
460.43	298.69
460.80	297.07
461.17	295.64
461.54	294.15
461.91	292.76
462.27	291.31
462.64	290.08
463.01	288.76
463.38	287.46
463.74	286.17
464.11	285.02
464.48	284.00
464.85	282.92
465.21	282.09
465.58	281.22
465.95	280.14
466.32	279.25
466.68	278.33
467.05	277.46
467.42	276.59
467.78	275.66
468.15	274.84
468.52	274.22
468.88	273.39
469.25	272.63
469.62	272.05
469.98	271.38
470.35	270.74
470.72	270.17
471.08	269.50
471.45	268.96
471.82	268.48
472.18	267.86
472.55	267.41
472.92	266.88
473.28	266.41
473.65	265.96
474.02	265.57
474.38	265.23
474.75	264.90
475.11	264.54
475.48	264.27
475.85	264.01
476.21	263.75
476.58	263.56
476.94	263.45
477.31	263.24
477.67	263.06
478.04	262.97
478.41	262.91
478.77	262.99
479.14	262.90
479.50	262.89
479.87	262.98
480.23	263.03
480.60	263.10
480.96	263.21
481.33	263.43
481.69	263.60
482.06	263.77
482.42	263.95
482.79	264.20
483.15	264.52
483.52	264.94
483.88	265.32
484.25	265.69
484.61	266.11
484.98	266.58
485.34	267.17
485.71	267.76
486.07	268.36
486.44	268.92
486.80	269.62
487.17	270.33
487.53	271.16
487.90	272.02
488.26	272.93
488.62	273.91
488.99	274.87
489.35	275.91
489.72	277.03
490.08	278.23
490.44	279.49
490.81	280.84
491.17	282.17
491.54	283.62
491.90	285.15
492.26	286.77
492.63	288.51
492.99	290.27
493.36	292.16
493.72	294.17
494.08	296.27
494.45	298.53
494.81	300.90
495.17	303.33
495.54	305.90
495.90	308.61
496.26	311.42
496.63	314.39
496.99	317.50
497.35	320.78
497.72	324.20
498.08	327.68
498.44	331.28
498.80	335.21
499.17	339.25
499.53	343.42
499.89	347.84
500.26	352.38
500.62	357.06
500.98	362.03
501.34	367.13
501.71	372.52
502.07	377.98
502.43	383.63
502.79	389.45
503.16	395.55
503.52	401.87
503.88	408.24
504.24	414.86
504.60	421.74
504.97	428.88
505.33	436.25
505.69	444.00
506.05	451.83
506.41	459.72
506.78	467.87
507.14	476.36
507.50	485.03
507.86	493.99
508.22	503.19
508.59	512.46
508.95	522.11
509.31	531.89
509.67	542.00
510.03	552.32
510.39	562.92
510.75	573.73
511.12	584.60
511.48	595.89
511.84	607.36
512.20	618.89
512.56	630.84
512.92	643.00
513.28	655.36
513.64	667.93
514.00	680.67
514.37	693.71
514.73	706.86
515.09	719.90
515.45	733.17
515.81	746.76
516.17	760.70
516.53	774.70
516.89	788.91
517.25	803.09
517.61	817.51
517.97	831.93
518.33	846.27
518.69	861.02
519.05	876.10
519.41	891.30
519.77	906.89
520.13	922.28
520.49	937.63
520.85	953.13
521.21	968.85
521.57	985.16
521.93	1000.87
522.29	1017.14
522.65	1033.38
523.01	1049.67
523.37	1065.78
523.73	1081.89
524.09	1097.97
524.45	1114.35
524.81	1131.01
525.17	1147.75
525.53	1164.62
525.89	1181.63
526.25	1198.53
526.61	1214.81
526.97	1231.50
527.33	1247.89
527.68	1264.57
528.04	1281.03
528.40	1297.46
528.76	1314.44
529.12	1330.85
529.48	1347.78
529.84	1363.79
530.20	1380.57
530.56	1397.57
530.91	1414.94
531.27	1431.67
531.63	1448.17
531.99	1464.61
532.35	1480.37
532.71	1496.31
533.07	1512.54
533.42	1528.34
533.78	1544.26
534.14	1560.51
534.50	1575.80
534.86	1591.65
535.21	1606.79
535.57	1622.73
535.93	1638.32
536.29	1653.11
536.65	1668.15
537.00	1682.79
537.36	1698.14
537.72	1712.56
538.08	1726.96
538.44	1740.62
538.79	1754.46
539.15	1768.17
539.51	1781.79
539.87	1796.26
540.22	1809.85
540.58	1823.60
540.94	1836.90
541.29	1849.76
541.65	1862.41
542.01	1875.60
542.37	1887.80
542.72	1900.18
543.08	1911.92
543.44	1924.15
543.79	1935.29
544.15	1946.36
544.51	1957.92
544.87	1968.79
545.22	1979.52
545.58	1989.62
545.94	1999.43
546.29	2009.39
546.65	2019.18
547.01	2028.51
547.36	2037.09
547.72	2045.50
548.07	2053.19
548.43	2061.46
548.79	2069.46
549.14	2076.86
549.50	2084.21
549.86	2092.00
550.21	2099.31
550.57	2106.31
550.92	2112.88
551.28	2119.84
551.64	2126.78
551.99	2133.24
552.35	2139.24
552.70	2145.29
553.06	2151.35
553.41	2157.63
553.77	2163.57
554.13	2169.76
554.48	2175.92
554.84	2181.46
555.19	2186.85
555.55	2192.06
555.90	2196.38
556.26	2201.28
556.61	2206.21
556.97	2210.46
557.32	2214.60
557.68	2218.73
558.03	2223.09
558.39	2226.84
558.74	2231.57
559.10	2235.41
559.45	2239.16
559.81	2243.47
560.16	2247.54
560.52	2250.70
560.87	2254.17
561.23	2256.82
561.58	2259.72
561.94	2262.09
562.29	2264.44
562.64	2267.07
563.00	2269.81
563.35	2273.32
563.71	2276.37
564.06	2279.50
564.42	2282.32
564.77	2284.74
565.12	2286.98
565.48	2288.87
565.83	2290.63
566.19	2291.90
566.54	2292.83
566.89	2293.91
567.25	2294.56
567.60	2295.60
567.96	2297.25
568.31	2298.20
568.66	2299.37
569.02	2299.84
569.37	2300.15
569.72	2301.13
570.08	2301.33
570.43	2301.33
570.78	2300.67
571.14	2299.25
571.49	2297.96
571.84	2297.87
572.20	2296.72
572.55	2295.78
572.90	2294.39
573.26	2293.06
573.61	2291.52
573.96	2289.75
574.31	2286.81
574.67	2283.88
575.02	2280.42
575.37	2277.17
575.72	2273.32
576.08	2270.00
576.43	2266.77
576.78	2263.16
577.13	2259.97
577.49	2256.98
577.84	2253.42
578.19	2249.81
578.54	2246.33
578.90	2241.99
579.25	2236.27
579.60	2231.43
579.95	2226.33
580.30	2221.33
580.66	2216.35
581.01	2211.29
581.36	2206.41
581.71	2202.20
582.06	2197.70
582.42	2193.14
582.77	2187.84
583.12	2183.32
583.47	2178.52
583.82	2173.55
584.17	2168.31
584.53	2162.80
584.88	2157.09
585.23	2151.43
585.58	2145.98
585.93	2140.38
586.28	2135.80
586.63	2130.86
586.98	2125.81
587.34	2121.23
587.69	2116.24
588.04	2110.88
588.39	2105.27
588.74	2099.00
589.09	2092.80
589.44	2086.18
589.79	2080.30
590.14	2074.88
590.49	2068.23
590.84	2061.98
591.19	2055.97
591.54	2049.61
591.89	2042.17
592.25	2035.38
592.60	2028.11
592.95	2020.52
593.30	2013.17
593.65	2005.70
594.00	1998.68
594.35	1991.57
594.70	1983.44
595.05	1976.32
595.40	1969.10
595.75	1961.63
596.10	1955.24
596.45	1948.65
596.80	1942.38
597.15	1935.81
597.50	1928.44
597.85	1922.05
598.19	1915.32
598.54	1908.06
598.89	1901.42
599.24	1895.58
599.59	1888.79
599.94	1882.63
600.29	1876.37
600.64	1869.72
600.99	1862.12
601.34	1855.20
601.69	1848.17
602.04	1841.32
602.39	1833.92
602.74	1827.05
603.08	1820.25
603.43	1813.67
603.78	1806.38
604.13	1799.20
604.48	1791.75
604.83	1785.00
605.18	1777.95
605.53	1769.96
605.87	1762.06
606.22	1754.88
606.57	1746.96
606.92	1739.72
607.27	1732.57
607.62	1725.65
607.96	1718.52
608.31	1711.96
608.66	1704.37
609.01	1696.75
609.36	1689.18
609.70	1681.20
610.05	1672.96
610.40	1665.28
610.75	1656.87
611.10	1649.22
611.44	1640.79
611.79	1632.86
612.14	1624.19
612.49	1615.05
612.83	1606.62
613.18	1598.46
613.53	1590.25
613.88	1581.66
614.22	1573.28
614.57	1564.71
614.92	1556.53
615.27	1548.89
615.61	1540.45
615.96	1532.45
616.31	1524.87
616.65	1517.48
617.00	1509.92
617.35	1502.54
617.70	1494.14
618.04	1485.57
618.39	1477.31
618.74	1469.78
619.08	1461.44
619.43	1453.86
619.78	1446.91
620.12	1439.76
620.47	1432.34
620.82	1424.20
621.16	1416.87
621.51	1409.33
621.85	1401.59
622.20	1393.17
622.55	1384.86
622.89	1376.99
623.24	1369.35
623.59	1361.96
623.93	1354.33
624.28	1347.04
624.62	1339.43
624.97	1332.31
625.32	1325.62
625.66	1318.55
626.01	1311.40
626.35	1303.95
626.70	1296.23
627.04	1288.58
627.39	1280.75
627.73	1273.25
628.08	1266.32
628.43	1258.99
628.77	1251.66
629.12	1244.18
629.46	1237.08
629.81	1229.68
630.15	1222.47
630.50	1214.92
630.84	1206.71
631.19	1198.93
631.53	1191.40
631.88	1183.85
632.22	1176.21
632.57	1168.92
632.91	1161.41
633.26	1153.84
633.60	1146.49
633.95	1139.41
634.29	1132.40
634.64	1125.73
634.98	1118.36
635.32	1111.20
635.67	1104.55
636.01	1097.83
636.36	1090.95
636.70	1084.33
637.05	1077.71
637.39	1071.23
637.73	1064.77
638.08	1058.91
638.42	1052.90
638.77	1046.54
639.11	1039.92
639.45	1033.58
639.80	1026.77
640.14	1020.30
640.49	1013.83
640.83	1007.58
641.17	1001.24
641.52	994.85
641.86	988.43
642.20	982.58
642.55	976.31
642.89	969.82
643.23	963.38
643.58	957.56
643.92	951.32
644.26	945.22
644.61	939.26
644.95	933.21
645.29	926.54
645.64	919.73
645.98	913.27
646.32	907.43
646.66	901.35
647.01	895.58
647.35	889.83
647.69	884.01
648.04	878.48
648.38	872.65
648.72	866.63
649.06	860.57
649.41	854.67
649.75	848.69
650.09	842.81
650.43	836.97
650.78	830.90
651.12	825.00
651.46	819.30
651.80	813.51
652.14	808.19
652.49	802.82
652.83	797.67
653.17	791.94
653.51	786.21
653.85	780.84
654.20	775.26
654.54	769.29
654.88	763.57
655.22	757.56
655.56	751.91
655.90	746.47
656.25	741.18
656.59	735.83
656.93	730.75
657.27	725.57
657.61	720.13
657.95	715.00
658.29	709.94
658.64	704.67
658.98	699.42
659.32	693.96
659.66	688.72
660.00	683.36
660.34	678.49
660.68	673.53
661.02	668.46
661.36	663.72
661.70	659.23
662.05	654.89
662.39	650.63
662.73	646.26
663.07	641.87
663.41	637.43
663.75	632.85
664.09	628.26
664.43	623.81
664.77	619.68
665.11	615.43
665.45	611.26
665.79	607.14
666.13	602.99
666.47	598.89
666.81	594.70
667.15	590.59
667.49	586.74
667.83	582.94
668.17	579.02
668.51	574.96
668.85	570.97
669.19	567.07
669.53	563.19
669.87	559.20
670.21	555.51
670.55	551.92
670.89	548.62
671.23	545.18
671.57	541.70
671.91	538.16
672.25	534.66
672.58	531.14
672.92	527.76
673.26	524.55
673.60	521.35
673.94	518.29
674.28	515.42
674.62	512.41
674.96	509.31
675.30	506.38
675.64	503.41
675.97	500.58
676.31	497.64
676.65	494.68
676.99	492.01
677.33	489.14
677.67	486.29
678.01	483.16
678.34	480.20
678.68	477.33
679.02	474.50
679.36	471.77
679.70	469.02
680.04	466.25
680.37	463.39
680.71	460.58
681.05	457.92
681.39	455.18
681.73	452.56
682.06	449.99
682.40	447.39
682.74	444.91
683.08	442.38
683.42	439.82
683.75	437.30
684.09	434.75
684.43	432.22
684.77	429.75
685.10	427.42
685.44	425.15
685.78	422.83
686.12	420.54
686.45	418.22
686.79	415.93
687.13	413.73
687.46	411.62
687.80	409.48
688.14	407.29
688.48	405.19
688.81	402.90
689.15	400.75
689.49	398.61
689.82	396.52
690.16	394.39
690.50	392.50
690.83	390.55
691.17	388.53
691.51	386.64
691.84	384.77
692.18	382.82
692.52	380.78
692.85	378.88
693.19	377.02
693.52	375.21
693.86	373.40
694.20	371.61
694.53	369.76
694.87	367.90
695.21	366.09
695.54	364.29
695.88	362.55
696.21	360.82
696.55	359.13
696.88	357.42
697.22	355.80
697.56	354.15
697.89	352.52
698.23	350.95
698.56	349.36
698.90	347.78
699.23	346.14
699.57	344.59
699.90	343.07
700.24	341.56
700.58	340.04
700.91	338.52
701.25	337.09
701.58	335.76
701.92	334.41
702.25	333.02
702.59	331.68
702.92	330.36
703.26	329.09
703.59	327.85
703.93	326.69
704.26	325.46
704.60	324.12
704.93	322.85
705.26	321.60
705.60	320.43
705.93	319.28
706.27	318.26
706.60	317.19
706.94	316.07
707.27	314.91
707.61	313.80
707.94	312.78
708.27	311.65
708.61	310.58
708.94	309.58
709.28	308.66
709.61	307.66
709.94	306.78
710.28	305.71
710.61	304.72
710.95	303.64
711.28	302.70
711.61	301.79
711.95	300.88
712.28	299.91
712.61	298.89
712.95	297.93
713.28	297.00
713.61	296.09
713.95	295.20
714.28	294.33
714.61	293.48
714.95	292.65
715.28	291.83
715.61	290.93
715.95	290.05
716.28	289.20
716.61	288.33
716.95	287.47
717.28	286.74
717.61	285.98
717.94	285.25
718.28	284.42
718.61	283.67
718.94	282.97
719.27	282.33
719.61	281.72
719.94	281.06
720.27	280.41
720.60	279.74
720.94	279.12
721.27	278.50
721.60	277.93
721.93	277.31
722.27	276.74
722.60	276.18
722.93	275.61
723.26	275.04
723.59	274.49
723.93	273.95
724.26	273.42
724.59	272.87
724.92	272.33
725.25	271.85
725.59	271.35
725.92	270.85
726.25	270.31
726.58	269.82
726.91	269.35
727.24	268.86
727.57	268.41
727.91	267.91
728.24	267.48
728.57	266.97
728.90	266.53
729.23	266.05
729.56	265.64
729.89	265.15
730.22	264.67
730.55	264.25
730.89	263.75
731.22	263.31
731.55	262.83
731.88	262.43
732.21	262.00
732.54	261.55
732.87	261.09
733.20	260.71
733.53	260.34
733.86	259.91
734.19	259.52
734.52	259.15
734.85	258.84
735.18	258.42
735.51	258.07
735.84	257.70
736.17	257.36
736.50	256.94
736.83	256.75
737.16	256.42
737.49	256.10
737.82	255.80
738.15	255.48
738.48	255.16
738.81	254.86
739.14	254.55
739.47	254.24
739.80	253.94
740.13	253.65
740.46	253.28
740.79	252.95
741.12	252.66
741.45	252.35
741.78	252.03
742.11	251.78
742.44	251.49
742.77	251.21
743.10	250.90
743.43	250.65
743.75	250.27
744.08	250.12
744.41	249.82
744.74	249.54
745.07	249.26
745.40	249.04
745.73	248.78
746.06	248.50
746.39	248.28
746.71	248.03
747.04	247.77
747.37	247.54
747.70	247.31
748.03	247.04
748.36	246.81
748.68	246.53
749.01	246.29
749.34	245.99
749.67	245.75
750.00	245.51
750.33	245.29
750.65	245.09
750.98	244.74
751.31	244.56
751.64	244.36
751.97	244.18
752.29	243.93
752.62	243.67
752.95	243.48
753.28	243.27
753.60	243.08
753.93	242.88
754.26	242.70
754.59	242.50
754.91	242.31
755.24	242.15
755.57	241.97
755.90	241.77
756.22	241.62
756.55	241.46
756.88	241.29
757.20	241.07
757.53	240.88
757.86	240.72
758.19	240.56
758.51	240.40
758.84	240.20
759.17	240.06
759.49	239.90
759.82	239.76
760.15	239.59
760.47	239.41
760.80	239.24
761.13	239.10
761.45	238.94
761.78	238.78
762.11	238.60
762.43	238.46
762.76	238.30
763.08	238.15
763.41	238.02
763.74	237.85
764.06	237.69
764.39	237.55
764.71	237.38
765.04	237.21
765.37	237.06
765.69	236.91
766.02	236.74
766.34	236.62
766.67	236.43
767.00	236.29
767.32	236.22
767.65	236.17
767.97	236.09
768.30	235.97
768.62	235.84
768.95	235.70
769.27	235.58
769.60	235.47
769.92	235.35
770.25	235.20
770.57	235.08
770.90	234.99
771.22	234.89
771.55	234.83
771.87	234.74
772.20	234.61
772.52	234.61
772.85	234.66
773.17	234.57
773.50	234.48
773.82	234.39
774.15	234.25
774.47	234.07
774.80	233.91
775.12	233.84
775.45	233.78
775.77	233.73
776.09	233.63
776.42	233.58
776.74	233.53
777.07	233.47
777.39	233.41
777.72	233.32
778.04	233.26
778.36	233.17
778.69	233.10
779.01	233.10
779.33	232.94
779.66	232.75
779.98	232.69
780.31	232.63
780.63	232.61
780.95	232.56
781.28	232.54
781.60	232.49
781.92	232.41
782.25	232.31
782.57	232.25
782.89	232.20
783.22	232.16
783.54	232.08
783.86	232.04
784.19	231.99
784.51	231.99
784.83	231.93
785.16	231.89
785.48	231.85
785.80	231.79
786.12	231.75
786.45	231.70
786.77	231.63
787.09	231.58
787.42	231.49
787.74	231.46
788.06	231.43
788.38	231.38
788.71	231.33
789.03	231.31
789.35	231.30
789.67	231.25
789.99	231.22
790.32	231.16
790.64	231.12
790.96	231.17
791.28	231.11
791.61	231.06
791.93	231.07
792.25	231.03
792.57	231.04
792.89	230.97
793.21	230.95
793.54	230.92
793.86	230.91
794.18	230.90
794.50	230.84
794.82	230.79
795.14	230.78
795.47	230.78
795.79	230.75
796.11	230.69
796.43	230.65
796.75	230.61
797.07	230.59
797.39	230.56
797.71	230.46
798.04	230.43
798.36	230.40
798.68	230.35
799.00	230.31
799.32	230.22
799.64	230.23
799.96	230.21
800.28	230.18
800.60	230.14
800.92	230.10
801.24	230.09
801.56	230.06
801.89	230.01
802.21	230.00
802.53	229.97
802.85	229.92
803.17	229.96
803.49	229.91
803.81	229.88
804.13	229.84
804.45	229.78
804.77	229.76
805.09	229.75
805.41	229.66
805.73	229.61
806.05	229.59
806.37	229.53
806.69	229.48
807.01	229.47
807.33	229.43
807.65	229.36
807.97	229.35
808.28	229.31
808.60	229.31
808.92	229.25
809.24	229.26
809.56	229.23
809.88	229.13
810.20	229.07
810.52	229.04
810.84	228.99
811.16	228.95
811.48	228.87
811.80	228.85
812.12	228.87
812.43	228.86
812.75	228.86
813.07	228.85
813.39	228.84
813.71	228.77
814.03	228.71
814.35	228.71
814.67	228.65
814.98	228.62
815.30	228.58
815.62	228.55
815.94	228.46
816.26	228.48
816.58	228.45
816.89	228.44
817.21	228.41
817.53	228.40
817.85	228.39
818.17	228.38
818.48	228.33
818.80	228.32
819.12	228.31
819.44	228.22
819.76	228.19
820.07	228.16
820.39	228.14
820.71	228.12
821.03	228.09
821.34	228.07
821.66	228.07
821.98	228.07
822.30	228.06
822.61	228.12
822.93	228.10
823.25	228.10
823.57	228.09
823.88	228.08
824.20	228.09
824.52	228.06
824.83	228.09
825.15	228.05
825.47	228.01
825.79	228.00
826.10	228.01
826.42	228.01
826.74	227.99
827.05	228.03
827.37	228.06
827.69	228.05
828.00	228.06
828.32	228.06
828.64	228.05
828.95	228.05
829.27	228.00
829.58	227.98
829.90	227.99
830.22	227.99
830.53	227.97
830.85	227.94
831.17	227.93
831.48	227.90
831.80	227.92
832.11	227.87
832.43	227.88
832.75	227.85
833.06	227.90
833.38	227.87
833.69	227.86
834.01	227.86
834.32	227.86
834.64	227.86
834.96	227.86
835.27	227.82
835.59	227.82
835.90	227.78
836.22	227.76
836.53	227.75
836.85	227.74
837.16	227.86
837.48	227.86
837.79	227.93
838.11	227.93
838.42	227.90
838.74	227.96
839.05	227.94
839.37	227.95
839.68	227.91
840.00	227.88
840.31	227.86
840.63	227.85
840.94	227.83
841.26	227.78
841.57	227.78
841.88	227.83
842.20	227.82
842.51	227.81
842.83	227.78
843.14	227.84
843.46	227.84
843.77	227.80
844.08	227.77
844.40	227.71
844.71	227.73
845.03	227.73
845.34	227.71
845.65	227.68
845.97	227.67
846.28	227.67
846.60	227.69
846.91	227.70
847.22	227.69
847.54	227.69
847.85	227.70
848.16	227.68
848.48	227.62
848.79	227.64
849.10	227.66
849.42	227.71
849.73	227.63
850.04	227.62
850.36	227.56
850.67	227.55
850.98	227.55
851.30	227.48
851.61	227.48
851.92	227.45
852.23	227.47
852.55	227.48
852.86	227.44
853.17	227.42
853.49	227.42
853.80	227.44
854.11	227.44
854.42	227.46
854.74	227.42
855.05	227.40
855.36	227.33
855.67	227.34
855.99	227.31
856.30	227.40
856.61	227.38
856.92	227.34
857.23	227.32
857.55	227.27
857.86	227.29
858.17	227.29
858.48	227.27
858.79	227.25
859.11	227.23
859.42	227.23
859.73	227.24
860.04	227.19
860.35	227.14
860.66	227.09
860.98	227.09
861.29	227.09
861.60	227.08
861.91	227.15
862.22	227.13
862.53	227.11
862.84	227.00
863.16	227.02
863.47	227.04
863.78	227.05
864.09	227.07
864.40	227.08
864.71	227.09
865.02	227.13
865.33	227.13
865.64	227.13
865.95	227.14
866.27	227.19
866.58	227.19
866.89	227.21
867.20	227.25
867.51	227.25
867.82	227.26
868.13	227.28
868.44	227.25
868.75	227.26
869.06	227.27
869.37	227.29
869.68	227.30
869.99	227.27
870.30	227.30
870.61	227.32
870.92	227.28
871.23	227.28
871.54	227.30
871.85	227.31
872.16	227.30
872.47	227.29
872.78	227.23
873.09	227.25
873.40	227.23
873.71	227.23
874.02	227.19
874.33	227.17
874.64	227.18
874.95	227.16
875.26	227.13
875.56	227.16
875.87	227.16
876.18	227.12
876.49	227.25
876.80	227.22
877.11	227.18
877.42	227.20
877.73	227.22
878.04	227.20
878.35	227.23
878.66	227.22
878.96	227.23
879.27	227.23
879.58	227.26
879.89	227.26
880.20	227.26
880.51	227.26
880.82	227.28
881.12	227.26
881.43	227.25
881.74	227.25
882.05	227.23
882.36	227.20
882.67	227.20
882.97	227.08
883.28	227.06
883.59	227.07
883.90	227.08
884.21	227.10
884.51	227.09
884.82	227.02
885.13	227.03
885.44	227.02
885.74	227.05
886.05	227.02
886.36	226.99
886.67	226.97
886.98	227.02
887.28	227.00
887.59	226.97
887.90	226.97
888.20	226.97
888.51	227.02
888.82	227.02
889.13	227.06
889.43	227.11
889.74	227.10
890.05	227.11
890.35	227.07
890.66	227.03
890.97	227.00
891.28	227.03
891.58	227.02
891.89	227.01
892.20	226.96
892.50	226.96
892.81	226.97
893.12	226.97
893.42	226.91
893.73	226.93
894.04	226.96
894.34	226.99
894.65	226.96
894.95	226.90
895.26	226.89
895.57	226.92
895.87	226.86
896.18	226.89
896.48	226.89
896.79	226.91
897.10	226.92
897.40	226.93
897.71	226.93
898.01	226.92
898.32	226.92
898.63	226.92
898.93	226.90
899.24	226.88
899.54	226.87
899.85	226.87
900.15	226.86
900.46	226.87
900.76	226.83
901.07	226.81
901.38	226.82
901.68	226.85
901.99	226.77
902.29	226.78
902.60	226.75
902.90	226.74
903.21	226.70
903.51	226.67
903.82	226.70
904.12	226.69
904.43	226.69
904.73	226.70
905.03	226.71
905.34	226.81
905.64	226.86
905.95	226.86
906.25	226.85
906.56	226.86
906.86	226.85
907.17	226.88
907.47	226.92
907.77	226.92
908.08	226.90
908.38	226.93
908.69	226.91
908.99	226.96
909.30	226.96
909.60	226.98
909.90	227.02
910.21	226.98
910.51	226.92
910.81	226.95
911.12	226.97
911.42	226.98
911.73	226.86
912.03	226.87
912.33	226.90
912.64	226.90
912.94	226.87
913.24	226.86
913.55	226.86
913.85	226.86
914.15	226.86
914.46	226.85
914.76	226.85
915.06	226.86
915.37	226.82
915.67	226.82
915.97	226.83
916.27	226.81
916.58	226.81
916.88	226.81
917.18	226.79
917.49	226.83
917.79	226.84
918.09	226.86
918.39	226.89
918.70	226.85
919.00	226.85
919.30	226.91
919.60	226.89
919.91	226.83
920.21	226.81
920.51	226.80
920.81	226.81
921.12	226.82
921.42	226.80
921.72	226.83
922.02	226.84
922.32	226.83
922.63	226.80
922.93	226.85
923.23	226.88
923.53	226.87
923.83	226.82
924.13	226.83
924.44	226.81
924.74	226.78
925.04	226.83
925.34	226.79
925.64	226.78
925.94	226.78
926.24	226.86
926.55	226.86
926.85	226.87
927.15	226.86
927.45	226.86
927.75	226.88
928.05	226.89
928.35	226.89
928.65	226.90
928.95	226.91
929.26	226.89
929.56	226.91
929.86	226.90
930.16	226.89
930.46	226.82
930.76	226.82
931.06	226.78
931.36	226.73
931.66	226.80
931.96	226.78
932.26	226.80
932.56	226.76
932.86	226.78
933.16	226.79
933.46	226.79
933.76	226.77
934.06	226.76
934.36	226.78
934.66	226.75
934.96	226.77
935.26	226.81
935.56	226.81
935.86	226.80
936.16	226.84
936.46	226.86
936.76	226.90
937.06	226.92
937.36	226.94
937.66	226.98
937.96	226.95
938.26	226.92
938.56	226.90
938.86	226.90
939.16	226.91
939.46	226.86
939.76	226.88
940.06	226.87
940.35	226.85
940.65	226.82
940.95	226.85
941.25	226.82
941.55	226.79
941.85	226.77
942.15	226.76
942.45	226.80
942.75	226.77
943.04	226.77
943.34	226.80
943.64	226.80
943.94	226.76
944.24	226.79
944.54	226.82
944.84	226.84
945.13	226.81
945.43	226.79
945.73	226.84
946.03	226.81
946.33	226.81
946.62	226.82
946.92	226.79
947.22	226.78
947.52	226.80
947.82	226.81
948.11	226.80
948.41	226.81
948.71	226.74
949.01	226.75
949.31	226.75
949.60	226.77
949.90	226.80
950.20	226.79
950.50	226.79
950.79	226.77
951.09	226.78
951.39	226.80
951.69	226.79
951.98	226.80
952.28	226.82
952.58	226.82
952.87	226.81
953.17	226.84
953.47	226.86
953.76	226.84
954.06	226.83
954.36	226.83
954.66	226.82
954.95	226.82
955.25	226.87
955.55	226.86
955.84	226.82
956.14	226.79
956.44	226.80
956.73	226.75
957.03	226.75
957.32	226.76
957.62	226.78
957.92	226.82
958.21	226.81
958.51	226.92
958.81	226.95
959.10	226.95
959.40	226.97
959.69	226.98
959.99	227.01
960.29	227.01
960.58	227.00
960.88	227.04
961.17	227.07
961.47	227.03
961.76	227.01
962.06	227.03
962.36	227.05
962.65	227.09
962.95	227.08
963.24	227.11
963.54	227.12
963.83	227.10
964.13	227.10
964.42	227.05
964.72	226.96
965.01	226.94
965.31	226.97
965.60	226.92
965.90	226.97
966.19	226.92
966.49	226.94
966.78	226.96
967.08	226.94
967.37	226.97
967.67	226.96
967.96	227.00
968.26	227.00
968.55	226.98
968.85	226.95
969.14	226.97
969.43	226.94
969.73	226.90
970.02	226.92
970.32	226.92
970.61	226.92
970.91	226.91
971.20	226.92
971.49	226.90
971.79	226.95
972.08	226.88
972.38	226.94
972.67	226.93
972.96	226.93
973.26	226.91
973.55	226.92
973.85	226.89
974.14	226.88
974.43	226.87
974.73	226.83
975.02	226.85
975.31	226.86
975.61	226.85
975.90	226.86
976.19	226.84
976.49	226.81
976.78	226.83
977.07	226.83
977.37	226.82
977.66	226.80
977.95	226.77
978.24	226.76
978.54	226.74
978.83	226.75
979.12	226.75
979.42	226.74
979.71	226.72
980.00	226.74
980.29	226.74
980.59	226.72
980.88	226.75
981.17	226.72
981.46	226.69
981.76	226.70
982.05	226.71
982.34	226.69
982.63	226.69
982.93	226.68
983.22	226.69
983.51	226.69
983.80	226.73
984.09	226.75
984.39	226.75
984.68	226.72
984.97	226.69
985.26	226.70
985.55	226.70
985.85	226.66
986.14	226.65
986.43	226.65
986.72	226.65
987.01	226.60
987.30	226.59
987.59	226.58
987.89	226.58
988.18	226.56
988.47	226.56
988.76	226.55
989.05	226.53
989.34	226.52
989.63	226.54
989.92	226.49
990.22	226.47
990.51	226.45
990.80	226.45
991.09	226.50
991.38	226.46
991.67	226.46
991.96	226.44
992.25	226.43
992.54	226.42
992.83	226.43
993.12	226.46
993.41	226.51
993.70	226.54
993.99	226.54
994.28	226.56
994.58	226.57
994.87	226.54
995.16	226.59
995.45	226.60
995.74	226.58
996.03	226.62
996.32	226.62
996.61	226.64
996.90	226.65
997.19	226.61
997.48	226.62
997.77	226.62
998.06	226.63
998.34	226.64
998.63	226.64
998.92	226.64
999.21	226.62
999.50	226.61
999.79	226.58
1000.08	226.59
1000.37	226.57
1000.66	226.56
1000.95	226.60
1001.24	226.62
1001.53	226.60
1001.82	226.58
1002.11	226.53
1002.40	226.52
1002.68	226.55
1002.97	226.62
1003.26	226.62
1003.55	226.61
1003.84	226.62
1004.13	226.66
1004.42	226.64
1004.71	226.64
1004.99	226.63
1005.28	226.64
1005.57	226.61
1005.86	226.59
1006.15	226.58
1006.44	226.57
1006.72	226.58
1007.01	226.57
1007.30	226.52
1007.59	226.49
1007.88	226.51
1008.17	226.53
1008.45	226.54
1008.74	226.49
1009.03	226.42
1009.32	226.42
1009.60	226.42
1009.89	226.40
1010.18	226.37
1010.47	226.36
1010.76	226.36
1011.04	226.37
1011.33	226.40
1011.62	226.43
1011.91	226.46
1012.19	226.45
1012.48	226.45
1012.77	226.46
1013.05	226.52
1013.34	226.55
1013.63	226.57
1013.92	226.56
1014.20	226.58
1014.49	226.58
1014.78	226.61
1015.06	226.60
1015.35	226.59
1015.64	226.64
1015.92	226.64
1016.21	226.63
1016.50	226.62
1016.78	226.63
1017.07	226.67
1017.36	226.64
1017.64	226.60
1017.93	226.63
1018.22	226.63
1018.50	226.66
1018.79	226.66
1019.08	226.60
1019.36	226.57
1019.65	226.53
1019.93	226.58
1020.22	226.57
1020.51	226.62
1020.79	226.59
1021.08	226.29
1021.36	227.02
1021.65	226.72
1021.94	226.42
1022.22	226.25
1022.51	225.80
1022.79	227.46
1023.08	226.35
1023.36	227.95
1023.65	225.98
>>>>>End Processed Spectral Data<<<<<
