SpectraSuite Data File
++++++++++++++++++++++++++++++++++++
Date: Fri Feb 01 15:13:09 EST 2013
User: group
Dark Spectrum Present: No
Reference Spectrum Present: No
Number of Sampled Component Spectra: 1
Spectrometers: USB2E7196
Integration Time (usec): 35000 (USB2E7196)
Spectra Averaged: 100 (USB2E7196)
Boxcar Smoothing: 10 (USB2E7196)
Correct for Electrical Dark: No (USB2E7196)
Strobe/Lamp Enabled: No (USB2E7196)
Correct for Detector Non-linearity: No (USB2E7196)
Correct for Stray Light: No (USB2E7196)
Number of Pixels in Processed Spectrum: 2048
>>>>>Begin Processed Spectral Data<<<<<
339.09	0.00
339.48	214.98
339.86	216.70
340.24	218.28
340.63	219.78
341.01	221.86
341.39	221.50
341.78	223.25
342.16	224.80
342.54	224.87
342.93	213.46
343.31	224.26
343.69	224.81
344.07	225.25
344.46	225.69
344.84	226.03
345.22	226.28
345.60	226.57
345.99	226.77
346.37	226.91
346.75	227.03
347.13	227.05
347.52	227.14
347.90	227.17
348.28	227.19
348.66	227.25
349.05	227.22
349.43	227.28
349.81	227.34
350.19	227.40
350.57	227.43
350.96	227.53
351.34	227.58
351.72	227.69
352.10	227.81
352.48	227.83
352.87	227.90
353.25	227.96
353.63	228.03
354.01	228.09
354.39	228.14
354.77	228.21
355.15	228.34
355.54	228.40
355.92	228.48
356.30	228.53
356.68	228.65
357.06	228.74
357.44	228.75
357.82	228.81
358.20	228.86
358.58	228.92
358.97	228.99
359.35	229.07
359.73	229.13
360.11	229.19
360.49	229.26
360.87	229.31
361.25	229.39
361.63	229.43
362.01	229.48
362.39	229.52
362.77	229.54
363.15	229.54
363.53	229.59
363.91	229.62
364.29	229.67
364.67	229.58
365.05	229.59
365.43	229.60
365.81	229.62
366.19	229.64
366.57	229.68
366.95	229.64
367.33	229.58
367.71	229.57
368.09	229.59
368.47	229.57
368.85	229.52
369.23	229.50
369.61	229.44
369.99	229.42
370.37	229.38
370.75	229.38
371.13	229.30
371.51	229.23
371.89	229.17
372.27	229.12
372.65	229.08
373.03	229.02
373.41	228.97
373.78	228.92
374.16	228.83
374.54	228.73
374.92	228.66
375.30	228.62
375.68	228.49
376.06	228.38
376.44	228.29
376.82	228.27
377.19	228.19
377.57	228.13
377.95	228.02
378.33	227.95
378.71	227.84
379.09	227.78
379.47	227.70
379.84	227.64
380.22	227.60
380.60	227.53
380.98	227.47
381.36	227.38
381.73	227.30
382.11	227.27
382.49	227.22
382.87	227.14
383.25	227.06
383.62	227.13
384.00	227.04
384.38	227.01
384.76	226.97
385.13	226.92
385.51	226.84
385.89	226.80
386.27	226.74
386.64	226.70
387.02	226.67
387.40	226.61
387.78	226.59
388.15	226.52
388.53	226.48
388.91	226.45
389.29	226.41
389.66	226.38
390.04	226.34
390.42	226.32
390.79	226.33
391.17	226.36
391.55	226.25
391.92	226.25
392.30	226.25
392.68	226.21
393.05	226.24
393.43	226.28
393.81	226.27
394.18	226.28
394.56	226.29
394.94	226.32
395.31	226.36
395.69	226.40
396.06	226.44
396.44	226.46
396.82	226.47
397.19	226.57
397.57	226.61
397.95	226.67
398.32	226.71
398.70	226.77
399.07	226.84
399.45	226.88
399.82	226.97
400.20	227.02
400.58	227.10
400.95	227.13
401.33	227.25
401.70	227.42
402.08	227.51
402.45	227.63
402.83	227.79
403.20	227.89
403.58	227.98
403.95	228.16
404.33	228.31
404.71	228.46
405.08	228.65
405.46	228.79
405.83	228.95
406.21	229.10
406.58	229.25
406.96	229.42
407.33	229.63
407.70	229.84
408.08	230.12
408.45	230.37
408.83	230.60
409.20	230.78
409.58	230.97
409.95	231.26
410.33	231.53
410.70	231.77
411.08	232.04
411.45	232.37
411.82	232.66
412.20	233.01
412.57	233.44
412.95	233.71
413.32	234.13
413.69	234.51
414.07	234.98
414.44	235.45
414.82	235.92
415.19	236.51
415.56	237.05
415.94	237.57
416.31	238.21
416.68	238.85
417.06	239.62
417.43	240.28
417.81	241.03
418.18	241.78
418.55	242.62
418.93	243.51
419.30	244.40
419.67	245.33
420.04	246.31
420.42	247.28
420.79	248.49
421.16	249.65
421.54	250.86
421.91	252.10
422.28	253.38
422.66	254.71
423.03	255.96
423.40	257.30
423.77	258.74
424.15	260.16
424.52	261.63
424.89	263.22
425.26	264.80
425.64	266.27
426.01	267.87
426.38	269.51
426.75	271.18
427.13	272.90
427.50	274.73
427.87	276.60
428.24	278.44
428.61	280.18
428.99	282.08
429.36	284.18
429.73	286.24
430.10	288.23
430.47	290.27
430.85	292.40
431.22	294.65
431.59	297.06
431.96	299.29
432.33	301.83
432.70	304.19
433.08	307.02
433.45	309.66
433.82	312.30
434.19	315.25
434.56	318.11
434.93	320.78
435.30	323.42
435.68	326.33
436.05	329.21
436.42	331.99
436.79	334.55
437.16	337.27
437.53	340.10
437.90	342.98
438.27	345.81
438.64	348.68
439.01	351.29
439.38	353.53
439.75	355.73
440.13	358.15
440.50	360.50
440.87	362.31
441.24	364.28
441.61	366.46
441.98	367.92
442.35	369.73
442.72	371.61
443.09	373.40
443.46	374.41
443.83	375.00
444.20	375.55
444.57	376.36
444.94	376.65
445.31	376.96
445.68	377.24
446.05	377.29
446.42	376.90
446.79	376.46
447.16	376.02
447.53	375.70
447.90	374.56
448.27	373.40
448.64	371.85
449.01	370.72
449.37	368.72
449.74	366.81
450.11	364.54
450.48	362.03
450.85	359.47
451.22	357.32
451.59	355.32
451.96	353.36
452.33	350.82
452.70	348.42
453.07	345.63
453.43	342.77
453.80	339.98
454.17	337.27
454.54	334.73
454.91	331.97
455.28	329.30
455.65	326.83
456.02	324.38
456.38	322.18
456.75	319.53
457.12	317.21
457.49	314.98
457.86	312.82
458.23	310.96
458.59	308.96
458.96	306.85
459.33	304.96
459.70	303.07
460.07	301.51
460.43	299.77
460.80	298.12
461.17	296.66
461.54	295.14
461.91	293.69
462.27	292.22
462.64	290.99
463.01	289.61
463.38	288.31
463.74	286.94
464.11	285.77
464.48	284.71
464.85	283.63
465.21	282.76
465.58	281.79
465.95	280.68
466.32	279.68
466.68	278.76
467.05	277.87
467.42	276.96
467.78	276.01
468.15	275.20
468.52	274.53
468.88	273.65
469.25	272.88
469.62	272.24
469.98	271.54
470.35	270.90
470.72	270.28
471.08	269.61
471.45	269.04
471.82	268.52
472.18	267.93
472.55	267.51
472.92	267.00
473.28	266.54
473.65	266.13
474.02	265.74
474.38	265.38
474.75	265.02
475.11	264.68
475.48	264.40
475.85	264.12
476.21	263.89
476.58	263.69
476.94	263.53
477.31	263.38
477.67	263.21
478.04	263.07
478.41	263.00
478.77	263.00
479.14	262.92
479.50	262.90
479.87	262.94
480.23	262.99
480.60	263.00
480.96	263.08
481.33	263.23
481.69	263.39
482.06	263.58
482.42	263.76
482.79	264.02
483.15	264.34
483.52	264.70
483.88	265.05
484.25	265.45
484.61	265.87
484.98	266.30
485.34	266.88
485.71	267.46
486.07	268.07
486.44	268.64
486.80	269.36
487.17	270.10
487.53	270.89
487.90	271.72
488.26	272.67
488.62	273.66
488.99	274.64
489.35	275.71
489.72	276.80
490.08	278.02
490.44	279.25
490.81	280.60
491.17	281.97
491.54	283.43
491.90	284.96
492.26	286.61
492.63	288.34
492.99	290.12
493.36	292.00
493.72	293.99
494.08	296.11
494.45	298.36
494.81	300.73
495.17	303.17
495.54	305.76
495.90	308.47
496.26	311.26
496.63	314.22
496.99	317.31
497.35	320.59
497.72	324.00
498.08	327.54
498.44	331.20
498.80	335.11
499.17	339.18
499.53	343.33
499.89	347.72
500.26	352.27
500.62	356.91
500.98	361.89
501.34	367.02
501.71	372.35
502.07	377.77
502.43	383.37
502.79	389.19
503.16	395.23
503.52	401.53
503.88	407.96
504.24	414.59
504.60	421.49
504.97	428.62
505.33	435.92
505.69	443.63
506.05	451.37
506.41	459.29
506.78	467.43
507.14	475.87
507.50	484.58
507.86	493.56
508.22	502.75
508.59	511.89
508.95	521.52
509.31	531.34
509.67	541.41
510.03	551.67
510.39	562.20
510.75	573.03
511.12	583.95
511.48	595.20
511.84	606.61
512.20	618.16
512.56	630.15
512.92	642.37
513.28	654.62
513.64	667.14
514.00	679.81
514.37	692.72
514.73	705.76
515.09	718.81
515.45	732.11
515.81	745.76
516.17	759.77
516.53	773.84
516.89	788.05
517.25	802.25
517.61	816.68
517.97	831.26
518.33	845.66
518.69	860.38
519.05	875.44
519.41	890.66
519.77	906.19
520.13	921.65
520.49	937.01
520.85	952.50
521.21	968.23
521.57	984.50
521.93	1000.36
522.29	1016.94
522.65	1033.28
523.01	1049.55
523.37	1065.63
523.73	1081.90
524.09	1098.03
524.45	1114.44
524.81	1131.14
525.17	1148.11
525.53	1165.03
525.89	1182.01
526.25	1199.04
526.61	1215.43
526.97	1232.28
527.33	1248.75
527.68	1265.47
528.04	1282.14
528.40	1298.88
528.76	1316.07
529.12	1332.78
529.48	1349.65
529.84	1365.68
530.20	1382.32
530.56	1399.49
530.91	1416.89
531.27	1433.77
531.63	1450.26
531.99	1466.83
532.35	1482.87
532.71	1498.80
533.07	1515.08
533.42	1531.06
533.78	1547.08
534.14	1563.43
534.50	1578.90
534.86	1594.86
535.21	1610.09
535.57	1626.08
535.93	1641.62
536.29	1656.43
536.65	1671.57
537.00	1686.57
537.36	1701.90
537.72	1716.57
538.08	1731.01
538.44	1744.97
538.79	1758.82
539.15	1772.68
539.51	1786.54
539.87	1800.98
540.22	1814.77
540.58	1828.71
540.94	1842.26
541.29	1855.39
541.65	1868.31
542.01	1881.69
542.37	1894.19
542.72	1906.72
543.08	1918.57
543.44	1931.12
543.79	1942.38
544.15	1953.32
544.51	1964.89
544.87	1975.98
545.22	1986.81
545.58	1997.00
545.94	2006.84
546.29	2016.76
546.65	2026.57
547.01	2035.80
547.36	2044.67
547.72	2053.13
548.07	2060.90
548.43	2069.04
548.79	2077.05
549.14	2084.50
549.50	2091.77
549.86	2099.53
550.21	2106.82
550.57	2113.91
550.92	2120.44
551.28	2127.56
551.64	2134.79
551.99	2141.36
552.35	2147.51
552.70	2153.69
553.06	2159.67
553.41	2166.04
553.77	2172.16
554.13	2178.28
554.48	2184.36
554.84	2189.70
555.19	2195.15
555.55	2200.31
555.90	2204.63
556.26	2209.39
556.61	2214.25
556.97	2218.32
557.32	2222.43
557.68	2226.55
558.03	2230.96
558.39	2234.65
558.74	2239.31
559.10	2243.07
559.45	2246.70
559.81	2251.01
560.16	2254.77
560.52	2258.08
560.87	2261.42
561.23	2264.06
561.58	2266.91
561.94	2269.52
562.29	2271.95
562.64	2274.51
563.00	2277.09
563.35	2280.74
563.71	2283.87
564.06	2287.03
564.42	2289.83
564.77	2292.20
565.12	2294.37
565.48	2296.04
565.83	2297.71
566.19	2298.82
566.54	2299.78
566.89	2300.86
567.25	2301.23
567.60	2302.55
567.96	2303.98
568.31	2304.81
568.66	2305.82
569.02	2306.49
569.37	2306.80
569.72	2307.53
570.08	2307.55
570.43	2307.54
570.78	2306.77
571.14	2305.12
571.49	2303.56
571.84	2303.30
572.20	2301.99
572.55	2300.94
572.90	2299.38
573.26	2297.96
573.61	2296.32
573.96	2294.37
574.31	2291.09
574.67	2288.01
575.02	2284.31
575.37	2280.87
575.72	2276.87
576.08	2273.55
576.43	2270.09
576.78	2266.29
577.13	2263.00
577.49	2259.90
577.84	2256.38
578.19	2252.54
578.54	2248.75
578.90	2244.45
579.25	2238.87
579.60	2233.94
579.95	2228.76
580.30	2223.62
580.66	2218.41
581.01	2213.37
581.36	2208.25
581.71	2204.11
582.06	2199.55
582.42	2194.90
582.77	2189.66
583.12	2184.97
583.47	2179.88
583.82	2174.84
584.17	2169.48
584.53	2163.88
584.88	2158.11
585.23	2152.04
585.58	2146.57
585.93	2141.11
586.28	2136.32
586.63	2131.12
586.98	2125.89
587.34	2121.08
587.69	2116.10
588.04	2110.76
588.39	2105.01
588.74	2098.54
589.09	2092.34
589.44	2085.59
589.79	2079.57
590.14	2073.92
590.49	2067.21
590.84	2060.91
591.19	2054.76
591.54	2048.27
591.89	2040.75
592.25	2033.82
592.60	2026.54
592.95	2018.78
593.30	2011.32
593.65	2003.61
594.00	1996.47
594.35	1989.19
594.70	1981.18
595.05	1973.85
595.40	1966.41
595.75	1958.77
596.10	1952.34
596.45	1945.51
596.80	1939.18
597.15	1932.38
597.50	1925.06
597.85	1918.72
598.19	1911.96
598.54	1904.75
598.89	1897.92
599.24	1892.13
599.59	1885.27
599.94	1879.15
600.29	1872.77
600.64	1866.17
600.99	1858.62
601.34	1851.74
601.69	1844.75
602.04	1837.68
602.39	1830.35
602.74	1823.53
603.08	1816.93
603.43	1810.36
603.78	1803.04
604.13	1795.83
604.48	1788.44
604.83	1781.70
605.18	1774.61
605.53	1766.46
605.87	1758.34
606.22	1751.16
606.57	1743.08
606.92	1735.82
607.27	1728.53
607.62	1721.61
607.96	1714.20
608.31	1707.62
608.66	1699.92
609.01	1692.37
609.36	1684.75
609.70	1676.73
610.05	1668.63
610.40	1660.73
610.75	1652.21
611.10	1644.52
611.44	1636.20
611.79	1628.27
612.14	1619.40
612.49	1610.29
612.83	1601.95
613.18	1593.91
613.53	1585.66
613.88	1577.13
614.22	1568.82
614.57	1560.25
614.92	1552.15
615.27	1544.69
615.61	1536.32
615.96	1528.30
616.31	1520.64
616.65	1513.28
617.00	1505.63
617.35	1497.94
617.70	1489.57
618.04	1481.24
618.39	1473.01
618.74	1465.34
619.08	1456.99
619.43	1449.43
619.78	1442.45
620.12	1435.31
620.47	1427.75
620.82	1419.72
621.16	1412.39
621.51	1404.80
621.85	1397.17
622.20	1388.68
622.55	1380.25
622.89	1372.41
623.24	1364.82
623.59	1357.34
623.93	1349.91
624.28	1342.73
624.62	1335.29
624.97	1328.15
625.32	1321.38
625.66	1314.37
626.01	1307.15
626.35	1299.78
626.70	1292.15
627.04	1284.52
627.39	1276.78
627.73	1269.32
628.08	1262.35
628.43	1254.94
628.77	1247.58
629.12	1240.05
629.46	1232.87
629.81	1225.53
630.15	1218.31
630.50	1210.90
630.84	1202.84
631.19	1195.03
631.53	1187.62
631.88	1180.04
632.22	1172.46
632.57	1165.22
632.91	1157.63
633.26	1150.28
633.60	1143.02
633.95	1135.91
634.29	1128.86
634.64	1122.14
634.98	1114.87
635.32	1107.79
635.67	1101.28
636.01	1094.73
636.36	1087.95
636.70	1081.57
637.05	1075.03
637.39	1068.60
637.73	1062.15
638.08	1056.19
638.42	1050.18
638.77	1043.64
639.11	1037.04
639.45	1030.72
639.80	1023.96
640.14	1017.58
640.49	1011.09
640.83	1004.74
641.17	998.48
641.52	992.19
641.86	985.91
642.20	980.17
642.55	973.98
642.89	967.46
643.23	960.95
643.58	955.21
643.92	948.87
644.26	942.79
644.61	936.84
644.95	930.78
645.29	924.19
645.64	917.37
645.98	911.14
646.32	905.36
646.66	899.28
647.01	893.56
647.35	887.88
647.69	881.97
648.04	876.52
648.38	870.75
648.72	864.72
649.06	858.58
649.41	852.54
649.75	846.43
650.09	840.45
650.43	834.59
650.78	828.41
651.12	822.50
651.46	816.79
651.80	810.99
652.14	805.68
652.49	800.37
652.83	795.24
653.17	789.59
653.51	783.83
653.85	778.53
654.20	772.84
654.54	766.79
654.88	761.11
655.22	755.21
655.56	749.60
655.90	744.12
656.25	738.91
656.59	733.58
656.93	728.53
657.27	723.43
657.61	718.07
657.95	712.96
658.29	707.84
658.64	702.56
658.98	697.27
659.32	691.74
659.66	686.54
660.00	681.19
660.34	676.18
660.68	671.28
661.02	666.15
661.36	661.46
661.70	657.06
662.05	652.77
662.39	648.36
662.73	643.81
663.07	639.53
663.41	635.07
663.75	630.61
664.09	626.05
664.43	621.75
664.77	617.58
665.11	613.38
665.45	609.36
665.79	605.25
666.13	601.11
666.47	597.05
666.81	592.91
667.15	588.87
667.49	585.02
667.83	581.27
668.17	577.41
668.51	573.38
668.85	569.28
669.19	565.39
669.53	561.57
669.87	557.73
670.21	554.03
670.55	550.41
670.89	546.98
671.23	543.61
671.57	540.08
671.91	536.64
672.25	533.13
672.58	529.61
672.92	526.28
673.26	523.12
673.60	519.99
673.94	516.86
674.28	514.00
674.62	511.10
674.96	508.00
675.30	505.06
675.64	502.15
675.97	499.43
676.31	496.62
676.65	493.72
676.99	491.03
677.33	488.19
677.67	485.41
678.01	482.37
678.34	479.39
678.68	476.57
679.02	473.73
679.36	471.05
679.70	468.38
680.04	465.65
680.37	462.82
680.71	460.09
681.05	457.52
681.39	454.78
681.73	452.11
682.06	449.59
682.40	447.07
682.74	444.55
683.08	442.02
683.42	439.44
683.75	437.00
684.09	434.44
684.43	432.03
684.77	429.60
685.10	427.36
685.44	425.08
685.78	422.78
686.12	420.60
686.45	418.33
686.79	416.00
687.13	413.85
687.46	411.69
687.80	409.54
688.14	407.36
688.48	405.31
688.81	403.07
689.15	400.95
689.49	398.84
689.82	396.80
690.16	394.73
690.50	392.79
690.83	390.87
691.17	388.93
691.51	387.02
691.84	385.16
692.18	383.17
692.52	381.17
692.85	379.23
693.19	377.35
693.52	375.48
693.86	373.65
694.20	371.90
694.53	370.09
694.87	368.26
695.21	366.46
695.54	364.61
695.88	362.87
696.21	361.15
696.55	359.42
696.88	357.76
697.22	356.13
697.56	354.50
697.89	352.81
698.23	351.24
698.56	349.58
698.90	347.98
699.23	346.34
699.57	344.82
699.90	343.31
700.24	341.74
700.58	340.20
700.91	338.70
701.25	337.20
701.58	335.81
701.92	334.44
702.25	333.06
702.59	331.73
702.92	330.42
703.26	329.07
703.59	327.80
703.93	326.60
704.26	325.32
704.60	323.97
704.93	322.69
705.26	321.44
705.60	320.30
705.93	319.16
706.27	318.12
706.60	317.07
706.94	315.97
707.27	314.83
707.61	313.78
707.94	312.74
708.27	311.65
708.61	310.59
708.94	309.61
709.28	308.62
709.61	307.63
709.94	306.65
710.28	305.66
710.61	304.74
710.95	303.66
711.28	302.75
711.61	301.85
711.95	300.96
712.28	300.00
712.61	299.00
712.95	298.05
713.28	297.18
713.61	296.27
713.95	295.36
714.28	294.53
714.61	293.68
714.95	292.85
715.28	292.04
715.61	291.17
715.95	290.27
716.28	289.42
716.61	288.60
716.95	287.83
717.28	287.11
717.61	286.29
717.94	285.56
718.28	284.76
718.61	284.01
718.94	283.30
719.27	282.64
719.61	282.01
719.94	281.39
720.27	280.66
720.60	280.01
720.94	279.40
721.27	278.83
721.60	278.26
721.93	277.68
722.27	277.08
722.60	276.55
722.93	275.99
723.26	275.48
723.59	274.95
723.93	274.40
724.26	273.86
724.59	273.32
724.92	272.82
725.25	272.34
725.59	271.82
725.92	271.33
726.25	270.83
726.58	270.35
726.91	269.85
727.24	269.40
727.57	268.93
727.91	268.45
728.24	267.94
728.57	267.46
728.90	267.04
729.23	266.59
729.56	266.15
729.89	265.66
730.22	265.15
730.55	264.65
730.89	264.18
731.22	263.72
731.55	263.28
731.88	262.84
732.21	262.39
732.54	261.94
732.87	261.50
733.20	261.09
733.53	260.72
733.86	260.33
734.19	259.92
734.52	259.52
734.85	259.22
735.18	258.82
735.51	258.48
735.84	258.09
736.17	257.72
736.50	257.29
736.83	257.09
737.16	256.76
737.49	256.42
737.82	256.07
738.15	255.74
738.48	255.37
738.81	255.04
739.14	254.74
739.47	254.47
739.80	254.18
740.13	253.88
740.46	253.53
740.79	253.20
741.12	252.89
741.45	252.57
741.78	252.19
742.11	251.91
742.44	251.56
742.77	251.25
743.10	250.95
743.43	250.67
743.75	250.30
744.08	250.15
744.41	249.89
744.74	249.68
745.07	249.36
745.40	249.16
745.73	248.91
746.06	248.62
746.39	248.33
746.71	248.05
747.04	247.73
747.37	247.46
747.70	247.22
748.03	246.98
748.36	246.78
748.68	246.54
749.01	246.28
749.34	246.07
749.67	245.85
750.00	245.62
750.33	245.48
750.65	245.24
750.98	244.90
751.31	244.67
751.64	244.39
751.97	244.25
752.29	244.00
752.62	243.76
752.95	243.57
753.28	243.35
753.60	243.16
753.93	243.03
754.26	242.83
754.59	242.60
754.91	242.36
755.24	242.13
755.57	241.93
755.90	241.74
756.22	241.51
756.55	241.33
756.88	241.14
757.20	240.88
757.53	240.70
757.86	240.49
758.19	240.35
758.51	240.20
758.84	239.98
759.17	239.80
759.49	239.66
759.82	239.53
760.15	239.42
760.47	239.29
760.80	239.12
761.13	239.01
761.45	238.84
761.78	238.75
762.11	238.61
762.43	238.47
762.76	238.36
763.08	238.26
763.41	238.11
763.74	237.98
764.06	237.85
764.39	237.69
764.71	237.56
765.04	237.40
765.37	237.26
765.69	237.17
766.02	237.07
766.34	236.95
766.67	236.81
767.00	236.68
767.32	236.61
767.65	236.57
767.97	236.47
768.30	236.39
768.62	236.27
768.95	236.19
769.27	236.10
769.60	235.96
769.92	235.87
770.25	235.75
770.57	235.68
770.90	235.60
771.22	235.55
771.55	235.51
771.87	235.46
772.20	235.41
772.52	235.39
772.85	235.44
773.17	235.35
773.50	235.26
773.82	235.19
774.15	235.04
774.47	234.88
774.80	234.75
775.12	234.66
775.45	234.58
775.77	234.50
776.09	234.43
776.42	234.37
776.74	234.34
777.07	234.26
777.39	234.17
777.72	234.06
778.04	233.99
778.36	233.89
778.69	233.81
779.01	233.75
779.33	233.58
779.66	233.42
779.98	233.36
780.31	233.29
780.63	233.21
780.95	233.18
781.28	233.11
781.60	233.05
781.92	232.97
782.25	232.92
782.57	232.83
782.89	232.77
783.22	232.70
783.54	232.57
783.86	232.52
784.19	232.45
784.51	232.43
784.83	232.38
785.16	232.30
785.48	232.24
785.80	232.16
786.12	232.10
786.45	232.02
786.77	231.96
787.09	231.89
787.42	231.83
787.74	231.76
788.06	231.70
788.38	231.63
788.71	231.61
789.03	231.55
789.35	231.54
789.67	231.46
789.99	231.41
790.32	231.38
790.64	231.34
790.96	231.37
791.28	231.28
791.61	231.21
791.93	231.16
792.25	231.13
792.57	231.14
792.89	231.05
793.21	231.00
793.54	230.96
793.86	230.90
794.18	230.85
794.50	230.77
794.82	230.75
795.14	230.72
795.47	230.69
795.79	230.67
796.11	230.59
796.43	230.58
796.75	230.54
797.07	230.50
797.39	230.45
797.71	230.34
798.04	230.34
798.36	230.30
798.68	230.28
799.00	230.24
799.32	230.18
799.64	230.22
799.96	230.23
800.28	230.18
800.60	230.18
800.92	230.17
801.24	230.16
801.56	230.16
801.89	230.15
802.21	230.14
802.53	230.07
802.85	230.10
803.17	230.10
803.49	230.08
803.81	230.06
804.13	230.04
804.45	230.01
804.77	229.97
805.09	229.98
805.41	230.00
805.73	229.96
806.05	229.93
806.37	229.88
806.69	229.84
807.01	229.83
807.33	229.81
807.65	229.72
807.97	229.71
808.28	229.71
808.60	229.69
808.92	229.67
809.24	229.72
809.56	229.67
809.88	229.64
810.20	229.59
810.52	229.58
810.84	229.54
811.16	229.53
811.48	229.48
811.80	229.46
812.12	229.42
812.43	229.41
812.75	229.39
813.07	229.38
813.39	229.37
813.71	229.34
814.03	229.32
814.35	229.31
814.67	229.28
814.98	229.23
815.30	229.21
815.62	229.14
815.94	229.05
816.26	229.07
816.58	229.01
816.89	229.03
817.21	229.02
817.53	229.01
817.85	229.00
818.17	228.98
818.48	228.94
818.80	228.93
819.12	228.87
819.44	228.81
819.76	228.77
820.07	228.75
820.39	228.72
820.71	228.71
821.03	228.68
821.34	228.64
821.66	228.61
821.98	228.57
822.30	228.56
822.61	228.63
822.93	228.59
823.25	228.57
823.57	228.53
823.88	228.49
824.20	228.47
824.52	228.47
824.83	228.51
825.15	228.51
825.47	228.49
825.79	228.51
826.10	228.48
826.42	228.44
826.74	228.43
827.05	228.43
827.37	228.42
827.69	228.44
828.00	228.45
828.32	228.41
828.64	228.39
828.95	228.43
829.27	228.38
829.58	228.34
829.90	228.35
830.22	228.34
830.53	228.29
830.85	228.25
831.17	228.19
831.48	228.17
831.80	228.15
832.11	228.13
832.43	228.11
832.75	228.11
833.06	228.17
833.38	228.13
833.69	228.11
834.01	228.08
834.32	228.07
834.64	228.04
834.96	228.07
835.27	228.09
835.59	228.05
835.90	228.01
836.22	227.97
836.53	227.94
836.85	227.91
837.16	228.06
837.48	228.09
837.79	228.14
838.11	228.12
838.42	228.11
838.74	228.12
839.05	228.12
839.37	228.12
839.68	228.06
840.00	228.06
840.31	228.08
840.63	228.07
840.94	228.08
841.26	228.07
841.57	228.07
841.88	228.08
842.20	228.07
842.51	228.08
842.83	228.10
843.14	228.19
843.46	228.22
843.77	228.13
844.08	228.14
844.40	228.07
844.71	228.07
845.03	228.05
845.34	228.07
845.65	228.08
845.97	228.08
846.28	228.10
846.60	228.13
846.91	228.11
847.22	228.11
847.54	228.10
847.85	228.09
848.16	228.07
848.48	228.04
848.79	228.06
849.10	228.06
849.42	228.06
849.73	227.98
850.04	228.00
850.36	227.98
850.67	227.98
850.98	228.02
851.30	228.03
851.61	228.03
851.92	228.04
852.23	228.07
852.55	228.08
852.86	228.07
853.17	228.07
853.49	228.08
853.80	228.11
854.11	228.11
854.42	228.15
854.74	228.16
855.05	228.16
855.36	228.13
855.67	228.15
855.99	228.16
856.30	228.28
856.61	228.24
856.92	228.26
857.23	228.24
857.55	228.22
857.86	228.21
858.17	228.24
858.48	228.20
858.79	228.17
859.11	228.18
859.42	228.17
859.73	228.12
860.04	228.10
860.35	228.06
860.66	228.05
860.98	228.04
861.29	228.01
861.60	227.99
861.91	228.00
862.22	227.94
862.53	227.92
862.84	227.80
863.16	227.80
863.47	227.75
863.78	227.73
864.09	227.75
864.40	227.75
864.71	227.71
865.02	227.70
865.33	227.68
865.64	227.63
865.95	227.61
866.27	227.69
866.58	227.69
866.89	227.67
867.20	227.65
867.51	227.62
867.82	227.63
868.13	227.66
868.44	227.63
868.75	227.65
869.06	227.64
869.37	227.64
869.68	227.60
869.99	227.59
870.30	227.58
870.61	227.57
870.92	227.55
871.23	227.56
871.54	227.54
871.85	227.58
872.16	227.57
872.47	227.57
872.78	227.51
873.09	227.50
873.40	227.51
873.71	227.52
874.02	227.51
874.33	227.49
874.64	227.45
874.95	227.43
875.26	227.40
875.56	227.39
875.87	227.37
876.18	227.37
876.49	227.48
876.80	227.48
877.11	227.46
877.42	227.45
877.73	227.42
878.04	227.43
878.35	227.41
878.66	227.44
878.96	227.42
879.27	227.41
879.58	227.41
879.89	227.39
880.20	227.41
880.51	227.40
880.82	227.45
881.12	227.49
881.43	227.49
881.74	227.47
882.05	227.44
882.36	227.46
882.67	227.46
882.97	227.37
883.28	227.36
883.59	227.38
883.90	227.38
884.21	227.41
884.51	227.42
884.82	227.37
885.13	227.35
885.44	227.34
885.74	227.33
886.05	227.33
886.36	227.34
886.67	227.31
886.98	227.37
887.28	227.36
887.59	227.33
887.90	227.37
888.20	227.41
888.51	227.44
888.82	227.44
889.13	227.47
889.43	227.50
889.74	227.52
890.05	227.49
890.35	227.51
890.66	227.49
890.97	227.45
891.28	227.48
891.58	227.49
891.89	227.49
892.20	227.48
892.50	227.48
892.81	227.48
893.12	227.50
893.42	227.45
893.73	227.45
894.04	227.46
894.34	227.44
894.65	227.43
894.95	227.39
895.26	227.40
895.57	227.41
895.87	227.35
896.18	227.35
896.48	227.35
896.79	227.34
897.10	227.35
897.40	227.35
897.71	227.34
898.01	227.32
898.32	227.33
898.63	227.33
898.93	227.34
899.24	227.31
899.54	227.27
899.85	227.25
900.15	227.19
900.46	227.18
900.76	227.20
901.07	227.18
901.38	227.21
901.68	227.21
901.99	227.16
902.29	227.18
902.60	227.17
902.90	227.15
903.21	227.12
903.51	227.12
903.82	227.14
904.12	227.16
904.43	227.17
904.73	227.17
905.03	227.16
905.34	227.24
905.64	227.23
905.95	227.22
906.25	227.25
906.56	227.33
906.86	227.30
907.17	227.27
907.47	227.31
907.77	227.27
908.08	227.21
908.38	227.24
908.69	227.23
908.99	227.24
909.30	227.27
909.60	227.29
909.90	227.30
910.21	227.30
910.51	227.23
910.81	227.21
911.12	227.24
911.42	227.26
911.73	227.15
912.03	227.17
912.33	227.19
912.64	227.17
912.94	227.10
913.24	227.09
913.55	227.09
913.85	227.07
914.15	227.14
914.46	227.19
914.76	227.15
915.06	227.14
915.37	227.15
915.67	227.16
915.97	227.16
916.27	227.16
916.58	227.17
916.88	227.23
917.18	227.26
917.49	227.28
917.79	227.29
918.09	227.33
918.39	227.34
918.70	227.35
919.00	227.37
919.30	227.45
919.60	227.50
919.91	227.48
920.21	227.49
920.51	227.44
920.81	227.43
921.12	227.46
921.42	227.46
921.72	227.43
922.02	227.45
922.32	227.46
922.63	227.44
922.93	227.49
923.23	227.51
923.53	227.47
923.83	227.40
924.13	227.43
924.44	227.42
924.74	227.45
925.04	227.49
925.34	227.49
925.64	227.42
925.94	227.39
926.24	227.48
926.55	227.46
926.85	227.51
927.15	227.52
927.45	227.53
927.75	227.53
928.05	227.56
928.35	227.53
928.65	227.52
928.95	227.53
929.26	227.51
929.56	227.50
929.86	227.51
930.16	227.55
930.46	227.52
930.76	227.50
931.06	227.47
931.36	227.42
931.66	227.40
931.96	227.45
932.26	227.45
932.56	227.39
932.86	227.39
933.16	227.34
933.46	227.35
933.76	227.32
934.06	227.33
934.36	227.34
934.66	227.28
934.96	227.31
935.26	227.29
935.56	227.30
935.86	227.27
936.16	227.25
936.46	227.20
936.76	227.18
937.06	227.19
937.36	227.14
937.66	227.16
937.96	227.15
938.26	227.10
938.56	227.09
938.86	227.10
939.16	227.16
939.46	227.17
939.76	227.16
940.06	227.13
940.35	227.09
940.65	227.06
940.95	227.09
941.25	227.06
941.55	227.04
941.85	227.00
942.15	227.01
942.45	227.07
942.75	227.07
943.04	227.07
943.34	227.05
943.64	227.09
943.94	227.09
944.24	227.12
944.54	227.13
944.84	227.08
945.13	227.05
945.43	227.00
945.73	226.99
946.03	226.94
946.33	226.96
946.62	226.97
946.92	226.98
947.22	227.01
947.52	226.99
947.82	227.02
948.11	227.03
948.41	227.02
948.71	226.94
949.01	226.97
949.31	226.96
949.60	226.95
949.90	226.93
950.20	226.92
950.50	226.90
950.79	226.89
951.09	226.97
951.39	226.99
951.69	227.00
951.98	227.04
952.28	227.08
952.58	227.09
952.87	227.08
953.17	227.12
953.47	227.10
953.76	227.11
954.06	227.10
954.36	227.10
954.66	227.10
954.95	227.12
955.25	227.16
955.55	227.20
955.84	227.21
956.14	227.22
956.44	227.22
956.73	227.21
957.03	227.25
957.32	227.24
957.62	227.21
957.92	227.25
958.21	227.23
958.51	227.33
958.81	227.35
959.10	227.38
959.40	227.38
959.69	227.40
959.99	227.44
960.29	227.43
960.58	227.41
960.88	227.48
961.17	227.50
961.47	227.50
961.76	227.47
962.06	227.48
962.36	227.49
962.65	227.50
962.95	227.53
963.24	227.51
963.54	227.51
963.83	227.53
964.13	227.54
964.42	227.52
964.72	227.45
965.01	227.43
965.31	227.40
965.60	227.35
965.90	227.42
966.19	227.36
966.49	227.36
966.78	227.36
967.08	227.32
967.37	227.30
967.67	227.26
967.96	227.28
968.26	227.25
968.55	227.25
968.85	227.23
969.14	227.21
969.43	227.20
969.73	227.21
970.02	227.20
970.32	227.12
970.61	227.11
970.91	227.07
971.20	227.07
971.49	227.08
971.79	227.08
972.08	226.99
972.38	226.98
972.67	226.97
972.96	226.97
973.26	226.92
973.55	226.98
973.85	226.97
974.14	226.95
974.43	226.96
974.73	226.92
975.02	226.90
975.31	226.93
975.61	226.92
975.90	226.90
976.19	226.86
976.49	226.89
976.78	226.87
977.07	226.84
977.37	226.85
977.66	226.82
977.95	226.78
978.24	226.80
978.54	226.81
978.83	226.82
979.12	226.81
979.42	226.82
979.71	226.77
980.00	226.78
980.29	226.80
980.59	226.79
980.88	226.82
981.17	226.84
981.46	226.76
981.76	226.76
982.05	226.79
982.34	226.82
982.63	226.82
982.93	226.81
983.22	226.85
983.51	226.82
983.80	226.88
984.09	226.91
984.39	226.88
984.68	226.88
984.97	226.88
985.26	226.88
985.55	226.89
985.85	226.89
986.14	226.90
986.43	226.91
986.72	226.90
987.01	226.87
987.30	226.87
987.59	226.87
987.89	226.90
988.18	226.85
988.47	226.87
988.76	226.84
989.05	226.88
989.34	226.88
989.63	226.89
989.92	226.85
990.22	226.87
990.51	226.90
990.80	226.91
991.09	226.93
991.38	226.96
991.67	226.97
991.96	226.97
992.25	226.97
992.54	226.99
992.83	226.98
993.12	227.01
993.41	227.03
993.70	227.10
993.99	227.11
994.28	227.14
994.58	227.16
994.87	227.18
995.16	227.19
995.45	227.17
995.74	227.17
996.03	227.22
996.32	227.22
996.61	227.26
996.90	227.26
997.19	227.28
997.48	227.28
997.77	227.27
998.06	227.30
998.34	227.28
998.63	227.29
998.92	227.31
999.21	227.35
999.50	227.37
999.79	227.33
1000.08	227.31
1000.37	227.31
1000.66	227.30
1000.95	227.31
1001.24	227.32
1001.53	227.34
1001.82	227.31
1002.11	227.28
1002.40	227.29
1002.68	227.30
1002.97	227.35
1003.26	227.35
1003.55	227.32
1003.84	227.33
1004.13	227.34
1004.42	227.34
1004.71	227.30
1004.99	227.31
1005.28	227.31
1005.57	227.28
1005.86	227.28
1006.15	227.26
1006.44	227.28
1006.72	227.27
1007.01	227.25
1007.30	227.22
1007.59	227.21
1007.88	227.24
1008.17	227.25
1008.45	227.22
1008.74	227.21
1009.03	227.15
1009.32	227.12
1009.60	227.12
1009.89	227.09
1010.18	227.06
1010.47	227.05
1010.76	227.02
1011.04	227.01
1011.33	226.99
1011.62	226.98
1011.91	226.99
1012.19	226.99
1012.48	226.98
1012.77	226.99
1013.05	226.99
1013.34	226.99
1013.63	226.98
1013.92	226.97
1014.20	226.95
1014.49	226.91
1014.78	226.86
1015.06	226.84
1015.35	226.82
1015.64	226.81
1015.92	226.83
1016.21	226.80
1016.50	226.82
1016.78	226.83
1017.07	226.82
1017.36	226.81
1017.64	226.79
1017.93	226.78
1018.22	226.76
1018.50	226.75
1018.79	226.76
1019.08	226.76
1019.36	226.76
1019.65	226.73
1019.93	226.76
1020.22	226.78
1020.51	226.85
1020.79	226.87
1021.08	226.51
1021.36	227.15
1021.65	227.02
1021.94	227.20
1022.22	226.81
1022.51	226.29
1022.79	227.16
1023.08	227.28
1023.36	227.89
1023.65	226.82
>>>>>End Processed Spectral Data<<<<<
