SpectraSuite Data File
++++++++++++++++++++++++++++++++++++
Date: Fri Feb 01 15:56:27 EST 2013
User: group
Dark Spectrum Present: No
Reference Spectrum Present: No
Number of Sampled Component Spectra: 1
Spectrometers: USB2E7196
Integration Time (usec): 35000 (USB2E7196)
Spectra Averaged: 100 (USB2E7196)
Boxcar Smoothing: 10 (USB2E7196)
Correct for Electrical Dark: No (USB2E7196)
Strobe/Lamp Enabled: No (USB2E7196)
Correct for Detector Non-linearity: No (USB2E7196)
Correct for Stray Light: No (USB2E7196)
Number of Pixels in Processed Spectrum: 2048
>>>>>Begin Processed Spectral Data<<<<<
339.09	0.00
339.48	215.10
339.86	216.50
340.24	218.08
340.63	218.71
341.01	221.66
341.39	221.92
341.78	222.68
342.16	224.43
342.54	225.18
342.93	213.11
343.31	223.89
343.69	224.40
344.07	224.82
344.46	225.23
344.84	225.61
345.22	225.89
345.60	226.12
345.99	226.30
346.37	226.42
346.75	226.54
347.13	226.64
347.52	226.70
347.90	226.77
348.28	226.82
348.66	226.85
349.05	226.88
349.43	226.90
349.81	226.97
350.19	227.01
350.57	227.06
350.96	227.17
351.34	227.25
351.72	227.36
352.10	227.48
352.48	227.54
352.87	227.62
353.25	227.63
353.63	227.70
354.01	227.78
354.39	227.87
354.77	227.91
355.15	227.99
355.54	228.06
355.92	228.10
356.30	228.18
356.68	228.36
357.06	228.44
357.44	228.49
357.82	228.55
358.20	228.62
358.58	228.68
358.97	228.73
359.35	228.83
359.73	228.86
360.11	228.92
360.49	229.00
360.87	229.03
361.25	229.13
361.63	229.20
362.01	229.25
362.39	229.26
362.77	229.29
363.15	229.32
363.53	229.35
363.91	229.39
364.29	229.42
364.67	229.30
365.05	229.27
365.43	229.28
365.81	229.30
366.19	229.33
366.57	229.34
366.95	229.32
367.33	229.29
367.71	229.27
368.09	229.28
368.47	229.24
368.85	229.22
369.23	229.21
369.61	229.15
369.99	229.13
370.37	229.12
370.75	229.13
371.13	229.09
371.51	229.00
371.89	228.96
372.27	228.92
372.65	228.87
373.03	228.85
373.41	228.79
373.78	228.73
374.16	228.63
374.54	228.59
374.92	228.53
375.30	228.47
375.68	228.44
376.06	228.35
376.44	228.27
376.82	228.21
377.19	228.10
377.57	228.05
377.95	227.97
378.33	227.92
378.71	227.79
379.09	227.73
379.47	227.71
379.84	227.61
380.22	227.49
380.60	227.42
380.98	227.35
381.36	227.26
381.73	227.18
382.11	227.13
382.49	227.05
382.87	226.96
383.25	226.87
383.62	226.91
384.00	226.82
384.38	226.76
384.76	226.73
385.13	226.72
385.51	226.64
385.89	226.58
386.27	226.50
386.64	226.45
387.02	226.34
387.40	226.26
387.78	226.24
388.15	226.21
388.53	226.20
388.91	226.18
389.29	226.14
389.66	226.18
390.04	226.13
390.42	226.13
390.79	226.12
391.17	226.12
391.55	226.02
391.92	226.02
392.30	226.02
392.68	226.00
393.05	225.98
393.43	225.97
393.81	226.00
394.18	225.99
394.56	226.04
394.94	226.14
395.31	226.18
395.69	226.24
396.06	226.28
396.44	226.26
396.82	226.29
397.19	226.41
397.57	226.39
397.95	226.46
398.32	226.48
398.70	226.54
399.07	226.62
399.45	226.68
399.82	226.75
400.20	226.84
400.58	226.94
400.95	227.01
401.33	227.13
401.70	227.31
402.08	227.45
402.45	227.53
402.83	227.62
403.20	227.71
403.58	227.79
403.95	227.95
404.33	228.10
404.71	228.24
405.08	228.40
405.46	228.56
405.83	228.72
406.21	228.88
406.58	229.07
406.96	229.25
407.33	229.39
407.70	229.59
408.08	229.84
408.45	230.05
408.83	230.32
409.20	230.53
409.58	230.69
409.95	230.91
410.33	231.17
410.70	231.43
411.08	231.73
411.45	232.05
411.82	232.33
412.20	232.69
412.57	233.12
412.95	233.39
413.32	233.78
413.69	234.17
414.07	234.60
414.44	235.04
414.82	235.48
415.19	236.03
415.56	236.56
415.94	237.07
416.31	237.72
416.68	238.30
417.06	238.99
417.43	239.67
417.81	240.41
418.18	241.21
418.55	242.03
418.93	242.90
419.30	243.79
419.67	244.72
420.04	245.66
420.42	246.63
420.79	247.82
421.16	249.00
421.54	250.17
421.91	251.39
422.28	252.63
422.66	253.96
423.03	255.27
423.40	256.62
423.77	258.02
424.15	259.43
424.52	260.93
424.89	262.55
425.26	264.05
425.64	265.51
426.01	267.06
426.38	268.70
426.75	270.38
427.13	272.08
427.50	273.88
427.87	275.76
428.24	277.62
428.61	279.33
428.99	281.27
429.36	283.39
429.73	285.46
430.10	287.48
430.47	289.54
430.85	291.65
431.22	293.91
431.59	296.29
431.96	298.51
432.33	300.97
432.70	303.34
433.08	306.14
433.45	308.79
433.82	311.40
434.19	314.30
434.56	317.10
434.93	319.74
435.30	322.32
435.68	325.19
436.05	328.00
436.42	330.84
436.79	333.32
437.16	336.02
437.53	338.80
437.90	341.59
438.27	344.33
438.64	347.17
439.01	349.74
439.38	351.98
439.75	354.18
440.13	356.68
440.50	358.99
440.87	360.84
441.24	362.74
441.61	364.94
441.98	366.42
442.35	368.17
442.72	370.05
443.09	371.90
443.46	372.90
443.83	373.51
444.20	374.01
444.57	374.82
444.94	375.06
445.31	375.42
445.68	375.79
446.05	375.87
446.42	375.49
446.79	375.06
447.16	374.62
447.53	374.31
447.90	373.18
448.27	372.03
448.64	370.45
449.01	369.34
449.37	367.36
449.74	365.47
450.11	363.29
450.48	360.83
450.85	358.26
451.22	356.11
451.59	354.07
451.96	352.11
452.33	349.50
452.70	347.16
453.07	344.32
453.43	341.43
453.80	338.68
454.17	336.04
454.54	333.55
454.91	330.85
455.28	328.14
455.65	325.61
456.02	323.17
456.38	321.02
456.75	318.37
457.12	316.12
457.49	313.90
457.86	311.73
458.23	309.86
458.59	307.86
458.96	305.78
459.33	303.90
459.70	302.08
460.07	300.63
460.43	298.94
460.80	297.31
461.17	295.84
461.54	294.33
461.91	292.86
462.27	291.39
462.64	290.13
463.01	288.76
463.38	287.47
463.74	286.14
464.11	285.02
464.48	283.97
464.85	282.90
465.21	282.03
465.58	281.08
465.95	280.04
466.32	279.16
466.68	278.30
467.05	277.43
467.42	276.53
467.78	275.60
468.15	274.75
468.52	274.10
468.88	273.28
469.25	272.55
469.62	271.97
469.98	271.31
470.35	270.68
470.72	270.11
471.08	269.47
471.45	268.92
471.82	268.36
472.18	267.82
472.55	267.36
472.92	266.86
473.28	266.43
473.65	265.95
474.02	265.49
474.38	265.12
474.75	264.81
475.11	264.47
475.48	264.20
475.85	263.99
476.21	263.77
476.58	263.60
476.94	263.45
477.31	263.26
477.67	263.11
478.04	263.01
478.41	262.92
478.77	262.98
479.14	262.91
479.50	262.94
479.87	263.00
480.23	263.09
480.60	263.16
480.96	263.23
481.33	263.45
481.69	263.66
482.06	263.85
482.42	264.08
482.79	264.38
483.15	264.72
483.52	265.08
483.88	265.45
484.25	265.81
484.61	266.23
484.98	266.68
485.34	267.26
485.71	267.87
486.07	268.50
486.44	269.08
486.80	269.79
487.17	270.50
487.53	271.32
487.90	272.17
488.26	273.11
488.62	274.13
488.99	275.12
489.35	276.18
489.72	277.27
490.08	278.45
490.44	279.67
490.81	280.97
491.17	282.34
491.54	283.84
491.90	285.39
492.26	287.06
492.63	288.82
492.99	290.60
493.36	292.49
493.72	294.54
494.08	296.65
494.45	298.90
494.81	301.31
495.17	303.73
495.54	306.30
495.90	308.99
496.26	311.77
496.63	314.73
496.99	317.87
497.35	321.16
497.72	324.56
498.08	328.06
498.44	331.76
498.80	335.68
499.17	339.69
499.53	343.86
499.89	348.26
500.26	352.78
500.62	357.41
500.98	362.37
501.34	367.47
501.71	372.82
502.07	378.30
502.43	383.92
502.79	389.76
503.16	395.81
503.52	402.05
503.88	408.43
504.24	415.03
504.60	421.86
504.97	428.95
505.33	436.28
505.69	443.99
506.05	451.75
506.41	459.61
506.78	467.80
507.14	476.25
507.50	484.92
507.86	493.91
508.22	503.09
508.59	512.26
508.95	521.81
509.31	531.60
509.67	541.68
510.03	551.93
510.39	562.45
510.75	573.25
511.12	584.21
511.48	595.53
511.84	606.99
512.20	618.54
512.56	630.49
512.92	642.71
513.28	655.05
513.64	667.51
514.00	680.23
514.37	693.12
514.73	706.19
515.09	719.25
515.45	732.55
515.81	746.26
516.17	760.24
516.53	774.29
516.89	788.48
517.25	802.72
517.61	817.16
517.97	831.64
518.33	846.03
518.69	860.82
519.05	875.81
519.41	891.06
519.77	906.62
520.13	922.11
520.49	937.36
520.85	952.76
521.21	968.49
521.57	984.75
521.93	1000.47
522.29	1016.75
522.65	1032.90
523.01	1049.09
523.37	1064.95
523.73	1081.13
524.09	1097.18
524.45	1113.45
524.81	1130.02
525.17	1146.80
525.53	1163.65
525.89	1180.54
526.25	1197.28
526.61	1213.65
526.97	1230.30
527.33	1246.69
527.68	1263.24
528.04	1279.78
528.40	1296.35
528.76	1313.33
529.12	1329.81
529.48	1346.66
529.84	1362.74
530.20	1379.45
530.56	1396.41
530.91	1413.83
531.27	1430.51
531.63	1446.97
531.99	1463.49
532.35	1479.38
532.71	1495.19
533.07	1511.47
533.42	1527.28
533.78	1543.28
534.14	1559.44
534.50	1574.74
534.86	1590.59
535.21	1605.67
535.57	1621.53
535.93	1637.12
536.29	1651.89
536.65	1666.91
537.00	1681.73
537.36	1696.97
537.72	1711.48
538.08	1725.95
538.44	1739.68
538.79	1753.59
539.15	1767.29
539.51	1780.97
539.87	1795.33
540.22	1809.11
540.58	1822.79
540.94	1836.24
541.29	1849.21
541.65	1861.90
542.01	1875.06
542.37	1887.31
542.72	1899.77
543.08	1911.59
543.44	1923.79
543.79	1935.05
544.15	1946.16
544.51	1957.78
544.87	1968.70
545.22	1979.44
545.58	1989.58
545.94	1999.32
546.29	2009.21
546.65	2019.09
547.01	2028.34
547.36	2037.21
547.72	2045.61
548.07	2053.54
548.43	2061.58
548.79	2069.61
549.14	2077.16
549.50	2084.54
549.86	2092.17
550.21	2099.44
550.57	2106.45
550.92	2113.00
551.28	2119.90
551.64	2126.81
551.99	2133.17
552.35	2139.32
552.70	2145.52
553.06	2151.42
553.41	2157.86
553.77	2163.90
554.13	2169.85
554.48	2175.90
554.84	2181.11
555.19	2186.45
555.55	2191.53
555.90	2196.01
556.26	2200.79
556.61	2205.65
556.97	2209.95
557.32	2214.07
557.68	2218.15
558.03	2222.60
558.39	2226.31
558.74	2231.05
559.10	2234.99
559.45	2238.79
559.81	2243.16
560.16	2246.87
560.52	2250.10
560.87	2253.38
561.23	2256.04
561.58	2258.96
561.94	2261.59
562.29	2263.97
562.64	2266.68
563.00	2269.26
563.35	2272.87
563.71	2275.98
564.06	2279.03
564.42	2281.79
564.77	2284.25
565.12	2286.59
565.48	2288.40
565.83	2290.29
566.19	2291.56
566.54	2292.37
566.89	2293.32
567.25	2293.92
567.60	2295.30
567.96	2297.03
568.31	2298.04
568.66	2299.08
569.02	2299.61
569.37	2299.95
569.72	2300.90
570.08	2300.91
570.43	2301.01
570.78	2300.32
571.14	2298.80
571.49	2297.49
571.84	2297.24
572.20	2296.16
572.55	2295.03
572.90	2293.61
573.26	2292.22
573.61	2290.54
573.96	2288.75
574.31	2285.89
574.67	2282.77
575.02	2279.13
575.37	2275.92
575.72	2272.01
576.08	2268.68
576.43	2265.46
576.78	2261.71
577.13	2258.47
577.49	2255.45
577.84	2251.86
578.19	2248.16
578.54	2244.57
578.90	2240.36
579.25	2234.83
579.60	2229.99
579.95	2225.05
580.30	2219.97
580.66	2214.97
581.01	2210.03
581.36	2205.20
581.71	2200.92
582.06	2196.48
582.42	2192.04
582.77	2186.67
583.12	2182.18
583.47	2177.50
583.82	2172.54
584.17	2167.41
584.53	2162.05
584.88	2156.29
585.23	2150.46
585.58	2144.99
585.93	2139.61
586.28	2134.84
586.63	2129.74
586.98	2124.70
587.34	2120.02
587.69	2115.17
588.04	2109.84
588.39	2104.29
588.74	2097.81
589.09	2091.71
589.44	2084.92
589.79	2079.01
590.14	2073.39
590.49	2066.77
590.84	2060.40
591.19	2054.45
591.54	2048.01
591.89	2040.51
592.25	2033.85
592.60	2026.73
592.95	2019.17
593.30	2011.77
593.65	2004.15
594.00	1997.04
594.35	1989.81
594.70	1981.79
595.05	1974.47
595.40	1967.20
595.75	1959.68
596.10	1953.45
596.45	1946.85
596.80	1940.85
597.15	1934.10
597.50	1926.99
597.85	1920.68
598.19	1914.03
598.54	1906.85
598.89	1900.20
599.24	1894.32
599.59	1887.52
599.94	1881.35
600.29	1875.10
600.64	1868.49
600.99	1861.10
601.34	1854.27
601.69	1847.29
602.04	1840.48
602.39	1833.20
602.74	1826.35
603.08	1819.58
603.43	1812.85
603.78	1805.45
604.13	1798.07
604.48	1790.77
604.83	1783.88
605.18	1776.77
605.53	1768.72
605.87	1760.66
606.22	1753.33
606.57	1745.41
606.92	1738.20
607.27	1730.98
607.62	1723.84
607.96	1716.60
608.31	1709.94
608.66	1702.33
609.01	1694.72
609.36	1687.10
609.70	1679.11
610.05	1671.08
610.40	1663.31
610.75	1654.92
611.10	1647.26
611.44	1638.90
611.79	1630.86
612.14	1622.24
612.49	1613.01
612.83	1604.66
613.18	1596.69
613.53	1588.59
613.88	1580.09
614.22	1571.82
614.57	1563.23
614.92	1555.32
615.27	1547.72
615.61	1539.39
615.96	1531.45
616.31	1523.78
616.65	1516.33
617.00	1508.71
617.35	1500.91
617.70	1492.55
618.04	1484.15
618.39	1475.95
618.74	1468.41
619.08	1460.12
619.43	1452.55
619.78	1445.77
620.12	1438.49
620.47	1430.82
620.82	1422.72
621.16	1415.38
621.51	1407.72
621.85	1400.16
622.20	1391.62
622.55	1383.32
622.89	1375.54
623.24	1367.96
623.59	1360.66
623.93	1353.17
624.28	1346.02
624.62	1338.48
624.97	1331.38
625.32	1324.71
625.66	1317.71
626.01	1310.46
626.35	1303.05
626.70	1295.31
627.04	1287.56
627.39	1279.92
627.73	1272.55
628.08	1265.60
628.43	1258.26
628.77	1250.85
629.12	1243.27
629.46	1236.03
629.81	1228.56
630.15	1221.27
630.50	1213.89
630.84	1205.74
631.19	1197.90
631.53	1190.35
631.88	1182.89
632.22	1175.34
632.57	1168.00
632.91	1160.38
633.26	1152.88
633.60	1145.53
633.95	1138.42
634.29	1131.39
634.64	1124.71
634.98	1117.37
635.32	1110.23
635.67	1103.50
636.01	1096.95
636.36	1090.13
636.70	1083.63
637.05	1077.07
637.39	1070.61
637.73	1064.02
638.08	1058.06
638.42	1051.99
638.77	1045.61
639.11	1038.95
639.45	1032.51
639.80	1025.83
640.14	1019.37
640.49	1012.91
640.83	1006.63
641.17	1000.39
641.52	994.08
641.86	987.63
642.20	981.79
642.55	975.45
642.89	969.02
643.23	962.47
643.58	956.69
643.92	950.47
644.26	944.39
644.61	938.34
644.95	932.24
645.29	925.59
645.64	918.83
645.98	912.42
646.32	906.63
646.66	900.58
647.01	894.73
647.35	889.05
647.69	883.16
648.04	877.60
648.38	871.82
648.72	865.72
649.06	859.59
649.41	853.70
649.75	847.76
650.09	841.82
650.43	836.04
650.78	829.88
651.12	823.99
651.46	818.23
651.80	812.48
652.14	807.15
652.49	801.81
652.83	796.63
653.17	790.92
653.51	785.19
653.85	779.75
654.20	774.11
654.54	768.13
654.88	762.46
655.22	756.61
655.56	750.90
655.90	745.45
656.25	740.22
656.59	734.83
656.93	729.73
657.27	724.58
657.61	719.12
657.95	714.05
658.29	708.89
658.64	703.72
658.98	698.43
659.32	692.98
659.66	687.78
660.00	682.52
660.34	677.63
660.68	672.71
661.02	667.70
661.36	663.01
661.70	658.51
662.05	654.22
662.39	649.89
662.73	645.41
663.07	641.04
663.41	636.61
663.75	632.16
664.09	627.65
664.43	623.26
664.77	619.19
665.11	614.93
665.45	610.88
665.79	606.78
666.13	602.74
666.47	598.63
666.81	594.52
667.15	590.33
667.49	586.45
667.83	582.67
668.17	578.73
668.51	574.65
668.85	570.59
669.19	566.75
669.53	562.85
669.87	558.98
670.21	555.29
670.55	551.63
670.89	548.13
671.23	544.64
671.57	541.13
671.91	537.53
672.25	534.03
672.58	530.49
672.92	527.12
673.26	523.84
673.60	520.74
673.94	517.63
674.28	514.79
674.62	511.81
674.96	508.71
675.30	505.83
675.64	502.93
675.97	500.20
676.31	497.31
676.65	494.40
676.99	491.68
677.33	488.84
677.67	486.01
678.01	482.98
678.34	480.01
678.68	477.14
679.02	474.35
679.36	471.61
679.70	468.90
680.04	466.10
680.37	463.27
680.71	460.40
681.05	457.74
681.39	454.98
681.73	452.30
682.06	449.82
682.40	447.26
682.74	444.71
683.08	442.16
683.42	439.54
683.75	437.06
684.09	434.50
684.43	432.03
684.77	429.61
685.10	427.32
685.44	425.01
685.78	422.68
686.12	420.39
686.45	418.09
686.79	415.76
687.13	413.51
687.46	411.34
687.80	409.24
688.14	407.06
688.48	404.98
688.81	402.75
689.15	400.54
689.49	398.43
689.82	396.36
690.16	394.28
690.50	392.31
690.83	390.33
691.17	388.40
691.51	386.45
691.84	384.59
692.18	382.60
692.52	380.62
692.85	378.68
693.19	376.84
693.52	375.01
693.86	373.23
694.20	371.50
694.53	369.68
694.87	367.82
695.21	366.01
695.54	364.22
695.88	362.49
696.21	360.75
696.55	359.03
696.88	357.36
697.22	355.67
697.56	354.09
697.89	352.45
698.23	350.80
698.56	349.20
698.90	347.60
699.23	345.95
699.57	344.39
699.90	342.90
700.24	341.32
700.58	339.75
700.91	338.23
701.25	336.75
701.58	335.42
701.92	334.05
702.25	332.64
702.59	331.28
702.92	329.93
703.26	328.64
703.59	327.36
703.93	326.17
704.26	324.96
704.60	323.63
704.93	322.38
705.26	321.15
705.60	320.00
705.93	318.87
706.27	317.89
706.60	316.89
706.94	315.78
707.27	314.68
707.61	313.63
707.94	312.64
708.27	311.56
708.61	310.44
708.94	309.46
709.28	308.57
709.61	307.63
709.94	306.71
710.28	305.67
710.61	304.69
710.95	303.58
711.28	302.65
711.61	301.74
711.95	300.84
712.28	299.90
712.61	298.89
712.95	297.95
713.28	297.07
713.61	296.17
713.95	295.35
714.28	294.56
714.61	293.73
714.95	292.86
715.28	291.99
715.61	291.15
715.95	290.28
716.28	289.37
716.61	288.52
716.95	287.70
717.28	286.97
717.61	286.18
717.94	285.47
718.28	284.64
718.61	283.88
718.94	283.17
719.27	282.49
719.61	281.92
719.94	281.23
720.27	280.50
720.60	279.83
720.94	279.17
721.27	278.51
721.60	277.93
721.93	277.36
722.27	276.84
722.60	276.28
722.93	275.72
723.26	275.15
723.59	274.58
723.93	274.04
724.26	273.48
724.59	272.95
724.92	272.40
725.25	271.93
725.59	271.45
725.92	270.93
726.25	270.42
726.58	269.86
726.91	269.38
727.24	268.90
727.57	268.41
727.91	267.90
728.24	267.43
728.57	266.91
728.90	266.43
729.23	265.96
729.56	265.52
729.89	265.02
730.22	264.59
730.55	264.11
730.89	263.67
731.22	263.25
731.55	262.81
731.88	262.39
732.21	261.94
732.54	261.48
732.87	261.09
733.20	260.70
733.53	260.34
733.86	259.96
734.19	259.56
734.52	259.18
734.85	258.85
735.18	258.44
735.51	258.08
735.84	257.69
736.17	257.33
736.50	256.92
736.83	256.71
737.16	256.34
737.49	256.04
737.82	255.67
738.15	255.32
738.48	254.99
738.81	254.68
739.14	254.36
739.47	254.03
739.80	253.67
740.13	253.34
740.46	253.00
740.79	252.64
741.12	252.29
741.45	251.99
741.78	251.64
742.11	251.37
742.44	251.04
742.77	250.78
743.10	250.46
743.43	250.19
743.75	249.80
744.08	249.67
744.41	249.38
744.74	249.13
745.07	248.86
745.40	248.62
745.73	248.36
746.06	248.07
746.39	247.82
746.71	247.58
747.04	247.32
747.37	247.09
747.70	246.89
748.03	246.69
748.36	246.44
748.68	246.24
749.01	246.00
749.34	245.81
749.67	245.58
750.00	245.39
750.33	245.20
750.65	244.97
750.98	244.60
751.31	244.40
751.64	244.18
751.97	244.02
752.29	243.81
752.62	243.60
752.95	243.41
753.28	243.21
753.60	243.01
753.93	242.84
754.26	242.67
754.59	242.44
754.91	242.23
755.24	242.04
755.57	241.84
755.90	241.68
756.22	241.49
756.55	241.28
756.88	241.07
757.20	240.84
757.53	240.64
757.86	240.52
758.19	240.37
758.51	240.20
758.84	240.01
759.17	239.85
759.49	239.70
759.82	239.61
760.15	239.44
760.47	239.31
760.80	239.14
761.13	239.01
761.45	238.87
761.78	238.73
762.11	238.58
762.43	238.41
762.76	238.23
763.08	238.11
763.41	238.00
763.74	237.87
764.06	237.75
764.39	237.67
764.71	237.51
765.04	237.36
765.37	237.19
765.69	237.04
766.02	236.88
766.34	236.71
766.67	236.55
767.00	236.43
767.32	236.36
767.65	236.28
767.97	236.10
768.30	235.95
768.62	235.83
768.95	235.71
769.27	235.62
769.60	235.54
769.92	235.42
770.25	235.29
770.57	235.19
770.90	235.06
771.22	234.93
771.55	234.83
771.87	234.77
772.20	234.68
772.52	234.67
772.85	234.70
773.17	234.64
773.50	234.51
773.82	234.44
774.15	234.26
774.47	234.14
774.80	234.07
775.12	234.02
775.45	233.94
775.77	233.88
776.09	233.80
776.42	233.72
776.74	233.66
777.07	233.54
777.39	233.43
777.72	233.38
778.04	233.33
778.36	233.24
778.69	233.14
779.01	233.08
779.33	232.90
779.66	232.71
779.98	232.63
780.31	232.57
780.63	232.55
780.95	232.52
781.28	232.45
781.60	232.38
781.92	232.29
782.25	232.22
782.57	232.14
782.89	232.06
783.22	231.96
783.54	231.87
783.86	231.86
784.19	231.79
784.51	231.78
784.83	231.70
785.16	231.63
785.48	231.58
785.80	231.55
786.12	231.53
786.45	231.50
786.77	231.46
787.09	231.41
787.42	231.33
787.74	231.30
788.06	231.24
788.38	231.18
788.71	231.15
789.03	231.12
789.35	231.10
789.67	231.06
789.99	231.04
790.32	231.02
790.64	230.98
790.96	231.05
791.28	230.98
791.61	230.96
791.93	230.94
792.25	230.92
792.57	230.95
792.89	230.90
793.21	230.88
793.54	230.83
793.86	230.79
794.18	230.73
794.50	230.69
794.82	230.66
795.14	230.67
795.47	230.69
795.79	230.66
796.11	230.61
796.43	230.58
796.75	230.52
797.07	230.46
797.39	230.42
797.71	230.33
798.04	230.28
798.36	230.24
798.68	230.20
799.00	230.15
799.32	230.09
799.64	230.10
799.96	230.04
800.28	230.01
800.60	229.99
800.92	230.00
801.24	229.96
801.56	229.96
801.89	229.88
802.21	229.83
802.53	229.81
802.85	229.80
803.17	229.80
803.49	229.78
803.81	229.75
804.13	229.72
804.45	229.69
804.77	229.67
805.09	229.64
805.41	229.60
805.73	229.54
806.05	229.45
806.37	229.42
806.69	229.40
807.01	229.39
807.33	229.39
807.65	229.30
807.97	229.32
808.28	229.28
808.60	229.27
808.92	229.20
809.24	229.25
809.56	229.21
809.88	229.16
810.20	229.18
810.52	229.18
810.84	229.17
811.16	229.12
811.48	229.09
811.80	229.10
812.12	229.10
812.43	229.11
812.75	229.09
813.07	229.04
813.39	229.01
813.71	228.97
814.03	228.91
814.35	228.90
814.67	228.82
814.98	228.79
815.30	228.78
815.62	228.77
815.94	228.66
816.26	228.69
816.58	228.64
816.89	228.61
817.21	228.58
817.53	228.55
817.85	228.54
818.17	228.53
818.48	228.46
818.80	228.44
819.12	228.41
819.44	228.40
819.76	228.35
820.07	228.33
820.39	228.30
820.71	228.28
821.03	228.28
821.34	228.27
821.66	228.26
821.98	228.23
822.30	228.19
822.61	228.20
822.93	228.10
823.25	228.12
823.57	228.07
823.88	228.06
824.20	228.04
824.52	228.05
824.83	228.02
825.15	227.99
825.47	228.01
825.79	228.01
826.10	227.94
826.42	227.95
826.74	227.93
827.05	227.95
827.37	227.93
827.69	227.91
828.00	227.87
828.32	227.86
828.64	227.84
828.95	227.89
829.27	227.89
829.58	227.89
829.90	227.89
830.22	227.90
830.53	227.88
830.85	227.87
831.17	227.81
831.48	227.81
831.80	227.83
832.11	227.79
832.43	227.78
832.75	227.83
833.06	227.87
833.38	227.85
833.69	227.82
834.01	227.79
834.32	227.78
834.64	227.77
834.96	227.73
835.27	227.70
835.59	227.63
835.90	227.57
836.22	227.61
836.53	227.55
836.85	227.53
837.16	227.62
837.48	227.63
837.79	227.65
838.11	227.63
838.42	227.62
838.74	227.62
839.05	227.63
839.37	227.61
839.68	227.54
840.00	227.56
840.31	227.58
840.63	227.59
840.94	227.55
841.26	227.56
841.57	227.61
841.88	227.65
842.20	227.64
842.51	227.67
842.83	227.66
843.14	227.75
843.46	227.75
843.77	227.67
844.08	227.64
844.40	227.63
844.71	227.64
845.03	227.64
845.34	227.63
845.65	227.57
845.97	227.56
846.28	227.57
846.60	227.56
846.91	227.55
847.22	227.55
847.54	227.63
847.85	227.63
848.16	227.59
848.48	227.53
848.79	227.57
849.10	227.56
849.42	227.55
849.73	227.50
850.04	227.50
850.36	227.48
850.67	227.50
850.98	227.51
851.30	227.50
851.61	227.51
851.92	227.48
852.23	227.54
852.55	227.55
852.86	227.54
853.17	227.53
853.49	227.55
853.80	227.58
854.11	227.55
854.42	227.54
854.74	227.54
855.05	227.56
855.36	227.53
855.67	227.51
855.99	227.53
856.30	227.61
856.61	227.59
856.92	227.59
857.23	227.60
857.55	227.56
857.86	227.55
858.17	227.56
858.48	227.55
858.79	227.51
859.11	227.53
859.42	227.51
859.73	227.50
860.04	227.49
860.35	227.44
860.66	227.41
860.98	227.39
861.29	227.38
861.60	227.35
861.91	227.34
862.22	227.31
862.53	227.26
862.84	227.15
863.16	227.17
863.47	227.14
863.78	227.10
864.09	227.13
864.40	227.13
864.71	227.11
865.02	227.12
865.33	227.10
865.64	227.09
865.95	227.12
866.27	227.18
866.58	227.15
866.89	227.15
867.20	227.14
867.51	227.14
867.82	227.16
868.13	227.22
868.44	227.19
868.75	227.25
869.06	227.27
869.37	227.26
869.68	227.23
869.99	227.24
870.30	227.25
870.61	227.26
870.92	227.25
871.23	227.24
871.54	227.22
871.85	227.27
872.16	227.25
872.47	227.22
872.78	227.18
873.09	227.19
873.40	227.18
873.71	227.17
874.02	227.17
874.33	227.16
874.64	227.13
874.95	227.17
875.26	227.10
875.56	227.11
875.87	227.13
876.18	227.11
876.49	227.18
876.80	227.18
877.11	227.12
877.42	227.14
877.73	227.16
878.04	227.16
878.35	227.12
878.66	227.12
878.96	227.12
879.27	227.08
879.58	227.08
879.89	227.04
880.20	227.07
880.51	227.08
880.82	227.06
881.12	227.06
881.43	227.02
881.74	227.03
882.05	226.98
882.36	226.98
882.67	226.99
882.97	226.93
883.28	226.92
883.59	226.93
883.90	226.92
884.21	226.90
884.51	226.89
884.82	226.89
885.13	226.91
885.44	226.88
885.74	226.90
886.05	226.91
886.36	226.94
886.67	226.94
886.98	226.96
887.28	226.98
887.59	226.99
887.90	227.01
888.20	227.01
888.51	227.04
888.82	227.03
889.13	227.02
889.43	227.07
889.74	227.07
890.05	227.07
890.35	227.10
890.66	227.08
890.97	227.09
891.28	227.10
891.58	227.08
891.89	227.11
892.20	227.10
892.50	227.09
892.81	227.10
893.12	227.10
893.42	227.07
893.73	227.06
894.04	227.07
894.34	227.08
894.65	227.06
894.95	227.04
895.26	227.04
895.57	227.11
895.87	227.03
896.18	227.01
896.48	227.01
896.79	227.01
897.10	227.01
897.40	227.03
897.71	226.99
898.01	226.97
898.32	226.95
898.63	226.93
898.93	226.91
899.24	226.90
899.54	226.88
899.85	226.87
900.15	226.87
900.46	226.83
900.76	226.81
901.07	226.85
901.38	226.84
901.68	226.85
901.99	226.77
902.29	226.79
902.60	226.81
902.90	226.76
903.21	226.75
903.51	226.73
903.82	226.72
904.12	226.73
904.43	226.75
904.73	226.76
905.03	226.77
905.34	226.87
905.64	226.88
905.95	226.88
906.25	226.86
906.56	226.87
906.86	226.88
907.17	226.90
907.47	226.88
907.77	226.86
908.08	226.86
908.38	226.87
908.69	226.89
908.99	226.91
909.30	226.93
909.60	226.91
909.90	226.93
910.21	226.94
910.51	226.94
910.81	226.97
911.12	226.97
911.42	226.98
911.73	226.86
912.03	226.85
912.33	226.89
912.64	226.91
912.94	226.91
913.24	226.90
913.55	226.86
913.85	226.87
914.15	226.91
914.46	226.89
914.76	226.89
915.06	226.88
915.37	226.87
915.67	226.86
915.97	226.90
916.27	226.90
916.58	226.90
916.88	226.91
917.18	226.91
917.49	226.96
917.79	226.98
918.09	227.05
918.39	227.04
918.70	227.01
919.00	227.01
919.30	227.06
919.60	227.05
919.91	227.07
920.21	227.06
920.51	227.01
920.81	227.04
921.12	227.06
921.42	227.04
921.72	227.06
922.02	227.06
922.32	227.05
922.63	227.08
922.93	227.12
923.23	227.10
923.53	227.07
923.83	227.00
924.13	227.01
924.44	226.99
924.74	227.04
925.04	227.07
925.34	227.08
925.64	227.03
925.94	227.03
926.24	227.05
926.55	227.04
926.85	227.11
927.15	227.10
927.45	227.09
927.75	227.10
928.05	227.07
928.35	227.09
928.65	227.10
928.95	227.08
929.26	227.02
929.56	227.05
929.86	227.07
930.16	227.07
930.46	227.03
930.76	227.02
931.06	226.97
931.36	226.95
931.66	226.95
931.96	226.95
932.26	226.96
932.56	226.92
932.86	226.91
933.16	226.90
933.46	226.85
933.76	226.83
934.06	226.82
934.36	226.85
934.66	226.83
934.96	226.80
935.26	226.84
935.56	226.85
935.86	226.80
936.16	226.80
936.46	226.78
936.76	226.78
937.06	226.75
937.36	226.74
937.66	226.72
937.96	226.71
938.26	226.67
938.56	226.64
938.86	226.64
939.16	226.68
939.46	226.67
939.76	226.68
940.06	226.64
940.35	226.62
940.65	226.60
940.95	226.62
941.25	226.60
941.55	226.56
941.85	226.56
942.15	226.58
942.45	226.57
942.75	226.58
943.04	226.56
943.34	226.56
943.64	226.53
943.94	226.51
944.24	226.49
944.54	226.52
944.84	226.52
945.13	226.52
945.43	226.48
945.73	226.45
946.03	226.45
946.33	226.48
946.62	226.49
946.92	226.46
947.22	226.44
947.52	226.46
947.82	226.46
948.11	226.45
948.41	226.39
948.71	226.35
949.01	226.35
949.31	226.37
949.60	226.36
949.90	226.39
950.20	226.38
950.50	226.38
950.79	226.36
951.09	226.39
951.39	226.40
951.69	226.39
951.98	226.43
952.28	226.47
952.58	226.43
952.87	226.43
953.17	226.48
953.47	226.47
953.76	226.45
954.06	226.44
954.36	226.42
954.66	226.46
954.95	226.53
955.25	226.53
955.55	226.53
955.84	226.53
956.14	226.57
956.44	226.59
956.73	226.60
957.03	226.64
957.32	226.64
957.62	226.65
957.92	226.71
958.21	226.69
958.51	226.79
958.81	226.84
959.10	226.87
959.40	226.88
959.69	226.92
959.99	226.98
960.29	227.01
960.58	227.02
960.88	227.07
961.17	227.06
961.47	227.12
961.76	227.12
962.06	227.13
962.36	227.11
962.65	227.14
962.95	227.16
963.24	227.15
963.54	227.14
963.83	227.13
964.13	227.10
964.42	227.10
964.72	227.00
965.01	227.02
965.31	227.03
965.60	227.00
965.90	227.03
966.19	227.00
966.49	227.01
966.78	227.04
967.08	227.02
967.37	227.00
967.67	226.95
967.96	226.97
968.26	226.98
968.55	227.01
968.85	226.99
969.14	226.98
969.43	226.95
969.73	226.93
970.02	226.90
970.32	226.90
970.61	226.89
970.91	226.87
971.20	226.86
971.49	226.80
971.79	226.83
972.08	226.74
972.38	226.71
972.67	226.69
972.96	226.63
973.26	226.63
973.55	226.65
973.85	226.63
974.14	226.62
974.43	226.61
974.73	226.56
975.02	226.55
975.31	226.56
975.61	226.57
975.90	226.57
976.19	226.58
976.49	226.59
976.78	226.57
977.07	226.55
977.37	226.54
977.66	226.54
977.95	226.47
978.24	226.51
978.54	226.54
978.83	226.52
979.12	226.55
979.42	226.51
979.71	226.46
980.00	226.48
980.29	226.48
980.59	226.48
980.88	226.53
981.17	226.51
981.46	226.51
981.76	226.51
982.05	226.56
982.34	226.54
982.63	226.51
982.93	226.53
983.22	226.56
983.51	226.55
983.80	226.55
984.09	226.57
984.39	226.56
984.68	226.51
984.97	226.51
985.26	226.50
985.55	226.53
985.85	226.54
986.14	226.53
986.43	226.54
986.72	226.49
987.01	226.46
987.30	226.46
987.59	226.46
987.89	226.45
988.18	226.38
988.47	226.38
988.76	226.39
989.05	226.39
989.34	226.40
989.63	226.42
989.92	226.42
990.22	226.44
990.51	226.43
990.80	226.44
991.09	226.45
991.38	226.46
991.67	226.45
991.96	226.45
992.25	226.45
992.54	226.44
992.83	226.47
993.12	226.45
993.41	226.48
993.70	226.48
993.99	226.51
994.28	226.53
994.58	226.54
994.87	226.54
995.16	226.53
995.45	226.51
995.74	226.50
996.03	226.51
996.32	226.53
996.61	226.55
996.90	226.54
997.19	226.54
997.48	226.51
997.77	226.48
998.06	226.48
998.34	226.51
998.63	226.53
998.92	226.52
999.21	226.53
999.50	226.53
999.79	226.52
1000.08	226.50
1000.37	226.54
1000.66	226.53
1000.95	226.55
1001.24	226.56
1001.53	226.57
1001.82	226.59
1002.11	226.57
1002.40	226.58
1002.68	226.57
1002.97	226.66
1003.26	226.67
1003.55	226.68
1003.84	226.72
1004.13	226.77
1004.42	226.71
1004.71	226.71
1004.99	226.69
1005.28	226.69
1005.57	226.70
1005.86	226.68
1006.15	226.69
1006.44	226.65
1006.72	226.66
1007.01	226.65
1007.30	226.64
1007.59	226.63
1007.88	226.59
1008.17	226.58
1008.45	226.53
1008.74	226.54
1009.03	226.46
1009.32	226.42
1009.60	226.45
1009.89	226.44
1010.18	226.38
1010.47	226.39
1010.76	226.35
1011.04	226.35
1011.33	226.38
1011.62	226.36
1011.91	226.37
1012.19	226.34
1012.48	226.36
1012.77	226.34
1013.05	226.38
1013.34	226.38
1013.63	226.36
1013.92	226.36
1014.20	226.37
1014.49	226.36
1014.78	226.34
1015.06	226.32
1015.35	226.34
1015.64	226.30
1015.92	226.28
1016.21	226.29
1016.50	226.32
1016.78	226.32
1017.07	226.33
1017.36	226.29
1017.64	226.28
1017.93	226.31
1018.22	226.28
1018.50	226.26
1018.79	226.28
1019.08	226.22
1019.36	226.23
1019.65	226.23
1019.93	226.27
1020.22	226.28
1020.51	226.34
1020.79	226.37
1021.08	225.57
1021.36	226.19
1021.65	226.55
1021.94	226.15
1022.22	226.68
1022.51	226.10
1022.79	226.83
1023.08	226.52
1023.36	227.43
1023.65	226.64
>>>>>End Processed Spectral Data<<<<<
