SpectraSuite Data File
++++++++++++++++++++++++++++++++++++
Date: Fri Feb 01 17:40:55 EST 2013
User: group
Dark Spectrum Present: No
Reference Spectrum Present: No
Number of Sampled Component Spectra: 1
Spectrometers: USB2E7196
Integration Time (usec): 35000 (USB2E7196)
Spectra Averaged: 100 (USB2E7196)
Boxcar Smoothing: 10 (USB2E7196)
Correct for Electrical Dark: No (USB2E7196)
Strobe/Lamp Enabled: No (USB2E7196)
Correct for Detector Non-linearity: No (USB2E7196)
Correct for Stray Light: No (USB2E7196)
Number of Pixels in Processed Spectrum: 2048
>>>>>Begin Processed Spectral Data<<<<<
339.09	0.00
339.48	212.67
339.86	213.97
340.24	215.99
340.63	217.42
341.01	220.04
341.39	219.39
341.78	220.57
342.16	221.96
342.54	222.44
342.93	211.16
343.31	221.83
343.69	222.38
344.07	222.85
344.46	223.24
344.84	223.61
345.22	223.84
345.60	224.08
345.99	224.31
346.37	224.44
346.75	224.55
347.13	224.63
347.52	224.64
347.90	224.70
348.28	224.73
348.66	224.80
349.05	224.79
349.43	224.83
349.81	224.87
350.19	224.89
350.57	224.90
350.96	224.94
351.34	225.05
351.72	225.13
352.10	225.23
352.48	225.31
352.87	225.35
353.25	225.41
353.63	225.49
354.01	225.54
354.39	225.61
354.77	225.69
355.15	225.78
355.54	225.87
355.92	225.92
356.30	226.01
356.68	226.14
357.06	226.22
357.44	226.27
357.82	226.32
358.20	226.43
358.58	226.49
358.97	226.60
359.35	226.66
359.73	226.74
360.11	226.77
360.49	226.83
360.87	226.86
361.25	226.91
361.63	226.95
362.01	226.99
362.39	227.05
362.77	227.09
363.15	227.12
363.53	227.18
363.91	227.21
364.29	227.24
364.67	227.14
365.05	227.14
365.43	227.15
365.81	227.20
366.19	227.22
366.57	227.29
366.95	227.26
367.33	227.22
367.71	227.23
368.09	227.24
368.47	227.24
368.85	227.22
369.23	227.23
369.61	227.20
369.99	227.20
370.37	227.15
370.75	227.15
371.13	227.08
371.51	227.03
371.89	227.01
372.27	226.98
372.65	226.97
373.03	226.93
373.41	226.89
373.78	226.81
374.16	226.69
374.54	226.59
374.92	226.56
375.30	226.50
375.68	226.40
376.06	226.34
376.44	226.27
376.82	226.25
377.19	226.17
377.57	226.12
377.95	226.05
378.33	226.00
378.71	225.90
379.09	225.88
379.47	225.85
379.84	225.77
380.22	225.67
380.60	225.59
380.98	225.54
381.36	225.50
381.73	225.42
382.11	225.44
382.49	225.41
382.87	225.34
383.25	225.33
383.62	225.39
384.00	225.33
384.38	225.29
384.76	225.28
385.13	225.28
385.51	225.22
385.89	225.16
386.27	225.12
386.64	225.09
387.02	225.01
387.40	224.93
387.78	224.88
388.15	224.87
388.53	224.86
388.91	224.82
389.29	224.77
389.66	224.78
390.04	224.72
390.42	224.72
390.79	224.70
391.17	224.66
391.55	224.54
391.92	224.50
392.30	224.50
392.68	224.45
393.05	224.43
393.43	224.44
393.81	224.46
394.18	224.46
394.56	224.50
394.94	224.53
395.31	224.54
395.69	224.59
396.06	224.62
396.44	224.64
396.82	224.67
397.19	224.78
397.57	224.79
397.95	224.85
398.32	224.88
398.70	224.95
399.07	225.02
399.45	225.08
399.82	225.17
400.20	225.25
400.58	225.31
400.95	225.34
401.33	225.43
401.70	225.56
402.08	225.63
402.45	225.73
402.83	225.83
403.20	225.94
403.58	226.02
403.95	226.14
404.33	226.29
404.71	226.41
405.08	226.58
405.46	226.72
405.83	226.87
406.21	227.00
406.58	227.18
406.96	227.34
407.33	227.56
407.70	227.75
408.08	227.98
408.45	228.21
408.83	228.46
409.20	228.67
409.58	228.86
409.95	229.14
410.33	229.43
410.70	229.72
411.08	230.05
411.45	230.40
411.82	230.74
412.20	231.13
412.57	231.59
412.95	231.87
413.32	232.31
413.69	232.75
414.07	233.25
414.44	233.75
414.82	234.23
415.19	234.84
415.56	235.45
415.94	236.07
416.31	236.81
416.68	237.51
417.06	238.30
417.43	239.12
417.81	239.97
418.18	240.80
418.55	241.70
418.93	242.65
419.30	243.61
419.67	244.65
420.04	245.71
420.42	246.79
420.79	248.12
421.16	249.45
421.54	250.77
421.91	252.11
422.28	253.55
422.66	255.07
423.03	256.48
423.40	257.96
423.77	259.55
424.15	261.12
424.52	262.80
424.89	264.64
425.26	266.36
425.64	267.99
426.01	269.76
426.38	271.64
426.75	273.53
427.13	275.50
427.50	277.49
427.87	279.53
428.24	281.62
428.61	283.57
428.99	285.71
429.36	288.07
429.73	290.38
430.10	292.63
430.47	294.93
430.85	297.29
431.22	299.81
431.59	302.49
431.96	304.96
432.33	307.72
432.70	310.30
433.08	313.41
433.45	316.30
433.82	319.21
434.19	322.40
434.56	325.51
434.93	328.48
435.30	331.43
435.68	334.71
436.05	337.86
436.42	340.94
436.79	343.78
437.16	346.84
437.53	349.98
437.90	353.10
438.27	356.16
438.64	359.29
439.01	362.14
439.38	364.55
439.75	367.02
440.13	369.80
440.50	372.46
440.87	374.55
441.24	376.71
441.61	379.15
441.98	380.82
442.35	382.87
442.72	384.94
443.09	386.99
443.46	388.13
443.83	388.82
444.20	389.46
444.57	390.35
444.94	390.60
445.31	391.01
445.68	391.42
446.05	391.54
446.42	391.14
446.79	390.76
447.16	390.35
447.53	389.95
447.90	388.66
448.27	387.39
448.64	385.65
449.01	384.44
449.37	382.29
449.74	380.22
450.11	377.71
450.48	374.96
450.85	372.09
451.22	369.68
451.59	367.43
451.96	365.28
452.33	362.40
452.70	359.82
453.07	356.68
453.43	353.45
453.80	350.35
454.17	347.40
454.54	344.51
454.91	341.47
455.28	338.50
455.65	335.73
456.02	332.97
456.38	330.52
456.75	327.51
457.12	324.97
457.49	322.45
457.86	320.01
458.23	317.97
458.59	315.70
458.96	313.37
459.33	311.29
459.70	309.17
460.07	307.47
460.43	305.53
460.80	303.69
461.17	302.10
461.54	300.43
461.91	298.82
462.27	297.24
462.64	295.79
463.01	294.29
463.38	292.84
463.74	291.32
464.11	290.02
464.48	288.91
464.85	287.70
465.21	286.72
465.58	285.69
465.95	284.44
466.32	283.45
466.68	282.44
467.05	281.42
467.42	280.44
467.78	279.42
468.15	278.43
468.52	277.70
468.88	276.71
469.25	275.82
469.62	275.13
469.98	274.38
470.35	273.70
470.72	273.05
471.08	272.33
471.45	271.74
471.82	271.15
472.18	270.49
472.55	269.94
472.92	269.37
473.28	268.84
473.65	268.31
474.02	267.82
474.38	267.40
474.75	267.04
475.11	266.64
475.48	266.33
475.85	266.11
476.21	265.84
476.58	265.62
476.94	265.45
477.31	265.24
477.67	265.03
478.04	264.88
478.41	264.78
478.77	264.77
479.14	264.68
479.50	264.68
479.87	264.73
480.23	264.79
480.60	264.83
480.96	264.91
481.33	265.13
481.69	265.30
482.06	265.45
482.42	265.64
482.79	265.85
483.15	266.13
483.52	266.48
483.88	266.80
484.25	267.15
484.61	267.58
484.98	268.01
485.34	268.58
485.71	269.13
486.07	269.68
486.44	270.21
486.80	270.92
487.17	271.60
487.53	272.37
487.90	273.20
488.26	274.15
488.62	275.13
488.99	276.10
489.35	277.11
489.72	278.29
490.08	279.46
490.44	280.68
490.81	282.03
491.17	283.35
491.54	284.83
491.90	286.39
492.26	288.04
492.63	289.79
492.99	291.58
493.36	293.49
493.72	295.57
494.08	297.70
494.45	299.94
494.81	302.31
495.17	304.75
495.54	307.33
495.90	310.00
496.26	312.81
496.63	315.77
496.99	318.92
497.35	322.16
497.72	325.58
498.08	329.13
498.44	332.80
498.80	336.72
499.17	340.79
499.53	344.96
499.89	349.34
500.26	353.85
500.62	358.53
500.98	363.50
501.34	368.60
501.71	373.92
502.07	379.40
502.43	384.98
502.79	390.80
503.16	396.89
503.52	403.20
503.88	409.60
504.24	416.23
504.60	423.14
504.97	430.25
505.33	437.57
505.69	445.34
506.05	453.18
506.41	461.06
506.78	469.19
507.14	477.63
507.50	486.33
507.86	495.34
508.22	504.55
508.59	513.81
508.95	523.32
509.31	533.12
509.67	543.18
510.03	553.47
510.39	564.03
510.75	574.79
511.12	585.63
511.48	596.91
511.84	608.37
512.20	619.88
512.56	631.79
512.92	643.90
513.28	656.26
513.64	668.64
514.00	681.32
514.37	694.25
514.73	707.28
515.09	720.20
515.45	733.42
515.81	747.00
516.17	760.93
516.53	775.03
516.89	789.21
517.25	803.36
517.61	817.79
517.97	832.24
518.33	846.68
518.69	861.50
519.05	876.48
519.41	891.65
519.77	907.03
520.13	922.54
520.49	937.96
520.85	953.22
521.21	968.87
521.57	985.09
521.93	1000.89
522.29	1017.18
522.65	1033.47
523.01	1049.73
523.37	1065.79
523.73	1081.90
524.09	1098.10
524.45	1114.38
524.81	1131.01
525.17	1147.73
525.53	1164.54
525.89	1181.36
526.25	1198.28
526.61	1214.74
526.97	1231.48
527.33	1248.11
527.68	1264.66
528.04	1281.29
528.40	1297.90
528.76	1315.18
529.12	1331.95
529.48	1348.90
529.84	1365.15
530.20	1381.91
530.56	1398.96
530.91	1416.40
531.27	1433.43
531.63	1450.06
531.99	1466.81
532.35	1483.11
532.71	1499.35
533.07	1515.96
533.42	1532.14
533.78	1548.39
534.14	1564.76
534.50	1580.44
534.86	1596.52
535.21	1612.14
535.57	1628.29
535.93	1644.08
536.29	1659.11
536.65	1674.40
537.00	1689.50
537.36	1705.08
537.72	1719.86
538.08	1734.63
538.44	1748.69
538.79	1762.98
539.15	1776.95
539.51	1790.92
539.87	1805.47
540.22	1819.35
540.58	1833.34
540.94	1846.78
541.29	1859.92
541.65	1873.00
542.01	1886.49
542.37	1899.26
542.72	1912.01
543.08	1924.39
543.44	1937.37
543.79	1949.20
544.15	1960.79
544.51	1972.82
544.87	1984.21
545.22	1995.69
545.58	2006.48
545.94	2016.99
546.29	2027.41
546.65	2037.97
547.01	2047.94
547.36	2057.39
547.72	2066.70
548.07	2075.54
548.43	2084.51
548.79	2093.02
549.14	2101.48
549.50	2109.46
549.86	2117.57
550.21	2125.47
550.57	2133.15
550.92	2140.37
551.28	2148.02
551.64	2155.53
551.99	2162.62
552.35	2169.67
552.70	2176.41
553.06	2183.08
553.41	2190.07
553.77	2196.53
554.13	2203.17
554.48	2210.04
554.84	2216.32
555.19	2222.10
555.55	2227.75
555.90	2232.99
556.26	2238.97
556.61	2244.10
556.97	2249.23
557.32	2254.29
557.68	2259.14
558.03	2263.95
558.39	2268.17
558.74	2273.37
559.10	2278.02
559.45	2282.41
559.81	2287.05
560.16	2291.58
560.52	2295.59
560.87	2299.49
561.23	2302.91
561.58	2306.28
561.94	2309.47
562.29	2312.05
562.64	2315.73
563.00	2318.93
563.35	2323.08
563.71	2326.81
564.06	2330.55
564.42	2333.98
564.77	2337.26
565.12	2340.30
565.48	2342.99
565.83	2345.63
566.19	2347.76
566.54	2349.03
566.89	2351.08
567.25	2352.55
567.60	2354.42
567.96	2356.76
568.31	2358.29
568.66	2359.97
569.02	2361.29
569.37	2362.16
569.72	2363.91
570.08	2364.39
570.43	2364.83
570.78	2364.80
571.14	2363.63
571.49	2362.88
571.84	2362.83
572.20	2362.06
572.55	2361.46
572.90	2360.23
573.26	2359.34
573.61	2357.80
573.96	2356.82
574.31	2354.19
574.67	2351.39
575.02	2348.12
575.37	2344.81
575.72	2341.48
576.08	2338.29
576.43	2335.09
576.78	2331.89
577.13	2328.77
577.49	2325.95
577.84	2322.88
578.19	2319.22
578.54	2316.09
578.90	2312.52
579.25	2307.50
579.60	2302.83
579.95	2298.22
580.30	2293.39
580.66	2288.41
581.01	2283.73
581.36	2278.86
581.71	2274.98
582.06	2271.02
582.42	2266.90
582.77	2262.06
583.12	2257.61
583.47	2253.45
583.82	2248.78
584.17	2243.77
584.53	2238.55
584.88	2233.17
585.23	2227.65
585.58	2222.39
585.93	2216.95
586.28	2211.75
586.63	2206.71
586.98	2201.65
587.34	2196.76
587.69	2192.06
588.04	2187.11
588.39	2181.63
588.74	2175.14
589.09	2168.88
589.44	2162.08
589.79	2155.78
590.14	2149.96
590.49	2143.37
590.84	2136.75
591.19	2130.68
591.54	2123.96
591.89	2116.70
592.25	2109.92
592.60	2102.51
592.95	2094.95
593.30	2087.54
593.65	2080.01
594.00	2072.85
594.35	2065.63
594.70	2057.41
595.05	2050.26
595.40	2042.66
595.75	2034.95
596.10	2029.04
596.45	2022.20
596.80	2015.94
597.15	2009.38
597.50	2002.50
597.85	1995.74
598.19	1989.01
598.54	1982.14
598.89	1975.45
599.24	1969.33
599.59	1962.70
599.94	1956.24
600.29	1949.77
600.64	1942.83
600.99	1935.25
601.34	1928.34
601.69	1920.92
602.04	1914.12
602.39	1906.41
602.74	1899.39
603.08	1892.57
603.43	1885.26
603.78	1877.69
604.13	1870.25
604.48	1862.84
604.83	1855.68
605.18	1848.83
605.53	1840.68
605.87	1832.13
606.22	1824.58
606.57	1816.29
606.92	1808.31
607.27	1801.01
607.62	1793.91
607.96	1786.59
608.31	1779.88
608.66	1772.08
609.01	1764.45
609.36	1756.66
609.70	1748.37
610.05	1740.05
610.40	1731.96
610.75	1723.57
611.10	1715.71
611.44	1706.83
611.79	1698.25
612.14	1689.07
612.49	1679.44
612.83	1670.66
613.18	1662.13
613.53	1653.80
613.88	1644.93
614.22	1636.27
614.57	1627.36
614.92	1618.84
615.27	1611.02
615.61	1602.43
615.96	1593.92
616.31	1585.84
616.65	1577.90
617.00	1569.98
617.35	1561.96
617.70	1553.28
618.04	1544.26
618.39	1535.31
618.74	1527.44
619.08	1518.86
619.43	1511.12
619.78	1503.74
620.12	1496.27
620.47	1488.41
620.82	1479.69
621.16	1471.71
621.51	1463.75
621.85	1455.55
622.20	1446.73
622.55	1437.76
622.89	1429.40
623.24	1421.36
623.59	1413.45
623.93	1405.56
624.28	1397.83
624.62	1389.98
624.97	1382.40
625.32	1375.07
625.66	1367.69
626.01	1360.15
626.35	1352.51
626.70	1344.17
627.04	1336.14
627.39	1327.83
627.73	1320.01
628.08	1312.70
628.43	1305.27
628.77	1297.68
629.12	1289.86
629.46	1282.24
629.81	1274.24
630.15	1266.36
630.50	1258.53
630.84	1250.06
631.19	1241.64
631.53	1233.71
631.88	1225.60
632.22	1217.60
632.57	1209.99
632.91	1202.09
633.26	1194.32
633.60	1186.41
633.95	1178.81
634.29	1171.21
634.64	1164.12
634.98	1156.44
635.32	1148.97
635.67	1141.87
636.01	1134.72
636.36	1127.68
636.70	1120.81
637.05	1114.02
637.39	1107.42
637.73	1100.69
638.08	1094.47
638.42	1088.22
638.77	1081.55
639.11	1074.80
639.45	1068.16
639.80	1061.31
640.14	1054.69
640.49	1047.81
640.83	1041.22
641.17	1034.86
641.52	1028.34
641.86	1021.61
642.20	1015.49
642.55	1008.80
642.89	1002.07
643.23	995.23
643.58	989.12
643.92	982.68
644.26	976.46
644.61	970.12
644.95	963.82
645.29	957.02
645.64	950.02
645.98	943.36
646.32	936.97
646.66	930.64
647.01	924.45
647.35	918.56
647.69	912.36
648.04	906.54
648.38	900.48
648.72	894.33
649.06	888.09
649.41	881.79
649.75	875.65
650.09	869.48
650.43	863.43
650.78	856.92
651.12	850.66
651.46	844.59
651.80	838.66
652.14	832.90
652.49	827.30
652.83	821.85
653.17	816.05
653.51	810.26
653.85	804.51
654.20	798.71
654.54	792.42
654.88	786.46
655.22	780.28
655.56	774.25
655.90	768.48
656.25	762.97
656.59	757.51
656.93	752.15
657.27	746.81
657.61	741.13
657.95	735.92
658.29	730.63
658.64	725.13
658.98	719.50
659.32	713.87
659.66	708.45
660.00	703.03
660.34	697.78
660.68	692.65
661.02	687.42
661.36	682.54
661.70	677.87
662.05	673.30
662.39	668.93
662.73	664.35
663.07	659.73
663.41	655.13
663.75	650.43
664.09	645.67
664.43	641.09
664.77	636.89
665.11	632.41
665.45	628.06
665.79	623.82
666.13	619.64
666.47	615.41
666.81	611.06
667.15	606.71
667.49	602.59
667.83	598.49
668.17	594.43
668.51	590.17
668.85	585.92
669.19	581.83
669.53	577.76
669.87	573.76
670.21	570.02
670.55	566.16
670.89	562.57
671.23	559.03
671.57	555.30
671.91	551.62
672.25	547.95
672.58	544.36
672.92	540.81
673.26	537.43
673.60	534.10
673.94	530.87
674.28	527.82
674.62	524.84
674.96	521.71
675.30	518.68
675.64	515.65
675.97	512.77
676.31	509.87
676.65	506.77
676.99	503.93
677.33	500.86
677.67	497.90
678.01	494.76
678.34	491.70
678.68	488.65
679.02	485.72
679.36	482.84
679.70	479.96
680.04	477.05
680.37	474.12
680.71	471.21
681.05	468.50
681.39	465.70
681.73	462.86
682.06	460.27
682.40	457.65
682.74	454.97
683.08	452.26
683.42	449.50
683.75	446.92
684.09	444.16
684.43	441.59
684.77	439.01
685.10	436.56
685.44	434.04
685.78	431.73
686.12	429.32
686.45	426.91
686.79	424.54
687.13	422.28
687.46	420.01
687.80	417.68
688.14	415.26
688.48	413.08
688.81	410.81
689.15	408.50
689.49	406.16
689.82	403.98
690.16	401.74
690.50	399.70
690.83	397.67
691.17	395.61
691.51	393.58
691.84	391.65
692.18	389.64
692.52	387.67
692.85	385.58
693.19	383.60
693.52	381.63
693.86	379.71
694.20	377.80
694.53	375.89
694.87	373.99
695.21	372.16
695.54	370.18
695.88	368.27
696.21	366.45
696.55	364.72
696.88	362.93
697.22	361.19
697.56	359.42
697.89	357.65
698.23	356.03
698.56	354.34
698.90	352.68
699.23	350.95
699.57	349.30
699.90	347.65
700.24	346.03
700.58	344.42
700.91	342.89
701.25	341.37
701.58	339.92
701.92	338.45
702.25	336.96
702.59	335.56
702.92	334.17
703.26	332.76
703.59	331.41
703.93	330.18
704.26	328.93
704.60	327.59
704.93	326.27
705.26	324.91
705.60	323.65
705.93	322.39
706.27	321.30
706.60	320.17
706.94	319.05
707.27	317.86
707.61	316.71
707.94	315.58
708.27	314.42
708.61	313.22
708.94	312.18
709.28	311.18
709.61	310.10
709.94	309.10
710.28	308.05
710.61	306.97
710.95	305.80
711.28	304.82
711.61	303.82
711.95	302.82
712.28	301.84
712.61	300.84
712.95	299.85
713.28	298.90
713.61	297.89
713.95	296.99
714.28	296.10
714.61	295.20
714.95	294.29
715.28	293.41
715.61	292.54
715.95	291.64
716.28	290.74
716.61	289.89
716.95	289.03
717.28	288.26
717.61	287.51
717.94	286.71
718.28	285.84
718.61	285.09
718.94	284.35
719.27	283.69
719.61	283.04
719.94	282.36
720.27	281.61
720.60	280.94
720.94	280.25
721.27	279.59
721.60	278.98
721.93	278.37
722.27	277.79
722.60	277.22
722.93	276.64
723.26	276.05
723.59	275.49
723.93	274.92
724.26	274.30
724.59	273.68
724.92	273.14
725.25	272.64
725.59	272.08
725.92	271.56
726.25	270.98
726.58	270.42
726.91	269.89
727.24	269.42
727.57	268.94
727.91	268.38
728.24	267.91
728.57	267.37
728.90	266.89
729.23	266.37
729.56	265.90
729.89	265.36
730.22	264.85
730.55	264.33
730.89	263.85
731.22	263.43
731.55	262.97
731.88	262.51
732.21	262.05
732.54	261.63
732.87	261.18
733.20	260.76
733.53	260.35
733.86	259.93
734.19	259.49
734.52	259.07
734.85	258.72
735.18	258.30
735.51	257.94
735.84	257.49
736.17	257.12
736.50	256.65
736.83	256.43
737.16	256.07
737.49	255.74
737.82	255.39
738.15	255.00
738.48	254.61
738.81	254.24
739.14	253.88
739.47	253.54
739.80	253.20
740.13	252.88
740.46	252.51
740.79	252.21
741.12	251.86
741.45	251.53
741.78	251.18
742.11	250.87
742.44	250.53
742.77	250.25
743.10	249.91
743.43	249.63
743.75	249.19
744.08	249.03
744.41	248.75
744.74	248.48
745.07	248.17
745.40	247.91
745.73	247.68
746.06	247.39
746.39	247.10
746.71	246.81
747.04	246.50
747.37	246.25
747.70	245.97
748.03	245.70
748.36	245.45
748.68	245.21
749.01	244.96
749.34	244.71
749.67	244.47
750.00	244.27
750.33	244.09
750.65	243.86
750.98	243.51
751.31	243.27
751.64	242.98
751.97	242.82
752.29	242.61
752.62	242.35
752.95	242.10
753.28	241.86
753.60	241.65
753.93	241.46
754.26	241.24
754.59	241.02
754.91	240.82
755.24	240.61
755.57	240.41
755.90	240.18
756.22	240.02
756.55	239.79
756.88	239.58
757.20	239.33
757.53	239.12
757.86	238.95
758.19	238.79
758.51	238.66
758.84	238.45
759.17	238.27
759.49	238.14
759.82	238.04
760.15	237.91
760.47	237.76
760.80	237.58
761.13	237.49
761.45	237.31
761.78	237.18
762.11	237.04
762.43	236.86
762.76	236.77
763.08	236.60
763.41	236.50
763.74	236.36
764.06	236.20
764.39	236.08
764.71	235.97
765.04	235.81
765.37	235.64
765.69	235.54
766.02	235.40
766.34	235.26
766.67	235.09
767.00	234.99
767.32	234.92
767.65	234.87
767.97	234.72
768.30	234.62
768.62	234.48
768.95	234.38
769.27	234.33
769.60	234.22
769.92	234.09
770.25	233.96
770.57	233.84
770.90	233.73
771.22	233.65
771.55	233.53
771.87	233.42
772.20	233.34
772.52	233.29
772.85	233.31
773.17	233.22
773.50	233.13
773.82	233.01
774.15	232.85
774.47	232.70
774.80	232.60
775.12	232.48
775.45	232.38
775.77	232.26
776.09	232.14
776.42	232.02
776.74	231.97
777.07	231.89
777.39	231.79
777.72	231.71
778.04	231.61
778.36	231.51
778.69	231.46
779.01	231.39
779.33	231.26
779.66	231.08
779.98	230.99
780.31	230.94
780.63	230.90
780.95	230.89
781.28	230.82
781.60	230.75
781.92	230.72
782.25	230.64
782.57	230.56
782.89	230.49
783.22	230.42
783.54	230.32
783.86	230.28
784.19	230.22
784.51	230.19
784.83	230.11
785.16	230.05
785.48	229.96
785.80	229.89
786.12	229.81
786.45	229.75
786.77	229.68
787.09	229.63
787.42	229.51
787.74	229.43
788.06	229.38
788.38	229.30
788.71	229.24
789.03	229.23
789.35	229.22
789.67	229.17
789.99	229.15
790.32	229.12
790.64	229.05
790.96	229.12
791.28	229.06
791.61	229.03
791.93	228.99
792.25	228.95
792.57	229.01
792.89	228.93
793.21	228.89
793.54	228.85
793.86	228.79
794.18	228.78
794.50	228.74
794.82	228.71
795.14	228.72
795.47	228.70
795.79	228.66
796.11	228.59
796.43	228.53
796.75	228.47
797.07	228.43
797.39	228.39
797.71	228.26
798.04	228.22
798.36	228.19
798.68	228.16
799.00	228.17
799.32	228.08
799.64	228.10
799.96	228.07
800.28	228.06
800.60	228.04
800.92	228.02
801.24	227.96
801.56	227.92
801.89	227.87
802.21	227.84
802.53	227.78
802.85	227.80
803.17	227.84
803.49	227.81
803.81	227.78
804.13	227.75
804.45	227.74
804.77	227.73
805.09	227.72
805.41	227.68
805.73	227.61
806.05	227.54
806.37	227.53
806.69	227.50
807.01	227.48
807.33	227.41
807.65	227.38
807.97	227.41
808.28	227.39
808.60	227.38
808.92	227.35
809.24	227.44
809.56	227.36
809.88	227.32
810.20	227.28
810.52	227.27
810.84	227.27
811.16	227.22
811.48	227.20
811.80	227.21
812.12	227.19
812.43	227.15
812.75	227.16
813.07	227.11
813.39	227.10
813.71	227.04
814.03	227.04
814.35	227.00
814.67	226.95
814.98	226.91
815.30	226.88
815.62	226.81
815.94	226.74
816.26	226.80
816.58	226.74
816.89	226.74
817.21	226.73
817.53	226.72
817.85	226.73
818.17	226.70
818.48	226.65
818.80	226.66
819.12	226.69
819.44	226.65
819.76	226.61
820.07	226.58
820.39	226.57
820.71	226.54
821.03	226.55
821.34	226.53
821.66	226.51
821.98	226.49
822.30	226.50
822.61	226.53
822.93	226.47
823.25	226.45
823.57	226.42
823.88	226.41
824.20	226.36
824.52	226.37
824.83	226.38
825.15	226.34
825.47	226.32
825.79	226.31
826.10	226.28
826.42	226.30
826.74	226.29
827.05	226.28
827.37	226.29
827.69	226.26
828.00	226.26
828.32	226.27
828.64	226.25
828.95	226.29
829.27	226.23
829.58	226.21
829.90	226.23
830.22	226.23
830.53	226.20
830.85	226.22
831.17	226.18
831.48	226.13
831.80	226.12
832.11	226.11
832.43	226.10
832.75	226.09
833.06	226.11
833.38	226.08
833.69	226.07
834.01	226.04
834.32	226.03
834.64	226.02
834.96	226.02
835.27	226.03
835.59	225.99
835.90	225.98
836.22	225.97
836.53	225.93
836.85	225.92
837.16	226.02
837.48	225.98
837.79	225.97
838.11	225.95
838.42	225.96
838.74	225.92
839.05	225.88
839.37	225.88
839.68	225.83
840.00	225.82
840.31	225.80
840.63	225.80
840.94	225.76
841.26	225.75
841.57	225.73
841.88	225.70
842.20	225.71
842.51	225.68
842.83	225.66
843.14	225.71
843.46	225.71
843.77	225.64
844.08	225.62
844.40	225.61
844.71	225.59
845.03	225.58
845.34	225.58
845.65	225.54
845.97	225.54
846.28	225.53
846.60	225.55
846.91	225.56
847.22	225.55
847.54	225.57
847.85	225.54
848.16	225.50
848.48	225.46
848.79	225.47
849.10	225.47
849.42	225.44
849.73	225.36
850.04	225.34
850.36	225.30
850.67	225.33
850.98	225.33
851.30	225.33
851.61	225.33
851.92	225.31
852.23	225.36
852.55	225.31
852.86	225.31
853.17	225.32
853.49	225.32
853.80	225.35
854.11	225.35
854.42	225.37
854.74	225.38
855.05	225.40
855.36	225.33
855.67	225.33
855.99	225.37
856.30	225.47
856.61	225.46
856.92	225.47
857.23	225.44
857.55	225.42
857.86	225.45
858.17	225.44
858.48	225.42
858.79	225.38
859.11	225.44
859.42	225.44
859.73	225.42
860.04	225.44
860.35	225.39
860.66	225.38
860.98	225.39
861.29	225.36
861.60	225.36
861.91	225.38
862.22	225.39
862.53	225.36
862.84	225.27
863.16	225.30
863.47	225.27
863.78	225.28
864.09	225.29
864.40	225.24
864.71	225.25
865.02	225.24
865.33	225.23
865.64	225.16
865.95	225.15
866.27	225.19
866.58	225.15
866.89	225.16
867.20	225.16
867.51	225.10
867.82	225.15
868.13	225.18
868.44	225.17
868.75	225.13
869.06	225.14
869.37	225.10
869.68	225.06
869.99	225.08
870.30	225.07
870.61	225.07
870.92	225.06
871.23	225.07
871.54	225.11
871.85	225.16
872.16	225.22
872.47	225.21
872.78	225.17
873.09	225.20
873.40	225.19
873.71	225.18
874.02	225.19
874.33	225.13
874.64	225.10
874.95	225.10
875.26	225.10
875.56	225.09
875.87	225.14
876.18	225.12
876.49	225.22
876.80	225.20
877.11	225.17
877.42	225.18
877.73	225.18
878.04	225.18
878.35	225.15
878.66	225.10
878.96	225.09
879.27	225.09
879.58	225.09
879.89	225.10
880.20	225.13
880.51	225.15
880.82	225.19
881.12	225.18
881.43	225.17
881.74	225.17
882.05	225.15
882.36	225.14
882.67	225.17
882.97	225.05
883.28	225.07
883.59	225.06
883.90	225.06
884.21	225.05
884.51	225.04
884.82	225.01
885.13	225.02
885.44	225.00
885.74	225.00
886.05	224.95
886.36	224.96
886.67	224.92
886.98	224.98
887.28	224.98
887.59	224.97
887.90	224.96
888.20	224.96
888.51	225.00
888.82	224.97
889.13	224.97
889.43	225.06
889.74	225.03
890.05	225.06
890.35	225.06
890.66	225.06
890.97	225.06
891.28	225.09
891.58	225.09
891.89	225.11
892.20	225.08
892.50	225.08
892.81	225.05
893.12	225.04
893.42	224.96
893.73	224.97
894.04	224.98
894.34	224.98
894.65	224.98
894.95	224.96
895.26	224.97
895.57	225.01
895.87	224.88
896.18	224.93
896.48	224.95
896.79	224.95
897.10	224.95
897.40	224.94
897.71	224.92
898.01	224.90
898.32	224.91
898.63	224.91
898.93	224.93
899.24	224.94
899.54	224.93
899.85	224.93
900.15	224.90
900.46	224.88
900.76	224.93
901.07	224.92
901.38	224.90
901.68	224.91
901.99	224.87
902.29	224.88
902.60	224.84
902.90	224.81
903.21	224.79
903.51	224.79
903.82	224.80
904.12	224.83
904.43	224.86
904.73	224.82
905.03	224.80
905.34	224.88
905.64	224.86
905.95	224.87
906.25	224.87
906.56	224.88
906.86	224.87
907.17	224.84
907.47	224.85
907.77	224.86
908.08	224.85
908.38	224.84
908.69	224.88
908.99	224.93
909.30	224.95
909.60	224.95
909.90	224.94
910.21	224.90
910.51	224.86
910.81	224.87
911.12	224.90
911.42	224.91
911.73	224.83
912.03	224.83
912.33	224.84
912.64	224.83
912.94	224.82
913.24	224.79
913.55	224.75
913.85	224.74
914.15	224.75
914.46	224.75
914.76	224.74
915.06	224.73
915.37	224.70
915.67	224.67
915.97	224.69
916.27	224.67
916.58	224.68
916.88	224.68
917.18	224.64
917.49	224.71
917.79	224.75
918.09	224.78
918.39	224.82
918.70	224.81
919.00	224.84
919.30	224.89
919.60	224.90
919.91	224.93
920.21	224.91
920.51	224.86
920.81	224.85
921.12	224.86
921.42	224.85
921.72	224.83
922.02	224.86
922.32	224.87
922.63	224.88
922.93	224.91
923.23	224.92
923.53	224.91
923.83	224.85
924.13	224.85
924.44	224.83
924.74	224.84
925.04	224.86
925.34	224.82
925.64	224.81
925.94	224.83
926.24	224.89
926.55	224.89
926.85	224.93
927.15	224.92
927.45	224.94
927.75	224.92
928.05	224.94
928.35	224.90
928.65	224.94
928.95	224.96
929.26	224.93
929.56	224.96
929.86	225.00
930.16	224.97
930.46	224.93
930.76	224.92
931.06	224.87
931.36	224.81
931.66	224.83
931.96	224.83
932.26	224.81
932.56	224.74
932.86	224.76
933.16	224.76
933.46	224.77
933.76	224.74
934.06	224.77
934.36	224.80
934.66	224.81
934.96	224.77
935.26	224.75
935.56	224.78
935.86	224.74
936.16	224.68
936.46	224.70
936.76	224.69
937.06	224.70
937.36	224.73
937.66	224.78
937.96	224.77
938.26	224.72
938.56	224.75
938.86	224.75
939.16	224.77
939.46	224.75
939.76	224.77
940.06	224.79
940.35	224.75
940.65	224.69
940.95	224.71
941.25	224.71
941.55	224.73
941.85	224.71
942.15	224.74
942.45	224.81
942.75	224.77
943.04	224.80
943.34	224.80
943.64	224.78
943.94	224.77
944.24	224.75
944.54	224.75
944.84	224.76
945.13	224.73
945.43	224.69
945.73	224.70
946.03	224.68
946.33	224.63
946.62	224.65
946.92	224.63
947.22	224.65
947.52	224.65
947.82	224.66
948.11	224.66
948.41	224.66
948.71	224.62
949.01	224.64
949.31	224.62
949.60	224.60
949.90	224.61
950.20	224.61
950.50	224.64
950.79	224.65
951.09	224.65
951.39	224.67
951.69	224.68
951.98	224.69
952.28	224.70
952.58	224.71
952.87	224.71
953.17	224.74
953.47	224.70
953.76	224.70
954.06	224.68
954.36	224.64
954.66	224.61
954.95	224.61
955.25	224.63
955.55	224.63
955.84	224.61
956.14	224.63
956.44	224.61
956.73	224.58
957.03	224.59
957.32	224.59
957.62	224.58
957.92	224.58
958.21	224.57
958.51	224.67
958.81	224.67
959.10	224.65
959.40	224.65
959.69	224.69
959.99	224.69
960.29	224.66
960.58	224.69
960.88	224.74
961.17	224.77
961.47	224.76
961.76	224.77
962.06	224.82
962.36	224.80
962.65	224.83
962.95	224.82
963.24	224.78
963.54	224.76
963.83	224.76
964.13	224.77
964.42	224.76
964.72	224.69
965.01	224.71
965.31	224.72
965.60	224.71
965.90	224.77
966.19	224.73
966.49	224.74
966.78	224.71
967.08	224.69
967.37	224.67
967.67	224.66
967.96	224.64
968.26	224.64
968.55	224.62
968.85	224.59
969.14	224.59
969.43	224.62
969.73	224.63
970.02	224.63
970.32	224.63
970.61	224.62
970.91	224.57
971.20	224.52
971.49	224.54
971.79	224.53
972.08	224.45
972.38	224.46
972.67	224.48
972.96	224.49
973.26	224.47
973.55	224.49
973.85	224.51
974.14	224.52
974.43	224.50
974.73	224.52
975.02	224.52
975.31	224.55
975.61	224.54
975.90	224.55
976.19	224.56
976.49	224.56
976.78	224.55
977.07	224.55
977.37	224.57
977.66	224.56
977.95	224.55
978.24	224.57
978.54	224.60
978.83	224.57
979.12	224.61
979.42	224.59
979.71	224.59
980.00	224.55
980.29	224.58
980.59	224.56
980.88	224.61
981.17	224.64
981.46	224.61
981.76	224.62
982.05	224.62
982.34	224.66
982.63	224.66
982.93	224.67
983.22	224.73
983.51	224.75
983.80	224.80
984.09	224.80
984.39	224.79
984.68	224.77
984.97	224.80
985.26	224.76
985.55	224.77
985.85	224.74
986.14	224.75
986.43	224.74
986.72	224.77
987.01	224.70
987.30	224.68
987.59	224.64
987.89	224.65
988.18	224.61
988.47	224.53
988.76	224.52
989.05	224.51
989.34	224.45
989.63	224.47
989.92	224.41
990.22	224.42
990.51	224.41
990.80	224.43
991.09	224.46
991.38	224.48
991.67	224.49
991.96	224.48
992.25	224.49
992.54	224.45
992.83	224.43
993.12	224.45
993.41	224.48
993.70	224.54
993.99	224.56
994.28	224.58
994.58	224.65
994.87	224.64
995.16	224.66
995.45	224.67
995.74	224.65
996.03	224.68
996.32	224.70
996.61	224.75
996.90	224.73
997.19	224.70
997.48	224.74
997.77	224.73
998.06	224.75
998.34	224.80
998.63	224.83
998.92	224.84
999.21	224.87
999.50	224.85
999.79	224.83
1000.08	224.83
1000.37	224.85
1000.66	224.80
1000.95	224.83
1001.24	224.82
1001.53	224.84
1001.82	224.83
1002.11	224.81
1002.40	224.83
1002.68	224.80
1002.97	224.87
1003.26	224.87
1003.55	224.86
1003.84	224.86
1004.13	224.92
1004.42	224.87
1004.71	224.88
1004.99	224.90
1005.28	224.91
1005.57	224.90
1005.86	224.89
1006.15	224.90
1006.44	224.90
1006.72	224.95
1007.01	224.97
1007.30	224.99
1007.59	225.00
1007.88	225.00
1008.17	225.02
1008.45	225.00
1008.74	224.98
1009.03	224.96
1009.32	224.96
1009.60	224.93
1009.89	224.95
1010.18	224.90
1010.47	224.93
1010.76	224.94
1011.04	224.94
1011.33	224.94
1011.62	224.96
1011.91	224.97
1012.19	224.98
1012.48	224.97
1012.77	224.92
1013.05	224.95
1013.34	224.95
1013.63	224.93
1013.92	224.94
1014.20	224.93
1014.49	224.90
1014.78	224.93
1015.06	224.88
1015.35	224.87
1015.64	224.88
1015.92	224.86
1016.21	224.85
1016.50	224.81
1016.78	224.76
1017.07	224.72
1017.36	224.71
1017.64	224.71
1017.93	224.72
1018.22	224.68
1018.50	224.65
1018.79	224.66
1019.08	224.60
1019.36	224.59
1019.65	224.62
1019.93	224.64
1020.22	224.66
1020.51	224.72
1020.79	224.68
1021.08	224.25
1021.36	223.98
1021.65	224.41
1021.94	224.97
1022.22	224.77
1022.51	224.94
1022.79	225.56
1023.08	224.53
1023.36	226.11
1023.65	224.31
>>>>>End Processed Spectral Data<<<<<
