SpectraSuite Data File
++++++++++++++++++++++++++++++++++++
Date: Fri Feb 01 18:01:57 EST 2013
User: group
Dark Spectrum Present: No
Reference Spectrum Present: No
Number of Sampled Component Spectra: 1
Spectrometers: USB2E7196
Integration Time (usec): 35000 (USB2E7196)
Spectra Averaged: 100 (USB2E7196)
Boxcar Smoothing: 10 (USB2E7196)
Correct for Electrical Dark: No (USB2E7196)
Strobe/Lamp Enabled: No (USB2E7196)
Correct for Detector Non-linearity: No (USB2E7196)
Correct for Stray Light: No (USB2E7196)
Number of Pixels in Processed Spectrum: 2048
>>>>>Begin Processed Spectral Data<<<<<
339.09	0.00
339.48	212.41
339.86	214.10
340.24	215.39
340.63	216.99
341.01	219.85
341.39	219.73
341.78	221.45
342.16	222.78
342.54	222.70
342.93	211.22
343.31	221.90
343.69	222.48
344.07	222.95
344.46	223.43
344.84	223.81
345.22	224.08
345.60	224.33
345.99	224.51
346.37	224.59
346.75	224.72
347.13	224.78
347.52	224.85
347.90	224.95
348.28	225.01
348.66	225.04
349.05	225.07
349.43	225.13
349.81	225.19
350.19	225.25
350.57	225.33
350.96	225.41
351.34	225.52
351.72	225.60
352.10	225.68
352.48	225.73
352.87	225.77
353.25	225.82
353.63	225.89
354.01	225.95
354.39	226.06
354.77	226.13
355.15	226.23
355.54	226.27
355.92	226.31
356.30	226.36
356.68	226.51
357.06	226.58
357.44	226.64
357.82	226.70
358.20	226.77
358.58	226.83
358.97	226.87
359.35	226.92
359.73	226.97
360.11	227.05
360.49	227.10
360.87	227.15
361.25	227.19
361.63	227.24
362.01	227.28
362.39	227.27
362.77	227.29
363.15	227.31
363.53	227.36
363.91	227.38
364.29	227.38
364.67	227.27
365.05	227.27
365.43	227.26
365.81	227.28
366.19	227.32
366.57	227.39
366.95	227.37
367.33	227.33
367.71	227.31
368.09	227.31
368.47	227.28
368.85	227.27
369.23	227.29
369.61	227.21
369.99	227.20
370.37	227.22
370.75	227.25
371.13	227.19
371.51	227.11
371.89	227.05
372.27	227.02
372.65	227.00
373.03	226.92
373.41	226.86
373.78	226.77
374.16	226.67
374.54	226.55
374.92	226.51
375.30	226.44
375.68	226.38
376.06	226.32
376.44	226.23
376.82	226.19
377.19	226.15
377.57	226.12
377.95	226.05
378.33	225.95
378.71	225.84
379.09	225.80
379.47	225.80
379.84	225.72
380.22	225.63
380.60	225.54
380.98	225.48
381.36	225.44
381.73	225.42
382.11	225.39
382.49	225.36
382.87	225.30
383.25	225.26
383.62	225.34
384.00	225.30
384.38	225.25
384.76	225.22
385.13	225.20
385.51	225.15
385.89	225.11
386.27	225.10
386.64	225.06
387.02	225.00
387.40	224.92
387.78	224.89
388.15	224.93
388.53	224.91
388.91	224.87
389.29	224.84
389.66	224.80
390.04	224.77
390.42	224.76
390.79	224.75
391.17	224.76
391.55	224.64
391.92	224.64
392.30	224.69
392.68	224.66
393.05	224.62
393.43	224.63
393.81	224.65
394.18	224.62
394.56	224.63
394.94	224.67
395.31	224.73
395.69	224.82
396.06	224.83
396.44	224.92
396.82	224.96
397.19	225.06
397.57	225.09
397.95	225.18
398.32	225.20
398.70	225.27
399.07	225.32
399.45	225.37
399.82	225.44
400.20	225.49
400.58	225.55
400.95	225.59
401.33	225.70
401.70	225.86
402.08	225.97
402.45	226.09
402.83	226.23
403.20	226.34
403.58	226.42
403.95	226.57
404.33	226.66
404.71	226.81
405.08	226.99
405.46	227.16
405.83	227.29
406.21	227.46
406.58	227.63
406.96	227.81
407.33	228.04
407.70	228.26
408.08	228.58
408.45	228.84
408.83	229.17
409.20	229.45
409.58	229.65
409.95	229.98
410.33	230.30
410.70	230.58
411.08	230.98
411.45	231.39
411.82	231.75
412.20	232.21
412.57	232.74
412.95	233.14
413.32	233.65
413.69	234.20
414.07	234.77
414.44	235.37
414.82	236.00
415.19	236.71
415.56	237.42
415.94	238.14
416.31	238.99
416.68	239.80
417.06	240.72
417.43	241.63
417.81	242.67
418.18	243.74
418.55	244.89
418.93	246.02
419.30	247.22
419.67	248.48
420.04	249.75
420.42	251.11
420.79	252.69
421.16	254.24
421.54	255.80
421.91	257.47
422.28	259.17
422.66	260.98
423.03	262.72
423.40	264.50
423.77	266.42
424.15	268.32
424.52	270.30
424.89	272.47
425.26	274.60
425.64	276.56
426.01	278.69
426.38	280.94
426.75	283.20
427.13	285.53
427.50	287.99
427.87	290.56
428.24	293.07
428.61	295.46
428.99	298.11
429.36	300.98
429.73	303.79
430.10	306.53
430.47	309.35
430.85	312.25
431.22	315.35
431.59	318.59
431.96	321.61
432.33	325.02
432.70	328.25
433.08	332.05
433.45	335.61
433.82	339.12
434.19	342.99
434.56	346.80
434.93	350.38
435.30	353.92
435.68	357.83
436.05	361.65
436.42	365.40
436.79	368.85
437.16	372.52
437.53	376.35
437.90	380.20
438.27	383.91
438.64	387.70
439.01	391.12
439.38	394.11
439.75	397.04
440.13	400.40
440.50	403.60
440.87	406.10
441.24	408.74
441.61	411.76
441.98	413.84
442.35	416.33
442.72	418.84
443.09	421.30
443.46	422.71
443.83	423.53
444.20	424.22
444.57	425.34
444.94	425.74
445.31	426.15
445.68	426.56
446.05	426.69
446.42	426.23
446.79	425.73
447.16	425.18
447.53	424.81
447.90	423.19
448.27	421.56
448.64	419.41
449.01	417.87
449.37	415.15
449.74	412.54
450.11	409.46
450.48	406.17
450.85	402.76
451.22	399.78
451.59	397.05
451.96	394.43
452.33	390.87
452.70	387.68
453.07	383.86
453.43	379.96
453.80	376.21
454.17	372.55
454.54	369.11
454.91	365.42
455.28	361.78
455.65	358.46
456.02	355.11
456.38	352.21
456.75	348.60
457.12	345.55
457.49	342.52
457.86	339.60
458.23	337.02
458.59	334.23
458.96	331.41
459.33	328.89
459.70	326.36
460.07	324.33
460.43	321.99
460.80	319.77
461.17	317.83
461.54	315.79
461.91	313.84
462.27	311.84
462.64	310.12
463.01	308.29
463.38	306.51
463.74	304.71
464.11	303.12
464.48	301.71
464.85	300.19
465.21	299.00
465.58	297.74
465.95	296.29
466.32	295.02
466.68	293.80
467.05	292.57
467.42	291.38
467.78	290.10
468.15	288.90
468.52	288.04
468.88	286.87
469.25	285.80
469.62	284.95
469.98	283.99
470.35	283.11
470.72	282.29
471.08	281.42
471.45	280.67
471.82	279.93
472.18	279.09
472.55	278.44
472.92	277.71
473.28	277.04
473.65	276.41
474.02	275.80
474.38	275.30
474.75	274.81
475.11	274.30
475.48	273.94
475.85	273.58
476.21	273.19
476.58	272.88
476.94	272.61
477.31	272.36
477.67	272.14
478.04	271.93
478.41	271.76
478.77	271.71
479.14	271.59
479.50	271.53
479.87	271.52
480.23	271.60
480.60	271.61
480.96	271.63
481.33	271.80
481.69	271.95
482.06	272.10
482.42	272.27
482.79	272.45
483.15	272.72
483.52	273.09
483.88	273.38
484.25	273.75
484.61	274.14
484.98	274.53
485.34	275.08
485.71	275.67
486.07	276.26
486.44	276.83
486.80	277.54
487.17	278.28
487.53	279.12
487.90	279.96
488.26	280.91
488.62	281.95
488.99	282.93
489.35	284.01
489.72	285.19
490.08	286.46
490.44	287.76
490.81	289.09
491.17	290.52
491.54	292.07
491.90	293.67
492.26	295.38
492.63	297.26
492.99	299.14
493.36	301.10
493.72	303.28
494.08	305.47
494.45	307.82
494.81	310.28
495.17	312.83
495.54	315.55
495.90	318.37
496.26	321.26
496.63	324.38
496.99	327.69
497.35	331.09
497.72	334.65
498.08	338.36
498.44	342.28
498.80	346.39
499.17	350.69
499.53	355.12
499.89	359.80
500.26	364.53
500.62	369.43
500.98	374.71
501.34	380.09
501.71	385.73
502.07	391.49
502.43	397.47
502.79	403.69
503.16	410.12
503.52	416.80
503.88	423.67
504.24	430.70
504.60	438.05
504.97	445.62
505.33	453.39
505.69	461.64
506.05	469.93
506.41	478.35
506.78	487.05
507.14	496.01
507.50	505.27
507.86	514.91
508.22	524.76
508.59	534.58
508.95	544.78
509.31	555.35
509.67	566.15
510.03	577.18
510.39	588.45
510.75	600.06
511.12	611.82
511.48	623.96
511.84	636.24
512.20	648.54
512.56	661.32
512.92	674.41
513.28	687.71
513.64	701.10
514.00	714.81
514.37	728.76
514.73	742.87
515.09	756.91
515.45	771.22
515.81	785.82
516.17	800.94
516.53	816.28
516.89	831.60
517.25	846.96
517.61	862.57
517.97	878.28
518.33	893.85
518.69	909.79
519.05	926.02
519.41	942.61
519.77	959.50
520.13	976.42
520.49	993.25
520.85	1009.92
521.21	1027.07
521.57	1044.77
521.93	1062.09
522.29	1080.01
522.65	1097.84
523.01	1115.63
523.37	1133.32
523.73	1151.03
524.09	1168.70
524.45	1186.64
524.81	1204.99
525.17	1223.45
525.53	1242.07
525.89	1260.75
526.25	1279.51
526.61	1297.75
526.97	1316.24
527.33	1334.52
527.68	1352.99
528.04	1371.24
528.40	1389.74
528.76	1408.77
529.12	1427.19
529.48	1446.03
529.84	1464.01
530.20	1482.49
530.56	1501.46
530.91	1520.93
531.27	1539.70
531.63	1558.18
531.99	1576.76
532.35	1594.79
532.71	1612.69
533.07	1631.12
533.42	1649.12
533.78	1667.25
534.14	1685.62
534.50	1703.08
534.86	1721.18
535.21	1738.39
535.57	1756.52
535.93	1774.22
536.29	1791.05
536.65	1808.25
537.00	1825.07
537.36	1842.61
537.72	1859.48
538.08	1876.14
538.44	1892.02
538.79	1908.10
539.15	1923.92
539.51	1939.84
539.87	1956.26
540.22	1972.24
540.58	1988.28
540.94	2003.75
541.29	2018.81
541.65	2033.75
542.01	2049.26
542.37	2063.79
542.72	2078.50
543.08	2092.74
543.44	2107.42
543.79	2120.99
544.15	2134.27
544.51	2148.15
544.87	2161.20
545.22	2174.18
545.58	2186.75
545.94	2198.75
546.29	2210.91
546.65	2223.06
547.01	2234.53
547.36	2245.44
547.72	2256.11
548.07	2265.94
548.43	2276.30
548.79	2286.32
549.14	2295.82
549.50	2305.10
549.86	2314.91
550.21	2324.10
550.57	2333.09
550.92	2341.60
551.28	2350.66
551.64	2359.80
551.99	2368.20
552.35	2376.43
552.70	2384.58
553.06	2392.47
553.41	2400.76
553.77	2408.56
554.13	2416.53
554.48	2424.53
554.84	2432.02
555.19	2439.09
555.55	2446.09
555.90	2452.22
556.26	2459.06
556.61	2465.53
556.97	2471.65
557.32	2477.46
557.68	2483.40
558.03	2489.35
558.39	2494.77
558.74	2501.15
559.10	2506.62
559.45	2511.92
559.81	2517.63
560.16	2522.98
560.52	2527.63
560.87	2532.52
561.23	2536.54
561.58	2540.65
561.94	2544.61
562.29	2548.00
562.64	2552.07
563.00	2555.91
563.35	2560.91
563.71	2565.26
564.06	2569.76
564.42	2573.95
564.77	2577.69
565.12	2581.30
565.48	2584.52
565.83	2587.53
566.19	2589.88
566.54	2591.63
566.89	2593.91
567.25	2595.62
567.60	2597.95
567.96	2600.83
568.31	2602.64
568.66	2605.02
569.02	2606.53
569.37	2607.63
569.72	2609.55
570.08	2610.56
570.43	2611.43
570.78	2611.47
571.14	2610.55
571.49	2609.79
571.84	2610.00
572.20	2609.37
572.55	2608.86
572.90	2607.60
573.26	2606.73
573.61	2605.37
573.96	2604.25
574.31	2601.50
574.67	2598.85
575.02	2595.54
575.37	2592.02
575.72	2588.48
576.08	2584.99
576.43	2581.83
576.78	2578.32
577.13	2575.17
577.49	2571.95
577.84	2568.58
578.19	2564.95
578.54	2561.44
578.90	2557.19
579.25	2551.37
579.60	2546.31
579.95	2541.10
580.30	2535.87
580.66	2530.40
581.01	2525.14
581.36	2519.94
581.71	2515.63
582.06	2510.91
582.42	2506.06
582.77	2500.54
583.12	2495.55
583.47	2490.71
583.82	2485.54
584.17	2479.90
584.53	2474.03
584.88	2468.02
585.23	2461.80
585.58	2455.72
585.93	2449.59
586.28	2444.31
586.63	2438.71
586.98	2433.15
587.34	2427.83
587.69	2422.43
588.04	2416.65
588.39	2410.39
588.74	2403.04
589.09	2396.18
589.44	2388.53
589.79	2381.53
590.14	2375.26
590.49	2367.94
590.84	2360.68
591.19	2353.94
591.54	2346.51
591.89	2338.27
592.25	2330.68
592.60	2322.51
592.95	2313.95
593.30	2305.72
593.65	2297.15
594.00	2289.23
594.35	2280.84
594.70	2271.74
595.05	2263.68
595.40	2255.40
595.75	2246.90
596.10	2240.05
596.45	2232.49
596.80	2225.44
597.15	2218.17
597.50	2210.19
597.85	2202.70
598.19	2194.95
598.54	2186.85
598.89	2179.36
599.24	2172.53
599.59	2164.96
599.94	2157.55
600.29	2150.25
600.64	2142.59
600.99	2134.11
601.34	2126.30
601.69	2118.43
602.04	2110.57
602.39	2101.86
602.74	2093.94
603.08	2086.09
603.43	2078.10
603.78	2069.39
604.13	2060.96
604.48	2052.48
604.83	2044.32
605.18	2036.38
605.53	2027.31
605.87	2017.86
606.22	2009.40
606.57	2000.13
606.92	1991.33
607.27	1983.12
607.62	1974.98
607.96	1966.53
608.31	1958.90
608.66	1949.99
609.01	1941.10
609.36	1932.19
609.70	1922.99
610.05	1913.59
610.40	1904.65
610.75	1894.89
611.10	1885.94
611.44	1876.04
611.79	1866.59
612.14	1856.50
612.49	1845.62
612.83	1835.71
613.18	1826.09
613.53	1816.56
613.88	1806.51
614.22	1796.88
614.57	1786.71
614.92	1777.31
615.27	1768.37
615.61	1758.51
615.96	1749.10
616.31	1739.97
616.65	1731.30
617.00	1722.34
617.35	1713.37
617.70	1703.65
618.04	1693.66
618.39	1684.00
618.74	1675.14
619.08	1665.28
619.43	1656.35
619.78	1648.20
620.12	1639.81
620.47	1631.06
620.82	1621.42
621.16	1612.56
621.51	1603.56
621.85	1594.57
622.20	1584.52
622.55	1574.72
622.89	1565.31
623.24	1556.21
623.59	1547.48
623.93	1538.57
624.28	1530.08
624.62	1521.07
624.97	1512.46
625.32	1504.43
625.66	1496.16
626.01	1487.72
626.35	1479.07
626.70	1469.91
627.04	1460.73
627.39	1451.40
627.73	1442.65
628.08	1434.50
628.43	1426.08
628.77	1417.42
629.12	1408.50
629.46	1400.17
629.81	1391.31
630.15	1382.79
630.50	1374.15
630.84	1364.61
631.19	1355.21
631.53	1346.25
631.88	1337.33
632.22	1328.41
632.57	1319.82
632.91	1310.89
633.26	1302.07
633.60	1293.38
633.95	1284.89
634.29	1276.68
634.64	1268.82
634.98	1260.07
635.32	1251.65
635.67	1243.83
636.01	1235.95
636.36	1227.99
636.70	1220.21
637.05	1212.53
637.39	1204.90
637.73	1197.09
638.08	1190.11
638.42	1183.10
638.77	1175.58
639.11	1167.95
639.45	1160.45
639.80	1152.59
640.14	1145.14
640.49	1137.58
640.83	1130.16
641.17	1122.97
641.52	1115.42
641.86	1107.85
642.20	1101.13
642.55	1093.62
642.89	1086.19
643.23	1078.57
643.58	1071.85
643.92	1064.70
644.26	1057.76
644.61	1050.70
644.95	1043.80
645.29	1036.18
645.64	1028.28
645.98	1020.90
646.32	1013.90
646.66	1006.75
647.01	1000.01
647.35	993.34
647.69	986.50
648.04	980.05
648.38	973.30
648.72	966.47
649.06	959.49
649.41	952.55
649.75	945.79
650.09	938.71
650.43	932.01
650.78	924.86
651.12	917.88
651.46	911.24
651.80	904.67
652.14	898.38
652.49	892.15
652.83	886.22
653.17	879.67
653.51	873.19
653.85	867.01
654.20	860.54
654.54	853.50
654.88	846.83
655.22	839.98
655.56	833.37
655.90	827.01
656.25	820.96
656.59	814.73
656.93	808.79
657.27	802.91
657.61	796.64
657.95	790.72
658.29	784.82
658.64	778.60
658.98	772.53
659.32	766.22
659.66	760.19
660.00	754.06
660.34	748.32
660.68	742.59
661.02	736.76
661.36	731.33
661.70	726.15
662.05	721.11
662.39	716.16
662.73	711.01
663.07	705.97
663.41	700.81
663.75	695.67
664.09	690.40
664.43	685.27
664.77	680.53
665.11	675.60
665.45	670.84
665.79	666.19
666.13	661.26
666.47	656.51
666.81	651.78
667.15	647.01
667.49	642.48
667.83	638.06
668.17	633.52
668.51	628.82
668.85	624.14
669.19	619.68
669.53	615.25
669.87	610.80
670.21	606.49
670.55	602.24
670.89	598.21
671.23	594.24
671.57	590.15
671.91	586.01
672.25	581.96
672.58	577.87
672.92	573.82
673.26	570.24
673.60	566.58
673.94	562.93
674.28	559.49
674.62	556.06
674.96	552.47
675.30	549.07
675.64	545.63
675.97	542.44
676.31	539.13
676.65	535.70
676.99	532.57
677.33	529.23
677.67	525.99
678.01	522.46
678.34	519.01
678.68	515.70
679.02	512.47
679.36	509.26
679.70	506.14
680.04	503.05
680.37	499.77
680.71	496.54
681.05	493.49
681.39	490.40
681.73	487.34
682.06	484.44
682.40	481.54
682.74	478.61
683.08	475.62
683.42	472.64
683.75	469.71
684.09	466.70
684.43	463.89
684.77	461.06
685.10	458.36
685.44	455.72
685.78	453.04
686.12	450.43
686.45	447.81
686.79	445.10
687.13	442.53
687.46	439.99
687.80	437.49
688.14	434.90
688.48	432.49
688.81	429.88
689.15	427.33
689.49	424.78
689.82	422.36
690.16	419.93
690.50	417.68
690.83	415.49
691.17	413.22
691.51	410.99
691.84	408.85
692.18	406.63
692.52	404.35
692.85	402.09
693.19	399.93
693.52	397.79
693.86	395.73
694.20	393.62
694.53	391.51
694.87	389.39
695.21	387.33
695.54	385.21
695.88	383.15
696.21	381.18
696.55	379.24
696.88	377.30
697.22	375.39
697.56	373.42
697.89	371.49
698.23	369.62
698.56	367.77
698.90	365.89
699.23	363.98
699.57	362.21
699.90	360.42
700.24	358.61
700.58	356.81
700.91	355.09
701.25	353.43
701.58	351.82
701.92	350.22
702.25	348.66
702.59	347.06
702.92	345.59
703.26	344.10
703.59	342.63
703.93	341.25
704.26	339.87
704.60	338.42
704.93	336.95
705.26	335.52
705.60	334.14
705.93	332.82
706.27	331.60
706.60	330.31
706.94	329.06
707.27	327.76
707.61	326.54
707.94	325.31
708.27	324.06
708.61	322.79
708.94	321.57
709.28	320.37
709.61	319.27
709.94	318.17
710.28	316.94
710.61	315.80
710.95	314.50
711.28	313.38
711.61	312.30
711.95	311.24
712.28	310.17
712.61	309.04
712.95	307.95
713.28	306.90
713.61	305.88
713.95	304.84
714.28	303.84
714.61	302.81
714.95	301.81
715.28	300.78
715.61	299.82
715.95	298.84
716.28	297.85
716.61	296.83
716.95	295.85
717.28	294.98
717.61	294.08
717.94	293.26
718.28	292.34
718.61	291.45
718.94	290.62
719.27	289.82
719.61	289.06
719.94	288.28
720.27	287.46
720.60	286.66
720.94	285.92
721.27	285.22
721.60	284.56
721.93	283.88
722.27	283.23
722.60	282.57
722.93	281.90
723.26	281.31
723.59	280.67
723.93	280.03
724.26	279.43
724.59	278.75
724.92	278.12
725.25	277.54
725.59	276.89
725.92	276.28
726.25	275.66
726.58	275.08
726.91	274.49
727.24	273.95
727.57	273.41
727.91	272.83
728.24	272.25
728.57	271.69
728.90	271.14
729.23	270.59
729.56	270.05
729.89	269.49
730.22	268.89
730.55	268.35
730.89	267.79
731.22	267.24
731.55	266.75
731.88	266.25
732.21	265.74
732.54	265.24
732.87	264.76
733.20	264.31
733.53	263.83
733.86	263.43
734.19	262.92
734.52	262.52
734.85	262.14
735.18	261.68
735.51	261.23
735.84	260.77
736.17	260.36
736.50	259.90
736.83	259.60
737.16	259.19
737.49	258.77
737.82	258.43
738.15	258.04
738.48	257.62
738.81	257.24
739.14	256.84
739.47	256.52
739.80	256.14
740.13	255.78
740.46	255.42
740.79	255.03
741.12	254.68
741.45	254.27
741.78	253.88
742.11	253.56
742.44	253.18
742.77	252.85
743.10	252.48
743.43	252.12
743.75	251.71
744.08	251.57
744.41	251.27
744.74	250.92
745.07	250.60
745.40	250.35
745.73	250.05
746.06	249.76
746.39	249.45
746.71	249.17
747.04	248.85
747.37	248.55
747.70	248.25
748.03	247.95
748.36	247.69
748.68	247.42
749.01	247.14
749.34	246.89
749.67	246.62
750.00	246.35
750.33	246.19
750.65	245.94
750.98	245.53
751.31	245.28
751.64	245.03
751.97	244.80
752.29	244.52
752.62	244.30
752.95	244.06
753.28	243.79
753.60	243.54
753.93	243.34
754.26	243.09
754.59	242.86
754.91	242.65
755.24	242.39
755.57	242.15
755.90	241.95
756.22	241.74
756.55	241.51
756.88	241.32
757.20	241.04
757.53	240.80
757.86	240.62
758.19	240.44
758.51	240.26
758.84	240.03
759.17	239.83
759.49	239.61
759.82	239.47
760.15	239.30
760.47	239.10
760.80	238.87
761.13	238.76
761.45	238.60
761.78	238.39
762.11	238.26
762.43	238.05
762.76	237.87
763.08	237.70
763.41	237.54
763.74	237.36
764.06	237.23
764.39	237.07
764.71	236.91
765.04	236.74
765.37	236.57
765.69	236.46
766.02	236.31
766.34	236.17
766.67	235.98
767.00	235.86
767.32	235.77
767.65	235.69
767.97	235.47
768.30	235.30
768.62	235.21
768.95	235.03
769.27	234.96
769.60	234.85
769.92	234.71
770.25	234.60
770.57	234.49
770.90	234.32
771.22	234.18
771.55	234.06
771.87	233.97
772.20	233.86
772.52	233.80
772.85	233.84
773.17	233.71
773.50	233.58
773.82	233.47
774.15	233.36
774.47	233.19
774.80	233.14
775.12	233.03
775.45	232.91
775.77	232.83
776.09	232.74
776.42	232.61
776.74	232.57
777.07	232.49
777.39	232.39
777.72	232.31
778.04	232.23
778.36	232.12
778.69	232.04
779.01	231.97
779.33	231.80
779.66	231.64
779.98	231.55
780.31	231.50
780.63	231.46
780.95	231.37
781.28	231.28
781.60	231.21
781.92	231.14
782.25	231.09
782.57	231.04
782.89	230.96
783.22	230.93
783.54	230.83
783.86	230.77
784.19	230.71
784.51	230.69
784.83	230.66
785.16	230.65
785.48	230.58
785.80	230.54
786.12	230.50
786.45	230.40
786.77	230.39
787.09	230.33
787.42	230.24
787.74	230.17
788.06	230.17
788.38	230.13
788.71	230.09
789.03	230.05
789.35	230.01
789.67	229.95
789.99	229.91
790.32	229.83
790.64	229.80
790.96	229.85
791.28	229.76
791.61	229.70
791.93	229.63
792.25	229.59
792.57	229.60
792.89	229.56
793.21	229.52
793.54	229.47
793.86	229.44
794.18	229.42
794.50	229.38
794.82	229.35
795.14	229.28
795.47	229.26
795.79	229.23
796.11	229.14
796.43	229.10
796.75	229.06
797.07	229.06
797.39	229.02
797.71	228.89
798.04	228.89
798.36	228.85
798.68	228.80
799.00	228.80
799.32	228.73
799.64	228.68
799.96	228.64
800.28	228.59
800.60	228.52
800.92	228.49
801.24	228.45
801.56	228.42
801.89	228.40
802.21	228.38
802.53	228.29
802.85	228.30
803.17	228.34
803.49	228.29
803.81	228.24
804.13	228.19
804.45	228.16
804.77	228.14
805.09	228.13
805.41	228.09
805.73	228.00
806.05	227.95
806.37	227.90
806.69	227.90
807.01	227.87
807.33	227.87
807.65	227.80
807.97	227.82
808.28	227.82
808.60	227.79
808.92	227.74
809.24	227.78
809.56	227.76
809.88	227.64
810.20	227.62
810.52	227.62
810.84	227.58
811.16	227.56
811.48	227.52
811.80	227.52
812.12	227.52
812.43	227.54
812.75	227.49
813.07	227.45
813.39	227.42
813.71	227.39
814.03	227.36
814.35	227.37
814.67	227.32
814.98	227.26
815.30	227.26
815.62	227.24
815.94	227.17
816.26	227.18
816.58	227.18
816.89	227.16
817.21	227.10
817.53	227.10
817.85	227.08
818.17	227.06
818.48	227.01
818.80	226.99
819.12	226.94
819.44	226.95
819.76	226.94
820.07	226.92
820.39	226.92
820.71	226.91
821.03	226.86
821.34	226.82
821.66	226.81
821.98	226.79
822.30	226.76
822.61	226.82
822.93	226.76
823.25	226.72
823.57	226.70
823.88	226.71
824.20	226.69
824.52	226.68
824.83	226.70
825.15	226.69
825.47	226.67
825.79	226.66
826.10	226.63
826.42	226.61
826.74	226.58
827.05	226.55
827.37	226.54
827.69	226.53
828.00	226.49
828.32	226.47
828.64	226.44
828.95	226.46
829.27	226.42
829.58	226.40
829.90	226.43
830.22	226.43
830.53	226.41
830.85	226.39
831.17	226.35
831.48	226.30
831.80	226.27
832.11	226.25
832.43	226.25
832.75	226.22
833.06	226.27
833.38	226.23
833.69	226.21
834.01	226.19
834.32	226.19
834.64	226.18
834.96	226.14
835.27	226.13
835.59	226.08
835.90	226.04
836.22	226.04
836.53	226.02
836.85	225.97
837.16	226.03
837.48	226.03
837.79	226.03
838.11	226.04
838.42	226.07
838.74	226.08
839.05	226.05
839.37	226.06
839.68	225.99
840.00	226.03
840.31	226.06
840.63	226.04
840.94	226.03
841.26	226.04
841.57	226.06
841.88	226.08
842.20	226.08
842.51	226.07
842.83	226.04
843.14	226.13
843.46	226.11
843.77	226.05
844.08	226.06
844.40	226.05
844.71	226.03
845.03	225.99
845.34	225.99
845.65	226.00
845.97	225.99
846.28	225.97
846.60	225.97
846.91	225.94
847.22	225.95
847.54	225.96
847.85	225.94
848.16	225.91
848.48	225.86
848.79	225.90
849.10	225.90
849.42	225.90
849.73	225.79
850.04	225.80
850.36	225.79
850.67	225.77
850.98	225.77
851.30	225.77
851.61	225.76
851.92	225.69
852.23	225.72
852.55	225.71
852.86	225.75
853.17	225.73
853.49	225.74
853.80	225.78
854.11	225.79
854.42	225.83
854.74	225.83
855.05	225.88
855.36	225.82
855.67	225.82
855.99	225.87
856.30	226.01
856.61	226.04
856.92	226.03
857.23	226.01
857.55	226.00
857.86	225.99
858.17	226.01
858.48	226.04
858.79	226.01
859.11	226.01
859.42	225.97
859.73	225.97
860.04	225.95
860.35	225.90
860.66	225.86
860.98	225.81
861.29	225.80
861.60	225.74
861.91	225.78
862.22	225.73
862.53	225.66
862.84	225.50
863.16	225.48
863.47	225.48
863.78	225.49
864.09	225.49
864.40	225.47
864.71	225.45
865.02	225.44
865.33	225.42
865.64	225.41
865.95	225.43
866.27	225.47
866.58	225.47
866.89	225.48
867.20	225.46
867.51	225.47
867.82	225.48
868.13	225.49
868.44	225.42
868.75	225.45
869.06	225.46
869.37	225.46
869.68	225.45
869.99	225.44
870.30	225.46
870.61	225.49
870.92	225.49
871.23	225.44
871.54	225.45
871.85	225.45
872.16	225.46
872.47	225.42
872.78	225.34
873.09	225.33
873.40	225.29
873.71	225.29
874.02	225.27
874.33	225.23
874.64	225.21
874.95	225.26
875.26	225.24
875.56	225.25
875.87	225.21
876.18	225.17
876.49	225.24
876.80	225.16
877.11	225.09
877.42	225.09
877.73	225.10
878.04	225.09
878.35	225.12
878.66	225.09
878.96	225.09
879.27	225.08
879.58	225.06
879.89	225.05
880.20	225.07
880.51	225.06
880.82	225.06
881.12	225.03
881.43	225.01
881.74	224.97
882.05	224.97
882.36	225.00
882.67	225.01
882.97	224.90
883.28	224.92
883.59	224.94
883.90	224.95
884.21	224.99
884.51	224.98
884.82	224.96
885.13	224.98
885.44	224.96
885.74	225.01
886.05	225.01
886.36	225.06
886.67	225.04
886.98	225.10
887.28	225.12
887.59	225.17
887.90	225.18
888.20	225.19
888.51	225.20
888.82	225.21
889.13	225.20
889.43	225.30
889.74	225.31
890.05	225.31
890.35	225.30
890.66	225.27
890.97	225.23
891.28	225.20
891.58	225.21
891.89	225.21
892.20	225.17
892.50	225.13
892.81	225.09
893.12	225.10
893.42	225.04
893.73	225.07
894.04	225.08
894.34	225.04
894.65	225.05
894.95	225.04
895.26	225.02
895.57	225.10
895.87	225.01
896.18	225.02
896.48	225.04
896.79	225.02
897.10	225.03
897.40	225.06
897.71	225.11
898.01	225.08
898.32	225.11
898.63	225.08
898.93	225.11
899.24	225.13
899.54	225.12
899.85	225.08
900.15	225.07
900.46	225.07
900.76	225.11
901.07	225.11
901.38	225.10
901.68	225.10
901.99	225.04
902.29	225.04
902.60	225.03
902.90	225.03
903.21	225.04
903.51	225.02
903.82	225.04
904.12	225.00
904.43	225.02
904.73	225.01
905.03	225.02
905.34	225.11
905.64	225.08
905.95	225.07
906.25	225.09
906.56	225.06
906.86	225.04
907.17	225.02
907.47	225.01
907.77	225.02
908.08	225.01
908.38	225.00
908.69	225.02
908.99	225.00
909.30	224.98
909.60	224.98
909.90	224.99
910.21	224.96
910.51	224.95
910.81	224.92
911.12	224.95
911.42	224.95
911.73	224.84
912.03	224.84
912.33	224.87
912.64	224.86
912.94	224.86
913.24	224.83
913.55	224.81
913.85	224.82
914.15	224.80
914.46	224.83
914.76	224.82
915.06	224.82
915.37	224.78
915.67	224.76
915.97	224.77
916.27	224.73
916.58	224.73
916.88	224.71
917.18	224.71
917.49	224.75
917.79	224.74
918.09	224.76
918.39	224.81
918.70	224.78
919.00	224.79
919.30	224.84
919.60	224.83
919.91	224.85
920.21	224.86
920.51	224.82
920.81	224.81
921.12	224.79
921.42	224.78
921.72	224.78
922.02	224.83
922.32	224.85
922.63	224.89
922.93	224.97
923.23	224.98
923.53	224.99
923.83	224.93
924.13	224.92
924.44	224.97
924.74	224.97
925.04	224.99
925.34	224.97
925.64	224.92
925.94	224.94
926.24	224.96
926.55	224.92
926.85	224.93
927.15	224.94
927.45	224.95
927.75	224.95
928.05	224.94
928.35	224.91
928.65	224.89
928.95	224.90
929.26	224.84
929.56	224.86
929.86	224.85
930.16	224.86
930.46	224.88
930.76	224.85
931.06	224.83
931.36	224.83
931.66	224.87
931.96	224.90
932.26	224.89
932.56	224.84
932.86	224.89
933.16	224.92
933.46	224.92
933.76	224.90
934.06	224.97
934.36	225.03
934.66	225.04
934.96	225.05
935.26	225.05
935.56	225.05
935.86	225.03
936.16	225.04
936.46	225.01
936.76	224.99
937.06	224.96
937.36	224.95
937.66	224.97
937.96	224.96
938.26	224.91
938.56	224.92
938.86	224.94
939.16	224.97
939.46	224.99
939.76	224.99
940.06	225.01
940.35	224.96
940.65	224.92
940.95	224.92
941.25	224.92
941.55	224.89
941.85	224.90
942.15	224.94
942.45	224.94
942.75	224.94
943.04	224.98
943.34	224.98
943.64	224.96
943.94	224.90
944.24	224.90
944.54	224.91
944.84	224.92
945.13	224.92
945.43	224.90
945.73	224.88
946.03	224.86
946.33	224.82
946.62	224.80
946.92	224.78
947.22	224.77
947.52	224.72
947.82	224.74
948.11	224.71
948.41	224.68
948.71	224.66
949.01	224.65
949.31	224.60
949.60	224.63
949.90	224.64
950.20	224.63
950.50	224.66
950.79	224.67
951.09	224.67
951.39	224.67
951.69	224.62
951.98	224.65
952.28	224.69
952.58	224.71
952.87	224.73
953.17	224.75
953.47	224.75
953.76	224.80
954.06	224.78
954.36	224.77
954.66	224.75
954.95	224.79
955.25	224.78
955.55	224.80
955.84	224.76
956.14	224.78
956.44	224.79
956.73	224.75
957.03	224.74
957.32	224.73
957.62	224.70
957.92	224.72
958.21	224.69
958.51	224.74
958.81	224.72
959.10	224.72
959.40	224.75
959.69	224.76
959.99	224.75
960.29	224.73
960.58	224.73
960.88	224.81
961.17	224.76
961.47	224.77
961.76	224.79
962.06	224.82
962.36	224.80
962.65	224.79
962.95	224.81
963.24	224.82
963.54	224.83
963.83	224.87
964.13	224.90
964.42	224.86
964.72	224.80
965.01	224.84
965.31	224.83
965.60	224.79
965.90	224.86
966.19	224.85
966.49	224.88
966.78	224.88
967.08	224.86
967.37	224.88
967.67	224.88
967.96	224.90
968.26	224.90
968.55	224.89
968.85	224.92
969.14	224.91
969.43	224.90
969.73	224.90
970.02	224.87
970.32	224.85
970.61	224.87
970.91	224.83
971.20	224.79
971.49	224.77
971.79	224.77
972.08	224.70
972.38	224.73
972.67	224.72
972.96	224.71
973.26	224.68
973.55	224.73
973.85	224.72
974.14	224.69
974.43	224.70
974.73	224.70
975.02	224.69
975.31	224.73
975.61	224.74
975.90	224.73
976.19	224.74
976.49	224.73
976.78	224.74
977.07	224.77
977.37	224.78
977.66	224.82
977.95	224.82
978.24	224.82
978.54	224.83
978.83	224.84
979.12	224.84
979.42	224.84
979.71	224.83
980.00	224.83
980.29	224.84
980.59	224.81
980.88	224.85
981.17	224.87
981.46	224.82
981.76	224.81
982.05	224.86
982.34	224.88
982.63	224.89
982.93	224.89
983.22	224.91
983.51	224.90
983.80	224.89
984.09	224.89
984.39	224.88
984.68	224.86
984.97	224.83
985.26	224.82
985.55	224.81
985.85	224.79
986.14	224.81
986.43	224.82
986.72	224.84
987.01	224.77
987.30	224.76
987.59	224.75
987.89	224.77
988.18	224.73
988.47	224.71
988.76	224.71
989.05	224.71
989.34	224.68
989.63	224.72
989.92	224.71
990.22	224.70
990.51	224.71
990.80	224.68
991.09	224.70
991.38	224.73
991.67	224.72
991.96	224.71
992.25	224.72
992.54	224.70
992.83	224.71
993.12	224.71
993.41	224.70
993.70	224.73
993.99	224.74
994.28	224.75
994.58	224.73
994.87	224.69
995.16	224.64
995.45	224.67
995.74	224.62
996.03	224.65
996.32	224.67
996.61	224.67
996.90	224.71
997.19	224.72
997.48	224.70
997.77	224.72
998.06	224.72
998.34	224.69
998.63	224.67
998.92	224.65
999.21	224.69
999.50	224.70
999.79	224.68
1000.08	224.67
1000.37	224.66
1000.66	224.65
1000.95	224.71
1001.24	224.71
1001.53	224.66
1001.82	224.64
1002.11	224.62
1002.40	224.63
1002.68	224.62
1002.97	224.68
1003.26	224.64
1003.55	224.62
1003.84	224.62
1004.13	224.62
1004.42	224.62
1004.71	224.63
1004.99	224.64
1005.28	224.67
1005.57	224.67
1005.86	224.64
1006.15	224.64
1006.44	224.62
1006.72	224.65
1007.01	224.63
1007.30	224.66
1007.59	224.66
1007.88	224.69
1008.17	224.66
1008.45	224.64
1008.74	224.63
1009.03	224.57
1009.32	224.61
1009.60	224.63
1009.89	224.64
1010.18	224.65
1010.47	224.61
1010.76	224.59
1011.04	224.59
1011.33	224.60
1011.62	224.59
1011.91	224.62
1012.19	224.62
1012.48	224.64
1012.77	224.64
1013.05	224.70
1013.34	224.68
1013.63	224.68
1013.92	224.67
1014.20	224.67
1014.49	224.70
1014.78	224.74
1015.06	224.71
1015.35	224.69
1015.64	224.72
1015.92	224.73
1016.21	224.76
1016.50	224.81
1016.78	224.84
1017.07	224.85
1017.36	224.82
1017.64	224.82
1017.93	224.82
1018.22	224.82
1018.50	224.82
1018.79	224.79
1019.08	224.72
1019.36	224.75
1019.65	224.78
1019.93	224.80
1020.22	224.85
1020.51	224.90
1020.79	224.88
1021.08	224.69
1021.36	224.72
1021.65	224.40
1021.94	224.47
1022.22	224.88
1022.51	224.98
1022.79	224.70
1023.08	225.27
1023.36	226.15
1023.65	224.77
>>>>>End Processed Spectral Data<<<<<
