SpectraSuite Data File
++++++++++++++++++++++++++++++++++++
Date: Fri Feb 01 16:03:32 EST 2013
User: group
Dark Spectrum Present: No
Reference Spectrum Present: No
Number of Sampled Component Spectra: 1
Spectrometers: USB2E7196
Integration Time (usec): 35000 (USB2E7196)
Spectra Averaged: 100 (USB2E7196)
Boxcar Smoothing: 10 (USB2E7196)
Correct for Electrical Dark: No (USB2E7196)
Strobe/Lamp Enabled: No (USB2E7196)
Correct for Detector Non-linearity: No (USB2E7196)
Correct for Stray Light: No (USB2E7196)
Number of Pixels in Processed Spectrum: 2048
>>>>>Begin Processed Spectral Data<<<<<
339.09	0.00
339.48	214.26
339.86	216.06
340.24	217.34
340.63	218.65
341.01	221.97
341.39	222.10
341.78	223.12
342.16	224.57
342.54	224.55
342.93	213.11
343.31	223.88
343.69	224.48
344.07	224.98
344.46	225.42
344.84	225.83
345.22	226.06
345.60	226.29
345.99	226.47
346.37	226.60
346.75	226.71
347.13	226.79
347.52	226.83
347.90	226.94
348.28	226.99
348.66	227.03
349.05	227.02
349.43	227.08
349.81	227.10
350.19	227.16
350.57	227.24
350.96	227.35
351.34	227.43
351.72	227.44
352.10	227.52
352.48	227.59
352.87	227.62
353.25	227.67
353.63	227.72
354.01	227.81
354.39	227.89
354.77	227.95
355.15	228.06
355.54	228.12
355.92	228.11
356.30	228.20
356.68	228.33
357.06	228.40
357.44	228.46
357.82	228.52
358.20	228.56
358.58	228.62
358.97	228.66
359.35	228.76
359.73	228.88
360.11	228.95
360.49	229.01
360.87	229.06
361.25	229.16
361.63	229.24
362.01	229.26
362.39	229.29
362.77	229.33
363.15	229.34
363.53	229.35
363.91	229.39
364.29	229.39
364.67	229.29
365.05	229.30
365.43	229.32
365.81	229.38
366.19	229.40
366.57	229.41
366.95	229.40
367.33	229.33
367.71	229.32
368.09	229.30
368.47	229.30
368.85	229.27
369.23	229.24
369.61	229.18
369.99	229.15
370.37	229.12
370.75	229.12
371.13	229.04
371.51	229.02
371.89	228.99
372.27	228.95
372.65	228.92
373.03	228.90
373.41	228.82
373.78	228.71
374.16	228.64
374.54	228.54
374.92	228.47
375.30	228.44
375.68	228.34
376.06	228.28
376.44	228.19
376.82	228.11
377.19	228.06
377.57	228.00
377.95	227.90
378.33	227.82
378.71	227.70
379.09	227.65
379.47	227.58
379.84	227.49
380.22	227.42
380.60	227.33
380.98	227.26
381.36	227.21
381.73	227.14
382.11	227.08
382.49	227.05
382.87	226.96
383.25	226.88
383.62	226.93
384.00	226.84
384.38	226.79
384.76	226.78
385.13	226.72
385.51	226.67
385.89	226.66
386.27	226.63
386.64	226.60
387.02	226.55
387.40	226.50
387.78	226.48
388.15	226.45
388.53	226.39
388.91	226.37
389.29	226.32
389.66	226.35
390.04	226.33
390.42	226.30
390.79	226.28
391.17	226.30
391.55	226.17
391.92	226.17
392.30	226.21
392.68	226.16
393.05	226.18
393.43	226.17
393.81	226.17
394.18	226.14
394.56	226.16
394.94	226.22
395.31	226.24
395.69	226.27
396.06	226.32
396.44	226.40
396.82	226.40
397.19	226.50
397.57	226.49
397.95	226.54
398.32	226.57
398.70	226.64
399.07	226.71
399.45	226.80
399.82	226.86
400.20	226.91
400.58	227.01
400.95	227.02
401.33	227.13
401.70	227.30
402.08	227.41
402.45	227.49
402.83	227.60
403.20	227.72
403.58	227.85
403.95	227.96
404.33	228.08
404.71	228.22
405.08	228.38
405.46	228.52
405.83	228.67
406.21	228.82
406.58	228.98
406.96	229.14
407.33	229.31
407.70	229.50
408.08	229.76
408.45	229.98
408.83	230.24
409.20	230.43
409.58	230.58
409.95	230.86
410.33	231.15
410.70	231.41
411.08	231.67
411.45	231.97
411.82	232.28
412.20	232.62
412.57	233.02
412.95	233.34
413.32	233.75
413.69	234.14
414.07	234.58
414.44	235.03
414.82	235.47
415.19	236.00
415.56	236.54
415.94	237.09
416.31	237.72
416.68	238.33
417.06	239.05
417.43	239.73
417.81	240.48
418.18	241.26
418.55	242.06
418.93	242.92
419.30	243.80
419.67	244.72
420.04	245.68
420.42	246.70
420.79	247.86
421.16	249.02
421.54	250.22
421.91	251.42
422.28	252.69
422.66	254.04
423.03	255.34
423.40	256.67
423.77	258.05
424.15	259.46
424.52	260.94
424.89	262.55
425.26	264.11
425.64	265.52
426.01	267.09
426.38	268.76
426.75	270.46
427.13	272.20
427.50	273.99
427.87	275.85
428.24	277.68
428.61	279.41
428.99	281.36
429.36	283.47
429.73	285.50
430.10	287.56
430.47	289.61
430.85	291.78
431.22	294.03
431.59	296.44
431.96	298.67
432.33	301.17
432.70	303.57
433.08	306.41
433.45	309.11
433.82	311.73
434.19	314.65
434.56	317.46
434.93	320.11
435.30	322.77
435.68	325.67
436.05	328.51
436.42	331.33
436.79	333.81
437.16	336.52
437.53	339.44
437.90	342.18
438.27	344.95
438.64	347.78
439.01	350.40
439.38	352.60
439.75	354.82
440.13	357.35
440.50	359.63
440.87	361.47
441.24	363.41
441.61	365.59
441.98	367.03
442.35	368.82
442.72	370.66
443.09	372.42
443.46	373.41
443.83	373.97
444.20	374.47
444.57	375.29
444.94	375.59
445.31	375.91
445.68	376.27
446.05	376.30
446.42	375.85
446.79	375.39
447.16	374.99
447.53	374.63
447.90	373.41
448.27	372.30
448.64	370.70
449.01	369.49
449.37	367.51
449.74	365.62
450.11	363.35
450.48	360.90
450.85	358.37
451.22	356.24
451.59	354.23
451.96	352.29
452.33	349.73
452.70	347.31
453.07	344.44
453.43	341.56
453.80	338.83
454.17	336.17
454.54	333.61
454.91	330.84
455.28	328.18
455.65	325.67
456.02	323.19
456.38	321.03
456.75	318.41
457.12	316.16
457.49	313.93
457.86	311.77
458.23	309.91
458.59	307.84
458.96	305.74
459.33	303.92
459.70	302.06
460.07	300.55
460.43	298.86
460.80	297.23
461.17	295.80
461.54	294.32
461.91	292.90
462.27	291.47
462.64	290.25
463.01	288.89
463.38	287.63
463.74	286.23
464.11	285.10
464.48	284.09
464.85	283.00
465.21	282.14
465.58	281.22
465.95	280.13
466.32	279.28
466.68	278.37
467.05	277.45
467.42	276.58
467.78	275.65
468.15	274.81
468.52	274.15
468.88	273.34
469.25	272.55
469.62	271.95
469.98	271.30
470.35	270.69
470.72	270.05
471.08	269.42
471.45	268.92
471.82	268.36
472.18	267.72
472.55	267.25
472.92	266.73
473.28	266.26
473.65	265.84
474.02	265.38
474.38	265.05
474.75	264.73
475.11	264.39
475.48	264.13
475.85	263.89
476.21	263.68
476.58	263.50
476.94	263.36
477.31	263.17
477.67	263.04
478.04	262.91
478.41	262.88
478.77	262.88
479.14	262.84
479.50	262.86
479.87	262.98
480.23	263.09
480.60	263.16
480.96	263.27
481.33	263.49
481.69	263.70
482.06	263.89
482.42	264.11
482.79	264.34
483.15	264.66
483.52	265.04
483.88	265.43
484.25	265.81
484.61	266.25
484.98	266.69
485.34	267.23
485.71	267.85
486.07	268.47
486.44	269.07
486.80	269.76
487.17	270.51
487.53	271.31
487.90	272.12
488.26	273.11
488.62	274.14
488.99	275.09
489.35	276.11
489.72	277.23
490.08	278.45
490.44	279.71
490.81	281.05
491.17	282.39
491.54	283.85
491.90	285.38
492.26	287.00
492.63	288.76
492.99	290.53
493.36	292.42
493.72	294.48
494.08	296.57
494.45	298.84
494.81	301.17
495.17	303.58
495.54	306.16
495.90	308.83
496.26	311.59
496.63	314.53
496.99	317.66
497.35	320.92
497.72	324.29
498.08	327.78
498.44	331.43
498.80	335.33
499.17	339.37
499.53	343.58
499.89	347.98
500.26	352.48
500.62	357.18
500.98	362.15
501.34	367.20
501.71	372.52
502.07	377.93
502.43	383.57
502.79	389.43
503.16	395.52
503.52	401.77
503.88	408.19
504.24	414.84
504.60	421.77
504.97	428.90
505.33	436.21
505.69	443.92
506.05	451.69
506.41	459.61
506.78	467.78
507.14	476.20
507.50	484.91
507.86	493.97
508.22	503.15
508.59	512.33
508.95	521.93
509.31	531.75
509.67	541.88
510.03	552.11
510.39	562.63
510.75	573.46
511.12	584.39
511.48	595.69
511.84	607.15
512.20	618.60
512.56	630.51
512.92	642.72
513.28	655.11
513.64	667.69
514.00	680.40
514.37	693.34
514.73	706.40
515.09	719.47
515.45	732.74
515.81	746.30
516.17	760.36
516.53	774.49
516.89	788.63
517.25	802.74
517.61	817.18
517.97	831.71
518.33	846.09
518.69	860.83
519.05	875.80
519.41	891.01
519.77	906.62
520.13	922.04
520.49	937.45
520.85	952.89
521.21	968.55
521.57	984.82
521.93	1000.53
522.29	1016.92
522.65	1033.15
523.01	1049.33
523.37	1065.35
523.73	1081.42
524.09	1097.54
524.45	1113.85
524.81	1130.48
525.17	1147.38
525.53	1164.17
525.89	1181.09
526.25	1197.98
526.61	1214.30
526.97	1231.01
527.33	1247.36
527.68	1264.08
528.04	1280.56
528.40	1297.07
528.76	1314.13
529.12	1330.63
529.48	1347.49
529.84	1363.46
530.20	1380.06
530.56	1397.19
530.91	1414.70
531.27	1431.46
531.63	1447.85
531.99	1464.42
532.35	1480.35
532.71	1496.08
533.07	1512.29
533.42	1528.10
533.78	1544.24
534.14	1560.57
534.50	1575.83
534.86	1591.78
535.21	1606.85
535.57	1622.79
535.93	1638.29
536.29	1652.93
536.65	1667.95
537.00	1682.71
537.36	1697.87
537.72	1712.35
538.08	1726.58
538.44	1740.25
538.79	1754.12
539.15	1767.76
539.51	1781.36
539.87	1795.67
540.22	1809.37
540.58	1823.18
540.94	1836.48
541.29	1849.11
541.65	1861.74
542.01	1874.91
542.37	1887.03
542.72	1899.36
543.08	1911.02
543.44	1923.31
543.79	1934.66
544.15	1945.75
544.51	1957.27
544.87	1968.27
545.22	1979.01
545.58	1989.22
545.94	1998.88
546.29	2008.64
546.65	2018.47
547.01	2027.79
547.36	2036.52
547.72	2044.94
548.07	2052.65
548.43	2060.71
548.79	2068.86
549.14	2076.41
549.50	2083.79
549.86	2091.55
550.21	2098.86
550.57	2106.05
550.92	2112.57
551.28	2119.43
551.64	2126.28
551.99	2132.87
552.35	2139.06
552.70	2145.22
553.06	2151.14
553.41	2157.58
553.77	2163.79
554.13	2169.88
554.48	2176.06
554.84	2181.43
555.19	2186.84
555.55	2192.13
555.90	2196.67
556.26	2201.43
556.61	2206.24
556.97	2210.50
557.32	2214.59
557.68	2218.73
558.03	2222.91
558.39	2226.73
558.74	2231.55
559.10	2235.47
559.45	2239.03
559.81	2243.36
560.16	2247.23
560.52	2250.55
560.87	2253.95
561.23	2256.54
561.58	2259.48
561.94	2262.03
562.29	2264.51
562.64	2267.18
563.00	2269.74
563.35	2273.23
563.71	2276.37
564.06	2279.56
564.42	2282.36
564.77	2284.89
565.12	2287.24
565.48	2289.24
565.83	2291.11
566.19	2292.24
566.54	2293.03
566.89	2294.26
567.25	2294.76
567.60	2295.97
567.96	2297.63
568.31	2298.40
568.66	2299.45
569.02	2300.02
569.37	2300.28
569.72	2301.15
570.08	2301.21
570.43	2301.36
570.78	2300.90
571.14	2299.49
571.49	2298.10
571.84	2297.91
572.20	2296.83
572.55	2295.65
572.90	2294.12
573.26	2292.79
573.61	2291.19
573.96	2289.62
574.31	2286.57
574.67	2283.61
575.02	2280.19
575.37	2276.93
575.72	2273.24
576.08	2270.01
576.43	2266.71
576.78	2263.08
577.13	2259.88
577.49	2256.92
577.84	2253.38
578.19	2249.60
578.54	2245.99
578.90	2241.72
579.25	2236.07
579.60	2231.16
579.95	2226.32
580.30	2221.41
580.66	2216.23
581.01	2211.55
581.36	2206.60
581.71	2202.54
582.06	2198.13
582.42	2193.48
582.77	2188.09
583.12	2183.49
583.47	2178.71
583.82	2173.65
584.17	2168.50
584.53	2163.04
584.88	2157.41
585.23	2151.47
585.58	2146.13
585.93	2140.78
586.28	2136.11
586.63	2131.17
586.98	2126.19
587.34	2121.46
587.69	2116.60
588.04	2111.30
588.39	2105.44
588.74	2099.01
589.09	2092.76
589.44	2085.97
589.79	2080.28
590.14	2074.87
590.49	2068.35
590.84	2062.05
591.19	2056.01
591.54	2049.53
591.89	2042.13
592.25	2035.38
592.60	2028.33
592.95	2020.68
593.30	2013.15
593.65	2005.60
594.00	1998.59
594.35	1991.27
594.70	1983.21
595.05	1975.86
595.40	1968.68
595.75	1961.23
596.10	1955.12
596.45	1948.43
596.80	1942.30
597.15	1935.45
597.50	1928.14
597.85	1921.86
598.19	1915.18
598.54	1908.16
598.89	1901.40
599.24	1895.57
599.59	1888.76
599.94	1882.69
600.29	1876.32
600.64	1869.74
600.99	1862.16
601.34	1855.29
601.69	1848.46
602.04	1841.61
602.39	1834.21
602.74	1827.34
603.08	1820.50
603.43	1813.64
603.78	1806.33
604.13	1799.11
604.48	1791.73
604.83	1784.96
605.18	1777.79
605.53	1769.67
605.87	1761.69
606.22	1754.55
606.57	1746.57
606.92	1739.33
607.27	1732.02
607.62	1725.10
607.96	1717.83
608.31	1711.30
608.66	1703.63
609.01	1695.96
609.36	1688.39
609.70	1680.36
610.05	1672.31
610.40	1664.58
610.75	1656.18
611.10	1648.46
611.44	1640.04
611.79	1632.12
612.14	1623.37
612.49	1614.21
612.83	1605.96
613.18	1597.85
613.53	1589.70
613.88	1581.09
614.22	1572.68
614.57	1564.03
614.92	1555.98
615.27	1548.36
615.61	1539.91
615.96	1531.85
616.31	1524.20
616.65	1516.84
617.00	1509.30
617.35	1501.61
617.70	1493.36
618.04	1484.97
618.39	1476.85
618.74	1469.26
619.08	1460.95
619.43	1453.44
619.78	1446.50
620.12	1439.15
620.47	1431.48
620.82	1423.30
621.16	1416.08
621.51	1408.52
621.85	1400.94
622.20	1392.41
622.55	1384.04
622.89	1376.21
623.24	1368.58
623.59	1361.19
623.93	1353.67
624.28	1346.55
624.62	1339.04
624.97	1331.87
625.32	1325.11
625.66	1318.07
626.01	1310.94
626.35	1303.52
626.70	1295.77
627.04	1288.02
627.39	1280.27
627.73	1272.95
628.08	1266.03
628.43	1258.66
628.77	1251.40
629.12	1243.87
629.46	1236.75
629.81	1229.45
630.15	1222.31
630.50	1214.94
630.84	1206.75
631.19	1198.89
631.53	1191.30
631.88	1183.67
632.22	1176.01
632.57	1168.75
632.91	1161.17
633.26	1153.70
633.60	1146.35
633.95	1139.28
634.29	1132.32
634.64	1125.73
634.98	1118.42
635.32	1111.30
635.67	1104.75
636.01	1097.97
636.36	1091.07
636.70	1084.51
637.05	1077.88
637.39	1071.47
637.73	1064.99
638.08	1059.07
638.42	1052.96
638.77	1046.49
639.11	1039.87
639.45	1033.52
639.80	1026.80
640.14	1020.33
640.49	1013.83
640.83	1007.40
641.17	1001.06
641.52	994.65
641.86	988.18
642.20	982.23
642.55	975.99
642.89	969.46
643.23	962.95
643.58	957.21
643.92	951.02
644.26	944.97
644.61	938.89
644.95	932.70
645.29	926.15
645.64	919.42
645.98	913.08
646.32	907.31
646.66	901.25
647.01	895.40
647.35	889.76
647.69	883.86
648.04	878.45
648.38	872.69
648.72	866.74
649.06	860.74
649.41	854.88
649.75	848.91
650.09	842.94
650.43	837.18
650.78	830.93
651.12	824.91
651.46	819.11
651.80	813.33
652.14	808.06
652.49	802.64
652.83	797.52
653.17	791.78
653.51	786.04
653.85	780.62
654.20	774.98
654.54	768.95
654.88	763.25
655.22	757.29
655.56	751.62
655.90	746.18
656.25	740.91
656.59	735.48
656.93	730.32
657.27	725.11
657.61	719.61
657.95	714.60
658.29	709.55
658.64	704.38
658.98	699.12
659.32	693.63
659.66	688.46
660.00	683.10
660.34	678.19
660.68	673.29
661.02	668.27
661.36	663.55
661.70	659.13
662.05	654.75
662.39	650.44
662.73	645.95
663.07	641.57
663.41	637.03
663.75	632.60
664.09	628.01
664.43	623.67
664.77	619.57
665.11	615.24
665.45	611.14
665.79	607.00
666.13	602.80
666.47	598.73
666.81	594.55
667.15	590.44
667.49	586.56
667.83	582.76
668.17	578.84
668.51	574.74
668.85	570.64
669.19	566.78
669.53	562.95
669.87	559.07
670.21	555.36
670.55	551.81
670.89	548.40
671.23	544.99
671.57	541.45
671.91	537.91
672.25	534.50
672.58	530.91
672.92	527.53
673.26	524.40
673.60	521.29
673.94	518.12
674.28	515.21
674.62	512.26
674.96	509.08
675.30	506.12
675.64	503.23
675.97	500.48
676.31	497.59
676.65	494.63
676.99	491.90
677.33	489.09
677.67	486.23
678.01	483.17
678.34	480.20
678.68	477.32
679.02	474.54
679.36	471.71
679.70	469.05
680.04	466.22
680.37	463.32
680.71	460.48
681.05	457.85
681.39	455.13
681.73	452.48
682.06	449.95
682.40	447.43
682.74	444.87
683.08	442.36
683.42	439.75
683.75	437.28
684.09	434.78
684.43	432.21
684.77	429.73
685.10	427.40
685.44	425.06
685.78	422.77
686.12	420.51
686.45	418.26
686.79	415.93
687.13	413.78
687.46	411.62
687.80	409.49
688.14	407.33
688.48	405.22
688.81	402.99
689.15	400.82
689.49	398.69
689.82	396.62
690.16	394.52
690.50	392.57
690.83	390.63
691.17	388.62
691.51	386.77
691.84	384.95
692.18	383.01
692.52	381.03
692.85	379.13
693.19	377.18
693.52	375.37
693.86	373.55
694.20	371.75
694.53	369.94
694.87	368.05
695.21	366.23
695.54	364.43
695.88	362.68
696.21	361.00
696.55	359.31
696.88	357.61
697.22	355.92
697.56	354.32
697.89	352.65
698.23	351.03
698.56	349.43
698.90	347.81
699.23	346.16
699.57	344.66
699.90	343.12
700.24	341.65
700.58	340.08
700.91	338.63
701.25	337.23
701.58	335.88
701.92	334.50
702.25	333.13
702.59	331.75
702.92	330.46
703.26	329.16
703.59	327.87
703.93	326.68
704.26	325.48
704.60	324.16
704.93	322.91
705.26	321.69
705.60	320.48
705.93	319.32
706.27	318.28
706.60	317.20
706.94	316.09
707.27	314.96
707.61	313.92
707.94	312.86
708.27	311.74
708.61	310.65
708.94	309.67
709.28	308.73
709.61	307.84
709.94	306.88
710.28	305.85
710.61	304.87
710.95	303.82
711.28	302.88
711.61	301.91
711.95	301.02
712.28	300.08
712.61	299.08
712.95	298.18
713.28	297.32
713.61	296.44
713.95	295.56
714.28	294.71
714.61	293.84
714.95	293.02
715.28	292.17
715.61	291.30
715.95	290.45
716.28	289.57
716.61	288.68
716.95	287.86
717.28	287.12
717.61	286.35
717.94	285.59
718.28	284.78
718.61	284.12
718.94	283.42
719.27	282.68
719.61	282.05
719.94	281.35
720.27	280.62
720.60	279.94
720.94	279.32
721.27	278.75
721.60	278.17
721.93	277.54
722.27	277.01
722.60	276.45
722.93	275.87
723.26	275.33
723.59	274.78
723.93	274.21
724.26	273.63
724.59	273.08
724.92	272.54
725.25	272.01
725.59	271.43
725.92	270.91
726.25	270.44
726.58	269.93
726.91	269.42
727.24	268.95
727.57	268.47
727.91	267.97
728.24	267.47
728.57	266.97
728.90	266.53
729.23	266.01
729.56	265.58
729.89	265.11
730.22	264.61
730.55	264.15
730.89	263.73
731.22	263.31
731.55	262.86
731.88	262.43
732.21	262.02
732.54	261.58
732.87	261.10
733.20	260.72
733.53	260.34
733.86	259.98
734.19	259.55
734.52	259.18
734.85	258.85
735.18	258.42
735.51	258.05
735.84	257.65
736.17	257.30
736.50	256.89
736.83	256.65
737.16	256.32
737.49	255.99
737.82	255.62
738.15	255.28
738.48	254.94
738.81	254.61
739.14	254.29
739.47	254.02
739.80	253.74
740.13	253.39
740.46	253.06
740.79	252.71
741.12	252.41
741.45	252.08
741.78	251.73
742.11	251.48
742.44	251.18
742.77	250.91
743.10	250.61
743.43	250.31
743.75	249.94
744.08	249.80
744.41	249.52
744.74	249.27
745.07	249.00
745.40	248.77
745.73	248.55
746.06	248.30
746.39	248.01
746.71	247.75
747.04	247.51
747.37	247.26
747.70	247.04
748.03	246.80
748.36	246.58
748.68	246.35
749.01	246.08
749.34	245.86
749.67	245.64
750.00	245.41
750.33	245.28
750.65	245.06
750.98	244.74
751.31	244.51
751.64	244.30
751.97	244.13
752.29	243.93
752.62	243.70
752.95	243.46
753.28	243.27
753.60	243.07
753.93	242.91
754.26	242.70
754.59	242.49
754.91	242.31
755.24	242.10
755.57	241.93
755.90	241.78
756.22	241.60
756.55	241.38
756.88	241.22
757.20	240.97
757.53	240.77
757.86	240.59
758.19	240.46
758.51	240.31
758.84	240.16
759.17	239.98
759.49	239.81
759.82	239.74
760.15	239.57
760.47	239.41
760.80	239.23
761.13	239.09
761.45	238.95
761.78	238.78
762.11	238.68
762.43	238.54
762.76	238.38
763.08	238.22
763.41	238.14
763.74	238.01
764.06	237.88
764.39	237.75
764.71	237.60
765.04	237.44
765.37	237.27
765.69	237.12
766.02	236.98
766.34	236.82
766.67	236.63
767.00	236.54
767.32	236.50
767.65	236.47
767.97	236.36
768.30	236.23
768.62	236.15
768.95	235.98
769.27	235.83
769.60	235.74
769.92	235.63
770.25	235.50
770.57	235.38
770.90	235.26
771.22	235.15
771.55	235.05
771.87	234.94
772.20	234.85
772.52	234.81
772.85	234.83
773.17	234.75
773.50	234.65
773.82	234.53
774.15	234.35
774.47	234.18
774.80	234.09
775.12	233.99
775.45	233.86
775.77	233.76
776.09	233.72
776.42	233.62
776.74	233.55
777.07	233.46
777.39	233.37
777.72	233.30
778.04	233.24
778.36	233.16
778.69	233.11
779.01	233.06
779.33	232.91
779.66	232.75
779.98	232.64
780.31	232.61
780.63	232.60
780.95	232.56
781.28	232.48
781.60	232.41
781.92	232.36
782.25	232.30
782.57	232.27
782.89	232.21
783.22	232.14
783.54	232.10
783.86	232.03
784.19	231.98
784.51	231.97
784.83	231.89
785.16	231.86
785.48	231.80
785.80	231.74
786.12	231.68
786.45	231.63
786.77	231.58
787.09	231.49
787.42	231.39
787.74	231.35
788.06	231.34
788.38	231.28
788.71	231.22
789.03	231.21
789.35	231.18
789.67	231.14
789.99	231.09
790.32	231.05
790.64	231.01
790.96	231.06
791.28	230.97
791.61	230.94
791.93	230.89
792.25	230.83
792.57	230.87
792.89	230.80
793.21	230.78
793.54	230.76
793.86	230.76
794.18	230.74
794.50	230.71
794.82	230.71
795.14	230.70
795.47	230.70
795.79	230.63
796.11	230.56
796.43	230.53
796.75	230.47
797.07	230.40
797.39	230.36
797.71	230.28
798.04	230.25
798.36	230.20
798.68	230.17
799.00	230.15
799.32	230.06
799.64	230.06
799.96	230.02
800.28	230.02
800.60	229.98
800.92	229.90
801.24	229.82
801.56	229.75
801.89	229.73
802.21	229.71
802.53	229.70
802.85	229.68
803.17	229.69
803.49	229.67
803.81	229.68
804.13	229.64
804.45	229.58
804.77	229.57
805.09	229.56
805.41	229.53
805.73	229.49
806.05	229.43
806.37	229.37
806.69	229.35
807.01	229.30
807.33	229.28
807.65	229.25
807.97	229.30
808.28	229.30
808.60	229.26
808.92	229.21
809.24	229.24
809.56	229.22
809.88	229.14
810.20	229.12
810.52	229.10
810.84	229.08
811.16	229.04
811.48	228.99
811.80	228.98
812.12	228.92
812.43	228.90
812.75	228.90
813.07	228.87
813.39	228.83
813.71	228.82
814.03	228.81
814.35	228.79
814.67	228.70
814.98	228.64
815.30	228.59
815.62	228.54
815.94	228.42
816.26	228.45
816.58	228.42
816.89	228.42
817.21	228.36
817.53	228.37
817.85	228.38
818.17	228.36
818.48	228.32
818.80	228.36
819.12	228.33
819.44	228.33
819.76	228.34
820.07	228.32
820.39	228.26
820.71	228.24
821.03	228.21
821.34	228.20
821.66	228.18
821.98	228.19
822.30	228.18
822.61	228.26
822.93	228.18
823.25	228.19
823.57	228.16
823.88	228.19
824.20	228.17
824.52	228.13
824.83	228.11
825.15	228.08
825.47	228.05
825.79	228.07
826.10	228.03
826.42	228.02
826.74	228.03
827.05	228.05
827.37	228.02
827.69	228.04
828.00	228.06
828.32	228.09
828.64	228.06
828.95	228.09
829.27	228.05
829.58	228.10
829.90	228.08
830.22	228.08
830.53	228.05
830.85	228.04
831.17	228.02
831.48	228.03
831.80	228.05
832.11	228.06
832.43	228.04
832.75	228.04
833.06	228.08
833.38	228.08
833.69	228.06
834.01	228.06
834.32	228.07
834.64	228.05
834.96	228.03
835.27	228.05
835.59	228.05
835.90	228.01
836.22	227.96
836.53	227.94
836.85	227.90
837.16	228.00
837.48	227.98
837.79	228.01
838.11	228.02
838.42	227.99
838.74	228.01
839.05	228.02
839.37	228.00
839.68	227.93
840.00	227.91
840.31	227.91
840.63	227.90
840.94	227.87
841.26	227.85
841.57	227.85
841.88	227.83
842.20	227.81
842.51	227.80
842.83	227.80
843.14	227.91
843.46	227.91
843.77	227.84
844.08	227.82
844.40	227.81
844.71	227.75
845.03	227.74
845.34	227.71
845.65	227.67
845.97	227.66
846.28	227.65
846.60	227.66
846.91	227.67
847.22	227.69
847.54	227.67
847.85	227.66
848.16	227.63
848.48	227.63
848.79	227.64
849.10	227.64
849.42	227.64
849.73	227.51
850.04	227.50
850.36	227.44
850.67	227.45
850.98	227.45
851.30	227.44
851.61	227.44
851.92	227.42
852.23	227.49
852.55	227.49
852.86	227.50
853.17	227.47
853.49	227.46
853.80	227.48
854.11	227.52
854.42	227.54
854.74	227.53
855.05	227.52
855.36	227.47
855.67	227.47
855.99	227.48
856.30	227.61
856.61	227.62
856.92	227.63
857.23	227.62
857.55	227.57
857.86	227.58
858.17	227.57
858.48	227.52
858.79	227.47
859.11	227.49
859.42	227.47
859.73	227.46
860.04	227.46
860.35	227.42
860.66	227.39
860.98	227.36
861.29	227.34
861.60	227.34
861.91	227.37
862.22	227.37
862.53	227.35
862.84	227.22
863.16	227.25
863.47	227.25
863.78	227.25
864.09	227.29
864.40	227.31
864.71	227.35
865.02	227.38
865.33	227.36
865.64	227.33
865.95	227.34
866.27	227.42
866.58	227.40
866.89	227.41
867.20	227.42
867.51	227.41
867.82	227.42
868.13	227.43
868.44	227.39
868.75	227.40
869.06	227.38
869.37	227.37
869.68	227.35
869.99	227.40
870.30	227.41
870.61	227.41
870.92	227.41
871.23	227.40
871.54	227.41
871.85	227.47
872.16	227.50
872.47	227.49
872.78	227.45
873.09	227.46
873.40	227.45
873.71	227.43
874.02	227.44
874.33	227.43
874.64	227.40
874.95	227.39
875.26	227.37
875.56	227.36
875.87	227.38
876.18	227.37
876.49	227.44
876.80	227.41
877.11	227.40
877.42	227.39
877.73	227.37
878.04	227.35
878.35	227.35
878.66	227.33
878.96	227.32
879.27	227.29
879.58	227.30
879.89	227.27
880.20	227.28
880.51	227.25
880.82	227.27
881.12	227.27
881.43	227.26
881.74	227.28
882.05	227.30
882.36	227.29
882.67	227.29
882.97	227.17
883.28	227.16
883.59	227.12
883.90	227.10
884.21	227.09
884.51	227.11
884.82	227.06
885.13	227.04
885.44	227.03
885.74	227.02
886.05	226.99
886.36	227.02
886.67	227.01
886.98	227.09
887.28	227.08
887.59	227.06
887.90	227.09
888.20	227.04
888.51	227.03
888.82	226.98
889.13	226.99
889.43	227.06
889.74	227.05
890.05	227.08
890.35	227.09
890.66	227.08
890.97	227.06
891.28	227.05
891.58	227.05
891.89	227.07
892.20	227.05
892.50	227.04
892.81	227.01
893.12	227.00
893.42	226.94
893.73	226.92
894.04	226.95
894.34	226.94
894.65	226.97
894.95	226.95
895.26	226.98
895.57	227.00
895.87	226.90
896.18	226.92
896.48	226.91
896.79	226.89
897.10	226.90
897.40	226.88
897.71	226.87
898.01	226.86
898.32	226.83
898.63	226.83
898.93	226.84
899.24	226.84
899.54	226.82
899.85	226.80
900.15	226.82
900.46	226.80
900.76	226.78
901.07	226.75
901.38	226.74
901.68	226.76
901.99	226.71
902.29	226.74
902.60	226.73
902.90	226.71
903.21	226.69
903.51	226.72
903.82	226.77
904.12	226.77
904.43	226.79
904.73	226.79
905.03	226.77
905.34	226.83
905.64	226.84
905.95	226.82
906.25	226.80
906.56	226.77
906.86	226.76
907.17	226.74
907.47	226.76
907.77	226.77
908.08	226.70
908.38	226.72
908.69	226.69
908.99	226.72
909.30	226.72
909.60	226.73
909.90	226.70
910.21	226.67
910.51	226.67
910.81	226.68
911.12	226.67
911.42	226.70
911.73	226.62
912.03	226.62
912.33	226.63
912.64	226.65
912.94	226.66
913.24	226.65
913.55	226.64
913.85	226.61
914.15	226.64
914.46	226.67
914.76	226.65
915.06	226.67
915.37	226.64
915.67	226.64
915.97	226.65
916.27	226.62
916.58	226.63
916.88	226.63
917.18	226.61
917.49	226.71
917.79	226.73
918.09	226.75
918.39	226.75
918.70	226.78
919.00	226.80
919.30	226.83
919.60	226.83
919.91	226.85
920.21	226.85
920.51	226.84
920.81	226.86
921.12	226.90
921.42	226.90
921.72	226.91
922.02	226.92
922.32	226.90
922.63	226.93
922.93	226.99
923.23	226.97
923.53	226.97
923.83	226.91
924.13	226.88
924.44	226.90
924.74	226.92
925.04	226.94
925.34	226.95
925.64	226.88
925.94	226.93
926.24	226.99
926.55	227.01
926.85	226.99
927.15	227.02
927.45	226.98
927.75	226.97
928.05	226.96
928.35	226.96
928.65	227.03
928.95	227.03
929.26	226.99
929.56	227.03
929.86	227.05
930.16	227.04
930.46	227.04
930.76	227.03
931.06	227.01
931.36	226.95
931.66	226.95
931.96	227.01
932.26	226.99
932.56	226.97
932.86	226.98
933.16	226.98
933.46	226.95
933.76	226.98
934.06	226.95
934.36	227.00
934.66	226.97
934.96	226.93
935.26	226.91
935.56	226.89
935.86	226.84
936.16	226.81
936.46	226.82
936.76	226.80
937.06	226.77
937.36	226.77
937.66	226.78
937.96	226.76
938.26	226.75
938.56	226.72
938.86	226.71
939.16	226.72
939.46	226.73
939.76	226.72
940.06	226.70
940.35	226.71
940.65	226.66
940.95	226.69
941.25	226.65
941.55	226.65
941.85	226.67
942.15	226.71
942.45	226.74
942.75	226.71
943.04	226.71
943.34	226.75
943.64	226.75
943.94	226.75
944.24	226.76
944.54	226.76
944.84	226.78
945.13	226.77
945.43	226.76
945.73	226.78
946.03	226.77
946.33	226.74
946.62	226.77
946.92	226.80
947.22	226.80
947.52	226.82
947.82	226.83
948.11	226.81
948.41	226.75
948.71	226.72
949.01	226.71
949.31	226.70
949.60	226.68
949.90	226.70
950.20	226.73
950.50	226.73
950.79	226.71
951.09	226.70
951.39	226.70
951.69	226.66
951.98	226.68
952.28	226.70
952.58	226.73
952.87	226.72
953.17	226.69
953.47	226.67
953.76	226.64
954.06	226.65
954.36	226.62
954.66	226.66
954.95	226.68
955.25	226.71
955.55	226.74
955.84	226.73
956.14	226.71
956.44	226.66
956.73	226.65
957.03	226.67
957.32	226.68
957.62	226.66
957.92	226.70
958.21	226.65
958.51	226.71
958.81	226.71
959.10	226.76
959.40	226.80
959.69	226.81
959.99	226.88
960.29	226.88
960.58	226.89
960.88	226.92
961.17	226.91
961.47	226.92
961.76	226.90
962.06	226.91
962.36	226.93
962.65	226.96
962.95	226.97
963.24	226.95
963.54	226.98
963.83	227.00
964.13	226.99
964.42	226.98
964.72	226.93
965.01	226.92
965.31	226.86
965.60	226.79
965.90	226.85
966.19	226.81
966.49	226.79
966.78	226.82
967.08	226.82
967.37	226.82
967.67	226.81
967.96	226.85
968.26	226.86
968.55	226.86
968.85	226.84
969.14	226.81
969.43	226.82
969.73	226.78
970.02	226.77
970.32	226.76
970.61	226.74
970.91	226.71
971.20	226.70
971.49	226.71
971.79	226.74
972.08	226.65
972.38	226.63
972.67	226.62
972.96	226.63
973.26	226.61
973.55	226.62
973.85	226.63
974.14	226.62
974.43	226.60
974.73	226.58
975.02	226.56
975.31	226.59
975.61	226.56
975.90	226.54
976.19	226.55
976.49	226.56
976.78	226.56
977.07	226.54
977.37	226.54
977.66	226.56
977.95	226.55
978.24	226.58
978.54	226.61
978.83	226.58
979.12	226.56
979.42	226.53
979.71	226.54
980.00	226.53
980.29	226.52
980.59	226.53
980.88	226.56
981.17	226.58
981.46	226.57
981.76	226.59
982.05	226.61
982.34	226.62
982.63	226.66
982.93	226.67
983.22	226.71
983.51	226.70
983.80	226.72
984.09	226.76
984.39	226.75
984.68	226.74
984.97	226.74
985.26	226.71
985.55	226.74
985.85	226.70
986.14	226.69
986.43	226.68
986.72	226.62
987.01	226.59
987.30	226.59
987.59	226.60
987.89	226.59
988.18	226.57
988.47	226.57
988.76	226.50
989.05	226.49
989.34	226.46
989.63	226.48
989.92	226.45
990.22	226.44
990.51	226.41
990.80	226.39
991.09	226.43
991.38	226.46
991.67	226.45
991.96	226.43
992.25	226.45
992.54	226.44
992.83	226.46
993.12	226.48
993.41	226.46
993.70	226.50
993.99	226.56
994.28	226.61
994.58	226.62
994.87	226.63
995.16	226.66
995.45	226.70
995.74	226.69
996.03	226.71
996.32	226.73
996.61	226.77
996.90	226.79
997.19	226.78
997.48	226.80
997.77	226.79
998.06	226.81
998.34	226.78
998.63	226.80
998.92	226.85
999.21	226.87
999.50	226.89
999.79	226.83
1000.08	226.83
1000.37	226.82
1000.66	226.82
1000.95	226.83
1001.24	226.82
1001.53	226.83
1001.82	226.84
1002.11	226.81
1002.40	226.81
1002.68	226.84
1002.97	226.93
1003.26	226.93
1003.55	226.96
1003.84	226.99
1004.13	227.02
1004.42	227.05
1004.71	227.05
1004.99	227.02
1005.28	227.03
1005.57	227.04
1005.86	227.04
1006.15	226.99
1006.44	226.96
1006.72	226.92
1007.01	226.93
1007.30	226.92
1007.59	226.91
1007.88	226.93
1008.17	226.96
1008.45	226.92
1008.74	226.89
1009.03	226.87
1009.32	226.85
1009.60	226.82
1009.89	226.82
1010.18	226.77
1010.47	226.77
1010.76	226.75
1011.04	226.74
1011.33	226.76
1011.62	226.75
1011.91	226.79
1012.19	226.80
1012.48	226.83
1012.77	226.86
1013.05	226.90
1013.34	226.92
1013.63	226.88
1013.92	226.83
1014.20	226.78
1014.49	226.80
1014.78	226.79
1015.06	226.72
1015.35	226.71
1015.64	226.73
1015.92	226.71
1016.21	226.72
1016.50	226.69
1016.78	226.72
1017.07	226.72
1017.36	226.70
1017.64	226.69
1017.93	226.66
1018.22	226.66
1018.50	226.67
1018.79	226.63
1019.08	226.60
1019.36	226.58
1019.65	226.61
1019.93	226.65
1020.22	226.70
1020.51	226.71
1020.79	226.70
1021.08	226.51
1021.36	226.86
1021.65	226.29
1021.94	226.97
1022.22	226.56
1022.51	226.80
1022.79	227.03
1023.08	227.04
1023.36	227.39
1023.65	226.24
>>>>>End Processed Spectral Data<<<<<
