SpectraSuite Data File
++++++++++++++++++++++++++++++++++++
Date: Fri Feb 01 16:18:30 EST 2013
User: group
Dark Spectrum Present: No
Reference Spectrum Present: No
Number of Sampled Component Spectra: 1
Spectrometers: USB2E7196
Integration Time (usec): 35000 (USB2E7196)
Spectra Averaged: 100 (USB2E7196)
Boxcar Smoothing: 10 (USB2E7196)
Correct for Electrical Dark: No (USB2E7196)
Strobe/Lamp Enabled: No (USB2E7196)
Correct for Detector Non-linearity: No (USB2E7196)
Correct for Stray Light: No (USB2E7196)
Number of Pixels in Processed Spectrum: 2048
>>>>>Begin Processed Spectral Data<<<<<
339.09	0.00
339.48	213.90
339.86	215.31
340.24	216.91
340.63	218.91
341.01	220.50
341.39	221.04
341.78	221.99
342.16	223.28
342.54	224.24
342.93	212.41
343.31	223.15
343.69	223.71
344.07	224.21
344.46	224.63
344.84	224.98
345.22	225.23
345.60	225.49
345.99	225.69
346.37	225.83
346.75	225.91
347.13	225.94
347.52	225.96
347.90	226.03
348.28	226.06
348.66	226.11
349.05	226.10
349.43	226.12
349.81	226.17
350.19	226.18
350.57	226.26
350.96	226.35
351.34	226.43
351.72	226.51
352.10	226.58
352.48	226.68
352.87	226.74
353.25	226.82
353.63	226.85
354.01	226.93
354.39	227.02
354.77	227.12
355.15	227.22
355.54	227.31
355.92	227.37
356.30	227.44
356.68	227.54
357.06	227.63
357.44	227.66
357.82	227.72
358.20	227.80
358.58	227.85
358.97	227.89
359.35	227.98
359.73	228.05
360.11	228.08
360.49	228.11
360.87	228.14
361.25	228.19
361.63	228.25
362.01	228.30
362.39	228.32
362.77	228.37
363.15	228.39
363.53	228.39
363.91	228.40
364.29	228.42
364.67	228.37
365.05	228.39
365.43	228.42
365.81	228.41
366.19	228.46
366.57	228.49
366.95	228.50
367.33	228.46
367.71	228.43
368.09	228.47
368.47	228.43
368.85	228.43
369.23	228.46
369.61	228.43
369.99	228.40
370.37	228.39
370.75	228.37
371.13	228.32
371.51	228.30
371.89	228.30
372.27	228.28
372.65	228.21
373.03	228.18
373.41	228.15
373.78	228.12
374.16	228.00
374.54	227.90
374.92	227.84
375.30	227.77
375.68	227.70
376.06	227.60
376.44	227.57
376.82	227.48
377.19	227.39
377.57	227.32
377.95	227.21
378.33	227.11
378.71	227.01
379.09	226.99
379.47	226.93
379.84	226.81
380.22	226.70
380.60	226.62
380.98	226.51
381.36	226.43
381.73	226.37
382.11	226.36
382.49	226.30
382.87	226.22
383.25	226.17
383.62	226.21
384.00	226.17
384.38	226.13
384.76	226.14
385.13	226.10
385.51	226.04
385.89	226.00
386.27	225.98
386.64	225.94
387.02	225.85
387.40	225.78
387.78	225.77
388.15	225.75
388.53	225.73
388.91	225.69
389.29	225.65
389.66	225.62
390.04	225.55
390.42	225.56
390.79	225.57
391.17	225.57
391.55	225.45
391.92	225.42
392.30	225.43
392.68	225.37
393.05	225.35
393.43	225.36
393.81	225.39
394.18	225.38
394.56	225.40
394.94	225.48
395.31	225.49
395.69	225.55
396.06	225.62
396.44	225.64
396.82	225.73
397.19	225.82
397.57	225.86
397.95	225.96
398.32	225.96
398.70	226.00
399.07	226.08
399.45	226.15
399.82	226.20
400.20	226.25
400.58	226.33
400.95	226.41
401.33	226.52
401.70	226.67
402.08	226.76
402.45	226.86
402.83	226.95
403.20	227.07
403.58	227.14
403.95	227.25
404.33	227.37
404.71	227.45
405.08	227.58
405.46	227.72
405.83	227.86
406.21	228.05
406.58	228.24
406.96	228.39
407.33	228.55
407.70	228.75
408.08	229.03
408.45	229.24
408.83	229.44
409.20	229.66
409.58	229.84
409.95	230.10
410.33	230.35
410.70	230.61
411.08	230.93
411.45	231.26
411.82	231.56
412.20	231.93
412.57	232.39
412.95	232.70
413.32	233.13
413.69	233.50
414.07	233.93
414.44	234.37
414.82	234.84
415.19	235.40
415.56	235.94
415.94	236.46
416.31	237.11
416.68	237.76
417.06	238.48
417.43	239.17
417.81	239.92
418.18	240.71
418.55	241.54
418.93	242.42
419.30	243.32
419.67	244.28
420.04	245.26
420.42	246.22
420.79	247.42
421.16	248.52
421.54	249.74
421.91	250.93
422.28	252.16
422.66	253.51
423.03	254.83
423.40	256.17
423.77	257.58
424.15	259.01
424.52	260.47
424.89	262.08
425.26	263.59
425.64	265.05
426.01	266.60
426.38	268.21
426.75	269.86
427.13	271.56
427.50	273.34
427.87	275.18
428.24	277.04
428.61	278.80
428.99	280.76
429.36	282.83
429.73	284.88
430.10	286.92
430.47	288.99
430.85	291.06
431.22	293.26
431.59	295.57
431.96	297.76
432.33	300.24
432.70	302.58
433.08	305.38
433.45	308.04
433.82	310.68
434.19	313.59
434.56	316.43
434.93	319.06
435.30	321.68
435.68	324.55
436.05	327.36
436.42	330.13
436.79	332.63
437.16	335.34
437.53	338.16
437.90	340.97
438.27	343.67
438.64	346.52
439.01	349.13
439.38	351.42
439.75	353.67
440.13	356.15
440.50	358.48
440.87	360.33
441.24	362.23
441.61	364.35
441.98	365.83
442.35	367.58
442.72	369.44
443.09	371.25
443.46	372.25
443.83	372.84
444.20	373.35
444.57	374.18
444.94	374.46
445.31	374.81
445.68	375.17
446.05	375.25
446.42	374.85
446.79	374.44
447.16	373.99
447.53	373.61
447.90	372.46
448.27	371.27
448.64	369.68
449.01	368.52
449.37	366.58
449.74	364.69
450.11	362.46
450.48	359.99
450.85	357.47
451.22	355.35
451.59	353.33
451.96	351.41
452.33	348.81
452.70	346.45
453.07	343.65
453.43	340.75
453.80	337.97
454.17	335.33
454.54	332.74
454.91	330.05
455.28	327.40
455.65	324.89
456.02	322.45
456.38	320.35
456.75	317.72
457.12	315.47
457.49	313.27
457.86	311.08
458.23	309.23
458.59	307.16
458.96	305.07
459.33	303.21
459.70	301.32
460.07	299.81
460.43	298.12
460.80	296.50
461.17	295.04
461.54	293.58
461.91	292.18
462.27	290.76
462.64	289.49
463.01	288.13
463.38	286.86
463.74	285.53
464.11	284.34
464.48	283.33
464.85	282.21
465.21	281.36
465.58	280.46
465.95	279.38
466.32	278.48
466.68	277.60
467.05	276.72
467.42	275.84
467.78	274.89
468.15	274.05
468.52	273.35
468.88	272.51
469.25	271.73
469.62	271.10
469.98	270.46
470.35	269.83
470.72	269.25
471.08	268.61
471.45	268.07
471.82	267.56
472.18	266.98
472.55	266.54
472.92	266.01
473.28	265.54
473.65	265.09
474.02	264.67
474.38	264.29
474.75	263.97
475.11	263.61
475.48	263.40
475.85	263.17
476.21	262.97
476.58	262.81
476.94	262.69
477.31	262.49
477.67	262.33
478.04	262.25
478.41	262.19
478.77	262.22
479.14	262.17
479.50	262.16
479.87	262.23
480.23	262.37
480.60	262.41
480.96	262.55
481.33	262.77
481.69	263.00
482.06	263.18
482.42	263.39
482.79	263.66
483.15	263.97
483.52	264.33
483.88	264.68
484.25	265.04
484.61	265.43
484.98	265.86
485.34	266.40
485.71	267.02
486.07	267.59
486.44	268.18
486.80	268.89
487.17	269.62
487.53	270.42
487.90	271.23
488.26	272.19
488.62	273.12
488.99	274.10
489.35	275.15
489.72	276.31
490.08	277.54
490.44	278.78
490.81	280.11
491.17	281.44
491.54	282.93
491.90	284.50
492.26	286.16
492.63	287.94
492.99	289.73
493.36	291.60
493.72	293.68
494.08	295.79
494.45	298.03
494.81	300.40
495.17	302.87
495.54	305.43
495.90	308.16
496.26	310.99
496.63	313.95
496.99	317.06
497.35	320.32
497.72	323.73
498.08	327.27
498.44	330.99
498.80	334.98
499.17	339.07
499.53	343.26
499.89	347.71
500.26	352.22
500.62	356.93
500.98	361.93
501.34	367.03
501.71	372.35
502.07	377.79
502.43	383.45
502.79	389.27
503.16	395.40
503.52	401.65
503.88	408.05
504.24	414.68
504.60	421.60
504.97	428.76
505.33	436.06
505.69	443.78
506.05	451.53
506.41	459.35
506.78	467.48
507.14	475.94
507.50	484.62
507.86	493.64
508.22	502.83
508.59	512.01
508.95	521.56
509.31	531.41
509.67	541.57
510.03	551.85
510.39	562.42
510.75	573.24
511.12	584.15
511.48	595.52
511.84	607.00
512.20	618.49
512.56	630.46
512.92	642.65
513.28	655.02
513.64	667.56
514.00	680.31
514.37	693.29
514.73	706.35
515.09	719.38
515.45	732.73
515.81	746.38
516.17	760.38
516.53	774.58
516.89	788.73
517.25	802.84
517.61	817.27
517.97	831.72
518.33	846.09
518.69	860.88
519.05	875.83
519.41	890.96
519.77	906.47
520.13	921.86
520.49	937.20
520.85	952.61
521.21	968.36
521.57	984.50
521.93	1000.26
522.29	1016.59
522.65	1032.81
523.01	1048.99
523.37	1064.95
523.73	1081.05
524.09	1097.06
524.45	1113.36
524.81	1130.00
525.17	1146.80
525.53	1163.68
525.89	1180.58
526.25	1197.42
526.61	1213.79
526.97	1230.61
527.33	1247.18
527.68	1263.69
528.04	1280.18
528.40	1296.60
528.76	1313.59
529.12	1330.19
529.48	1346.93
529.84	1362.77
530.20	1379.26
530.56	1396.20
530.91	1413.60
531.27	1430.32
531.63	1446.88
531.99	1463.37
532.35	1479.22
532.71	1494.95
533.07	1511.15
533.42	1526.92
533.78	1542.93
534.14	1559.26
534.50	1574.37
534.86	1590.06
535.21	1605.26
535.57	1621.12
535.93	1636.71
536.29	1651.43
536.65	1666.31
537.00	1681.04
537.36	1696.48
537.72	1711.12
538.08	1725.47
538.44	1739.16
538.79	1753.04
539.15	1766.58
539.51	1780.28
539.87	1794.63
540.22	1808.33
540.58	1821.99
540.94	1835.33
541.29	1848.18
541.65	1860.64
542.01	1873.93
542.37	1886.15
542.72	1898.47
543.08	1910.22
543.44	1922.54
543.79	1933.59
544.15	1944.62
544.51	1956.23
544.87	1967.18
545.22	1977.78
545.58	1988.03
545.94	1997.77
546.29	2007.50
546.65	2017.29
547.01	2026.46
547.36	2035.05
547.72	2043.47
548.07	2051.25
548.43	2059.35
548.79	2067.28
549.14	2074.69
549.50	2081.77
549.86	2089.40
550.21	2096.65
550.57	2103.76
550.92	2110.21
551.28	2117.25
551.64	2124.39
551.99	2130.75
552.35	2136.81
552.70	2143.12
553.06	2148.96
553.41	2155.23
553.77	2161.30
554.13	2167.22
554.48	2173.41
554.84	2179.08
555.19	2184.40
555.55	2189.68
555.90	2194.16
556.26	2198.98
556.61	2203.77
556.97	2208.20
557.32	2212.48
557.68	2216.59
558.03	2220.84
558.39	2224.57
558.74	2229.24
559.10	2233.15
559.45	2236.95
559.81	2241.24
560.16	2245.00
560.52	2248.30
560.87	2251.73
561.23	2254.45
561.58	2257.43
561.94	2260.00
562.29	2262.15
562.64	2264.78
563.00	2267.25
563.35	2270.60
563.71	2273.93
564.06	2277.25
564.42	2280.27
564.77	2282.76
565.12	2285.15
565.48	2287.13
565.83	2289.07
566.19	2290.39
566.54	2291.14
566.89	2292.26
567.25	2292.96
567.60	2294.20
567.96	2295.90
568.31	2296.71
568.66	2297.85
569.02	2298.52
569.37	2298.82
569.72	2299.72
570.08	2300.05
570.43	2300.26
570.78	2299.99
571.14	2298.33
571.49	2297.06
571.84	2296.63
572.20	2295.44
572.55	2294.36
572.90	2292.92
573.26	2291.58
573.61	2289.97
573.96	2288.24
574.31	2285.42
574.67	2282.38
575.02	2278.78
575.37	2275.50
575.72	2271.84
576.08	2268.50
576.43	2265.22
576.78	2261.47
577.13	2258.44
577.49	2255.27
577.84	2251.73
578.19	2248.01
578.54	2244.39
578.90	2240.14
579.25	2234.66
579.60	2229.71
579.95	2224.67
580.30	2219.46
580.66	2214.43
581.01	2209.46
581.36	2204.71
581.71	2200.49
582.06	2196.04
582.42	2191.84
582.77	2186.52
583.12	2182.09
583.47	2177.43
583.82	2172.60
584.17	2167.48
584.53	2161.99
584.88	2156.42
585.23	2150.67
585.58	2145.28
585.93	2139.95
586.28	2135.11
586.63	2130.11
586.98	2125.24
587.34	2120.65
587.69	2116.04
588.04	2110.73
588.39	2105.14
588.74	2098.67
589.09	2092.51
589.44	2085.76
589.79	2079.73
590.14	2074.38
590.49	2067.77
590.84	2061.40
591.19	2055.21
591.54	2048.82
591.89	2041.46
592.25	2034.73
592.60	2027.51
592.95	2019.79
593.30	2012.43
593.65	2004.94
594.00	1997.93
594.35	1990.76
594.70	1982.76
595.05	1975.59
595.40	1968.38
595.75	1960.92
596.10	1954.68
596.45	1948.00
596.80	1941.99
597.15	1935.21
597.50	1927.98
597.85	1921.53
598.19	1914.88
598.54	1907.82
598.89	1901.27
599.24	1895.46
599.59	1888.80
599.94	1882.72
600.29	1876.43
600.64	1869.88
600.99	1862.52
601.34	1855.80
601.69	1848.69
602.04	1841.94
602.39	1834.49
602.74	1827.70
603.08	1820.86
603.43	1814.30
603.78	1806.95
604.13	1799.74
604.48	1792.53
604.83	1785.49
605.18	1778.56
605.53	1770.47
605.87	1762.49
606.22	1755.33
606.57	1747.45
606.92	1740.05
607.27	1732.83
607.62	1725.94
607.96	1718.61
608.31	1712.05
608.66	1704.35
609.01	1696.80
609.36	1689.25
609.70	1681.27
610.05	1673.13
610.40	1665.51
610.75	1657.01
611.10	1649.37
611.44	1640.86
611.79	1632.88
612.14	1624.41
612.49	1615.23
612.83	1607.04
613.18	1599.00
613.53	1590.76
613.88	1582.19
614.22	1573.94
614.57	1565.37
614.92	1557.33
615.27	1549.84
615.61	1541.43
615.96	1533.40
616.31	1525.80
616.65	1518.36
617.00	1510.84
617.35	1503.21
617.70	1494.99
618.04	1486.62
618.39	1478.49
618.74	1470.93
619.08	1462.64
619.43	1454.99
619.78	1448.03
620.12	1440.83
620.47	1433.24
620.82	1425.10
621.16	1417.51
621.51	1410.02
621.85	1402.37
622.20	1393.72
622.55	1385.26
622.89	1377.42
623.24	1369.86
623.59	1362.48
623.93	1354.92
624.28	1347.65
624.62	1340.08
624.97	1332.77
625.32	1325.91
625.66	1318.78
626.01	1311.65
626.35	1304.21
626.70	1296.51
627.04	1288.69
627.39	1280.79
627.73	1273.42
628.08	1266.43
628.43	1259.21
628.77	1251.65
629.12	1244.13
629.46	1237.08
629.81	1229.68
630.15	1222.35
630.50	1214.77
630.84	1206.65
631.19	1198.72
631.53	1191.16
631.88	1183.63
632.22	1176.07
632.57	1168.75
632.91	1161.21
633.26	1153.70
633.60	1146.26
633.95	1139.00
634.29	1132.02
634.64	1125.37
634.98	1117.86
635.32	1110.66
635.67	1104.03
636.01	1097.55
636.36	1090.69
636.70	1084.18
637.05	1077.62
637.39	1071.25
637.73	1064.79
638.08	1058.80
638.42	1052.79
638.77	1046.32
639.11	1039.62
639.45	1033.09
639.80	1026.41
640.14	1020.01
640.49	1013.58
640.83	1007.23
641.17	1001.06
641.52	994.68
641.86	988.27
642.20	982.35
642.55	976.10
642.89	969.66
643.23	963.06
643.58	957.25
643.92	950.97
644.26	944.90
644.61	938.81
644.95	932.73
645.29	926.10
645.64	919.37
645.98	913.06
646.32	907.24
646.66	901.36
647.01	895.60
647.35	889.90
647.69	883.95
648.04	878.48
648.38	872.65
648.72	866.70
649.06	860.62
649.41	854.83
649.75	848.85
650.09	842.90
650.43	837.05
650.78	830.91
651.12	824.98
651.46	819.24
651.80	813.49
652.14	808.09
652.49	802.75
652.83	797.51
653.17	791.75
653.51	786.05
653.85	780.58
654.20	774.91
654.54	768.88
654.88	763.14
655.22	757.22
655.56	751.59
655.90	746.19
656.25	740.89
656.59	735.51
656.93	730.48
657.27	725.31
657.61	719.86
657.95	714.71
658.29	709.67
658.64	704.44
658.98	699.12
659.32	693.68
659.66	688.49
660.00	683.19
660.34	678.25
660.68	673.38
661.02	668.28
661.36	663.52
661.70	658.98
662.05	654.63
662.39	650.24
662.73	645.72
663.07	641.29
663.41	636.84
663.75	632.28
664.09	627.69
664.43	623.25
664.77	619.13
665.11	614.95
665.45	610.77
665.79	606.67
666.13	602.54
666.47	598.44
666.81	594.21
667.15	590.11
667.49	586.24
667.83	582.39
668.17	578.47
668.51	574.45
668.85	570.49
669.19	566.59
669.53	562.78
669.87	558.86
670.21	555.18
670.55	551.57
670.89	548.20
671.23	544.73
671.57	541.19
671.91	537.61
672.25	534.04
672.58	530.50
672.92	527.03
673.26	523.86
673.60	520.75
673.94	517.63
674.28	514.69
674.62	511.73
674.96	508.62
675.30	505.71
675.64	502.76
675.97	499.93
676.31	497.09
676.65	494.16
676.99	491.54
677.33	488.62
677.67	485.76
678.01	482.72
678.34	479.75
678.68	476.92
679.02	474.18
679.36	471.43
679.70	468.83
680.04	466.08
680.37	463.20
680.71	460.36
681.05	457.72
681.39	454.96
681.73	452.28
682.06	449.71
682.40	447.18
682.74	444.63
683.08	442.12
683.42	439.47
683.75	436.98
684.09	434.39
684.43	431.92
684.77	429.46
685.10	427.12
685.44	424.81
685.78	422.49
686.12	420.20
686.45	417.84
686.79	415.43
687.13	413.27
687.46	411.09
687.80	408.93
688.14	406.77
688.48	404.76
688.81	402.50
689.15	400.37
689.49	398.19
689.82	396.10
690.16	394.01
690.50	392.08
690.83	390.14
691.17	388.16
691.51	386.27
691.84	384.41
692.18	382.44
692.52	380.45
692.85	378.49
693.19	376.61
693.52	374.83
693.86	373.01
694.20	371.16
694.53	369.39
694.87	367.54
695.21	365.73
695.54	363.87
695.88	362.19
696.21	360.43
696.55	358.76
696.88	357.07
697.22	355.36
697.56	353.75
697.89	352.12
698.23	350.57
698.56	348.93
698.90	347.32
699.23	345.70
699.57	344.14
699.90	342.59
700.24	341.04
700.58	339.51
700.91	338.01
701.25	336.59
701.58	335.21
701.92	333.85
702.25	332.45
702.59	331.12
702.92	329.79
703.26	328.51
703.59	327.21
703.93	326.05
704.26	324.85
704.60	323.55
704.93	322.23
705.26	320.94
705.60	319.74
705.93	318.56
706.27	317.50
706.60	316.46
706.94	315.41
707.27	314.29
707.61	313.23
707.94	312.19
708.27	311.09
708.61	310.02
708.94	309.01
709.28	308.01
709.61	307.04
709.94	306.07
710.28	305.02
710.61	304.04
710.95	302.97
711.28	302.00
711.61	301.05
711.95	300.13
712.28	299.15
712.61	298.18
712.95	297.28
713.28	296.41
713.61	295.50
713.95	294.62
714.28	293.76
714.61	292.91
714.95	292.08
715.28	291.23
715.61	290.31
715.95	289.48
716.28	288.66
716.61	287.86
716.95	287.01
717.28	286.28
717.61	285.53
717.94	284.80
718.28	283.99
718.61	283.23
718.94	282.54
719.27	281.91
719.61	281.30
719.94	280.68
720.27	279.94
720.60	279.28
720.94	278.64
721.27	278.04
721.60	277.44
721.93	276.83
722.27	276.30
722.60	275.74
722.93	275.13
723.26	274.54
723.59	273.95
723.93	273.42
724.26	272.88
724.59	272.33
724.92	271.79
725.25	271.33
725.59	270.81
725.92	270.28
726.25	269.73
726.58	269.22
726.91	268.68
727.24	268.26
727.57	267.78
727.91	267.29
728.24	266.80
728.57	266.33
728.90	265.90
729.23	265.37
729.56	265.00
729.89	264.55
730.22	264.10
730.55	263.65
730.89	263.22
731.22	262.75
731.55	262.31
731.88	261.87
732.21	261.40
732.54	260.98
732.87	260.59
733.20	260.22
733.53	259.83
733.86	259.46
734.19	259.04
734.52	258.65
734.85	258.35
735.18	257.95
735.51	257.60
735.84	257.22
736.17	256.88
736.50	256.43
736.83	256.27
737.16	255.94
737.49	255.59
737.82	255.22
738.15	254.88
738.48	254.54
738.81	254.23
739.14	253.92
739.47	253.59
739.80	253.31
740.13	253.01
740.46	252.68
740.79	252.33
741.12	252.05
741.45	251.75
741.78	251.39
742.11	251.10
742.44	250.76
742.77	250.48
743.10	250.19
743.43	249.91
743.75	249.46
744.08	249.33
744.41	249.07
744.74	248.81
745.07	248.54
745.40	248.30
745.73	248.05
746.06	247.80
746.39	247.56
746.71	247.27
747.04	246.98
747.37	246.72
747.70	246.54
748.03	246.24
748.36	246.00
748.68	245.76
749.01	245.53
749.34	245.31
749.67	245.08
750.00	244.85
750.33	244.69
750.65	244.47
750.98	244.11
751.31	243.87
751.64	243.67
751.97	243.54
752.29	243.33
752.62	243.10
752.95	242.86
753.28	242.66
753.60	242.43
753.93	242.28
754.26	242.10
754.59	241.84
754.91	241.64
755.24	241.46
755.57	241.27
755.90	241.09
756.22	240.89
756.55	240.71
756.88	240.50
757.20	240.28
757.53	240.11
757.86	239.92
758.19	239.81
758.51	239.68
758.84	239.43
759.17	239.25
759.49	239.10
759.82	238.98
760.15	238.82
760.47	238.69
760.80	238.51
761.13	238.36
761.45	238.22
761.78	238.08
762.11	237.93
762.43	237.79
762.76	237.65
763.08	237.54
763.41	237.37
763.74	237.24
764.06	237.11
764.39	236.97
764.71	236.82
765.04	236.64
765.37	236.45
765.69	236.32
766.02	236.19
766.34	236.06
766.67	235.93
767.00	235.86
767.32	235.79
767.65	235.71
767.97	235.63
768.30	235.53
768.62	235.41
768.95	235.30
769.27	235.20
769.60	235.08
769.92	234.97
770.25	234.86
770.57	234.72
770.90	234.62
771.22	234.49
771.55	234.39
771.87	234.33
772.20	234.25
772.52	234.24
772.85	234.25
773.17	234.14
773.50	234.01
773.82	233.85
774.15	233.70
774.47	233.55
774.80	233.42
775.12	233.33
775.45	233.25
775.77	233.15
776.09	233.07
776.42	232.98
776.74	232.90
777.07	232.81
777.39	232.76
777.72	232.68
778.04	232.62
778.36	232.58
778.69	232.51
779.01	232.45
779.33	232.29
779.66	232.14
779.98	232.10
780.31	232.05
780.63	232.03
780.95	232.02
781.28	231.96
781.60	231.90
781.92	231.85
782.25	231.79
782.57	231.76
782.89	231.66
783.22	231.61
783.54	231.54
783.86	231.50
784.19	231.41
784.51	231.38
784.83	231.33
785.16	231.25
785.48	231.19
785.80	231.11
786.12	231.04
786.45	230.99
786.77	230.88
787.09	230.85
787.42	230.76
787.74	230.72
788.06	230.68
788.38	230.66
788.71	230.62
789.03	230.57
789.35	230.55
789.67	230.54
789.99	230.51
790.32	230.47
790.64	230.45
790.96	230.51
791.28	230.44
791.61	230.37
791.93	230.35
792.25	230.32
792.57	230.35
792.89	230.33
793.21	230.32
793.54	230.31
793.86	230.25
794.18	230.23
794.50	230.18
794.82	230.16
795.14	230.11
795.47	230.08
795.79	230.05
796.11	229.97
796.43	229.92
796.75	229.90
797.07	229.87
797.39	229.82
797.71	229.73
798.04	229.68
798.36	229.68
798.68	229.66
799.00	229.61
799.32	229.54
799.64	229.51
799.96	229.44
800.28	229.42
800.60	229.39
800.92	229.36
801.24	229.28
801.56	229.26
801.89	229.23
802.21	229.18
802.53	229.13
802.85	229.11
803.17	229.13
803.49	229.05
803.81	229.00
804.13	228.98
804.45	228.95
804.77	228.93
805.09	228.89
805.41	228.83
805.73	228.80
806.05	228.73
806.37	228.72
806.69	228.68
807.01	228.62
807.33	228.61
807.65	228.56
807.97	228.62
808.28	228.56
808.60	228.51
808.92	228.51
809.24	228.51
809.56	228.48
809.88	228.39
810.20	228.36
810.52	228.36
810.84	228.32
811.16	228.28
811.48	228.26
811.80	228.28
812.12	228.24
812.43	228.22
812.75	228.23
813.07	228.19
813.39	228.18
813.71	228.12
814.03	228.09
814.35	228.06
814.67	227.96
814.98	227.95
815.30	227.94
815.62	227.88
815.94	227.80
816.26	227.84
816.58	227.77
816.89	227.77
817.21	227.73
817.53	227.71
817.85	227.69
818.17	227.66
818.48	227.57
818.80	227.59
819.12	227.56
819.44	227.51
819.76	227.47
820.07	227.46
820.39	227.48
820.71	227.48
821.03	227.46
821.34	227.45
821.66	227.42
821.98	227.38
822.30	227.37
822.61	227.40
822.93	227.32
823.25	227.31
823.57	227.28
823.88	227.30
824.20	227.25
824.52	227.24
824.83	227.21
825.15	227.22
825.47	227.18
825.79	227.20
826.10	227.17
826.42	227.13
826.74	227.09
827.05	227.07
827.37	227.06
827.69	227.05
828.00	227.06
828.32	227.05
828.64	227.03
828.95	227.09
829.27	227.09
829.58	227.10
829.90	227.14
830.22	227.16
830.53	227.12
830.85	227.12
831.17	227.08
831.48	227.10
831.80	227.08
832.11	227.07
832.43	227.04
832.75	227.06
833.06	227.13
833.38	227.12
833.69	227.11
834.01	227.11
834.32	227.10
834.64	227.06
834.96	227.09
835.27	227.12
835.59	227.04
835.90	227.02
836.22	227.04
836.53	227.04
836.85	227.02
837.16	227.09
837.48	227.13
837.79	227.17
838.11	227.17
838.42	227.19
838.74	227.22
839.05	227.21
839.37	227.19
839.68	227.16
840.00	227.15
840.31	227.19
840.63	227.16
840.94	227.15
841.26	227.12
841.57	227.10
841.88	227.08
842.20	227.06
842.51	227.02
842.83	227.00
843.14	227.06
843.46	227.07
843.77	227.00
844.08	226.98
844.40	226.94
844.71	226.91
845.03	226.85
845.34	226.84
845.65	226.81
845.97	226.85
846.28	226.84
846.60	226.83
846.91	226.77
847.22	226.77
847.54	226.77
847.85	226.77
848.16	226.80
848.48	226.77
848.79	226.82
849.10	226.81
849.42	226.78
849.73	226.65
850.04	226.63
850.36	226.60
850.67	226.59
850.98	226.58
851.30	226.60
851.61	226.59
851.92	226.57
852.23	226.62
852.55	226.58
852.86	226.56
853.17	226.58
853.49	226.64
853.80	226.63
854.11	226.66
854.42	226.66
854.74	226.59
855.05	226.56
855.36	226.48
855.67	226.49
855.99	226.51
856.30	226.67
856.61	226.66
856.92	226.66
857.23	226.66
857.55	226.66
857.86	226.64
858.17	226.66
858.48	226.64
858.79	226.63
859.11	226.63
859.42	226.59
859.73	226.59
860.04	226.54
860.35	226.52
860.66	226.46
860.98	226.46
861.29	226.48
861.60	226.49
861.91	226.50
862.22	226.50
862.53	226.47
862.84	226.35
863.16	226.36
863.47	226.32
863.78	226.30
864.09	226.30
864.40	226.32
864.71	226.33
865.02	226.31
865.33	226.26
865.64	226.23
865.95	226.22
866.27	226.28
866.58	226.28
866.89	226.29
867.20	226.31
867.51	226.31
867.82	226.32
868.13	226.37
868.44	226.34
868.75	226.38
869.06	226.38
869.37	226.39
869.68	226.38
869.99	226.42
870.30	226.42
870.61	226.40
870.92	226.36
871.23	226.32
871.54	226.34
871.85	226.37
872.16	226.41
872.47	226.42
872.78	226.37
873.09	226.38
873.40	226.37
873.71	226.36
874.02	226.36
874.33	226.35
874.64	226.34
874.95	226.35
875.26	226.31
875.56	226.28
875.87	226.25
876.18	226.24
876.49	226.33
876.80	226.32
877.11	226.32
877.42	226.35
877.73	226.37
878.04	226.36
878.35	226.35
878.66	226.37
878.96	226.36
879.27	226.36
879.58	226.35
879.89	226.38
880.20	226.40
880.51	226.37
880.82	226.37
881.12	226.37
881.43	226.37
881.74	226.39
882.05	226.40
882.36	226.42
882.67	226.41
882.97	226.32
883.28	226.37
883.59	226.40
883.90	226.39
884.21	226.39
884.51	226.41
884.82	226.43
885.13	226.39
885.44	226.42
885.74	226.41
886.05	226.41
886.36	226.37
886.67	226.32
886.98	226.42
887.28	226.43
887.59	226.39
887.90	226.39
888.20	226.41
888.51	226.42
888.82	226.39
889.13	226.40
889.43	226.45
889.74	226.40
890.05	226.40
890.35	226.41
890.66	226.39
890.97	226.37
891.28	226.34
891.58	226.37
891.89	226.35
892.20	226.36
892.50	226.35
892.81	226.38
893.12	226.40
893.42	226.33
893.73	226.30
894.04	226.33
894.34	226.33
894.65	226.29
894.95	226.27
895.26	226.29
895.57	226.34
895.87	226.27
896.18	226.29
896.48	226.26
896.79	226.28
897.10	226.28
897.40	226.27
897.71	226.29
898.01	226.25
898.32	226.24
898.63	226.20
898.93	226.19
899.24	226.16
899.54	226.15
899.85	226.15
900.15	226.18
900.46	226.19
900.76	226.19
901.07	226.19
901.38	226.19
901.68	226.20
901.99	226.12
902.29	226.12
902.60	226.09
902.90	226.09
903.21	226.06
903.51	226.05
903.82	226.07
904.12	226.06
904.43	226.05
904.73	226.06
905.03	226.09
905.34	226.19
905.64	226.20
905.95	226.21
906.25	226.20
906.56	226.20
906.86	226.18
907.17	226.15
907.47	226.17
907.77	226.16
908.08	226.12
908.38	226.14
908.69	226.12
908.99	226.13
909.30	226.14
909.60	226.17
909.90	226.19
910.21	226.19
910.51	226.17
910.81	226.19
911.12	226.17
911.42	226.18
911.73	226.08
912.03	226.11
912.33	226.12
912.64	226.11
912.94	226.09
913.24	226.06
913.55	226.06
913.85	226.08
914.15	226.11
914.46	226.14
914.76	226.13
915.06	226.13
915.37	226.15
915.67	226.13
915.97	226.12
916.27	226.08
916.58	226.08
916.88	226.12
917.18	226.14
917.49	226.22
917.79	226.23
918.09	226.26
918.39	226.28
918.70	226.29
919.00	226.31
919.30	226.39
919.60	226.42
919.91	226.43
920.21	226.44
920.51	226.41
920.81	226.41
921.12	226.44
921.42	226.43
921.72	226.46
922.02	226.48
922.32	226.48
922.63	226.49
922.93	226.51
923.23	226.52
923.53	226.51
923.83	226.44
924.13	226.43
924.44	226.44
924.74	226.46
925.04	226.48
925.34	226.49
925.64	226.43
925.94	226.44
926.24	226.50
926.55	226.50
926.85	226.50
927.15	226.50
927.45	226.54
927.75	226.55
928.05	226.54
928.35	226.51
928.65	226.55
928.95	226.59
929.26	226.57
929.56	226.56
929.86	226.56
930.16	226.57
930.46	226.55
930.76	226.52
931.06	226.44
931.36	226.41
931.66	226.43
931.96	226.42
932.26	226.39
932.56	226.34
932.86	226.34
933.16	226.34
933.46	226.33
933.76	226.31
934.06	226.34
934.36	226.36
934.66	226.34
934.96	226.29
935.26	226.29
935.56	226.31
935.86	226.27
936.16	226.24
936.46	226.20
936.76	226.22
937.06	226.22
937.36	226.24
937.66	226.22
937.96	226.18
938.26	226.20
938.56	226.22
938.86	226.22
939.16	226.21
939.46	226.20
939.76	226.20
940.06	226.18
940.35	226.15
940.65	226.08
940.95	226.10
941.25	226.12
941.55	226.09
941.85	226.05
942.15	226.06
942.45	226.07
942.75	226.10
943.04	226.11
943.34	226.16
943.64	226.12
943.94	226.13
944.24	226.13
944.54	226.09
944.84	226.05
945.13	226.03
945.43	226.02
945.73	226.02
946.03	226.02
946.33	226.02
946.62	226.00
946.92	226.00
947.22	226.00
947.52	225.96
947.82	225.97
948.11	225.97
948.41	225.97
948.71	225.97
949.01	225.94
949.31	225.93
949.60	225.89
949.90	225.93
950.20	225.87
950.50	225.86
950.79	225.84
951.09	225.87
951.39	225.86
951.69	225.86
951.98	225.90
952.28	225.91
952.58	225.90
952.87	225.90
953.17	225.96
953.47	225.96
953.76	225.98
954.06	225.99
954.36	225.96
954.66	225.96
954.95	226.00
955.25	226.02
955.55	226.02
955.84	226.02
956.14	226.00
956.44	226.05
956.73	226.08
957.03	226.14
957.32	226.11
957.62	226.13
957.92	226.13
958.21	226.11
958.51	226.23
958.81	226.24
959.10	226.26
959.40	226.26
959.69	226.26
959.99	226.26
960.29	226.25
960.58	226.25
960.88	226.29
961.17	226.29
961.47	226.29
961.76	226.28
962.06	226.28
962.36	226.28
962.65	226.28
962.95	226.27
963.24	226.29
963.54	226.33
963.83	226.33
964.13	226.31
964.42	226.27
964.72	226.17
965.01	226.17
965.31	226.17
965.60	226.16
965.90	226.23
966.19	226.21
966.49	226.21
966.78	226.22
967.08	226.18
967.37	226.16
967.67	226.13
967.96	226.13
968.26	226.12
968.55	226.12
968.85	226.13
969.14	226.15
969.43	226.11
969.73	226.11
970.02	226.11
970.32	226.14
970.61	226.15
970.91	226.14
971.20	226.09
971.49	226.06
971.79	226.05
972.08	225.99
972.38	225.97
972.67	225.96
972.96	226.01
973.26	226.02
973.55	226.03
973.85	226.04
974.14	226.05
974.43	226.10
974.73	226.07
975.02	226.05
975.31	226.00
975.61	226.02
975.90	225.98
976.19	225.97
976.49	225.97
976.78	225.95
977.07	225.95
977.37	226.00
977.66	226.03
977.95	226.03
978.24	226.05
978.54	226.11
978.83	226.12
979.12	226.10
979.42	226.09
979.71	226.11
980.00	226.10
980.29	226.10
980.59	226.03
980.88	226.08
981.17	226.08
981.46	226.11
981.76	226.08
982.05	226.11
982.34	226.10
982.63	226.12
982.93	226.14
983.22	226.16
983.51	226.17
983.80	226.22
984.09	226.22
984.39	226.19
984.68	226.17
984.97	226.13
985.26	226.16
985.55	226.17
985.85	226.12
986.14	226.16
986.43	226.18
986.72	226.21
987.01	226.18
987.30	226.19
987.59	226.20
987.89	226.23
988.18	226.20
988.47	226.21
988.76	226.18
989.05	226.18
989.34	226.15
989.63	226.17
989.92	226.12
990.22	226.10
990.51	226.09
990.80	226.08
991.09	226.12
991.38	226.08
991.67	226.07
991.96	226.09
992.25	226.09
992.54	226.10
992.83	226.10
993.12	226.13
993.41	226.14
993.70	226.17
993.99	226.17
994.28	226.17
994.58	226.17
994.87	226.16
995.16	226.15
995.45	226.17
995.74	226.15
996.03	226.18
996.32	226.21
996.61	226.22
996.90	226.21
997.19	226.22
997.48	226.22
997.77	226.20
998.06	226.19
998.34	226.14
998.63	226.12
998.92	226.11
999.21	226.12
999.50	226.10
999.79	226.07
1000.08	226.05
1000.37	226.04
1000.66	226.04
1000.95	226.08
1001.24	226.05
1001.53	226.08
1001.82	226.06
1002.11	225.99
1002.40	225.95
1002.68	226.00
1002.97	226.07
1003.26	226.00
1003.55	225.99
1003.84	225.99
1004.13	226.02
1004.42	226.02
1004.71	225.99
1004.99	225.98
1005.28	225.97
1005.57	225.99
1005.86	225.94
1006.15	225.95
1006.44	225.95
1006.72	225.92
1007.01	225.88
1007.30	225.90
1007.59	225.85
1007.88	225.84
1008.17	225.87
1008.45	225.88
1008.74	225.85
1009.03	225.78
1009.32	225.80
1009.60	225.81
1009.89	225.81
1010.18	225.78
1010.47	225.76
1010.76	225.75
1011.04	225.75
1011.33	225.73
1011.62	225.71
1011.91	225.73
1012.19	225.73
1012.48	225.72
1012.77	225.71
1013.05	225.77
1013.34	225.78
1013.63	225.78
1013.92	225.80
1014.20	225.79
1014.49	225.81
1014.78	225.78
1015.06	225.73
1015.35	225.77
1015.64	225.78
1015.92	225.78
1016.21	225.79
1016.50	225.82
1016.78	225.83
1017.07	225.82
1017.36	225.81
1017.64	225.83
1017.93	225.83
1018.22	225.80
1018.50	225.81
1018.79	225.85
1019.08	225.78
1019.36	225.79
1019.65	225.76
1019.93	225.81
1020.22	225.82
1020.51	225.86
1020.79	225.88
1021.08	225.52
1021.36	225.65
1021.65	226.06
1021.94	225.45
1022.22	225.99
1022.51	225.41
1022.79	226.93
1023.08	226.13
1023.36	226.97
1023.65	225.87
>>>>>End Processed Spectral Data<<<<<
