SpectraSuite Data File
++++++++++++++++++++++++++++++++++++
Date: Fri Feb 01 15:24:56 EST 2013
User: group
Dark Spectrum Present: No
Reference Spectrum Present: No
Number of Sampled Component Spectra: 1
Spectrometers: USB2E7196
Integration Time (usec): 35000 (USB2E7196)
Spectra Averaged: 100 (USB2E7196)
Boxcar Smoothing: 10 (USB2E7196)
Correct for Electrical Dark: No (USB2E7196)
Strobe/Lamp Enabled: No (USB2E7196)
Correct for Detector Non-linearity: No (USB2E7196)
Correct for Stray Light: No (USB2E7196)
Number of Pixels in Processed Spectrum: 2048
>>>>>Begin Processed Spectral Data<<<<<
339.09	0.00
339.48	214.96
339.86	216.44
340.24	217.92
340.63	219.82
341.01	221.99
341.39	222.42
341.78	223.52
342.16	224.25
342.54	225.19
342.93	213.38
343.31	224.18
343.69	224.72
344.07	225.16
344.46	225.58
344.84	225.93
345.22	226.18
345.60	226.43
345.99	226.59
346.37	226.71
346.75	226.81
347.13	226.88
347.52	226.95
347.90	227.06
348.28	227.09
348.66	227.15
349.05	227.11
349.43	227.16
349.81	227.24
350.19	227.29
350.57	227.34
350.96	227.40
351.34	227.49
351.72	227.55
352.10	227.69
352.48	227.77
352.87	227.82
353.25	227.90
353.63	227.97
354.01	228.07
354.39	228.15
354.77	228.24
355.15	228.32
355.54	228.40
355.92	228.43
356.30	228.51
356.68	228.63
357.06	228.70
357.44	228.74
357.82	228.74
358.20	228.84
358.58	228.91
358.97	229.00
359.35	229.08
359.73	229.19
360.11	229.21
360.49	229.27
360.87	229.33
361.25	229.35
361.63	229.40
362.01	229.39
362.39	229.42
362.77	229.44
363.15	229.48
363.53	229.50
363.91	229.51
364.29	229.54
364.67	229.45
365.05	229.49
365.43	229.53
365.81	229.59
366.19	229.61
366.57	229.63
366.95	229.62
367.33	229.58
367.71	229.54
368.09	229.57
368.47	229.55
368.85	229.53
369.23	229.54
369.61	229.47
369.99	229.49
370.37	229.50
370.75	229.53
371.13	229.47
371.51	229.44
371.89	229.42
372.27	229.36
372.65	229.34
373.03	229.27
373.41	229.21
373.78	229.13
374.16	229.01
374.54	228.92
374.92	228.84
375.30	228.78
375.68	228.69
376.06	228.63
376.44	228.54
376.82	228.47
377.19	228.38
377.57	228.32
377.95	228.22
378.33	228.11
378.71	227.97
379.09	227.89
379.47	227.78
379.84	227.70
380.22	227.62
380.60	227.55
380.98	227.46
381.36	227.38
381.73	227.31
382.11	227.29
382.49	227.23
382.87	227.16
383.25	227.08
383.62	227.14
384.00	227.06
384.38	227.02
384.76	226.98
385.13	226.96
385.51	226.92
385.89	226.87
386.27	226.85
386.64	226.82
387.02	226.79
387.40	226.76
387.78	226.73
388.15	226.70
388.53	226.62
388.91	226.60
389.29	226.57
389.66	226.55
390.04	226.51
390.42	226.53
390.79	226.53
391.17	226.55
391.55	226.46
391.92	226.48
392.30	226.44
392.68	226.40
393.05	226.40
393.43	226.43
393.81	226.43
394.18	226.43
394.56	226.44
394.94	226.48
395.31	226.52
395.69	226.60
396.06	226.69
396.44	226.75
396.82	226.80
397.19	226.90
397.57	226.98
397.95	227.04
398.32	227.06
398.70	227.13
399.07	227.24
399.45	227.32
399.82	227.38
400.20	227.49
400.58	227.59
400.95	227.67
401.33	227.76
401.70	227.95
402.08	228.05
402.45	228.18
402.83	228.32
403.20	228.41
403.58	228.49
403.95	228.61
404.33	228.78
404.71	228.88
405.08	229.09
405.46	229.19
405.83	229.38
406.21	229.55
406.58	229.73
406.96	229.88
407.33	230.05
407.70	230.25
408.08	230.52
408.45	230.77
408.83	230.98
409.20	231.20
409.58	231.37
409.95	231.62
410.33	231.91
410.70	232.13
411.08	232.42
411.45	232.75
411.82	233.04
412.20	233.39
412.57	233.80
412.95	234.07
413.32	234.49
413.69	234.87
414.07	235.32
414.44	235.77
414.82	236.23
415.19	236.76
415.56	237.31
415.94	237.86
416.31	238.48
416.68	239.12
417.06	239.83
417.43	240.51
417.81	241.27
418.18	242.01
418.55	242.83
418.93	243.71
419.30	244.58
419.67	245.52
420.04	246.44
420.42	247.47
420.79	248.67
421.16	249.80
421.54	251.02
421.91	252.19
422.28	253.45
422.66	254.78
423.03	256.11
423.40	257.39
423.77	258.80
424.15	260.24
424.52	261.71
424.89	263.33
425.26	264.90
425.64	266.34
426.01	267.94
426.38	269.60
426.75	271.27
427.13	272.99
427.50	274.80
427.87	276.71
428.24	278.56
428.61	280.31
428.99	282.25
429.36	284.33
429.73	286.40
430.10	288.38
430.47	290.44
430.85	292.59
431.22	294.85
431.59	297.23
431.96	299.46
432.33	301.96
432.70	304.32
433.08	307.14
433.45	309.80
433.82	312.42
434.19	315.36
434.56	318.19
434.93	320.88
435.30	323.50
435.68	326.37
436.05	329.19
436.42	331.98
436.79	334.47
437.16	337.17
437.53	340.02
437.90	342.92
438.27	345.64
438.64	348.44
439.01	351.05
439.38	353.29
439.75	355.49
440.13	357.98
440.50	360.27
440.87	362.10
441.24	364.05
441.61	366.21
441.98	367.68
442.35	369.46
442.72	371.31
443.09	373.17
443.46	374.18
443.83	374.77
444.20	375.26
444.57	376.11
444.94	376.38
445.31	376.72
445.68	377.04
446.05	377.19
446.42	376.81
446.79	376.39
447.16	375.97
447.53	375.60
447.90	374.45
448.27	373.31
448.64	371.72
449.01	370.59
449.37	368.62
449.74	366.73
450.11	364.48
450.48	362.02
450.85	359.44
451.22	357.29
451.59	355.32
451.96	353.35
452.33	350.75
452.70	348.40
453.07	345.56
453.43	342.67
453.80	339.86
454.17	337.17
454.54	334.63
454.91	331.86
455.28	329.18
455.65	326.72
456.02	324.30
456.38	322.13
456.75	319.44
457.12	317.18
457.49	314.98
457.86	312.82
458.23	310.97
458.59	308.90
458.96	306.81
459.33	304.89
459.70	303.08
460.07	301.60
460.43	299.88
460.80	298.26
461.17	296.80
461.54	295.31
461.91	293.86
462.27	292.42
462.64	291.19
463.01	289.84
463.38	288.51
463.74	287.12
464.11	285.96
464.48	284.95
464.85	283.86
465.21	282.95
465.58	281.99
465.95	280.86
466.32	279.96
466.68	279.03
467.05	278.16
467.42	277.22
467.78	276.26
468.15	275.39
468.52	274.70
468.88	273.79
469.25	273.00
469.62	272.39
469.98	271.70
470.35	271.05
470.72	270.42
471.08	269.75
471.45	269.22
471.82	268.69
472.18	268.08
472.55	267.63
472.92	267.11
473.28	266.66
473.65	266.23
474.02	265.76
474.38	265.36
474.75	265.01
475.11	264.67
475.48	264.39
475.85	264.14
476.21	263.94
476.58	263.80
476.94	263.66
477.31	263.47
477.67	263.33
478.04	263.20
478.41	263.16
478.77	263.16
479.14	263.09
479.50	263.11
479.87	263.16
480.23	263.24
480.60	263.28
480.96	263.38
481.33	263.56
481.69	263.77
482.06	264.01
482.42	264.20
482.79	264.49
483.15	264.81
483.52	265.19
483.88	265.51
484.25	265.91
484.61	266.30
484.98	266.77
485.34	267.37
485.71	267.95
486.07	268.58
486.44	269.15
486.80	269.87
487.17	270.58
487.53	271.38
487.90	272.21
488.26	273.17
488.62	274.15
488.99	275.14
489.35	276.14
489.72	277.27
490.08	278.48
490.44	279.68
490.81	281.01
491.17	282.39
491.54	283.90
491.90	285.42
492.26	287.07
492.63	288.77
492.99	290.53
493.36	292.40
493.72	294.43
494.08	296.56
494.45	298.80
494.81	301.14
495.17	303.58
495.54	306.19
495.90	308.87
496.26	311.63
496.63	314.57
496.99	317.71
497.35	320.95
497.72	324.32
498.08	327.86
498.44	331.50
498.80	335.44
499.17	339.41
499.53	343.58
499.89	347.97
500.26	352.45
500.62	357.14
500.98	362.11
501.34	367.16
501.71	372.46
502.07	377.87
502.43	383.52
502.79	389.30
503.16	395.31
503.52	401.55
503.88	408.03
504.24	414.65
504.60	421.56
504.97	428.69
505.33	436.07
505.69	443.74
506.05	451.51
506.41	459.41
506.78	467.56
507.14	476.07
507.50	484.77
507.86	493.81
508.22	502.91
508.59	512.07
508.95	521.69
509.31	531.50
509.67	541.65
510.03	551.94
510.39	562.59
510.75	573.44
511.12	584.39
511.48	595.66
511.84	607.16
512.20	618.70
512.56	630.69
512.92	642.87
513.28	655.18
513.64	667.76
514.00	680.48
514.37	693.45
514.73	706.52
515.09	719.61
515.45	732.92
515.81	746.57
516.17	760.69
516.53	774.81
516.89	788.95
517.25	803.15
517.61	817.58
517.97	832.04
518.33	846.53
518.69	861.44
519.05	876.53
519.41	891.73
519.77	907.27
520.13	922.74
520.49	938.19
520.85	953.72
521.21	969.42
521.57	985.66
521.93	1001.52
522.29	1017.92
522.65	1034.26
523.01	1050.63
523.37	1066.70
523.73	1082.89
524.09	1099.06
524.45	1115.39
524.81	1132.05
525.17	1148.88
525.53	1165.77
525.89	1182.63
526.25	1199.38
526.61	1215.66
526.97	1232.52
527.33	1249.04
527.68	1265.69
528.04	1282.22
528.40	1298.91
528.76	1316.00
529.12	1332.63
529.48	1349.51
529.84	1365.60
530.20	1382.36
530.56	1399.41
530.91	1416.84
531.27	1433.65
531.63	1450.18
531.99	1466.89
532.35	1482.96
532.71	1498.94
533.07	1515.24
533.42	1531.21
533.78	1547.36
534.14	1563.75
534.50	1579.03
534.86	1595.08
535.21	1610.35
535.57	1626.34
535.93	1641.92
536.29	1656.73
536.65	1671.99
537.00	1686.95
537.36	1702.30
537.72	1716.83
538.08	1731.25
538.44	1745.16
538.79	1759.10
539.15	1772.96
539.51	1786.85
539.87	1801.30
540.22	1815.13
540.58	1829.04
540.94	1842.54
541.29	1855.52
541.65	1868.31
542.01	1881.72
542.37	1893.95
542.72	1906.49
543.08	1918.32
543.44	1930.76
543.79	1942.10
544.15	1953.01
544.51	1964.63
544.87	1975.64
545.22	1986.34
545.58	1996.55
545.94	2006.42
546.29	2016.34
546.65	2026.05
547.01	2035.36
547.36	2044.15
547.72	2052.60
548.07	2060.51
548.43	2068.65
548.79	2076.71
549.14	2084.27
549.50	2091.67
549.86	2099.42
550.21	2106.68
550.57	2113.87
550.92	2120.48
551.28	2127.62
551.64	2134.73
551.99	2141.18
552.35	2147.34
552.70	2153.46
553.06	2159.44
553.41	2165.66
553.77	2171.81
554.13	2178.04
554.48	2183.91
554.84	2189.26
555.19	2194.72
555.55	2199.80
555.90	2204.11
556.26	2208.88
556.61	2213.69
556.97	2217.81
557.32	2221.96
557.68	2226.03
558.03	2230.39
558.39	2233.97
558.74	2238.59
559.10	2242.40
559.45	2246.13
559.81	2250.54
560.16	2254.46
560.52	2257.70
560.87	2261.40
561.23	2263.91
561.58	2266.78
561.94	2269.55
562.29	2271.99
562.64	2274.56
563.00	2277.14
563.35	2280.84
563.71	2284.11
564.06	2287.27
564.42	2290.19
564.77	2292.68
565.12	2294.92
565.48	2296.72
565.83	2298.55
566.19	2299.80
566.54	2300.94
566.89	2302.01
567.25	2302.47
567.60	2303.78
567.96	2305.43
568.31	2306.15
568.66	2307.11
569.02	2307.70
569.37	2307.98
569.72	2308.73
570.08	2308.86
570.43	2308.78
570.78	2308.04
571.14	2306.42
571.49	2305.05
571.84	2304.63
572.20	2303.36
572.55	2302.30
572.90	2300.71
573.26	2299.46
573.61	2297.72
573.96	2295.62
574.31	2292.65
574.67	2289.57
575.02	2285.84
575.37	2282.35
575.72	2278.25
576.08	2274.96
576.43	2271.43
576.78	2267.72
577.13	2264.43
577.49	2261.25
577.84	2257.77
578.19	2253.87
578.54	2250.13
578.90	2245.72
579.25	2240.11
579.60	2235.06
579.95	2230.02
580.30	2225.01
580.66	2219.71
581.01	2214.69
581.36	2209.72
581.71	2205.34
582.06	2200.82
582.42	2196.34
582.77	2191.03
583.12	2186.41
583.47	2181.56
583.82	2176.35
584.17	2170.85
584.53	2165.29
584.88	2159.61
585.23	2153.71
585.58	2148.32
585.93	2142.74
586.28	2137.98
586.63	2132.75
586.98	2127.52
587.34	2122.75
587.69	2117.83
588.04	2112.48
588.39	2106.69
588.74	2100.18
589.09	2094.02
589.44	2087.21
589.79	2081.12
590.14	2075.43
590.49	2068.87
590.84	2062.42
591.19	2056.40
591.54	2049.95
591.89	2042.48
592.25	2035.58
592.60	2028.36
592.95	2020.66
593.30	2013.22
593.65	2005.47
594.00	1998.42
594.35	1991.31
594.70	1983.24
595.05	1975.68
595.40	1968.28
595.75	1960.68
596.10	1954.30
596.45	1947.47
596.80	1941.18
597.15	1934.39
597.50	1927.20
597.85	1920.69
598.19	1913.94
598.54	1906.98
598.89	1900.37
599.24	1894.52
599.59	1887.78
599.94	1881.56
600.29	1875.22
600.64	1868.67
600.99	1861.11
601.34	1854.29
601.69	1847.21
602.04	1840.18
602.39	1832.92
602.74	1826.05
603.08	1819.30
603.43	1812.49
603.78	1805.17
604.13	1797.87
604.48	1790.41
604.83	1783.59
605.18	1776.58
605.53	1768.51
605.87	1760.36
606.22	1753.06
606.57	1744.98
606.92	1737.57
607.27	1730.17
607.62	1723.14
607.96	1715.73
608.31	1709.09
608.66	1701.42
609.01	1693.88
609.36	1686.30
609.70	1678.32
610.05	1670.14
610.40	1662.36
610.75	1654.12
611.10	1646.47
611.44	1638.11
611.79	1630.35
612.14	1621.68
612.49	1612.44
612.83	1604.24
613.18	1596.23
613.53	1588.13
613.88	1579.58
614.22	1571.34
614.57	1562.87
614.92	1554.86
615.27	1547.42
615.61	1539.08
615.96	1531.00
616.31	1523.28
616.65	1515.95
617.00	1508.37
617.35	1500.82
617.70	1492.51
618.04	1483.93
618.39	1475.56
618.74	1468.03
619.08	1459.72
619.43	1452.15
619.78	1445.30
620.12	1437.95
620.47	1430.21
620.82	1421.95
621.16	1414.64
621.51	1407.00
621.85	1399.44
622.20	1390.89
622.55	1382.48
622.89	1374.66
623.24	1367.11
623.59	1359.90
623.93	1352.37
624.28	1345.05
624.62	1337.48
624.97	1330.29
625.32	1323.65
625.66	1316.71
626.01	1309.39
626.35	1301.92
626.70	1294.17
627.04	1286.41
627.39	1278.59
627.73	1271.28
628.08	1264.42
628.43	1257.01
628.77	1249.64
629.12	1241.99
629.46	1234.76
629.81	1227.26
630.15	1220.07
630.50	1212.65
630.84	1204.35
631.19	1196.45
631.53	1189.00
631.88	1181.39
632.22	1173.75
632.57	1166.47
632.91	1158.94
633.26	1151.51
633.60	1144.17
633.95	1137.04
634.29	1130.10
634.64	1123.60
634.98	1116.25
635.32	1109.12
635.67	1102.58
636.01	1096.00
636.36	1089.19
636.70	1082.80
637.05	1076.42
637.39	1070.02
637.73	1063.56
638.08	1057.76
638.42	1051.71
638.77	1045.22
639.11	1038.66
639.45	1032.42
639.80	1025.73
640.14	1019.17
640.49	1012.72
640.83	1006.33
641.17	1000.09
641.52	993.73
641.86	987.29
642.20	981.46
642.55	975.23
642.89	968.75
643.23	962.13
643.58	956.41
643.92	950.23
644.26	944.00
644.61	937.90
644.95	931.84
645.29	925.17
645.64	918.47
645.98	912.13
646.32	906.39
646.66	900.30
647.01	894.45
647.35	888.78
647.69	882.98
648.04	877.50
648.38	871.72
648.72	865.69
649.06	859.54
649.41	853.64
649.75	847.62
650.09	841.57
650.43	835.78
650.78	829.64
651.12	823.60
651.46	817.94
651.80	812.17
652.14	806.79
652.49	801.47
652.83	796.25
653.17	790.58
653.51	784.70
653.85	779.23
654.20	773.65
654.54	767.66
654.88	761.94
655.22	756.08
655.56	750.41
655.90	744.96
656.25	739.76
656.59	734.38
656.93	729.22
657.27	724.15
657.61	718.74
657.95	713.67
658.29	708.66
658.64	703.52
658.98	698.28
659.32	692.76
659.66	687.48
660.00	682.15
660.34	677.26
660.68	672.45
661.02	667.54
661.36	662.84
661.70	658.42
662.05	654.06
662.39	649.72
662.73	645.29
663.07	640.92
663.41	636.48
663.75	632.00
664.09	627.49
664.43	623.14
664.77	619.07
665.11	614.78
665.45	610.71
665.79	606.52
666.13	602.30
666.47	598.23
666.81	594.10
667.15	590.05
667.49	586.13
667.83	582.35
668.17	578.38
668.51	574.29
668.85	570.21
669.19	566.35
669.53	562.48
669.87	558.57
670.21	554.87
670.55	551.20
670.89	547.81
671.23	544.34
671.57	540.79
671.91	537.19
672.25	533.77
672.58	530.17
672.92	526.82
673.26	523.72
673.60	520.57
673.94	517.46
674.28	514.50
674.62	511.54
674.96	508.43
675.30	505.51
675.64	502.64
675.97	499.92
676.31	497.04
676.65	494.13
676.99	491.48
677.33	488.66
677.67	485.88
678.01	482.85
678.34	479.87
678.68	477.03
679.02	474.19
679.36	471.40
679.70	468.68
680.04	465.93
680.37	463.07
680.71	460.28
681.05	457.71
681.39	455.09
681.73	452.48
682.06	449.91
682.40	447.35
682.74	444.80
683.08	442.27
683.42	439.67
683.75	437.19
684.09	434.58
684.43	432.11
684.77	429.64
685.10	427.26
685.44	424.97
685.78	422.70
686.12	420.50
686.45	418.20
686.79	415.91
687.13	413.71
687.46	411.55
687.80	409.48
688.14	407.27
688.48	405.10
688.81	402.83
689.15	400.65
689.49	398.53
689.82	396.44
690.16	394.31
690.50	392.37
690.83	390.37
691.17	388.44
691.51	386.51
691.84	384.71
692.18	382.80
692.52	380.82
692.85	378.86
693.19	377.00
693.52	375.21
693.86	373.41
694.20	371.63
694.53	369.83
694.87	367.97
695.21	366.19
695.54	364.40
695.88	362.68
696.21	361.02
696.55	359.35
696.88	357.70
697.22	356.09
697.56	354.48
697.89	352.88
698.23	351.25
698.56	349.63
698.90	347.98
699.23	346.35
699.57	344.81
699.90	343.29
700.24	341.73
700.58	340.14
700.91	338.65
701.25	337.25
701.58	335.88
701.92	334.53
702.25	333.16
702.59	331.80
702.92	330.48
703.26	329.20
703.59	327.94
703.93	326.77
704.26	325.53
704.60	324.23
704.93	322.98
705.26	321.76
705.60	320.62
705.93	319.51
706.27	318.45
706.60	317.42
706.94	316.35
707.27	315.25
707.61	314.21
707.94	313.19
708.27	312.12
708.61	311.06
708.94	310.05
709.28	309.03
709.61	308.05
709.94	307.09
710.28	306.05
710.61	305.08
710.95	303.99
711.28	303.08
711.61	302.15
711.95	301.26
712.28	300.28
712.61	299.28
712.95	298.38
713.28	297.53
713.61	296.60
713.95	295.70
714.28	294.84
714.61	293.99
714.95	293.15
715.28	292.25
715.61	291.36
715.95	290.50
716.28	289.67
716.61	288.87
716.95	288.08
717.28	287.36
717.61	286.57
717.94	285.84
718.28	285.03
718.61	284.31
718.94	283.60
719.27	282.94
719.61	282.32
719.94	281.65
720.27	280.89
720.60	280.25
720.94	279.63
721.27	279.06
721.60	278.49
721.93	277.88
722.27	277.33
722.60	276.80
722.93	276.21
723.26	275.68
723.59	275.11
723.93	274.56
724.26	274.02
724.59	273.46
724.92	272.92
725.25	272.44
725.59	271.92
725.92	271.38
726.25	270.89
726.58	270.39
726.91	269.89
727.24	269.44
727.57	268.98
727.91	268.49
728.24	268.01
728.57	267.54
728.90	267.11
729.23	266.62
729.56	266.18
729.89	265.73
730.22	265.26
730.55	264.80
730.89	264.39
731.22	263.92
731.55	263.51
731.88	263.09
732.21	262.66
732.54	262.23
732.87	261.85
733.20	261.45
733.53	261.07
733.86	260.67
734.19	260.27
734.52	259.88
734.85	259.57
735.18	259.19
735.51	258.79
735.84	258.41
736.17	258.07
736.50	257.68
736.83	257.45
737.16	257.11
737.49	256.71
737.82	256.31
738.15	255.97
738.48	255.64
738.81	255.32
739.14	255.00
739.47	254.68
739.80	254.35
740.13	254.05
740.46	253.73
740.79	253.41
741.12	253.12
741.45	252.77
741.78	252.40
742.11	252.10
742.44	251.82
742.77	251.51
743.10	251.21
743.43	250.88
743.75	250.49
744.08	250.32
744.41	250.12
744.74	249.85
745.07	249.57
745.40	249.32
745.73	249.09
746.06	248.77
746.39	248.45
746.71	248.18
747.04	247.90
747.37	247.62
747.70	247.40
748.03	247.12
748.36	246.93
748.68	246.69
749.01	246.44
749.34	246.17
749.67	245.95
750.00	245.73
750.33	245.61
750.65	245.38
750.98	245.06
751.31	244.83
751.64	244.65
751.97	244.50
752.29	244.27
752.62	244.01
752.95	243.82
753.28	243.66
753.60	243.47
753.93	243.29
754.26	243.07
754.59	242.86
754.91	242.65
755.24	242.45
755.57	242.26
755.90	242.06
756.22	241.85
756.55	241.66
756.88	241.48
757.20	241.23
757.53	241.04
757.86	240.88
758.19	240.69
758.51	240.49
758.84	240.28
759.17	240.11
759.49	239.92
759.82	239.81
760.15	239.64
760.47	239.48
760.80	239.29
761.13	239.19
761.45	239.04
761.78	238.92
762.11	238.75
762.43	238.61
762.76	238.48
763.08	238.39
763.41	238.26
763.74	238.11
764.06	237.97
764.39	237.82
764.71	237.66
765.04	237.56
765.37	237.43
765.69	237.31
766.02	237.15
766.34	237.07
766.67	236.91
767.00	236.82
767.32	236.74
767.65	236.71
767.97	236.59
768.30	236.46
768.62	236.33
768.95	236.27
769.27	236.13
769.60	236.05
769.92	235.91
770.25	235.77
770.57	235.66
770.90	235.59
771.22	235.51
771.55	235.45
771.87	235.35
772.20	235.28
772.52	235.27
772.85	235.31
773.17	235.19
773.50	235.10
773.82	235.00
774.15	234.90
774.47	234.72
774.80	234.61
775.12	234.53
775.45	234.47
775.77	234.39
776.09	234.34
776.42	234.28
776.74	234.24
777.07	234.22
777.39	234.15
777.72	234.06
778.04	233.99
778.36	233.91
778.69	233.84
779.01	233.75
779.33	233.61
779.66	233.44
779.98	233.37
780.31	233.30
780.63	233.29
780.95	233.24
781.28	233.19
781.60	233.13
781.92	233.05
782.25	232.97
782.57	232.90
782.89	232.80
783.22	232.70
783.54	232.61
783.86	232.50
784.19	232.46
784.51	232.43
784.83	232.38
785.16	232.31
785.48	232.25
785.80	232.19
786.12	232.16
786.45	232.11
786.77	232.07
787.09	232.01
787.42	231.89
787.74	231.84
788.06	231.79
788.38	231.77
788.71	231.71
789.03	231.69
789.35	231.63
789.67	231.59
789.99	231.56
790.32	231.51
790.64	231.50
790.96	231.50
791.28	231.42
791.61	231.34
791.93	231.28
792.25	231.22
792.57	231.27
792.89	231.19
793.21	231.19
793.54	231.13
793.86	231.11
794.18	231.10
794.50	231.04
794.82	231.01
795.14	230.98
795.47	230.94
795.79	230.89
796.11	230.81
796.43	230.76
796.75	230.73
797.07	230.70
797.39	230.63
797.71	230.54
798.04	230.49
798.36	230.48
798.68	230.43
799.00	230.39
799.32	230.29
799.64	230.27
799.96	230.20
800.28	230.20
800.60	230.15
800.92	230.11
801.24	230.05
801.56	230.00
801.89	229.92
802.21	229.92
802.53	229.82
802.85	229.84
803.17	229.85
803.49	229.78
803.81	229.72
804.13	229.71
804.45	229.66
804.77	229.64
805.09	229.62
805.41	229.62
805.73	229.58
806.05	229.52
806.37	229.48
806.69	229.42
807.01	229.38
807.33	229.32
807.65	229.28
807.97	229.28
808.28	229.24
808.60	229.24
808.92	229.21
809.24	229.27
809.56	229.24
809.88	229.19
810.20	229.17
810.52	229.19
810.84	229.12
811.16	229.10
811.48	229.09
811.80	229.09
812.12	229.07
812.43	229.10
812.75	229.12
813.07	229.11
813.39	229.11
813.71	229.09
814.03	229.10
814.35	229.08
814.67	229.03
814.98	229.01
815.30	228.99
815.62	228.97
815.94	228.89
816.26	228.90
816.58	228.88
816.89	228.88
817.21	228.84
817.53	228.86
817.85	228.85
818.17	228.82
818.48	228.77
818.80	228.75
819.12	228.69
819.44	228.67
819.76	228.61
820.07	228.62
820.39	228.59
820.71	228.56
821.03	228.55
821.34	228.57
821.66	228.59
821.98	228.59
822.30	228.59
822.61	228.66
822.93	228.62
823.25	228.61
823.57	228.59
823.88	228.56
824.20	228.54
824.52	228.53
824.83	228.53
825.15	228.52
825.47	228.51
825.79	228.56
826.10	228.54
826.42	228.56
826.74	228.56
827.05	228.56
827.37	228.60
827.69	228.60
828.00	228.58
828.32	228.57
828.64	228.56
828.95	228.61
829.27	228.60
829.58	228.59
829.90	228.62
830.22	228.66
830.53	228.64
830.85	228.66
831.17	228.65
831.48	228.64
831.80	228.65
832.11	228.63
832.43	228.57
832.75	228.54
833.06	228.60
833.38	228.54
833.69	228.49
834.01	228.46
834.32	228.45
834.64	228.44
834.96	228.44
835.27	228.41
835.59	228.37
835.90	228.29
836.22	228.28
836.53	228.22
836.85	228.17
837.16	228.26
837.48	228.24
837.79	228.25
838.11	228.24
838.42	228.21
838.74	228.25
839.05	228.26
839.37	228.26
839.68	228.18
840.00	228.18
840.31	228.23
840.63	228.23
840.94	228.20
841.26	228.15
841.57	228.15
841.88	228.16
842.20	228.11
842.51	228.10
842.83	228.10
843.14	228.20
843.46	228.21
843.77	228.14
844.08	228.17
844.40	228.14
844.71	228.17
845.03	228.14
845.34	228.11
845.65	228.08
845.97	228.09
846.28	228.08
846.60	228.08
846.91	228.08
847.22	228.07
847.54	228.11
847.85	228.13
848.16	228.10
848.48	228.10
848.79	228.16
849.10	228.18
849.42	228.17
849.73	228.08
850.04	228.04
850.36	228.02
850.67	227.98
850.98	227.99
851.30	227.96
851.61	227.97
851.92	227.93
852.23	227.97
852.55	227.98
852.86	227.97
853.17	227.98
853.49	227.99
853.80	228.02
854.11	228.04
854.42	228.05
854.74	228.05
855.05	228.04
855.36	228.01
855.67	228.00
855.99	228.00
856.30	228.10
856.61	228.15
856.92	228.12
857.23	228.14
857.55	228.12
857.86	228.11
858.17	228.11
858.48	228.09
858.79	228.09
859.11	228.09
859.42	228.08
859.73	228.09
860.04	228.05
860.35	227.97
860.66	227.90
860.98	227.93
861.29	227.93
861.60	227.85
861.91	227.86
862.22	227.87
862.53	227.87
862.84	227.73
863.16	227.70
863.47	227.71
863.78	227.70
864.09	227.65
864.40	227.64
864.71	227.64
865.02	227.65
865.33	227.61
865.64	227.60
865.95	227.58
866.27	227.60
866.58	227.62
866.89	227.63
867.20	227.64
867.51	227.59
867.82	227.54
868.13	227.62
868.44	227.56
868.75	227.56
869.06	227.57
869.37	227.57
869.68	227.59
869.99	227.60
870.30	227.61
870.61	227.65
870.92	227.63
871.23	227.61
871.54	227.60
871.85	227.60
872.16	227.62
872.47	227.62
872.78	227.57
873.09	227.55
873.40	227.55
873.71	227.58
874.02	227.58
874.33	227.59
874.64	227.54
874.95	227.55
875.26	227.53
875.56	227.48
875.87	227.47
876.18	227.44
876.49	227.54
876.80	227.50
877.11	227.47
877.42	227.49
877.73	227.45
878.04	227.46
878.35	227.45
878.66	227.42
878.96	227.44
879.27	227.42
879.58	227.41
879.89	227.40
880.20	227.37
880.51	227.33
880.82	227.33
881.12	227.36
881.43	227.35
881.74	227.33
882.05	227.34
882.36	227.35
882.67	227.32
882.97	227.19
883.28	227.19
883.59	227.21
883.90	227.26
884.21	227.31
884.51	227.30
884.82	227.30
885.13	227.30
885.44	227.27
885.74	227.26
886.05	227.30
886.36	227.32
886.67	227.31
886.98	227.35
887.28	227.36
887.59	227.38
887.90	227.37
888.20	227.40
888.51	227.43
888.82	227.41
889.13	227.45
889.43	227.53
889.74	227.53
890.05	227.49
890.35	227.47
890.66	227.46
890.97	227.46
891.28	227.45
891.58	227.47
891.89	227.49
892.20	227.47
892.50	227.44
892.81	227.42
893.12	227.41
893.42	227.41
893.73	227.40
894.04	227.40
894.34	227.42
894.65	227.41
894.95	227.38
895.26	227.42
895.57	227.44
895.87	227.36
896.18	227.42
896.48	227.43
896.79	227.40
897.10	227.39
897.40	227.41
897.71	227.42
898.01	227.41
898.32	227.41
898.63	227.45
898.93	227.44
899.24	227.45
899.54	227.46
899.85	227.45
900.15	227.43
900.46	227.42
900.76	227.41
901.07	227.40
901.38	227.41
901.68	227.41
901.99	227.38
902.29	227.40
902.60	227.35
902.90	227.36
903.21	227.37
903.51	227.41
903.82	227.42
904.12	227.42
904.43	227.40
904.73	227.40
905.03	227.39
905.34	227.51
905.64	227.49
905.95	227.47
906.25	227.47
906.56	227.47
906.86	227.47
907.17	227.48
907.47	227.49
907.77	227.48
908.08	227.44
908.38	227.45
908.69	227.47
908.99	227.49
909.30	227.51
909.60	227.50
909.90	227.46
910.21	227.42
910.51	227.40
910.81	227.40
911.12	227.39
911.42	227.39
911.73	227.27
912.03	227.25
912.33	227.29
912.64	227.25
912.94	227.21
913.24	227.18
913.55	227.15
913.85	227.15
914.15	227.19
914.46	227.20
914.76	227.20
915.06	227.18
915.37	227.18
915.67	227.14
915.97	227.14
916.27	227.16
916.58	227.20
916.88	227.23
917.18	227.20
917.49	227.26
917.79	227.26
918.09	227.28
918.39	227.34
918.70	227.33
919.00	227.36
919.30	227.46
919.60	227.47
919.91	227.47
920.21	227.48
920.51	227.46
920.81	227.45
921.12	227.43
921.42	227.40
921.72	227.38
922.02	227.40
922.32	227.41
922.63	227.39
922.93	227.41
923.23	227.38
923.53	227.39
923.83	227.36
924.13	227.38
924.44	227.40
924.74	227.43
925.04	227.46
925.34	227.46
925.64	227.41
925.94	227.42
926.24	227.47
926.55	227.44
926.85	227.47
927.15	227.50
927.45	227.54
927.75	227.58
928.05	227.58
928.35	227.57
928.65	227.60
928.95	227.63
929.26	227.63
929.56	227.66
929.86	227.69
930.16	227.65
930.46	227.65
930.76	227.64
931.06	227.56
931.36	227.49
931.66	227.52
931.96	227.55
932.26	227.52
932.56	227.48
932.86	227.48
933.16	227.49
933.46	227.45
933.76	227.41
934.06	227.37
934.36	227.43
934.66	227.44
934.96	227.42
935.26	227.42
935.56	227.43
935.86	227.39
936.16	227.38
936.46	227.38
936.76	227.37
937.06	227.36
937.36	227.38
937.66	227.42
937.96	227.41
938.26	227.38
938.56	227.37
938.86	227.36
939.16	227.39
939.46	227.37
939.76	227.36
940.06	227.34
940.35	227.34
940.65	227.28
940.95	227.26
941.25	227.25
941.55	227.20
941.85	227.17
942.15	227.16
942.45	227.17
942.75	227.15
943.04	227.13
943.34	227.15
943.64	227.16
943.94	227.12
944.24	227.09
944.54	227.07
944.84	227.08
945.13	227.08
945.43	227.07
945.73	227.07
946.03	227.07
946.33	227.07
946.62	227.06
946.92	227.06
947.22	227.07
947.52	227.05
947.82	227.07
948.11	227.08
948.41	227.07
948.71	227.07
949.01	227.09
949.31	227.04
949.60	227.01
949.90	227.00
950.20	226.97
950.50	226.95
950.79	226.95
951.09	226.98
951.39	226.96
951.69	226.94
951.98	226.94
952.28	226.95
952.58	226.97
952.87	226.98
953.17	226.98
953.47	226.95
953.76	226.93
954.06	226.90
954.36	226.87
954.66	226.90
954.95	226.90
955.25	226.91
955.55	226.97
955.84	226.99
956.14	226.99
956.44	227.03
956.73	227.03
957.03	227.06
957.32	227.03
957.62	227.03
957.92	227.04
958.21	227.05
958.51	227.17
958.81	227.18
959.10	227.19
959.40	227.21
959.69	227.23
959.99	227.26
960.29	227.25
960.58	227.25
960.88	227.28
961.17	227.27
961.47	227.29
961.76	227.29
962.06	227.30
962.36	227.27
962.65	227.27
962.95	227.30
963.24	227.29
963.54	227.30
963.83	227.34
964.13	227.35
964.42	227.35
964.72	227.26
965.01	227.23
965.31	227.21
965.60	227.17
965.90	227.24
966.19	227.24
966.49	227.27
966.78	227.28
967.08	227.29
967.37	227.28
967.67	227.28
967.96	227.26
968.26	227.24
968.55	227.25
968.85	227.26
969.14	227.26
969.43	227.28
969.73	227.26
970.02	227.26
970.32	227.24
970.61	227.22
970.91	227.18
971.20	227.19
971.49	227.21
971.79	227.26
972.08	227.21
972.38	227.21
972.67	227.21
972.96	227.21
973.26	227.20
973.55	227.25
973.85	227.24
974.14	227.28
974.43	227.27
974.73	227.29
975.02	227.29
975.31	227.29
975.61	227.28
975.90	227.26
976.19	227.21
976.49	227.21
976.78	227.22
977.07	227.25
977.37	227.26
977.66	227.25
977.95	227.23
978.24	227.22
978.54	227.26
978.83	227.27
979.12	227.29
979.42	227.25
979.71	227.20
980.00	227.19
980.29	227.18
980.59	227.15
980.88	227.16
981.17	227.12
981.46	227.10
981.76	227.09
982.05	227.12
982.34	227.15
982.63	227.16
982.93	227.15
983.22	227.13
983.51	227.12
983.80	227.13
984.09	227.16
984.39	227.14
984.68	227.09
984.97	227.05
985.26	227.01
985.55	227.03
985.85	227.00
986.14	227.01
986.43	227.01
986.72	227.02
987.01	226.99
987.30	227.04
987.59	227.04
987.89	227.04
988.18	227.00
988.47	226.98
988.76	226.94
989.05	226.95
989.34	226.96
989.63	227.01
989.92	226.98
990.22	226.94
990.51	226.95
990.80	226.93
991.09	226.95
991.38	226.96
991.67	226.95
991.96	226.95
992.25	226.96
992.54	226.92
992.83	226.92
993.12	226.92
993.41	226.90
993.70	226.95
993.99	226.99
994.28	227.02
994.58	227.00
994.87	227.03
995.16	227.03
995.45	227.03
995.74	226.99
996.03	227.01
996.32	227.00
996.61	227.02
996.90	227.05
997.19	227.06
997.48	227.06
997.77	227.05
998.06	227.08
998.34	227.06
998.63	227.08
998.92	227.10
999.21	227.13
999.50	227.14
999.79	227.08
1000.08	227.06
1000.37	227.06
1000.66	227.10
1000.95	227.14
1001.24	227.16
1001.53	227.16
1001.82	227.18
1002.11	227.18
1002.40	227.21
1002.68	227.26
1002.97	227.30
1003.26	227.27
1003.55	227.27
1003.84	227.27
1004.13	227.27
1004.42	227.27
1004.71	227.25
1004.99	227.24
1005.28	227.26
1005.57	227.27
1005.86	227.29
1006.15	227.27
1006.44	227.28
1006.72	227.28
1007.01	227.24
1007.30	227.24
1007.59	227.23
1007.88	227.22
1008.17	227.23
1008.45	227.21
1008.74	227.15
1009.03	227.11
1009.32	227.15
1009.60	227.18
1009.89	227.22
1010.18	227.22
1010.47	227.22
1010.76	227.23
1011.04	227.28
1011.33	227.28
1011.62	227.26
1011.91	227.27
1012.19	227.29
1012.48	227.26
1012.77	227.25
1013.05	227.32
1013.34	227.32
1013.63	227.32
1013.92	227.30
1014.20	227.30
1014.49	227.31
1014.78	227.30
1015.06	227.28
1015.35	227.28
1015.64	227.24
1015.92	227.24
1016.21	227.27
1016.50	227.29
1016.78	227.30
1017.07	227.26
1017.36	227.21
1017.64	227.19
1017.93	227.19
1018.22	227.16
1018.50	227.20
1018.79	227.14
1019.08	227.06
1019.36	227.04
1019.65	227.05
1019.93	227.10
1020.22	227.08
1020.51	227.11
1020.79	227.15
1021.08	226.50
1021.36	227.34
1021.65	226.25
1021.94	226.68
1022.22	226.86
1022.51	227.54
1022.79	227.69
1023.08	226.80
1023.36	227.93
1023.65	227.86
>>>>>End Processed Spectral Data<<<<<
