SpectraSuite Data File
++++++++++++++++++++++++++++++++++++
Date: Fri Feb 01 15:22:56 EST 2013
User: group
Dark Spectrum Present: No
Reference Spectrum Present: No
Number of Sampled Component Spectra: 1
Spectrometers: USB2E7196
Integration Time (usec): 35000 (USB2E7196)
Spectra Averaged: 100 (USB2E7196)
Boxcar Smoothing: 10 (USB2E7196)
Correct for Electrical Dark: No (USB2E7196)
Strobe/Lamp Enabled: No (USB2E7196)
Correct for Detector Non-linearity: No (USB2E7196)
Correct for Stray Light: No (USB2E7196)
Number of Pixels in Processed Spectrum: 2048
>>>>>Begin Processed Spectral Data<<<<<
339.09	0.00
339.48	215.02
339.86	216.70
340.24	217.86
340.63	219.57
341.01	221.86
341.39	222.65
341.78	223.78
342.16	224.89
342.54	225.25
342.93	213.65
343.31	224.43
343.69	224.97
344.07	225.44
344.46	225.87
344.84	226.23
345.22	226.49
345.60	226.73
345.99	226.88
346.37	227.00
346.75	227.10
347.13	227.14
347.52	227.20
347.90	227.28
348.28	227.29
348.66	227.33
349.05	227.32
349.43	227.35
349.81	227.40
350.19	227.44
350.57	227.50
350.96	227.55
351.34	227.65
351.72	227.75
352.10	227.84
352.48	227.93
352.87	227.99
353.25	228.07
353.63	228.14
354.01	228.22
354.39	228.26
354.77	228.34
355.15	228.47
355.54	228.53
355.92	228.55
356.30	228.64
356.68	228.78
357.06	228.90
357.44	228.96
357.82	229.03
358.20	229.10
358.58	229.16
358.97	229.21
359.35	229.26
359.73	229.32
360.11	229.38
360.49	229.42
360.87	229.48
361.25	229.49
361.63	229.54
362.01	229.56
362.39	229.62
362.77	229.63
363.15	229.62
363.53	229.63
363.91	229.66
364.29	229.68
364.67	229.57
365.05	229.55
365.43	229.53
365.81	229.54
366.19	229.58
366.57	229.61
366.95	229.57
367.33	229.56
367.71	229.57
368.09	229.53
368.47	229.51
368.85	229.46
369.23	229.45
369.61	229.37
369.99	229.39
370.37	229.35
370.75	229.36
371.13	229.29
371.51	229.26
371.89	229.22
372.27	229.18
372.65	229.14
373.03	229.08
373.41	229.04
373.78	228.96
374.16	228.83
374.54	228.73
374.92	228.67
375.30	228.58
375.68	228.45
376.06	228.39
376.44	228.30
376.82	228.24
377.19	228.17
377.57	228.10
377.95	227.99
378.33	227.93
378.71	227.81
379.09	227.77
379.47	227.71
379.84	227.60
380.22	227.50
380.60	227.40
380.98	227.31
381.36	227.23
381.73	227.12
382.11	227.06
382.49	226.98
382.87	226.91
383.25	226.86
383.62	226.91
384.00	226.85
384.38	226.79
384.76	226.74
385.13	226.73
385.51	226.67
385.89	226.63
386.27	226.58
386.64	226.54
387.02	226.45
387.40	226.41
387.78	226.36
388.15	226.30
388.53	226.26
388.91	226.22
389.29	226.19
389.66	226.22
390.04	226.22
390.42	226.25
390.79	226.25
391.17	226.23
391.55	226.13
391.92	226.12
392.30	226.13
392.68	226.13
393.05	226.13
393.43	226.15
393.81	226.14
394.18	226.16
394.56	226.18
394.94	226.21
395.31	226.24
395.69	226.33
396.06	226.39
396.44	226.46
396.82	226.52
397.19	226.62
397.57	226.62
397.95	226.69
398.32	226.72
398.70	226.78
399.07	226.85
399.45	226.93
399.82	227.00
400.20	227.06
400.58	227.17
400.95	227.17
401.33	227.31
401.70	227.48
402.08	227.57
402.45	227.67
402.83	227.79
403.20	227.91
403.58	227.98
403.95	228.10
404.33	228.24
404.71	228.36
405.08	228.55
405.46	228.70
405.83	228.89
406.21	229.01
406.58	229.18
406.96	229.35
407.33	229.53
407.70	229.74
408.08	230.05
408.45	230.25
408.83	230.51
409.20	230.71
409.58	230.88
409.95	231.14
410.33	231.41
410.70	231.67
411.08	231.95
411.45	232.27
411.82	232.60
412.20	232.94
412.57	233.36
412.95	233.65
413.32	234.06
413.69	234.41
414.07	234.84
414.44	235.29
414.82	235.79
415.19	236.35
415.56	236.89
415.94	237.41
416.31	238.07
416.68	238.70
417.06	239.43
417.43	240.12
417.81	240.90
418.18	241.68
418.55	242.55
418.93	243.43
419.30	244.35
419.67	245.28
420.04	246.24
420.42	247.22
420.79	248.38
421.16	249.53
421.54	250.74
421.91	251.97
422.28	253.27
422.66	254.59
423.03	255.88
423.40	257.21
423.77	258.64
424.15	260.08
424.52	261.57
424.89	263.17
425.26	264.76
425.64	266.22
426.01	267.82
426.38	269.47
426.75	271.13
427.13	272.86
427.50	274.70
427.87	276.59
428.24	278.47
428.61	280.26
428.99	282.18
429.36	284.29
429.73	286.36
430.10	288.37
430.47	290.45
430.85	292.57
431.22	294.82
431.59	297.17
431.96	299.39
432.33	301.90
432.70	304.26
433.08	307.09
433.45	309.76
433.82	312.36
434.19	315.25
434.56	318.11
434.93	320.76
435.30	323.39
435.68	326.34
436.05	329.18
436.42	331.97
436.79	334.56
437.16	337.30
437.53	340.19
437.90	342.99
438.27	345.76
438.64	348.59
439.01	351.20
439.38	353.45
439.75	355.62
440.13	358.10
440.50	360.43
440.87	362.23
441.24	364.16
441.61	366.35
441.98	367.83
442.35	369.62
442.72	371.48
443.09	373.26
443.46	374.19
443.83	374.80
444.20	375.33
444.57	376.17
444.94	376.40
445.31	376.69
445.68	377.07
446.05	377.13
446.42	376.75
446.79	376.30
447.16	375.85
447.53	375.54
447.90	374.36
448.27	373.18
448.64	371.62
449.01	370.44
449.37	368.43
449.74	366.49
450.11	364.21
450.48	361.73
450.85	359.19
451.22	357.05
451.59	355.03
451.96	353.06
452.33	350.41
452.70	348.07
453.07	345.28
453.43	342.34
453.80	339.53
454.17	336.90
454.54	334.41
454.91	331.65
455.28	328.98
455.65	326.51
456.02	324.09
456.38	321.93
456.75	319.29
457.12	317.05
457.49	314.85
457.86	312.66
458.23	310.82
458.59	308.75
458.96	306.62
459.33	304.67
459.70	302.76
460.07	301.27
460.43	299.53
460.80	297.88
461.17	296.45
461.54	294.98
461.91	293.49
462.27	292.00
462.64	290.75
463.01	289.42
463.38	288.10
463.74	286.71
464.11	285.51
464.48	284.49
464.85	283.40
465.21	282.49
465.58	281.56
465.95	280.44
466.32	279.54
466.68	278.67
467.05	277.82
467.42	276.96
467.78	275.99
468.15	275.12
468.52	274.48
468.88	273.60
469.25	272.82
469.62	272.21
469.98	271.54
470.35	270.90
470.72	270.27
471.08	269.64
471.45	269.10
471.82	268.53
472.18	267.95
472.55	267.46
472.92	266.99
473.28	266.54
473.65	266.10
474.02	265.65
474.38	265.31
474.75	264.96
475.11	264.62
475.48	264.39
475.85	264.16
476.21	263.90
476.58	263.75
476.94	263.58
477.31	263.42
477.67	263.27
478.04	263.19
478.41	263.13
478.77	263.17
479.14	263.11
479.50	263.17
479.87	263.23
480.23	263.35
480.60	263.44
480.96	263.55
481.33	263.75
481.69	263.97
482.06	264.14
482.42	264.37
482.79	264.62
483.15	264.94
483.52	265.31
483.88	265.71
484.25	266.08
484.61	266.53
484.98	266.99
485.34	267.57
485.71	268.15
486.07	268.73
486.44	269.27
486.80	269.95
487.17	270.68
487.53	271.49
487.90	272.31
488.26	273.20
488.62	274.17
488.99	275.17
489.35	276.22
489.72	277.33
490.08	278.50
490.44	279.75
490.81	281.10
491.17	282.44
491.54	283.87
491.90	285.39
492.26	287.05
492.63	288.77
492.99	290.56
493.36	292.43
493.72	294.47
494.08	296.56
494.45	298.82
494.81	301.16
495.17	303.60
495.54	306.16
495.90	308.84
496.26	311.70
496.63	314.66
496.99	317.76
497.35	321.02
497.72	324.47
498.08	327.99
498.44	331.65
498.80	335.55
499.17	339.57
499.53	343.79
499.89	348.13
500.26	352.62
500.62	357.26
500.98	362.19
501.34	367.31
501.71	372.68
502.07	378.16
502.43	383.74
502.79	389.52
503.16	395.61
503.52	401.86
503.88	408.19
504.24	414.79
504.60	421.70
504.97	428.81
505.33	436.10
505.69	443.77
506.05	451.54
506.41	459.40
506.78	467.58
507.14	475.94
507.50	484.72
507.86	493.75
508.22	502.95
508.59	512.20
508.95	521.71
509.31	531.46
509.67	541.52
510.03	551.89
510.39	562.42
510.75	573.20
511.12	584.15
511.48	595.43
511.84	606.94
512.20	618.45
512.56	630.42
512.92	642.65
513.28	655.02
513.64	667.46
514.00	680.23
514.37	693.16
514.73	706.30
515.09	719.30
515.45	732.59
515.81	746.23
516.17	760.16
516.53	774.40
516.89	788.65
517.25	802.82
517.61	817.25
517.97	831.78
518.33	846.28
518.69	861.11
519.05	876.25
519.41	891.39
519.77	906.91
520.13	922.39
520.49	937.80
520.85	953.23
521.21	969.02
521.57	985.29
521.93	1001.21
522.29	1017.68
522.65	1034.03
523.01	1050.28
523.37	1066.31
523.73	1082.59
524.09	1098.70
524.45	1115.11
524.81	1131.87
525.17	1148.73
525.53	1165.76
525.89	1182.66
526.25	1199.53
526.61	1215.83
526.97	1232.61
527.33	1249.10
527.68	1265.68
528.04	1282.34
528.40	1299.04
528.76	1316.19
529.12	1332.78
529.48	1349.58
529.84	1365.59
530.20	1382.21
530.56	1399.40
530.91	1416.79
531.27	1433.60
531.63	1450.05
531.99	1466.64
532.35	1482.68
532.71	1498.55
533.07	1514.78
533.42	1530.77
533.78	1546.81
534.14	1563.23
534.50	1578.69
534.86	1594.77
535.21	1610.04
535.57	1625.93
535.93	1641.45
536.29	1656.26
536.65	1671.49
537.00	1686.45
537.36	1701.92
537.72	1716.55
538.08	1730.90
538.44	1744.78
538.79	1758.77
539.15	1772.62
539.51	1786.50
539.87	1800.83
540.22	1814.77
540.58	1828.56
540.94	1842.11
541.29	1855.05
541.65	1867.91
542.01	1881.18
542.37	1893.55
542.72	1906.06
543.08	1917.87
543.44	1930.37
543.79	1941.68
544.15	1952.66
544.51	1964.27
544.87	1975.16
545.22	1985.96
545.58	1996.19
545.94	2006.10
546.29	2015.98
546.65	2025.69
547.01	2034.84
547.36	2043.69
547.72	2052.02
548.07	2060.01
548.43	2068.04
548.79	2076.28
549.14	2083.82
549.50	2091.29
549.86	2098.98
550.21	2106.23
550.57	2113.41
550.92	2120.06
551.28	2127.11
551.64	2134.22
551.99	2140.77
552.35	2146.96
552.70	2153.15
553.06	2159.16
553.41	2165.36
553.77	2171.36
554.13	2177.57
554.48	2183.79
554.84	2189.14
555.19	2194.58
555.55	2199.67
555.90	2204.11
556.26	2208.79
556.61	2213.48
556.97	2217.61
557.32	2221.67
557.68	2225.91
558.03	2230.20
558.39	2233.81
558.74	2238.38
559.10	2242.23
559.45	2245.92
559.81	2250.29
560.16	2254.18
560.52	2257.39
560.87	2260.93
561.23	2263.61
561.58	2266.53
561.94	2268.94
562.29	2271.40
562.64	2274.04
563.00	2276.60
563.35	2280.19
563.71	2283.41
564.06	2286.58
564.42	2289.41
564.77	2291.88
565.12	2294.04
565.48	2295.86
565.83	2297.58
566.19	2298.85
566.54	2299.85
566.89	2300.80
567.25	2301.28
567.60	2302.58
567.96	2304.11
568.31	2304.92
568.66	2305.90
569.02	2306.52
569.37	2306.78
569.72	2307.60
570.08	2307.63
570.43	2307.66
570.78	2306.86
571.14	2305.25
571.49	2303.79
571.84	2303.46
572.20	2302.15
572.55	2301.16
572.90	2299.66
573.26	2298.33
573.61	2296.59
573.96	2294.52
574.31	2291.49
574.67	2288.34
575.02	2284.59
575.37	2281.37
575.72	2277.54
576.08	2274.30
576.43	2270.95
576.78	2267.30
577.13	2264.04
577.49	2260.95
577.84	2257.30
578.19	2253.57
578.54	2249.72
578.90	2245.40
579.25	2239.72
579.60	2234.76
579.95	2229.56
580.30	2224.39
580.66	2219.16
581.01	2214.20
581.36	2209.23
581.71	2205.09
582.06	2200.65
582.42	2196.02
582.77	2190.62
583.12	2185.89
583.47	2180.92
583.82	2175.70
584.17	2170.32
584.53	2164.78
584.88	2158.92
585.23	2152.97
585.58	2147.39
585.93	2141.99
586.28	2137.21
586.63	2132.05
586.98	2126.91
587.34	2122.20
587.69	2117.28
588.04	2111.93
588.39	2106.12
588.74	2099.74
589.09	2093.45
589.44	2086.40
589.79	2080.39
590.14	2074.77
590.49	2068.05
590.84	2061.65
591.19	2055.50
591.54	2048.92
591.89	2041.22
592.25	2034.58
592.60	2027.41
592.95	2019.74
593.30	2012.41
593.65	2004.81
594.00	1997.85
594.35	1990.69
594.70	1982.67
595.05	1975.40
595.40	1967.96
595.75	1960.48
596.10	1954.09
596.45	1947.22
596.80	1941.16
597.15	1934.39
597.50	1927.16
597.85	1920.76
598.19	1914.04
598.54	1906.92
598.89	1900.40
599.24	1894.54
599.59	1887.64
599.94	1881.48
600.29	1875.23
600.64	1868.60
600.99	1861.05
601.34	1854.11
601.69	1847.01
602.04	1839.89
602.39	1832.38
602.74	1825.69
603.08	1818.89
603.43	1812.18
603.78	1804.88
604.13	1797.62
604.48	1790.30
604.83	1783.46
605.18	1776.35
605.53	1768.34
605.87	1760.29
606.22	1753.00
606.57	1745.06
606.92	1737.68
607.27	1730.41
607.62	1723.39
607.96	1715.97
608.31	1709.17
608.66	1701.50
609.01	1694.02
609.36	1686.61
609.70	1678.53
610.05	1670.32
610.40	1662.59
610.75	1654.18
611.10	1646.54
611.44	1638.17
611.79	1630.25
612.14	1621.50
612.49	1612.41
612.83	1603.97
613.18	1595.94
613.53	1587.85
613.88	1579.37
614.22	1571.13
614.57	1562.54
614.92	1554.50
615.27	1546.87
615.61	1538.58
615.96	1530.55
616.31	1522.88
616.65	1515.45
617.00	1507.99
617.35	1500.34
617.70	1491.81
618.04	1483.26
618.39	1475.02
618.74	1467.38
619.08	1459.03
619.43	1451.49
619.78	1444.59
620.12	1437.38
620.47	1429.71
620.82	1421.50
621.16	1414.06
621.51	1406.46
621.85	1398.85
622.20	1390.31
622.55	1382.01
622.89	1374.23
623.24	1366.66
623.59	1359.29
623.93	1351.79
624.28	1344.46
624.62	1336.90
624.97	1329.84
625.32	1323.12
625.66	1315.98
626.01	1308.78
626.35	1301.23
626.70	1293.56
627.04	1285.72
627.39	1278.06
627.73	1270.71
628.08	1263.72
628.43	1256.26
628.77	1248.87
629.12	1241.35
629.46	1234.15
629.81	1226.68
630.15	1219.37
630.50	1211.81
630.84	1203.56
631.19	1195.62
631.53	1188.15
631.88	1180.61
632.22	1173.01
632.57	1165.74
632.91	1158.24
633.26	1150.82
633.60	1143.67
633.95	1136.50
634.29	1129.59
634.64	1122.91
634.98	1115.55
635.32	1108.52
635.67	1102.15
636.01	1095.49
636.36	1088.67
636.70	1082.22
637.05	1075.70
637.39	1069.32
637.73	1062.99
638.08	1057.12
638.42	1051.18
638.77	1044.83
639.11	1038.28
639.45	1032.00
639.80	1025.32
640.14	1018.88
640.49	1012.40
640.83	1005.96
641.17	999.68
641.52	993.41
641.86	986.98
642.20	981.19
642.55	974.88
642.89	968.23
643.23	961.70
643.58	955.96
643.92	949.77
644.26	943.72
644.61	937.68
644.95	931.57
645.29	924.97
645.64	918.16
645.98	911.75
646.32	905.96
646.66	899.87
647.01	894.12
647.35	888.49
647.69	882.70
648.04	877.20
648.38	871.42
648.72	865.33
649.06	859.29
649.41	853.35
649.75	847.28
650.09	841.39
650.43	835.71
650.78	829.40
651.12	823.39
651.46	817.67
651.80	811.87
652.14	806.47
652.49	801.07
652.83	795.88
653.17	790.26
653.51	784.45
653.85	779.03
654.20	773.29
654.54	767.27
654.88	761.46
655.22	755.59
655.56	749.96
655.90	744.49
656.25	739.18
656.59	733.82
656.93	728.72
657.27	723.59
657.61	718.12
657.95	713.15
658.29	708.14
658.64	702.92
658.98	697.65
659.32	692.25
659.66	687.06
660.00	681.79
660.34	676.80
660.68	671.96
661.02	667.01
661.36	662.32
661.70	657.83
662.05	653.52
662.39	649.21
662.73	644.69
663.07	640.33
663.41	635.94
663.75	631.46
664.09	627.01
664.43	622.65
664.77	618.49
665.11	614.19
665.45	610.06
665.79	605.96
666.13	601.86
666.47	597.76
666.81	593.59
667.15	589.51
667.49	585.70
667.83	581.82
668.17	577.90
668.51	573.95
668.85	569.96
669.19	566.14
669.53	562.23
669.87	558.34
670.21	554.61
670.55	550.93
670.89	547.47
671.23	543.98
671.57	540.48
671.91	536.91
672.25	533.45
672.58	529.93
672.92	526.54
673.26	523.39
673.60	520.23
673.94	517.18
674.28	514.29
674.62	511.31
674.96	508.28
675.30	505.37
675.64	502.40
675.97	499.68
676.31	496.76
676.65	493.90
676.99	491.21
677.33	488.40
677.67	485.61
678.01	482.57
678.34	479.65
678.68	476.77
679.02	474.04
679.36	471.25
679.70	468.50
680.04	465.71
680.37	462.84
680.71	460.09
681.05	457.48
681.39	454.75
681.73	452.10
682.06	449.62
682.40	447.09
682.74	444.54
683.08	441.96
683.42	439.39
683.75	436.87
684.09	434.40
684.43	431.95
684.77	429.53
685.10	427.21
685.44	424.89
685.78	422.63
686.12	420.35
686.45	418.13
686.79	415.84
687.13	413.64
687.46	411.49
687.80	409.35
688.14	407.13
688.48	405.07
688.81	402.81
689.15	400.62
689.49	398.47
689.82	396.40
690.16	394.32
690.50	392.38
690.83	390.42
691.17	388.42
691.51	386.48
691.84	384.64
692.18	382.73
692.52	380.77
692.85	378.82
693.19	376.95
693.52	375.10
693.86	373.33
694.20	371.58
694.53	369.78
694.87	367.87
695.21	366.08
695.54	364.29
695.88	362.59
696.21	360.82
696.55	359.12
696.88	357.43
697.22	355.79
697.56	354.12
697.89	352.48
698.23	350.85
698.56	349.26
698.90	347.65
699.23	346.01
699.57	344.46
699.90	342.95
700.24	341.39
700.58	339.85
700.91	338.33
701.25	336.89
701.58	335.50
701.92	334.15
702.25	332.77
702.59	331.41
702.92	330.04
703.26	328.82
703.59	327.56
703.93	326.38
704.26	325.11
704.60	323.82
704.93	322.55
705.26	321.34
705.60	320.17
705.93	319.01
706.27	317.94
706.60	316.92
706.94	315.85
707.27	314.77
707.61	313.70
707.94	312.71
708.27	311.65
708.61	310.63
708.94	309.63
709.28	308.63
709.61	307.67
709.94	306.73
710.28	305.67
710.61	304.71
710.95	303.69
711.28	302.80
711.61	301.89
711.95	300.99
712.28	300.04
712.61	299.02
712.95	298.14
713.28	297.26
713.61	296.33
713.95	295.44
714.28	294.58
714.61	293.72
714.95	292.85
715.28	291.97
715.61	291.07
715.95	290.25
716.28	289.41
716.61	288.57
716.95	287.81
717.28	287.10
717.61	286.32
717.94	285.55
718.28	284.78
718.61	284.08
718.94	283.38
719.27	282.75
719.61	282.14
719.94	281.48
720.27	280.80
720.60	280.19
720.94	279.60
721.27	279.05
721.60	278.51
721.93	277.96
722.27	277.44
722.60	276.92
722.93	276.34
723.26	275.79
723.59	275.19
723.93	274.61
724.26	274.07
724.59	273.52
724.92	273.02
725.25	272.47
725.59	272.03
725.92	271.52
726.25	270.99
726.58	270.48
726.91	269.99
727.24	269.53
727.57	269.06
727.91	268.55
728.24	268.08
728.57	267.61
728.90	267.14
729.23	266.65
729.56	266.22
729.89	265.77
730.22	265.32
730.55	264.89
730.89	264.47
731.22	263.97
731.55	263.53
731.88	263.09
732.21	262.69
732.54	262.18
732.87	261.79
733.20	261.39
733.53	261.01
733.86	260.63
734.19	260.22
734.52	259.80
734.85	259.47
735.18	259.06
735.51	258.65
735.84	258.28
736.17	257.92
736.50	257.52
736.83	257.24
737.16	256.89
737.49	256.57
737.82	256.21
738.15	255.88
738.48	255.53
738.81	255.19
739.14	254.86
739.47	254.52
739.80	254.20
740.13	253.89
740.46	253.56
740.79	253.24
741.12	252.93
741.45	252.64
741.78	252.28
742.11	251.99
742.44	251.67
742.77	251.37
743.10	251.04
743.43	250.71
743.75	250.35
744.08	250.20
744.41	249.94
744.74	249.61
745.07	249.33
745.40	249.08
745.73	248.83
746.06	248.56
746.39	248.31
746.71	248.02
747.04	247.73
747.37	247.46
747.70	247.17
748.03	246.91
748.36	246.67
748.68	246.42
749.01	246.16
749.34	245.92
749.67	245.70
750.00	245.48
750.33	245.35
750.65	245.13
750.98	244.81
751.31	244.57
751.64	244.40
751.97	244.26
752.29	244.04
752.62	243.76
752.95	243.51
753.28	243.29
753.60	243.07
753.93	242.91
754.26	242.73
754.59	242.53
754.91	242.35
755.24	242.12
755.57	241.90
755.90	241.71
756.22	241.54
756.55	241.33
756.88	241.17
757.20	240.92
757.53	240.72
757.86	240.52
758.19	240.35
758.51	240.19
758.84	239.98
759.17	239.81
759.49	239.70
759.82	239.60
760.15	239.48
760.47	239.32
760.80	239.17
761.13	239.02
761.45	238.89
761.78	238.74
762.11	238.63
762.43	238.50
762.76	238.38
763.08	238.28
763.41	238.13
763.74	237.99
764.06	237.87
764.39	237.75
764.71	237.63
765.04	237.50
765.37	237.37
765.69	237.24
766.02	237.11
766.34	236.99
766.67	236.87
767.00	236.77
767.32	236.72
767.65	236.65
767.97	236.57
768.30	236.44
768.62	236.31
768.95	236.19
769.27	236.06
769.60	235.97
769.92	235.82
770.25	235.71
770.57	235.60
770.90	235.49
771.22	235.41
771.55	235.30
771.87	235.19
772.20	235.10
772.52	235.09
772.85	235.10
773.17	235.01
773.50	234.93
773.82	234.81
774.15	234.70
774.47	234.57
774.80	234.43
775.12	234.35
775.45	234.30
775.77	234.21
776.09	234.15
776.42	234.08
776.74	234.02
777.07	233.96
777.39	233.85
777.72	233.79
778.04	233.75
778.36	233.68
778.69	233.65
779.01	233.58
779.33	233.43
779.66	233.27
779.98	233.20
780.31	233.10
780.63	233.07
780.95	233.02
781.28	232.95
781.60	232.89
781.92	232.82
782.25	232.76
782.57	232.70
782.89	232.65
783.22	232.58
783.54	232.51
783.86	232.47
784.19	232.44
784.51	232.42
784.83	232.30
785.16	232.23
785.48	232.16
785.80	232.11
786.12	232.06
786.45	232.01
786.77	231.97
787.09	231.94
787.42	231.87
787.74	231.81
788.06	231.79
788.38	231.76
788.71	231.73
789.03	231.68
789.35	231.66
789.67	231.59
789.99	231.54
790.32	231.47
790.64	231.41
790.96	231.48
791.28	231.38
791.61	231.38
791.93	231.35
792.25	231.31
792.57	231.34
792.89	231.28
793.21	231.27
793.54	231.22
793.86	231.13
794.18	231.07
794.50	231.01
794.82	230.96
795.14	230.93
795.47	230.89
795.79	230.85
796.11	230.79
796.43	230.75
796.75	230.74
797.07	230.75
797.39	230.74
797.71	230.58
798.04	230.53
798.36	230.46
798.68	230.43
799.00	230.43
799.32	230.35
799.64	230.37
799.96	230.31
800.28	230.28
800.60	230.26
800.92	230.26
801.24	230.23
801.56	230.21
801.89	230.15
802.21	230.14
802.53	230.08
802.85	230.08
803.17	230.10
803.49	230.05
803.81	229.99
804.13	229.98
804.45	229.92
804.77	229.91
805.09	229.91
805.41	229.88
805.73	229.82
806.05	229.76
806.37	229.70
806.69	229.69
807.01	229.67
807.33	229.66
807.65	229.60
807.97	229.62
808.28	229.60
808.60	229.58
808.92	229.54
809.24	229.60
809.56	229.59
809.88	229.54
810.20	229.52
810.52	229.52
810.84	229.46
811.16	229.48
811.48	229.47
811.80	229.52
812.12	229.48
812.43	229.50
812.75	229.48
813.07	229.48
813.39	229.47
813.71	229.46
814.03	229.43
814.35	229.39
814.67	229.37
814.98	229.32
815.30	229.32
815.62	229.28
815.94	229.16
816.26	229.18
816.58	229.13
816.89	229.14
817.21	229.07
817.53	229.07
817.85	229.06
818.17	229.04
818.48	228.92
818.80	228.95
819.12	228.89
819.44	228.88
819.76	228.82
820.07	228.80
820.39	228.75
820.71	228.75
821.03	228.76
821.34	228.72
821.66	228.70
821.98	228.70
822.30	228.72
822.61	228.80
822.93	228.73
823.25	228.73
823.57	228.69
823.88	228.71
824.20	228.69
824.52	228.71
824.83	228.71
825.15	228.71
825.47	228.70
825.79	228.70
826.10	228.70
826.42	228.70
826.74	228.65
827.05	228.66
827.37	228.62
827.69	228.60
828.00	228.58
828.32	228.59
828.64	228.54
828.95	228.54
829.27	228.50
829.58	228.50
829.90	228.51
830.22	228.50
830.53	228.48
830.85	228.45
831.17	228.41
831.48	228.35
831.80	228.31
832.11	228.26
832.43	228.24
832.75	228.22
833.06	228.27
833.38	228.25
833.69	228.19
834.01	228.18
834.32	228.19
834.64	228.18
834.96	228.14
835.27	228.11
835.59	228.09
835.90	228.03
836.22	228.00
836.53	227.95
836.85	227.92
837.16	227.99
837.48	227.97
837.79	227.95
838.11	227.97
838.42	227.96
838.74	227.97
839.05	227.93
839.37	227.89
839.68	227.80
840.00	227.80
840.31	227.83
840.63	227.88
840.94	227.87
841.26	227.85
841.57	227.86
841.88	227.88
842.20	227.84
842.51	227.84
842.83	227.85
843.14	227.96
843.46	227.96
843.77	227.92
844.08	227.90
844.40	227.90
844.71	227.87
845.03	227.86
845.34	227.86
845.65	227.88
845.97	227.90
846.28	227.92
846.60	227.90
846.91	227.91
847.22	227.84
847.54	227.86
847.85	227.86
848.16	227.86
848.48	227.82
848.79	227.86
849.10	227.86
849.42	227.83
849.73	227.70
850.04	227.67
850.36	227.62
850.67	227.67
850.98	227.64
851.30	227.64
851.61	227.65
851.92	227.65
852.23	227.64
852.55	227.67
852.86	227.68
853.17	227.70
853.49	227.68
853.80	227.70
854.11	227.65
854.42	227.65
854.74	227.61
855.05	227.65
855.36	227.60
855.67	227.59
855.99	227.57
856.30	227.69
856.61	227.68
856.92	227.72
857.23	227.70
857.55	227.72
857.86	227.73
858.17	227.75
858.48	227.70
858.79	227.68
859.11	227.64
859.42	227.64
859.73	227.63
860.04	227.66
860.35	227.64
860.66	227.63
860.98	227.61
861.29	227.64
861.60	227.62
861.91	227.67
862.22	227.66
862.53	227.65
862.84	227.56
863.16	227.61
863.47	227.55
863.78	227.53
864.09	227.52
864.40	227.51
864.71	227.50
865.02	227.54
865.33	227.52
865.64	227.50
865.95	227.46
866.27	227.51
866.58	227.49
866.89	227.49
867.20	227.48
867.51	227.46
867.82	227.43
868.13	227.42
868.44	227.39
868.75	227.42
869.06	227.45
869.37	227.45
869.68	227.44
869.99	227.47
870.30	227.49
870.61	227.50
870.92	227.51
871.23	227.51
871.54	227.51
871.85	227.55
872.16	227.59
872.47	227.63
872.78	227.57
873.09	227.56
873.40	227.57
873.71	227.59
874.02	227.64
874.33	227.64
874.64	227.66
874.95	227.67
875.26	227.67
875.56	227.67
875.87	227.67
876.18	227.67
876.49	227.77
876.80	227.75
877.11	227.73
877.42	227.73
877.73	227.69
878.04	227.70
878.35	227.72
878.66	227.75
878.96	227.73
879.27	227.73
879.58	227.73
879.89	227.72
880.20	227.74
880.51	227.69
880.82	227.70
881.12	227.71
881.43	227.67
881.74	227.62
882.05	227.60
882.36	227.63
882.67	227.62
882.97	227.50
883.28	227.49
883.59	227.47
883.90	227.46
884.21	227.47
884.51	227.46
884.82	227.42
885.13	227.38
885.44	227.36
885.74	227.34
886.05	227.34
886.36	227.30
886.67	227.27
886.98	227.32
887.28	227.32
887.59	227.32
887.90	227.35
888.20	227.35
888.51	227.40
888.82	227.34
889.13	227.32
889.43	227.36
889.74	227.35
890.05	227.33
890.35	227.31
890.66	227.31
890.97	227.31
891.28	227.29
891.58	227.27
891.89	227.26
892.20	227.24
892.50	227.21
892.81	227.24
893.12	227.26
893.42	227.20
893.73	227.19
894.04	227.14
894.34	227.13
894.65	227.11
894.95	227.06
895.26	227.10
895.57	227.11
895.87	227.06
896.18	227.07
896.48	227.09
896.79	227.09
897.10	227.11
897.40	227.08
897.71	227.09
898.01	227.12
898.32	227.15
898.63	227.17
898.93	227.17
899.24	227.14
899.54	227.12
899.85	227.14
900.15	227.13
900.46	227.15
900.76	227.16
901.07	227.16
901.38	227.14
901.68	227.12
901.99	227.11
902.29	227.13
902.60	227.13
902.90	227.10
903.21	227.12
903.51	227.10
903.82	227.10
904.12	227.09
904.43	227.09
904.73	227.08
905.03	227.08
905.34	227.18
905.64	227.20
905.95	227.19
906.25	227.18
906.56	227.17
906.86	227.16
907.17	227.16
907.47	227.15
907.77	227.17
908.08	227.17
908.38	227.18
908.69	227.17
908.99	227.17
909.30	227.20
909.60	227.20
909.90	227.22
910.21	227.20
910.51	227.19
910.81	227.22
911.12	227.20
911.42	227.22
911.73	227.13
912.03	227.12
912.33	227.18
912.64	227.19
912.94	227.17
913.24	227.15
913.55	227.16
913.85	227.20
914.15	227.21
914.46	227.23
914.76	227.20
915.06	227.21
915.37	227.22
915.67	227.21
915.97	227.23
916.27	227.19
916.58	227.24
916.88	227.25
917.18	227.24
917.49	227.33
917.79	227.33
918.09	227.34
918.39	227.37
918.70	227.35
919.00	227.36
919.30	227.45
919.60	227.43
919.91	227.43
920.21	227.39
920.51	227.36
920.81	227.31
921.12	227.34
921.42	227.34
921.72	227.31
922.02	227.32
922.32	227.30
922.63	227.32
922.93	227.32
923.23	227.31
923.53	227.28
923.83	227.23
924.13	227.19
924.44	227.19
924.74	227.22
925.04	227.22
925.34	227.21
925.64	227.17
925.94	227.21
926.24	227.27
926.55	227.28
926.85	227.31
927.15	227.32
927.45	227.34
927.75	227.36
928.05	227.41
928.35	227.41
928.65	227.42
928.95	227.42
929.26	227.39
929.56	227.40
929.86	227.42
930.16	227.39
930.46	227.41
930.76	227.41
931.06	227.37
931.36	227.33
931.66	227.33
931.96	227.32
932.26	227.32
932.56	227.25
932.86	227.27
933.16	227.26
933.46	227.25
933.76	227.22
934.06	227.21
934.36	227.21
934.66	227.19
934.96	227.18
935.26	227.19
935.56	227.22
935.86	227.21
936.16	227.16
936.46	227.16
936.76	227.13
937.06	227.11
937.36	227.09
937.66	227.09
937.96	227.09
938.26	227.04
938.56	227.02
938.86	227.03
939.16	227.06
939.46	227.09
939.76	227.10
940.06	227.08
940.35	227.08
940.65	226.99
940.95	227.02
941.25	227.01
941.55	227.00
941.85	226.99
942.15	227.02
942.45	227.06
942.75	227.06
943.04	227.08
943.34	227.13
943.64	227.13
943.94	227.15
944.24	227.11
944.54	227.13
944.84	227.15
945.13	227.14
945.43	227.08
945.73	227.05
946.03	227.05
946.33	227.03
946.62	227.00
946.92	227.04
947.22	227.03
947.52	227.05
947.82	227.08
948.11	227.08
948.41	227.05
948.71	227.03
949.01	227.00
949.31	226.99
949.60	226.97
949.90	226.96
950.20	226.97
950.50	227.02
950.79	227.05
951.09	227.03
951.39	227.05
951.69	227.08
951.98	227.09
952.28	227.10
952.58	227.11
952.87	227.11
953.17	227.10
953.47	227.09
953.76	227.04
954.06	226.97
954.36	226.93
954.66	226.93
954.95	226.95
955.25	226.96
955.55	226.98
955.84	226.93
956.14	226.96
956.44	226.94
956.73	226.89
957.03	226.88
957.32	226.90
957.62	226.88
957.92	226.89
958.21	226.88
958.51	227.00
958.81	227.04
959.10	227.05
959.40	227.11
959.69	227.13
959.99	227.13
960.29	227.16
960.58	227.17
960.88	227.22
961.17	227.18
961.47	227.17
961.76	227.16
962.06	227.21
962.36	227.20
962.65	227.20
962.95	227.21
963.24	227.21
963.54	227.21
963.83	227.21
964.13	227.22
964.42	227.18
964.72	227.08
965.01	227.06
965.31	227.08
965.60	227.03
965.90	227.07
966.19	227.07
966.49	227.08
966.78	227.08
967.08	227.07
967.37	227.07
967.67	227.06
967.96	227.08
968.26	227.05
968.55	227.06
968.85	227.07
969.14	227.07
969.43	227.07
969.73	227.04
970.02	227.02
970.32	226.99
970.61	226.98
970.91	226.96
971.20	226.95
971.49	226.91
971.79	226.92
972.08	226.86
972.38	226.86
972.67	226.86
972.96	226.88
973.26	226.86
973.55	226.91
973.85	226.92
974.14	226.89
974.43	226.91
974.73	226.88
975.02	226.85
975.31	226.86
975.61	226.85
975.90	226.87
976.19	226.88
976.49	226.89
976.78	226.92
977.07	226.91
977.37	226.90
977.66	226.95
977.95	226.94
978.24	226.97
978.54	227.01
978.83	227.00
979.12	227.00
979.42	227.00
979.71	226.96
980.00	226.96
980.29	226.99
980.59	226.97
980.88	226.99
981.17	227.00
981.46	226.97
981.76	226.99
982.05	227.02
982.34	227.02
982.63	227.03
982.93	227.02
983.22	227.06
983.51	227.05
983.80	227.03
984.09	227.05
984.39	227.00
984.68	226.98
984.97	226.99
985.26	226.98
985.55	226.99
985.85	227.02
986.14	227.03
986.43	227.03
986.72	227.04
987.01	227.01
987.30	227.02
987.59	227.04
987.89	227.00
988.18	226.96
988.47	226.95
988.76	226.93
989.05	226.91
989.34	226.87
989.63	226.92
989.92	226.88
990.22	226.87
990.51	226.89
990.80	226.88
991.09	226.88
991.38	226.88
991.67	226.87
991.96	226.83
992.25	226.84
992.54	226.84
992.83	226.83
993.12	226.85
993.41	226.88
993.70	226.90
993.99	226.94
994.28	226.95
994.58	226.98
994.87	226.99
995.16	226.99
995.45	227.01
995.74	226.97
996.03	226.98
996.32	227.00
996.61	227.01
996.90	227.03
997.19	227.05
997.48	227.07
997.77	227.06
998.06	227.09
998.34	227.10
998.63	227.10
998.92	227.11
999.21	227.11
999.50	227.12
999.79	227.12
1000.08	227.13
1000.37	227.13
1000.66	227.10
1000.95	227.11
1001.24	227.12
1001.53	227.15
1001.82	227.15
1002.11	227.14
1002.40	227.13
1002.68	227.14
1002.97	227.21
1003.26	227.18
1003.55	227.16
1003.84	227.13
1004.13	227.18
1004.42	227.16
1004.71	227.14
1004.99	227.15
1005.28	227.18
1005.57	227.13
1005.86	227.09
1006.15	227.07
1006.44	227.05
1006.72	227.08
1007.01	227.08
1007.30	227.09
1007.59	227.09
1007.88	227.09
1008.17	227.09
1008.45	227.08
1008.74	227.06
1009.03	226.99
1009.32	226.98
1009.60	227.00
1009.89	227.04
1010.18	226.96
1010.47	226.97
1010.76	226.98
1011.04	226.94
1011.33	226.94
1011.62	226.94
1011.91	226.97
1012.19	226.99
1012.48	227.00
1012.77	226.99
1013.05	227.03
1013.34	227.04
1013.63	227.01
1013.92	227.02
1014.20	227.05
1014.49	227.06
1014.78	227.10
1015.06	227.07
1015.35	227.09
1015.64	227.08
1015.92	227.08
1016.21	227.09
1016.50	227.06
1016.78	227.03
1017.07	227.04
1017.36	227.02
1017.64	226.98
1017.93	226.97
1018.22	226.96
1018.50	226.94
1018.79	226.93
1019.08	226.88
1019.36	226.87
1019.65	226.87
1019.93	226.88
1020.22	226.85
1020.51	226.88
1020.79	226.88
1021.08	226.86
1021.36	226.49
1021.65	226.82
1021.94	226.92
1022.22	227.09
1022.51	226.91
1022.79	227.17
1023.08	226.58
1023.36	228.17
1023.65	227.27
>>>>>End Processed Spectral Data<<<<<
