SpectraSuite Data File
++++++++++++++++++++++++++++++++++++
Date: Fri Feb 01 15:11:45 EST 2013
User: group
Dark Spectrum Present: No
Reference Spectrum Present: No
Number of Sampled Component Spectra: 1
Spectrometers: USB2E7196
Integration Time (usec): 35000 (USB2E7196)
Spectra Averaged: 100 (USB2E7196)
Boxcar Smoothing: 10 (USB2E7196)
Correct for Electrical Dark: No (USB2E7196)
Strobe/Lamp Enabled: No (USB2E7196)
Correct for Detector Non-linearity: No (USB2E7196)
Correct for Stray Light: No (USB2E7196)
Number of Pixels in Processed Spectrum: 2048
>>>>>Begin Processed Spectral Data<<<<<
339.09	0.00
339.48	215.04
339.86	216.34
340.24	218.31
340.63	220.14
341.01	222.47
341.39	221.99
341.78	223.06
342.16	224.63
342.54	225.66
342.93	213.64
343.31	224.43
343.69	224.99
344.07	225.45
344.46	225.87
344.84	226.21
345.22	226.44
345.60	226.69
345.99	226.89
346.37	227.04
346.75	227.10
347.13	227.19
347.52	227.23
347.90	227.32
348.28	227.32
348.66	227.36
349.05	227.35
349.43	227.40
349.81	227.45
350.19	227.45
350.57	227.50
350.96	227.58
351.34	227.67
351.72	227.76
352.10	227.86
352.48	227.93
352.87	227.98
353.25	228.04
353.63	228.12
354.01	228.16
354.39	228.22
354.77	228.33
355.15	228.41
355.54	228.47
355.92	228.49
356.30	228.55
356.68	228.65
357.06	228.70
357.44	228.74
357.82	228.81
358.20	228.88
358.58	228.93
358.97	229.00
359.35	229.06
359.73	229.11
360.11	229.16
360.49	229.18
360.87	229.23
361.25	229.30
361.63	229.35
362.01	229.40
362.39	229.41
362.77	229.43
363.15	229.45
363.53	229.42
363.91	229.41
364.29	229.40
364.67	229.33
365.05	229.35
365.43	229.35
365.81	229.37
366.19	229.42
366.57	229.48
366.95	229.44
367.33	229.39
367.71	229.37
368.09	229.38
368.47	229.37
368.85	229.35
369.23	229.30
369.61	229.26
369.99	229.24
370.37	229.20
370.75	229.18
371.13	229.10
371.51	229.07
371.89	229.03
372.27	229.01
372.65	228.94
373.03	228.91
373.41	228.83
373.78	228.74
374.16	228.62
374.54	228.48
374.92	228.40
375.30	228.36
375.68	228.30
376.06	228.21
376.44	228.14
376.82	228.06
377.19	228.01
377.57	227.94
377.95	227.86
378.33	227.79
378.71	227.67
379.09	227.62
379.47	227.56
379.84	227.50
380.22	227.41
380.60	227.32
380.98	227.24
381.36	227.15
381.73	227.06
382.11	227.02
382.49	226.97
382.87	226.89
383.25	226.84
383.62	226.85
384.00	226.80
384.38	226.74
384.76	226.73
385.13	226.72
385.51	226.66
385.89	226.61
386.27	226.58
386.64	226.55
387.02	226.53
387.40	226.46
387.78	226.41
388.15	226.37
388.53	226.38
388.91	226.35
389.29	226.37
389.66	226.37
390.04	226.35
390.42	226.36
390.79	226.36
391.17	226.29
391.55	226.20
391.92	226.17
392.30	226.20
392.68	226.15
393.05	226.12
393.43	226.13
393.81	226.16
394.18	226.16
394.56	226.18
394.94	226.20
395.31	226.26
395.69	226.36
396.06	226.42
396.44	226.48
396.82	226.50
397.19	226.57
397.57	226.65
397.95	226.73
398.32	226.75
398.70	226.83
399.07	226.99
399.45	227.06
399.82	227.14
400.20	227.20
400.58	227.31
400.95	227.36
401.33	227.48
401.70	227.66
402.08	227.76
402.45	227.87
402.83	228.03
403.20	228.15
403.58	228.22
403.95	228.32
404.33	228.43
404.71	228.58
405.08	228.76
405.46	228.87
405.83	229.02
406.21	229.21
406.58	229.36
406.96	229.50
407.33	229.70
407.70	229.91
408.08	230.19
408.45	230.37
408.83	230.63
409.20	230.86
409.58	230.99
409.95	231.26
410.33	231.52
410.70	231.75
411.08	232.04
411.45	232.35
411.82	232.70
412.20	233.10
412.57	233.50
412.95	233.82
413.32	234.25
413.69	234.63
414.07	235.10
414.44	235.59
414.82	236.10
415.19	236.62
415.56	237.17
415.94	237.69
416.31	238.34
416.68	238.94
417.06	239.63
417.43	240.32
417.81	241.09
418.18	241.88
418.55	242.74
418.93	243.62
419.30	244.55
419.67	245.44
420.04	246.38
420.42	247.38
420.79	248.57
421.16	249.71
421.54	250.96
421.91	252.15
422.28	253.39
422.66	254.68
423.03	255.99
423.40	257.33
423.77	258.78
424.15	260.23
424.52	261.72
424.89	263.35
425.26	264.91
425.64	266.35
426.01	267.96
426.38	269.59
426.75	271.25
427.13	272.96
427.50	274.79
427.87	276.64
428.24	278.50
428.61	280.23
428.99	282.14
429.36	284.16
429.73	286.22
430.10	288.23
430.47	290.28
430.85	292.40
431.22	294.66
431.59	297.01
431.96	299.24
432.33	301.78
432.70	304.13
433.08	306.95
433.45	309.60
433.82	312.16
434.19	315.08
434.56	317.92
434.93	320.57
435.30	323.19
435.68	326.12
436.05	328.95
436.42	331.77
436.79	334.32
437.16	337.06
437.53	339.89
437.90	342.72
438.27	345.50
438.64	348.35
439.01	350.98
439.38	353.22
439.75	355.42
440.13	357.88
440.50	360.27
440.87	362.14
441.24	364.12
441.61	366.32
441.98	367.80
442.35	369.60
442.72	371.51
443.09	373.38
443.46	374.36
443.83	374.94
444.20	375.43
444.57	376.28
444.94	376.58
445.31	376.96
445.68	377.35
446.05	377.46
446.42	377.08
446.79	376.60
447.16	376.16
447.53	375.80
447.90	374.68
448.27	373.50
448.64	371.94
449.01	370.77
449.37	368.83
449.74	366.93
450.11	364.72
450.48	362.25
450.85	359.68
451.22	357.55
451.59	355.49
451.96	353.56
452.33	350.94
452.70	348.59
453.07	345.70
453.43	342.73
453.80	339.91
454.17	337.21
454.54	334.64
454.91	331.93
455.28	329.27
455.65	326.75
456.02	324.32
456.38	322.15
456.75	319.49
457.12	317.24
457.49	315.04
457.86	312.86
458.23	310.95
458.59	308.87
458.96	306.80
459.33	304.99
459.70	303.13
460.07	301.65
460.43	299.95
460.80	298.34
461.17	296.93
461.54	295.47
461.91	294.05
462.27	292.63
462.64	291.40
463.01	290.02
463.38	288.69
463.74	287.28
464.11	286.09
464.48	285.07
464.85	283.91
465.21	283.00
465.58	282.04
465.95	280.90
466.32	280.01
466.68	279.06
467.05	278.11
467.42	277.19
467.78	276.22
468.15	275.29
468.52	274.60
468.88	273.74
469.25	272.93
469.62	272.30
469.98	271.60
470.35	270.90
470.72	270.32
471.08	269.67
471.45	269.11
471.82	268.50
472.18	267.85
472.55	267.41
472.92	266.88
473.28	266.39
473.65	265.93
474.02	265.44
474.38	265.07
474.75	264.73
475.11	264.37
475.48	264.13
475.85	263.93
476.21	263.72
476.58	263.50
476.94	263.32
477.31	263.11
477.67	262.94
478.04	262.81
478.41	262.71
478.77	262.70
479.14	262.62
479.50	262.65
479.87	262.72
480.23	262.77
480.60	262.80
480.96	262.89
481.33	263.08
481.69	263.29
482.06	263.51
482.42	263.70
482.79	263.96
483.15	264.23
483.52	264.59
483.88	264.89
484.25	265.29
484.61	265.72
484.98	266.20
485.34	266.78
485.71	267.37
486.07	267.97
486.44	268.58
486.80	269.27
487.17	269.99
487.53	270.80
487.90	271.64
488.26	272.60
488.62	273.57
488.99	274.54
489.35	275.56
489.72	276.66
490.08	277.85
490.44	279.09
490.81	280.41
491.17	281.74
491.54	283.22
491.90	284.76
492.26	286.42
492.63	288.15
492.99	289.93
493.36	291.83
493.72	293.90
494.08	296.00
494.45	298.27
494.81	300.65
495.17	303.07
495.54	305.67
495.90	308.31
496.26	311.12
496.63	314.08
496.99	317.22
497.35	320.45
497.72	323.85
498.08	327.38
498.44	331.03
498.80	334.94
499.17	339.04
499.53	343.16
499.89	347.48
500.26	352.00
500.62	356.59
500.98	361.54
501.34	366.61
501.71	371.93
502.07	377.38
502.43	382.99
502.79	388.82
503.16	394.87
503.52	401.20
503.88	407.63
504.24	414.30
504.60	421.17
504.97	428.30
505.33	435.62
505.69	443.29
506.05	451.10
506.41	459.04
506.78	467.14
507.14	475.59
507.50	484.33
507.86	493.33
508.22	502.52
508.59	511.69
508.95	521.32
509.31	531.13
509.67	541.18
510.03	551.48
510.39	562.04
510.75	572.85
511.12	583.75
511.48	595.05
511.84	606.47
512.20	618.05
512.56	629.99
512.92	642.24
513.28	654.50
513.64	666.94
514.00	679.58
514.37	692.55
514.73	705.59
515.09	718.72
515.45	732.06
515.81	745.68
516.17	759.65
516.53	773.65
516.89	787.76
517.25	802.01
517.61	816.43
517.97	830.89
518.33	845.29
518.69	860.10
519.05	875.13
519.41	890.36
519.77	905.92
520.13	921.30
520.49	936.70
520.85	952.25
521.21	968.06
521.57	984.46
521.93	1000.28
522.29	1016.79
522.65	1032.94
523.01	1049.15
523.37	1065.24
523.73	1081.57
524.09	1097.77
524.45	1114.20
524.81	1130.83
525.17	1147.71
525.53	1164.63
525.89	1181.50
526.25	1198.43
526.61	1214.88
526.97	1231.64
527.33	1248.11
527.68	1264.93
528.04	1281.48
528.40	1298.15
528.76	1315.26
529.12	1331.81
529.48	1348.75
529.84	1364.83
530.20	1381.60
530.56	1398.70
530.91	1416.25
531.27	1433.08
531.63	1449.65
531.99	1466.42
532.35	1482.48
532.71	1498.51
533.07	1514.92
533.42	1530.96
533.78	1546.97
534.14	1563.44
534.50	1578.87
534.86	1594.97
535.21	1610.17
535.57	1626.21
535.93	1641.73
536.29	1656.60
536.65	1671.82
537.00	1686.60
537.36	1702.01
537.72	1716.53
538.08	1731.06
538.44	1744.85
538.79	1758.92
539.15	1772.75
539.51	1786.46
539.87	1800.81
540.22	1814.63
540.58	1828.50
540.94	1842.17
541.29	1855.37
541.65	1867.91
542.01	1881.23
542.37	1893.56
542.72	1906.02
543.08	1917.80
543.44	1930.25
543.79	1941.59
544.15	1952.52
544.51	1964.31
544.87	1975.30
545.22	1986.09
545.58	1996.32
545.94	2006.14
546.29	2015.93
546.65	2025.74
547.01	2034.99
547.36	2043.85
547.72	2052.29
548.07	2060.15
548.43	2068.14
548.79	2076.08
549.14	2083.83
549.50	2091.19
549.86	2098.88
550.21	2106.24
550.57	2113.57
550.92	2120.28
551.28	2127.33
551.64	2134.54
551.99	2140.94
552.35	2147.13
552.70	2153.41
553.06	2159.34
553.41	2165.71
553.77	2171.82
554.13	2177.99
554.48	2184.13
554.84	2189.47
555.19	2194.78
555.55	2199.77
555.90	2204.10
556.26	2208.91
556.61	2213.52
556.97	2217.74
557.32	2221.94
557.68	2226.22
558.03	2230.36
558.39	2234.12
558.74	2238.73
559.10	2242.55
559.45	2246.18
559.81	2250.41
560.16	2254.26
560.52	2257.53
560.87	2260.86
561.23	2263.41
561.58	2266.27
561.94	2268.67
562.29	2271.13
562.64	2273.74
563.00	2276.39
563.35	2280.03
563.71	2283.14
564.06	2286.35
564.42	2289.22
564.77	2291.60
565.12	2293.64
565.48	2295.40
565.83	2297.05
566.19	2298.22
566.54	2299.13
566.89	2300.24
567.25	2300.75
567.60	2302.03
567.96	2303.48
568.31	2304.34
568.66	2305.33
569.02	2305.74
569.37	2306.17
569.72	2306.79
570.08	2306.77
570.43	2306.66
570.78	2305.86
571.14	2304.34
571.49	2302.88
571.84	2302.42
572.20	2301.02
572.55	2299.78
572.90	2298.43
573.26	2296.93
573.61	2295.16
573.96	2293.12
574.31	2290.04
574.67	2287.00
575.02	2283.20
575.37	2279.80
575.72	2275.71
576.08	2272.28
576.43	2268.90
576.78	2265.05
577.13	2261.90
577.49	2258.71
577.84	2255.32
578.19	2251.56
578.54	2247.64
578.90	2243.12
579.25	2237.45
579.60	2232.41
579.95	2227.25
580.30	2221.94
580.66	2216.71
581.01	2211.71
581.36	2206.78
581.71	2202.52
582.06	2197.92
582.42	2193.41
582.77	2188.07
583.12	2183.50
583.47	2178.52
583.82	2173.34
584.17	2167.95
584.53	2162.40
584.88	2156.76
585.23	2150.72
585.58	2145.15
585.93	2139.73
586.28	2134.96
586.63	2129.70
586.98	2124.43
587.34	2119.78
587.69	2114.74
588.04	2109.42
588.39	2103.63
588.74	2097.00
589.09	2090.75
589.44	2083.98
589.79	2077.77
590.14	2072.15
590.49	2065.52
590.84	2059.20
591.19	2053.10
591.54	2046.61
591.89	2039.01
592.25	2032.07
592.60	2024.73
592.95	2017.05
593.30	2009.59
593.65	2001.96
594.00	1995.03
594.35	1987.83
594.70	1979.74
595.05	1972.37
595.40	1965.10
595.75	1957.57
596.10	1951.29
596.45	1944.42
596.80	1938.05
597.15	1931.34
597.50	1924.09
597.85	1917.61
598.19	1910.82
598.54	1903.71
598.89	1897.09
599.24	1891.13
599.59	1884.37
599.94	1878.24
600.29	1871.84
600.64	1865.25
600.99	1857.77
601.34	1850.74
601.69	1843.78
602.04	1836.76
602.39	1829.51
602.74	1822.54
603.08	1815.70
603.43	1808.91
603.78	1801.54
604.13	1794.32
604.48	1787.02
604.83	1780.10
605.18	1773.09
605.53	1765.13
605.87	1756.99
606.22	1749.83
606.57	1742.02
606.92	1734.68
607.27	1727.45
607.62	1720.58
607.96	1713.19
608.31	1706.46
608.66	1698.66
609.01	1691.16
609.36	1683.71
609.70	1675.56
610.05	1667.43
610.40	1659.74
610.75	1651.31
611.10	1643.81
611.44	1635.51
611.79	1627.62
612.14	1619.06
612.49	1609.94
612.83	1601.61
613.18	1593.64
613.53	1585.36
613.88	1576.67
614.22	1568.42
614.57	1559.91
614.92	1551.82
615.27	1544.26
615.61	1536.00
615.96	1528.26
616.31	1520.57
616.65	1513.09
617.00	1505.64
617.35	1498.05
617.70	1489.63
618.04	1481.27
618.39	1472.96
618.74	1465.30
619.08	1456.92
619.43	1449.35
619.78	1442.39
620.12	1435.16
620.47	1427.57
620.82	1419.44
621.16	1412.08
621.51	1404.48
621.85	1396.79
622.20	1388.25
622.55	1379.86
622.89	1372.05
623.24	1364.48
623.59	1357.25
623.93	1349.79
624.28	1342.55
624.62	1334.96
624.97	1327.81
625.32	1321.08
625.66	1314.09
626.01	1306.87
626.35	1299.50
626.70	1291.74
627.04	1283.98
627.39	1276.23
627.73	1268.88
628.08	1261.93
628.43	1254.59
628.77	1247.25
629.12	1239.71
629.46	1232.59
629.81	1225.27
630.15	1218.04
630.50	1210.62
630.84	1202.34
631.19	1194.50
631.53	1187.03
631.88	1179.62
632.22	1172.12
632.57	1164.80
632.91	1157.26
633.26	1149.90
633.60	1142.47
633.95	1135.42
634.29	1128.42
634.64	1121.84
634.98	1114.52
635.32	1107.49
635.67	1101.03
636.01	1094.45
636.36	1087.59
636.70	1081.15
637.05	1074.58
637.39	1068.16
637.73	1061.63
638.08	1055.85
638.42	1049.79
638.77	1043.42
639.11	1036.80
639.45	1030.49
639.80	1023.91
640.14	1017.44
640.49	1010.90
640.83	1004.70
641.17	998.43
641.52	992.20
641.86	985.82
642.20	980.02
642.55	973.70
642.89	967.15
643.23	960.61
643.58	954.94
643.92	948.71
644.26	942.60
644.61	936.62
644.95	930.58
645.29	923.92
645.64	917.20
645.98	910.87
646.32	905.10
646.66	899.01
647.01	893.19
647.35	887.53
647.69	881.80
648.04	876.20
648.38	870.45
648.72	864.41
649.06	858.36
649.41	852.44
649.75	846.45
650.09	840.53
650.43	834.63
650.78	828.41
651.12	822.42
651.46	816.75
651.80	810.91
652.14	805.52
652.49	800.15
652.83	795.05
653.17	789.27
653.51	783.41
653.85	778.06
654.20	772.43
654.54	766.44
654.88	760.73
655.22	754.90
655.56	749.28
655.90	743.79
656.25	738.51
656.59	733.13
656.93	728.12
657.27	722.97
657.61	717.65
657.95	712.59
658.29	707.54
658.64	702.36
658.98	697.08
659.32	691.68
659.66	686.49
660.00	681.13
660.34	676.22
660.68	671.43
661.02	666.31
661.36	661.56
661.70	657.06
662.05	652.61
662.39	648.30
662.73	643.80
663.07	639.47
663.41	635.05
663.75	630.56
664.09	625.97
664.43	621.63
664.77	617.52
665.11	613.31
665.45	609.27
665.79	605.18
666.13	601.08
666.47	596.99
666.81	592.83
667.15	588.75
667.49	584.90
667.83	581.13
668.17	577.25
668.51	573.23
668.85	569.23
669.19	565.45
669.53	561.54
669.87	557.68
670.21	554.01
670.55	550.37
670.89	546.91
671.23	543.49
671.57	540.05
671.91	536.49
672.25	533.04
672.58	529.50
672.92	526.13
673.26	522.99
673.60	519.88
673.94	516.79
674.28	513.92
674.62	511.01
674.96	507.89
675.30	504.95
675.64	502.00
675.97	499.29
676.31	496.41
676.65	493.56
676.99	490.82
677.33	487.98
677.67	485.18
678.01	482.23
678.34	479.21
678.68	476.28
679.02	473.55
679.36	470.79
679.70	468.11
680.04	465.30
680.37	462.44
680.71	459.65
681.05	457.07
681.39	454.34
681.73	451.68
682.06	449.19
682.40	446.74
682.74	444.27
683.08	441.72
683.42	439.13
683.75	436.62
684.09	434.11
684.43	431.69
684.77	429.18
685.10	426.82
685.44	424.61
685.78	422.37
686.12	420.11
686.45	417.84
686.79	415.50
687.13	413.33
687.46	411.23
687.80	409.06
688.14	406.86
688.48	404.84
688.81	402.58
689.15	400.43
689.49	398.27
689.82	396.21
690.16	394.13
690.50	392.19
690.83	390.25
691.17	388.26
691.51	386.36
691.84	384.58
692.18	382.68
692.52	380.70
692.85	378.77
693.19	376.88
693.52	375.06
693.86	373.28
694.20	371.54
694.53	369.75
694.87	367.94
695.21	366.14
695.54	364.31
695.88	362.60
696.21	360.85
696.55	359.19
696.88	357.49
697.22	355.85
697.56	354.25
697.89	352.61
698.23	351.06
698.56	349.42
698.90	347.77
699.23	346.13
699.57	344.54
699.90	342.98
700.24	341.43
700.58	339.86
700.91	338.36
701.25	336.88
701.58	335.51
701.92	334.12
702.25	332.71
702.59	331.35
702.92	330.04
703.26	328.73
703.59	327.43
703.93	326.26
704.26	325.02
704.60	323.72
704.93	322.45
705.26	321.17
705.60	320.04
705.93	318.92
706.27	317.89
706.60	316.90
706.94	315.86
707.27	314.74
707.61	313.68
707.94	312.64
708.27	311.53
708.61	310.44
708.94	309.46
709.28	308.50
709.61	307.56
709.94	306.62
710.28	305.60
710.61	304.64
710.95	303.58
711.28	302.65
711.61	301.69
711.95	300.77
712.28	299.83
712.61	298.84
712.95	297.92
713.28	297.04
713.61	296.11
713.95	295.22
714.28	294.41
714.61	293.56
714.95	292.74
715.28	291.91
715.61	291.05
715.95	290.23
716.28	289.42
716.61	288.60
716.95	287.81
717.28	287.10
717.61	286.31
717.94	285.59
718.28	284.81
718.61	284.14
718.94	283.47
719.27	282.82
719.61	282.19
719.94	281.51
720.27	280.79
720.60	280.15
720.94	279.56
721.27	278.99
721.60	278.47
721.93	277.89
722.27	277.40
722.60	276.86
722.93	276.25
723.26	275.73
723.59	275.20
723.93	274.64
724.26	274.08
724.59	273.51
724.92	272.97
725.25	272.49
725.59	271.94
725.92	271.44
726.25	270.96
726.58	270.45
726.91	269.98
727.24	269.50
727.57	269.05
727.91	268.50
728.24	267.99
728.57	267.50
728.90	267.04
729.23	266.51
729.56	266.10
729.89	265.62
730.22	265.12
730.55	264.63
730.89	264.19
731.22	263.77
731.55	263.36
731.88	262.95
732.21	262.48
732.54	262.04
732.87	261.61
733.20	261.22
733.53	260.80
733.86	260.42
734.19	260.02
734.52	259.59
734.85	259.27
735.18	258.87
735.51	258.48
735.84	258.10
736.17	257.74
736.50	257.33
736.83	257.13
737.16	256.77
737.49	256.44
737.82	256.08
738.15	255.75
738.48	255.43
738.81	255.08
739.14	254.76
739.47	254.39
739.80	254.09
740.13	253.76
740.46	253.43
740.79	253.10
741.12	252.76
741.45	252.48
741.78	252.14
742.11	251.81
742.44	251.46
742.77	251.12
743.10	250.81
743.43	250.48
743.75	250.07
744.08	249.95
744.41	249.65
744.74	249.36
745.07	249.04
745.40	248.77
745.73	248.52
746.06	248.26
746.39	248.05
746.71	247.76
747.04	247.50
747.37	247.26
747.70	247.00
748.03	246.78
748.36	246.56
748.68	246.33
749.01	246.10
749.34	245.89
749.67	245.70
750.00	245.51
750.33	245.37
750.65	245.13
750.98	244.78
751.31	244.56
751.64	244.38
751.97	244.25
752.29	244.06
752.62	243.82
752.95	243.60
753.28	243.40
753.60	243.22
753.93	243.07
754.26	242.88
754.59	242.67
754.91	242.45
755.24	242.25
755.57	242.05
755.90	241.88
756.22	241.69
756.55	241.53
756.88	241.36
757.20	241.16
757.53	240.98
757.86	240.81
758.19	240.68
758.51	240.52
758.84	240.28
759.17	240.11
759.49	239.95
759.82	239.86
760.15	239.74
760.47	239.60
760.80	239.41
761.13	239.31
761.45	239.22
761.78	239.10
762.11	238.98
762.43	238.86
762.76	238.74
763.08	238.64
763.41	238.49
763.74	238.35
764.06	238.21
764.39	238.10
764.71	238.00
765.04	237.86
765.37	237.70
765.69	237.60
766.02	237.48
766.34	237.42
766.67	237.25
767.00	237.14
767.32	237.06
767.65	237.03
767.97	236.88
768.30	236.73
768.62	236.61
768.95	236.46
769.27	236.34
769.60	236.27
769.92	236.12
770.25	235.99
770.57	235.87
770.90	235.77
771.22	235.66
771.55	235.54
771.87	235.44
772.20	235.35
772.52	235.32
772.85	235.31
773.17	235.19
773.50	235.08
773.82	234.96
774.15	234.84
774.47	234.66
774.80	234.54
775.12	234.48
775.45	234.36
775.77	234.28
776.09	234.18
776.42	234.07
776.74	234.03
777.07	233.94
777.39	233.89
777.72	233.79
778.04	233.71
778.36	233.63
778.69	233.57
779.01	233.49
779.33	233.31
779.66	233.14
779.98	233.04
780.31	232.96
780.63	232.92
780.95	232.82
781.28	232.76
781.60	232.68
781.92	232.56
782.25	232.52
782.57	232.47
782.89	232.40
783.22	232.31
783.54	232.23
783.86	232.20
784.19	232.09
784.51	232.05
784.83	231.98
785.16	231.93
785.48	231.84
785.80	231.78
786.12	231.75
786.45	231.71
786.77	231.69
787.09	231.66
787.42	231.57
787.74	231.52
788.06	231.48
788.38	231.46
788.71	231.44
789.03	231.39
789.35	231.36
789.67	231.31
789.99	231.30
790.32	231.25
790.64	231.18
790.96	231.25
791.28	231.18
791.61	231.14
791.93	231.12
792.25	231.09
792.57	231.13
792.89	231.04
793.21	231.04
793.54	230.98
793.86	230.95
794.18	230.95
794.50	230.92
794.82	230.87
795.14	230.88
795.47	230.86
795.79	230.84
796.11	230.80
796.43	230.77
796.75	230.74
797.07	230.73
797.39	230.73
797.71	230.62
798.04	230.64
798.36	230.60
798.68	230.57
799.00	230.57
799.32	230.48
799.64	230.53
799.96	230.50
800.28	230.47
800.60	230.44
800.92	230.42
801.24	230.37
801.56	230.37
801.89	230.27
802.21	230.27
802.53	230.25
802.85	230.23
803.17	230.26
803.49	230.21
803.81	230.19
804.13	230.15
804.45	230.11
804.77	230.10
805.09	230.09
805.41	230.03
805.73	229.97
806.05	229.95
806.37	229.91
806.69	229.87
807.01	229.86
807.33	229.86
807.65	229.81
807.97	229.83
808.28	229.79
808.60	229.80
808.92	229.72
809.24	229.77
809.56	229.72
809.88	229.63
810.20	229.61
810.52	229.58
810.84	229.54
811.16	229.49
811.48	229.44
811.80	229.45
812.12	229.42
812.43	229.42
812.75	229.39
813.07	229.33
813.39	229.32
813.71	229.29
814.03	229.26
814.35	229.21
814.67	229.14
814.98	229.12
815.30	229.09
815.62	229.06
815.94	228.96
816.26	228.97
816.58	228.93
816.89	228.92
817.21	228.89
817.53	228.89
817.85	228.90
818.17	228.88
818.48	228.80
818.80	228.83
819.12	228.78
819.44	228.75
819.76	228.71
820.07	228.63
820.39	228.60
820.71	228.55
821.03	228.53
821.34	228.51
821.66	228.49
821.98	228.47
822.30	228.44
822.61	228.48
822.93	228.40
823.25	228.39
823.57	228.36
823.88	228.33
824.20	228.28
824.52	228.25
824.83	228.21
825.15	228.19
825.47	228.15
825.79	228.15
826.10	228.13
826.42	228.12
826.74	228.11
827.05	228.11
827.37	228.13
827.69	228.11
828.00	228.10
828.32	228.09
828.64	228.07
828.95	228.12
829.27	228.07
829.58	228.09
829.90	228.11
830.22	228.14
830.53	228.13
830.85	228.13
831.17	228.12
831.48	228.13
831.80	228.13
832.11	228.11
832.43	228.10
832.75	228.05
833.06	228.11
833.38	228.13
833.69	228.07
834.01	228.10
834.32	228.09
834.64	228.10
834.96	228.12
835.27	228.13
835.59	228.12
835.90	228.11
836.22	228.11
836.53	228.10
836.85	228.07
837.16	228.19
837.48	228.19
837.79	228.24
838.11	228.26
838.42	228.25
838.74	228.23
839.05	228.22
839.37	228.28
839.68	228.27
840.00	228.26
840.31	228.30
840.63	228.28
840.94	228.30
841.26	228.27
841.57	228.24
841.88	228.25
842.20	228.21
842.51	228.22
842.83	228.22
843.14	228.30
843.46	228.31
843.77	228.25
844.08	228.26
844.40	228.21
844.71	228.19
845.03	228.20
845.34	228.22
845.65	228.23
845.97	228.21
846.28	228.21
846.60	228.23
846.91	228.22
847.22	228.20
847.54	228.20
847.85	228.22
848.16	228.21
848.48	228.18
848.79	228.23
849.10	228.21
849.42	228.20
849.73	228.09
850.04	228.10
850.36	228.04
850.67	228.03
850.98	228.03
851.30	228.01
851.61	227.98
851.92	227.96
852.23	227.96
852.55	227.96
852.86	227.94
853.17	227.90
853.49	227.89
853.80	227.93
854.11	227.91
854.42	227.89
854.74	227.86
855.05	227.84
855.36	227.78
855.67	227.79
855.99	227.77
856.30	227.88
856.61	227.85
856.92	227.81
857.23	227.79
857.55	227.76
857.86	227.72
858.17	227.73
858.48	227.69
858.79	227.67
859.11	227.64
859.42	227.62
859.73	227.61
860.04	227.60
860.35	227.52
860.66	227.50
860.98	227.50
861.29	227.53
861.60	227.54
861.91	227.54
862.22	227.50
862.53	227.47
862.84	227.36
863.16	227.33
863.47	227.33
863.78	227.31
864.09	227.30
864.40	227.32
864.71	227.31
865.02	227.34
865.33	227.32
865.64	227.32
865.95	227.32
866.27	227.35
866.58	227.33
866.89	227.31
867.20	227.32
867.51	227.31
867.82	227.28
868.13	227.29
868.44	227.26
868.75	227.30
869.06	227.34
869.37	227.35
869.68	227.36
869.99	227.37
870.30	227.38
870.61	227.40
870.92	227.42
871.23	227.45
871.54	227.44
871.85	227.48
872.16	227.52
872.47	227.51
872.78	227.48
873.09	227.48
873.40	227.52
873.71	227.54
874.02	227.56
874.33	227.56
874.64	227.56
874.95	227.59
875.26	227.55
875.56	227.53
875.87	227.52
876.18	227.54
876.49	227.63
876.80	227.64
877.11	227.63
877.42	227.62
877.73	227.61
878.04	227.63
878.35	227.63
878.66	227.63
878.96	227.64
879.27	227.67
879.58	227.69
879.89	227.67
880.20	227.69
880.51	227.67
880.82	227.66
881.12	227.67
881.43	227.66
881.74	227.65
882.05	227.64
882.36	227.64
882.67	227.63
882.97	227.55
883.28	227.55
883.59	227.54
883.90	227.54
884.21	227.55
884.51	227.54
884.82	227.50
885.13	227.49
885.44	227.45
885.74	227.41
886.05	227.37
886.36	227.37
886.67	227.32
886.98	227.35
887.28	227.38
887.59	227.38
887.90	227.37
888.20	227.37
888.51	227.39
888.82	227.39
889.13	227.39
889.43	227.44
889.74	227.43
890.05	227.43
890.35	227.41
890.66	227.40
890.97	227.41
891.28	227.41
891.58	227.41
891.89	227.42
892.20	227.42
892.50	227.44
892.81	227.44
893.12	227.47
893.42	227.46
893.73	227.42
894.04	227.42
894.34	227.43
894.65	227.40
894.95	227.40
895.26	227.41
895.57	227.44
895.87	227.38
896.18	227.42
896.48	227.39
896.79	227.38
897.10	227.39
897.40	227.35
897.71	227.34
898.01	227.30
898.32	227.30
898.63	227.30
898.93	227.30
899.24	227.30
899.54	227.25
899.85	227.22
900.15	227.21
900.46	227.17
900.76	227.17
901.07	227.18
901.38	227.17
901.68	227.17
901.99	227.10
902.29	227.06
902.60	227.02
902.90	227.05
903.21	227.07
903.51	227.04
903.82	227.06
904.12	227.07
904.43	227.09
904.73	227.13
905.03	227.12
905.34	227.21
905.64	227.22
905.95	227.24
906.25	227.25
906.56	227.26
906.86	227.31
907.17	227.31
907.47	227.35
907.77	227.31
908.08	227.29
908.38	227.31
908.69	227.34
908.99	227.37
909.30	227.39
909.60	227.41
909.90	227.41
910.21	227.38
910.51	227.34
910.81	227.37
911.12	227.33
911.42	227.34
911.73	227.27
912.03	227.27
912.33	227.29
912.64	227.32
912.94	227.29
913.24	227.25
913.55	227.24
913.85	227.20
914.15	227.26
914.46	227.25
914.76	227.24
915.06	227.24
915.37	227.22
915.67	227.19
915.97	227.14
916.27	227.12
916.58	227.14
916.88	227.17
917.18	227.16
917.49	227.23
917.79	227.21
918.09	227.20
918.39	227.22
918.70	227.18
919.00	227.14
919.30	227.20
919.60	227.22
919.91	227.21
920.21	227.23
920.51	227.19
920.81	227.20
921.12	227.22
921.42	227.17
921.72	227.17
922.02	227.20
922.32	227.25
922.63	227.27
922.93	227.31
923.23	227.30
923.53	227.29
923.83	227.23
924.13	227.26
924.44	227.27
924.74	227.27
925.04	227.32
925.34	227.32
925.64	227.27
925.94	227.26
926.24	227.32
926.55	227.34
926.85	227.36
927.15	227.38
927.45	227.37
927.75	227.40
928.05	227.39
928.35	227.38
928.65	227.37
928.95	227.37
929.26	227.36
929.56	227.38
929.86	227.39
930.16	227.37
930.46	227.35
930.76	227.34
931.06	227.25
931.36	227.21
931.66	227.23
931.96	227.27
932.26	227.26
932.56	227.19
932.86	227.13
933.16	227.13
933.46	227.08
933.76	227.06
934.06	227.08
934.36	227.11
934.66	227.07
934.96	227.04
935.26	227.04
935.56	227.00
935.86	226.96
936.16	226.96
936.46	226.95
936.76	226.94
937.06	226.89
937.36	226.95
937.66	226.96
937.96	226.94
938.26	226.88
938.56	226.89
938.86	226.92
939.16	226.95
939.46	226.90
939.76	226.92
940.06	226.94
940.35	226.92
940.65	226.88
940.95	226.89
941.25	226.90
941.55	226.90
941.85	226.94
942.15	226.96
942.45	226.95
942.75	226.97
943.04	226.96
943.34	226.99
943.64	226.97
943.94	226.97
944.24	226.96
944.54	226.98
944.84	226.98
945.13	226.93
945.43	226.90
945.73	226.96
946.03	226.98
946.33	226.96
946.62	226.95
946.92	226.94
947.22	226.94
947.52	226.92
947.82	226.92
948.11	226.87
948.41	226.85
948.71	226.82
949.01	226.84
949.31	226.84
949.60	226.84
949.90	226.86
950.20	226.86
950.50	226.85
950.79	226.86
951.09	226.88
951.39	226.91
951.69	226.91
951.98	226.92
952.28	226.91
952.58	226.91
952.87	226.92
953.17	226.93
953.47	226.92
953.76	226.94
954.06	226.96
954.36	226.94
954.66	226.96
954.95	227.00
955.25	226.96
955.55	226.95
955.84	226.93
956.14	226.93
956.44	226.96
956.73	226.99
957.03	227.01
957.32	227.02
957.62	227.00
957.92	227.05
958.21	227.03
958.51	227.14
958.81	227.16
959.10	227.18
959.40	227.22
959.69	227.26
959.99	227.29
960.29	227.29
960.58	227.31
960.88	227.35
961.17	227.30
961.47	227.37
961.76	227.39
962.06	227.42
962.36	227.39
962.65	227.39
962.95	227.36
963.24	227.34
963.54	227.34
963.83	227.36
964.13	227.39
964.42	227.36
964.72	227.28
965.01	227.26
965.31	227.26
965.60	227.24
965.90	227.30
966.19	227.25
966.49	227.24
966.78	227.23
967.08	227.25
967.37	227.30
967.67	227.27
967.96	227.29
968.26	227.30
968.55	227.32
968.85	227.32
969.14	227.34
969.43	227.31
969.73	227.32
970.02	227.32
970.32	227.29
970.61	227.33
970.91	227.28
971.20	227.26
971.49	227.22
971.79	227.23
972.08	227.13
972.38	227.15
972.67	227.18
972.96	227.19
973.26	227.12
973.55	227.15
973.85	227.14
974.14	227.12
974.43	227.11
974.73	227.05
975.02	227.01
975.31	227.00
975.61	227.02
975.90	226.98
976.19	226.96
976.49	226.99
976.78	226.94
977.07	226.94
977.37	226.96
977.66	226.98
977.95	226.93
978.24	226.96
978.54	226.98
978.83	226.96
979.12	226.96
979.42	226.98
979.71	226.95
980.00	226.93
980.29	226.93
980.59	226.90
980.88	226.94
981.17	226.94
981.46	226.96
981.76	226.97
982.05	227.01
982.34	226.99
982.63	226.94
982.93	226.96
983.22	226.98
983.51	227.01
983.80	227.01
984.09	227.06
984.39	227.04
984.68	226.99
984.97	226.97
985.26	226.96
985.55	226.96
985.85	226.93
986.14	226.97
986.43	226.99
986.72	226.99
987.01	226.95
987.30	226.96
987.59	226.93
987.89	226.93
988.18	226.86
988.47	226.86
988.76	226.89
989.05	226.87
989.34	226.91
989.63	226.91
989.92	226.90
990.22	226.86
990.51	226.87
990.80	226.89
991.09	226.93
991.38	226.93
991.67	226.92
991.96	226.92
992.25	226.94
992.54	226.94
992.83	226.95
993.12	226.96
993.41	226.94
993.70	227.01
993.99	227.03
994.28	227.10
994.58	227.11
994.87	227.11
995.16	227.14
995.45	227.11
995.74	227.09
996.03	227.08
996.32	227.10
996.61	227.14
996.90	227.14
997.19	227.13
997.48	227.17
997.77	227.19
998.06	227.21
998.34	227.20
998.63	227.22
998.92	227.24
999.21	227.25
999.50	227.31
999.79	227.25
1000.08	227.23
1000.37	227.22
1000.66	227.24
1000.95	227.30
1001.24	227.30
1001.53	227.30
1001.82	227.26
1002.11	227.26
1002.40	227.28
1002.68	227.28
1002.97	227.34
1003.26	227.29
1003.55	227.27
1003.84	227.25
1004.13	227.26
1004.42	227.23
1004.71	227.19
1004.99	227.21
1005.28	227.24
1005.57	227.21
1005.86	227.19
1006.15	227.18
1006.44	227.17
1006.72	227.13
1007.01	227.05
1007.30	227.04
1007.59	227.00
1007.88	227.03
1008.17	227.04
1008.45	227.04
1008.74	227.02
1009.03	226.98
1009.32	227.02
1009.60	226.98
1009.89	227.00
1010.18	226.97
1010.47	226.93
1010.76	226.96
1011.04	226.92
1011.33	226.91
1011.62	226.90
1011.91	226.92
1012.19	226.88
1012.48	226.86
1012.77	226.90
1013.05	226.95
1013.34	226.93
1013.63	226.94
1013.92	226.91
1014.20	226.89
1014.49	226.84
1014.78	226.83
1015.06	226.77
1015.35	226.78
1015.64	226.79
1015.92	226.77
1016.21	226.80
1016.50	226.83
1016.78	226.81
1017.07	226.81
1017.36	226.80
1017.64	226.80
1017.93	226.82
1018.22	226.83
1018.50	226.82
1018.79	226.79
1019.08	226.75
1019.36	226.79
1019.65	226.80
1019.93	226.81
1020.22	226.82
1020.51	226.88
1020.79	226.89
1021.08	226.34
1021.36	226.40
1021.65	226.28
1021.94	227.07
1022.22	227.30
1022.51	226.84
1022.79	226.68
1023.08	226.72
1023.36	227.85
1023.65	226.97
>>>>>End Processed Spectral Data<<<<<
