SpectraSuite Data File
++++++++++++++++++++++++++++++++++++
Date: Fri Feb 01 15:29:38 EST 2013
User: group
Dark Spectrum Present: No
Reference Spectrum Present: No
Number of Sampled Component Spectra: 1
Spectrometers: USB2E7196
Integration Time (usec): 35000 (USB2E7196)
Spectra Averaged: 100 (USB2E7196)
Boxcar Smoothing: 10 (USB2E7196)
Correct for Electrical Dark: No (USB2E7196)
Strobe/Lamp Enabled: No (USB2E7196)
Correct for Detector Non-linearity: No (USB2E7196)
Correct for Stray Light: No (USB2E7196)
Number of Pixels in Processed Spectrum: 2048
>>>>>Begin Processed Spectral Data<<<<<
339.09	0.00
339.48	215.27
339.86	216.40
340.24	217.62
340.63	219.68
341.01	222.20
341.39	222.17
341.78	222.92
342.16	224.73
342.54	224.83
342.93	213.45
343.31	224.27
343.69	224.80
344.07	225.25
344.46	225.71
344.84	226.07
345.22	226.30
345.60	226.54
345.99	226.75
346.37	226.89
346.75	226.99
347.13	227.05
347.52	227.06
347.90	227.11
348.28	227.14
348.66	227.19
349.05	227.16
349.43	227.21
349.81	227.26
350.19	227.32
350.57	227.38
350.96	227.47
351.34	227.52
351.72	227.61
352.10	227.72
352.48	227.77
352.87	227.82
353.25	227.88
353.63	227.93
354.01	227.99
354.39	228.04
354.77	228.11
355.15	228.23
355.54	228.30
355.92	228.34
356.30	228.40
356.68	228.47
357.06	228.55
357.44	228.60
357.82	228.65
358.20	228.69
358.58	228.73
358.97	228.80
359.35	228.85
359.73	228.94
360.11	228.97
360.49	229.01
360.87	229.06
361.25	229.12
361.63	229.22
362.01	229.25
362.39	229.28
362.77	229.32
363.15	229.34
363.53	229.36
363.91	229.40
364.29	229.44
364.67	229.37
365.05	229.39
365.43	229.42
365.81	229.43
366.19	229.47
366.57	229.49
366.95	229.43
367.33	229.41
367.71	229.36
368.09	229.38
368.47	229.34
368.85	229.31
369.23	229.29
369.61	229.18
369.99	229.18
370.37	229.19
370.75	229.19
371.13	229.12
371.51	229.05
371.89	229.02
372.27	228.95
372.65	228.88
373.03	228.83
373.41	228.73
373.78	228.65
374.16	228.57
374.54	228.48
374.92	228.44
375.30	228.38
375.68	228.28
376.06	228.20
376.44	228.16
376.82	228.11
377.19	228.03
377.57	227.97
377.95	227.86
378.33	227.75
378.71	227.64
379.09	227.59
379.47	227.54
379.84	227.46
380.22	227.38
380.60	227.37
380.98	227.32
381.36	227.25
381.73	227.18
382.11	227.14
382.49	227.10
382.87	227.01
383.25	226.95
383.62	227.06
384.00	226.99
384.38	226.92
384.76	226.87
385.13	226.86
385.51	226.84
385.89	226.77
386.27	226.72
386.64	226.69
387.02	226.64
387.40	226.60
387.78	226.56
388.15	226.53
388.53	226.46
388.91	226.43
389.29	226.45
389.66	226.44
390.04	226.39
390.42	226.38
390.79	226.37
391.17	226.37
391.55	226.24
391.92	226.22
392.30	226.21
392.68	226.21
393.05	226.19
393.43	226.17
393.81	226.20
394.18	226.19
394.56	226.21
394.94	226.24
395.31	226.24
395.69	226.32
396.06	226.35
396.44	226.39
396.82	226.40
397.19	226.46
397.57	226.50
397.95	226.59
398.32	226.61
398.70	226.67
399.07	226.78
399.45	226.83
399.82	226.93
400.20	226.99
400.58	227.06
400.95	227.12
401.33	227.24
401.70	227.42
402.08	227.53
402.45	227.63
402.83	227.74
403.20	227.86
403.58	227.97
403.95	228.13
404.33	228.28
404.71	228.41
405.08	228.60
405.46	228.73
405.83	228.87
406.21	229.03
406.58	229.21
406.96	229.33
407.33	229.50
407.70	229.70
408.08	230.03
408.45	230.27
408.83	230.51
409.20	230.70
409.58	230.87
409.95	231.16
410.33	231.42
410.70	231.68
411.08	231.97
411.45	232.28
411.82	232.56
412.20	232.90
412.57	233.33
412.95	233.63
413.32	234.05
413.69	234.46
414.07	234.90
414.44	235.38
414.82	235.89
415.19	236.45
415.56	237.02
415.94	237.52
416.31	238.15
416.68	238.78
417.06	239.48
417.43	240.17
417.81	240.95
418.18	241.75
418.55	242.58
418.93	243.47
419.30	244.31
419.67	245.29
420.04	246.24
420.42	247.22
420.79	248.37
421.16	249.51
421.54	250.69
421.91	251.92
422.28	253.15
422.66	254.49
423.03	255.81
423.40	257.16
423.77	258.58
424.15	259.98
424.52	261.49
424.89	263.12
425.26	264.66
425.64	266.11
426.01	267.73
426.38	269.40
426.75	271.06
427.13	272.82
427.50	274.62
427.87	276.51
428.24	278.37
428.61	280.13
428.99	282.09
429.36	284.19
429.73	286.26
430.10	288.27
430.47	290.35
430.85	292.45
431.22	294.63
431.59	297.00
431.96	299.27
432.33	301.78
432.70	304.15
433.08	307.00
433.45	309.62
433.82	312.20
434.19	315.16
434.56	317.97
434.93	320.64
435.30	323.27
435.68	326.19
436.05	329.03
436.42	331.82
436.79	334.35
437.16	337.10
437.53	339.98
437.90	342.83
438.27	345.53
438.64	348.39
439.01	351.04
439.38	353.30
439.75	355.48
440.13	357.99
440.50	360.33
440.87	362.14
441.24	364.09
441.61	366.29
441.98	367.74
442.35	369.52
442.72	371.39
443.09	373.22
443.46	374.19
443.83	374.79
444.20	375.30
444.57	376.13
444.94	376.38
445.31	376.71
445.68	377.10
446.05	377.17
446.42	376.75
446.79	376.31
447.16	375.87
447.53	375.54
447.90	374.30
448.27	373.18
448.64	371.61
449.01	370.50
449.37	368.48
449.74	366.57
450.11	364.35
450.48	361.85
450.85	359.28
451.22	357.13
451.59	355.12
451.96	353.19
452.33	350.60
452.70	348.23
453.07	345.35
453.43	342.39
453.80	339.62
454.17	336.95
454.54	334.40
454.91	331.66
455.28	328.97
455.65	326.53
456.02	324.04
456.38	321.87
456.75	319.19
457.12	316.92
457.49	314.65
457.86	312.46
458.23	310.61
458.59	308.55
458.96	306.48
459.33	304.60
459.70	302.74
460.07	301.25
460.43	299.53
460.80	297.88
461.17	296.47
461.54	294.99
461.91	293.57
462.27	292.11
462.64	290.85
463.01	289.48
463.38	288.14
463.74	286.76
464.11	285.59
464.48	284.52
464.85	283.41
465.21	282.56
465.58	281.67
465.95	280.54
466.32	279.63
466.68	278.73
467.05	277.83
467.42	276.91
467.78	275.92
468.15	275.06
468.52	274.39
468.88	273.52
469.25	272.73
469.62	272.10
469.98	271.44
470.35	270.81
470.72	270.21
471.08	269.56
471.45	269.04
471.82	268.52
472.18	267.92
472.55	267.50
472.92	267.00
473.28	266.53
473.65	266.13
474.02	265.70
474.38	265.28
474.75	264.96
475.11	264.64
475.48	264.38
475.85	264.14
476.21	263.91
476.58	263.74
476.94	263.62
477.31	263.43
477.67	263.28
478.04	263.16
478.41	263.12
478.77	263.20
479.14	263.11
479.50	263.10
479.87	263.19
480.23	263.28
480.60	263.33
480.96	263.44
481.33	263.65
481.69	263.87
482.06	264.10
482.42	264.27
482.79	264.54
483.15	264.88
483.52	265.28
483.88	265.64
484.25	265.99
484.61	266.41
484.98	266.87
485.34	267.42
485.71	268.02
486.07	268.62
486.44	269.18
486.80	269.89
487.17	270.63
487.53	271.44
487.90	272.26
488.26	273.21
488.62	274.14
488.99	275.11
489.35	276.15
489.72	277.27
490.08	278.52
490.44	279.73
490.81	281.03
491.17	282.35
491.54	283.86
491.90	285.41
492.26	287.05
492.63	288.78
492.99	290.53
493.36	292.44
493.72	294.47
494.08	296.54
494.45	298.84
494.81	301.19
495.17	303.62
495.54	306.23
495.90	308.93
496.26	311.75
496.63	314.69
496.99	317.77
497.35	321.02
497.72	324.39
498.08	327.89
498.44	331.55
498.80	335.51
499.17	339.49
499.53	343.67
499.89	348.07
500.26	352.56
500.62	357.20
500.98	362.15
501.34	367.20
501.71	372.52
502.07	377.88
502.43	383.51
502.79	389.32
503.16	395.36
503.52	401.56
503.88	408.00
504.24	414.66
504.60	421.55
504.97	428.68
505.33	436.01
505.69	443.73
506.05	451.52
506.41	459.44
506.78	467.61
507.14	476.05
507.50	484.75
507.86	493.78
508.22	503.05
508.59	512.29
508.95	521.96
509.31	531.82
509.67	541.97
510.03	552.25
510.39	562.89
510.75	573.71
511.12	584.73
511.48	595.94
511.84	607.42
512.20	619.03
512.56	631.01
512.92	643.22
513.28	655.56
513.64	668.13
514.00	680.80
514.37	693.81
514.73	706.87
515.09	719.87
515.45	733.18
515.81	746.85
516.17	760.82
516.53	774.90
516.89	789.04
517.25	803.26
517.61	817.63
517.97	832.06
518.33	846.49
518.69	861.25
519.05	876.40
519.41	891.59
519.77	907.13
520.13	922.56
520.49	937.88
520.85	953.37
521.21	969.04
521.57	985.27
521.93	1001.08
522.29	1017.59
522.65	1033.99
523.01	1050.36
523.37	1066.33
523.73	1082.61
524.09	1098.79
524.45	1115.19
524.81	1131.88
525.17	1148.93
525.53	1165.92
525.89	1182.92
526.25	1199.79
526.61	1216.26
526.97	1233.07
527.33	1249.60
527.68	1266.36
528.04	1282.97
528.40	1299.77
528.76	1317.00
529.12	1333.79
529.48	1350.65
529.84	1366.68
530.20	1383.40
530.56	1400.36
530.91	1417.86
531.27	1434.69
531.63	1451.23
531.99	1467.98
532.35	1484.04
532.71	1499.90
533.07	1516.26
533.42	1532.14
533.78	1548.21
534.14	1564.49
534.50	1579.80
534.86	1595.73
535.21	1610.87
535.57	1626.86
535.93	1642.29
536.29	1657.07
536.65	1672.22
537.00	1687.16
537.36	1702.54
537.72	1717.08
538.08	1731.58
538.44	1745.28
538.79	1759.20
539.15	1773.02
539.51	1786.68
539.87	1801.01
540.22	1814.79
540.58	1828.58
540.94	1842.06
541.29	1855.05
541.65	1867.84
542.01	1881.18
542.37	1893.60
542.72	1906.16
543.08	1918.08
543.44	1930.46
543.79	1941.77
544.15	1952.74
544.51	1964.35
544.87	1975.32
545.22	1986.26
545.58	1996.57
545.94	2006.53
546.29	2016.48
546.65	2026.19
547.01	2035.53
547.36	2044.34
547.72	2052.87
548.07	2060.82
548.43	2069.01
548.79	2077.01
549.14	2084.55
549.50	2091.96
549.86	2099.64
550.21	2106.85
550.57	2114.10
550.92	2120.78
551.28	2127.96
551.64	2135.02
551.99	2141.59
552.35	2147.73
552.70	2153.69
553.06	2159.67
553.41	2165.93
553.77	2171.85
554.13	2177.91
554.48	2184.07
554.84	2189.50
555.19	2194.84
555.55	2199.95
555.90	2204.25
556.26	2209.06
556.61	2213.76
556.97	2218.03
557.32	2222.29
557.68	2226.39
558.03	2230.54
558.39	2234.37
558.74	2238.90
559.10	2242.66
559.45	2246.22
559.81	2250.64
560.16	2254.62
560.52	2257.85
560.87	2261.35
561.23	2263.96
561.58	2266.93
561.94	2269.41
562.29	2271.78
562.64	2274.52
563.00	2277.12
563.35	2280.89
563.71	2284.18
564.06	2287.51
564.42	2290.27
564.77	2292.58
565.12	2295.09
565.48	2296.99
565.83	2298.57
566.19	2299.82
566.54	2300.80
566.89	2302.03
567.25	2302.57
567.60	2303.75
567.96	2305.36
568.31	2306.09
568.66	2307.13
569.02	2307.73
569.37	2308.07
569.72	2308.86
570.08	2308.90
570.43	2308.80
570.78	2307.96
571.14	2306.32
571.49	2304.87
571.84	2304.60
572.20	2303.38
572.55	2302.14
572.90	2300.56
573.26	2299.19
573.61	2297.54
573.96	2295.81
574.31	2292.67
574.67	2289.61
575.02	2285.96
575.37	2282.59
575.72	2278.71
576.08	2275.45
576.43	2272.14
576.78	2268.35
577.13	2265.22
577.49	2262.09
577.84	2258.71
578.19	2255.02
578.54	2251.25
578.90	2246.77
579.25	2241.12
579.60	2236.18
579.95	2231.08
580.30	2225.95
580.66	2220.66
581.01	2215.57
581.36	2210.51
581.71	2206.37
582.06	2201.77
582.42	2197.30
582.77	2191.98
583.12	2187.47
583.47	2182.59
583.82	2177.42
584.17	2172.08
584.53	2166.38
584.88	2160.45
585.23	2154.36
585.58	2148.73
585.93	2143.24
586.28	2138.63
586.63	2133.50
586.98	2128.35
587.34	2123.64
587.69	2118.74
588.04	2113.68
588.39	2107.85
588.74	2101.30
589.09	2095.01
589.44	2088.17
589.79	2082.14
590.14	2076.45
590.49	2069.75
590.84	2063.40
591.19	2057.32
591.54	2050.90
591.89	2043.43
592.25	2036.68
592.60	2029.53
592.95	2021.85
593.30	2014.48
593.65	2006.66
594.00	1999.61
594.35	1992.32
594.70	1984.24
595.05	1976.78
595.40	1969.18
595.75	1961.71
596.10	1955.32
596.45	1948.42
596.80	1942.19
597.15	1935.43
597.50	1928.31
597.85	1921.79
598.19	1915.02
598.54	1907.86
598.89	1901.14
599.24	1895.25
599.59	1888.55
599.94	1882.19
600.29	1875.98
600.64	1869.38
600.99	1861.98
601.34	1854.99
601.69	1847.94
602.04	1841.01
602.39	1833.77
602.74	1827.08
603.08	1820.35
603.43	1813.60
603.78	1806.34
604.13	1799.06
604.48	1791.70
604.83	1784.73
605.18	1777.72
605.53	1769.73
605.87	1761.73
606.22	1754.50
606.57	1746.58
606.92	1739.24
607.27	1732.08
607.62	1725.12
607.96	1717.74
608.31	1711.03
608.66	1703.45
609.01	1695.85
609.36	1688.17
609.70	1680.13
610.05	1671.89
610.40	1664.05
610.75	1655.79
611.10	1648.17
611.44	1639.87
611.79	1631.95
612.14	1623.24
612.49	1614.05
612.83	1605.70
613.18	1597.58
613.53	1589.44
613.88	1580.84
614.22	1572.59
614.57	1563.96
614.92	1555.87
615.27	1548.33
615.61	1540.00
615.96	1531.99
616.31	1524.38
616.65	1517.14
617.00	1509.53
617.35	1501.85
617.70	1493.50
618.04	1484.96
618.39	1476.59
618.74	1468.88
619.08	1460.44
619.43	1452.91
619.78	1446.13
620.12	1438.87
620.47	1431.36
620.82	1423.15
621.16	1415.71
621.51	1408.04
621.85	1400.44
622.20	1392.00
622.55	1383.63
622.89	1375.80
623.24	1368.12
623.59	1360.67
623.93	1353.04
624.28	1345.86
624.62	1338.31
624.97	1331.22
625.32	1324.54
625.66	1317.57
626.01	1310.33
626.35	1302.97
626.70	1295.12
627.04	1287.30
627.39	1279.49
627.73	1272.01
628.08	1265.09
628.43	1257.82
628.77	1250.43
629.12	1242.81
629.46	1235.58
629.81	1228.19
630.15	1220.96
630.50	1213.55
630.84	1205.40
631.19	1197.57
631.53	1190.07
631.88	1182.64
632.22	1175.02
632.57	1167.64
632.91	1160.15
633.26	1152.82
633.60	1145.34
633.95	1138.36
634.29	1131.26
634.64	1124.65
634.98	1117.30
635.32	1110.14
635.67	1103.64
636.01	1097.00
636.36	1090.28
636.70	1083.74
637.05	1077.11
637.39	1070.68
637.73	1064.21
638.08	1058.46
638.42	1052.44
638.77	1045.86
639.11	1039.18
639.45	1032.75
639.80	1026.13
640.14	1019.74
640.49	1013.21
640.83	1007.06
641.17	1000.75
641.52	994.53
641.86	988.09
642.20	982.18
642.55	975.92
642.89	969.32
643.23	962.71
643.58	956.88
643.92	950.60
644.26	944.54
644.61	938.50
644.95	932.38
645.29	925.66
645.64	918.85
645.98	912.55
646.32	906.76
646.66	900.68
647.01	894.92
647.35	889.16
647.69	883.32
648.04	877.68
648.38	871.87
648.72	865.78
649.06	859.71
649.41	853.86
649.75	847.84
650.09	841.91
650.43	836.20
650.78	830.05
651.12	824.13
651.46	818.46
651.80	812.66
652.14	807.30
652.49	801.90
652.83	796.73
653.17	791.06
653.51	785.34
653.85	779.98
654.20	774.22
654.54	768.18
654.88	762.38
655.22	756.50
655.56	750.85
655.90	745.40
656.25	740.13
656.59	734.75
656.93	729.71
657.27	724.54
657.61	719.06
657.95	713.95
658.29	708.84
658.64	703.55
658.98	698.25
659.32	692.78
659.66	687.61
660.00	682.26
660.34	677.29
660.68	672.30
661.02	667.32
661.36	662.60
661.70	658.09
662.05	653.82
662.39	649.52
662.73	645.07
663.07	640.74
663.41	636.31
663.75	631.85
664.09	627.26
664.43	622.89
664.77	618.78
665.11	614.59
665.45	610.55
665.79	606.59
666.13	602.44
666.47	598.40
666.81	594.20
667.15	590.16
667.49	586.27
667.83	582.55
668.17	578.61
668.51	574.63
668.85	570.63
669.19	566.77
669.53	562.85
669.87	558.98
670.21	555.29
670.55	551.63
670.89	548.19
671.23	544.75
671.57	541.29
671.91	537.79
672.25	534.29
672.58	530.78
672.92	527.35
673.26	524.22
673.60	521.08
673.94	518.03
674.28	515.17
674.62	512.37
674.96	509.20
675.30	506.26
675.64	503.27
675.97	500.54
676.31	497.69
676.65	494.84
676.99	492.14
677.33	489.26
677.67	486.53
678.01	483.51
678.34	480.50
678.68	477.54
679.02	474.74
679.36	471.99
679.70	469.27
680.04	466.48
680.37	463.61
680.71	460.78
681.05	458.13
681.39	455.38
681.73	452.60
682.06	450.12
682.40	447.59
682.74	445.09
683.08	442.53
683.42	439.90
683.75	437.36
684.09	434.80
684.43	432.32
684.77	429.83
685.10	427.47
685.44	425.20
685.78	422.92
686.12	420.68
686.45	418.36
686.79	416.05
687.13	413.89
687.46	411.70
687.80	409.55
688.14	407.34
688.48	405.24
688.81	402.99
689.15	400.81
689.49	398.64
689.82	396.56
690.16	394.46
690.50	392.47
690.83	390.53
691.17	388.54
691.51	386.63
691.84	384.75
692.18	382.87
692.52	380.87
692.85	378.95
693.19	377.02
693.52	375.23
693.86	373.39
694.20	371.58
694.53	369.78
694.87	367.91
695.21	366.15
695.54	364.34
695.88	362.67
696.21	360.95
696.55	359.26
696.88	357.56
697.22	355.90
697.56	354.33
697.89	352.70
698.23	351.09
698.56	349.47
698.90	347.88
699.23	346.16
699.57	344.62
699.90	343.10
700.24	341.56
700.58	340.02
700.91	338.53
701.25	337.05
701.58	335.71
701.92	334.36
702.25	332.98
702.59	331.61
702.92	330.27
703.26	328.97
703.59	327.70
703.93	326.47
704.26	325.25
704.60	323.90
704.93	322.62
705.26	321.35
705.60	320.20
705.93	319.04
706.27	318.06
706.60	317.03
706.94	315.96
707.27	314.86
707.61	313.82
707.94	312.82
708.27	311.76
708.61	310.65
708.94	309.65
709.28	308.64
709.61	307.71
709.94	306.73
710.28	305.69
710.61	304.73
710.95	303.69
711.28	302.76
711.61	301.84
711.95	300.93
712.28	300.04
712.61	299.06
712.95	298.09
713.28	297.20
713.61	296.29
713.95	295.39
714.28	294.54
714.61	293.67
714.95	292.85
715.28	291.98
715.61	291.17
715.95	290.34
716.28	289.46
716.61	288.63
716.95	287.83
717.28	287.11
717.61	286.36
717.94	285.65
718.28	284.86
718.61	284.17
718.94	283.47
719.27	282.78
719.61	282.13
719.94	281.52
720.27	280.81
720.60	280.16
720.94	279.59
721.27	279.02
721.60	278.43
721.93	277.79
722.27	277.25
722.60	276.66
722.93	276.07
723.26	275.59
723.59	275.00
723.93	274.46
724.26	273.90
724.59	273.36
724.92	272.84
725.25	272.36
725.59	271.83
725.92	271.34
726.25	270.84
726.58	270.33
726.91	269.85
727.24	269.41
727.57	268.92
727.91	268.36
728.24	267.88
728.57	267.37
728.90	266.94
729.23	266.44
729.56	266.00
729.89	265.56
730.22	265.07
730.55	264.62
730.89	264.17
731.22	263.75
731.55	263.27
731.88	262.81
732.21	262.36
732.54	261.91
732.87	261.48
733.20	261.11
733.53	260.72
733.86	260.34
734.19	259.92
734.52	259.52
734.85	259.21
735.18	258.76
735.51	258.42
735.84	258.04
736.17	257.68
736.50	257.24
736.83	257.01
737.16	256.64
737.49	256.29
737.82	255.99
738.15	255.63
738.48	255.28
738.81	254.96
739.14	254.62
739.47	254.32
739.80	253.98
740.13	253.65
740.46	253.34
740.79	253.01
741.12	252.72
741.45	252.40
741.78	252.05
742.11	251.78
742.44	251.46
742.77	251.17
743.10	250.86
743.43	250.60
743.75	250.19
744.08	250.09
744.41	249.81
744.74	249.50
745.07	249.20
745.40	248.99
745.73	248.76
746.06	248.47
746.39	248.19
746.71	247.95
747.04	247.68
747.37	247.41
747.70	247.14
748.03	246.85
748.36	246.65
748.68	246.42
749.01	246.18
749.34	245.98
749.67	245.72
750.00	245.51
750.33	245.38
750.65	245.19
750.98	244.83
751.31	244.63
751.64	244.42
751.97	244.29
752.29	244.08
752.62	243.84
752.95	243.64
753.28	243.43
753.60	243.18
753.93	243.02
754.26	242.83
754.59	242.62
754.91	242.41
755.24	242.20
755.57	241.98
755.90	241.79
756.22	241.57
756.55	241.38
756.88	241.19
757.20	240.93
757.53	240.73
757.86	240.55
758.19	240.42
758.51	240.29
758.84	240.03
759.17	239.90
759.49	239.76
759.82	239.68
760.15	239.54
760.47	239.42
760.80	239.23
761.13	239.09
761.45	238.95
761.78	238.80
762.11	238.67
762.43	238.55
762.76	238.39
763.08	238.26
763.41	238.13
763.74	238.00
764.06	237.86
764.39	237.73
764.71	237.59
765.04	237.43
765.37	237.30
765.69	237.19
766.02	237.05
766.34	236.91
766.67	236.74
767.00	236.66
767.32	236.59
767.65	236.52
767.97	236.41
768.30	236.32
768.62	236.22
768.95	236.11
769.27	235.99
769.60	235.93
769.92	235.82
770.25	235.72
770.57	235.61
770.90	235.49
771.22	235.39
771.55	235.32
771.87	235.22
772.20	235.11
772.52	235.09
772.85	235.10
773.17	234.98
773.50	234.86
773.82	234.74
774.15	234.59
774.47	234.44
774.80	234.36
775.12	234.24
775.45	234.17
775.77	234.09
776.09	233.99
776.42	233.89
776.74	233.82
777.07	233.73
777.39	233.64
777.72	233.57
778.04	233.50
778.36	233.40
778.69	233.35
779.01	233.29
779.33	233.17
779.66	232.99
779.98	232.94
780.31	232.91
780.63	232.89
780.95	232.84
781.28	232.76
781.60	232.69
781.92	232.66
782.25	232.61
782.57	232.55
782.89	232.49
783.22	232.45
783.54	232.38
783.86	232.32
784.19	232.30
784.51	232.24
784.83	232.18
785.16	232.13
785.48	232.05
785.80	232.00
786.12	231.98
786.45	231.95
786.77	231.91
787.09	231.84
787.42	231.75
787.74	231.73
788.06	231.71
788.38	231.68
788.71	231.60
789.03	231.55
789.35	231.50
789.67	231.44
789.99	231.41
790.32	231.36
790.64	231.34
790.96	231.37
791.28	231.35
791.61	231.31
791.93	231.30
792.25	231.27
792.57	231.30
792.89	231.20
793.21	231.15
793.54	231.09
793.86	231.05
794.18	231.02
794.50	230.99
794.82	230.96
795.14	230.91
795.47	230.88
795.79	230.83
796.11	230.79
796.43	230.78
796.75	230.71
797.07	230.69
797.39	230.63
797.71	230.54
798.04	230.50
798.36	230.47
798.68	230.42
799.00	230.38
799.32	230.30
799.64	230.29
799.96	230.25
800.28	230.27
800.60	230.21
800.92	230.19
801.24	230.12
801.56	230.07
801.89	230.02
802.21	230.01
802.53	230.00
802.85	229.97
803.17	229.97
803.49	229.94
803.81	229.90
804.13	229.89
804.45	229.85
804.77	229.82
805.09	229.76
805.41	229.73
805.73	229.68
806.05	229.63
806.37	229.55
806.69	229.53
807.01	229.46
807.33	229.45
807.65	229.42
807.97	229.45
808.28	229.43
808.60	229.41
808.92	229.37
809.24	229.40
809.56	229.39
809.88	229.34
810.20	229.34
810.52	229.35
810.84	229.28
811.16	229.23
811.48	229.20
811.80	229.23
812.12	229.20
812.43	229.19
812.75	229.16
813.07	229.16
813.39	229.12
813.71	229.08
814.03	229.06
814.35	229.00
814.67	228.91
814.98	228.88
815.30	228.87
815.62	228.85
815.94	228.75
816.26	228.78
816.58	228.73
816.89	228.70
817.21	228.64
817.53	228.64
817.85	228.63
818.17	228.61
818.48	228.56
818.80	228.56
819.12	228.53
819.44	228.50
819.76	228.48
820.07	228.44
820.39	228.40
820.71	228.38
821.03	228.39
821.34	228.39
821.66	228.41
821.98	228.40
822.30	228.36
822.61	228.36
822.93	228.29
823.25	228.28
823.57	228.25
823.88	228.29
824.20	228.27
824.52	228.26
824.83	228.22
825.15	228.21
825.47	228.18
825.79	228.19
826.10	228.15
826.42	228.15
826.74	228.17
827.05	228.16
827.37	228.15
827.69	228.14
828.00	228.15
828.32	228.10
828.64	228.08
828.95	228.15
829.27	228.14
829.58	228.13
829.90	228.12
830.22	228.14
830.53	228.07
830.85	228.06
831.17	228.03
831.48	228.03
831.80	228.02
832.11	228.06
832.43	228.02
832.75	228.04
833.06	228.07
833.38	228.04
833.69	228.05
834.01	228.08
834.32	228.07
834.64	228.05
834.96	228.07
835.27	228.04
835.59	228.00
835.90	227.97
836.22	227.97
836.53	227.96
836.85	227.94
837.16	228.05
837.48	228.05
837.79	228.12
838.11	228.14
838.42	228.14
838.74	228.15
839.05	228.16
839.37	228.14
839.68	228.10
840.00	228.11
840.31	228.15
840.63	228.13
840.94	228.16
841.26	228.15
841.57	228.15
841.88	228.18
842.20	228.16
842.51	228.18
842.83	228.16
843.14	228.25
843.46	228.25
843.77	228.21
844.08	228.21
844.40	228.15
844.71	228.10
845.03	228.03
845.34	228.02
845.65	227.99
845.97	227.99
846.28	227.97
846.60	227.98
846.91	227.98
847.22	227.98
847.54	227.99
847.85	228.00
848.16	227.98
848.48	227.95
848.79	227.99
849.10	228.00
849.42	228.03
849.73	227.91
850.04	227.91
850.36	227.87
850.67	227.87
850.98	227.88
851.30	227.90
851.61	227.93
851.92	227.91
852.23	227.93
852.55	227.96
852.86	227.99
853.17	228.00
853.49	227.98
853.80	227.98
854.11	227.94
854.42	227.93
854.74	227.90
855.05	227.90
855.36	227.83
855.67	227.79
855.99	227.78
856.30	227.90
856.61	227.89
856.92	227.90
857.23	227.89
857.55	227.85
857.86	227.85
858.17	227.86
858.48	227.85
858.79	227.84
859.11	227.82
859.42	227.81
859.73	227.76
860.04	227.75
860.35	227.69
860.66	227.67
860.98	227.68
861.29	227.68
861.60	227.66
861.91	227.67
862.22	227.68
862.53	227.64
862.84	227.49
863.16	227.52
863.47	227.44
863.78	227.44
864.09	227.44
864.40	227.39
864.71	227.40
865.02	227.42
865.33	227.39
865.64	227.35
865.95	227.31
866.27	227.37
866.58	227.33
866.89	227.34
867.20	227.32
867.51	227.27
867.82	227.25
868.13	227.27
868.44	227.22
868.75	227.19
869.06	227.19
869.37	227.20
869.68	227.14
869.99	227.19
870.30	227.21
870.61	227.23
870.92	227.25
871.23	227.22
871.54	227.20
871.85	227.23
872.16	227.24
872.47	227.26
872.78	227.19
873.09	227.22
873.40	227.22
873.71	227.22
874.02	227.24
874.33	227.25
874.64	227.26
874.95	227.28
875.26	227.29
875.56	227.29
875.87	227.31
876.18	227.31
876.49	227.41
876.80	227.38
877.11	227.36
877.42	227.33
877.73	227.35
878.04	227.34
878.35	227.32
878.66	227.33
878.96	227.33
879.27	227.32
879.58	227.32
879.89	227.33
880.20	227.37
880.51	227.37
880.82	227.39
881.12	227.39
881.43	227.38
881.74	227.36
882.05	227.36
882.36	227.36
882.67	227.38
882.97	227.23
883.28	227.24
883.59	227.28
883.90	227.33
884.21	227.32
884.51	227.34
884.82	227.37
885.13	227.38
885.44	227.39
885.74	227.42
886.05	227.40
886.36	227.41
886.67	227.37
886.98	227.40
887.28	227.41
887.59	227.43
887.90	227.45
888.20	227.46
888.51	227.47
888.82	227.44
889.13	227.44
889.43	227.53
889.74	227.52
890.05	227.49
890.35	227.45
890.66	227.45
890.97	227.44
891.28	227.40
891.58	227.39
891.89	227.36
892.20	227.36
892.50	227.34
892.81	227.31
893.12	227.35
893.42	227.29
893.73	227.29
894.04	227.25
894.34	227.27
894.65	227.25
894.95	227.25
895.26	227.28
895.57	227.32
895.87	227.22
896.18	227.22
896.48	227.24
896.79	227.22
897.10	227.22
897.40	227.22
897.71	227.22
898.01	227.19
898.32	227.21
898.63	227.19
898.93	227.19
899.24	227.18
899.54	227.13
899.85	227.13
900.15	227.10
900.46	227.13
900.76	227.11
901.07	227.11
901.38	227.11
901.68	227.09
901.99	227.06
902.29	227.05
902.60	227.04
902.90	227.00
903.21	226.96
903.51	226.95
903.82	226.95
904.12	226.94
904.43	226.94
904.73	226.93
905.03	226.93
905.34	227.03
905.64	227.01
905.95	227.02
906.25	227.02
906.56	227.00
906.86	226.97
907.17	226.97
907.47	226.98
907.77	226.95
908.08	226.92
908.38	226.90
908.69	226.90
908.99	226.95
909.30	226.97
909.60	227.02
909.90	227.02
910.21	226.98
910.51	226.96
910.81	226.94
911.12	226.93
911.42	226.92
911.73	226.83
912.03	226.85
912.33	226.88
912.64	226.87
912.94	226.91
913.24	226.87
913.55	226.87
913.85	226.84
914.15	226.89
914.46	226.91
914.76	226.94
915.06	226.94
915.37	226.94
915.67	226.95
915.97	226.95
916.27	226.93
916.58	226.96
916.88	226.99
917.18	227.02
917.49	227.12
917.79	227.14
918.09	227.16
918.39	227.17
918.70	227.15
919.00	227.16
919.30	227.19
919.60	227.20
919.91	227.20
920.21	227.26
920.51	227.24
920.81	227.25
921.12	227.25
921.42	227.25
921.72	227.24
922.02	227.24
922.32	227.27
922.63	227.31
922.93	227.40
923.23	227.42
923.53	227.41
923.83	227.34
924.13	227.35
924.44	227.37
924.74	227.43
925.04	227.47
925.34	227.48
925.64	227.43
925.94	227.45
926.24	227.52
926.55	227.51
926.85	227.54
927.15	227.56
927.45	227.57
927.75	227.61
928.05	227.65
928.35	227.63
928.65	227.63
928.95	227.65
929.26	227.57
929.56	227.58
929.86	227.61
930.16	227.62
930.46	227.63
930.76	227.64
931.06	227.58
931.36	227.54
931.66	227.56
931.96	227.60
932.26	227.61
932.56	227.54
932.86	227.51
933.16	227.50
933.46	227.50
933.76	227.48
934.06	227.50
934.36	227.50
934.66	227.53
934.96	227.54
935.26	227.50
935.56	227.50
935.86	227.47
936.16	227.44
936.46	227.44
936.76	227.41
937.06	227.39
937.36	227.38
937.66	227.37
937.96	227.33
938.26	227.30
938.56	227.28
938.86	227.32
939.16	227.33
939.46	227.32
939.76	227.30
940.06	227.29
940.35	227.25
940.65	227.16
940.95	227.15
941.25	227.12
941.55	227.11
941.85	227.08
942.15	227.12
942.45	227.13
942.75	227.09
943.04	227.07
943.34	227.08
943.64	227.09
943.94	227.08
944.24	227.12
944.54	227.12
944.84	227.15
945.13	227.13
945.43	227.10
945.73	227.09
946.03	227.06
946.33	227.04
946.62	227.02
946.92	227.02
947.22	227.01
947.52	226.97
947.82	227.00
948.11	226.99
948.41	226.94
948.71	226.92
949.01	226.95
949.31	226.95
949.60	226.92
949.90	226.96
950.20	226.97
950.50	226.96
950.79	226.97
951.09	226.94
951.39	226.92
951.69	226.95
951.98	226.95
952.28	226.96
952.58	226.99
952.87	226.99
953.17	227.02
953.47	227.00
953.76	227.02
954.06	226.98
954.36	226.99
954.66	226.97
954.95	226.99
955.25	227.01
955.55	227.01
955.84	226.99
956.14	226.94
956.44	226.92
956.73	226.90
957.03	226.86
957.32	226.87
957.62	226.88
957.92	226.86
958.21	226.86
958.51	226.95
958.81	226.96
959.10	226.98
959.40	226.99
959.69	227.00
959.99	226.97
960.29	226.98
960.58	227.00
960.88	227.07
961.17	227.09
961.47	227.08
961.76	227.08
962.06	227.12
962.36	227.14
962.65	227.14
962.95	227.12
963.24	227.10
963.54	227.10
963.83	227.07
964.13	227.11
964.42	227.05
964.72	226.99
965.01	226.96
965.31	226.95
965.60	226.94
965.90	227.00
966.19	227.01
966.49	227.01
966.78	226.98
967.08	226.97
967.37	226.94
967.67	226.93
967.96	226.92
968.26	226.91
968.55	226.92
968.85	226.93
969.14	226.91
969.43	226.92
969.73	226.91
970.02	226.93
970.32	226.91
970.61	226.95
970.91	226.92
971.20	226.91
971.49	226.91
971.79	226.92
972.08	226.86
972.38	226.88
972.67	226.89
972.96	226.88
973.26	226.81
973.55	226.85
973.85	226.86
974.14	226.86
974.43	226.83
974.73	226.81
975.02	226.83
975.31	226.88
975.61	226.90
975.90	226.90
976.19	226.85
976.49	226.84
976.78	226.83
977.07	226.83
977.37	226.84
977.66	226.84
977.95	226.82
978.24	226.81
978.54	226.85
978.83	226.83
979.12	226.85
979.42	226.87
979.71	226.84
980.00	226.82
980.29	226.86
980.59	226.87
980.88	226.92
981.17	226.90
981.46	226.86
981.76	226.83
982.05	226.88
982.34	226.95
982.63	226.94
982.93	226.95
983.22	227.00
983.51	226.98
983.80	226.97
984.09	226.97
984.39	226.97
984.68	226.94
984.97	226.95
985.26	226.93
985.55	226.92
985.85	226.91
986.14	226.89
986.43	226.87
986.72	226.86
987.01	226.83
987.30	226.81
987.59	226.84
987.89	226.84
988.18	226.82
988.47	226.82
988.76	226.83
989.05	226.84
989.34	226.79
989.63	226.86
989.92	226.84
990.22	226.85
990.51	226.82
990.80	226.82
991.09	226.82
991.38	226.86
991.67	226.86
991.96	226.85
992.25	226.87
992.54	226.85
992.83	226.86
993.12	226.82
993.41	226.87
993.70	226.88
993.99	226.92
994.28	226.92
994.58	226.90
994.87	226.88
995.16	226.83
995.45	226.83
995.74	226.79
996.03	226.83
996.32	226.85
996.61	226.88
996.90	226.90
997.19	226.88
997.48	226.90
997.77	226.91
998.06	226.93
998.34	226.91
998.63	226.93
998.92	226.93
999.21	227.00
999.50	226.95
999.79	226.93
1000.08	226.91
1000.37	226.90
1000.66	226.91
1000.95	226.92
1001.24	226.96
1001.53	226.99
1001.82	226.97
1002.11	226.94
1002.40	226.95
1002.68	226.96
1002.97	227.00
1003.26	227.01
1003.55	226.95
1003.84	226.94
1004.13	226.95
1004.42	226.97
1004.71	226.97
1004.99	226.95
1005.28	226.95
1005.57	226.98
1005.86	226.97
1006.15	226.96
1006.44	226.97
1006.72	226.98
1007.01	226.99
1007.30	227.02
1007.59	227.02
1007.88	227.03
1008.17	227.06
1008.45	227.04
1008.74	227.01
1009.03	226.99
1009.32	227.01
1009.60	227.05
1009.89	227.08
1010.18	227.05
1010.47	227.00
1010.76	226.99
1011.04	227.00
1011.33	227.02
1011.62	227.03
1011.91	227.04
1012.19	227.04
1012.48	227.04
1012.77	227.02
1013.05	227.06
1013.34	227.04
1013.63	227.05
1013.92	227.03
1014.20	226.99
1014.49	227.00
1014.78	227.00
1015.06	226.94
1015.35	226.93
1015.64	226.91
1015.92	226.91
1016.21	226.92
1016.50	226.93
1016.78	226.94
1017.07	226.95
1017.36	226.89
1017.64	226.87
1017.93	226.89
1018.22	226.88
1018.50	226.87
1018.79	226.90
1019.08	226.84
1019.36	226.81
1019.65	226.78
1019.93	226.78
1020.22	226.79
1020.51	226.80
1020.79	226.77
1021.08	226.73
1021.36	226.60
1021.65	227.34
1021.94	226.75
1022.22	226.51
1022.51	226.74
1022.79	226.54
1023.08	226.45
1023.36	227.57
1023.65	225.92
>>>>>End Processed Spectral Data<<<<<
