SpectraSuite Data File
++++++++++++++++++++++++++++++++++++
Date: Fri Feb 01 17:57:14 EST 2013
User: group
Dark Spectrum Present: No
Reference Spectrum Present: No
Number of Sampled Component Spectra: 1
Spectrometers: USB2E7196
Integration Time (usec): 35000 (USB2E7196)
Spectra Averaged: 100 (USB2E7196)
Boxcar Smoothing: 10 (USB2E7196)
Correct for Electrical Dark: No (USB2E7196)
Strobe/Lamp Enabled: No (USB2E7196)
Correct for Detector Non-linearity: No (USB2E7196)
Correct for Stray Light: No (USB2E7196)
Number of Pixels in Processed Spectrum: 2048
>>>>>Begin Processed Spectral Data<<<<<
339.09	0.00
339.48	212.34
339.86	214.04
340.24	215.60
340.63	216.60
341.01	219.40
341.39	218.90
341.78	221.47
342.16	222.53
342.54	222.89
342.93	211.11
343.31	221.78
343.69	222.31
344.07	222.78
344.46	223.19
344.84	223.59
345.22	223.86
345.60	224.14
345.99	224.32
346.37	224.42
346.75	224.54
347.13	224.63
347.52	224.68
347.90	224.74
348.28	224.79
348.66	224.79
349.05	224.78
349.43	224.80
349.81	224.85
350.19	224.92
350.57	224.96
350.96	225.05
351.34	225.13
351.72	225.24
352.10	225.34
352.48	225.41
352.87	225.47
353.25	225.53
353.63	225.60
354.01	225.64
354.39	225.73
354.77	225.76
355.15	225.90
355.54	225.93
355.92	225.95
356.30	226.02
356.68	226.19
357.06	226.27
357.44	226.33
357.82	226.43
358.20	226.50
358.58	226.58
358.97	226.62
359.35	226.68
359.73	226.73
360.11	226.76
360.49	226.82
360.87	226.86
361.25	226.93
361.63	227.01
362.01	227.08
362.39	227.08
362.77	227.11
363.15	227.08
363.53	227.13
363.91	227.17
364.29	227.22
364.67	227.16
365.05	227.17
365.43	227.21
365.81	227.21
366.19	227.26
366.57	227.30
366.95	227.33
367.33	227.32
367.71	227.32
368.09	227.37
368.47	227.37
368.85	227.35
369.23	227.34
369.61	227.26
369.99	227.26
370.37	227.28
370.75	227.31
371.13	227.26
371.51	227.23
371.89	227.22
372.27	227.18
372.65	227.13
373.03	227.09
373.41	227.03
373.78	226.95
374.16	226.85
374.54	226.74
374.92	226.67
375.30	226.64
375.68	226.56
376.06	226.49
376.44	226.43
376.82	226.37
377.19	226.29
377.57	226.25
377.95	226.15
378.33	226.06
378.71	225.96
379.09	225.90
379.47	225.83
379.84	225.73
380.22	225.62
380.60	225.56
380.98	225.53
381.36	225.47
381.73	225.44
382.11	225.43
382.49	225.42
382.87	225.33
383.25	225.28
383.62	225.34
384.00	225.28
384.38	225.23
384.76	225.22
385.13	225.21
385.51	225.18
385.89	225.10
386.27	225.08
386.64	225.07
387.02	225.03
387.40	224.98
387.78	224.94
388.15	224.91
388.53	224.85
388.91	224.81
389.29	224.80
389.66	224.76
390.04	224.72
390.42	224.67
390.79	224.68
391.17	224.67
391.55	224.57
391.92	224.55
392.30	224.56
392.68	224.52
393.05	224.50
393.43	224.50
393.81	224.54
394.18	224.56
394.56	224.55
394.94	224.60
395.31	224.60
395.69	224.68
396.06	224.73
396.44	224.73
396.82	224.76
397.19	224.81
397.57	224.84
397.95	224.87
398.32	224.91
398.70	224.94
399.07	225.00
399.45	225.01
399.82	225.04
400.20	225.10
400.58	225.21
400.95	225.23
401.33	225.33
401.70	225.47
402.08	225.55
402.45	225.68
402.83	225.79
403.20	225.93
403.58	226.01
403.95	226.12
404.33	226.28
404.71	226.40
405.08	226.56
405.46	226.69
405.83	226.86
406.21	227.03
406.58	227.20
406.96	227.38
407.33	227.57
407.70	227.83
408.08	228.14
408.45	228.37
408.83	228.67
409.20	228.90
409.58	229.13
409.95	229.45
410.33	229.74
410.70	230.07
411.08	230.42
411.45	230.83
411.82	231.24
412.20	231.70
412.57	232.24
412.95	232.65
413.32	233.21
413.69	233.74
414.07	234.30
414.44	234.93
414.82	235.59
415.19	236.34
415.56	237.08
415.94	237.81
416.31	238.62
416.68	239.46
417.06	240.40
417.43	241.29
417.81	242.32
418.18	243.31
418.55	244.40
418.93	245.61
419.30	246.73
419.67	247.97
420.04	249.25
420.42	250.59
420.79	252.15
421.16	253.71
421.54	255.26
421.91	256.92
422.28	258.63
422.66	260.39
423.03	262.14
423.40	263.94
423.77	265.82
424.15	267.75
424.52	269.71
424.89	271.87
425.26	273.98
425.64	275.91
426.01	278.07
426.38	280.30
426.75	282.47
427.13	284.86
427.50	287.29
427.87	289.80
428.24	292.27
428.61	294.64
428.99	297.24
429.36	300.11
429.73	302.87
430.10	305.60
430.47	308.38
430.85	311.25
431.22	314.24
431.59	317.39
431.96	320.42
432.33	323.78
432.70	326.98
433.08	330.73
433.45	334.26
433.82	337.78
434.19	341.69
434.56	345.50
434.93	349.00
435.30	352.52
435.68	356.41
436.05	360.22
436.42	363.97
436.79	367.32
437.16	370.94
437.53	374.76
437.90	378.51
438.27	382.17
438.64	385.96
439.01	389.38
439.38	392.43
439.75	395.33
440.13	398.66
440.50	401.79
440.87	404.26
441.24	406.84
441.61	409.82
441.98	411.85
442.35	414.27
442.72	416.87
443.09	419.33
443.46	420.68
443.83	421.49
444.20	422.19
444.57	423.35
444.94	423.73
445.31	424.18
445.68	424.66
446.05	424.74
446.42	424.21
446.79	423.74
447.16	423.10
447.53	422.74
447.90	421.24
448.27	419.72
448.64	417.67
449.01	416.25
449.37	413.57
449.74	411.02
450.11	407.99
450.48	404.68
450.85	401.28
451.22	398.43
451.59	395.74
451.96	393.13
452.33	389.63
452.70	386.50
453.07	382.71
453.43	378.87
453.80	375.23
454.17	371.67
454.54	368.27
454.91	364.66
455.28	361.02
455.65	357.67
456.02	354.35
456.38	351.43
456.75	347.82
457.12	344.79
457.49	341.77
457.86	338.86
458.23	336.31
458.59	333.59
458.96	330.78
459.33	328.29
459.70	325.78
460.07	323.75
460.43	321.39
460.80	319.16
461.17	317.17
461.54	315.10
461.91	313.16
462.27	311.16
462.64	309.48
463.01	307.61
463.38	305.86
463.74	304.01
464.11	302.42
464.48	301.02
464.85	299.51
465.21	298.35
465.58	297.10
465.95	295.60
466.32	294.32
466.68	293.07
467.05	291.80
467.42	290.59
467.78	289.33
468.15	288.18
468.52	287.29
468.88	286.13
469.25	285.05
469.62	284.21
469.98	283.28
470.35	282.42
470.72	281.63
471.08	280.71
471.45	279.97
471.82	279.22
472.18	278.37
472.55	277.77
472.92	277.02
473.28	276.39
473.65	275.77
474.02	275.15
474.38	274.61
474.75	274.15
475.11	273.62
475.48	273.25
475.85	272.89
476.21	272.54
476.58	272.23
476.94	272.01
477.31	271.72
477.67	271.50
478.04	271.22
478.41	271.09
478.77	271.07
479.14	270.91
479.50	270.86
479.87	270.87
480.23	270.88
480.60	270.91
480.96	270.90
481.33	271.06
481.69	271.22
482.06	271.40
482.42	271.56
482.79	271.77
483.15	272.02
483.52	272.38
483.88	272.70
484.25	273.08
484.61	273.45
484.98	273.86
485.34	274.41
485.71	275.04
486.07	275.64
486.44	276.16
486.80	276.88
487.17	277.60
487.53	278.44
487.90	279.33
488.26	280.26
488.62	281.29
488.99	282.32
489.35	283.41
489.72	284.55
490.08	285.81
490.44	287.10
490.81	288.52
491.17	289.91
491.54	291.47
491.90	293.07
492.26	294.82
492.63	296.69
492.99	298.54
493.36	300.56
493.72	302.73
494.08	304.98
494.45	307.31
494.81	309.82
495.17	312.38
495.54	315.07
495.90	317.93
496.26	320.87
496.63	323.96
496.99	327.22
497.35	330.67
497.72	334.25
498.08	337.99
498.44	341.84
498.80	346.01
499.17	350.30
499.53	354.70
499.89	359.36
500.26	364.08
500.62	368.98
500.98	374.25
501.34	379.66
501.71	385.28
502.07	391.14
502.43	397.09
502.79	403.24
503.16	409.67
503.52	416.28
503.88	423.06
504.24	430.13
504.60	437.44
504.97	444.97
505.33	452.75
505.69	460.92
506.05	469.20
506.41	477.54
506.78	486.18
507.14	495.15
507.50	504.33
507.86	513.94
508.22	523.73
508.59	533.50
508.95	543.60
509.31	554.05
509.67	564.77
510.03	575.67
510.39	586.95
510.75	598.50
511.12	610.19
511.48	622.24
511.84	634.51
512.20	646.85
512.56	659.67
512.92	672.71
513.28	685.96
513.64	699.35
514.00	712.99
514.37	726.84
514.73	740.94
515.09	754.93
515.45	769.26
515.81	783.90
516.17	798.94
516.53	814.22
516.89	829.49
517.25	844.81
517.61	860.49
517.97	876.19
518.33	891.70
518.69	907.67
519.05	923.89
519.41	940.35
519.77	957.19
520.13	973.92
520.49	990.73
520.85	1007.40
521.21	1024.47
521.57	1042.07
521.93	1059.35
522.29	1077.20
522.65	1095.05
523.01	1112.77
523.37	1130.39
523.73	1148.12
524.09	1165.74
524.45	1183.62
524.81	1201.89
525.17	1220.33
525.53	1238.80
525.89	1257.43
526.25	1276.00
526.61	1294.20
526.97	1312.59
527.33	1330.85
527.68	1349.24
528.04	1367.46
528.40	1385.88
528.76	1404.88
529.12	1423.41
529.48	1442.16
529.84	1459.90
530.20	1478.34
530.56	1497.20
530.91	1516.55
531.27	1535.26
531.63	1553.58
531.99	1572.19
532.35	1590.09
532.71	1607.91
533.07	1626.27
533.42	1644.28
533.78	1662.40
534.14	1680.74
534.50	1698.16
534.86	1716.03
535.21	1733.25
535.57	1751.33
535.93	1768.87
536.29	1785.68
536.65	1802.70
537.00	1819.44
537.36	1836.99
537.72	1853.72
538.08	1870.34
538.44	1886.16
538.79	1902.19
539.15	1917.91
539.51	1933.66
539.87	1950.24
540.22	1966.06
540.58	1981.88
540.94	1997.21
541.29	2012.29
541.65	2027.06
542.01	2042.50
542.37	2056.97
542.72	2071.59
543.08	2085.58
543.44	2100.30
543.79	2113.73
544.15	2126.88
544.51	2140.85
544.87	2154.06
545.22	2167.00
545.58	2179.32
545.94	2191.21
546.29	2203.20
546.65	2215.43
547.01	2227.08
547.36	2237.78
547.72	2248.38
548.07	2258.35
548.43	2268.56
548.79	2278.54
549.14	2288.12
549.50	2297.31
549.86	2306.93
550.21	2316.31
550.57	2325.33
550.92	2333.71
551.28	2342.65
551.64	2351.80
551.99	2360.19
552.35	2368.08
552.70	2376.09
553.06	2383.96
553.41	2392.21
553.77	2400.10
554.13	2407.86
554.48	2415.80
554.84	2423.30
555.19	2430.21
555.55	2437.12
555.90	2443.41
556.26	2450.24
556.61	2456.52
556.97	2462.62
557.32	2468.50
557.68	2474.25
558.03	2480.12
558.39	2485.35
558.74	2491.59
559.10	2496.91
559.45	2502.17
559.81	2507.91
560.16	2513.25
560.52	2517.98
560.87	2522.77
561.23	2526.67
561.58	2530.94
561.94	2534.83
562.29	2538.25
562.64	2542.51
563.00	2546.32
563.35	2551.03
563.71	2555.32
564.06	2559.96
564.42	2564.19
564.77	2568.09
565.12	2571.66
565.48	2574.80
565.83	2577.99
566.19	2580.47
566.54	2582.47
566.89	2584.59
567.25	2586.27
567.60	2588.47
567.96	2591.22
568.31	2593.04
568.66	2595.36
569.02	2597.00
569.37	2597.94
569.72	2599.83
570.08	2600.72
570.43	2601.68
570.78	2602.05
571.14	2600.97
571.49	2600.14
571.84	2600.28
572.20	2599.73
572.55	2599.04
572.90	2597.89
573.26	2597.10
573.61	2595.69
573.96	2594.40
574.31	2591.71
574.67	2588.99
575.02	2585.77
575.37	2582.59
575.72	2579.01
576.08	2575.62
576.43	2572.25
576.78	2568.91
577.13	2565.62
577.49	2562.65
577.84	2559.18
578.19	2555.32
578.54	2551.88
578.90	2547.63
579.25	2542.00
579.60	2536.85
579.95	2531.76
580.30	2526.48
580.66	2520.84
581.01	2515.71
581.36	2510.32
581.71	2505.98
582.06	2501.36
582.42	2496.59
582.77	2491.03
583.12	2486.23
583.47	2481.22
583.82	2476.00
584.17	2470.31
584.53	2464.43
584.88	2458.31
585.23	2451.99
585.58	2445.97
585.93	2439.94
586.28	2434.60
586.63	2429.04
586.98	2423.25
587.34	2417.96
587.69	2412.56
588.04	2406.96
588.39	2400.71
588.74	2393.60
589.09	2386.67
589.44	2379.09
589.79	2372.19
590.14	2365.81
590.49	2358.37
590.84	2351.21
591.19	2344.42
591.54	2337.07
591.89	2328.99
592.25	2321.25
592.60	2313.13
592.95	2304.64
593.30	2296.42
593.65	2287.99
594.00	2280.03
594.35	2271.85
594.70	2262.65
595.05	2254.69
595.40	2246.35
595.75	2237.73
596.10	2230.80
596.45	2223.18
596.80	2216.15
597.15	2208.78
597.50	2200.94
597.85	2193.52
598.19	2186.03
598.54	2178.18
598.89	2170.64
599.24	2163.75
599.59	2156.41
599.94	2149.32
600.29	2142.06
600.64	2134.43
600.99	2125.89
601.34	2118.04
601.69	2109.98
602.04	2102.18
602.39	2093.56
602.74	2085.55
603.08	2077.92
603.43	2070.00
603.78	2061.42
604.13	2053.17
604.48	2044.69
604.83	2036.56
605.18	2028.64
605.53	2019.28
605.87	2009.84
606.22	2001.35
606.57	1992.06
606.92	1983.24
607.27	1974.86
607.62	1966.72
607.96	1958.14
608.31	1950.47
608.66	1941.63
609.01	1932.85
609.36	1924.06
609.70	1914.70
610.05	1905.42
610.40	1896.30
610.75	1886.73
611.10	1877.97
611.44	1867.96
611.79	1858.68
612.14	1848.52
612.49	1837.71
612.83	1827.85
613.18	1818.18
613.53	1808.69
613.88	1798.77
614.22	1789.11
614.57	1778.98
614.92	1769.63
615.27	1760.97
615.61	1751.19
615.96	1741.64
616.31	1732.77
616.65	1724.14
617.00	1715.30
617.35	1706.33
617.70	1696.75
618.04	1686.69
618.39	1676.89
618.74	1668.12
619.08	1658.30
619.43	1649.37
619.78	1641.19
620.12	1632.71
620.47	1623.94
620.82	1614.32
621.16	1605.42
621.51	1596.51
621.85	1587.56
622.20	1577.65
622.55	1567.72
622.89	1558.55
623.24	1549.56
623.59	1540.72
623.93	1531.92
624.28	1523.42
624.62	1514.51
624.97	1505.96
625.32	1498.00
625.66	1489.69
626.01	1481.28
626.35	1472.66
626.70	1463.53
627.04	1454.56
627.39	1445.51
627.73	1436.87
628.08	1428.74
628.43	1420.35
628.77	1411.67
629.12	1402.90
629.46	1394.41
629.81	1385.63
630.15	1377.07
630.50	1368.46
630.84	1359.00
631.19	1349.59
631.53	1340.81
631.88	1331.96
632.22	1323.06
632.57	1314.47
632.91	1305.64
633.26	1296.91
633.60	1288.16
633.95	1279.81
634.29	1271.49
634.64	1263.65
634.98	1255.09
635.32	1246.81
635.67	1239.05
636.01	1231.30
636.36	1223.39
636.70	1215.71
637.05	1208.14
637.39	1200.57
637.73	1192.92
638.08	1185.97
638.42	1178.93
638.77	1171.52
639.11	1163.96
639.45	1156.43
639.80	1148.76
640.14	1141.44
640.49	1133.80
640.83	1126.49
641.17	1119.29
641.52	1111.89
641.86	1104.31
642.20	1097.45
642.55	1089.97
642.89	1082.55
643.23	1074.94
643.58	1068.23
643.92	1060.96
644.26	1053.94
644.61	1046.89
644.95	1039.92
645.29	1032.34
645.64	1024.55
645.98	1017.06
646.32	1010.12
646.66	1003.19
647.01	996.53
647.35	989.82
647.69	983.05
648.04	976.67
648.38	969.98
648.72	963.16
649.06	956.25
649.41	949.36
649.75	942.50
650.09	935.63
650.43	928.96
650.78	921.83
651.12	915.10
651.46	908.44
651.80	901.91
652.14	895.66
652.49	889.44
652.83	883.51
653.17	877.04
653.51	870.45
653.85	864.12
654.20	857.56
654.54	850.64
654.88	844.01
655.22	837.15
655.56	830.54
655.90	824.23
656.25	818.20
656.59	812.04
656.93	806.25
657.27	800.23
657.61	793.85
657.95	787.97
658.29	782.04
658.64	775.98
658.98	769.78
659.32	763.51
659.66	757.53
660.00	751.47
660.34	745.72
660.68	740.11
661.02	734.33
661.36	728.87
661.70	723.72
662.05	718.70
662.39	713.74
662.73	708.54
663.07	703.41
663.41	698.29
663.75	693.15
664.09	687.94
664.43	682.81
664.77	678.18
665.11	673.24
665.45	668.48
665.79	663.73
666.13	659.06
666.47	654.29
666.81	649.49
667.15	644.68
667.49	640.15
667.83	635.68
668.17	631.27
668.51	626.59
668.85	621.88
669.19	617.45
669.53	612.99
669.87	608.59
670.21	604.39
670.55	600.15
670.89	596.14
671.23	592.14
671.57	588.14
671.91	584.06
672.25	580.02
672.58	575.97
672.92	571.98
673.26	568.28
673.60	564.64
673.94	561.09
674.28	557.72
674.62	554.35
674.96	550.86
675.30	547.44
675.64	544.03
675.97	540.84
676.31	537.48
676.65	534.13
676.99	531.04
677.33	527.68
677.67	524.51
678.01	521.13
678.34	517.71
678.68	514.38
679.02	511.08
679.36	507.91
679.70	504.78
680.04	501.65
680.37	498.38
680.71	495.19
681.05	492.16
681.39	489.02
681.73	485.93
682.06	482.97
682.40	480.05
682.74	477.14
683.08	474.16
683.42	471.20
683.75	468.33
684.09	465.31
684.43	462.44
684.77	459.56
685.10	456.78
685.44	454.07
685.78	451.42
686.12	448.86
686.45	446.17
686.79	443.56
687.13	441.01
687.46	438.49
687.80	435.95
688.14	433.37
688.48	430.92
688.81	428.36
689.15	425.88
689.49	423.40
689.82	421.04
690.16	418.64
690.50	416.33
690.83	414.10
691.17	411.83
691.51	409.68
691.84	407.53
692.18	405.35
692.52	403.12
692.85	400.86
693.19	398.64
693.52	396.52
693.86	394.38
694.20	392.35
694.53	390.26
694.87	388.15
695.21	386.08
695.54	384.04
695.88	382.01
696.21	379.99
696.55	378.03
696.88	376.04
697.22	374.12
697.56	372.26
697.89	370.35
698.23	368.48
698.56	366.62
698.90	364.76
699.23	362.85
699.57	361.03
699.90	359.25
700.24	357.43
700.58	355.69
700.91	354.03
701.25	352.32
701.58	350.76
701.92	349.20
702.25	347.64
702.59	346.08
702.92	344.57
703.26	343.09
703.59	341.60
703.93	340.26
704.26	338.91
704.60	337.39
704.93	335.95
705.26	334.52
705.60	333.12
705.93	331.80
706.27	330.58
706.60	329.40
706.94	328.13
707.27	326.88
707.61	325.61
707.94	324.37
708.27	323.13
708.61	321.88
708.94	320.72
709.28	319.56
709.61	318.45
709.94	317.37
710.28	316.14
710.61	314.97
710.95	313.75
711.28	312.64
711.61	311.55
711.95	310.48
712.28	309.41
712.61	308.29
712.95	307.21
713.28	306.17
713.61	305.09
713.95	304.11
714.28	303.13
714.61	302.14
714.95	301.13
715.28	300.11
715.61	299.08
715.95	298.07
716.28	297.06
716.61	296.08
716.95	295.08
717.28	294.24
717.61	293.35
717.94	292.46
718.28	291.51
718.61	290.71
718.94	289.90
719.27	289.13
719.61	288.40
719.94	287.65
720.27	286.83
720.60	286.07
720.94	285.33
721.27	284.66
721.60	283.99
721.93	283.30
722.27	282.68
722.60	282.05
722.93	281.40
723.26	280.75
723.59	280.11
723.93	279.48
724.26	278.81
724.59	278.21
724.92	277.58
725.25	277.02
725.59	276.38
725.92	275.82
726.25	275.20
726.58	274.60
726.91	274.02
727.24	273.46
727.57	272.93
727.91	272.34
728.24	271.78
728.57	271.19
728.90	270.69
729.23	270.14
729.56	269.63
729.89	269.07
730.22	268.50
730.55	267.98
730.89	267.49
731.22	266.99
731.55	266.47
731.88	265.97
732.21	265.46
732.54	264.98
732.87	264.46
733.20	264.01
733.53	263.58
733.86	263.13
734.19	262.68
734.52	262.22
734.85	261.84
735.18	261.36
735.51	260.96
735.84	260.50
736.17	260.09
736.50	259.65
736.83	259.37
737.16	259.02
737.49	258.60
737.82	258.18
738.15	257.80
738.48	257.42
738.81	257.04
739.14	256.64
739.47	256.31
739.80	255.93
740.13	255.58
740.46	255.20
740.79	254.81
741.12	254.44
741.45	254.07
741.78	253.67
742.11	253.36
742.44	252.99
742.77	252.68
743.10	252.32
743.43	251.94
743.75	251.54
744.08	251.34
744.41	251.05
744.74	250.74
745.07	250.42
745.40	250.15
745.73	249.90
746.06	249.62
746.39	249.25
746.71	248.98
747.04	248.69
747.37	248.37
747.70	248.08
748.03	247.81
748.36	247.57
748.68	247.31
749.01	246.98
749.34	246.75
749.67	246.47
750.00	246.20
750.33	246.05
750.65	245.78
750.98	245.39
751.31	245.10
751.64	244.87
751.97	244.67
752.29	244.41
752.62	244.12
752.95	243.84
753.28	243.66
753.60	243.42
753.93	243.20
754.26	242.98
754.59	242.74
754.91	242.45
755.24	242.24
755.57	242.01
755.90	241.79
756.22	241.57
756.55	241.33
756.88	241.09
757.20	240.81
757.53	240.61
757.86	240.45
758.19	240.30
758.51	240.11
758.84	239.87
759.17	239.66
759.49	239.47
759.82	239.35
760.15	239.17
760.47	238.97
760.80	238.76
761.13	238.62
761.45	238.46
761.78	238.29
762.11	238.10
762.43	237.94
762.76	237.81
763.08	237.68
763.41	237.53
763.74	237.43
764.06	237.25
764.39	237.05
764.71	236.90
765.04	236.70
765.37	236.54
765.69	236.41
766.02	236.30
766.34	236.16
766.67	236.00
767.00	235.83
767.32	235.75
767.65	235.68
767.97	235.56
768.30	235.43
768.62	235.33
768.95	235.20
769.27	235.08
769.60	234.95
769.92	234.77
770.25	234.64
770.57	234.51
770.90	234.39
771.22	234.27
771.55	234.14
771.87	234.06
772.20	233.96
772.52	233.89
772.85	233.90
773.17	233.78
773.50	233.67
773.82	233.61
774.15	233.46
774.47	233.28
774.80	233.16
775.12	233.04
775.45	232.94
775.77	232.84
776.09	232.74
776.42	232.66
776.74	232.58
777.07	232.50
777.39	232.43
777.72	232.36
778.04	232.27
778.36	232.18
778.69	232.08
779.01	232.00
779.33	231.83
779.66	231.62
779.98	231.54
780.31	231.45
780.63	231.36
780.95	231.31
781.28	231.21
781.60	231.13
781.92	231.03
782.25	230.98
782.57	230.91
782.89	230.80
783.22	230.70
783.54	230.63
783.86	230.55
784.19	230.47
784.51	230.43
784.83	230.34
785.16	230.27
785.48	230.23
785.80	230.15
786.12	230.10
786.45	230.06
786.77	230.01
787.09	229.99
787.42	229.93
787.74	229.86
788.06	229.85
788.38	229.79
788.71	229.78
789.03	229.75
789.35	229.72
789.67	229.69
789.99	229.68
790.32	229.59
790.64	229.57
790.96	229.59
791.28	229.52
791.61	229.49
791.93	229.42
792.25	229.37
792.57	229.42
792.89	229.38
793.21	229.36
793.54	229.29
793.86	229.22
794.18	229.18
794.50	229.15
794.82	229.08
795.14	229.04
795.47	229.01
795.79	228.97
796.11	228.89
796.43	228.85
796.75	228.78
797.07	228.78
797.39	228.73
797.71	228.65
798.04	228.60
798.36	228.55
798.68	228.52
799.00	228.47
799.32	228.38
799.64	228.34
799.96	228.28
800.28	228.28
800.60	228.26
800.92	228.20
801.24	228.17
801.56	228.17
801.89	228.15
802.21	228.12
802.53	228.03
802.85	228.01
803.17	228.03
803.49	228.02
803.81	228.00
804.13	227.93
804.45	227.88
804.77	227.89
805.09	227.90
805.41	227.90
805.73	227.88
806.05	227.81
806.37	227.81
806.69	227.76
807.01	227.74
807.33	227.72
807.65	227.66
807.97	227.66
808.28	227.62
808.60	227.59
808.92	227.50
809.24	227.57
809.56	227.55
809.88	227.50
810.20	227.46
810.52	227.45
810.84	227.44
811.16	227.40
811.48	227.32
811.80	227.31
812.12	227.27
812.43	227.25
812.75	227.21
813.07	227.15
813.39	227.12
813.71	227.09
814.03	227.05
814.35	227.04
814.67	226.98
814.98	226.98
815.30	226.93
815.62	226.92
815.94	226.81
816.26	226.84
816.58	226.77
816.89	226.74
817.21	226.67
817.53	226.66
817.85	226.68
818.17	226.67
818.48	226.62
818.80	226.61
819.12	226.60
819.44	226.57
819.76	226.53
820.07	226.52
820.39	226.49
820.71	226.46
821.03	226.44
821.34	226.44
821.66	226.42
821.98	226.43
822.30	226.42
822.61	226.46
822.93	226.38
823.25	226.38
823.57	226.38
823.88	226.39
824.20	226.36
824.52	226.33
824.83	226.30
825.15	226.27
825.47	226.26
825.79	226.24
826.10	226.20
826.42	226.20
826.74	226.22
827.05	226.18
827.37	226.22
827.69	226.19
828.00	226.14
828.32	226.12
828.64	226.05
828.95	226.11
829.27	226.05
829.58	226.04
829.90	226.03
830.22	226.01
830.53	225.99
830.85	225.97
831.17	225.92
831.48	225.93
831.80	225.94
832.11	225.93
832.43	225.91
832.75	225.90
833.06	225.93
833.38	225.90
833.69	225.90
834.01	225.86
834.32	225.85
834.64	225.85
834.96	225.84
835.27	225.89
835.59	225.83
835.90	225.83
836.22	225.83
836.53	225.80
836.85	225.77
837.16	225.86
837.48	225.88
837.79	225.91
838.11	225.88
838.42	225.85
838.74	225.82
839.05	225.82
839.37	225.83
839.68	225.78
840.00	225.73
840.31	225.74
840.63	225.71
840.94	225.72
841.26	225.68
841.57	225.61
841.88	225.58
842.20	225.57
842.51	225.54
842.83	225.53
843.14	225.63
843.46	225.65
843.77	225.56
844.08	225.54
844.40	225.50
844.71	225.50
845.03	225.48
845.34	225.46
845.65	225.44
845.97	225.45
846.28	225.43
846.60	225.45
846.91	225.43
847.22	225.42
847.54	225.41
847.85	225.42
848.16	225.45
848.48	225.45
848.79	225.42
849.10	225.43
849.42	225.41
849.73	225.30
850.04	225.26
850.36	225.23
850.67	225.25
850.98	225.22
851.30	225.25
851.61	225.22
851.92	225.25
852.23	225.27
852.55	225.29
852.86	225.29
853.17	225.31
853.49	225.34
853.80	225.37
854.11	225.33
854.42	225.34
854.74	225.31
855.05	225.29
855.36	225.27
855.67	225.25
855.99	225.29
856.30	225.41
856.61	225.44
856.92	225.45
857.23	225.45
857.55	225.44
857.86	225.41
858.17	225.47
858.48	225.48
858.79	225.47
859.11	225.43
859.42	225.40
859.73	225.37
860.04	225.36
860.35	225.32
860.66	225.31
860.98	225.30
861.29	225.32
861.60	225.29
861.91	225.32
862.22	225.31
862.53	225.25
862.84	225.15
863.16	225.14
863.47	225.13
863.78	225.10
864.09	225.16
864.40	225.15
864.71	225.12
865.02	225.08
865.33	225.06
865.64	225.05
865.95	225.04
866.27	225.11
866.58	225.08
866.89	225.08
867.20	225.10
867.51	225.09
867.82	225.07
868.13	225.10
868.44	225.08
868.75	225.07
869.06	225.08
869.37	225.04
869.68	225.00
869.99	225.01
870.30	225.01
870.61	224.97
870.92	224.94
871.23	224.90
871.54	224.94
871.85	224.95
872.16	224.94
872.47	224.94
872.78	224.87
873.09	224.86
873.40	224.85
873.71	224.82
874.02	224.81
874.33	224.80
874.64	224.80
874.95	224.81
875.26	224.77
875.56	224.76
875.87	224.79
876.18	224.81
876.49	224.91
876.80	224.90
877.11	224.90
877.42	224.92
877.73	224.94
878.04	224.89
878.35	224.90
878.66	224.93
878.96	224.94
879.27	224.94
879.58	224.97
879.89	224.96
880.20	225.01
880.51	225.03
880.82	225.07
881.12	225.07
881.43	225.04
881.74	225.04
882.05	225.04
882.36	225.01
882.67	225.00
882.97	224.88
883.28	224.85
883.59	224.86
883.90	224.86
884.21	224.90
884.51	224.91
884.82	224.87
885.13	224.90
885.44	224.89
885.74	224.92
886.05	224.89
886.36	224.90
886.67	224.88
886.98	224.93
887.28	224.92
887.59	224.94
887.90	224.95
888.20	224.97
888.51	225.01
888.82	225.01
889.13	225.01
889.43	225.10
889.74	225.10
890.05	225.11
890.35	225.11
890.66	225.07
890.97	225.02
891.28	225.03
891.58	225.02
891.89	225.02
892.20	224.99
892.50	224.97
892.81	224.98
893.12	224.98
893.42	224.92
893.73	224.91
894.04	224.88
894.34	224.86
894.65	224.86
894.95	224.79
895.26	224.80
895.57	224.85
895.87	224.76
896.18	224.75
896.48	224.73
896.79	224.71
897.10	224.69
897.40	224.74
897.71	224.73
898.01	224.70
898.32	224.71
898.63	224.69
898.93	224.72
899.24	224.74
899.54	224.70
899.85	224.67
900.15	224.68
900.46	224.68
900.76	224.72
901.07	224.67
901.38	224.72
901.68	224.71
901.99	224.66
902.29	224.66
902.60	224.69
902.90	224.68
903.21	224.68
903.51	224.69
903.82	224.70
904.12	224.69
904.43	224.69
904.73	224.66
905.03	224.67
905.34	224.75
905.64	224.70
905.95	224.73
906.25	224.76
906.56	224.75
906.86	224.75
907.17	224.76
907.47	224.79
907.77	224.76
908.08	224.73
908.38	224.71
908.69	224.71
908.99	224.73
909.30	224.72
909.60	224.72
909.90	224.72
910.21	224.71
910.51	224.70
910.81	224.72
911.12	224.73
911.42	224.74
911.73	224.65
912.03	224.68
912.33	224.68
912.64	224.67
912.94	224.63
913.24	224.63
913.55	224.59
913.85	224.58
914.15	224.60
914.46	224.65
914.76	224.66
915.06	224.69
915.37	224.65
915.67	224.69
915.97	224.70
916.27	224.69
916.58	224.68
916.88	224.69
917.18	224.67
917.49	224.73
917.79	224.71
918.09	224.71
918.39	224.73
918.70	224.72
919.00	224.72
919.30	224.77
919.60	224.76
919.91	224.74
920.21	224.76
920.51	224.76
920.81	224.76
921.12	224.77
921.42	224.74
921.72	224.74
922.02	224.72
922.32	224.74
922.63	224.74
922.93	224.79
923.23	224.81
923.53	224.81
923.83	224.75
924.13	224.80
924.44	224.78
924.74	224.80
925.04	224.84
925.34	224.83
925.64	224.81
925.94	224.80
926.24	224.88
926.55	224.87
926.85	224.87
927.15	224.88
927.45	224.90
927.75	224.91
928.05	224.89
928.35	224.92
928.65	224.96
928.95	224.94
929.26	224.89
929.56	224.92
929.86	224.94
930.16	224.93
930.46	224.93
930.76	224.95
931.06	224.90
931.36	224.89
931.66	224.91
931.96	224.92
932.26	224.93
932.56	224.89
932.86	224.87
933.16	224.90
933.46	224.89
933.76	224.88
934.06	224.90
934.36	224.97
934.66	224.96
934.96	224.89
935.26	224.93
935.56	224.95
935.86	224.88
936.16	224.88
936.46	224.88
936.76	224.84
937.06	224.83
937.36	224.82
937.66	224.80
937.96	224.81
938.26	224.77
938.56	224.74
938.86	224.73
939.16	224.75
939.46	224.71
939.76	224.68
940.06	224.67
940.35	224.65
940.65	224.57
940.95	224.58
941.25	224.59
941.55	224.59
941.85	224.59
942.15	224.62
942.45	224.62
942.75	224.59
943.04	224.58
943.34	224.57
943.64	224.54
943.94	224.53
944.24	224.51
944.54	224.51
944.84	224.53
945.13	224.50
945.43	224.53
945.73	224.56
946.03	224.56
946.33	224.54
946.62	224.49
946.92	224.48
947.22	224.46
947.52	224.44
947.82	224.45
948.11	224.43
948.41	224.40
948.71	224.38
949.01	224.38
949.31	224.41
949.60	224.41
949.90	224.45
950.20	224.45
950.50	224.43
950.79	224.41
951.09	224.44
951.39	224.46
951.69	224.44
951.98	224.42
952.28	224.41
952.58	224.38
952.87	224.43
953.17	224.47
953.47	224.45
953.76	224.45
954.06	224.42
954.36	224.39
954.66	224.39
954.95	224.38
955.25	224.42
955.55	224.41
955.84	224.41
956.14	224.39
956.44	224.40
956.73	224.39
957.03	224.43
957.32	224.43
957.62	224.40
957.92	224.42
958.21	224.44
958.51	224.56
958.81	224.61
959.10	224.60
959.40	224.66
959.69	224.69
959.99	224.70
960.29	224.71
960.58	224.72
960.88	224.76
961.17	224.77
961.47	224.75
961.76	224.74
962.06	224.76
962.36	224.78
962.65	224.78
962.95	224.82
963.24	224.79
963.54	224.76
963.83	224.77
964.13	224.75
964.42	224.72
964.72	224.65
965.01	224.68
965.31	224.70
965.60	224.65
965.90	224.70
966.19	224.70
966.49	224.65
966.78	224.66
967.08	224.68
967.37	224.69
967.67	224.69
967.96	224.72
968.26	224.73
968.55	224.74
968.85	224.76
969.14	224.74
969.43	224.74
969.73	224.78
970.02	224.80
970.32	224.80
970.61	224.81
970.91	224.77
971.20	224.74
971.49	224.70
971.79	224.70
972.08	224.63
972.38	224.63
972.67	224.66
972.96	224.70
973.26	224.66
973.55	224.69
973.85	224.69
974.14	224.71
974.43	224.70
974.73	224.67
975.02	224.66
975.31	224.68
975.61	224.68
975.90	224.63
976.19	224.60
976.49	224.60
976.78	224.58
977.07	224.62
977.37	224.62
977.66	224.66
977.95	224.66
978.24	224.65
978.54	224.66
978.83	224.63
979.12	224.61
979.42	224.58
979.71	224.57
980.00	224.55
980.29	224.53
980.59	224.51
980.88	224.51
981.17	224.53
981.46	224.52
981.76	224.49
982.05	224.53
982.34	224.54
982.63	224.55
982.93	224.54
983.22	224.53
983.51	224.53
983.80	224.51
984.09	224.50
984.39	224.47
984.68	224.46
984.97	224.47
985.26	224.44
985.55	224.48
985.85	224.44
986.14	224.45
986.43	224.47
986.72	224.47
987.01	224.43
987.30	224.41
987.59	224.38
987.89	224.41
988.18	224.39
988.47	224.40
988.76	224.38
989.05	224.38
989.34	224.38
989.63	224.38
989.92	224.38
990.22	224.37
990.51	224.38
990.80	224.38
991.09	224.38
991.38	224.39
991.67	224.35
991.96	224.35
992.25	224.35
992.54	224.31
992.83	224.33
993.12	224.34
993.41	224.39
993.70	224.43
993.99	224.46
994.28	224.43
994.58	224.45
994.87	224.46
995.16	224.47
995.45	224.48
995.74	224.47
996.03	224.48
996.32	224.49
996.61	224.53
996.90	224.55
997.19	224.56
997.48	224.58
997.77	224.59
998.06	224.62
998.34	224.65
998.63	224.67
998.92	224.66
999.21	224.68
999.50	224.66
999.79	224.63
1000.08	224.64
1000.37	224.68
1000.66	224.69
1000.95	224.71
1001.24	224.72
1001.53	224.72
1001.82	224.71
1002.11	224.73
1002.40	224.76
1002.68	224.81
1002.97	224.88
1003.26	224.91
1003.55	224.88
1003.84	224.92
1004.13	224.97
1004.42	224.96
1004.71	224.96
1004.99	224.95
1005.28	224.99
1005.57	224.99
1005.86	225.00
1006.15	224.96
1006.44	224.93
1006.72	224.94
1007.01	224.97
1007.30	224.96
1007.59	225.00
1007.88	225.02
1008.17	225.00
1008.45	224.99
1008.74	224.95
1009.03	224.88
1009.32	224.85
1009.60	224.85
1009.89	224.83
1010.18	224.76
1010.47	224.77
1010.76	224.81
1011.04	224.82
1011.33	224.79
1011.62	224.78
1011.91	224.81
1012.19	224.83
1012.48	224.83
1012.77	224.79
1013.05	224.84
1013.34	224.82
1013.63	224.80
1013.92	224.75
1014.20	224.74
1014.49	224.70
1014.78	224.68
1015.06	224.65
1015.35	224.68
1015.64	224.70
1015.92	224.67
1016.21	224.66
1016.50	224.62
1016.78	224.57
1017.07	224.57
1017.36	224.54
1017.64	224.51
1017.93	224.50
1018.22	224.45
1018.50	224.42
1018.79	224.42
1019.08	224.34
1019.36	224.33
1019.65	224.29
1019.93	224.31
1020.22	224.30
1020.51	224.36
1020.79	224.33
1021.08	223.68
1021.36	224.02
1021.65	224.52
1021.94	224.30
1022.22	224.33
1022.51	223.89
1022.79	224.69
1023.08	223.92
1023.36	225.48
1023.65	223.93
>>>>>End Processed Spectral Data<<<<<
