SpectraSuite Data File
++++++++++++++++++++++++++++++++++++
Date: Fri Feb 01 17:29:16 EST 2013
User: group
Dark Spectrum Present: No
Reference Spectrum Present: No
Number of Sampled Component Spectra: 1
Spectrometers: USB2E7196
Integration Time (usec): 35000 (USB2E7196)
Spectra Averaged: 100 (USB2E7196)
Boxcar Smoothing: 10 (USB2E7196)
Correct for Electrical Dark: No (USB2E7196)
Strobe/Lamp Enabled: No (USB2E7196)
Correct for Detector Non-linearity: No (USB2E7196)
Correct for Stray Light: No (USB2E7196)
Number of Pixels in Processed Spectrum: 2048
>>>>>Begin Processed Spectral Data<<<<<
339.09	0.00
339.48	212.32
339.86	213.80
340.24	215.50
340.63	217.27
341.01	219.99
341.39	219.68
341.78	220.60
342.16	222.62
342.54	222.75
342.93	211.14
343.31	221.80
343.69	222.34
344.07	222.83
344.46	223.25
344.84	223.62
345.22	223.83
345.60	224.09
345.99	224.31
346.37	224.40
346.75	224.49
347.13	224.54
347.52	224.56
347.90	224.60
348.28	224.63
348.66	224.68
349.05	224.67
349.43	224.72
349.81	224.75
350.19	224.78
350.57	224.83
350.96	224.88
351.34	224.96
351.72	225.06
352.10	225.16
352.48	225.25
352.87	225.28
353.25	225.37
353.63	225.41
354.01	225.44
354.39	225.54
354.77	225.63
355.15	225.76
355.54	225.81
355.92	225.85
356.30	225.96
356.68	226.12
357.06	226.21
357.44	226.28
357.82	226.38
358.20	226.44
358.58	226.53
358.97	226.60
359.35	226.72
359.73	226.79
360.11	226.85
360.49	226.90
360.87	226.99
361.25	227.05
361.63	227.13
362.01	227.21
362.39	227.23
362.77	227.29
363.15	227.31
363.53	227.37
363.91	227.44
364.29	227.48
364.67	227.38
365.05	227.43
365.43	227.41
365.81	227.46
366.19	227.52
366.57	227.56
366.95	227.58
367.33	227.54
367.71	227.55
368.09	227.59
368.47	227.58
368.85	227.55
369.23	227.55
369.61	227.51
369.99	227.52
370.37	227.52
370.75	227.49
371.13	227.44
371.51	227.40
371.89	227.37
372.27	227.32
372.65	227.34
373.03	227.29
373.41	227.28
373.78	227.19
374.16	227.10
374.54	227.01
374.92	226.96
375.30	226.91
375.68	226.82
376.06	226.74
376.44	226.68
376.82	226.62
377.19	226.59
377.57	226.53
377.95	226.42
378.33	226.35
378.71	226.26
379.09	226.22
379.47	226.17
379.84	226.09
380.22	226.02
380.60	225.94
380.98	225.88
381.36	225.82
381.73	225.76
382.11	225.73
382.49	225.67
382.87	225.61
383.25	225.53
383.62	225.58
384.00	225.48
384.38	225.44
384.76	225.41
385.13	225.35
385.51	225.29
385.89	225.25
386.27	225.22
386.64	225.18
387.02	225.12
387.40	225.06
387.78	225.02
388.15	224.99
388.53	224.94
388.91	224.89
389.29	224.83
389.66	224.80
390.04	224.73
390.42	224.72
390.79	224.70
391.17	224.69
391.55	224.60
391.92	224.57
392.30	224.58
392.68	224.53
393.05	224.53
393.43	224.55
393.81	224.56
394.18	224.54
394.56	224.54
394.94	224.55
395.31	224.55
395.69	224.56
396.06	224.59
396.44	224.60
396.82	224.62
397.19	224.71
397.57	224.74
397.95	224.81
398.32	224.83
398.70	224.86
399.07	224.92
399.45	224.94
399.82	225.02
400.20	225.07
400.58	225.14
400.95	225.16
401.33	225.19
401.70	225.30
402.08	225.37
402.45	225.44
402.83	225.55
403.20	225.66
403.58	225.77
403.95	225.89
404.33	226.02
404.71	226.13
405.08	226.33
405.46	226.46
405.83	226.60
406.21	226.72
406.58	226.91
406.96	227.07
407.33	227.24
407.70	227.43
408.08	227.67
408.45	227.88
408.83	228.13
409.20	228.36
409.58	228.56
409.95	228.85
410.33	229.15
410.70	229.41
411.08	229.70
411.45	229.99
411.82	230.28
412.20	230.61
412.57	231.03
412.95	231.29
413.32	231.71
413.69	232.12
414.07	232.60
414.44	233.06
414.82	233.56
415.19	234.14
415.56	234.72
415.94	235.28
416.31	235.93
416.68	236.60
417.06	237.36
417.43	238.08
417.81	238.86
418.18	239.67
418.55	240.53
418.93	241.47
419.30	242.40
419.67	243.38
420.04	244.41
420.42	245.44
420.79	246.68
421.16	247.89
421.54	249.18
421.91	250.40
422.28	251.77
422.66	253.14
423.03	254.50
423.40	255.86
423.77	257.36
424.15	258.87
424.52	260.43
424.89	262.11
425.26	263.73
425.64	265.27
426.01	266.94
426.38	268.67
426.75	270.39
427.13	272.22
427.50	274.09
427.87	276.05
428.24	278.00
428.61	279.84
428.99	281.89
429.36	284.02
429.73	286.16
430.10	288.20
430.47	290.36
430.85	292.55
431.22	294.86
431.59	297.34
431.96	299.65
432.33	302.23
432.70	304.68
433.08	307.58
433.45	310.28
433.82	312.95
434.19	315.98
434.56	318.89
434.93	321.61
435.30	324.30
435.68	327.32
436.05	330.27
436.42	333.14
436.79	335.73
437.16	338.56
437.53	341.53
437.90	344.48
438.27	347.30
438.64	350.22
439.01	352.97
439.38	355.25
439.75	357.50
440.13	360.10
440.50	362.55
440.87	364.52
441.24	366.58
441.61	368.86
441.98	370.40
442.35	372.32
442.72	374.24
443.09	376.19
443.46	377.20
443.83	377.86
444.20	378.48
444.57	379.45
444.94	379.75
445.31	380.15
445.68	380.49
446.05	380.65
446.42	380.32
446.79	379.88
447.16	379.50
447.53	379.25
447.90	378.03
448.27	376.84
448.64	375.23
449.01	374.05
449.37	372.04
449.74	370.08
450.11	367.75
450.48	365.28
450.85	362.65
451.22	360.45
451.59	358.34
451.96	356.28
452.33	353.53
452.70	351.13
453.07	348.17
453.43	345.14
453.80	342.24
454.17	339.46
454.54	336.85
454.91	334.03
455.28	331.23
455.65	328.69
456.02	326.14
456.38	323.88
456.75	321.14
457.12	318.80
457.49	316.52
457.86	314.26
458.23	312.28
458.59	310.11
458.96	307.91
459.33	305.95
459.70	304.01
460.07	302.41
460.43	300.59
460.80	298.92
461.17	297.44
461.54	295.91
461.91	294.41
462.27	292.86
462.64	291.53
463.01	290.10
463.38	288.74
463.74	287.30
464.11	286.09
464.48	285.02
464.85	283.85
465.21	282.96
465.58	281.97
465.95	280.85
466.32	279.95
466.68	279.01
467.05	278.10
467.42	277.18
467.78	276.22
468.15	275.31
468.52	274.59
468.88	273.73
469.25	272.87
469.62	272.24
469.98	271.54
470.35	270.86
470.72	270.27
471.08	269.58
471.45	269.02
471.82	268.45
472.18	267.83
472.55	267.36
472.92	266.78
473.28	266.35
473.65	265.88
474.02	265.43
474.38	265.08
474.75	264.72
475.11	264.36
475.48	264.08
475.85	263.87
476.21	263.60
476.58	263.43
476.94	263.29
477.31	263.10
477.67	262.97
478.04	262.85
478.41	262.79
478.77	262.82
479.14	262.75
479.50	262.76
479.87	262.80
480.23	262.87
480.60	262.95
480.96	263.01
481.33	263.23
481.69	263.42
482.06	263.65
482.42	263.82
482.79	264.08
483.15	264.40
483.52	264.77
483.88	265.16
484.25	265.53
484.61	265.98
484.98	266.42
485.34	266.98
485.71	267.56
486.07	268.13
486.44	268.67
486.80	269.38
487.17	270.09
487.53	270.93
487.90	271.79
488.26	272.68
488.62	273.64
488.99	274.58
489.35	275.58
489.72	276.66
490.08	277.89
490.44	279.12
490.81	280.46
491.17	281.80
491.54	283.25
491.90	284.76
492.26	286.41
492.63	288.10
492.99	289.85
493.36	291.74
493.72	293.76
494.08	295.90
494.45	298.11
494.81	300.47
495.17	302.82
495.54	305.32
495.90	307.98
496.26	310.80
496.63	313.77
496.99	316.93
497.35	320.12
497.72	323.50
498.08	326.96
498.44	330.62
498.80	334.54
499.17	338.56
499.53	342.71
499.89	347.04
500.26	351.49
500.62	356.09
500.98	361.02
501.34	366.07
501.71	371.30
502.07	376.72
502.43	382.26
502.79	387.97
503.16	393.99
503.52	400.20
503.88	406.51
504.24	413.07
504.60	419.76
504.97	426.84
505.33	434.01
505.69	441.56
506.05	449.15
506.41	456.88
506.78	464.87
507.14	473.14
507.50	481.70
507.86	490.59
508.22	499.64
508.59	508.61
508.95	517.96
509.31	527.55
509.67	537.45
510.03	547.49
510.39	557.89
510.75	568.48
511.12	579.09
511.48	590.11
511.84	601.24
512.20	612.51
512.56	624.11
512.92	636.00
513.28	648.15
513.64	660.29
514.00	672.67
514.37	685.33
514.73	698.01
515.09	710.67
515.45	723.60
515.81	736.88
516.17	750.49
516.53	764.27
516.89	778.13
517.25	791.87
517.61	805.93
517.97	820.03
518.33	834.00
518.69	848.44
519.05	863.00
519.41	877.78
519.77	892.89
520.13	907.84
520.49	922.79
520.85	937.60
521.21	952.87
521.57	968.60
521.93	983.78
522.29	999.63
522.65	1015.45
523.01	1031.18
523.37	1046.66
523.73	1062.36
524.09	1077.97
524.45	1093.69
524.81	1109.82
525.17	1126.02
525.53	1142.36
525.89	1158.70
526.25	1175.07
526.61	1191.05
526.97	1207.32
527.33	1223.33
527.68	1239.56
528.04	1255.57
528.40	1271.60
528.76	1288.23
529.12	1304.39
529.48	1320.98
529.84	1336.60
530.20	1352.73
530.56	1369.16
530.91	1386.18
531.27	1402.51
531.63	1418.54
531.99	1434.79
532.35	1450.44
532.71	1465.95
533.07	1481.79
533.42	1497.45
533.78	1513.15
534.14	1529.04
534.50	1544.00
534.86	1559.55
535.21	1574.31
535.57	1589.93
535.93	1605.28
536.29	1619.79
536.65	1634.51
537.00	1648.79
537.36	1663.88
537.72	1678.15
538.08	1692.47
538.44	1706.00
538.79	1719.64
539.15	1732.94
539.51	1746.41
539.87	1760.50
540.22	1773.98
540.58	1787.47
540.94	1800.48
541.29	1813.04
541.65	1825.46
542.01	1838.45
542.37	1850.65
542.72	1863.02
543.08	1874.70
543.44	1886.94
543.79	1898.12
544.15	1908.98
544.51	1920.69
544.87	1931.56
545.22	1942.39
545.58	1952.59
545.94	1962.48
546.29	1972.34
546.65	1982.35
547.01	1991.77
547.36	2000.54
547.72	2009.26
548.07	2017.34
548.43	2025.60
548.79	2033.63
549.14	2041.43
549.50	2048.88
549.86	2056.65
550.21	2063.97
550.57	2071.31
550.92	2078.03
551.28	2085.32
551.64	2092.72
551.99	2099.30
552.35	2105.84
552.70	2112.33
553.06	2118.56
553.41	2125.01
553.77	2131.40
554.13	2137.78
554.48	2144.05
554.84	2150.00
555.19	2155.54
555.55	2161.04
555.90	2165.80
556.26	2171.25
556.61	2176.29
556.97	2181.12
557.32	2185.62
557.68	2190.11
558.03	2194.68
558.39	2198.70
558.74	2203.53
559.10	2207.76
559.45	2211.83
559.81	2216.22
560.16	2220.23
560.52	2223.87
560.87	2227.59
561.23	2230.51
561.58	2233.70
561.94	2236.61
562.29	2239.12
562.64	2242.27
563.00	2245.25
563.35	2249.07
563.71	2252.57
564.06	2256.07
564.42	2259.23
564.77	2262.20
565.12	2265.14
565.48	2267.48
565.83	2269.88
566.19	2271.69
566.54	2272.93
566.89	2274.57
567.25	2275.72
567.60	2277.52
567.96	2279.60
568.31	2280.90
568.66	2282.53
569.02	2283.66
569.37	2284.44
569.72	2285.80
570.08	2286.26
570.43	2286.58
570.78	2286.65
571.14	2285.55
571.49	2284.64
571.84	2284.62
572.20	2283.92
572.55	2283.10
572.90	2281.83
573.26	2280.90
573.61	2279.41
573.96	2278.20
574.31	2275.55
574.67	2272.96
575.02	2269.61
575.37	2266.51
575.72	2263.20
576.08	2259.93
576.43	2256.90
576.78	2253.81
577.13	2250.95
577.49	2248.19
577.84	2245.11
578.19	2241.66
578.54	2238.42
578.90	2234.67
579.25	2229.64
579.60	2225.16
579.95	2220.60
580.30	2215.94
580.66	2211.06
581.01	2206.50
581.36	2201.81
581.71	2198.13
582.06	2194.12
582.42	2190.13
582.77	2185.33
583.12	2181.09
583.47	2176.95
583.82	2172.32
584.17	2167.24
584.53	2162.05
584.88	2156.80
585.23	2151.58
585.58	2146.28
585.93	2141.15
586.28	2136.36
586.63	2131.52
586.98	2126.49
587.34	2121.92
587.69	2117.44
588.04	2112.53
588.39	2107.27
588.74	2100.95
589.09	2094.98
589.44	2088.42
589.79	2082.45
590.14	2076.98
590.49	2070.68
590.84	2064.44
591.19	2058.70
591.54	2052.56
591.89	2045.68
592.25	2039.19
592.60	2032.02
592.95	2024.89
593.30	2017.67
593.65	2010.40
594.00	2003.50
594.35	1996.54
594.70	1988.63
595.05	1981.77
595.40	1974.66
595.75	1967.34
596.10	1961.64
596.45	1955.05
596.80	1949.01
597.15	1942.60
597.50	1935.90
597.85	1929.42
598.19	1922.99
598.54	1916.17
598.89	1909.63
599.24	1903.57
599.59	1897.05
599.94	1890.82
600.29	1884.51
600.64	1877.96
600.99	1870.75
601.34	1864.13
601.69	1857.09
602.04	1850.50
602.39	1843.05
602.74	1836.32
603.08	1829.66
603.43	1822.73
603.78	1815.56
604.13	1808.44
604.48	1801.40
604.83	1794.48
605.18	1787.86
605.53	1779.96
605.87	1771.87
606.22	1764.57
606.57	1756.69
606.92	1749.26
607.27	1742.35
607.62	1735.52
607.96	1728.30
608.31	1721.76
608.66	1714.11
609.01	1706.80
609.36	1699.37
609.70	1691.48
610.05	1683.52
610.40	1675.79
610.75	1667.50
611.10	1659.73
611.44	1651.18
611.79	1642.98
612.14	1634.23
612.49	1624.83
612.83	1616.34
613.18	1608.08
613.53	1599.95
613.88	1591.45
614.22	1583.09
614.57	1574.35
614.92	1566.20
615.27	1558.75
615.61	1550.33
615.96	1542.24
616.31	1534.39
616.65	1526.82
617.00	1519.07
617.35	1511.11
617.70	1502.85
618.04	1494.32
618.39	1485.98
618.74	1478.43
619.08	1470.11
619.43	1462.49
619.78	1455.42
620.12	1448.22
620.47	1440.71
620.82	1432.47
621.16	1424.89
621.51	1417.23
621.85	1409.49
622.20	1400.99
622.55	1392.45
622.89	1384.59
623.24	1376.79
623.59	1369.24
623.93	1361.60
624.28	1354.30
624.62	1346.74
624.97	1339.42
625.32	1332.46
625.66	1325.38
626.01	1318.03
626.35	1310.61
626.70	1302.70
627.04	1294.98
627.39	1287.04
627.73	1279.48
628.08	1272.44
628.43	1265.15
628.77	1257.76
629.12	1250.21
629.46	1242.86
629.81	1235.21
630.15	1227.75
630.50	1220.33
630.84	1212.19
631.19	1204.15
631.53	1196.56
631.88	1188.88
632.22	1181.08
632.57	1173.62
632.91	1165.90
633.26	1158.48
633.60	1150.83
633.95	1143.51
634.29	1136.30
634.64	1129.58
634.98	1122.17
635.32	1114.96
635.67	1108.16
636.01	1101.31
636.36	1094.47
636.70	1087.87
637.05	1081.27
637.39	1074.80
637.73	1068.28
638.08	1062.19
638.42	1056.14
638.77	1049.63
639.11	1043.08
639.45	1036.74
639.80	1030.12
640.14	1023.86
640.49	1017.33
640.83	1011.14
641.17	1005.03
641.52	998.73
641.86	992.16
642.20	986.28
642.55	979.81
642.89	973.37
643.23	966.73
643.58	960.85
643.92	954.66
644.26	948.74
644.61	942.55
644.95	936.48
645.29	930.05
645.64	923.34
645.98	917.04
646.32	911.06
646.66	904.93
647.01	899.18
647.35	893.34
647.69	887.41
648.04	881.75
648.38	875.98
648.72	870.02
649.06	864.02
649.41	858.02
649.75	852.14
650.09	846.23
650.43	840.50
650.78	834.32
651.12	828.28
651.46	822.45
651.80	816.83
652.14	811.41
652.49	805.98
652.83	800.79
653.17	795.05
653.51	789.32
653.85	783.92
654.20	778.30
654.54	772.32
654.88	766.51
655.22	760.54
655.56	754.71
655.90	749.24
656.25	743.99
656.59	738.68
656.93	733.63
657.27	728.43
657.61	723.00
657.95	717.85
658.29	712.76
658.64	707.50
658.98	702.08
659.32	696.58
659.66	691.35
660.00	686.06
660.34	681.08
660.68	676.17
661.02	671.07
661.36	666.25
661.70	661.72
662.05	657.42
662.39	653.22
662.73	648.78
663.07	644.36
663.41	639.89
663.75	635.38
664.09	630.76
664.43	626.35
664.77	622.24
665.11	618.06
665.45	613.94
665.79	609.87
666.13	605.77
666.47	601.62
666.81	597.43
667.15	593.23
667.49	589.30
667.83	585.47
668.17	581.55
668.51	577.47
668.85	573.37
669.19	569.44
669.53	565.55
669.87	561.71
670.21	557.94
670.55	554.26
670.89	550.81
671.23	547.33
671.57	543.75
671.91	540.18
672.25	536.56
672.58	533.00
672.92	529.47
673.26	526.25
673.60	523.08
673.94	520.01
674.28	517.01
674.62	514.07
674.96	510.93
675.30	508.03
675.64	505.07
675.97	502.27
676.31	499.40
676.65	496.45
676.99	493.72
677.33	490.85
677.67	488.01
678.01	484.95
678.34	481.96
678.68	479.05
679.02	476.17
679.36	473.38
679.70	470.65
680.04	467.97
680.37	465.12
680.71	462.34
681.05	459.68
681.39	456.99
681.73	454.29
682.06	451.73
682.40	449.14
682.74	446.65
683.08	444.04
683.42	441.46
683.75	438.90
684.09	436.24
684.43	433.76
684.77	431.22
685.10	428.84
685.44	426.55
685.78	424.23
686.12	421.99
686.45	419.71
686.79	417.37
687.13	415.09
687.46	412.90
687.80	410.64
688.14	408.33
688.48	406.23
688.81	404.00
689.15	401.86
689.49	399.64
689.82	397.47
690.16	395.35
690.50	393.35
690.83	391.43
691.17	389.48
691.51	387.56
691.84	385.72
692.18	383.82
692.52	381.81
692.85	379.82
693.19	377.90
693.52	376.02
693.86	374.20
694.20	372.37
694.53	370.56
694.87	368.70
695.21	366.93
695.54	365.10
695.88	363.31
696.21	361.58
696.55	359.93
696.88	358.25
697.22	356.57
697.56	354.91
697.89	353.23
698.23	351.61
698.56	349.98
698.90	348.42
699.23	346.74
699.57	345.19
699.90	343.64
700.24	342.10
700.58	340.58
700.91	339.04
701.25	337.61
701.58	336.22
701.92	334.89
702.25	333.44
702.59	332.05
702.92	330.74
703.26	329.38
703.59	328.09
703.93	326.95
704.26	325.72
704.60	324.43
704.93	323.14
705.26	321.87
705.60	320.67
705.93	319.45
706.27	318.38
706.60	317.34
706.94	316.28
707.27	315.13
707.61	314.05
707.94	313.04
708.27	311.92
708.61	310.80
708.94	309.77
709.28	308.80
709.61	307.82
709.94	306.84
710.28	305.80
710.61	304.78
710.95	303.59
711.28	302.65
711.61	301.65
711.95	300.72
712.28	299.78
712.61	298.74
712.95	297.81
713.28	296.91
713.61	295.96
713.95	295.06
714.28	294.18
714.61	293.29
714.95	292.43
715.28	291.54
715.61	290.64
715.95	289.73
716.28	288.86
716.61	288.01
716.95	287.15
717.28	286.36
717.61	285.56
717.94	284.87
718.28	284.09
718.61	283.35
718.94	282.61
719.27	281.90
719.61	281.26
719.94	280.61
720.27	279.87
720.60	279.16
720.94	278.52
721.27	277.93
721.60	277.36
721.93	276.74
722.27	276.18
722.60	275.60
722.93	275.02
723.26	274.49
723.59	273.93
723.93	273.36
724.26	272.80
724.59	272.22
724.92	271.65
725.25	271.09
725.59	270.56
725.92	270.06
726.25	269.57
726.58	269.10
726.91	268.55
727.24	268.09
727.57	267.61
727.91	267.08
728.24	266.56
728.57	266.03
728.90	265.56
729.23	265.07
729.56	264.68
729.89	264.23
730.22	263.70
730.55	263.21
730.89	262.75
731.22	262.32
731.55	261.89
731.88	261.43
732.21	260.98
732.54	260.55
732.87	260.08
733.20	259.66
733.53	259.23
733.86	258.84
734.19	258.41
734.52	258.01
734.85	257.71
735.18	257.29
735.51	256.92
735.84	256.54
736.17	256.18
736.50	255.75
736.83	255.50
737.16	255.14
737.49	254.83
737.82	254.49
738.15	254.11
738.48	253.79
738.81	253.48
739.14	253.20
739.47	252.87
739.80	252.60
740.13	252.29
740.46	251.95
740.79	251.60
741.12	251.29
741.45	250.96
741.78	250.60
742.11	250.38
742.44	250.04
742.77	249.73
743.10	249.45
743.43	249.17
743.75	248.77
744.08	248.64
744.41	248.35
744.74	248.06
745.07	247.78
745.40	247.51
745.73	247.27
746.06	246.95
746.39	246.71
746.71	246.41
747.04	246.13
747.37	245.90
747.70	245.68
748.03	245.43
748.36	245.22
748.68	244.97
749.01	244.69
749.34	244.48
749.67	244.28
750.00	244.02
750.33	243.84
750.65	243.66
750.98	243.34
751.31	243.10
751.64	242.91
751.97	242.76
752.29	242.55
752.62	242.26
752.95	242.08
753.28	241.83
753.60	241.63
753.93	241.43
754.26	241.20
754.59	240.99
754.91	240.77
755.24	240.59
755.57	240.37
755.90	240.17
756.22	239.96
756.55	239.71
756.88	239.49
757.20	239.24
757.53	239.02
757.86	238.82
758.19	238.68
758.51	238.48
758.84	238.28
759.17	238.08
759.49	237.97
759.82	237.81
760.15	237.67
760.47	237.51
760.80	237.32
761.13	237.20
761.45	237.03
761.78	236.83
762.11	236.68
762.43	236.52
762.76	236.36
763.08	236.22
763.41	236.07
763.74	235.95
764.06	235.79
764.39	235.65
764.71	235.49
765.04	235.33
765.37	235.17
765.69	235.01
766.02	234.89
766.34	234.73
766.67	234.57
767.00	234.45
767.32	234.37
767.65	234.30
767.97	234.18
768.30	234.07
768.62	233.99
768.95	233.87
769.27	233.78
769.60	233.69
769.92	233.59
770.25	233.50
770.57	233.39
770.90	233.27
771.22	233.17
771.55	233.10
771.87	233.02
772.20	232.91
772.52	232.89
772.85	232.93
773.17	232.82
773.50	232.75
773.82	232.65
774.15	232.52
774.47	232.39
774.80	232.29
775.12	232.24
775.45	232.15
775.77	232.07
776.09	231.98
776.42	231.87
776.74	231.84
777.07	231.80
777.39	231.68
777.72	231.60
778.04	231.56
778.36	231.46
778.69	231.40
779.01	231.36
779.33	231.23
779.66	231.04
779.98	230.97
780.31	230.92
780.63	230.90
780.95	230.83
781.28	230.76
781.60	230.68
781.92	230.59
782.25	230.52
782.57	230.45
782.89	230.41
783.22	230.36
783.54	230.27
783.86	230.22
784.19	230.18
784.51	230.20
784.83	230.11
785.16	230.05
785.48	229.95
785.80	229.93
786.12	229.87
786.45	229.79
786.77	229.75
787.09	229.69
787.42	229.59
787.74	229.56
788.06	229.53
788.38	229.45
788.71	229.40
789.03	229.34
789.35	229.33
789.67	229.27
789.99	229.20
790.32	229.15
790.64	229.11
790.96	229.14
791.28	229.03
791.61	228.95
791.93	228.93
792.25	228.91
792.57	228.88
792.89	228.84
793.21	228.82
793.54	228.81
793.86	228.73
794.18	228.74
794.50	228.65
794.82	228.64
795.14	228.62
795.47	228.59
795.79	228.58
796.11	228.52
796.43	228.47
796.75	228.47
797.07	228.41
797.39	228.34
797.71	228.25
798.04	228.24
798.36	228.23
798.68	228.21
799.00	228.20
799.32	228.13
799.64	228.13
799.96	228.11
800.28	228.06
800.60	228.03
800.92	227.99
801.24	228.01
801.56	227.95
801.89	227.93
802.21	227.90
802.53	227.82
802.85	227.83
803.17	227.84
803.49	227.81
803.81	227.76
804.13	227.75
804.45	227.72
804.77	227.67
805.09	227.64
805.41	227.59
805.73	227.52
806.05	227.49
806.37	227.42
806.69	227.38
807.01	227.35
807.33	227.34
807.65	227.28
807.97	227.30
808.28	227.28
808.60	227.28
808.92	227.27
809.24	227.37
809.56	227.31
809.88	227.24
810.20	227.19
810.52	227.21
810.84	227.14
811.16	227.10
811.48	227.13
811.80	227.12
812.12	227.12
812.43	227.11
812.75	227.09
813.07	227.09
813.39	227.08
813.71	227.05
814.03	227.02
814.35	227.01
814.67	226.96
814.98	226.92
815.30	226.91
815.62	226.86
815.94	226.74
816.26	226.77
816.58	226.74
816.89	226.75
817.21	226.72
817.53	226.72
817.85	226.69
818.17	226.67
818.48	226.63
818.80	226.62
819.12	226.60
819.44	226.56
819.76	226.55
820.07	226.53
820.39	226.51
820.71	226.48
821.03	226.47
821.34	226.45
821.66	226.45
821.98	226.41
822.30	226.38
822.61	226.45
822.93	226.39
823.25	226.39
823.57	226.35
823.88	226.36
824.20	226.33
824.52	226.32
824.83	226.27
825.15	226.23
825.47	226.21
825.79	226.22
826.10	226.21
826.42	226.20
826.74	226.18
827.05	226.19
827.37	226.20
827.69	226.18
828.00	226.15
828.32	226.11
828.64	226.09
828.95	226.16
829.27	226.09
829.58	226.06
829.90	226.07
830.22	226.05
830.53	226.01
830.85	225.98
831.17	225.94
831.48	225.95
831.80	225.94
832.11	225.91
832.43	225.88
832.75	225.88
833.06	225.90
833.38	225.89
833.69	225.86
834.01	225.85
834.32	225.84
834.64	225.84
834.96	225.83
835.27	225.82
835.59	225.76
835.90	225.75
836.22	225.72
836.53	225.71
836.85	225.70
837.16	225.77
837.48	225.82
837.79	225.86
838.11	225.87
838.42	225.89
838.74	225.89
839.05	225.90
839.37	225.87
839.68	225.84
840.00	225.83
840.31	225.83
840.63	225.84
840.94	225.83
841.26	225.83
841.57	225.84
841.88	225.83
842.20	225.80
842.51	225.81
842.83	225.82
843.14	225.88
843.46	225.88
843.77	225.85
844.08	225.81
844.40	225.78
844.71	225.79
845.03	225.77
845.34	225.76
845.65	225.72
845.97	225.75
846.28	225.71
846.60	225.70
846.91	225.70
847.22	225.67
847.54	225.71
847.85	225.70
848.16	225.66
848.48	225.66
848.79	225.70
849.10	225.72
849.42	225.73
849.73	225.64
850.04	225.64
850.36	225.59
850.67	225.63
850.98	225.64
851.30	225.61
851.61	225.61
851.92	225.61
852.23	225.65
852.55	225.61
852.86	225.61
853.17	225.61
853.49	225.62
853.80	225.64
854.11	225.60
854.42	225.61
854.74	225.60
855.05	225.57
855.36	225.50
855.67	225.47
855.99	225.47
856.30	225.56
856.61	225.57
856.92	225.59
857.23	225.56
857.55	225.54
857.86	225.56
858.17	225.59
858.48	225.56
858.79	225.50
859.11	225.56
859.42	225.55
859.73	225.53
860.04	225.52
860.35	225.49
860.66	225.48
860.98	225.46
861.29	225.48
861.60	225.52
861.91	225.58
862.22	225.55
862.53	225.55
862.84	225.44
863.16	225.47
863.47	225.41
863.78	225.41
864.09	225.42
864.40	225.41
864.71	225.37
865.02	225.41
865.33	225.42
865.64	225.41
865.95	225.41
866.27	225.49
866.58	225.49
866.89	225.49
867.20	225.49
867.51	225.45
867.82	225.43
868.13	225.43
868.44	225.40
868.75	225.43
869.06	225.43
869.37	225.45
869.68	225.40
869.99	225.46
870.30	225.46
870.61	225.48
870.92	225.47
871.23	225.48
871.54	225.52
871.85	225.58
872.16	225.59
872.47	225.57
872.78	225.50
873.09	225.50
873.40	225.48
873.71	225.50
874.02	225.52
874.33	225.53
874.64	225.53
874.95	225.58
875.26	225.51
875.56	225.50
875.87	225.48
876.18	225.47
876.49	225.54
876.80	225.52
877.11	225.48
877.42	225.48
877.73	225.47
878.04	225.40
878.35	225.38
878.66	225.36
878.96	225.38
879.27	225.37
879.58	225.36
879.89	225.36
880.20	225.37
880.51	225.37
880.82	225.35
881.12	225.35
881.43	225.30
881.74	225.32
882.05	225.32
882.36	225.33
882.67	225.33
882.97	225.21
883.28	225.21
883.59	225.24
883.90	225.25
884.21	225.27
884.51	225.26
884.82	225.24
885.13	225.19
885.44	225.17
885.74	225.15
886.05	225.13
886.36	225.13
886.67	225.10
886.98	225.12
887.28	225.16
887.59	225.14
887.90	225.11
888.20	225.11
888.51	225.13
888.82	225.13
889.13	225.12
889.43	225.20
889.74	225.18
890.05	225.17
890.35	225.14
890.66	225.07
890.97	225.03
891.28	225.01
891.58	225.05
891.89	225.06
892.20	225.06
892.50	225.08
892.81	225.05
893.12	225.03
893.42	225.03
893.73	224.98
894.04	225.01
894.34	225.02
894.65	225.03
894.95	225.00
895.26	224.99
895.57	225.04
895.87	224.98
896.18	225.02
896.48	224.99
896.79	224.99
897.10	225.04
897.40	225.09
897.71	225.11
898.01	225.09
898.32	225.09
898.63	225.10
898.93	225.09
899.24	225.09
899.54	225.11
899.85	225.07
900.15	225.12
900.46	225.09
900.76	225.12
901.07	225.11
901.38	225.12
901.68	225.12
901.99	225.04
902.29	225.05
902.60	225.01
902.90	225.02
903.21	225.04
903.51	225.05
903.82	225.07
904.12	225.07
904.43	225.10
904.73	225.11
905.03	225.10
905.34	225.20
905.64	225.22
905.95	225.21
906.25	225.24
906.56	225.18
906.86	225.19
907.17	225.17
907.47	225.17
907.77	225.18
908.08	225.17
908.38	225.22
908.69	225.21
908.99	225.20
909.30	225.20
909.60	225.16
909.90	225.17
910.21	225.15
910.51	225.12
910.81	225.09
911.12	225.09
911.42	225.11
911.73	225.01
912.03	224.99
912.33	225.02
912.64	224.99
912.94	225.00
913.24	224.99
913.55	224.98
913.85	224.96
914.15	224.95
914.46	224.97
914.76	224.95
915.06	224.96
915.37	224.99
915.67	225.00
915.97	225.01
916.27	224.96
916.58	224.95
916.88	224.96
917.18	224.94
917.49	225.00
917.79	224.99
918.09	225.02
918.39	225.05
918.70	225.01
919.00	225.03
919.30	225.09
919.60	225.09
919.91	225.07
920.21	225.06
920.51	225.05
920.81	225.06
921.12	225.05
921.42	225.02
921.72	225.01
922.02	225.02
922.32	225.03
922.63	225.05
922.93	225.10
923.23	225.07
923.53	225.08
923.83	225.00
924.13	224.97
924.44	224.96
924.74	224.97
925.04	224.99
925.34	224.96
925.64	224.89
925.94	224.90
926.24	224.97
926.55	224.96
926.85	224.97
927.15	224.95
927.45	224.93
927.75	224.97
928.05	224.95
928.35	224.91
928.65	224.92
928.95	224.94
929.26	224.90
929.56	224.92
929.86	224.93
930.16	224.91
930.46	224.91
930.76	224.89
931.06	224.84
931.36	224.82
931.66	224.84
931.96	224.85
932.26	224.84
932.56	224.79
932.86	224.80
933.16	224.78
933.46	224.78
933.76	224.82
934.06	224.82
934.36	224.87
934.66	224.88
934.96	224.90
935.26	224.84
935.56	224.85
935.86	224.83
936.16	224.80
936.46	224.82
936.76	224.81
937.06	224.81
937.36	224.84
937.66	224.87
937.96	224.86
938.26	224.83
938.56	224.84
938.86	224.85
939.16	224.87
939.46	224.93
939.76	224.96
940.06	224.93
940.35	224.93
940.65	224.88
940.95	224.92
941.25	224.90
941.55	224.93
941.85	224.94
942.15	224.96
942.45	225.01
942.75	225.03
943.04	225.04
943.34	225.06
943.64	225.02
943.94	225.02
944.24	224.98
944.54	225.02
944.84	225.04
945.13	225.02
945.43	225.02
945.73	225.00
946.03	224.97
946.33	224.96
946.62	224.93
946.92	224.93
947.22	224.91
947.52	224.93
947.82	224.95
948.11	224.92
948.41	224.92
948.71	224.89
949.01	224.89
949.31	224.90
949.60	224.90
949.90	224.96
950.20	224.95
950.50	225.01
950.79	225.03
951.09	225.03
951.39	225.03
951.69	225.00
951.98	225.00
952.28	224.99
952.58	225.00
952.87	224.99
953.17	225.03
953.47	225.04
953.76	225.00
954.06	224.98
954.36	224.97
954.66	224.97
954.95	224.97
955.25	224.98
955.55	225.03
955.84	225.02
956.14	225.01
956.44	225.02
956.73	224.98
957.03	225.00
957.32	224.97
957.62	224.96
957.92	224.95
958.21	224.96
958.51	225.04
958.81	225.06
959.10	225.06
959.40	225.05
959.69	225.05
959.99	225.09
960.29	225.10
960.58	225.08
960.88	225.10
961.17	225.10
961.47	225.12
961.76	225.07
962.06	225.08
962.36	225.07
962.65	225.05
962.95	225.06
963.24	224.99
963.54	225.02
963.83	225.05
964.13	225.07
964.42	225.08
964.72	225.02
965.01	225.03
965.31	225.04
965.60	225.04
965.90	225.08
966.19	225.04
966.49	225.03
966.78	225.07
967.08	225.03
967.37	225.02
967.67	225.01
967.96	225.04
968.26	225.03
968.55	225.07
968.85	225.05
969.14	225.05
969.43	225.06
969.73	225.04
970.02	225.04
970.32	225.00
970.61	224.99
970.91	224.97
971.20	224.94
971.49	224.92
971.79	224.94
972.08	224.90
972.38	224.95
972.67	224.95
972.96	224.98
973.26	224.99
973.55	225.03
973.85	225.03
974.14	224.99
974.43	225.04
974.73	224.95
975.02	224.96
975.31	224.96
975.61	224.99
975.90	224.99
976.19	224.98
976.49	225.03
976.78	225.01
977.07	225.02
977.37	225.02
977.66	225.03
977.95	225.01
978.24	225.04
978.54	225.04
978.83	225.02
979.12	224.99
979.42	225.01
979.71	224.99
980.00	224.95
980.29	224.97
980.59	224.90
980.88	224.98
981.17	224.98
981.46	224.98
981.76	224.99
982.05	225.00
982.34	225.00
982.63	224.98
982.93	225.00
983.22	225.01
983.51	225.05
983.80	225.07
984.09	225.09
984.39	225.08
984.68	225.05
984.97	225.11
985.26	225.12
985.55	225.11
985.85	225.10
986.14	225.13
986.43	225.15
986.72	225.16
987.01	225.09
987.30	225.10
987.59	225.09
987.89	225.09
988.18	225.06
988.47	225.04
988.76	225.01
989.05	224.94
989.34	224.95
989.63	224.94
989.92	224.92
990.22	224.89
990.51	224.89
990.80	224.90
991.09	224.86
991.38	224.89
991.67	224.86
991.96	224.84
992.25	224.86
992.54	224.84
992.83	224.85
993.12	224.89
993.41	224.89
993.70	224.93
993.99	224.95
994.28	225.01
994.58	225.03
994.87	225.05
995.16	225.11
995.45	225.05
995.74	225.00
996.03	225.01
996.32	225.04
996.61	225.02
996.90	225.02
997.19	224.99
997.48	225.00
997.77	224.99
998.06	224.99
998.34	224.98
998.63	224.97
998.92	224.99
999.21	224.96
999.50	224.97
999.79	224.93
1000.08	224.91
1000.37	224.88
1000.66	224.87
1000.95	224.85
1001.24	224.85
1001.53	224.86
1001.82	224.88
1002.11	224.80
1002.40	224.79
1002.68	224.82
1002.97	224.88
1003.26	224.89
1003.55	224.86
1003.84	224.84
1004.13	224.87
1004.42	224.84
1004.71	224.83
1004.99	224.78
1005.28	224.82
1005.57	224.79
1005.86	224.78
1006.15	224.76
1006.44	224.73
1006.72	224.73
1007.01	224.73
1007.30	224.75
1007.59	224.77
1007.88	224.80
1008.17	224.82
1008.45	224.80
1008.74	224.78
1009.03	224.74
1009.32	224.73
1009.60	224.72
1009.89	224.74
1010.18	224.74
1010.47	224.75
1010.76	224.76
1011.04	224.80
1011.33	224.80
1011.62	224.83
1011.91	224.85
1012.19	224.86
1012.48	224.90
1012.77	224.91
1013.05	224.94
1013.34	224.91
1013.63	224.91
1013.92	224.90
1014.20	224.92
1014.49	224.94
1014.78	224.96
1015.06	224.95
1015.35	224.97
1015.64	224.98
1015.92	224.99
1016.21	224.96
1016.50	224.95
1016.78	224.97
1017.07	224.96
1017.36	224.93
1017.64	224.92
1017.93	224.90
1018.22	224.85
1018.50	224.82
1018.79	224.79
1019.08	224.76
1019.36	224.79
1019.65	224.77
1019.93	224.76
1020.22	224.75
1020.51	224.75
1020.79	224.70
1021.08	223.81
1021.36	224.35
1021.65	224.39
1021.94	224.73
1022.22	225.24
1022.51	224.26
1022.79	224.71
1023.08	224.35
1023.36	225.33
1023.65	224.24
>>>>>End Processed Spectral Data<<<<<
