SpectraSuite Data File
++++++++++++++++++++++++++++++++++++
Date: Fri Feb 01 16:20:23 EST 2013
User: group
Dark Spectrum Present: No
Reference Spectrum Present: No
Number of Sampled Component Spectra: 1
Spectrometers: USB2E7196
Integration Time (usec): 35000 (USB2E7196)
Spectra Averaged: 100 (USB2E7196)
Boxcar Smoothing: 10 (USB2E7196)
Correct for Electrical Dark: No (USB2E7196)
Strobe/Lamp Enabled: No (USB2E7196)
Correct for Detector Non-linearity: No (USB2E7196)
Correct for Stray Light: No (USB2E7196)
Number of Pixels in Processed Spectrum: 2048
>>>>>Begin Processed Spectral Data<<<<<
339.09	0.00
339.48	214.46
339.86	215.95
340.24	217.37
340.63	218.30
341.01	221.53
341.39	221.20
341.78	222.83
342.16	223.53
342.54	224.09
342.93	212.63
343.31	223.42
343.69	223.99
344.07	224.43
344.46	224.85
344.84	225.25
345.22	225.49
345.60	225.74
345.99	225.90
346.37	226.07
346.75	226.16
347.13	226.22
347.52	226.26
347.90	226.31
348.28	226.35
348.66	226.41
349.05	226.43
349.43	226.44
349.81	226.51
350.19	226.59
350.57	226.64
350.96	226.72
351.34	226.77
351.72	226.81
352.10	226.92
352.48	226.97
352.87	227.02
353.25	227.07
353.63	227.13
354.01	227.19
354.39	227.21
354.77	227.29
355.15	227.37
355.54	227.44
355.92	227.46
356.30	227.52
356.68	227.65
357.06	227.74
357.44	227.77
357.82	227.83
358.20	227.89
358.58	227.91
358.97	227.94
359.35	227.98
359.73	228.06
360.11	228.09
360.49	228.18
360.87	228.19
361.25	228.24
361.63	228.31
362.01	228.36
362.39	228.39
362.77	228.44
363.15	228.47
363.53	228.48
363.91	228.52
364.29	228.52
364.67	228.42
365.05	228.40
365.43	228.40
365.81	228.40
366.19	228.43
366.57	228.50
366.95	228.47
367.33	228.45
367.71	228.44
368.09	228.46
368.47	228.38
368.85	228.39
369.23	228.38
369.61	228.31
369.99	228.31
370.37	228.33
370.75	228.34
371.13	228.30
371.51	228.27
371.89	228.22
372.27	228.20
372.65	228.18
373.03	228.13
373.41	228.08
373.78	228.05
374.16	227.93
374.54	227.82
374.92	227.77
375.30	227.73
375.68	227.62
376.06	227.55
376.44	227.50
376.82	227.45
377.19	227.36
377.57	227.28
377.95	227.17
378.33	227.09
378.71	226.97
379.09	226.91
379.47	226.83
379.84	226.75
380.22	226.67
380.60	226.55
380.98	226.47
381.36	226.41
381.73	226.31
382.11	226.30
382.49	226.25
382.87	226.19
383.25	226.15
383.62	226.19
384.00	226.13
384.38	226.07
384.76	226.01
385.13	226.02
385.51	226.00
385.89	225.94
386.27	225.88
386.64	225.86
387.02	225.80
387.40	225.78
387.78	225.77
388.15	225.77
388.53	225.80
388.91	225.77
389.29	225.74
389.66	225.76
390.04	225.69
390.42	225.68
390.79	225.67
391.17	225.65
391.55	225.56
391.92	225.55
392.30	225.56
392.68	225.53
393.05	225.51
393.43	225.48
393.81	225.50
394.18	225.49
394.56	225.50
394.94	225.52
395.31	225.53
395.69	225.59
396.06	225.61
396.44	225.60
396.82	225.63
397.19	225.72
397.57	225.75
397.95	225.82
398.32	225.83
398.70	225.90
399.07	225.96
399.45	225.98
399.82	226.07
400.20	226.13
400.58	226.20
400.95	226.25
401.33	226.32
401.70	226.50
402.08	226.60
402.45	226.67
402.83	226.81
403.20	226.90
403.58	226.97
403.95	227.07
404.33	227.20
404.71	227.35
405.08	227.48
405.46	227.60
405.83	227.74
406.21	227.92
406.58	228.06
406.96	228.21
407.33	228.41
407.70	228.59
408.08	228.88
408.45	229.10
408.83	229.34
409.20	229.58
409.58	229.72
409.95	229.99
410.33	230.26
410.70	230.49
411.08	230.77
411.45	231.06
411.82	231.39
412.20	231.72
412.57	232.13
412.95	232.44
413.32	232.84
413.69	233.24
414.07	233.68
414.44	234.14
414.82	234.63
415.19	235.17
415.56	235.70
415.94	236.23
416.31	236.86
416.68	237.46
417.06	238.18
417.43	238.86
417.81	239.64
418.18	240.43
418.55	241.29
418.93	242.19
419.30	243.11
419.67	244.04
420.04	245.01
420.42	246.01
420.79	247.21
421.16	248.41
421.54	249.61
421.91	250.84
422.28	252.11
422.66	253.45
423.03	254.77
423.40	256.08
423.77	257.46
424.15	258.88
424.52	260.37
424.89	261.99
425.26	263.57
425.64	265.03
426.01	266.61
426.38	268.22
426.75	269.91
427.13	271.64
427.50	273.43
427.87	275.27
428.24	277.12
428.61	278.85
428.99	280.73
429.36	282.85
429.73	284.92
430.10	286.94
430.47	288.98
430.85	291.10
431.22	293.38
431.59	295.77
431.96	298.02
432.33	300.52
432.70	302.87
433.08	305.66
433.45	308.29
433.82	310.92
434.19	313.81
434.56	316.58
434.93	319.22
435.30	321.83
435.68	324.74
436.05	327.53
436.42	330.34
436.79	332.87
437.16	335.55
437.53	338.35
437.90	341.14
438.27	343.87
438.64	346.72
439.01	349.24
439.38	351.51
439.75	353.70
440.13	356.16
440.50	358.51
440.87	360.35
441.24	362.27
441.61	364.42
441.98	365.95
442.35	367.74
442.72	369.62
443.09	371.39
443.46	372.41
443.83	373.05
444.20	373.54
444.57	374.38
444.94	374.65
445.31	375.00
445.68	375.36
446.05	375.43
446.42	375.03
446.79	374.67
447.16	374.19
447.53	373.90
447.90	372.77
448.27	371.60
448.64	370.02
449.01	368.87
449.37	366.88
449.74	364.96
450.11	362.74
450.48	360.25
450.85	357.76
451.22	355.55
451.59	353.50
451.96	351.55
452.33	348.94
452.70	346.60
453.07	343.75
453.43	340.87
453.80	338.07
454.17	335.39
454.54	332.83
454.91	330.09
455.28	327.36
455.65	324.87
456.02	322.46
456.38	320.29
456.75	317.64
457.12	315.42
457.49	313.18
457.86	311.04
458.23	309.21
458.59	307.19
458.96	305.15
459.33	303.32
459.70	301.47
460.07	299.96
460.43	298.24
460.80	296.64
461.17	295.18
461.54	293.72
461.91	292.28
462.27	290.84
462.64	289.62
463.01	288.27
463.38	286.94
463.74	285.52
464.11	284.39
464.48	283.36
464.85	282.24
465.21	281.42
465.58	280.45
465.95	279.32
466.32	278.40
466.68	277.53
467.05	276.62
467.42	275.72
467.78	274.81
468.15	273.96
468.52	273.32
468.88	272.50
469.25	271.71
469.62	271.10
469.98	270.43
470.35	269.79
470.72	269.19
471.08	268.58
471.45	268.07
471.82	267.53
472.18	266.95
472.55	266.53
472.92	266.02
473.28	265.63
473.65	265.21
474.02	264.83
474.38	264.46
474.75	264.16
475.11	263.85
475.48	263.61
475.85	263.39
476.21	263.11
476.58	262.95
476.94	262.84
477.31	262.71
477.67	262.58
478.04	262.53
478.41	262.52
478.77	262.57
479.14	262.51
479.50	262.51
479.87	262.59
480.23	262.67
480.60	262.73
480.96	262.79
481.33	263.00
481.69	263.18
482.06	263.36
482.42	263.55
482.79	263.81
483.15	264.14
483.52	264.50
483.88	264.90
484.25	265.26
484.61	265.72
484.98	266.20
485.34	266.76
485.71	267.32
486.07	267.90
486.44	268.47
486.80	269.17
487.17	269.93
487.53	270.79
487.90	271.67
488.26	272.60
488.62	273.64
488.99	274.60
489.35	275.69
489.72	276.82
490.08	278.06
490.44	279.29
490.81	280.60
491.17	281.96
491.54	283.46
491.90	284.99
492.26	286.59
492.63	288.32
492.99	290.08
493.36	291.99
493.72	294.00
494.08	296.10
494.45	298.34
494.81	300.68
495.17	303.08
495.54	305.60
495.90	308.27
496.26	311.03
496.63	313.96
496.99	317.03
497.35	320.25
497.72	323.64
498.08	327.15
498.44	330.83
498.80	334.74
499.17	338.80
499.53	343.01
499.89	347.44
500.26	351.91
500.62	356.61
500.98	361.62
501.34	366.73
501.71	372.06
502.07	377.47
502.43	383.09
502.79	388.94
503.16	395.05
503.52	401.33
503.88	407.78
504.24	414.48
504.60	421.35
504.97	428.49
505.33	435.79
505.69	443.50
506.05	451.29
506.41	459.18
506.78	467.34
507.14	475.77
507.50	484.46
507.86	493.51
508.22	502.69
508.59	511.86
508.95	521.49
509.31	531.27
509.67	541.38
510.03	551.70
510.39	562.24
510.75	573.00
511.12	583.92
511.48	595.25
511.84	606.75
512.20	618.36
512.56	630.25
512.92	642.46
513.28	654.80
513.64	667.27
514.00	679.99
514.37	692.90
514.73	706.03
515.09	719.09
515.45	732.39
515.81	745.93
516.17	759.96
516.53	774.01
516.89	788.14
517.25	802.37
517.61	816.70
517.97	831.17
518.33	845.65
518.69	860.42
519.05	875.31
519.41	890.43
519.77	905.90
520.13	921.39
520.49	936.77
520.85	952.18
521.21	967.91
521.57	984.13
521.93	999.79
522.29	1016.07
522.65	1032.27
523.01	1048.38
523.37	1064.49
523.73	1080.67
524.09	1096.79
524.45	1113.22
524.81	1129.80
525.17	1146.64
525.53	1163.51
525.89	1180.37
526.25	1197.15
526.61	1213.53
526.97	1230.25
527.33	1246.71
527.68	1263.27
528.04	1279.68
528.40	1296.16
528.76	1313.14
529.12	1329.66
529.48	1346.61
529.84	1362.60
530.20	1379.15
530.56	1396.13
530.91	1413.38
531.27	1430.07
531.63	1446.40
531.99	1462.78
532.35	1478.68
532.71	1494.47
533.07	1510.64
533.42	1526.39
533.78	1542.42
534.14	1558.64
534.50	1573.99
534.86	1589.79
535.21	1604.93
535.57	1620.76
535.93	1636.23
536.29	1650.97
536.65	1665.82
537.00	1680.50
537.36	1695.70
537.72	1710.12
538.08	1724.57
538.44	1738.26
538.79	1751.88
539.15	1765.53
539.51	1779.21
539.87	1793.42
540.22	1807.05
540.58	1820.73
540.94	1833.99
541.29	1846.75
541.65	1859.29
542.01	1872.37
542.37	1884.68
542.72	1896.86
543.08	1908.53
543.44	1920.80
543.79	1932.06
544.15	1943.10
544.51	1954.58
544.87	1965.56
545.22	1976.37
545.58	1986.37
545.94	1996.10
546.29	2005.89
546.65	2015.68
547.01	2024.89
547.36	2033.67
547.72	2042.03
548.07	2049.76
548.43	2057.96
548.79	2065.98
549.14	2073.54
549.50	2080.78
549.86	2088.22
550.21	2095.60
550.57	2102.75
550.92	2109.30
551.28	2116.20
551.64	2123.26
551.99	2129.69
552.35	2135.72
552.70	2141.87
553.06	2147.94
553.41	2154.30
553.77	2160.33
554.13	2166.37
554.48	2172.52
554.84	2177.83
555.19	2183.18
555.55	2188.37
555.90	2192.76
556.26	2197.65
556.61	2202.38
556.97	2206.72
557.32	2210.93
557.68	2215.18
558.03	2219.49
558.39	2223.16
558.74	2227.71
559.10	2231.66
559.45	2235.53
559.81	2239.68
560.16	2243.48
560.52	2246.84
560.87	2250.25
561.23	2253.04
561.58	2255.88
561.94	2258.39
562.29	2260.78
562.64	2263.47
563.00	2266.14
563.35	2269.64
563.71	2272.77
564.06	2276.06
564.42	2278.82
564.77	2281.35
565.12	2283.57
565.48	2285.54
565.83	2287.57
566.19	2288.93
566.54	2289.80
566.89	2290.75
567.25	2291.60
567.60	2292.79
567.96	2294.39
568.31	2295.25
568.66	2296.39
569.02	2297.02
569.37	2297.32
569.72	2298.40
570.08	2298.52
570.43	2298.56
570.78	2298.02
571.14	2296.40
571.49	2295.00
571.84	2294.75
572.20	2293.65
572.55	2292.67
572.90	2291.14
573.26	2289.86
573.61	2288.28
573.96	2286.48
574.31	2283.68
574.67	2280.75
575.02	2277.38
575.37	2273.99
575.72	2270.32
576.08	2266.95
576.43	2263.83
576.78	2260.24
577.13	2256.95
577.49	2254.05
577.84	2250.42
578.19	2246.86
578.54	2243.44
578.90	2239.26
579.25	2233.72
579.60	2228.74
579.95	2223.79
580.30	2218.83
580.66	2213.60
581.01	2208.64
581.36	2203.86
581.71	2199.61
582.06	2195.14
582.42	2190.59
582.77	2185.54
583.12	2180.90
583.47	2176.17
583.82	2171.09
584.17	2166.00
584.53	2160.59
584.88	2154.93
585.23	2149.42
585.58	2144.00
585.93	2138.53
586.28	2133.79
586.63	2128.78
586.98	2123.91
587.34	2119.16
587.69	2114.32
588.04	2109.04
588.39	2103.51
588.74	2097.09
589.09	2091.02
589.44	2084.32
589.79	2078.44
590.14	2072.72
590.49	2066.30
590.84	2060.04
591.19	2054.04
591.54	2047.52
591.89	2040.14
592.25	2033.31
592.60	2026.11
592.95	2018.52
593.30	2011.24
593.65	2003.66
594.00	1996.68
594.35	1989.31
594.70	1981.28
595.05	1974.09
595.40	1966.90
595.75	1959.32
596.10	1953.31
596.45	1946.66
596.80	1940.51
597.15	1934.00
597.50	1926.99
597.85	1920.46
598.19	1913.87
598.54	1906.76
598.89	1900.27
599.24	1894.32
599.59	1887.79
599.94	1881.62
600.29	1875.35
600.64	1868.67
600.99	1861.32
601.34	1854.59
601.69	1847.85
602.04	1841.10
602.39	1833.78
602.74	1826.98
603.08	1820.26
603.43	1813.38
603.78	1806.04
604.13	1798.81
604.48	1791.32
604.83	1784.46
605.18	1777.67
605.53	1769.66
605.87	1761.83
606.22	1754.56
606.57	1746.72
606.92	1739.38
607.27	1732.12
607.62	1725.14
607.96	1718.05
608.31	1711.44
608.66	1703.72
609.01	1696.09
609.36	1688.53
609.70	1680.56
610.05	1672.42
610.40	1664.78
610.75	1656.41
611.10	1648.76
611.44	1640.36
611.79	1632.45
612.14	1623.71
612.49	1614.49
612.83	1606.07
613.18	1597.98
613.53	1589.78
613.88	1581.17
614.22	1572.91
614.57	1564.41
614.92	1556.36
615.27	1548.70
615.61	1540.40
615.96	1532.44
616.31	1524.77
616.65	1517.52
617.00	1509.98
617.35	1502.42
617.70	1494.02
618.04	1485.60
618.39	1477.36
618.74	1469.74
619.08	1461.49
619.43	1453.93
619.78	1447.11
620.12	1439.98
620.47	1432.43
620.82	1424.24
621.16	1416.93
621.51	1409.30
621.85	1401.65
622.20	1393.17
622.55	1384.92
622.89	1377.04
623.24	1369.34
623.59	1361.94
623.93	1354.26
624.28	1346.91
624.62	1339.34
624.97	1332.15
625.32	1325.41
625.66	1318.45
626.01	1311.31
626.35	1303.78
626.70	1296.07
627.04	1288.24
627.39	1280.41
627.73	1272.92
628.08	1266.14
628.43	1258.86
628.77	1251.52
629.12	1243.97
629.46	1236.82
629.81	1229.26
630.15	1221.95
630.50	1214.60
630.84	1206.46
631.19	1198.60
631.53	1191.15
631.88	1183.57
632.22	1176.01
632.57	1168.57
632.91	1161.01
633.26	1153.61
633.60	1146.16
633.95	1139.07
634.29	1131.94
634.64	1125.29
634.98	1117.94
635.32	1110.73
635.67	1104.15
636.01	1097.47
636.36	1090.56
636.70	1083.99
637.05	1077.47
637.39	1070.94
637.73	1064.39
638.08	1058.43
638.42	1052.34
638.77	1045.83
639.11	1039.22
639.45	1032.83
639.80	1026.15
640.14	1019.75
640.49	1013.23
640.83	1007.00
641.17	1000.75
641.52	994.42
641.86	987.93
642.20	982.09
642.55	975.77
642.89	969.31
643.23	962.75
643.58	957.03
643.92	950.83
644.26	944.74
644.61	938.79
644.95	932.70
645.29	926.11
645.64	919.42
645.98	913.19
646.32	907.36
646.66	901.25
647.01	895.52
647.35	889.77
647.69	883.79
648.04	878.26
648.38	872.43
648.72	866.45
649.06	860.42
649.41	854.50
649.75	848.52
650.09	842.50
650.43	836.75
650.78	830.58
651.12	824.58
651.46	818.79
651.80	813.00
652.14	807.68
652.49	802.36
652.83	797.25
653.17	791.42
653.51	785.73
653.85	780.33
654.20	774.69
654.54	768.64
654.88	762.98
655.22	757.06
655.56	751.38
655.90	745.95
656.25	740.70
656.59	735.31
656.93	730.27
657.27	725.18
657.61	719.72
657.95	714.64
658.29	709.60
658.64	704.43
658.98	699.16
659.32	693.69
659.66	688.46
660.00	683.05
660.34	678.17
660.68	673.22
661.02	668.24
661.36	663.53
661.70	659.03
662.05	654.61
662.39	650.28
662.73	645.78
663.07	641.44
663.41	636.99
663.75	632.49
664.09	627.86
664.43	623.41
664.77	619.29
665.11	615.02
665.45	610.87
665.79	606.76
666.13	602.68
666.47	598.59
666.81	594.42
667.15	590.29
667.49	586.43
667.83	582.63
668.17	578.66
668.51	574.55
668.85	570.53
669.19	566.71
669.53	562.92
669.87	559.07
670.21	555.36
670.55	551.71
670.89	548.33
671.23	544.90
671.57	541.35
671.91	537.76
672.25	534.27
672.58	530.65
672.92	527.25
673.26	524.06
673.60	520.86
673.94	517.79
674.28	514.91
674.62	511.92
674.96	508.78
675.30	505.91
675.64	503.00
675.97	500.26
676.31	497.38
676.65	494.38
676.99	491.66
677.33	488.79
677.67	485.95
678.01	482.92
678.34	479.96
678.68	477.11
679.02	474.34
679.36	471.59
679.70	468.93
680.04	466.13
680.37	463.16
680.71	460.39
681.05	457.72
681.39	454.99
681.73	452.31
682.06	449.82
682.40	447.25
682.74	444.72
683.08	442.14
683.42	439.56
683.75	437.09
684.09	434.52
684.43	432.05
684.77	429.56
685.10	427.20
685.44	424.89
685.78	422.60
686.12	420.30
686.45	418.03
686.79	415.73
687.13	413.59
687.46	411.42
687.80	409.30
688.14	407.05
688.48	404.99
688.81	402.73
689.15	400.51
689.49	398.35
689.82	396.29
690.16	394.20
690.50	392.24
690.83	390.26
691.17	388.27
691.51	386.31
691.84	384.48
692.18	382.52
692.52	380.51
692.85	378.53
693.19	376.66
693.52	374.78
693.86	372.96
694.20	371.15
694.53	369.38
694.87	367.51
695.21	365.75
695.54	363.89
695.88	362.15
696.21	360.43
696.55	358.78
696.88	357.03
697.22	355.38
697.56	353.74
697.89	352.11
698.23	350.50
698.56	348.86
698.90	347.24
699.23	345.60
699.57	344.04
699.90	342.50
700.24	340.95
700.58	339.42
700.91	337.89
701.25	336.47
701.58	335.12
701.92	333.75
702.25	332.38
702.59	331.03
702.92	329.68
703.26	328.39
703.59	327.06
703.93	325.87
704.26	324.55
704.60	323.23
704.93	321.97
705.26	320.69
705.60	319.53
705.93	318.41
706.27	317.34
706.60	316.31
706.94	315.26
707.27	314.15
707.61	313.13
707.94	312.12
708.27	311.02
708.61	309.91
708.94	308.94
709.28	307.97
709.61	307.00
709.94	306.08
710.28	305.10
710.61	304.12
710.95	303.04
711.28	302.16
711.61	301.24
711.95	300.31
712.28	299.39
712.61	298.40
712.95	297.47
713.28	296.61
713.61	295.69
713.95	294.79
714.28	293.92
714.61	293.02
714.95	292.23
715.28	291.38
715.61	290.49
715.95	289.58
716.28	288.73
716.61	287.90
716.95	287.09
717.28	286.31
717.61	285.57
717.94	284.89
718.28	284.08
718.61	283.35
718.94	282.64
719.27	281.97
719.61	281.32
719.94	280.67
720.27	279.91
720.60	279.24
720.94	278.60
721.27	278.00
721.60	277.46
721.93	276.83
722.27	276.30
722.60	275.78
722.93	275.22
723.26	274.66
723.59	274.12
723.93	273.55
724.26	273.01
724.59	272.45
724.92	271.93
725.25	271.44
725.59	270.93
725.92	270.46
726.25	270.00
726.58	269.52
726.91	269.02
727.24	268.56
727.57	268.12
727.91	267.64
728.24	267.13
728.57	266.60
728.90	266.16
729.23	265.62
729.56	265.18
729.89	264.70
730.22	264.21
730.55	263.73
730.89	263.32
731.22	262.85
731.55	262.40
731.88	261.96
732.21	261.55
732.54	261.12
732.87	260.66
733.20	260.23
733.53	259.84
733.86	259.46
734.19	259.08
734.52	258.69
734.85	258.38
735.18	258.03
735.51	257.69
735.84	257.32
736.17	256.97
736.50	256.55
736.83	256.31
737.16	255.96
737.49	255.62
737.82	255.28
738.15	254.99
738.48	254.68
738.81	254.34
739.14	253.99
739.47	253.68
739.80	253.35
740.13	253.07
740.46	252.74
740.79	252.40
741.12	252.09
741.45	251.78
741.78	251.42
742.11	251.11
742.44	250.76
742.77	250.44
743.10	250.16
743.43	249.88
743.75	249.48
744.08	249.39
744.41	249.11
744.74	248.81
745.07	248.51
745.40	248.22
745.73	247.98
746.06	247.73
746.39	247.48
746.71	247.22
747.04	246.90
747.37	246.68
747.70	246.44
748.03	246.20
748.36	245.98
748.68	245.75
749.01	245.49
749.34	245.28
749.67	245.07
750.00	244.86
750.33	244.70
750.65	244.54
750.98	244.17
751.31	243.95
751.64	243.73
751.97	243.55
752.29	243.34
752.62	243.12
752.95	242.89
753.28	242.64
753.60	242.45
753.93	242.30
754.26	242.06
754.59	241.86
754.91	241.67
755.24	241.45
755.57	241.21
755.90	241.03
756.22	240.82
756.55	240.61
756.88	240.41
757.20	240.19
757.53	239.92
757.86	239.77
758.19	239.65
758.51	239.50
758.84	239.31
759.17	239.15
759.49	238.95
759.82	238.85
760.15	238.71
760.47	238.56
760.80	238.40
761.13	238.26
761.45	238.06
761.78	237.89
762.11	237.76
762.43	237.62
762.76	237.51
763.08	237.39
763.41	237.26
763.74	237.09
764.06	236.96
764.39	236.85
764.71	236.67
765.04	236.49
765.37	236.34
765.69	236.22
766.02	236.07
766.34	235.96
766.67	235.80
767.00	235.69
767.32	235.64
767.65	235.57
767.97	235.50
768.30	235.42
768.62	235.31
768.95	235.19
769.27	235.08
769.60	234.98
769.92	234.85
770.25	234.73
770.57	234.61
770.90	234.52
771.22	234.42
771.55	234.34
771.87	234.28
772.20	234.18
772.52	234.17
772.85	234.23
773.17	234.13
773.50	234.04
773.82	233.94
774.15	233.82
774.47	233.65
774.80	233.55
775.12	233.48
775.45	233.40
775.77	233.33
776.09	233.25
776.42	233.16
776.74	233.14
777.07	233.07
777.39	233.03
777.72	232.96
778.04	232.92
778.36	232.83
778.69	232.75
779.01	232.68
779.33	232.53
779.66	232.34
779.98	232.29
780.31	232.26
780.63	232.24
780.95	232.18
781.28	232.12
781.60	232.05
781.92	231.96
782.25	231.88
782.57	231.80
782.89	231.75
783.22	231.70
783.54	231.63
783.86	231.60
784.19	231.51
784.51	231.47
784.83	231.41
785.16	231.33
785.48	231.26
785.80	231.19
786.12	231.14
786.45	231.07
786.77	231.02
787.09	230.92
787.42	230.88
787.74	230.84
788.06	230.79
788.38	230.76
788.71	230.76
789.03	230.71
789.35	230.69
789.67	230.63
789.99	230.59
790.32	230.51
790.64	230.43
790.96	230.49
791.28	230.40
791.61	230.35
791.93	230.36
792.25	230.32
792.57	230.35
792.89	230.28
793.21	230.28
793.54	230.22
793.86	230.19
794.18	230.10
794.50	230.01
794.82	229.96
795.14	229.92
795.47	229.83
795.79	229.81
796.11	229.76
796.43	229.72
796.75	229.68
797.07	229.69
797.39	229.65
797.71	229.54
798.04	229.52
798.36	229.47
798.68	229.42
799.00	229.43
799.32	229.38
799.64	229.39
799.96	229.30
800.28	229.26
800.60	229.22
800.92	229.22
801.24	229.21
801.56	229.19
801.89	229.18
802.21	229.16
802.53	229.13
802.85	229.09
803.17	229.14
803.49	229.09
803.81	229.05
804.13	229.01
804.45	229.00
804.77	228.98
805.09	228.97
805.41	228.94
805.73	228.87
806.05	228.80
806.37	228.80
806.69	228.78
807.01	228.78
807.33	228.77
807.65	228.71
807.97	228.71
808.28	228.68
808.60	228.66
808.92	228.64
809.24	228.68
809.56	228.68
809.88	228.60
810.20	228.59
810.52	228.56
810.84	228.54
811.16	228.52
811.48	228.52
811.80	228.54
812.12	228.51
812.43	228.52
812.75	228.49
813.07	228.46
813.39	228.46
813.71	228.40
814.03	228.37
814.35	228.35
814.67	228.32
814.98	228.28
815.30	228.23
815.62	228.19
815.94	228.12
816.26	228.14
816.58	228.11
816.89	228.11
817.21	228.08
817.53	228.08
817.85	228.04
818.17	227.99
818.48	227.94
818.80	227.94
819.12	227.93
819.44	227.92
819.76	227.91
820.07	227.89
820.39	227.88
820.71	227.91
821.03	227.91
821.34	227.91
821.66	227.91
821.98	227.94
822.30	227.91
822.61	227.95
822.93	227.91
823.25	227.88
823.57	227.85
823.88	227.86
824.20	227.80
824.52	227.81
824.83	227.78
825.15	227.77
825.47	227.75
825.79	227.73
826.10	227.72
826.42	227.66
826.74	227.64
827.05	227.65
827.37	227.61
827.69	227.58
828.00	227.54
828.32	227.53
828.64	227.44
828.95	227.50
829.27	227.46
829.58	227.44
829.90	227.45
830.22	227.42
830.53	227.38
830.85	227.41
831.17	227.36
831.48	227.34
831.80	227.31
832.11	227.29
832.43	227.25
832.75	227.22
833.06	227.28
833.38	227.25
833.69	227.20
834.01	227.19
834.32	227.16
834.64	227.14
834.96	227.12
835.27	227.11
835.59	227.07
835.90	227.04
836.22	227.01
836.53	226.98
836.85	226.98
837.16	227.07
837.48	227.04
837.79	227.07
838.11	227.12
838.42	227.12
838.74	227.11
839.05	227.09
839.37	227.10
839.68	227.04
840.00	227.03
840.31	227.02
840.63	227.01
840.94	227.00
841.26	227.00
841.57	227.01
841.88	227.06
842.20	227.03
842.51	227.00
842.83	226.97
843.14	227.07
843.46	227.06
843.77	226.99
844.08	226.97
844.40	226.93
844.71	226.90
845.03	226.85
845.34	226.84
845.65	226.84
845.97	226.84
846.28	226.83
846.60	226.85
846.91	226.85
847.22	226.84
847.54	226.81
847.85	226.82
848.16	226.79
848.48	226.77
848.79	226.84
849.10	226.86
849.42	226.88
849.73	226.77
850.04	226.75
850.36	226.73
850.67	226.73
850.98	226.73
851.30	226.72
851.61	226.76
851.92	226.79
852.23	226.82
852.55	226.81
852.86	226.82
853.17	226.82
853.49	226.87
853.80	226.90
854.11	226.96
854.42	226.92
854.74	226.90
855.05	226.90
855.36	226.80
855.67	226.79
855.99	226.80
856.30	226.90
856.61	226.93
856.92	226.90
857.23	226.92
857.55	226.88
857.86	226.87
858.17	226.85
858.48	226.82
858.79	226.78
859.11	226.77
859.42	226.80
859.73	226.79
860.04	226.74
860.35	226.70
860.66	226.64
860.98	226.67
861.29	226.66
861.60	226.64
861.91	226.66
862.22	226.66
862.53	226.61
862.84	226.50
863.16	226.48
863.47	226.44
863.78	226.43
864.09	226.49
864.40	226.48
864.71	226.48
865.02	226.49
865.33	226.50
865.64	226.49
865.95	226.47
866.27	226.50
866.58	226.50
866.89	226.51
867.20	226.53
867.51	226.53
867.82	226.54
868.13	226.57
868.44	226.58
868.75	226.59
869.06	226.63
869.37	226.64
869.68	226.63
869.99	226.66
870.30	226.64
870.61	226.65
870.92	226.63
871.23	226.61
871.54	226.60
871.85	226.65
872.16	226.65
872.47	226.61
872.78	226.56
873.09	226.56
873.40	226.56
873.71	226.54
874.02	226.51
874.33	226.52
874.64	226.48
874.95	226.46
875.26	226.41
875.56	226.40
875.87	226.41
876.18	226.41
876.49	226.51
876.80	226.53
877.11	226.49
877.42	226.52
877.73	226.55
878.04	226.55
878.35	226.51
878.66	226.51
878.96	226.54
879.27	226.53
879.58	226.52
879.89	226.53
880.20	226.55
880.51	226.56
880.82	226.54
881.12	226.58
881.43	226.60
881.74	226.63
882.05	226.60
882.36	226.60
882.67	226.60
882.97	226.51
883.28	226.50
883.59	226.52
883.90	226.54
884.21	226.53
884.51	226.51
884.82	226.50
885.13	226.51
885.44	226.48
885.74	226.45
886.05	226.49
886.36	226.44
886.67	226.39
886.98	226.43
887.28	226.47
887.59	226.45
887.90	226.44
888.20	226.42
888.51	226.43
888.82	226.44
889.13	226.45
889.43	226.53
889.74	226.51
890.05	226.46
890.35	226.42
890.66	226.39
890.97	226.38
891.28	226.39
891.58	226.39
891.89	226.40
892.20	226.41
892.50	226.36
892.81	226.37
893.12	226.39
893.42	226.37
893.73	226.37
894.04	226.36
894.34	226.38
894.65	226.37
894.95	226.34
895.26	226.32
895.57	226.33
895.87	226.21
896.18	226.22
896.48	226.25
896.79	226.26
897.10	226.28
897.40	226.30
897.71	226.30
898.01	226.28
898.32	226.26
898.63	226.26
898.93	226.28
899.24	226.31
899.54	226.33
899.85	226.30
900.15	226.25
900.46	226.27
900.76	226.24
901.07	226.24
901.38	226.27
901.68	226.31
901.99	226.27
902.29	226.30
902.60	226.29
902.90	226.31
903.21	226.32
903.51	226.31
903.82	226.33
904.12	226.34
904.43	226.35
904.73	226.40
905.03	226.42
905.34	226.50
905.64	226.49
905.95	226.48
906.25	226.51
906.56	226.52
906.86	226.49
907.17	226.48
907.47	226.49
907.77	226.46
908.08	226.45
908.38	226.45
908.69	226.46
908.99	226.52
909.30	226.50
909.60	226.50
909.90	226.52
910.21	226.48
910.51	226.47
910.81	226.46
911.12	226.44
911.42	226.42
911.73	226.33
912.03	226.32
912.33	226.33
912.64	226.30
912.94	226.30
913.24	226.30
913.55	226.34
913.85	226.36
914.15	226.39
914.46	226.38
914.76	226.37
915.06	226.33
915.37	226.28
915.67	226.29
915.97	226.29
916.27	226.24
916.58	226.26
916.88	226.25
917.18	226.27
917.49	226.37
917.79	226.37
918.09	226.40
918.39	226.42
918.70	226.43
919.00	226.44
919.30	226.47
919.60	226.48
919.91	226.42
920.21	226.42
920.51	226.41
920.81	226.38
921.12	226.42
921.42	226.42
921.72	226.41
922.02	226.39
922.32	226.40
922.63	226.43
922.93	226.47
923.23	226.46
923.53	226.40
923.83	226.29
924.13	226.31
924.44	226.32
924.74	226.32
925.04	226.30
925.34	226.31
925.64	226.26
925.94	226.26
926.24	226.35
926.55	226.36
926.85	226.35
927.15	226.37
927.45	226.39
927.75	226.39
928.05	226.39
928.35	226.39
928.65	226.42
928.95	226.43
929.26	226.38
929.56	226.40
929.86	226.45
930.16	226.43
930.46	226.41
930.76	226.36
931.06	226.31
931.36	226.29
931.66	226.30
931.96	226.32
932.26	226.31
932.56	226.26
932.86	226.25
933.16	226.24
933.46	226.21
933.76	226.19
934.06	226.21
934.36	226.24
934.66	226.22
934.96	226.18
935.26	226.17
935.56	226.20
935.86	226.17
936.16	226.14
936.46	226.18
936.76	226.19
937.06	226.16
937.36	226.21
937.66	226.24
937.96	226.24
938.26	226.21
938.56	226.19
938.86	226.21
939.16	226.22
939.46	226.26
939.76	226.25
940.06	226.24
940.35	226.23
940.65	226.19
940.95	226.23
941.25	226.17
941.55	226.15
941.85	226.15
942.15	226.18
942.45	226.20
942.75	226.17
943.04	226.19
943.34	226.23
943.64	226.22
943.94	226.16
944.24	226.14
944.54	226.18
944.84	226.21
945.13	226.18
945.43	226.13
945.73	226.12
946.03	226.13
946.33	226.13
946.62	226.14
946.92	226.14
947.22	226.15
947.52	226.23
947.82	226.22
948.11	226.22
948.41	226.20
948.71	226.21
949.01	226.22
949.31	226.22
949.60	226.19
949.90	226.22
950.20	226.25
950.50	226.24
950.79	226.24
951.09	226.23
951.39	226.24
951.69	226.22
951.98	226.24
952.28	226.25
952.58	226.25
952.87	226.20
953.17	226.17
953.47	226.12
953.76	226.07
954.06	226.08
954.36	226.03
954.66	226.03
954.95	226.02
955.25	226.04
955.55	225.99
955.84	225.97
956.14	225.96
956.44	225.94
956.73	225.91
957.03	225.91
957.32	225.91
957.62	225.91
957.92	225.96
958.21	225.94
958.51	226.02
958.81	226.02
959.10	226.03
959.40	226.08
959.69	226.11
959.99	226.09
960.29	226.09
960.58	226.06
960.88	226.05
961.17	226.01
961.47	225.98
961.76	225.99
962.06	226.00
962.36	225.99
962.65	225.99
962.95	225.99
963.24	225.97
963.54	225.97
963.83	225.96
964.13	225.95
964.42	225.91
964.72	225.81
965.01	225.82
965.31	225.82
965.60	225.77
965.90	225.81
966.19	225.78
966.49	225.76
966.78	225.80
967.08	225.80
967.37	225.82
967.67	225.82
967.96	225.84
968.26	225.83
968.55	225.86
968.85	225.85
969.14	225.86
969.43	225.85
969.73	225.84
970.02	225.83
970.32	225.79
970.61	225.77
970.91	225.81
971.20	225.78
971.49	225.81
971.79	225.82
972.08	225.77
972.38	225.81
972.67	225.80
972.96	225.82
973.26	225.81
973.55	225.85
973.85	225.84
974.14	225.84
974.43	225.85
974.73	225.81
975.02	225.81
975.31	225.81
975.61	225.82
975.90	225.80
976.19	225.78
976.49	225.82
976.78	225.83
977.07	225.83
977.37	225.84
977.66	225.83
977.95	225.87
978.24	225.90
978.54	225.92
978.83	225.91
979.12	225.90
979.42	225.91
979.71	225.88
980.00	225.90
980.29	225.92
980.59	225.92
980.88	225.94
981.17	225.95
981.46	225.95
981.76	225.95
982.05	225.99
982.34	226.00
982.63	225.99
982.93	226.05
983.22	226.03
983.51	226.01
983.80	226.01
984.09	226.02
984.39	226.03
984.68	226.02
984.97	226.05
985.26	226.07
985.55	226.07
985.85	226.06
986.14	226.07
986.43	226.08
986.72	226.05
987.01	226.04
987.30	226.04
987.59	226.03
987.89	226.04
988.18	226.00
988.47	225.99
988.76	226.02
989.05	225.99
989.34	225.99
989.63	226.04
989.92	226.04
990.22	226.00
990.51	225.96
990.80	225.95
991.09	225.96
991.38	225.99
991.67	225.97
991.96	225.96
992.25	225.99
992.54	225.98
992.83	226.03
993.12	226.01
993.41	226.04
993.70	226.11
993.99	226.09
994.28	226.15
994.58	226.17
994.87	226.12
995.16	226.13
995.45	226.09
995.74	226.06
996.03	226.05
996.32	226.10
996.61	226.12
996.90	226.12
997.19	226.09
997.48	226.04
997.77	226.07
998.06	226.05
998.34	226.00
998.63	225.99
998.92	225.98
999.21	226.05
999.50	226.00
999.79	225.97
1000.08	226.01
1000.37	226.00
1000.66	225.97
1000.95	226.04
1001.24	226.05
1001.53	226.09
1001.82	226.10
1002.11	226.08
1002.40	226.05
1002.68	226.06
1002.97	226.16
1003.26	226.15
1003.55	226.17
1003.84	226.17
1004.13	226.21
1004.42	226.24
1004.71	226.23
1004.99	226.21
1005.28	226.18
1005.57	226.19
1005.86	226.19
1006.15	226.16
1006.44	226.13
1006.72	226.16
1007.01	226.14
1007.30	226.14
1007.59	226.14
1007.88	226.14
1008.17	226.15
1008.45	226.15
1008.74	226.13
1009.03	226.05
1009.32	226.09
1009.60	226.08
1009.89	226.04
1010.18	226.00
1010.47	225.96
1010.76	225.96
1011.04	225.98
1011.33	226.07
1011.62	226.07
1011.91	226.05
1012.19	226.06
1012.48	226.03
1012.77	226.02
1013.05	226.06
1013.34	226.02
1013.63	226.00
1013.92	225.98
1014.20	226.00
1014.49	226.01
1014.78	226.03
1015.06	226.02
1015.35	225.99
1015.64	226.00
1015.92	226.04
1016.21	226.04
1016.50	226.06
1016.78	226.08
1017.07	226.06
1017.36	225.96
1017.64	225.95
1017.93	225.97
1018.22	225.96
1018.50	226.00
1018.79	225.99
1019.08	225.95
1019.36	225.98
1019.65	225.99
1019.93	226.01
1020.22	226.01
1020.51	226.04
1020.79	226.04
1021.08	225.97
1021.36	225.94
1021.65	225.90
1021.94	226.12
1022.22	226.24
1022.51	226.04
1022.79	226.12
1023.08	225.97
1023.36	226.96
1023.65	226.46
>>>>>End Processed Spectral Data<<<<<
