SpectraSuite Data File
++++++++++++++++++++++++++++++++++++
Date: Fri Feb 01 16:36:41 EST 2013
User: group
Dark Spectrum Present: No
Reference Spectrum Present: No
Number of Sampled Component Spectra: 1
Spectrometers: USB2E7196
Integration Time (usec): 35000 (USB2E7196)
Spectra Averaged: 100 (USB2E7196)
Boxcar Smoothing: 10 (USB2E7196)
Correct for Electrical Dark: No (USB2E7196)
Strobe/Lamp Enabled: No (USB2E7196)
Correct for Detector Non-linearity: No (USB2E7196)
Correct for Stray Light: No (USB2E7196)
Number of Pixels in Processed Spectrum: 2048
>>>>>Begin Processed Spectral Data<<<<<
339.09	0.00
339.48	214.16
339.86	215.59
340.24	216.44
340.63	218.26
341.01	221.21
341.39	220.62
341.78	221.82
342.16	223.27
342.54	223.62
342.93	212.17
343.31	222.90
343.69	223.42
344.07	223.88
344.46	224.34
344.84	224.71
345.22	224.93
345.60	225.21
345.99	225.41
346.37	225.56
346.75	225.68
347.13	225.77
347.52	225.84
347.90	225.93
348.28	225.97
348.66	226.04
349.05	226.02
349.43	226.09
349.81	226.20
350.19	226.22
350.57	226.27
350.96	226.36
351.34	226.45
351.72	226.53
352.10	226.62
352.48	226.65
352.87	226.75
353.25	226.85
353.63	226.88
354.01	226.95
354.39	227.02
354.77	227.11
355.15	227.20
355.54	227.26
355.92	227.29
356.30	227.39
356.68	227.52
357.06	227.59
357.44	227.63
357.82	227.67
358.20	227.72
358.58	227.82
358.97	227.86
359.35	227.91
359.73	228.00
360.11	228.03
360.49	228.12
360.87	228.14
361.25	228.18
361.63	228.29
362.01	228.34
362.39	228.41
362.77	228.45
363.15	228.52
363.53	228.54
363.91	228.58
364.29	228.58
364.67	228.49
365.05	228.51
365.43	228.56
365.81	228.57
366.19	228.66
366.57	228.71
366.95	228.73
367.33	228.77
367.71	228.74
368.09	228.77
368.47	228.75
368.85	228.74
369.23	228.73
369.61	228.64
369.99	228.65
370.37	228.59
370.75	228.61
371.13	228.54
371.51	228.54
371.89	228.51
372.27	228.49
372.65	228.45
373.03	228.41
373.41	228.37
373.78	228.33
374.16	228.20
374.54	228.07
374.92	227.97
375.30	227.88
375.68	227.84
376.06	227.78
376.44	227.72
376.82	227.65
377.19	227.56
377.57	227.51
377.95	227.41
378.33	227.33
378.71	227.18
379.09	227.13
379.47	227.06
379.84	226.96
380.22	226.86
380.60	226.78
380.98	226.70
381.36	226.62
381.73	226.52
382.11	226.46
382.49	226.41
382.87	226.33
383.25	226.23
383.62	226.26
384.00	226.17
384.38	226.10
384.76	226.06
385.13	226.02
385.51	225.95
385.89	225.87
386.27	225.81
386.64	225.77
387.02	225.69
387.40	225.64
387.78	225.62
388.15	225.58
388.53	225.56
388.91	225.51
389.29	225.48
389.66	225.45
390.04	225.40
390.42	225.41
390.79	225.41
391.17	225.41
391.55	225.28
391.92	225.26
392.30	225.30
392.68	225.23
393.05	225.25
393.43	225.26
393.81	225.26
394.18	225.26
394.56	225.26
394.94	225.31
395.31	225.27
395.69	225.34
396.06	225.40
396.44	225.42
396.82	225.43
397.19	225.48
397.57	225.53
397.95	225.60
398.32	225.59
398.70	225.66
399.07	225.75
399.45	225.78
399.82	225.83
400.20	225.86
400.58	225.97
400.95	226.02
401.33	226.14
401.70	226.31
402.08	226.40
402.45	226.50
402.83	226.62
403.20	226.74
403.58	226.81
403.95	226.90
404.33	227.04
404.71	227.17
405.08	227.33
405.46	227.43
405.83	227.57
406.21	227.71
406.58	227.85
406.96	228.00
407.33	228.19
407.70	228.40
408.08	228.66
408.45	228.87
408.83	229.06
409.20	229.24
409.58	229.39
409.95	229.61
410.33	229.86
410.70	230.07
411.08	230.39
411.45	230.69
411.82	231.00
412.20	231.33
412.57	231.77
412.95	232.07
413.32	232.48
413.69	232.88
414.07	233.34
414.44	233.81
414.82	234.30
415.19	234.81
415.56	235.32
415.94	235.88
416.31	236.51
416.68	237.14
417.06	237.88
417.43	238.56
417.81	239.36
418.18	240.12
418.55	240.97
418.93	241.85
419.30	242.73
419.67	243.65
420.04	244.62
420.42	245.59
420.79	246.77
421.16	247.95
421.54	249.14
421.91	250.31
422.28	251.57
422.66	252.90
423.03	254.24
423.40	255.60
423.77	256.99
424.15	258.42
424.52	259.93
424.89	261.55
425.26	263.13
425.64	264.58
426.01	266.19
426.38	267.86
426.75	269.52
427.13	271.25
427.50	273.09
427.87	274.94
428.24	276.82
428.61	278.54
428.99	280.47
429.36	282.57
429.73	284.63
430.10	286.63
430.47	288.69
430.85	290.80
431.22	293.00
431.59	295.36
431.96	297.58
432.33	300.00
432.70	302.33
433.08	305.10
433.45	307.73
433.82	310.30
434.19	313.15
434.56	315.94
434.93	318.55
435.30	321.09
435.68	323.94
436.05	326.72
436.42	329.45
436.79	331.92
437.16	334.57
437.53	337.40
437.90	340.23
438.27	342.96
438.64	345.75
439.01	348.33
439.38	350.51
439.75	352.64
440.13	355.11
440.50	357.37
440.87	359.15
441.24	361.06
441.61	363.19
441.98	364.63
442.35	366.40
442.72	368.26
443.09	370.02
443.46	371.04
443.83	371.62
444.20	372.12
444.57	372.95
444.94	373.25
445.31	373.56
445.68	373.83
446.05	373.85
446.42	373.49
446.79	373.09
447.16	372.61
447.53	372.30
447.90	371.18
448.27	370.05
448.64	368.54
449.01	367.35
449.37	365.38
449.74	363.50
450.11	361.27
450.48	358.78
450.85	356.30
451.22	354.16
451.59	352.12
451.96	350.25
452.33	347.69
452.70	345.33
453.07	342.53
453.43	339.67
453.80	336.95
454.17	334.27
454.54	331.71
454.91	329.04
455.28	326.38
455.65	323.90
456.02	321.46
456.38	319.29
456.75	316.68
457.12	314.48
457.49	312.32
457.86	310.18
458.23	308.37
458.59	306.37
458.96	304.27
459.33	302.46
459.70	300.61
460.07	299.09
460.43	297.40
460.80	295.80
461.17	294.38
461.54	292.96
461.91	291.57
462.27	290.17
462.64	288.94
463.01	287.62
463.38	286.30
463.74	284.98
464.11	283.88
464.48	282.90
464.85	281.82
465.21	280.94
465.58	280.05
465.95	278.95
466.32	278.05
466.68	277.20
467.05	276.35
467.42	275.43
467.78	274.53
468.15	273.67
468.52	273.04
468.88	272.20
469.25	271.41
469.62	270.82
469.98	270.16
470.35	269.57
470.72	269.01
471.08	268.41
471.45	267.91
471.82	267.38
472.18	266.80
472.55	266.38
472.92	265.85
473.28	265.36
473.65	264.99
474.02	264.58
474.38	264.21
474.75	263.87
475.11	263.59
475.48	263.33
475.85	263.09
476.21	262.89
476.58	262.72
476.94	262.57
477.31	262.41
477.67	262.28
478.04	262.15
478.41	262.08
478.77	262.12
479.14	262.05
479.50	262.08
479.87	262.14
480.23	262.22
480.60	262.29
480.96	262.46
481.33	262.64
481.69	262.81
482.06	263.00
482.42	263.21
482.79	263.43
483.15	263.77
483.52	264.18
483.88	264.46
484.25	264.81
484.61	265.23
484.98	265.64
485.34	266.16
485.71	266.76
486.07	267.36
486.44	267.89
486.80	268.57
487.17	269.22
487.53	270.01
487.90	270.86
488.26	271.78
488.62	272.70
488.99	273.65
489.35	274.68
489.72	275.83
490.08	277.02
490.44	278.26
490.81	279.58
491.17	280.91
491.54	282.43
491.90	284.01
492.26	285.65
492.63	287.34
492.99	289.12
493.36	291.01
493.72	293.06
494.08	295.16
494.45	297.44
494.81	299.89
495.17	302.35
495.54	304.90
495.90	307.61
496.26	310.39
496.63	313.35
496.99	316.49
497.35	319.76
497.72	323.19
498.08	326.72
498.44	330.42
498.80	334.35
499.17	338.39
499.53	342.55
499.89	346.99
500.26	351.51
500.62	356.21
500.98	361.17
501.34	366.28
501.71	371.61
502.07	376.97
502.43	382.54
502.79	388.35
503.16	394.44
503.52	400.69
503.88	407.17
504.24	413.78
504.60	420.67
504.97	427.82
505.33	435.13
505.69	442.89
506.05	450.65
506.41	458.52
506.78	466.67
507.14	475.14
507.50	483.82
507.86	492.88
508.22	502.11
508.59	511.34
508.95	520.90
509.31	530.79
509.67	540.91
510.03	551.16
510.39	561.73
510.75	572.49
511.12	583.41
511.48	594.72
511.84	606.16
512.20	617.63
512.56	629.53
512.92	641.74
513.28	654.02
513.64	666.46
514.00	679.20
514.37	692.14
514.73	705.15
515.09	718.12
515.45	731.41
515.81	744.99
516.17	758.85
516.53	772.99
516.89	787.14
517.25	801.29
517.61	815.79
517.97	830.26
518.33	844.74
518.69	859.54
519.05	874.44
519.41	889.62
519.77	905.06
520.13	920.48
520.49	935.82
520.85	951.08
521.21	966.68
521.57	982.90
521.93	998.60
522.29	1014.92
522.65	1031.14
523.01	1047.23
523.37	1063.20
523.73	1079.35
524.09	1095.37
524.45	1111.51
524.81	1128.09
525.17	1144.75
525.53	1161.54
525.89	1178.22
526.25	1194.98
526.61	1211.29
526.97	1227.99
527.33	1244.43
527.68	1260.87
528.04	1277.24
528.40	1293.73
528.76	1310.77
529.12	1327.19
529.48	1344.07
529.84	1359.95
530.20	1376.38
530.56	1393.16
530.91	1410.41
531.27	1427.11
531.63	1443.47
531.99	1460.02
532.35	1475.95
532.71	1491.64
533.07	1507.68
533.42	1523.45
533.78	1539.31
534.14	1555.39
534.50	1570.48
534.86	1586.15
535.21	1601.27
535.57	1617.00
535.93	1632.37
536.29	1646.98
536.65	1661.77
537.00	1676.22
537.36	1691.31
537.72	1705.66
538.08	1719.95
538.44	1733.44
538.79	1747.03
539.15	1760.35
539.51	1773.75
539.87	1787.95
540.22	1801.41
540.58	1814.85
540.94	1827.89
541.29	1840.41
541.65	1852.79
542.01	1865.76
542.37	1877.84
542.72	1890.14
543.08	1901.73
543.44	1913.90
543.79	1924.97
544.15	1935.88
544.51	1947.31
544.87	1958.10
545.22	1968.89
545.58	1979.14
545.94	1989.00
546.29	1998.84
546.65	2008.68
547.01	2017.97
547.36	2026.48
547.72	2035.10
548.07	2043.17
548.43	2051.37
548.79	2059.36
549.14	2067.23
549.50	2074.65
549.86	2082.41
550.21	2089.56
550.57	2096.75
550.92	2103.47
551.28	2110.54
551.64	2117.72
551.99	2124.16
552.35	2130.41
552.70	2136.51
553.06	2142.53
553.41	2148.83
553.77	2154.82
554.13	2160.93
554.48	2167.06
554.84	2172.55
555.19	2177.65
555.55	2182.79
555.90	2187.29
556.26	2192.33
556.61	2196.75
556.97	2201.24
557.32	2205.36
557.68	2209.63
558.03	2213.94
558.39	2217.60
558.74	2222.24
559.10	2226.00
559.45	2229.76
559.81	2234.07
560.16	2237.76
560.52	2240.89
560.87	2244.36
561.23	2247.11
561.58	2250.02
561.94	2252.52
562.29	2254.83
562.64	2257.65
563.00	2260.05
563.35	2263.67
563.71	2266.85
564.06	2270.23
564.42	2273.01
564.77	2275.58
565.12	2277.87
565.48	2279.78
565.83	2281.83
566.19	2283.26
566.54	2284.08
566.89	2285.39
567.25	2286.19
567.60	2287.63
567.96	2289.39
568.31	2290.20
568.66	2291.22
569.02	2291.92
569.37	2292.44
569.72	2293.54
570.08	2293.78
570.43	2294.03
570.78	2293.46
571.14	2291.94
571.49	2290.49
571.84	2290.04
572.20	2289.03
572.55	2288.00
572.90	2286.45
573.26	2285.07
573.61	2283.29
573.96	2281.77
574.31	2278.76
574.67	2275.75
575.02	2272.13
575.37	2268.89
575.72	2265.19
576.08	2261.98
576.43	2258.61
576.78	2255.08
577.13	2251.74
577.49	2248.51
577.84	2245.05
578.19	2241.33
578.54	2237.78
578.90	2233.73
579.25	2228.32
579.60	2223.48
579.95	2218.56
580.30	2213.66
580.66	2208.43
581.01	2203.44
581.36	2198.57
581.71	2194.53
582.06	2190.13
582.42	2185.97
582.77	2180.61
583.12	2176.04
583.47	2171.51
583.82	2166.68
584.17	2161.39
584.53	2156.08
584.88	2150.56
585.23	2144.92
585.58	2139.52
585.93	2134.03
586.28	2129.16
586.63	2124.34
586.98	2119.26
587.34	2114.61
587.69	2109.76
588.04	2104.68
588.39	2099.23
588.74	2092.83
589.09	2086.64
589.44	2079.98
589.79	2073.74
590.14	2068.22
590.49	2061.89
590.84	2055.40
591.19	2049.29
591.54	2043.02
591.89	2035.83
592.25	2029.24
592.60	2022.05
592.95	2014.60
593.30	2007.37
593.65	1999.95
594.00	1992.83
594.35	1985.55
594.70	1977.60
595.05	1970.53
595.40	1963.31
595.75	1955.81
596.10	1949.75
596.45	1943.19
596.80	1937.16
597.15	1930.74
597.50	1923.93
597.85	1917.34
598.19	1910.83
598.54	1903.99
598.89	1897.37
599.24	1891.38
599.59	1884.85
599.94	1878.78
600.29	1872.54
600.64	1865.91
600.99	1858.60
601.34	1851.91
601.69	1844.97
602.04	1838.17
602.39	1830.82
602.74	1824.11
603.08	1817.49
603.43	1810.68
603.78	1803.43
604.13	1796.10
604.48	1788.95
604.83	1782.01
605.18	1775.22
605.53	1767.29
605.87	1759.25
606.22	1751.78
606.57	1743.79
606.92	1736.27
607.27	1728.99
607.62	1722.02
607.96	1714.91
608.31	1708.40
608.66	1700.83
609.01	1693.47
609.36	1686.01
609.70	1678.03
610.05	1669.98
610.40	1662.28
610.75	1654.07
611.10	1646.33
611.44	1637.89
611.79	1629.79
612.14	1621.23
612.49	1612.06
612.83	1603.66
613.18	1595.58
613.53	1587.65
613.88	1579.20
614.22	1571.03
614.57	1562.57
614.92	1554.62
615.27	1547.10
615.61	1538.86
615.96	1530.74
616.31	1522.89
616.65	1515.37
617.00	1507.84
617.35	1500.11
617.70	1491.83
618.04	1483.37
618.39	1475.15
618.74	1467.75
619.08	1459.51
619.43	1451.90
619.78	1445.01
620.12	1437.87
620.47	1430.39
620.82	1422.19
621.16	1414.78
621.51	1407.19
621.85	1399.46
622.20	1390.97
622.55	1382.61
622.89	1374.66
623.24	1367.08
623.59	1359.81
623.93	1352.33
624.28	1345.14
624.62	1337.72
624.97	1330.57
625.32	1323.72
625.66	1316.70
626.01	1309.52
626.35	1302.13
626.70	1294.40
627.04	1286.60
627.39	1278.81
627.73	1271.25
628.08	1264.47
628.43	1257.30
628.77	1250.05
629.12	1242.65
629.46	1235.44
629.81	1227.90
630.15	1220.58
630.50	1213.19
630.84	1205.06
631.19	1197.08
631.53	1189.49
631.88	1181.84
632.22	1174.09
632.57	1166.79
632.91	1159.32
633.26	1151.83
633.60	1144.45
633.95	1137.23
634.29	1130.14
634.64	1123.48
634.98	1116.14
635.32	1108.98
635.67	1102.28
636.01	1095.51
636.36	1088.73
636.70	1082.25
637.05	1075.73
637.39	1069.32
637.73	1062.87
638.08	1056.95
638.42	1051.06
638.77	1044.70
639.11	1038.17
639.45	1031.93
639.80	1025.26
640.14	1018.83
640.49	1012.37
640.83	1006.09
641.17	999.95
641.52	993.72
641.86	987.24
642.20	981.45
642.55	975.03
642.89	968.57
643.23	962.03
643.58	956.23
643.92	950.14
644.26	944.22
644.61	938.21
644.95	932.19
645.29	925.65
645.64	918.90
645.98	912.56
646.32	906.59
646.66	900.55
647.01	894.73
647.35	889.07
647.69	883.17
648.04	877.62
648.38	871.81
648.72	865.89
649.06	859.90
649.41	853.96
649.75	848.10
650.09	842.17
650.43	836.29
650.78	830.11
651.12	824.04
651.46	818.27
651.80	812.56
652.14	807.15
652.49	801.77
652.83	796.59
653.17	790.96
653.51	785.41
653.85	779.97
654.20	774.37
654.54	768.32
654.88	762.60
655.22	756.69
655.56	750.99
655.90	745.46
656.25	740.26
656.59	734.95
656.93	729.80
657.27	724.66
657.61	719.33
657.95	714.21
658.29	709.14
658.64	703.85
658.98	698.53
659.32	693.03
659.66	687.76
660.00	682.49
660.34	677.50
660.68	672.49
661.02	667.46
661.36	662.80
661.70	658.34
662.05	653.95
662.39	649.65
662.73	645.25
663.07	640.86
663.41	636.36
663.75	631.91
664.09	627.32
664.43	622.93
664.77	618.82
665.11	614.55
665.45	610.40
665.79	606.40
666.13	602.27
666.47	598.19
666.81	594.09
667.15	589.96
667.49	586.04
667.83	582.20
668.17	578.24
668.51	574.20
668.85	570.15
669.19	566.28
669.53	562.48
669.87	558.58
670.21	554.86
670.55	551.24
670.89	547.74
671.23	544.33
671.57	540.81
671.91	537.31
672.25	533.82
672.58	530.35
672.92	526.87
673.26	523.60
673.60	520.43
673.94	517.31
674.28	514.37
674.62	511.42
674.96	508.37
675.30	505.54
675.64	502.57
675.97	499.79
676.31	496.97
676.65	493.96
676.99	491.24
677.33	488.38
677.67	485.53
678.01	482.53
678.34	479.56
678.68	476.68
679.02	473.87
679.36	471.13
679.70	468.36
680.04	465.63
680.37	462.84
680.71	460.07
681.05	457.45
681.39	454.71
681.73	452.00
682.06	449.45
682.40	446.90
682.74	444.32
683.08	441.79
683.42	439.14
683.75	436.67
684.09	434.05
684.43	431.60
684.77	429.14
685.10	426.78
685.44	424.46
685.78	422.19
686.12	419.87
686.45	417.51
686.79	415.25
687.13	413.07
687.46	410.88
687.80	408.73
688.14	406.47
688.48	404.47
688.81	402.31
689.15	400.18
689.49	397.99
689.82	395.91
690.16	393.80
690.50	391.86
690.83	389.95
691.17	387.95
691.51	386.00
691.84	384.17
692.18	382.25
692.52	380.29
692.85	378.32
693.19	376.47
693.52	374.68
693.86	372.79
694.20	370.96
694.53	369.14
694.87	367.22
695.21	365.43
695.54	363.57
695.88	361.82
696.21	360.06
696.55	358.36
696.88	356.70
697.22	355.00
697.56	353.29
697.89	351.57
698.23	350.00
698.56	348.41
698.90	346.76
699.23	345.12
699.57	343.56
699.90	342.02
700.24	340.46
700.58	338.92
700.91	337.46
701.25	336.01
701.58	334.71
701.92	333.41
702.25	332.06
702.59	330.70
702.92	329.42
703.26	328.11
703.59	326.84
703.93	325.60
704.26	324.41
704.60	323.18
704.93	321.95
705.26	320.69
705.60	319.49
705.93	318.36
706.27	317.30
706.60	316.23
706.94	315.15
707.27	314.03
707.61	312.97
707.94	311.93
708.27	310.85
708.61	309.74
708.94	308.74
709.28	307.75
709.61	306.78
709.94	305.78
710.28	304.75
710.61	303.76
710.95	302.72
711.28	301.83
711.61	300.84
711.95	299.92
712.28	298.98
712.61	298.06
712.95	297.12
713.28	296.25
713.61	295.38
713.95	294.50
714.28	293.68
714.61	292.83
714.95	291.97
715.28	291.12
715.61	290.24
715.95	289.36
716.28	288.51
716.61	287.67
716.95	286.83
717.28	286.10
717.61	285.33
717.94	284.58
718.28	283.73
718.61	283.00
718.94	282.29
719.27	281.62
719.61	280.95
719.94	280.30
720.27	279.57
720.60	278.90
720.94	278.24
721.27	277.68
721.60	277.13
721.93	276.53
722.27	275.98
722.60	275.41
722.93	274.83
723.26	274.32
723.59	273.79
723.93	273.27
724.26	272.69
724.59	272.11
724.92	271.58
725.25	271.08
725.59	270.59
725.92	270.09
726.25	269.61
726.58	269.14
726.91	268.62
727.24	268.16
727.57	267.66
727.91	267.15
728.24	266.62
728.57	266.10
728.90	265.66
729.23	265.15
729.56	264.74
729.89	264.26
730.22	263.76
730.55	263.28
730.89	262.83
731.22	262.40
731.55	262.00
731.88	261.57
732.21	261.11
732.54	260.63
732.87	260.18
733.20	259.74
733.53	259.32
733.86	258.98
734.19	258.57
734.52	258.20
734.85	257.94
735.18	257.52
735.51	257.17
735.84	256.81
736.17	256.49
736.50	256.08
736.83	255.86
737.16	255.51
737.49	255.19
737.82	254.85
738.15	254.52
738.48	254.18
738.81	253.88
739.14	253.58
739.47	253.29
739.80	253.01
740.13	252.73
740.46	252.39
740.79	252.05
741.12	251.73
741.45	251.42
741.78	251.04
742.11	250.78
742.44	250.45
742.77	250.17
743.10	249.88
743.43	249.59
743.75	249.22
744.08	249.10
744.41	248.82
744.74	248.51
745.07	248.21
745.40	247.95
745.73	247.72
746.06	247.44
746.39	247.18
746.71	246.91
747.04	246.64
747.37	246.38
747.70	246.17
748.03	245.98
748.36	245.74
748.68	245.47
749.01	245.23
749.34	245.03
749.67	244.76
750.00	244.56
750.33	244.39
750.65	244.15
750.98	243.76
751.31	243.53
751.64	243.33
751.97	243.20
752.29	242.97
752.62	242.70
752.95	242.52
753.28	242.31
753.60	242.08
753.93	241.93
754.26	241.76
754.59	241.51
754.91	241.26
755.24	241.08
755.57	240.90
755.90	240.72
756.22	240.50
756.55	240.31
756.88	240.10
757.20	239.86
757.53	239.69
757.86	239.53
758.19	239.40
758.51	239.24
758.84	239.00
759.17	238.85
759.49	238.69
759.82	238.56
760.15	238.40
760.47	238.26
760.80	238.06
761.13	237.95
761.45	237.76
761.78	237.59
762.11	237.44
762.43	237.28
762.76	237.14
763.08	237.04
763.41	236.93
763.74	236.76
764.06	236.63
764.39	236.48
764.71	236.37
765.04	236.20
765.37	236.02
765.69	235.91
766.02	235.79
766.34	235.67
766.67	235.53
767.00	235.45
767.32	235.40
767.65	235.35
767.97	235.19
768.30	235.11
768.62	235.03
768.95	234.91
769.27	234.80
769.60	234.69
769.92	234.55
770.25	234.41
770.57	234.33
770.90	234.20
771.22	234.09
771.55	233.99
771.87	233.90
772.20	233.84
772.52	233.81
772.85	233.81
773.17	233.73
773.50	233.60
773.82	233.50
774.15	233.32
774.47	233.18
774.80	233.10
775.12	232.99
775.45	232.90
775.77	232.85
776.09	232.79
776.42	232.69
776.74	232.62
777.07	232.57
777.39	232.49
777.72	232.42
778.04	232.37
778.36	232.30
778.69	232.24
779.01	232.20
779.33	232.05
779.66	231.86
779.98	231.79
780.31	231.76
780.63	231.75
780.95	231.71
781.28	231.63
781.60	231.54
781.92	231.49
782.25	231.43
782.57	231.36
782.89	231.31
783.22	231.26
783.54	231.18
783.86	231.13
784.19	231.04
784.51	231.02
784.83	230.99
785.16	230.93
785.48	230.87
785.80	230.81
786.12	230.76
786.45	230.73
786.77	230.70
787.09	230.66
787.42	230.60
787.74	230.58
788.06	230.57
788.38	230.54
788.71	230.50
789.03	230.45
789.35	230.41
789.67	230.36
789.99	230.32
790.32	230.29
790.64	230.26
790.96	230.34
791.28	230.28
791.61	230.23
791.93	230.19
792.25	230.16
792.57	230.19
792.89	230.17
793.21	230.19
793.54	230.13
793.86	230.07
794.18	229.99
794.50	229.94
794.82	229.89
795.14	229.92
795.47	229.89
795.79	229.87
796.11	229.84
796.43	229.83
796.75	229.79
797.07	229.77
797.39	229.74
797.71	229.62
798.04	229.59
798.36	229.59
798.68	229.55
799.00	229.51
799.32	229.43
799.64	229.41
799.96	229.33
800.28	229.34
800.60	229.30
800.92	229.29
801.24	229.24
801.56	229.24
801.89	229.15
802.21	229.12
802.53	229.07
802.85	229.05
803.17	229.04
803.49	229.00
803.81	228.98
804.13	228.92
804.45	228.90
804.77	228.88
805.09	228.86
805.41	228.80
805.73	228.78
806.05	228.75
806.37	228.70
806.69	228.67
807.01	228.62
807.33	228.61
807.65	228.53
807.97	228.56
808.28	228.48
808.60	228.48
808.92	228.45
809.24	228.50
809.56	228.46
809.88	228.43
810.20	228.41
810.52	228.40
810.84	228.38
811.16	228.34
811.48	228.27
811.80	228.25
812.12	228.25
812.43	228.23
812.75	228.19
813.07	228.19
813.39	228.18
813.71	228.12
814.03	228.09
814.35	228.06
814.67	227.99
814.98	227.99
815.30	227.96
815.62	227.92
815.94	227.80
816.26	227.80
816.58	227.73
816.89	227.71
817.21	227.63
817.53	227.60
817.85	227.58
818.17	227.53
818.48	227.46
818.80	227.44
819.12	227.39
819.44	227.36
819.76	227.30
820.07	227.26
820.39	227.26
820.71	227.23
821.03	227.24
821.34	227.21
821.66	227.19
821.98	227.17
822.30	227.14
822.61	227.20
822.93	227.16
823.25	227.13
823.57	227.17
823.88	227.17
824.20	227.18
824.52	227.22
824.83	227.27
825.15	227.28
825.47	227.27
825.79	227.26
826.10	227.24
826.42	227.24
826.74	227.26
827.05	227.24
827.37	227.27
827.69	227.23
828.00	227.24
828.32	227.23
828.64	227.22
828.95	227.26
829.27	227.26
829.58	227.24
829.90	227.25
830.22	227.21
830.53	227.17
830.85	227.10
831.17	227.03
831.48	227.03
831.80	226.99
832.11	226.96
832.43	226.97
832.75	226.98
833.06	227.01
833.38	226.98
833.69	226.94
834.01	226.93
834.32	226.95
834.64	226.93
834.96	226.92
835.27	226.92
835.59	226.90
835.90	226.85
836.22	226.80
836.53	226.82
836.85	226.77
837.16	226.91
837.48	226.93
837.79	226.97
838.11	226.96
838.42	226.99
838.74	227.01
839.05	226.99
839.37	226.98
839.68	226.93
840.00	226.91
840.31	226.93
840.63	226.91
840.94	226.91
841.26	226.90
841.57	226.92
841.88	226.93
842.20	226.89
842.51	226.86
842.83	226.91
843.14	226.96
843.46	226.99
843.77	226.92
844.08	226.92
844.40	226.88
844.71	226.84
845.03	226.82
845.34	226.80
845.65	226.80
845.97	226.81
846.28	226.80
846.60	226.79
846.91	226.77
847.22	226.73
847.54	226.74
847.85	226.72
848.16	226.69
848.48	226.64
848.79	226.70
849.10	226.71
849.42	226.70
849.73	226.61
850.04	226.57
850.36	226.48
850.67	226.47
850.98	226.45
851.30	226.47
851.61	226.48
851.92	226.44
852.23	226.48
852.55	226.44
852.86	226.45
853.17	226.51
853.49	226.52
853.80	226.55
854.11	226.52
854.42	226.52
854.74	226.51
855.05	226.50
855.36	226.40
855.67	226.39
855.99	226.39
856.30	226.50
856.61	226.49
856.92	226.48
857.23	226.47
857.55	226.43
857.86	226.42
858.17	226.40
858.48	226.38
858.79	226.33
859.11	226.32
859.42	226.31
859.73	226.23
860.04	226.24
860.35	226.19
860.66	226.16
860.98	226.13
861.29	226.15
861.60	226.12
861.91	226.16
862.22	226.13
862.53	226.11
862.84	225.97
863.16	225.99
863.47	225.98
863.78	226.01
864.09	226.02
864.40	226.02
864.71	226.02
865.02	226.04
865.33	226.03
865.64	226.01
865.95	225.99
866.27	226.09
866.58	226.04
866.89	226.06
867.20	226.08
867.51	226.08
867.82	226.04
868.13	226.07
868.44	226.05
868.75	226.12
869.06	226.10
869.37	226.14
869.68	226.12
869.99	226.16
870.30	226.15
870.61	226.17
870.92	226.13
871.23	226.13
871.54	226.17
871.85	226.16
872.16	226.23
872.47	226.24
872.78	226.15
873.09	226.18
873.40	226.17
873.71	226.18
874.02	226.21
874.33	226.26
874.64	226.27
874.95	226.32
875.26	226.28
875.56	226.30
875.87	226.27
876.18	226.29
876.49	226.39
876.80	226.41
877.11	226.41
877.42	226.44
877.73	226.42
878.04	226.42
878.35	226.44
878.66	226.42
878.96	226.42
879.27	226.41
879.58	226.42
879.89	226.43
880.20	226.44
880.51	226.42
880.82	226.39
881.12	226.38
881.43	226.32
881.74	226.30
882.05	226.28
882.36	226.31
882.67	226.31
882.97	226.18
883.28	226.15
883.59	226.13
883.90	226.13
884.21	226.15
884.51	226.11
884.82	226.07
885.13	226.03
885.44	226.01
885.74	226.01
886.05	225.99
886.36	225.98
886.67	225.95
886.98	225.98
887.28	225.98
887.59	225.98
887.90	226.01
888.20	225.96
888.51	225.96
888.82	225.91
889.13	225.89
889.43	225.98
889.74	225.96
890.05	225.95
890.35	225.93
890.66	225.87
890.97	225.88
891.28	225.88
891.58	225.92
891.89	225.94
892.20	225.90
892.50	225.88
892.81	225.85
893.12	225.82
893.42	225.75
893.73	225.76
894.04	225.73
894.34	225.71
894.65	225.70
894.95	225.72
895.26	225.70
895.57	225.74
895.87	225.63
896.18	225.65
896.48	225.67
896.79	225.66
897.10	225.71
897.40	225.70
897.71	225.67
898.01	225.63
898.32	225.60
898.63	225.62
898.93	225.64
899.24	225.64
899.54	225.64
899.85	225.67
900.15	225.64
900.46	225.66
900.76	225.63
901.07	225.69
901.38	225.65
901.68	225.71
901.99	225.65
902.29	225.69
902.60	225.67
902.90	225.68
903.21	225.68
903.51	225.66
903.82	225.68
904.12	225.71
904.43	225.73
904.73	225.77
905.03	225.78
905.34	225.85
905.64	225.85
905.95	225.86
906.25	225.86
906.56	225.88
906.86	225.90
907.17	225.95
907.47	225.95
907.77	225.98
908.08	225.94
908.38	225.97
908.69	225.97
908.99	226.01
909.30	225.99
909.60	225.99
909.90	225.99
910.21	225.99
910.51	225.95
910.81	225.96
911.12	225.93
911.42	225.97
911.73	225.89
912.03	225.92
912.33	225.97
912.64	225.97
912.94	225.98
913.24	225.98
913.55	225.95
913.85	225.96
914.15	225.98
914.46	226.02
914.76	226.03
915.06	226.04
915.37	226.01
915.67	225.99
915.97	225.98
916.27	225.97
916.58	225.97
916.88	225.99
917.18	226.02
917.49	226.07
917.79	226.06
918.09	226.08
918.39	226.11
918.70	226.08
919.00	226.07
919.30	226.09
919.60	226.07
919.91	226.09
920.21	226.10
920.51	226.06
920.81	226.02
921.12	226.03
921.42	225.99
921.72	226.00
922.02	226.02
922.32	226.04
922.63	226.05
922.93	226.08
923.23	226.09
923.53	226.05
923.83	226.00
924.13	225.99
924.44	225.97
924.74	225.95
925.04	225.95
925.34	225.95
925.64	225.91
925.94	225.89
926.24	225.93
926.55	225.90
926.85	225.90
927.15	225.91
927.45	225.89
927.75	225.90
928.05	225.87
928.35	225.89
928.65	225.88
928.95	225.89
929.26	225.84
929.56	225.85
929.86	225.86
930.16	225.81
930.46	225.82
930.76	225.82
931.06	225.76
931.36	225.72
931.66	225.73
931.96	225.73
932.26	225.73
932.56	225.66
932.86	225.68
933.16	225.69
933.46	225.70
933.76	225.65
934.06	225.68
934.36	225.72
934.66	225.68
934.96	225.69
935.26	225.67
935.56	225.69
935.86	225.67
936.16	225.62
936.46	225.63
936.76	225.63
937.06	225.65
937.36	225.70
937.66	225.73
937.96	225.73
938.26	225.70
938.56	225.70
938.86	225.72
939.16	225.74
939.46	225.73
939.76	225.72
940.06	225.74
940.35	225.74
940.65	225.70
940.95	225.74
941.25	225.71
941.55	225.72
941.85	225.72
942.15	225.75
942.45	225.80
942.75	225.83
943.04	225.83
943.34	225.84
943.64	225.83
943.94	225.81
944.24	225.81
944.54	225.86
944.84	225.86
945.13	225.86
945.43	225.84
945.73	225.87
946.03	225.87
946.33	225.88
946.62	225.85
946.92	225.84
947.22	225.87
947.52	225.89
947.82	225.91
948.11	225.92
948.41	225.90
948.71	225.88
949.01	225.91
949.31	225.92
949.60	225.91
949.90	225.94
950.20	225.97
950.50	226.00
950.79	226.01
951.09	226.06
951.39	226.07
951.69	226.05
951.98	226.09
952.28	226.10
952.58	226.14
952.87	226.16
953.17	226.18
953.47	226.15
953.76	226.10
954.06	226.08
954.36	226.07
954.66	226.08
954.95	226.11
955.25	226.10
955.55	226.10
955.84	226.07
956.14	226.04
956.44	226.03
956.73	226.00
957.03	225.99
957.32	225.96
957.62	225.98
957.92	225.99
958.21	225.97
958.51	226.08
958.81	226.04
959.10	226.06
959.40	226.08
959.69	226.10
959.99	226.14
960.29	226.14
960.58	226.10
960.88	226.13
961.17	226.12
961.47	226.13
961.76	226.11
962.06	226.10
962.36	226.12
962.65	226.12
962.95	226.13
963.24	226.12
963.54	226.09
963.83	226.10
964.13	226.08
964.42	226.04
964.72	225.95
965.01	225.94
965.31	225.93
965.60	225.90
965.90	225.91
966.19	225.89
966.49	225.86
966.78	225.88
967.08	225.86
967.37	225.85
967.67	225.80
967.96	225.83
968.26	225.85
968.55	225.84
968.85	225.81
969.14	225.79
969.43	225.79
969.73	225.83
970.02	225.81
970.32	225.81
970.61	225.78
970.91	225.74
971.20	225.73
971.49	225.72
971.79	225.73
972.08	225.67
972.38	225.68
972.67	225.71
972.96	225.71
973.26	225.69
973.55	225.74
973.85	225.74
974.14	225.73
974.43	225.71
974.73	225.66
975.02	225.67
975.31	225.68
975.61	225.67
975.90	225.59
976.19	225.58
976.49	225.59
976.78	225.63
977.07	225.63
977.37	225.67
977.66	225.67
977.95	225.65
978.24	225.65
978.54	225.66
978.83	225.65
979.12	225.66
979.42	225.67
979.71	225.64
980.00	225.63
980.29	225.63
980.59	225.64
980.88	225.66
981.17	225.65
981.46	225.67
981.76	225.67
982.05	225.73
982.34	225.74
982.63	225.74
982.93	225.73
983.22	225.74
983.51	225.73
983.80	225.76
984.09	225.77
984.39	225.78
984.68	225.79
984.97	225.81
985.26	225.81
985.55	225.82
985.85	225.79
986.14	225.82
986.43	225.84
986.72	225.85
987.01	225.82
987.30	225.84
987.59	225.84
987.89	225.81
988.18	225.78
988.47	225.76
988.76	225.74
989.05	225.74
989.34	225.75
989.63	225.77
989.92	225.74
990.22	225.73
990.51	225.74
990.80	225.72
991.09	225.71
991.38	225.73
991.67	225.69
991.96	225.68
992.25	225.69
992.54	225.66
992.83	225.66
993.12	225.68
993.41	225.68
993.70	225.70
993.99	225.75
994.28	225.78
994.58	225.82
994.87	225.81
995.16	225.82
995.45	225.78
995.74	225.75
996.03	225.77
996.32	225.77
996.61	225.79
996.90	225.79
997.19	225.78
997.48	225.76
997.77	225.75
998.06	225.77
998.34	225.76
998.63	225.75
998.92	225.77
999.21	225.78
999.50	225.79
999.79	225.78
1000.08	225.75
1000.37	225.74
1000.66	225.72
1000.95	225.74
1001.24	225.76
1001.53	225.77
1001.82	225.74
1002.11	225.73
1002.40	225.73
1002.68	225.75
1002.97	225.83
1003.26	225.82
1003.55	225.86
1003.84	225.90
1004.13	225.93
1004.42	225.93
1004.71	225.89
1004.99	225.89
1005.28	225.89
1005.57	225.86
1005.86	225.87
1006.15	225.88
1006.44	225.87
1006.72	225.86
1007.01	225.85
1007.30	225.86
1007.59	225.86
1007.88	225.88
1008.17	225.89
1008.45	225.86
1008.74	225.83
1009.03	225.78
1009.32	225.76
1009.60	225.73
1009.89	225.69
1010.18	225.66
1010.47	225.64
1010.76	225.65
1011.04	225.65
1011.33	225.65
1011.62	225.68
1011.91	225.63
1012.19	225.64
1012.48	225.58
1012.77	225.58
1013.05	225.61
1013.34	225.58
1013.63	225.58
1013.92	225.58
1014.20	225.56
1014.49	225.56
1014.78	225.55
1015.06	225.50
1015.35	225.48
1015.64	225.47
1015.92	225.49
1016.21	225.48
1016.50	225.48
1016.78	225.49
1017.07	225.48
1017.36	225.49
1017.64	225.45
1017.93	225.47
1018.22	225.43
1018.50	225.47
1018.79	225.49
1019.08	225.47
1019.36	225.48
1019.65	225.48
1019.93	225.48
1020.22	225.48
1020.51	225.56
1020.79	225.54
1021.08	225.41
1021.36	225.38
1021.65	225.56
1021.94	225.97
1022.22	225.84
1022.51	225.33
1022.79	225.72
1023.08	225.55
1023.36	227.00
1023.65	225.04
>>>>>End Processed Spectral Data<<<<<
