SpectraSuite Data File
++++++++++++++++++++++++++++++++++++
Date: Fri Feb 01 16:13:37 EST 2013
User: group
Dark Spectrum Present: No
Reference Spectrum Present: No
Number of Sampled Component Spectra: 1
Spectrometers: USB2E7196
Integration Time (usec): 35000 (USB2E7196)
Spectra Averaged: 100 (USB2E7196)
Boxcar Smoothing: 10 (USB2E7196)
Correct for Electrical Dark: No (USB2E7196)
Strobe/Lamp Enabled: No (USB2E7196)
Correct for Detector Non-linearity: No (USB2E7196)
Correct for Stray Light: No (USB2E7196)
Number of Pixels in Processed Spectrum: 2048
>>>>>Begin Processed Spectral Data<<<<<
339.09	0.00
339.48	214.02
339.86	215.58
340.24	217.31
340.63	218.29
341.01	221.18
341.39	221.35
341.78	222.84
342.16	223.76
342.54	223.83
342.93	212.63
343.31	223.37
343.69	223.92
344.07	224.39
344.46	224.81
344.84	225.18
345.22	225.41
345.60	225.65
345.99	225.80
346.37	225.94
346.75	226.05
347.13	226.12
347.52	226.18
347.90	226.24
348.28	226.27
348.66	226.30
349.05	226.29
349.43	226.32
349.81	226.37
350.19	226.39
350.57	226.43
350.96	226.49
351.34	226.59
351.72	226.65
352.10	226.75
352.48	226.79
352.87	226.88
353.25	226.97
353.63	227.02
354.01	227.12
354.39	227.21
354.77	227.30
355.15	227.41
355.54	227.47
355.92	227.53
356.30	227.57
356.68	227.70
357.06	227.79
357.44	227.83
357.82	227.89
358.20	228.00
358.58	228.06
358.97	228.13
359.35	228.18
359.73	228.28
360.11	228.33
360.49	228.40
360.87	228.46
361.25	228.52
361.63	228.59
362.01	228.65
362.39	228.66
362.77	228.70
363.15	228.73
363.53	228.78
363.91	228.81
364.29	228.86
364.67	228.81
365.05	228.85
365.43	228.87
365.81	228.86
366.19	228.86
366.57	228.90
366.95	228.86
367.33	228.85
367.71	228.82
368.09	228.82
368.47	228.80
368.85	228.76
369.23	228.72
369.61	228.66
369.99	228.64
370.37	228.62
370.75	228.63
371.13	228.56
371.51	228.46
371.89	228.43
372.27	228.40
372.65	228.33
373.03	228.24
373.41	228.20
373.78	228.16
374.16	228.08
374.54	227.97
374.92	227.92
375.30	227.85
375.68	227.78
376.06	227.70
376.44	227.60
376.82	227.55
377.19	227.46
377.57	227.40
377.95	227.29
378.33	227.20
378.71	227.05
379.09	227.00
379.47	226.96
379.84	226.86
380.22	226.76
380.60	226.68
380.98	226.62
381.36	226.53
381.73	226.42
382.11	226.35
382.49	226.29
382.87	226.21
383.25	226.12
383.62	226.19
384.00	226.13
384.38	226.07
384.76	226.03
385.13	226.04
385.51	225.96
385.89	225.90
386.27	225.89
386.64	225.86
387.02	225.79
387.40	225.75
387.78	225.72
388.15	225.71
388.53	225.68
388.91	225.67
389.29	225.65
389.66	225.68
390.04	225.66
390.42	225.67
390.79	225.69
391.17	225.71
391.55	225.55
391.92	225.55
392.30	225.57
392.68	225.55
393.05	225.55
393.43	225.60
393.81	225.65
394.18	225.62
394.56	225.65
394.94	225.73
395.31	225.74
395.69	225.80
396.06	225.84
396.44	225.88
396.82	225.91
397.19	226.00
397.57	226.01
397.95	226.06
398.32	226.09
398.70	226.16
399.07	226.26
399.45	226.36
399.82	226.42
400.20	226.48
400.58	226.56
400.95	226.57
401.33	226.66
401.70	226.80
402.08	226.91
402.45	227.00
402.83	227.09
403.20	227.22
403.58	227.32
403.95	227.42
404.33	227.54
404.71	227.69
405.08	227.85
405.46	228.00
405.83	228.19
406.21	228.34
406.58	228.47
406.96	228.61
407.33	228.77
407.70	228.99
408.08	229.27
408.45	229.49
408.83	229.75
409.20	229.93
409.58	230.12
409.95	230.39
410.33	230.67
410.70	230.90
411.08	231.17
411.45	231.47
411.82	231.77
412.20	232.13
412.57	232.51
412.95	232.79
413.32	233.19
413.69	233.54
414.07	233.99
414.44	234.44
414.82	234.90
415.19	235.46
415.56	235.99
415.94	236.51
416.31	237.12
416.68	237.72
417.06	238.44
417.43	239.08
417.81	239.83
418.18	240.62
418.55	241.47
418.93	242.37
419.30	243.22
419.67	244.18
420.04	245.11
420.42	246.10
420.79	247.31
421.16	248.45
421.54	249.64
421.91	250.82
422.28	252.05
422.66	253.38
423.03	254.66
423.40	255.98
423.77	257.38
424.15	258.82
424.52	260.29
424.89	261.88
425.26	263.42
425.64	264.85
426.01	266.39
426.38	268.05
426.75	269.70
427.13	271.48
427.50	273.24
427.87	275.09
428.24	276.96
428.61	278.67
428.99	280.58
429.36	282.69
429.73	284.78
430.10	286.85
430.47	288.87
430.85	290.99
431.22	293.25
431.59	295.61
431.96	297.85
432.33	300.31
432.70	302.67
433.08	305.48
433.45	308.11
433.82	310.74
434.19	313.61
434.56	316.41
434.93	319.03
435.30	321.67
435.68	324.60
436.05	327.39
436.42	330.21
436.79	332.75
437.16	335.44
437.53	338.27
437.90	341.06
438.27	343.80
438.64	346.62
439.01	349.18
439.38	351.43
439.75	353.64
440.13	356.19
440.50	358.52
440.87	360.35
441.24	362.29
441.61	364.42
441.98	365.90
442.35	367.71
442.72	369.54
443.09	371.32
443.46	372.29
443.83	372.87
444.20	373.36
444.57	374.18
444.94	374.51
445.31	374.82
445.68	375.20
446.05	375.31
446.42	374.96
446.79	374.58
447.16	374.10
447.53	373.75
447.90	372.56
448.27	371.41
448.64	369.88
449.01	368.79
449.37	366.83
449.74	364.96
450.11	362.72
450.48	360.29
450.85	357.78
451.22	355.66
451.59	353.68
451.96	351.76
452.33	349.22
452.70	346.83
453.07	343.99
453.43	341.10
453.80	338.34
454.17	335.64
454.54	333.08
454.91	330.40
455.28	327.75
455.65	325.32
456.02	322.87
456.38	320.72
456.75	318.05
457.12	315.79
457.49	313.56
457.86	311.42
458.23	309.56
458.59	307.53
458.96	305.44
459.33	303.56
459.70	301.73
460.07	300.22
460.43	298.50
460.80	296.90
461.17	295.46
461.54	293.97
461.91	292.57
462.27	291.15
462.64	289.92
463.01	288.53
463.38	287.22
463.74	285.84
464.11	284.65
464.48	283.62
464.85	282.52
465.21	281.66
465.58	280.72
465.95	279.60
466.32	278.68
466.68	277.76
467.05	276.89
467.42	276.00
467.78	275.05
468.15	274.18
468.52	273.52
468.88	272.65
469.25	271.88
469.62	271.23
469.98	270.54
470.35	269.91
470.72	269.35
471.08	268.69
471.45	268.16
471.82	267.63
472.18	267.04
472.55	266.65
472.92	266.12
473.28	265.67
473.65	265.25
474.02	264.81
474.38	264.46
474.75	264.13
475.11	263.80
475.48	263.52
475.85	263.30
476.21	263.09
476.58	262.95
476.94	262.79
477.31	262.64
477.67	262.47
478.04	262.34
478.41	262.26
478.77	262.30
479.14	262.27
479.50	262.29
479.87	262.38
480.23	262.45
480.60	262.56
480.96	262.65
481.33	262.88
481.69	263.10
482.06	263.27
482.42	263.46
482.79	263.71
483.15	264.00
483.52	264.38
483.88	264.70
484.25	265.08
484.61	265.53
484.98	266.00
485.34	266.56
485.71	267.17
486.07	267.78
486.44	268.42
486.80	269.12
487.17	269.83
487.53	270.65
487.90	271.50
488.26	272.39
488.62	273.37
488.99	274.34
489.35	275.38
489.72	276.53
490.08	277.76
490.44	278.98
490.81	280.35
491.17	281.70
491.54	283.19
491.90	284.76
492.26	286.41
492.63	288.16
492.99	289.98
493.36	291.84
493.72	293.86
494.08	295.93
494.45	298.14
494.81	300.55
495.17	302.98
495.54	305.52
495.90	308.23
496.26	311.05
496.63	314.00
496.99	317.14
497.35	320.42
497.72	323.83
498.08	327.35
498.44	331.02
498.80	334.93
499.17	339.01
499.53	343.19
499.89	347.60
500.26	352.10
500.62	356.72
500.98	361.74
501.34	366.87
501.71	372.23
502.07	377.73
502.43	383.31
502.79	389.13
503.16	395.27
503.52	401.59
503.88	408.04
504.24	414.71
504.60	421.57
504.97	428.73
505.33	436.16
505.69	443.88
506.05	451.71
506.41	459.61
506.78	467.75
507.14	476.20
507.50	484.89
507.86	493.99
508.22	503.21
508.59	512.39
508.95	521.97
509.31	531.78
509.67	541.84
510.03	552.15
510.39	562.72
510.75	573.52
511.12	584.42
511.48	595.70
511.84	607.12
512.20	618.63
512.56	630.54
512.92	642.52
513.28	654.86
513.64	667.29
514.00	680.03
514.37	693.02
514.73	706.02
515.09	719.05
515.45	732.30
515.81	745.89
516.17	759.86
516.53	774.04
516.89	788.12
517.25	802.33
517.61	816.68
517.97	831.11
518.33	845.49
518.69	860.23
519.05	875.11
519.41	890.21
519.77	905.75
520.13	921.13
520.49	936.57
520.85	951.87
521.21	967.52
521.57	983.67
521.93	999.34
522.29	1015.77
522.65	1031.96
523.01	1048.09
523.37	1064.10
523.73	1080.27
524.09	1096.27
524.45	1112.57
524.81	1129.15
525.17	1145.93
525.53	1162.78
525.89	1179.50
526.25	1196.30
526.61	1212.74
526.97	1229.52
527.33	1246.00
527.68	1262.55
528.04	1279.00
528.40	1295.61
528.76	1312.61
529.12	1329.03
529.48	1345.86
529.84	1361.71
530.20	1378.32
530.56	1395.15
530.91	1412.56
531.27	1429.23
531.63	1445.67
531.99	1462.24
532.35	1478.29
532.71	1494.18
533.07	1510.47
533.42	1526.54
533.78	1542.48
534.14	1558.73
534.50	1573.97
534.86	1589.60
535.21	1604.79
535.57	1620.69
535.93	1636.07
536.29	1650.78
536.65	1665.90
537.00	1680.66
537.36	1695.98
537.72	1710.41
538.08	1724.79
538.44	1738.46
538.79	1752.36
539.15	1765.84
539.51	1779.44
539.87	1793.58
540.22	1807.06
540.58	1820.56
540.94	1833.60
541.29	1846.40
541.65	1858.90
542.01	1872.00
542.37	1884.39
542.72	1896.66
543.08	1908.39
543.44	1920.70
543.79	1931.91
544.15	1942.79
544.51	1954.28
544.87	1965.21
545.22	1975.93
545.58	1986.29
545.94	1995.96
546.29	2005.67
546.65	2015.52
547.01	2024.74
547.36	2033.38
547.72	2041.87
548.07	2049.82
548.43	2057.89
548.79	2065.85
549.14	2073.44
549.50	2080.69
549.86	2088.26
550.21	2095.61
550.57	2102.80
550.92	2109.48
551.28	2116.56
551.64	2123.58
551.99	2130.04
552.35	2136.12
552.70	2142.20
553.06	2148.17
553.41	2154.47
553.77	2160.46
554.13	2166.45
554.48	2172.52
554.84	2178.05
555.19	2183.42
555.55	2188.50
555.90	2193.15
556.26	2198.17
556.61	2202.71
556.97	2207.20
557.32	2211.22
557.68	2215.41
558.03	2219.48
558.39	2223.03
558.74	2227.60
559.10	2231.64
559.45	2235.29
559.81	2239.56
560.16	2243.46
560.52	2246.63
560.87	2250.12
561.23	2252.79
561.58	2255.71
561.94	2258.26
562.29	2260.64
562.64	2263.36
563.00	2265.96
563.35	2269.53
563.71	2272.56
564.06	2275.86
564.42	2278.63
564.77	2281.34
565.12	2283.64
565.48	2285.67
565.83	2287.63
566.19	2288.97
566.54	2289.72
566.89	2290.94
567.25	2291.52
567.60	2292.73
567.96	2294.45
568.31	2295.21
568.66	2296.32
569.02	2297.00
569.37	2297.34
569.72	2298.20
570.08	2298.45
570.43	2298.59
570.78	2297.89
571.14	2296.42
571.49	2295.12
571.84	2294.79
572.20	2293.65
572.55	2292.57
572.90	2290.98
573.26	2289.68
573.61	2288.05
573.96	2286.36
574.31	2283.43
574.67	2280.59
575.02	2277.07
575.37	2273.60
575.72	2269.93
576.08	2266.73
576.43	2263.32
576.78	2259.68
577.13	2256.39
577.49	2253.10
577.84	2249.58
578.19	2245.74
578.54	2242.11
578.90	2237.93
579.25	2232.31
579.60	2227.38
579.95	2222.38
580.30	2217.54
580.66	2212.31
581.01	2207.41
581.36	2202.57
581.71	2198.43
582.06	2194.04
582.42	2189.62
582.77	2184.52
583.12	2179.94
583.47	2175.32
583.82	2170.45
584.17	2165.37
584.53	2160.00
584.88	2154.46
585.23	2148.80
585.58	2143.50
585.93	2138.11
586.28	2133.38
586.63	2128.63
586.98	2123.67
587.34	2119.04
587.69	2113.96
588.04	2108.93
588.39	2103.21
588.74	2096.71
589.09	2090.50
589.44	2083.69
589.79	2077.60
590.14	2071.98
590.49	2065.34
590.84	2058.64
591.19	2052.68
591.54	2046.11
591.89	2038.88
592.25	2032.28
592.60	2025.06
592.95	2017.58
593.30	2010.24
593.65	2002.65
594.00	1995.46
594.35	1988.20
594.70	1980.02
595.05	1972.97
595.40	1965.59
595.75	1958.15
596.10	1952.10
596.45	1945.42
596.80	1939.18
597.15	1932.64
597.50	1925.61
597.85	1919.14
598.19	1912.75
598.54	1905.74
598.89	1899.28
599.24	1893.29
599.59	1886.60
599.94	1880.40
600.29	1874.04
600.64	1867.34
600.99	1859.84
601.34	1853.11
601.69	1845.97
602.04	1839.19
602.39	1831.90
602.74	1825.13
603.08	1818.35
603.43	1811.61
603.78	1804.38
604.13	1797.18
604.48	1789.93
604.83	1782.96
605.18	1776.25
605.53	1768.29
605.87	1760.25
606.22	1752.90
606.57	1744.97
606.92	1737.52
607.27	1730.37
607.62	1723.50
607.96	1716.37
608.31	1709.95
608.66	1702.32
609.01	1694.99
609.36	1687.61
609.70	1679.59
610.05	1671.51
610.40	1663.85
610.75	1655.49
611.10	1647.80
611.44	1639.46
611.79	1631.51
612.14	1622.88
612.49	1613.66
612.83	1605.17
613.18	1596.97
613.53	1588.96
613.88	1580.48
614.22	1572.22
614.57	1563.55
614.92	1555.53
615.27	1548.02
615.61	1539.72
615.96	1531.65
616.31	1523.83
616.65	1516.31
617.00	1508.77
617.35	1501.10
617.70	1492.78
618.04	1484.32
618.39	1476.01
618.74	1468.43
619.08	1460.12
619.43	1452.63
619.78	1445.78
620.12	1438.67
620.47	1431.25
620.82	1423.03
621.16	1415.60
621.51	1407.95
621.85	1400.25
622.20	1391.69
622.55	1383.28
622.89	1375.29
623.24	1367.63
623.59	1360.33
623.93	1352.83
624.28	1345.60
624.62	1338.10
624.97	1331.00
625.32	1324.14
625.66	1317.20
626.01	1310.14
626.35	1302.72
626.70	1294.90
627.04	1287.19
627.39	1279.40
627.73	1272.00
628.08	1265.12
628.43	1257.87
628.77	1250.59
629.12	1243.17
629.46	1236.00
629.81	1228.54
630.15	1221.37
630.50	1214.07
630.84	1205.89
631.19	1198.00
631.53	1190.33
631.88	1182.86
632.22	1175.17
632.57	1167.84
632.91	1160.28
633.26	1152.68
633.60	1145.22
633.95	1138.02
634.29	1130.90
634.64	1124.25
634.98	1116.90
635.32	1109.67
635.67	1102.92
636.01	1096.31
636.36	1089.47
636.70	1082.88
637.05	1076.32
637.39	1069.87
637.73	1063.36
638.08	1057.54
638.42	1051.48
638.77	1045.16
639.11	1038.55
639.45	1032.19
639.80	1025.56
640.14	1019.11
640.49	1012.74
640.83	1006.48
641.17	1000.43
641.52	994.15
641.86	987.64
642.20	981.80
642.55	975.55
642.89	969.14
643.23	962.49
643.58	956.78
643.92	950.70
644.26	944.71
644.61	938.64
644.95	932.60
645.29	926.05
645.64	919.29
645.98	912.99
646.32	907.06
646.66	901.05
647.01	895.27
647.35	889.55
647.69	883.59
648.04	878.03
648.38	872.20
648.72	866.27
649.06	860.20
649.41	854.27
649.75	848.29
650.09	842.33
650.43	836.63
650.78	830.49
651.12	824.49
651.46	818.75
651.80	813.10
652.14	807.74
652.49	802.30
652.83	797.15
653.17	791.46
653.51	785.78
653.85	780.31
654.20	774.63
654.54	768.70
654.88	762.92
655.22	757.01
655.56	751.25
655.90	745.65
656.25	740.43
656.59	735.04
656.93	729.92
657.27	724.78
657.61	719.31
657.95	714.19
658.29	709.13
658.64	703.86
658.98	698.46
659.32	692.98
659.66	687.80
660.00	682.46
660.34	677.50
660.68	672.60
661.02	667.64
661.36	662.98
661.70	658.47
662.05	654.18
662.39	649.96
662.73	645.51
663.07	641.15
663.41	636.67
663.75	632.20
664.09	627.67
664.43	623.25
664.77	619.17
665.11	614.91
665.45	610.67
665.79	606.58
666.13	602.46
666.47	598.34
666.81	594.16
667.15	590.09
667.49	586.23
667.83	582.35
668.17	578.40
668.51	574.34
668.85	570.30
669.19	566.45
669.53	562.55
669.87	558.70
670.21	555.01
670.55	551.38
670.89	547.99
671.23	544.61
671.57	541.08
671.91	537.57
672.25	534.06
672.58	530.62
672.92	527.24
673.26	524.08
673.60	520.91
673.94	517.80
674.28	514.88
674.62	511.86
674.96	508.83
675.30	505.88
675.64	502.97
675.97	500.17
676.31	497.31
676.65	494.43
676.99	491.73
677.33	488.84
677.67	486.05
678.01	483.05
678.34	480.00
678.68	477.14
679.02	474.32
679.36	471.53
679.70	468.83
680.04	466.05
680.37	463.21
680.71	460.44
681.05	457.82
681.39	455.10
681.73	452.43
682.06	449.86
682.40	447.34
682.74	444.69
683.08	442.10
683.42	439.48
683.75	436.94
684.09	434.38
684.43	431.89
684.77	429.47
685.10	427.12
685.44	424.81
685.78	422.51
686.12	420.22
686.45	417.93
686.79	415.59
687.13	413.44
687.46	411.23
687.80	409.04
688.14	406.81
688.48	404.76
688.81	402.58
689.15	400.41
689.49	398.24
689.82	396.17
690.16	394.16
690.50	392.23
690.83	390.29
691.17	388.29
691.51	386.43
691.84	384.51
692.18	382.53
692.52	380.60
692.85	378.69
693.19	376.83
693.52	375.04
693.86	373.21
694.20	371.38
694.53	369.55
694.87	367.71
695.21	365.92
695.54	364.05
695.88	362.27
696.21	360.50
696.55	358.85
696.88	357.22
697.22	355.49
697.56	353.82
697.89	352.17
698.23	350.59
698.56	348.93
698.90	347.38
699.23	345.73
699.57	344.13
699.90	342.56
700.24	340.99
700.58	339.42
700.91	337.94
701.25	336.52
701.58	335.19
701.92	333.83
702.25	332.46
702.59	331.13
702.92	329.82
703.26	328.57
703.59	327.24
703.93	326.04
704.26	324.79
704.60	323.50
704.93	322.21
705.26	320.93
705.60	319.75
705.93	318.55
706.27	317.56
706.60	316.51
706.94	315.41
707.27	314.28
707.61	313.20
707.94	312.15
708.27	311.04
708.61	309.89
708.94	308.89
709.28	307.92
709.61	306.98
709.94	306.00
710.28	304.94
710.61	303.97
710.95	302.90
711.28	302.02
711.61	301.10
711.95	300.19
712.28	299.29
712.61	298.35
712.95	297.41
713.28	296.46
713.61	295.54
713.95	294.68
714.28	293.84
714.61	293.00
714.95	292.18
715.28	291.35
715.61	290.51
715.95	289.65
716.28	288.77
716.61	287.91
716.95	287.11
717.28	286.38
717.61	285.61
717.94	284.85
718.28	284.05
718.61	283.32
718.94	282.63
719.27	281.91
719.61	281.26
719.94	280.63
720.27	279.95
720.60	279.32
720.94	278.68
721.27	278.11
721.60	277.52
721.93	276.92
722.27	276.35
722.60	275.83
722.93	275.25
723.26	274.73
723.59	274.15
723.93	273.57
724.26	273.03
724.59	272.50
724.92	271.98
725.25	271.46
725.59	270.96
725.92	270.44
726.25	269.95
726.58	269.46
726.91	268.98
727.24	268.51
727.57	268.02
727.91	267.47
728.24	267.01
728.57	266.49
728.90	266.04
729.23	265.57
729.56	265.14
729.89	264.70
730.22	264.19
730.55	263.74
730.89	263.30
731.22	262.87
731.55	262.41
731.88	262.00
732.21	261.56
732.54	261.12
732.87	260.73
733.20	260.35
733.53	259.96
733.86	259.57
734.19	259.17
734.52	258.80
734.85	258.56
735.18	258.14
735.51	257.78
735.84	257.41
736.17	257.05
736.50	256.62
736.83	256.35
737.16	256.02
737.49	255.68
737.82	255.34
738.15	255.00
738.48	254.63
738.81	254.33
739.14	254.01
739.47	253.70
739.80	253.37
740.13	253.01
740.46	252.70
740.79	252.34
741.12	252.03
741.45	251.67
741.78	251.28
742.11	251.00
742.44	250.70
742.77	250.39
743.10	250.09
743.43	249.80
743.75	249.44
744.08	249.28
744.41	249.00
744.74	248.73
745.07	248.45
745.40	248.23
745.73	248.01
746.06	247.74
746.39	247.45
746.71	247.18
747.04	246.93
747.37	246.69
747.70	246.46
748.03	246.21
748.36	246.02
748.68	245.79
749.01	245.54
749.34	245.32
749.67	245.10
750.00	244.86
750.33	244.68
750.65	244.48
750.98	244.15
751.31	243.96
751.64	243.75
751.97	243.56
752.29	243.35
752.62	243.07
752.95	242.83
753.28	242.62
753.60	242.41
753.93	242.24
754.26	242.02
754.59	241.81
754.91	241.61
755.24	241.40
755.57	241.20
755.90	241.01
756.22	240.83
756.55	240.61
756.88	240.42
757.20	240.19
757.53	240.00
757.86	239.83
758.19	239.68
758.51	239.51
758.84	239.31
759.17	239.15
759.49	239.01
759.82	238.96
760.15	238.81
760.47	238.71
760.80	238.53
761.13	238.39
761.45	238.27
761.78	238.14
762.11	237.98
762.43	237.86
762.76	237.74
763.08	237.61
763.41	237.49
763.74	237.42
764.06	237.27
764.39	237.12
764.71	236.98
765.04	236.83
765.37	236.70
765.69	236.59
766.02	236.46
766.34	236.34
766.67	236.14
767.00	236.04
767.32	235.96
767.65	235.91
767.97	235.79
768.30	235.64
768.62	235.50
768.95	235.40
769.27	235.29
769.60	235.17
769.92	235.04
770.25	234.93
770.57	234.74
770.90	234.69
771.22	234.62
771.55	234.54
771.87	234.46
772.20	234.37
772.52	234.37
772.85	234.38
773.17	234.26
773.50	234.19
773.82	234.10
774.15	233.97
774.47	233.81
774.80	233.72
775.12	233.64
775.45	233.60
775.77	233.52
776.09	233.44
776.42	233.34
776.74	233.31
777.07	233.23
777.39	233.14
777.72	233.03
778.04	232.98
778.36	232.88
778.69	232.78
779.01	232.74
779.33	232.58
779.66	232.40
779.98	232.32
780.31	232.24
780.63	232.20
780.95	232.13
781.28	232.10
781.60	232.01
781.92	231.91
782.25	231.81
782.57	231.72
782.89	231.64
783.22	231.60
783.54	231.48
783.86	231.45
784.19	231.40
784.51	231.37
784.83	231.25
785.16	231.19
785.48	231.15
785.80	231.05
786.12	231.00
786.45	230.94
786.77	230.90
787.09	230.85
787.42	230.75
787.74	230.71
788.06	230.63
788.38	230.59
788.71	230.59
789.03	230.56
789.35	230.53
789.67	230.47
789.99	230.42
790.32	230.41
790.64	230.37
790.96	230.39
791.28	230.30
791.61	230.29
791.93	230.26
792.25	230.21
792.57	230.26
792.89	230.18
793.21	230.17
793.54	230.14
793.86	230.09
794.18	230.09
794.50	230.05
794.82	230.02
795.14	230.00
795.47	229.98
795.79	229.93
796.11	229.89
796.43	229.87
796.75	229.81
797.07	229.76
797.39	229.72
797.71	229.64
798.04	229.63
798.36	229.60
798.68	229.56
799.00	229.55
799.32	229.43
799.64	229.42
799.96	229.37
800.28	229.35
800.60	229.33
800.92	229.30
801.24	229.29
801.56	229.26
801.89	229.20
802.21	229.17
802.53	229.09
802.85	229.08
803.17	229.13
803.49	229.11
803.81	229.06
804.13	229.03
804.45	228.96
804.77	228.98
805.09	228.96
805.41	228.97
805.73	228.94
806.05	228.88
806.37	228.88
806.69	228.85
807.01	228.82
807.33	228.79
807.65	228.73
807.97	228.75
808.28	228.71
808.60	228.70
808.92	228.66
809.24	228.74
809.56	228.71
809.88	228.61
810.20	228.59
810.52	228.59
810.84	228.55
811.16	228.54
811.48	228.48
811.80	228.50
812.12	228.43
812.43	228.41
812.75	228.44
813.07	228.41
813.39	228.39
813.71	228.34
814.03	228.37
814.35	228.32
814.67	228.20
814.98	228.18
815.30	228.16
815.62	228.12
815.94	228.05
816.26	228.07
816.58	228.03
816.89	227.99
817.21	227.95
817.53	227.93
817.85	227.91
818.17	227.88
818.48	227.79
818.80	227.79
819.12	227.78
819.44	227.75
819.76	227.70
820.07	227.71
820.39	227.66
820.71	227.61
821.03	227.61
821.34	227.61
821.66	227.61
821.98	227.64
822.30	227.64
822.61	227.67
822.93	227.61
823.25	227.62
823.57	227.62
823.88	227.61
824.20	227.60
824.52	227.62
824.83	227.62
825.15	227.61
825.47	227.59
825.79	227.55
826.10	227.53
826.42	227.53
826.74	227.51
827.05	227.53
827.37	227.53
827.69	227.51
828.00	227.50
828.32	227.48
828.64	227.42
828.95	227.46
829.27	227.43
829.58	227.42
829.90	227.42
830.22	227.39
830.53	227.41
830.85	227.40
831.17	227.35
831.48	227.32
831.80	227.31
832.11	227.29
832.43	227.26
832.75	227.24
833.06	227.28
833.38	227.22
833.69	227.20
834.01	227.21
834.32	227.19
834.64	227.18
834.96	227.21
835.27	227.20
835.59	227.17
835.90	227.16
836.22	227.15
836.53	227.14
836.85	227.17
837.16	227.24
837.48	227.23
837.79	227.26
838.11	227.25
838.42	227.25
838.74	227.26
839.05	227.26
839.37	227.24
839.68	227.22
840.00	227.24
840.31	227.24
840.63	227.22
840.94	227.26
841.26	227.22
841.57	227.17
841.88	227.16
842.20	227.13
842.51	227.09
842.83	227.11
843.14	227.17
843.46	227.17
843.77	227.07
844.08	227.08
844.40	227.06
844.71	227.04
845.03	227.05
845.34	227.05
845.65	227.06
845.97	227.02
846.28	226.99
846.60	226.99
846.91	226.98
847.22	226.96
847.54	226.92
847.85	226.95
848.16	226.93
848.48	226.94
848.79	226.95
849.10	226.97
849.42	226.95
849.73	226.84
850.04	226.83
850.36	226.79
850.67	226.78
850.98	226.77
851.30	226.80
851.61	226.78
851.92	226.77
852.23	226.78
852.55	226.82
852.86	226.84
853.17	226.81
853.49	226.81
853.80	226.85
854.11	226.88
854.42	226.88
854.74	226.89
855.05	226.87
855.36	226.83
855.67	226.85
855.99	226.85
856.30	226.99
856.61	226.96
856.92	226.97
857.23	226.99
857.55	226.97
857.86	226.96
858.17	226.96
858.48	226.93
858.79	226.92
859.11	226.91
859.42	226.90
859.73	226.89
860.04	226.90
860.35	226.86
860.66	226.83
860.98	226.83
861.29	226.84
861.60	226.81
861.91	226.82
862.22	226.78
862.53	226.76
862.84	226.64
863.16	226.66
863.47	226.66
863.78	226.64
864.09	226.65
864.40	226.65
864.71	226.67
865.02	226.68
865.33	226.68
865.64	226.67
865.95	226.66
866.27	226.75
866.58	226.72
866.89	226.76
867.20	226.75
867.51	226.73
867.82	226.73
868.13	226.79
868.44	226.75
868.75	226.75
869.06	226.75
869.37	226.75
869.68	226.73
869.99	226.74
870.30	226.73
870.61	226.74
870.92	226.72
871.23	226.73
871.54	226.71
871.85	226.71
872.16	226.73
872.47	226.72
872.78	226.64
873.09	226.67
873.40	226.63
873.71	226.63
874.02	226.62
874.33	226.60
874.64	226.57
874.95	226.62
875.26	226.62
875.56	226.66
875.87	226.65
876.18	226.67
876.49	226.77
876.80	226.80
877.11	226.80
877.42	226.81
877.73	226.80
878.04	226.81
878.35	226.81
878.66	226.80
878.96	226.83
879.27	226.82
879.58	226.80
879.89	226.80
880.20	226.82
880.51	226.85
880.82	226.87
881.12	226.87
881.43	226.87
881.74	226.83
882.05	226.80
882.36	226.83
882.67	226.81
882.97	226.67
883.28	226.61
883.59	226.58
883.90	226.57
884.21	226.57
884.51	226.54
884.82	226.51
885.13	226.53
885.44	226.52
885.74	226.53
886.05	226.52
886.36	226.53
886.67	226.47
886.98	226.51
887.28	226.48
887.59	226.48
887.90	226.42
888.20	226.43
888.51	226.44
888.82	226.42
889.13	226.42
889.43	226.51
889.74	226.52
890.05	226.51
890.35	226.49
890.66	226.46
890.97	226.50
891.28	226.49
891.58	226.49
891.89	226.47
892.20	226.47
892.50	226.46
892.81	226.45
893.12	226.46
893.42	226.39
893.73	226.38
894.04	226.36
894.34	226.39
894.65	226.36
894.95	226.34
895.26	226.34
895.57	226.36
895.87	226.29
896.18	226.30
896.48	226.31
896.79	226.30
897.10	226.33
897.40	226.30
897.71	226.32
898.01	226.30
898.32	226.30
898.63	226.29
898.93	226.29
899.24	226.29
899.54	226.31
899.85	226.31
900.15	226.31
900.46	226.30
900.76	226.30
901.07	226.32
901.38	226.30
901.68	226.31
901.99	226.27
902.29	226.25
902.60	226.27
902.90	226.26
903.21	226.26
903.51	226.22
903.82	226.27
904.12	226.28
904.43	226.28
904.73	226.31
905.03	226.31
905.34	226.39
905.64	226.40
905.95	226.39
906.25	226.39
906.56	226.41
906.86	226.42
907.17	226.45
907.47	226.44
907.77	226.46
908.08	226.45
908.38	226.46
908.69	226.49
908.99	226.50
909.30	226.53
909.60	226.54
909.90	226.57
910.21	226.51
910.51	226.46
910.81	226.45
911.12	226.47
911.42	226.46
911.73	226.39
912.03	226.37
912.33	226.40
912.64	226.38
912.94	226.36
913.24	226.36
913.55	226.33
913.85	226.36
914.15	226.37
914.46	226.35
914.76	226.36
915.06	226.38
915.37	226.35
915.67	226.37
915.97	226.37
916.27	226.37
916.58	226.38
916.88	226.39
917.18	226.39
917.49	226.43
917.79	226.46
918.09	226.48
918.39	226.53
918.70	226.53
919.00	226.56
919.30	226.63
919.60	226.65
919.91	226.61
920.21	226.61
920.51	226.61
920.81	226.62
921.12	226.61
921.42	226.61
921.72	226.63
922.02	226.59
922.32	226.62
922.63	226.61
922.93	226.67
923.23	226.67
923.53	226.67
923.83	226.60
924.13	226.58
924.44	226.57
924.74	226.57
925.04	226.57
925.34	226.55
925.64	226.50
925.94	226.46
926.24	226.53
926.55	226.52
926.85	226.50
927.15	226.49
927.45	226.49
927.75	226.46
928.05	226.43
928.35	226.42
928.65	226.42
928.95	226.45
929.26	226.40
929.56	226.41
929.86	226.41
930.16	226.40
930.46	226.37
930.76	226.36
931.06	226.34
931.36	226.29
931.66	226.31
931.96	226.34
932.26	226.33
932.56	226.28
932.86	226.29
933.16	226.29
933.46	226.30
933.76	226.27
934.06	226.29
934.36	226.33
934.66	226.33
934.96	226.31
935.26	226.28
935.56	226.28
935.86	226.25
936.16	226.25
936.46	226.24
936.76	226.26
937.06	226.24
937.36	226.18
937.66	226.19
937.96	226.18
938.26	226.14
938.56	226.17
938.86	226.16
939.16	226.17
939.46	226.19
939.76	226.15
940.06	226.17
940.35	226.13
940.65	226.06
940.95	226.08
941.25	226.04
941.55	226.02
941.85	226.02
942.15	226.07
942.45	226.12
942.75	226.09
943.04	226.10
943.34	226.12
943.64	226.14
943.94	226.13
944.24	226.11
944.54	226.14
944.84	226.14
945.13	226.14
945.43	226.14
945.73	226.15
946.03	226.19
946.33	226.16
946.62	226.16
946.92	226.18
947.22	226.15
947.52	226.17
947.82	226.23
948.11	226.25
948.41	226.25
948.71	226.21
949.01	226.25
949.31	226.23
949.60	226.23
949.90	226.25
950.20	226.26
950.50	226.28
950.79	226.25
951.09	226.27
951.39	226.25
951.69	226.21
951.98	226.20
952.28	226.22
952.58	226.24
952.87	226.25
953.17	226.28
953.47	226.32
953.76	226.32
954.06	226.27
954.36	226.22
954.66	226.20
954.95	226.22
955.25	226.22
955.55	226.23
955.84	226.20
956.14	226.18
956.44	226.18
956.73	226.15
957.03	226.17
957.32	226.17
957.62	226.18
957.92	226.19
958.21	226.22
958.51	226.28
958.81	226.27
959.10	226.28
959.40	226.30
959.69	226.30
959.99	226.30
960.29	226.31
960.58	226.32
960.88	226.36
961.17	226.34
961.47	226.33
961.76	226.33
962.06	226.37
962.36	226.38
962.65	226.43
962.95	226.42
963.24	226.41
963.54	226.39
963.83	226.39
964.13	226.41
964.42	226.34
964.72	226.25
965.01	226.28
965.31	226.29
965.60	226.26
965.90	226.29
966.19	226.27
966.49	226.27
966.78	226.23
967.08	226.21
967.37	226.21
967.67	226.23
967.96	226.22
968.26	226.18
968.55	226.17
968.85	226.15
969.14	226.18
969.43	226.16
969.73	226.17
970.02	226.17
970.32	226.18
970.61	226.23
970.91	226.23
971.20	226.22
971.49	226.19
971.79	226.22
972.08	226.16
972.38	226.13
972.67	226.13
972.96	226.17
973.26	226.15
973.55	226.20
973.85	226.17
974.14	226.18
974.43	226.20
974.73	226.18
975.02	226.14
975.31	226.15
975.61	226.19
975.90	226.16
976.19	226.17
976.49	226.13
976.78	226.12
977.07	226.10
977.37	226.07
977.66	226.08
977.95	226.03
978.24	226.05
978.54	226.08
978.83	226.07
979.12	226.09
979.42	226.07
979.71	226.02
980.00	226.04
980.29	226.04
980.59	226.00
980.88	226.03
981.17	226.02
981.46	226.00
981.76	225.94
982.05	225.98
982.34	225.97
982.63	225.97
982.93	225.97
983.22	226.01
983.51	226.04
983.80	226.05
984.09	226.11
984.39	226.07
984.68	226.10
984.97	226.10
985.26	226.09
985.55	226.09
985.85	226.09
986.14	226.07
986.43	226.07
986.72	226.10
987.01	226.07
987.30	226.06
987.59	226.08
987.89	226.09
988.18	226.08
988.47	226.06
988.76	226.05
989.05	226.04
989.34	226.02
989.63	226.02
989.92	225.98
990.22	225.95
990.51	225.96
990.80	225.95
991.09	225.99
991.38	226.02
991.67	226.01
991.96	226.03
992.25	226.03
992.54	226.02
992.83	226.02
993.12	226.03
993.41	226.06
993.70	226.09
993.99	226.13
994.28	226.12
994.58	226.17
994.87	226.18
995.16	226.19
995.45	226.21
995.74	226.22
996.03	226.24
996.32	226.26
996.61	226.30
996.90	226.27
997.19	226.24
997.48	226.23
997.77	226.24
998.06	226.25
998.34	226.26
998.63	226.28
998.92	226.27
999.21	226.28
999.50	226.30
999.79	226.27
1000.08	226.27
1000.37	226.28
1000.66	226.25
1000.95	226.29
1001.24	226.30
1001.53	226.31
1001.82	226.27
1002.11	226.26
1002.40	226.29
1002.68	226.29
1002.97	226.39
1003.26	226.39
1003.55	226.37
1003.84	226.37
1004.13	226.39
1004.42	226.39
1004.71	226.33
1004.99	226.33
1005.28	226.36
1005.57	226.37
1005.86	226.38
1006.15	226.36
1006.44	226.32
1006.72	226.33
1007.01	226.32
1007.30	226.31
1007.59	226.27
1007.88	226.28
1008.17	226.28
1008.45	226.24
1008.74	226.22
1009.03	226.15
1009.32	226.12
1009.60	226.08
1009.89	226.08
1010.18	226.03
1010.47	226.01
1010.76	226.05
1011.04	226.04
1011.33	226.03
1011.62	226.01
1011.91	226.00
1012.19	226.03
1012.48	226.07
1012.77	226.06
1013.05	226.06
1013.34	226.08
1013.63	226.08
1013.92	226.07
1014.20	226.06
1014.49	226.04
1014.78	225.99
1015.06	225.97
1015.35	226.02
1015.64	226.03
1015.92	226.04
1016.21	226.04
1016.50	226.06
1016.78	226.03
1017.07	226.07
1017.36	226.03
1017.64	226.01
1017.93	225.99
1018.22	225.95
1018.50	225.90
1018.79	225.88
1019.08	225.86
1019.36	225.82
1019.65	225.79
1019.93	225.86
1020.22	225.87
1020.51	225.92
1020.79	225.92
1021.08	225.76
1021.36	225.01
1021.65	225.70
1021.94	225.91
1022.22	225.84
1022.51	225.50
1022.79	227.04
1023.08	225.83
1023.36	226.88
1023.65	225.21
>>>>>End Processed Spectral Data<<<<<
