SpectraSuite Data File
++++++++++++++++++++++++++++++++++++
Date: Fri Feb 01 15:19:28 EST 2013
User: group
Dark Spectrum Present: No
Reference Spectrum Present: No
Number of Sampled Component Spectra: 1
Spectrometers: USB2E7196
Integration Time (usec): 35000 (USB2E7196)
Spectra Averaged: 100 (USB2E7196)
Boxcar Smoothing: 10 (USB2E7196)
Correct for Electrical Dark: No (USB2E7196)
Strobe/Lamp Enabled: No (USB2E7196)
Correct for Detector Non-linearity: No (USB2E7196)
Correct for Stray Light: No (USB2E7196)
Number of Pixels in Processed Spectrum: 2048
>>>>>Begin Processed Spectral Data<<<<<
339.09	0.00
339.48	214.67
339.86	217.00
340.24	217.98
340.63	219.11
341.01	222.44
341.39	221.78
341.78	223.11
342.16	224.70
342.54	224.26
342.93	213.33
343.31	224.12
343.69	224.67
344.07	225.14
344.46	225.59
344.84	226.00
345.22	226.21
345.60	226.46
345.99	226.67
346.37	226.77
346.75	226.91
347.13	226.97
347.52	227.04
347.90	227.10
348.28	227.12
348.66	227.15
349.05	227.15
349.43	227.22
349.81	227.29
350.19	227.36
350.57	227.41
350.96	227.49
351.34	227.58
351.72	227.65
352.10	227.72
352.48	227.75
352.87	227.79
353.25	227.89
353.63	227.97
354.01	228.03
354.39	228.14
354.77	228.23
355.15	228.35
355.54	228.39
355.92	228.45
356.30	228.51
356.68	228.68
357.06	228.80
357.44	228.83
357.82	228.89
358.20	228.95
358.58	228.99
358.97	229.04
359.35	229.11
359.73	229.23
360.11	229.28
360.49	229.33
360.87	229.38
361.25	229.41
361.63	229.45
362.01	229.48
362.39	229.45
362.77	229.50
363.15	229.53
363.53	229.55
363.91	229.53
364.29	229.56
364.67	229.47
365.05	229.44
365.43	229.43
365.81	229.44
366.19	229.45
366.57	229.48
366.95	229.46
367.33	229.39
367.71	229.36
368.09	229.38
368.47	229.37
368.85	229.34
369.23	229.31
369.61	229.25
369.99	229.28
370.37	229.30
370.75	229.28
371.13	229.22
371.51	229.14
371.89	229.13
372.27	229.07
372.65	229.00
373.03	228.95
373.41	228.92
373.78	228.85
374.16	228.75
374.54	228.68
374.92	228.62
375.30	228.57
375.68	228.50
376.06	228.40
376.44	228.32
376.82	228.23
377.19	228.18
377.57	228.09
377.95	227.97
378.33	227.89
378.71	227.79
379.09	227.73
379.47	227.68
379.84	227.59
380.22	227.47
380.60	227.41
380.98	227.34
381.36	227.30
381.73	227.23
382.11	227.18
382.49	227.11
382.87	227.01
383.25	226.96
383.62	226.99
384.00	226.91
384.38	226.83
384.76	226.81
385.13	226.78
385.51	226.74
385.89	226.69
386.27	226.63
386.64	226.59
387.02	226.51
387.40	226.47
387.78	226.47
388.15	226.48
388.53	226.44
388.91	226.39
389.29	226.35
389.66	226.35
390.04	226.31
390.42	226.33
390.79	226.36
391.17	226.35
391.55	226.24
391.92	226.24
392.30	226.29
392.68	226.29
393.05	226.28
393.43	226.30
393.81	226.31
394.18	226.32
394.56	226.34
394.94	226.41
395.31	226.42
395.69	226.45
396.06	226.47
396.44	226.53
396.82	226.59
397.19	226.69
397.57	226.73
397.95	226.84
398.32	226.82
398.70	226.88
399.07	226.96
399.45	227.02
399.82	227.09
400.20	227.14
400.58	227.21
400.95	227.28
401.33	227.36
401.70	227.50
402.08	227.57
402.45	227.67
402.83	227.79
403.20	227.94
403.58	228.06
403.95	228.21
404.33	228.34
404.71	228.46
405.08	228.62
405.46	228.75
405.83	228.89
406.21	229.09
406.58	229.25
406.96	229.41
407.33	229.61
407.70	229.82
408.08	230.09
408.45	230.32
408.83	230.54
409.20	230.79
409.58	231.00
409.95	231.27
410.33	231.54
410.70	231.75
411.08	232.02
411.45	232.32
411.82	232.61
412.20	232.94
412.57	233.32
412.95	233.62
413.32	234.02
413.69	234.42
414.07	234.86
414.44	235.29
414.82	235.76
415.19	236.30
415.56	236.83
415.94	237.40
416.31	238.02
416.68	238.67
417.06	239.39
417.43	240.08
417.81	240.86
418.18	241.64
418.55	242.47
418.93	243.34
419.30	244.22
419.67	245.17
420.04	246.16
420.42	247.20
420.79	248.39
421.16	249.57
421.54	250.78
421.91	252.00
422.28	253.28
422.66	254.66
423.03	255.96
423.40	257.30
423.77	258.65
424.15	260.08
424.52	261.56
424.89	263.15
425.26	264.70
425.64	266.14
426.01	267.80
426.38	269.50
426.75	271.22
427.13	272.96
427.50	274.75
427.87	276.61
428.24	278.49
428.61	280.21
428.99	282.14
429.36	284.23
429.73	286.32
430.10	288.30
430.47	290.36
430.85	292.49
431.22	294.72
431.59	297.15
431.96	299.38
432.33	301.88
432.70	304.25
433.08	307.08
433.45	309.74
433.82	312.35
434.19	315.25
434.56	318.05
434.93	320.72
435.30	323.39
435.68	326.29
436.05	329.08
436.42	331.89
436.79	334.41
437.16	337.16
437.53	339.96
437.90	342.86
438.27	345.60
438.64	348.44
439.01	351.03
439.38	353.28
439.75	355.47
440.13	357.97
440.50	360.31
440.87	362.11
441.24	364.07
441.61	366.22
441.98	367.74
442.35	369.52
442.72	371.35
443.09	373.16
443.46	374.12
443.83	374.71
444.20	375.28
444.57	376.14
444.94	376.38
445.31	376.74
445.68	377.07
446.05	377.10
446.42	376.68
446.79	376.31
447.16	375.87
447.53	375.55
447.90	374.43
448.27	373.28
448.64	371.72
449.01	370.57
449.37	368.54
449.74	366.56
450.11	364.35
450.48	361.94
450.85	359.38
451.22	357.27
451.59	355.25
451.96	353.27
452.33	350.63
452.70	348.27
453.07	345.43
453.43	342.48
453.80	339.73
454.17	337.05
454.54	334.49
454.91	331.77
455.28	329.11
455.65	326.58
456.02	324.11
456.38	321.94
456.75	319.26
457.12	317.01
457.49	314.83
457.86	312.63
458.23	310.70
458.59	308.68
458.96	306.57
459.33	304.71
459.70	302.83
460.07	301.31
460.43	299.59
460.80	297.97
461.17	296.57
461.54	295.10
461.91	293.72
462.27	292.26
462.64	291.01
463.01	289.64
463.38	288.33
463.74	286.97
464.11	285.80
464.48	284.80
464.85	283.74
465.21	282.84
465.58	281.91
465.95	280.86
466.32	279.89
466.68	279.00
467.05	278.10
467.42	277.20
467.78	276.33
468.15	275.46
468.52	274.84
468.88	273.95
469.25	273.14
469.62	272.53
469.98	271.82
470.35	271.17
470.72	270.55
471.08	269.88
471.45	269.32
471.82	268.82
472.18	268.18
472.55	267.72
472.92	267.17
473.28	266.72
473.65	266.22
474.02	265.83
474.38	265.50
474.75	265.17
475.11	264.82
475.48	264.52
475.85	264.31
476.21	264.02
476.58	263.84
476.94	263.71
477.31	263.51
477.67	263.37
478.04	263.26
478.41	263.22
478.77	263.26
479.14	263.20
479.50	263.15
479.87	263.28
480.23	263.38
480.60	263.46
480.96	263.56
481.33	263.79
481.69	263.95
482.06	264.15
482.42	264.32
482.79	264.59
483.15	264.87
483.52	265.20
483.88	265.55
484.25	265.93
484.61	266.33
484.98	266.79
485.34	267.36
485.71	267.94
486.07	268.52
486.44	269.07
486.80	269.76
487.17	270.51
487.53	271.28
487.90	272.10
488.26	273.02
488.62	273.99
488.99	274.97
489.35	275.98
489.72	277.06
490.08	278.26
490.44	279.46
490.81	280.80
491.17	282.13
491.54	283.59
491.90	285.14
492.26	286.78
492.63	288.46
492.99	290.19
493.36	292.06
493.72	294.09
494.08	296.21
494.45	298.45
494.81	300.77
495.17	303.21
495.54	305.73
495.90	308.38
496.26	311.13
496.63	314.10
496.99	317.23
497.35	320.45
497.72	323.84
498.08	327.34
498.44	331.00
498.80	334.90
499.17	338.95
499.53	343.09
499.89	347.50
500.26	352.05
500.62	356.73
500.98	361.71
501.34	366.78
501.71	372.09
502.07	377.56
502.43	383.22
502.79	389.01
503.16	395.07
503.52	401.38
503.88	407.83
504.24	414.43
504.60	421.26
504.97	428.38
505.33	435.72
505.69	443.40
506.05	451.20
506.41	459.13
506.78	467.27
507.14	475.76
507.50	484.39
507.86	493.32
508.22	502.55
508.59	511.74
508.95	521.34
509.31	531.17
509.67	541.26
510.03	551.50
510.39	562.07
510.75	572.88
511.12	583.73
511.48	594.99
511.84	606.44
512.20	618.03
512.56	629.99
512.92	642.24
513.28	654.60
513.64	667.08
514.00	679.77
514.37	692.72
514.73	705.81
515.09	718.94
515.45	732.31
515.81	745.85
516.17	759.89
516.53	774.06
516.89	788.22
517.25	802.43
517.61	816.85
517.97	831.36
518.33	845.85
518.69	860.81
519.05	875.89
519.41	891.18
519.77	906.82
520.13	922.35
520.49	937.73
520.85	953.25
521.21	969.07
521.57	985.37
521.93	1001.26
522.29	1017.71
522.65	1034.05
523.01	1050.46
523.37	1066.68
523.73	1082.75
524.09	1098.77
524.45	1115.17
524.81	1131.85
525.17	1148.86
525.53	1165.88
525.89	1182.76
526.25	1199.53
526.61	1215.92
526.97	1232.67
527.33	1249.12
527.68	1265.75
528.04	1282.29
528.40	1298.93
528.76	1316.01
529.12	1332.64
529.48	1349.51
529.84	1365.66
530.20	1382.36
530.56	1399.48
530.91	1416.81
531.27	1433.85
531.63	1450.47
531.99	1467.13
532.35	1483.16
532.71	1498.99
533.07	1515.20
533.42	1531.27
533.78	1547.42
534.14	1563.78
534.50	1579.24
534.86	1595.18
535.21	1610.39
535.57	1626.38
535.93	1641.98
536.29	1656.72
536.65	1671.88
537.00	1686.73
537.36	1701.97
537.72	1716.61
538.08	1730.87
538.44	1744.72
538.79	1758.58
539.15	1772.42
539.51	1786.25
539.87	1800.70
540.22	1814.53
540.58	1828.35
540.94	1841.70
541.29	1854.71
541.65	1867.45
542.01	1880.84
542.37	1893.11
542.72	1905.52
543.08	1917.40
543.44	1929.85
543.79	1941.24
544.15	1952.45
544.51	1964.18
544.87	1975.27
545.22	1985.92
545.58	1996.17
545.94	2006.10
546.29	2016.00
546.65	2025.76
547.01	2034.86
547.36	2043.60
547.72	2052.14
548.07	2060.02
548.43	2068.19
548.79	2076.30
549.14	2083.81
549.50	2091.04
549.86	2098.91
550.21	2106.36
550.57	2113.58
550.92	2120.10
551.28	2127.19
551.64	2134.17
551.99	2140.64
552.35	2146.65
552.70	2152.96
553.06	2159.09
553.41	2165.38
553.77	2171.49
554.13	2177.63
554.48	2183.83
554.84	2189.27
555.19	2194.60
555.55	2199.88
555.90	2204.39
556.26	2209.12
556.61	2213.92
556.97	2218.08
557.32	2222.27
557.68	2226.40
558.03	2230.66
558.39	2234.34
558.74	2238.93
559.10	2242.74
559.45	2246.42
559.81	2250.90
560.16	2254.67
560.52	2257.88
560.87	2261.39
561.23	2264.00
561.58	2267.04
561.94	2269.65
562.29	2272.08
562.64	2274.75
563.00	2277.35
563.35	2280.84
563.71	2283.87
564.06	2287.04
564.42	2290.00
564.77	2292.34
565.12	2294.49
565.48	2296.33
565.83	2298.28
566.19	2299.48
566.54	2300.38
566.89	2301.42
567.25	2301.93
567.60	2303.40
567.96	2305.00
568.31	2305.79
568.66	2306.83
569.02	2307.27
569.37	2307.53
569.72	2308.22
570.08	2308.25
570.43	2308.09
570.78	2307.47
571.14	2306.03
571.49	2304.70
571.84	2304.26
572.20	2303.01
572.55	2301.93
572.90	2300.29
573.26	2298.81
573.61	2297.15
573.96	2295.27
574.31	2292.24
574.67	2289.12
575.02	2285.18
575.37	2281.72
575.72	2277.73
576.08	2274.34
576.43	2270.95
576.78	2267.17
577.13	2263.99
577.49	2260.83
577.84	2257.17
578.19	2253.32
578.54	2249.61
578.90	2245.07
579.25	2239.35
579.60	2234.41
579.95	2229.32
580.30	2224.37
580.66	2219.10
581.01	2214.06
581.36	2209.10
581.71	2204.81
582.06	2200.17
582.42	2195.65
582.77	2190.29
583.12	2185.51
583.47	2180.60
583.82	2175.35
584.17	2170.05
584.53	2164.35
584.88	2158.49
585.23	2152.69
585.58	2147.09
585.93	2141.54
586.28	2136.85
586.63	2131.76
586.98	2126.59
587.34	2121.88
587.69	2116.69
588.04	2111.48
588.39	2105.54
588.74	2098.94
589.09	2092.66
589.44	2085.72
589.79	2079.59
590.14	2073.87
590.49	2067.29
590.84	2060.82
591.19	2054.87
591.54	2048.26
591.89	2040.67
592.25	2033.93
592.60	2026.63
592.95	2018.91
593.30	2011.41
593.65	2003.74
594.00	1996.71
594.35	1989.41
594.70	1981.33
595.05	1974.03
595.40	1966.52
595.75	1958.99
596.10	1952.54
596.45	1945.65
596.80	1939.62
597.15	1932.88
597.50	1925.60
597.85	1919.23
598.19	1912.46
598.54	1905.27
598.89	1898.65
599.24	1892.99
599.59	1886.16
599.94	1880.00
600.29	1873.68
600.64	1867.12
600.99	1859.63
601.34	1852.63
601.69	1845.55
602.04	1838.47
602.39	1831.12
602.74	1824.18
603.08	1817.54
603.43	1810.90
603.78	1803.78
604.13	1796.39
604.48	1789.07
604.83	1782.26
605.18	1775.04
605.53	1767.11
605.87	1759.07
606.22	1751.81
606.57	1743.77
606.92	1736.53
607.27	1729.32
607.62	1722.48
607.96	1715.18
608.31	1708.51
608.66	1700.91
609.01	1693.28
609.36	1685.79
609.70	1677.72
610.05	1669.73
610.40	1662.04
610.75	1653.73
611.10	1645.92
611.44	1637.56
611.79	1629.74
612.14	1621.07
612.49	1612.08
612.83	1603.76
613.18	1595.70
613.53	1587.57
613.88	1578.95
614.22	1570.62
614.57	1561.94
614.92	1553.78
615.27	1546.14
615.61	1537.79
615.96	1529.81
616.31	1522.28
616.65	1514.95
617.00	1507.45
617.35	1499.76
617.70	1491.31
618.04	1482.74
618.39	1474.43
618.74	1466.88
619.08	1458.45
619.43	1450.92
619.78	1443.97
620.12	1436.67
620.47	1429.04
620.82	1420.93
621.16	1413.68
621.51	1406.19
621.85	1398.68
622.20	1390.15
622.55	1381.92
622.89	1374.18
623.24	1366.56
623.59	1359.22
623.93	1351.66
624.28	1344.40
624.62	1336.88
624.97	1329.68
625.32	1323.01
625.66	1316.07
626.01	1308.83
626.35	1301.31
626.70	1293.59
627.04	1285.83
627.39	1278.12
627.73	1270.88
628.08	1263.83
628.43	1256.44
628.77	1248.93
629.12	1241.30
629.46	1234.10
629.81	1226.64
630.15	1219.27
630.50	1211.86
630.84	1203.58
631.19	1195.70
631.53	1188.18
631.88	1180.70
632.22	1173.15
632.57	1165.89
632.91	1158.39
633.26	1150.99
633.60	1143.73
633.95	1136.67
634.29	1129.73
634.64	1123.05
634.98	1115.55
635.32	1108.50
635.67	1101.89
636.01	1095.30
636.36	1088.54
636.70	1082.12
637.05	1075.55
637.39	1069.14
637.73	1062.66
638.08	1056.85
638.42	1050.89
638.77	1044.52
639.11	1037.86
639.45	1031.52
639.80	1024.79
640.14	1018.41
640.49	1011.84
640.83	1005.56
641.17	999.24
641.52	992.86
641.86	986.45
642.20	980.62
642.55	974.33
642.89	967.86
643.23	961.36
643.58	955.55
643.92	949.29
644.26	943.18
644.61	937.27
644.95	931.20
645.29	924.58
645.64	917.73
645.98	911.37
646.32	905.55
646.66	899.54
647.01	893.73
647.35	888.00
647.69	882.31
648.04	876.70
648.38	870.90
648.72	864.87
649.06	858.80
649.41	852.94
649.75	846.93
650.09	840.98
650.43	835.15
650.78	828.98
651.12	823.03
651.46	817.35
651.80	811.50
652.14	806.09
652.49	800.74
652.83	795.65
653.17	789.95
653.51	784.23
653.85	778.76
654.20	773.12
654.54	767.12
654.88	761.34
655.22	755.50
655.56	749.82
655.90	744.42
656.25	739.17
656.59	733.85
656.93	728.80
657.27	723.64
657.61	718.31
657.95	713.26
658.29	708.20
658.64	702.92
658.98	697.75
659.32	692.29
659.66	687.08
660.00	681.75
660.34	676.83
660.68	671.98
661.02	667.00
661.36	662.38
661.70	657.96
662.05	653.56
662.39	649.27
662.73	644.86
663.07	640.51
663.41	636.07
663.75	631.55
664.09	627.02
664.43	622.70
664.77	618.54
665.11	614.26
665.45	610.20
665.79	606.21
666.13	602.02
666.47	597.98
666.81	593.87
667.15	589.77
667.49	585.93
667.83	582.10
668.17	578.18
668.51	574.06
668.85	569.95
669.19	566.08
669.53	562.19
669.87	558.33
670.21	554.60
670.55	550.97
670.89	547.51
671.23	544.08
671.57	540.55
671.91	537.02
672.25	533.61
672.58	530.09
672.92	526.61
673.26	523.40
673.60	520.28
673.94	517.20
674.28	514.36
674.62	511.35
674.96	508.21
675.30	505.29
675.64	502.36
675.97	499.62
676.31	496.83
676.65	493.94
676.99	491.22
677.33	488.37
677.67	485.55
678.01	482.49
678.34	479.44
678.68	476.54
679.02	473.73
679.36	470.97
679.70	468.22
680.04	465.47
680.37	462.64
680.71	459.86
681.05	457.21
681.39	454.43
681.73	451.83
682.06	449.32
682.40	446.80
682.74	444.29
683.08	441.76
683.42	439.11
683.75	436.62
684.09	434.10
684.43	431.66
684.77	429.22
685.10	426.94
685.44	424.69
685.78	422.44
686.12	420.17
686.45	417.85
686.79	415.55
687.13	413.40
687.46	411.23
687.80	409.10
688.14	406.86
688.48	404.84
688.81	402.55
689.15	400.42
689.49	398.34
689.82	396.26
690.16	394.23
690.50	392.34
690.83	390.38
691.17	388.38
691.51	386.47
691.84	384.63
692.18	382.64
692.52	380.70
692.85	378.79
693.19	376.92
693.52	375.20
693.86	373.45
694.20	371.67
694.53	369.87
694.87	368.04
695.21	366.25
695.54	364.42
695.88	362.71
696.21	361.00
696.55	359.27
696.88	357.60
697.22	355.95
697.56	354.34
697.89	352.73
698.23	351.12
698.56	349.51
698.90	347.92
699.23	346.33
699.57	344.79
699.90	343.28
700.24	341.71
700.58	340.15
700.91	338.67
701.25	337.24
701.58	335.87
701.92	334.50
702.25	333.15
702.59	331.76
702.92	330.48
703.26	329.17
703.59	327.93
703.93	326.73
704.26	325.50
704.60	324.18
704.93	322.91
705.26	321.69
705.60	320.50
705.93	319.35
706.27	318.33
706.60	317.27
706.94	316.16
707.27	315.01
707.61	313.91
707.94	312.83
708.27	311.74
708.61	310.71
708.94	309.71
709.28	308.71
709.61	307.79
709.94	306.86
710.28	305.86
710.61	304.87
710.95	303.82
711.28	302.88
711.61	301.91
711.95	300.98
712.28	300.02
712.61	299.02
712.95	298.06
713.28	297.18
713.61	296.27
713.95	295.38
714.28	294.59
714.61	293.71
714.95	292.89
715.28	292.06
715.61	291.15
715.95	290.29
716.28	289.44
716.61	288.57
716.95	287.73
717.28	286.98
717.61	286.16
717.94	285.40
718.28	284.58
718.61	283.88
718.94	283.22
719.27	282.57
719.61	281.96
719.94	281.30
720.27	280.57
720.60	279.92
720.94	279.25
721.27	278.66
721.60	278.08
721.93	277.43
722.27	276.84
722.60	276.28
722.93	275.67
723.26	275.15
723.59	274.61
723.93	274.07
724.26	273.48
724.59	272.94
724.92	272.40
725.25	271.92
725.59	271.40
725.92	270.87
726.25	270.33
726.58	269.85
726.91	269.33
727.24	268.86
727.57	268.40
727.91	267.91
728.24	267.43
728.57	266.97
728.90	266.52
729.23	266.02
729.56	265.60
729.89	265.17
730.22	264.66
730.55	264.21
730.89	263.74
731.22	263.33
731.55	262.92
731.88	262.52
732.21	262.10
732.54	261.67
732.87	261.25
733.20	260.88
733.53	260.51
733.86	260.18
734.19	259.78
734.52	259.39
734.85	259.12
735.18	258.72
735.51	258.37
735.84	258.03
736.17	257.70
736.50	257.30
736.83	257.10
737.16	256.81
737.49	256.46
737.82	256.16
738.15	255.86
738.48	255.53
738.81	255.22
739.14	254.87
739.47	254.58
739.80	254.29
740.13	254.01
740.46	253.66
740.79	253.33
741.12	253.06
741.45	252.73
741.78	252.40
742.11	252.13
742.44	251.82
742.77	251.56
743.10	251.28
743.43	250.97
743.75	250.53
744.08	250.36
744.41	250.14
744.74	249.88
745.07	249.59
745.40	249.36
745.73	249.13
746.06	248.87
746.39	248.60
746.71	248.34
747.04	248.06
747.37	247.82
747.70	247.56
748.03	247.30
748.36	247.09
748.68	246.83
749.01	246.58
749.34	246.34
749.67	246.11
750.00	245.89
750.33	245.75
750.65	245.57
750.98	245.21
751.31	244.98
751.64	244.73
751.97	244.55
752.29	244.31
752.62	244.07
752.95	243.87
753.28	243.64
753.60	243.42
753.93	243.23
754.26	243.02
754.59	242.77
754.91	242.54
755.24	242.33
755.57	242.11
755.90	241.91
756.22	241.72
756.55	241.49
756.88	241.27
757.20	241.03
757.53	240.85
757.86	240.70
758.19	240.53
758.51	240.37
758.84	240.16
759.17	240.04
759.49	239.84
759.82	239.69
760.15	239.55
760.47	239.36
760.80	239.19
761.13	239.07
761.45	238.97
761.78	238.84
762.11	238.68
762.43	238.55
762.76	238.42
763.08	238.28
763.41	238.15
763.74	238.02
764.06	237.88
764.39	237.71
764.71	237.57
765.04	237.41
765.37	237.26
765.69	237.14
766.02	236.98
766.34	236.84
766.67	236.70
767.00	236.60
767.32	236.55
767.65	236.49
767.97	236.38
768.30	236.26
768.62	236.14
768.95	236.03
769.27	235.92
769.60	235.83
769.92	235.74
770.25	235.64
770.57	235.53
770.90	235.42
771.22	235.34
771.55	235.22
771.87	235.15
772.20	235.06
772.52	235.06
772.85	235.10
773.17	235.07
773.50	234.98
773.82	234.90
774.15	234.78
774.47	234.63
774.80	234.54
775.12	234.47
775.45	234.41
775.77	234.34
776.09	234.26
776.42	234.18
776.74	234.15
777.07	234.09
777.39	234.00
777.72	233.95
778.04	233.89
778.36	233.86
778.69	233.79
779.01	233.71
779.33	233.56
779.66	233.35
779.98	233.25
780.31	233.21
780.63	233.21
780.95	233.18
781.28	233.12
781.60	233.06
781.92	232.96
782.25	232.88
782.57	232.82
782.89	232.77
783.22	232.70
783.54	232.57
783.86	232.48
784.19	232.46
784.51	232.46
784.83	232.40
785.16	232.33
785.48	232.27
785.80	232.27
786.12	232.23
786.45	232.20
786.77	232.15
787.09	232.09
787.42	231.99
787.74	231.92
788.06	231.90
788.38	231.86
788.71	231.82
789.03	231.80
789.35	231.77
789.67	231.70
789.99	231.64
790.32	231.63
790.64	231.61
790.96	231.60
791.28	231.53
791.61	231.47
791.93	231.42
792.25	231.38
792.57	231.38
792.89	231.32
793.21	231.27
793.54	231.21
793.86	231.14
794.18	231.08
794.50	231.03
794.82	230.97
795.14	230.97
795.47	230.94
795.79	230.86
796.11	230.80
796.43	230.78
796.75	230.72
797.07	230.68
797.39	230.62
797.71	230.54
798.04	230.48
798.36	230.47
798.68	230.44
799.00	230.42
799.32	230.33
799.64	230.32
799.96	230.30
800.28	230.29
800.60	230.23
800.92	230.22
801.24	230.18
801.56	230.13
801.89	230.03
802.21	230.00
802.53	229.99
802.85	229.98
803.17	229.98
803.49	229.97
803.81	229.95
804.13	229.92
804.45	229.89
804.77	229.87
805.09	229.86
805.41	229.81
805.73	229.74
806.05	229.66
806.37	229.61
806.69	229.57
807.01	229.51
807.33	229.53
807.65	229.46
807.97	229.51
808.28	229.47
808.60	229.48
808.92	229.47
809.24	229.46
809.56	229.43
809.88	229.38
810.20	229.38
810.52	229.36
810.84	229.33
811.16	229.31
811.48	229.27
811.80	229.28
812.12	229.27
812.43	229.29
812.75	229.31
813.07	229.30
813.39	229.29
813.71	229.27
814.03	229.22
814.35	229.23
814.67	229.13
814.98	229.14
815.30	229.11
815.62	229.08
815.94	229.03
816.26	229.05
816.58	229.02
816.89	229.00
817.21	228.98
817.53	228.99
817.85	228.98
818.17	228.97
818.48	228.88
818.80	228.88
819.12	228.85
819.44	228.83
819.76	228.83
820.07	228.82
820.39	228.83
820.71	228.85
821.03	228.82
821.34	228.85
821.66	228.87
821.98	228.88
822.30	228.89
822.61	228.93
822.93	228.89
823.25	228.90
823.57	228.90
823.88	228.90
824.20	228.90
824.52	228.89
824.83	228.86
825.15	228.85
825.47	228.81
825.79	228.81
826.10	228.78
826.42	228.76
826.74	228.74
827.05	228.71
827.37	228.71
827.69	228.68
828.00	228.66
828.32	228.60
828.64	228.56
828.95	228.55
829.27	228.50
829.58	228.48
829.90	228.46
830.22	228.41
830.53	228.39
830.85	228.33
831.17	228.30
831.48	228.31
831.80	228.29
832.11	228.29
832.43	228.25
832.75	228.28
833.06	228.32
833.38	228.29
833.69	228.28
834.01	228.27
834.32	228.29
834.64	228.26
834.96	228.26
835.27	228.24
835.59	228.20
835.90	228.18
836.22	228.16
836.53	228.14
836.85	228.12
837.16	228.17
837.48	228.14
837.79	228.16
838.11	228.16
838.42	228.16
838.74	228.16
839.05	228.14
839.37	228.08
839.68	227.98
840.00	227.98
840.31	228.00
840.63	227.96
840.94	227.92
841.26	227.88
841.57	227.86
841.88	227.86
842.20	227.85
842.51	227.83
842.83	227.83
843.14	227.93
843.46	227.94
843.77	227.87
844.08	227.89
844.40	227.86
844.71	227.85
845.03	227.81
845.34	227.78
845.65	227.76
845.97	227.75
846.28	227.78
846.60	227.78
846.91	227.75
847.22	227.75
847.54	227.75
847.85	227.79
848.16	227.79
848.48	227.78
848.79	227.84
849.10	227.83
849.42	227.83
849.73	227.73
850.04	227.72
850.36	227.68
850.67	227.72
850.98	227.69
851.30	227.68
851.61	227.72
851.92	227.75
852.23	227.77
852.55	227.80
852.86	227.78
853.17	227.78
853.49	227.81
853.80	227.85
854.11	227.90
854.42	227.91
854.74	227.91
855.05	227.89
855.36	227.84
855.67	227.87
855.99	227.86
856.30	227.93
856.61	227.95
856.92	227.97
857.23	227.94
857.55	227.94
857.86	227.93
858.17	227.93
858.48	227.92
858.79	227.89
859.11	227.88
859.42	227.88
859.73	227.87
860.04	227.87
860.35	227.79
860.66	227.73
860.98	227.70
861.29	227.71
861.60	227.69
861.91	227.69
862.22	227.66
862.53	227.62
862.84	227.52
863.16	227.52
863.47	227.52
863.78	227.54
864.09	227.53
864.40	227.53
864.71	227.53
865.02	227.50
865.33	227.52
865.64	227.53
865.95	227.55
866.27	227.59
866.58	227.57
866.89	227.54
867.20	227.55
867.51	227.50
867.82	227.46
868.13	227.51
868.44	227.47
868.75	227.46
869.06	227.47
869.37	227.47
869.68	227.46
869.99	227.42
870.30	227.42
870.61	227.42
870.92	227.42
871.23	227.39
871.54	227.38
871.85	227.39
872.16	227.35
872.47	227.34
872.78	227.25
873.09	227.26
873.40	227.29
873.71	227.28
874.02	227.29
874.33	227.27
874.64	227.26
874.95	227.26
875.26	227.28
875.56	227.27
875.87	227.27
876.18	227.27
876.49	227.37
876.80	227.33
877.11	227.30
877.42	227.30
877.73	227.30
878.04	227.31
878.35	227.31
878.66	227.32
878.96	227.31
879.27	227.37
879.58	227.32
879.89	227.30
880.20	227.33
880.51	227.30
880.82	227.34
881.12	227.34
881.43	227.34
881.74	227.31
882.05	227.33
882.36	227.34
882.67	227.34
882.97	227.27
883.28	227.27
883.59	227.27
883.90	227.27
884.21	227.30
884.51	227.30
884.82	227.31
885.13	227.31
885.44	227.31
885.74	227.26
886.05	227.27
886.36	227.30
886.67	227.27
886.98	227.38
887.28	227.40
887.59	227.39
887.90	227.40
888.20	227.41
888.51	227.43
888.82	227.39
889.13	227.43
889.43	227.53
889.74	227.52
890.05	227.55
890.35	227.54
890.66	227.51
890.97	227.49
891.28	227.45
891.58	227.48
891.89	227.48
892.20	227.50
892.50	227.51
892.81	227.50
893.12	227.55
893.42	227.45
893.73	227.43
894.04	227.44
894.34	227.45
894.65	227.45
894.95	227.45
895.26	227.47
895.57	227.47
895.87	227.34
896.18	227.38
896.48	227.36
896.79	227.36
897.10	227.35
897.40	227.38
897.71	227.41
898.01	227.40
898.32	227.44
898.63	227.42
898.93	227.41
899.24	227.39
899.54	227.37
899.85	227.37
900.15	227.36
900.46	227.38
900.76	227.37
901.07	227.39
901.38	227.36
901.68	227.36
901.99	227.31
902.29	227.34
902.60	227.32
902.90	227.31
903.21	227.31
903.51	227.29
903.82	227.29
904.12	227.27
904.43	227.24
904.73	227.21
905.03	227.23
905.34	227.30
905.64	227.31
905.95	227.26
906.25	227.26
906.56	227.26
906.86	227.25
907.17	227.21
907.47	227.18
907.77	227.17
908.08	227.15
908.38	227.15
908.69	227.12
908.99	227.11
909.30	227.12
909.60	227.07
909.90	227.08
910.21	227.01
910.51	226.98
910.81	227.00
911.12	226.98
911.42	226.99
911.73	226.88
912.03	226.89
912.33	226.93
912.64	226.92
912.94	226.90
913.24	226.84
913.55	226.84
913.85	226.83
914.15	226.86
914.46	226.88
914.76	226.89
915.06	226.90
915.37	226.88
915.67	226.86
915.97	226.87
916.27	226.87
916.58	226.91
916.88	226.91
917.18	226.91
917.49	226.97
917.79	226.96
918.09	227.00
918.39	227.03
918.70	227.02
919.00	227.00
919.30	227.04
919.60	227.07
919.91	227.11
920.21	227.12
920.51	227.10
920.81	227.07
921.12	227.08
921.42	227.06
921.72	227.04
922.02	227.06
922.32	227.09
922.63	227.09
922.93	227.15
923.23	227.17
923.53	227.16
923.83	227.11
924.13	227.14
924.44	227.13
924.74	227.15
925.04	227.18
925.34	227.19
925.64	227.18
925.94	227.18
926.24	227.20
926.55	227.21
926.85	227.20
927.15	227.17
927.45	227.15
927.75	227.17
928.05	227.20
928.35	227.18
928.65	227.21
928.95	227.24
929.26	227.20
929.56	227.22
929.86	227.19
930.16	227.16
930.46	227.12
930.76	227.13
931.06	227.09
931.36	227.05
931.66	227.09
931.96	227.09
932.26	227.06
932.56	227.04
932.86	227.07
933.16	227.08
933.46	227.12
933.76	227.14
934.06	227.14
934.36	227.14
934.66	227.15
934.96	227.14
935.26	227.13
935.56	227.14
935.86	227.12
936.16	227.13
936.46	227.10
936.76	227.12
937.06	227.10
937.36	227.10
937.66	227.08
937.96	227.05
938.26	227.07
938.56	227.08
938.86	227.06
939.16	227.05
939.46	227.07
939.76	227.05
940.06	227.05
940.35	227.03
940.65	227.01
940.95	227.02
941.25	227.00
941.55	226.99
941.85	226.98
942.15	227.00
942.45	227.02
942.75	227.06
943.04	227.06
943.34	227.07
943.64	227.08
943.94	227.08
944.24	227.09
944.54	227.07
944.84	227.09
945.13	227.10
945.43	227.09
945.73	227.07
946.03	227.04
946.33	227.03
946.62	227.03
946.92	227.03
947.22	227.06
947.52	227.02
947.82	227.04
948.11	227.03
948.41	227.00
948.71	226.98
949.01	226.96
949.31	226.92
949.60	226.91
949.90	226.93
950.20	226.93
950.50	226.93
950.79	226.88
951.09	226.87
951.39	226.87
951.69	226.83
951.98	226.83
952.28	226.86
952.58	226.85
952.87	226.86
953.17	226.88
953.47	226.86
953.76	226.87
954.06	226.84
954.36	226.82
954.66	226.81
954.95	226.83
955.25	226.86
955.55	226.88
955.84	226.87
956.14	226.84
956.44	226.83
956.73	226.80
957.03	226.83
957.32	226.83
957.62	226.84
957.92	226.86
958.21	226.83
958.51	226.92
958.81	226.93
959.10	226.95
959.40	226.99
959.69	226.96
959.99	226.98
960.29	227.00
960.58	227.00
960.88	227.06
961.17	227.03
961.47	227.05
961.76	227.05
962.06	227.06
962.36	227.08
962.65	227.11
962.95	227.14
963.24	227.13
963.54	227.16
963.83	227.16
964.13	227.18
964.42	227.21
964.72	227.15
965.01	227.14
965.31	227.11
965.60	227.09
965.90	227.18
966.19	227.19
966.49	227.20
966.78	227.19
967.08	227.17
967.37	227.19
967.67	227.16
967.96	227.15
968.26	227.17
968.55	227.15
968.85	227.16
969.14	227.16
969.43	227.14
969.73	227.12
970.02	227.11
970.32	227.10
970.61	227.07
970.91	227.06
971.20	227.09
971.49	227.07
971.79	227.07
972.08	226.98
972.38	226.96
972.67	226.93
972.96	226.94
973.26	226.94
973.55	226.99
973.85	226.98
974.14	226.99
974.43	226.98
974.73	226.97
975.02	226.96
975.31	226.95
975.61	226.95
975.90	226.96
976.19	226.94
976.49	226.97
976.78	227.00
977.07	227.00
977.37	226.97
977.66	227.01
977.95	226.98
978.24	227.01
978.54	227.01
978.83	227.04
979.12	227.08
979.42	227.04
979.71	227.02
980.00	227.07
980.29	227.05
980.59	227.05
980.88	227.08
981.17	227.10
981.46	227.12
981.76	227.13
982.05	227.15
982.34	227.19
982.63	227.14
982.93	227.15
983.22	227.14
983.51	227.14
983.80	227.16
984.09	227.17
984.39	227.20
984.68	227.18
984.97	227.19
985.26	227.17
985.55	227.19
985.85	227.18
986.14	227.15
986.43	227.20
986.72	227.21
987.01	227.19
987.30	227.18
987.59	227.16
987.89	227.18
988.18	227.15
988.47	227.12
988.76	227.13
989.05	227.11
989.34	227.09
989.63	227.12
989.92	227.10
990.22	227.09
990.51	227.03
990.80	227.05
991.09	227.05
991.38	227.07
991.67	227.04
991.96	227.00
992.25	226.97
992.54	226.92
992.83	226.92
993.12	226.90
993.41	226.90
993.70	226.90
993.99	226.91
994.28	226.94
994.58	226.95
994.87	226.93
995.16	226.91
995.45	226.93
995.74	226.88
996.03	226.86
996.32	226.84
996.61	226.88
996.90	226.85
997.19	226.85
997.48	226.83
997.77	226.81
998.06	226.83
998.34	226.85
998.63	226.84
998.92	226.82
999.21	226.82
999.50	226.81
999.79	226.79
1000.08	226.79
1000.37	226.75
1000.66	226.72
1000.95	226.76
1001.24	226.75
1001.53	226.75
1001.82	226.76
1002.11	226.74
1002.40	226.79
1002.68	226.81
1002.97	226.90
1003.26	226.90
1003.55	226.85
1003.84	226.89
1004.13	226.91
1004.42	226.87
1004.71	226.87
1004.99	226.88
1005.28	226.90
1005.57	226.90
1005.86	226.90
1006.15	226.88
1006.44	226.89
1006.72	226.91
1007.01	226.90
1007.30	226.94
1007.59	226.93
1007.88	226.93
1008.17	226.97
1008.45	226.95
1008.74	226.90
1009.03	226.84
1009.32	226.83
1009.60	226.87
1009.89	226.86
1010.18	226.83
1010.47	226.87
1010.76	226.87
1011.04	226.88
1011.33	226.90
1011.62	226.89
1011.91	226.90
1012.19	226.88
1012.48	226.86
1012.77	226.87
1013.05	226.92
1013.34	226.89
1013.63	226.91
1013.92	226.91
1014.20	226.90
1014.49	226.86
1014.78	226.89
1015.06	226.86
1015.35	226.86
1015.64	226.87
1015.92	226.89
1016.21	226.92
1016.50	226.93
1016.78	226.98
1017.07	227.00
1017.36	226.99
1017.64	227.00
1017.93	226.99
1018.22	227.01
1018.50	227.03
1018.79	227.02
1019.08	226.96
1019.36	226.99
1019.65	227.00
1019.93	227.05
1020.22	227.06
1020.51	227.11
1020.79	227.09
1021.08	226.85
1021.36	226.76
1021.65	227.00
1021.94	226.67
1022.22	227.32
1022.51	226.99
1022.79	227.58
1023.08	227.41
1023.36	227.28
1023.65	226.77
>>>>>End Processed Spectral Data<<<<<
