SpectraSuite Data File
++++++++++++++++++++++++++++++++++++
Date: Fri Feb 01 15:42:25 EST 2013
User: group
Dark Spectrum Present: No
Reference Spectrum Present: No
Number of Sampled Component Spectra: 1
Spectrometers: USB2E7196
Integration Time (usec): 35000 (USB2E7196)
Spectra Averaged: 100 (USB2E7196)
Boxcar Smoothing: 10 (USB2E7196)
Correct for Electrical Dark: No (USB2E7196)
Strobe/Lamp Enabled: No (USB2E7196)
Correct for Detector Non-linearity: No (USB2E7196)
Correct for Stray Light: No (USB2E7196)
Number of Pixels in Processed Spectrum: 2048
>>>>>Begin Processed Spectral Data<<<<<
339.09	0.00
339.48	215.12
339.86	216.12
340.24	218.08
340.63	218.91
341.01	221.74
341.39	221.79
341.78	223.51
342.16	224.75
342.54	224.63
342.93	213.15
343.31	223.91
343.69	224.44
344.07	224.92
344.46	225.35
344.84	225.73
345.22	225.96
345.60	226.24
345.99	226.41
346.37	226.51
346.75	226.57
347.13	226.62
347.52	226.68
347.90	226.74
348.28	226.77
348.66	226.84
349.05	226.81
349.43	226.86
349.81	226.92
350.19	226.94
350.57	227.01
350.96	227.10
351.34	227.20
351.72	227.30
352.10	227.40
352.48	227.47
352.87	227.55
353.25	227.63
353.63	227.68
354.01	227.74
354.39	227.86
354.77	227.99
355.15	228.10
355.54	228.15
355.92	228.18
356.30	228.27
356.68	228.40
357.06	228.49
357.44	228.54
357.82	228.60
358.20	228.68
358.58	228.79
358.97	228.88
359.35	228.96
359.73	229.00
360.11	229.06
360.49	229.12
360.87	229.14
361.25	229.20
361.63	229.27
362.01	229.36
362.39	229.37
362.77	229.41
363.15	229.42
363.53	229.48
363.91	229.53
364.29	229.54
364.67	229.49
365.05	229.54
365.43	229.55
365.81	229.59
366.19	229.60
366.57	229.63
366.95	229.58
367.33	229.54
367.71	229.55
368.09	229.54
368.47	229.50
368.85	229.48
369.23	229.48
369.61	229.43
369.99	229.40
370.37	229.36
370.75	229.37
371.13	229.35
371.51	229.27
371.89	229.24
372.27	229.23
372.65	229.20
373.03	229.12
373.41	229.07
373.78	229.02
374.16	228.93
374.54	228.83
374.92	228.79
375.30	228.74
375.68	228.63
376.06	228.60
376.44	228.55
376.82	228.47
377.19	228.40
377.57	228.28
377.95	228.18
378.33	228.12
378.71	227.99
379.09	227.93
379.47	227.91
379.84	227.84
380.22	227.76
380.60	227.67
380.98	227.59
381.36	227.51
381.73	227.42
382.11	227.38
382.49	227.30
382.87	227.21
383.25	227.18
383.62	227.27
384.00	227.19
384.38	227.11
384.76	227.10
385.13	227.06
385.51	227.08
385.89	227.01
386.27	226.98
386.64	226.96
387.02	226.92
387.40	226.84
387.78	226.81
388.15	226.76
388.53	226.70
388.91	226.68
389.29	226.64
389.66	226.65
390.04	226.60
390.42	226.59
390.79	226.58
391.17	226.53
391.55	226.38
391.92	226.34
392.30	226.37
392.68	226.34
393.05	226.33
393.43	226.30
393.81	226.32
394.18	226.29
394.56	226.34
394.94	226.36
395.31	226.38
395.69	226.40
396.06	226.45
396.44	226.48
396.82	226.52
397.19	226.61
397.57	226.60
397.95	226.67
398.32	226.69
398.70	226.76
399.07	226.86
399.45	226.91
399.82	226.99
400.20	227.02
400.58	227.10
400.95	227.15
401.33	227.26
401.70	227.40
402.08	227.50
402.45	227.57
402.83	227.70
403.20	227.83
403.58	227.92
403.95	228.03
404.33	228.18
404.71	228.29
405.08	228.43
405.46	228.57
405.83	228.72
406.21	228.87
406.58	229.03
406.96	229.15
407.33	229.35
407.70	229.56
408.08	229.83
408.45	230.06
408.83	230.29
409.20	230.48
409.58	230.66
409.95	230.90
410.33	231.18
410.70	231.39
411.08	231.67
411.45	231.99
411.82	232.27
412.20	232.62
412.57	233.06
412.95	233.39
413.32	233.81
413.69	234.19
414.07	234.58
414.44	235.05
414.82	235.54
415.19	236.06
415.56	236.58
415.94	237.13
416.31	237.76
416.68	238.39
417.06	239.12
417.43	239.80
417.81	240.57
418.18	241.32
418.55	242.15
418.93	243.05
419.30	243.94
419.67	244.91
420.04	245.87
420.42	246.82
420.79	248.01
421.16	249.16
421.54	250.36
421.91	251.65
422.28	252.92
422.66	254.29
423.03	255.62
423.40	256.96
423.77	258.38
424.15	259.82
424.52	261.31
424.89	262.91
425.26	264.48
425.64	265.95
426.01	267.55
426.38	269.21
426.75	270.87
427.13	272.61
427.50	274.42
427.87	276.31
428.24	278.21
428.61	279.95
428.99	281.88
429.36	284.01
429.73	286.06
430.10	288.08
430.47	290.12
430.85	292.24
431.22	294.50
431.59	296.86
431.96	299.09
432.33	301.55
432.70	303.93
433.08	306.76
433.45	309.43
433.82	312.06
434.19	314.99
434.56	317.79
434.93	320.49
435.30	323.08
435.68	325.98
436.05	328.80
436.42	331.60
436.79	334.11
437.16	336.82
437.53	339.64
437.90	342.43
438.27	345.19
438.64	348.05
439.01	350.65
439.38	352.91
439.75	355.11
440.13	357.62
440.50	360.01
440.87	361.86
441.24	363.74
441.61	365.90
441.98	367.37
442.35	369.18
442.72	371.00
443.09	372.85
443.46	373.84
443.83	374.46
444.20	374.96
444.57	375.86
444.94	376.10
445.31	376.45
445.68	376.81
446.05	376.88
446.42	376.45
446.79	376.01
447.16	375.55
447.53	375.23
447.90	374.05
448.27	372.87
448.64	371.25
449.01	370.16
449.37	368.18
449.74	366.27
450.11	364.05
450.48	361.55
450.85	358.99
451.22	356.84
451.59	354.77
451.96	352.86
452.33	350.18
452.70	347.83
453.07	344.98
453.43	342.10
453.80	339.33
454.17	336.65
454.54	334.12
454.91	331.40
455.28	328.68
455.65	326.19
456.02	323.70
456.38	321.56
456.75	318.89
457.12	316.63
457.49	314.42
457.86	312.21
458.23	310.39
458.59	308.33
458.96	306.24
459.33	304.39
459.70	302.49
460.07	300.99
460.43	299.27
460.80	297.69
461.17	296.22
461.54	294.71
461.91	293.29
462.27	291.84
462.64	290.60
463.01	289.26
463.38	287.93
463.74	286.56
464.11	285.36
464.48	284.35
464.85	283.23
465.21	282.34
465.58	281.44
465.95	280.33
466.32	279.43
466.68	278.55
467.05	277.66
467.42	276.75
467.78	275.85
468.15	274.99
468.52	274.30
468.88	273.46
469.25	272.69
469.62	272.09
469.98	271.40
470.35	270.75
470.72	270.16
471.08	269.50
471.45	268.98
471.82	268.45
472.18	267.86
472.55	267.48
472.92	267.02
473.28	266.56
473.65	266.14
474.02	265.68
474.38	265.31
474.75	264.97
475.11	264.65
475.48	264.40
475.85	264.14
476.21	263.91
476.58	263.73
476.94	263.61
477.31	263.47
477.67	263.35
478.04	263.30
478.41	263.23
478.77	263.32
479.14	263.27
479.50	263.33
479.87	263.41
480.23	263.48
480.60	263.52
480.96	263.60
481.33	263.81
481.69	264.06
482.06	264.25
482.42	264.47
482.79	264.73
483.15	265.05
483.52	265.45
483.88	265.84
484.25	266.19
484.61	266.63
484.98	267.09
485.34	267.65
485.71	268.23
486.07	268.85
486.44	269.42
486.80	270.17
487.17	270.89
487.53	271.69
487.90	272.53
488.26	273.47
488.62	274.47
488.99	275.40
489.35	276.39
489.72	277.54
490.08	278.75
490.44	280.00
490.81	281.34
491.17	282.66
491.54	284.10
491.90	285.69
492.26	287.28
492.63	288.96
492.99	290.74
493.36	292.63
493.72	294.69
494.08	296.77
494.45	298.97
494.81	301.29
495.17	303.69
495.54	306.26
495.90	308.89
496.26	311.68
496.63	314.66
496.99	317.77
497.35	321.00
497.72	324.37
498.08	327.83
498.44	331.52
498.80	335.46
499.17	339.48
499.53	343.65
499.89	348.11
500.26	352.58
500.62	357.20
500.98	362.16
501.34	367.21
501.71	372.50
502.07	377.92
502.43	383.58
502.79	389.37
503.16	395.39
503.52	401.64
503.88	408.06
504.24	414.73
504.60	421.65
504.97	428.80
505.33	436.11
505.69	443.83
506.05	451.51
506.41	459.47
506.78	467.64
507.14	476.04
507.50	484.70
507.86	493.74
508.22	502.99
508.59	512.17
508.95	521.79
509.31	531.62
509.67	541.71
510.03	551.93
510.39	562.53
510.75	573.40
511.12	584.37
511.48	595.58
511.84	607.00
512.20	618.47
512.56	630.37
512.92	642.60
513.28	654.95
513.64	667.55
514.00	680.13
514.37	693.01
514.73	706.14
515.09	719.23
515.45	732.57
515.81	746.10
516.17	760.03
516.53	774.08
516.89	788.26
517.25	802.50
517.61	817.02
517.97	831.43
518.33	845.83
518.69	860.69
519.05	875.74
519.41	890.90
519.77	906.45
520.13	921.92
520.49	937.23
520.85	952.71
521.21	968.39
521.57	984.71
521.93	1000.63
522.29	1016.99
522.65	1033.18
523.01	1049.40
523.37	1065.41
523.73	1081.58
524.09	1097.65
524.45	1113.88
524.81	1130.59
525.17	1147.35
525.53	1164.32
525.89	1181.19
526.25	1198.04
526.61	1214.43
526.97	1231.23
527.33	1247.67
527.68	1264.28
528.04	1280.81
528.40	1297.36
528.76	1314.43
529.12	1331.07
529.48	1347.90
529.84	1363.97
530.20	1380.63
530.56	1397.68
530.91	1415.12
531.27	1432.02
531.63	1448.63
531.99	1465.42
532.35	1481.28
532.71	1497.11
533.07	1513.32
533.42	1529.20
533.78	1545.20
534.14	1561.58
534.50	1576.95
534.86	1592.78
535.21	1607.97
535.57	1623.99
535.93	1639.53
536.29	1654.25
536.65	1669.34
537.00	1684.09
537.36	1699.33
537.72	1713.85
538.08	1728.27
538.44	1742.04
538.79	1755.88
539.15	1769.45
539.51	1783.06
539.87	1797.43
540.22	1811.16
540.58	1824.97
540.94	1838.35
541.29	1851.20
541.65	1863.84
542.01	1876.94
542.37	1889.42
542.72	1901.81
543.08	1913.54
543.44	1926.01
543.79	1937.25
544.15	1948.22
544.51	1959.86
544.87	1970.84
545.22	1981.53
545.58	1991.75
545.94	2001.58
546.29	2011.44
546.65	2021.22
547.01	2030.38
547.36	2039.03
547.72	2047.69
548.07	2055.45
548.43	2063.68
548.79	2071.80
549.14	2079.29
549.50	2086.73
549.86	2094.41
550.21	2101.82
550.57	2109.05
550.92	2115.48
551.28	2122.60
551.64	2129.63
551.99	2136.24
552.35	2142.34
552.70	2148.62
553.06	2154.47
553.41	2160.91
553.77	2167.02
554.13	2173.25
554.48	2179.44
554.84	2184.87
555.19	2190.08
555.55	2195.19
555.90	2199.64
556.26	2204.55
556.61	2209.21
556.97	2213.45
557.32	2217.56
557.68	2221.60
558.03	2225.79
558.39	2229.58
558.74	2234.10
559.10	2237.93
559.45	2241.43
559.81	2245.87
560.16	2249.63
560.52	2253.00
560.87	2256.24
561.23	2258.85
561.58	2261.77
561.94	2264.39
562.29	2266.78
562.64	2269.38
563.00	2272.09
563.35	2275.67
563.71	2278.71
564.06	2282.05
564.42	2284.94
564.77	2287.38
565.12	2289.71
565.48	2291.69
565.83	2293.48
566.19	2294.86
566.54	2295.74
566.89	2296.94
567.25	2297.34
567.60	2298.66
567.96	2300.30
568.31	2301.25
568.66	2302.36
569.02	2302.91
569.37	2303.27
569.72	2304.20
570.08	2304.27
570.43	2304.43
570.78	2303.62
571.14	2302.04
571.49	2300.69
571.84	2300.23
572.20	2299.09
572.55	2297.93
572.90	2296.31
573.26	2294.96
573.61	2293.21
573.96	2291.51
574.31	2288.43
574.67	2285.43
575.02	2281.82
575.37	2278.46
575.72	2274.55
576.08	2271.30
576.43	2267.93
576.78	2264.13
577.13	2260.95
577.49	2257.95
577.84	2254.26
578.19	2250.53
578.54	2246.97
578.90	2242.59
579.25	2237.10
579.60	2232.14
579.95	2227.11
580.30	2222.08
580.66	2216.83
581.01	2211.88
581.36	2206.90
581.71	2202.77
582.06	2198.23
582.42	2193.76
582.77	2188.38
583.12	2183.84
583.47	2178.93
583.82	2173.80
584.17	2168.55
584.53	2162.99
584.88	2157.38
585.23	2151.57
585.58	2146.14
585.93	2140.56
586.28	2135.97
586.63	2130.87
586.98	2125.90
587.34	2121.17
587.69	2116.17
588.04	2110.88
588.39	2105.25
588.74	2098.73
589.09	2092.42
589.44	2085.60
589.79	2079.60
590.14	2074.06
590.49	2067.43
590.84	2061.05
591.19	2055.09
591.54	2048.69
591.89	2041.23
592.25	2034.35
592.60	2027.11
592.95	2019.47
593.30	2012.00
593.65	2004.23
594.00	1997.12
594.35	1989.76
594.70	1981.75
595.05	1974.61
595.40	1967.29
595.75	1959.66
596.10	1953.42
596.45	1946.67
596.80	1940.74
597.15	1933.90
597.50	1926.68
597.85	1920.28
598.19	1913.67
598.54	1906.59
598.89	1899.86
599.24	1894.00
599.59	1887.26
599.94	1881.02
600.29	1874.69
600.64	1868.12
600.99	1860.76
601.34	1853.97
601.69	1846.97
602.04	1840.11
602.39	1832.73
602.74	1826.02
603.08	1819.28
603.43	1812.52
603.78	1805.33
604.13	1798.00
604.48	1790.84
604.83	1783.90
605.18	1776.84
605.53	1768.74
605.87	1760.71
606.22	1753.45
606.57	1745.49
606.92	1738.29
607.27	1731.25
607.62	1724.33
607.96	1717.12
608.31	1710.43
608.66	1702.78
609.01	1695.29
609.36	1687.65
609.70	1679.63
610.05	1671.49
610.40	1663.76
610.75	1655.37
611.10	1647.66
611.44	1639.26
611.79	1631.27
612.14	1622.68
612.49	1613.62
612.83	1605.25
613.18	1597.10
613.53	1589.00
613.88	1580.41
614.22	1571.93
614.57	1563.29
614.92	1555.22
615.27	1547.69
615.61	1539.29
615.96	1531.25
616.31	1523.54
616.65	1516.18
617.00	1508.62
617.35	1500.97
617.70	1492.79
618.04	1484.36
618.39	1476.08
618.74	1468.43
619.08	1460.02
619.43	1452.51
619.78	1445.57
620.12	1438.33
620.47	1430.79
620.82	1422.60
621.16	1415.27
621.51	1407.73
621.85	1400.16
622.20	1391.62
622.55	1383.25
622.89	1375.42
623.24	1367.86
623.59	1360.43
623.93	1352.96
624.28	1345.74
624.62	1338.16
624.97	1330.92
625.32	1324.24
625.66	1317.21
626.01	1309.96
626.35	1302.54
626.70	1294.78
627.04	1286.98
627.39	1279.23
627.73	1271.92
628.08	1264.95
628.43	1257.62
628.77	1250.24
629.12	1242.56
629.46	1235.37
629.81	1227.95
630.15	1220.82
630.50	1213.33
630.84	1205.16
631.19	1197.25
631.53	1189.77
631.88	1182.23
632.22	1174.62
632.57	1167.15
632.91	1159.69
633.26	1152.36
633.60	1145.11
633.95	1137.99
634.29	1130.92
634.64	1124.19
634.98	1116.75
635.32	1109.68
635.67	1103.08
636.01	1096.44
636.36	1089.74
636.70	1083.25
637.05	1076.69
637.39	1070.25
637.73	1063.74
638.08	1057.83
638.42	1051.77
638.77	1045.24
639.11	1038.61
639.45	1032.18
639.80	1025.60
640.14	1019.07
640.49	1012.53
640.83	1006.16
641.17	999.85
641.52	993.52
641.86	987.17
642.20	981.27
642.55	975.04
642.89	968.52
643.23	961.98
643.58	956.14
643.92	949.97
644.26	943.85
644.61	937.71
644.95	931.69
645.29	925.10
645.64	918.41
645.98	912.13
646.32	906.39
646.66	900.38
647.01	894.54
647.35	888.86
647.69	883.04
648.04	877.54
648.38	871.76
648.72	865.83
649.06	859.75
649.41	853.88
649.75	847.84
650.09	841.99
650.43	836.29
650.78	830.10
651.12	824.25
651.46	818.53
651.80	812.82
652.14	807.45
652.49	802.07
652.83	796.92
653.17	791.13
653.51	785.37
653.85	780.02
654.20	774.43
654.54	768.48
654.88	762.75
655.22	756.88
655.56	751.22
655.90	745.80
656.25	740.51
656.59	735.18
656.93	730.04
657.27	724.80
657.61	719.31
657.95	714.23
658.29	709.07
658.64	703.88
658.98	698.52
659.32	693.05
659.66	687.88
660.00	682.54
660.34	677.65
660.68	672.72
661.02	667.72
661.36	662.99
661.70	658.49
662.05	654.13
662.39	649.80
662.73	645.38
663.07	640.97
663.41	636.57
663.75	632.10
664.09	627.64
664.43	623.31
664.77	619.22
665.11	614.98
665.45	610.84
665.79	606.67
666.13	602.53
666.47	598.49
666.81	594.31
667.15	590.25
667.49	586.35
667.83	582.58
668.17	578.65
668.51	574.51
668.85	570.50
669.19	566.63
669.53	562.74
669.87	558.80
670.21	555.14
670.55	551.46
670.89	547.99
671.23	544.51
671.57	540.99
671.91	537.41
672.25	533.96
672.58	530.45
672.92	527.16
673.26	524.08
673.60	520.93
673.94	517.83
674.28	514.92
674.62	511.98
674.96	508.85
675.30	505.89
675.64	503.02
675.97	500.31
676.31	497.46
676.65	494.53
676.99	491.85
677.33	488.95
677.67	486.12
678.01	483.10
678.34	480.15
678.68	477.29
679.02	474.49
679.36	471.71
679.70	468.99
680.04	466.15
680.37	463.25
680.71	460.47
681.05	457.82
681.39	455.05
681.73	452.43
682.06	449.87
682.40	447.32
682.74	444.82
683.08	442.20
683.42	439.61
683.75	437.15
684.09	434.61
684.43	432.17
684.77	429.76
685.10	427.48
685.44	425.18
685.78	422.89
686.12	420.63
686.45	418.35
686.79	416.04
687.13	413.84
687.46	411.72
687.80	409.58
688.14	407.44
688.48	405.44
688.81	403.13
689.15	401.00
689.49	398.88
689.82	396.76
690.16	394.71
690.50	392.76
690.83	390.80
691.17	388.81
691.51	386.87
691.84	385.01
692.18	383.07
692.52	381.10
692.85	379.13
693.19	377.23
693.52	375.38
693.86	373.58
694.20	371.83
694.53	369.96
694.87	368.12
695.21	366.29
695.54	364.44
695.88	362.75
696.21	361.02
696.55	359.32
696.88	357.67
697.22	356.00
697.56	354.37
697.89	352.70
698.23	351.11
698.56	349.51
698.90	347.90
699.23	346.25
699.57	344.71
699.90	343.20
700.24	341.68
700.58	340.14
700.91	338.63
701.25	337.17
701.58	335.87
701.92	334.50
702.25	333.15
702.59	331.77
702.92	330.47
703.26	329.17
703.59	327.90
703.93	326.72
704.26	325.46
704.60	324.19
704.93	322.92
705.26	321.68
705.60	320.53
705.93	319.40
706.27	318.34
706.60	317.27
706.94	316.17
707.27	315.07
707.61	314.07
707.94	313.05
708.27	311.98
708.61	310.88
708.94	309.86
709.28	308.85
709.61	307.91
709.94	306.95
710.28	305.92
710.61	304.93
710.95	303.85
711.28	302.96
711.61	301.99
711.95	301.08
712.28	300.14
712.61	299.14
712.95	298.18
713.28	297.32
713.61	296.40
713.95	295.52
714.28	294.68
714.61	293.80
714.95	292.95
715.28	292.06
715.61	291.15
715.95	290.32
716.28	289.45
716.61	288.64
716.95	287.84
717.28	287.11
717.61	286.33
717.94	285.57
718.28	284.77
718.61	284.03
718.94	283.32
719.27	282.64
719.61	282.02
719.94	281.38
720.27	280.62
720.60	279.95
720.94	279.32
721.27	278.69
721.60	278.13
721.93	277.51
722.27	277.00
722.60	276.47
722.93	275.89
723.26	275.39
723.59	274.78
723.93	274.19
724.26	273.63
724.59	273.07
724.92	272.61
725.25	272.09
725.59	271.58
725.92	271.11
726.25	270.64
726.58	270.12
726.91	269.63
727.24	269.20
727.57	268.78
727.91	268.27
728.24	267.80
728.57	267.30
728.90	266.87
729.23	266.34
729.56	265.95
729.89	265.48
730.22	264.99
730.55	264.55
730.89	264.14
731.22	263.73
731.55	263.35
731.88	262.87
732.21	262.46
732.54	262.01
732.87	261.56
733.20	261.19
733.53	260.81
733.86	260.42
734.19	260.01
734.52	259.63
734.85	259.33
735.18	258.89
735.51	258.51
735.84	258.13
736.17	257.78
736.50	257.32
736.83	257.09
737.16	256.77
737.49	256.44
737.82	256.08
738.15	255.71
738.48	255.34
738.81	255.01
739.14	254.68
739.47	254.41
739.80	254.08
740.13	253.75
740.46	253.42
740.79	253.09
741.12	252.79
741.45	252.48
741.78	252.14
742.11	251.88
742.44	251.55
742.77	251.27
743.10	250.98
743.43	250.72
743.75	250.36
744.08	250.20
744.41	249.93
744.74	249.65
745.07	249.40
745.40	249.18
745.73	248.98
746.06	248.68
746.39	248.42
746.71	248.17
747.04	247.92
747.37	247.69
747.70	247.45
748.03	247.18
748.36	246.95
748.68	246.70
749.01	246.45
749.34	246.23
749.67	245.99
750.00	245.77
750.33	245.59
750.65	245.36
750.98	245.02
751.31	244.79
751.64	244.60
751.97	244.40
752.29	244.17
752.62	243.93
752.95	243.77
753.28	243.52
753.60	243.32
753.93	243.12
754.26	242.90
754.59	242.65
754.91	242.46
755.24	242.28
755.57	242.11
755.90	241.98
756.22	241.79
756.55	241.59
756.88	241.42
757.20	241.18
757.53	240.99
757.86	240.82
758.19	240.68
758.51	240.47
758.84	240.30
759.17	240.13
759.49	239.93
759.82	239.83
760.15	239.72
760.47	239.56
760.80	239.41
761.13	239.26
761.45	239.12
761.78	239.03
762.11	238.89
762.43	238.75
762.76	238.58
763.08	238.49
763.41	238.38
763.74	238.24
764.06	238.13
764.39	238.01
764.71	237.89
765.04	237.76
765.37	237.65
765.69	237.52
766.02	237.43
766.34	237.33
766.67	237.16
767.00	237.06
767.32	236.99
767.65	236.92
767.97	236.84
768.30	236.71
768.62	236.56
768.95	236.41
769.27	236.29
769.60	236.18
769.92	236.03
770.25	235.92
770.57	235.78
770.90	235.68
771.22	235.55
771.55	235.41
771.87	235.27
772.20	235.18
772.52	235.15
772.85	235.14
773.17	235.05
773.50	234.94
773.82	234.85
774.15	234.72
774.47	234.56
774.80	234.43
775.12	234.37
775.45	234.28
775.77	234.19
776.09	234.07
776.42	233.96
776.74	233.93
777.07	233.83
777.39	233.79
777.72	233.71
778.04	233.64
778.36	233.55
778.69	233.51
779.01	233.48
779.33	233.31
779.66	233.12
779.98	233.01
780.31	232.91
780.63	232.85
780.95	232.82
781.28	232.74
781.60	232.68
781.92	232.62
782.25	232.57
782.57	232.52
782.89	232.47
783.22	232.41
783.54	232.28
783.86	232.23
784.19	232.14
784.51	232.09
784.83	232.03
785.16	231.99
785.48	231.93
785.80	231.81
786.12	231.76
786.45	231.72
786.77	231.71
787.09	231.68
787.42	231.59
787.74	231.51
788.06	231.52
788.38	231.45
788.71	231.38
789.03	231.31
789.35	231.28
789.67	231.21
789.99	231.19
790.32	231.17
790.64	231.15
790.96	231.18
791.28	231.09
791.61	231.07
791.93	231.05
792.25	231.00
792.57	231.05
792.89	231.00
793.21	230.98
793.54	230.92
793.86	230.87
794.18	230.84
794.50	230.81
794.82	230.73
795.14	230.75
795.47	230.73
795.79	230.73
796.11	230.67
796.43	230.65
796.75	230.59
797.07	230.59
797.39	230.53
797.71	230.46
798.04	230.45
798.36	230.38
798.68	230.32
799.00	230.31
799.32	230.20
799.64	230.19
799.96	230.15
800.28	230.16
800.60	230.15
800.92	230.13
801.24	230.12
801.56	230.13
801.89	230.08
802.21	230.07
802.53	230.02
802.85	230.04
803.17	230.06
803.49	230.04
803.81	230.03
804.13	230.00
804.45	229.95
804.77	229.94
805.09	229.96
805.41	229.96
805.73	229.91
806.05	229.86
806.37	229.83
806.69	229.82
807.01	229.78
807.33	229.74
807.65	229.64
807.97	229.61
808.28	229.54
808.60	229.50
808.92	229.44
809.24	229.50
809.56	229.42
809.88	229.37
810.20	229.36
810.52	229.32
810.84	229.31
811.16	229.28
811.48	229.24
811.80	229.23
812.12	229.18
812.43	229.15
812.75	229.16
813.07	229.14
813.39	229.12
813.71	229.06
814.03	229.04
814.35	229.02
814.67	228.97
814.98	228.95
815.30	228.92
815.62	228.89
815.94	228.80
816.26	228.82
816.58	228.75
816.89	228.72
817.21	228.67
817.53	228.65
817.85	228.63
818.17	228.59
818.48	228.55
818.80	228.56
819.12	228.56
819.44	228.51
819.76	228.49
820.07	228.46
820.39	228.45
820.71	228.44
821.03	228.45
821.34	228.42
821.66	228.40
821.98	228.38
822.30	228.36
822.61	228.38
822.93	228.32
823.25	228.33
823.57	228.29
823.88	228.30
824.20	228.26
824.52	228.23
824.83	228.23
825.15	228.20
825.47	228.16
825.79	228.14
826.10	228.12
826.42	228.09
826.74	228.06
827.05	228.05
827.37	228.04
827.69	228.02
828.00	228.04
828.32	228.03
828.64	228.01
828.95	228.07
829.27	228.06
829.58	228.05
829.90	228.06
830.22	228.09
830.53	228.05
830.85	228.06
831.17	228.06
831.48	228.06
831.80	228.10
832.11	228.11
832.43	228.10
832.75	228.12
833.06	228.19
833.38	228.16
833.69	228.14
834.01	228.15
834.32	228.15
834.64	228.13
834.96	228.13
835.27	228.13
835.59	228.11
835.90	228.05
836.22	228.06
836.53	228.06
836.85	228.04
837.16	228.14
837.48	228.14
837.79	228.17
838.11	228.17
838.42	228.12
838.74	228.12
839.05	228.13
839.37	228.12
839.68	228.04
840.00	228.06
840.31	228.10
840.63	228.08
840.94	228.08
841.26	228.09
841.57	228.10
841.88	228.11
842.20	228.10
842.51	228.08
842.83	228.07
843.14	228.10
843.46	228.08
843.77	228.05
844.08	228.01
844.40	227.98
844.71	227.97
845.03	227.95
845.34	227.91
845.65	227.89
845.97	227.86
846.28	227.87
846.60	227.86
846.91	227.83
847.22	227.82
847.54	227.84
847.85	227.81
848.16	227.78
848.48	227.75
848.79	227.77
849.10	227.78
849.42	227.78
849.73	227.68
850.04	227.68
850.36	227.62
850.67	227.61
850.98	227.60
851.30	227.60
851.61	227.60
851.92	227.58
852.23	227.57
852.55	227.55
852.86	227.55
853.17	227.51
853.49	227.51
853.80	227.49
854.11	227.46
854.42	227.48
854.74	227.45
855.05	227.44
855.36	227.39
855.67	227.40
855.99	227.42
856.30	227.57
856.61	227.54
856.92	227.55
857.23	227.58
857.55	227.56
857.86	227.55
858.17	227.55
858.48	227.55
858.79	227.55
859.11	227.57
859.42	227.56
859.73	227.57
860.04	227.57
860.35	227.57
860.66	227.53
860.98	227.51
861.29	227.53
861.60	227.57
861.91	227.59
862.22	227.56
862.53	227.53
862.84	227.39
863.16	227.43
863.47	227.40
863.78	227.38
864.09	227.39
864.40	227.39
864.71	227.40
865.02	227.43
865.33	227.42
865.64	227.40
865.95	227.39
866.27	227.43
866.58	227.45
866.89	227.46
867.20	227.49
867.51	227.47
867.82	227.48
868.13	227.47
868.44	227.42
868.75	227.44
869.06	227.43
869.37	227.44
869.68	227.41
869.99	227.42
870.30	227.43
870.61	227.40
870.92	227.39
871.23	227.36
871.54	227.36
871.85	227.39
872.16	227.41
872.47	227.40
872.78	227.36
873.09	227.36
873.40	227.35
873.71	227.34
874.02	227.34
874.33	227.33
874.64	227.32
874.95	227.32
875.26	227.30
875.56	227.31
875.87	227.31
876.18	227.27
876.49	227.37
876.80	227.35
877.11	227.36
877.42	227.37
877.73	227.41
878.04	227.41
878.35	227.37
878.66	227.37
878.96	227.39
879.27	227.40
879.58	227.38
879.89	227.34
880.20	227.37
880.51	227.38
880.82	227.36
881.12	227.33
881.43	227.33
881.74	227.32
882.05	227.29
882.36	227.27
882.67	227.32
882.97	227.25
883.28	227.25
883.59	227.25
883.90	227.23
884.21	227.20
884.51	227.19
884.82	227.19
885.13	227.18
885.44	227.15
885.74	227.11
886.05	227.10
886.36	227.13
886.67	227.12
886.98	227.16
887.28	227.19
887.59	227.19
887.90	227.20
888.20	227.20
888.51	227.18
888.82	227.19
889.13	227.20
889.43	227.23
889.74	227.22
890.05	227.21
890.35	227.22
890.66	227.21
890.97	227.16
891.28	227.16
891.58	227.19
891.89	227.16
892.20	227.16
892.50	227.16
892.81	227.14
893.12	227.12
893.42	227.02
893.73	227.01
894.04	227.02
894.34	227.01
894.65	227.00
894.95	227.05
895.26	227.01
895.57	227.02
895.87	226.90
896.18	226.93
896.48	226.94
896.79	226.96
897.10	226.97
897.40	227.00
897.71	227.01
898.01	226.95
898.32	226.98
898.63	226.97
898.93	226.96
899.24	226.96
899.54	226.97
899.85	226.99
900.15	227.00
900.46	226.99
900.76	226.99
901.07	227.00
901.38	227.00
901.68	227.04
901.99	226.99
902.29	227.05
902.60	227.01
902.90	227.01
903.21	226.98
903.51	226.98
903.82	227.01
904.12	227.04
904.43	227.06
904.73	227.04
905.03	227.09
905.34	227.20
905.64	227.21
905.95	227.18
906.25	227.18
906.56	227.17
906.86	227.19
907.17	227.20
907.47	227.20
907.77	227.20
908.08	227.17
908.38	227.18
908.69	227.19
908.99	227.23
909.30	227.20
909.60	227.20
909.90	227.20
910.21	227.19
910.51	227.16
910.81	227.19
911.12	227.23
911.42	227.23
911.73	227.10
912.03	227.08
912.33	227.10
912.64	227.09
912.94	227.09
913.24	227.07
913.55	227.04
913.85	227.03
914.15	227.05
914.46	227.04
914.76	227.04
915.06	227.04
915.37	227.02
915.67	227.04
915.97	227.04
916.27	227.03
916.58	227.03
916.88	227.01
917.18	227.01
917.49	227.04
917.79	227.02
918.09	227.06
918.39	227.10
918.70	227.09
919.00	227.08
919.30	227.15
919.60	227.14
919.91	227.17
920.21	227.17
920.51	227.13
920.81	227.16
921.12	227.17
921.42	227.15
921.72	227.16
922.02	227.19
922.32	227.23
922.63	227.22
922.93	227.24
923.23	227.26
923.53	227.23
923.83	227.21
924.13	227.20
924.44	227.17
924.74	227.18
925.04	227.25
925.34	227.25
925.64	227.20
925.94	227.18
926.24	227.21
926.55	227.22
926.85	227.22
927.15	227.21
927.45	227.20
927.75	227.22
928.05	227.20
928.35	227.14
928.65	227.13
928.95	227.13
929.26	227.10
929.56	227.08
929.86	227.09
930.16	227.03
930.46	227.05
930.76	227.07
931.06	227.05
931.36	227.01
931.66	227.05
931.96	227.05
932.26	227.09
932.56	227.06
932.86	227.05
933.16	227.06
933.46	227.06
933.76	227.03
934.06	227.04
934.36	227.05
934.66	227.04
934.96	227.01
935.26	227.02
935.56	227.03
935.86	227.03
936.16	227.00
936.46	227.02
936.76	226.99
937.06	226.96
937.36	226.94
937.66	226.94
937.96	226.91
938.26	226.88
938.56	226.88
938.86	226.85
939.16	226.85
939.46	226.88
939.76	226.88
940.06	226.92
940.35	226.91
940.65	226.86
940.95	226.94
941.25	226.93
941.55	226.91
941.85	226.91
942.15	226.95
942.45	226.95
942.75	226.91
943.04	226.94
943.34	226.97
943.64	226.95
943.94	226.95
944.24	226.96
944.54	226.98
944.84	226.99
945.13	227.01
945.43	227.01
945.73	227.01
946.03	227.00
946.33	226.98
946.62	226.98
946.92	226.99
947.22	226.97
947.52	226.96
947.82	226.97
948.11	226.95
948.41	226.89
948.71	226.89
949.01	226.94
949.31	226.94
949.60	226.94
949.90	226.99
950.20	226.97
950.50	226.95
950.79	226.96
951.09	226.95
951.39	226.96
951.69	226.97
951.98	226.96
952.28	227.00
952.58	227.00
952.87	227.01
953.17	227.07
953.47	227.05
953.76	227.08
954.06	227.07
954.36	227.07
954.66	227.10
954.95	227.16
955.25	227.16
955.55	227.16
955.84	227.15
956.14	227.11
956.44	227.12
956.73	227.12
957.03	227.12
957.32	227.11
957.62	227.09
957.92	227.09
958.21	227.08
958.51	227.16
958.81	227.18
959.10	227.20
959.40	227.16
959.69	227.18
959.99	227.20
960.29	227.26
960.58	227.26
960.88	227.31
961.17	227.28
961.47	227.30
961.76	227.33
962.06	227.36
962.36	227.39
962.65	227.39
962.95	227.43
963.24	227.41
963.54	227.43
963.83	227.44
964.13	227.44
964.42	227.40
964.72	227.34
965.01	227.32
965.31	227.28
965.60	227.27
965.90	227.33
966.19	227.28
966.49	227.26
966.78	227.31
967.08	227.30
967.37	227.29
967.67	227.27
967.96	227.27
968.26	227.21
968.55	227.23
968.85	227.23
969.14	227.18
969.43	227.18
969.73	227.18
970.02	227.18
970.32	227.16
970.61	227.22
970.91	227.15
971.20	227.11
971.49	227.12
971.79	227.12
972.08	227.05
972.38	227.08
972.67	227.07
972.96	227.04
973.26	226.99
973.55	227.04
973.85	227.03
974.14	227.00
974.43	227.04
974.73	227.00
975.02	226.98
975.31	227.04
975.61	227.04
975.90	227.04
976.19	227.04
976.49	227.02
976.78	227.02
977.07	227.03
977.37	227.04
977.66	227.07
977.95	227.05
978.24	227.05
978.54	227.09
978.83	227.09
979.12	227.07
979.42	227.07
979.71	227.03
980.00	226.99
980.29	227.00
980.59	226.97
980.88	226.98
981.17	226.99
981.46	226.95
981.76	226.94
982.05	226.95
982.34	226.94
982.63	226.96
982.93	226.95
983.22	226.99
983.51	226.98
983.80	226.98
984.09	226.98
984.39	226.97
984.68	226.91
984.97	226.92
985.26	226.92
985.55	226.92
985.85	226.90
986.14	226.93
986.43	226.96
986.72	226.99
987.01	226.95
987.30	226.91
987.59	226.91
987.89	226.93
988.18	226.89
988.47	226.92
988.76	226.91
989.05	226.89
989.34	226.87
989.63	226.90
989.92	226.90
990.22	226.91
990.51	226.92
990.80	226.92
991.09	226.91
991.38	226.92
991.67	226.91
991.96	226.93
992.25	226.96
992.54	226.95
992.83	226.95
993.12	226.96
993.41	227.01
993.70	227.05
993.99	227.07
994.28	227.07
994.58	227.05
994.87	227.02
995.16	227.02
995.45	227.01
995.74	226.99
996.03	226.98
996.32	227.01
996.61	227.01
996.90	227.01
997.19	227.00
997.48	226.98
997.77	226.96
998.06	226.91
998.34	226.88
998.63	226.87
998.92	226.87
999.21	226.87
999.50	226.85
999.79	226.82
1000.08	226.76
1000.37	226.76
1000.66	226.74
1000.95	226.75
1001.24	226.74
1001.53	226.74
1001.82	226.71
1002.11	226.68
1002.40	226.66
1002.68	226.65
1002.97	226.72
1003.26	226.72
1003.55	226.68
1003.84	226.73
1004.13	226.78
1004.42	226.74
1004.71	226.71
1004.99	226.66
1005.28	226.70
1005.57	226.71
1005.86	226.69
1006.15	226.69
1006.44	226.66
1006.72	226.67
1007.01	226.68
1007.30	226.68
1007.59	226.67
1007.88	226.69
1008.17	226.72
1008.45	226.69
1008.74	226.66
1009.03	226.63
1009.32	226.63
1009.60	226.65
1009.89	226.63
1010.18	226.60
1010.47	226.63
1010.76	226.68
1011.04	226.68
1011.33	226.67
1011.62	226.68
1011.91	226.68
1012.19	226.72
1012.48	226.72
1012.77	226.72
1013.05	226.77
1013.34	226.78
1013.63	226.77
1013.92	226.74
1014.20	226.70
1014.49	226.71
1014.78	226.71
1015.06	226.67
1015.35	226.63
1015.64	226.63
1015.92	226.63
1016.21	226.64
1016.50	226.63
1016.78	226.61
1017.07	226.60
1017.36	226.55
1017.64	226.54
1017.93	226.54
1018.22	226.49
1018.50	226.49
1018.79	226.49
1019.08	226.43
1019.36	226.44
1019.65	226.46
1019.93	226.52
1020.22	226.58
1020.51	226.63
1020.79	226.61
1021.08	226.01
1021.36	226.33
1021.65	226.69
1021.94	226.33
1022.22	226.93
1022.51	226.64
1022.79	227.51
1023.08	227.26
1023.36	227.68
1023.65	226.27
>>>>>End Processed Spectral Data<<<<<
