SpectraSuite Data File
++++++++++++++++++++++++++++++++++++
Date: Fri Feb 01 16:54:35 EST 2013
User: group
Dark Spectrum Present: No
Reference Spectrum Present: No
Number of Sampled Component Spectra: 1
Spectrometers: USB2E7196
Integration Time (usec): 35000 (USB2E7196)
Spectra Averaged: 100 (USB2E7196)
Boxcar Smoothing: 10 (USB2E7196)
Correct for Electrical Dark: No (USB2E7196)
Strobe/Lamp Enabled: No (USB2E7196)
Correct for Detector Non-linearity: No (USB2E7196)
Correct for Stray Light: No (USB2E7196)
Number of Pixels in Processed Spectrum: 2048
>>>>>Begin Processed Spectral Data<<<<<
339.09	0.00
339.48	214.04
339.86	214.77
340.24	216.17
340.63	216.87
341.01	220.06
341.39	220.22
341.78	221.31
342.16	223.06
342.54	223.35
342.93	211.69
343.31	222.39
343.69	222.90
344.07	223.35
344.46	223.77
344.84	224.14
345.22	224.39
345.60	224.64
345.99	224.80
346.37	224.90
346.75	224.99
347.13	225.07
347.52	225.13
347.90	225.21
348.28	225.18
348.66	225.20
349.05	225.15
349.43	225.21
349.81	225.23
350.19	225.28
350.57	225.33
350.96	225.38
351.34	225.47
351.72	225.54
352.10	225.63
352.48	225.69
352.87	225.77
353.25	225.84
353.63	225.90
354.01	225.98
354.39	226.08
354.77	226.16
355.15	226.24
355.54	226.27
355.92	226.30
356.30	226.39
356.68	226.52
357.06	226.60
357.44	226.66
357.82	226.73
358.20	226.79
358.58	226.87
358.97	226.92
359.35	227.01
359.73	227.11
360.11	227.16
360.49	227.23
360.87	227.32
361.25	227.34
361.63	227.40
362.01	227.46
362.39	227.46
362.77	227.50
363.15	227.54
363.53	227.61
363.91	227.66
364.29	227.74
364.67	227.68
365.05	227.72
365.43	227.74
365.81	227.75
366.19	227.81
366.57	227.83
366.95	227.84
367.33	227.81
367.71	227.75
368.09	227.76
368.47	227.72
368.85	227.67
369.23	227.71
369.61	227.66
369.99	227.68
370.37	227.69
370.75	227.68
371.13	227.64
371.51	227.60
371.89	227.56
372.27	227.51
372.65	227.47
373.03	227.44
373.41	227.38
373.78	227.34
374.16	227.23
374.54	227.17
374.92	227.15
375.30	227.09
375.68	227.06
376.06	227.01
376.44	226.98
376.82	226.95
377.19	226.88
377.57	226.81
377.95	226.73
378.33	226.64
378.71	226.54
379.09	226.44
379.47	226.39
379.84	226.33
380.22	226.23
380.60	226.17
380.98	226.09
381.36	226.02
381.73	225.92
382.11	225.90
382.49	225.83
382.87	225.75
383.25	225.67
383.62	225.73
384.00	225.65
384.38	225.61
384.76	225.57
385.13	225.54
385.51	225.49
385.89	225.41
386.27	225.37
386.64	225.35
387.02	225.35
387.40	225.33
387.78	225.30
388.15	225.25
388.53	225.20
388.91	225.17
389.29	225.12
389.66	225.12
390.04	225.09
390.42	225.08
390.79	225.06
391.17	225.08
391.55	224.95
391.92	224.92
392.30	224.91
392.68	224.86
393.05	224.85
393.43	224.86
393.81	224.90
394.18	224.89
394.56	224.90
394.94	224.87
395.31	224.84
395.69	224.86
396.06	224.91
396.44	224.96
396.82	224.98
397.19	225.07
397.57	225.08
397.95	225.11
398.32	225.12
398.70	225.15
399.07	225.20
399.45	225.27
399.82	225.33
400.20	225.37
400.58	225.47
400.95	225.49
401.33	225.59
401.70	225.68
402.08	225.77
402.45	225.84
402.83	225.98
403.20	226.06
403.58	226.14
403.95	226.25
404.33	226.34
404.71	226.46
405.08	226.63
405.46	226.77
405.83	226.94
406.21	227.10
406.58	227.26
406.96	227.40
407.33	227.57
407.70	227.76
408.08	228.05
408.45	228.26
408.83	228.50
409.20	228.68
409.58	228.89
409.95	229.16
410.33	229.43
410.70	229.67
411.08	230.00
411.45	230.31
411.82	230.62
412.20	230.99
412.57	231.40
412.95	231.70
413.32	232.13
413.69	232.51
414.07	232.94
414.44	233.39
414.82	233.88
415.19	234.42
415.56	234.94
415.94	235.47
416.31	236.09
416.68	236.72
417.06	237.45
417.43	238.11
417.81	238.88
418.18	239.66
418.55	240.51
418.93	241.38
419.30	242.26
419.67	243.15
420.04	244.09
420.42	245.09
420.79	246.25
421.16	247.37
421.54	248.55
421.91	249.78
422.28	251.04
422.66	252.34
423.03	253.65
423.40	255.01
423.77	256.37
424.15	257.75
424.52	259.22
424.89	260.82
425.26	262.33
425.64	263.76
426.01	265.31
426.38	266.94
426.75	268.57
427.13	270.27
427.50	272.12
427.87	273.94
428.24	275.81
428.61	277.56
428.99	279.49
429.36	281.54
429.73	283.57
430.10	285.56
430.47	287.61
430.85	289.69
431.22	291.90
431.59	294.31
431.96	296.57
432.33	299.04
432.70	301.38
433.08	304.17
433.45	306.80
433.82	309.41
434.19	312.27
434.56	315.09
434.93	317.75
435.30	320.31
435.68	323.20
436.05	325.99
436.42	328.75
436.79	331.24
437.16	333.88
437.53	336.64
437.90	339.48
438.27	342.23
438.64	345.03
439.01	347.61
439.38	349.79
439.75	351.92
440.13	354.35
440.50	356.64
440.87	358.51
441.24	360.44
441.61	362.58
441.98	364.06
442.35	365.85
442.72	367.65
443.09	369.52
443.46	370.52
443.83	371.09
444.20	371.66
444.57	372.52
444.94	372.89
445.31	373.27
445.68	373.62
446.05	373.69
446.42	373.32
446.79	372.90
447.16	372.54
447.53	372.28
447.90	371.19
448.27	370.10
448.64	368.53
449.01	367.40
449.37	365.49
449.74	363.63
450.11	361.42
450.48	359.05
450.85	356.51
451.22	354.38
451.59	352.38
451.96	350.39
452.33	347.79
452.70	345.44
453.07	342.66
453.43	339.82
453.80	337.08
454.17	334.43
454.54	331.92
454.91	329.20
455.28	326.52
455.65	324.04
456.02	321.62
456.38	319.50
456.75	316.88
457.12	314.64
457.49	312.47
457.86	310.27
458.23	308.38
458.59	306.33
458.96	304.28
459.33	302.47
459.70	300.66
460.07	299.19
460.43	297.52
460.80	295.92
461.17	294.47
461.54	292.96
461.91	291.58
462.27	290.10
462.64	288.85
463.01	287.52
463.38	286.25
463.74	284.86
464.11	283.73
464.48	282.70
464.85	281.59
465.21	280.71
465.58	279.84
465.95	278.78
466.32	277.94
466.68	277.07
467.05	276.19
467.42	275.30
467.78	274.35
468.15	273.47
468.52	272.80
468.88	271.92
469.25	271.17
469.62	270.53
469.98	269.89
470.35	269.28
470.72	268.71
471.08	268.05
471.45	267.53
471.82	267.00
472.18	266.40
472.55	265.97
472.92	265.47
473.28	264.99
473.65	264.57
474.02	264.12
474.38	263.76
474.75	263.43
475.11	263.12
475.48	262.89
475.85	262.68
476.21	262.46
476.58	262.31
476.94	262.19
477.31	262.01
477.67	261.88
478.04	261.78
478.41	261.69
478.77	261.76
479.14	261.74
479.50	261.75
479.87	261.84
480.23	261.89
480.60	261.97
480.96	262.09
481.33	262.30
481.69	262.49
482.06	262.67
482.42	262.87
482.79	263.13
483.15	263.44
483.52	263.83
483.88	264.19
484.25	264.56
484.61	265.00
484.98	265.50
485.34	266.08
485.71	266.65
486.07	267.29
486.44	267.86
486.80	268.55
487.17	269.24
487.53	270.06
487.90	270.93
488.26	271.86
488.62	272.85
488.99	273.78
489.35	274.80
489.72	275.91
490.08	277.11
490.44	278.34
490.81	279.66
491.17	280.99
491.54	282.50
491.90	284.05
492.26	285.67
492.63	287.42
492.99	289.19
493.36	291.07
493.72	293.11
494.08	295.20
494.45	297.44
494.81	299.80
495.17	302.22
495.54	304.79
495.90	307.45
496.26	310.23
496.63	313.22
496.99	316.34
497.35	319.60
497.72	322.96
498.08	326.42
498.44	330.07
498.80	334.00
499.17	337.99
499.53	342.12
499.89	346.46
500.26	350.92
500.62	355.55
500.98	360.49
501.34	365.50
501.71	370.81
502.07	376.23
502.43	381.82
502.79	387.64
503.16	393.65
503.52	399.85
503.88	406.25
504.24	412.84
504.60	419.70
504.97	426.84
505.33	434.10
505.69	441.82
506.05	449.63
506.41	457.43
506.78	465.52
507.14	473.91
507.50	482.56
507.86	491.55
508.22	500.65
508.59	509.80
508.95	519.36
509.31	529.10
509.67	539.12
510.03	549.32
510.39	559.74
510.75	570.48
511.12	581.36
511.48	592.60
511.84	603.92
512.20	615.28
512.56	627.01
512.92	639.10
513.28	651.33
513.64	663.67
514.00	676.25
514.37	689.14
514.73	702.06
515.09	714.91
515.45	728.03
515.81	741.52
516.17	755.36
516.53	769.23
516.89	783.29
517.25	797.29
517.61	811.54
517.97	825.82
518.33	840.06
518.69	854.65
519.05	869.34
519.41	884.28
519.77	899.60
520.13	914.85
520.49	930.05
520.85	945.23
521.21	960.67
521.57	976.66
521.93	992.10
522.29	1008.26
522.65	1024.33
523.01	1040.32
523.37	1056.14
523.73	1071.96
524.09	1087.81
524.45	1103.79
524.81	1120.16
525.17	1136.62
525.53	1153.34
525.89	1169.92
526.25	1186.52
526.61	1202.65
526.97	1219.22
527.33	1235.42
527.68	1251.73
528.04	1267.95
528.40	1284.10
528.76	1300.78
529.12	1317.12
529.48	1333.82
529.84	1349.56
530.20	1365.83
530.56	1382.52
530.91	1399.67
531.27	1416.24
531.63	1432.41
531.99	1448.77
532.35	1464.49
532.71	1480.18
533.07	1496.14
533.42	1511.87
533.78	1527.67
534.14	1543.58
534.50	1558.58
534.86	1574.19
535.21	1589.15
535.57	1604.80
535.93	1620.10
536.29	1634.70
536.65	1649.59
537.00	1664.02
537.36	1679.01
537.72	1693.36
538.08	1707.51
538.44	1720.87
538.79	1734.47
539.15	1747.78
539.51	1761.19
539.87	1775.37
540.22	1788.74
540.58	1801.99
540.94	1814.91
541.29	1827.29
541.65	1839.91
542.01	1852.92
542.37	1865.10
542.72	1877.24
543.08	1888.79
543.44	1901.08
543.79	1912.19
544.15	1922.82
544.51	1934.17
544.87	1945.01
545.22	1955.65
545.58	1965.73
545.94	1975.53
546.29	1985.37
546.65	1995.27
547.01	2004.47
547.36	2012.90
547.72	2021.30
548.07	2029.28
548.43	2037.32
548.79	2045.25
549.14	2052.71
549.50	2059.90
549.86	2067.23
550.21	2074.55
550.57	2081.58
550.92	2088.00
551.28	2094.87
551.64	2101.99
551.99	2108.53
552.35	2114.52
552.70	2120.66
553.06	2126.57
553.41	2132.71
553.77	2138.56
554.13	2144.46
554.48	2150.50
554.84	2156.03
555.19	2161.29
555.55	2166.38
555.90	2170.97
556.26	2176.01
556.61	2180.72
556.97	2185.20
557.32	2189.48
557.68	2193.53
558.03	2198.06
558.39	2201.70
558.74	2206.51
559.10	2210.23
559.45	2213.72
559.81	2218.07
560.16	2221.79
560.52	2225.12
560.87	2228.59
561.23	2231.33
561.58	2234.34
561.94	2236.88
562.29	2239.20
562.64	2242.20
563.00	2244.86
563.35	2248.41
563.71	2251.70
564.06	2254.81
564.42	2257.72
564.77	2260.41
565.12	2263.08
565.48	2265.03
565.83	2267.12
566.19	2268.49
566.54	2269.61
566.89	2271.12
567.25	2271.93
567.60	2273.37
567.96	2275.26
568.31	2276.20
568.66	2277.50
569.02	2278.35
569.37	2278.93
569.72	2280.15
570.08	2280.38
570.43	2280.48
570.78	2280.07
571.14	2278.64
571.49	2277.57
571.84	2277.26
572.20	2276.36
572.55	2275.27
572.90	2273.90
573.26	2272.73
573.61	2271.14
573.96	2269.76
574.31	2266.93
574.67	2264.21
575.02	2260.85
575.37	2257.48
575.72	2254.06
576.08	2250.73
576.43	2247.40
576.78	2243.92
577.13	2240.67
577.49	2237.65
577.84	2234.51
578.19	2230.87
578.54	2227.45
578.90	2223.45
579.25	2218.18
579.60	2213.50
579.95	2208.74
580.30	2203.80
580.66	2198.63
581.01	2193.87
581.36	2188.91
581.71	2184.99
582.06	2180.61
582.42	2176.30
582.77	2171.39
583.12	2166.90
583.47	2162.58
583.82	2157.90
584.17	2152.92
584.53	2147.57
584.88	2142.02
585.23	2136.49
585.58	2131.26
585.93	2125.90
586.28	2121.07
586.63	2116.26
586.98	2111.30
587.34	2106.66
587.69	2101.83
588.04	2096.93
588.39	2091.47
588.74	2085.26
589.09	2079.12
589.44	2072.49
589.79	2066.55
590.14	2060.94
590.49	2054.48
590.84	2048.00
591.19	2041.99
591.54	2035.57
591.89	2028.59
592.25	2022.14
592.60	2015.04
592.95	2007.65
593.30	2000.54
593.65	1993.21
594.00	1986.13
594.35	1978.98
594.70	1971.04
595.05	1964.15
595.40	1956.89
595.75	1949.46
596.10	1943.44
596.45	1936.98
596.80	1931.09
597.15	1924.74
597.50	1917.97
597.85	1911.69
598.19	1905.32
598.54	1898.64
598.89	1892.22
599.24	1886.28
599.59	1879.78
599.94	1873.51
600.29	1867.18
600.64	1860.53
600.99	1853.31
601.34	1846.76
601.69	1839.87
602.04	1833.29
602.39	1825.96
602.74	1819.31
603.08	1812.64
603.43	1805.84
603.78	1798.66
604.13	1791.53
604.48	1784.34
604.83	1777.49
605.18	1770.82
605.53	1762.98
605.87	1754.93
606.22	1747.68
606.57	1739.90
606.92	1732.55
607.27	1725.64
607.62	1719.00
607.96	1711.99
608.31	1705.67
608.66	1698.03
609.01	1690.62
609.36	1683.14
609.70	1675.19
610.05	1667.35
610.40	1659.82
610.75	1651.70
611.10	1644.01
611.44	1635.64
611.79	1627.65
612.14	1619.12
612.49	1609.86
612.83	1601.51
613.18	1593.29
613.53	1585.30
613.88	1576.75
614.22	1568.52
614.57	1559.88
614.92	1551.89
615.27	1544.44
615.61	1536.04
615.96	1528.07
616.31	1520.38
616.65	1512.97
617.00	1505.53
617.35	1497.74
617.70	1489.52
618.04	1481.10
618.39	1472.89
618.74	1465.30
619.08	1456.96
619.43	1449.24
619.78	1442.33
620.12	1435.27
620.47	1427.98
620.82	1419.79
621.16	1412.45
621.51	1404.91
621.85	1397.29
622.20	1388.74
622.55	1380.30
622.89	1372.41
623.24	1364.73
623.59	1357.25
623.93	1349.74
624.28	1342.56
624.62	1335.18
624.97	1327.97
625.32	1321.01
625.66	1314.01
626.01	1306.84
626.35	1299.59
626.70	1291.88
627.04	1284.25
627.39	1276.32
627.73	1268.92
628.08	1262.02
628.43	1254.97
628.77	1247.59
629.12	1240.12
629.46	1232.97
629.81	1225.52
630.15	1218.31
630.50	1211.00
630.84	1202.99
631.19	1194.98
631.53	1187.39
631.88	1179.78
632.22	1172.17
632.57	1164.90
632.91	1157.35
633.26	1150.03
633.60	1142.52
633.95	1135.38
634.29	1128.32
634.64	1121.74
634.98	1114.31
635.32	1107.19
635.67	1100.37
636.01	1093.78
636.36	1086.99
636.70	1080.44
637.05	1073.92
637.39	1067.43
637.73	1060.97
638.08	1055.00
638.42	1049.18
638.77	1042.79
639.11	1036.26
639.45	1029.84
639.80	1023.30
640.14	1016.98
640.49	1010.48
640.83	1004.24
641.17	998.10
641.52	991.84
641.86	985.34
642.20	979.51
642.55	973.15
642.89	966.77
643.23	960.21
643.58	954.46
643.92	948.34
644.26	942.42
644.61	936.40
644.95	930.53
645.29	924.05
645.64	917.31
645.98	910.96
646.32	905.04
646.66	899.04
647.01	893.29
647.35	887.55
647.69	881.69
648.04	876.16
648.38	870.47
648.72	864.48
649.06	858.49
649.41	852.61
649.75	846.72
650.09	840.77
650.43	834.98
650.78	828.79
651.12	822.87
651.46	817.05
651.80	811.39
652.14	805.95
652.49	800.68
652.83	795.45
653.17	789.89
653.51	784.25
653.85	778.86
654.20	773.21
654.54	767.20
654.88	761.32
655.22	755.43
655.56	749.69
655.90	744.18
656.25	738.92
656.59	733.61
656.93	728.49
657.27	723.35
657.61	717.89
657.95	712.90
658.29	707.83
658.64	702.54
658.98	697.21
659.32	691.71
659.66	686.40
660.00	681.20
660.34	676.23
660.68	671.23
661.02	666.21
661.36	661.54
661.70	657.05
662.05	652.83
662.39	648.49
662.73	644.05
663.07	639.70
663.41	635.31
663.75	630.82
664.09	626.32
664.43	621.86
664.77	617.83
665.11	613.55
665.45	609.39
665.79	605.38
666.13	601.25
666.47	597.09
666.81	592.96
667.15	588.78
667.49	584.81
667.83	581.04
668.17	577.16
668.51	573.12
668.85	569.11
669.19	565.22
669.53	561.47
669.87	557.65
670.21	553.94
670.55	550.30
670.89	546.88
671.23	543.48
671.57	540.02
671.91	536.55
672.25	533.00
672.58	529.44
672.92	525.97
673.26	522.77
673.60	519.65
673.94	516.59
674.28	513.69
674.62	510.80
674.96	507.73
675.30	504.81
675.64	501.88
675.97	499.13
676.31	496.32
676.65	493.42
676.99	490.67
677.33	487.78
677.67	484.93
678.01	481.92
678.34	478.94
678.68	476.08
679.02	473.25
679.36	470.52
679.70	467.84
680.04	465.12
680.37	462.32
680.71	459.49
681.05	456.85
681.39	454.09
681.73	451.39
682.06	448.89
682.40	446.43
682.74	443.86
683.08	441.31
683.42	438.72
683.75	436.20
684.09	433.62
684.43	431.24
684.77	428.80
685.10	426.44
685.44	424.10
685.78	421.80
686.12	419.48
686.45	417.24
686.79	414.92
687.13	412.75
687.46	410.57
687.80	408.43
688.14	406.20
688.48	404.18
688.81	402.03
689.15	399.88
689.49	397.67
689.82	395.60
690.16	393.48
690.50	391.49
690.83	389.54
691.17	387.55
691.51	385.60
691.84	383.75
692.18	381.80
692.52	379.88
692.85	377.90
693.19	376.06
693.52	374.17
693.86	372.35
694.20	370.55
694.53	368.74
694.87	366.90
695.21	365.09
695.54	363.28
695.88	361.47
696.21	359.71
696.55	358.02
696.88	356.32
697.22	354.66
697.56	353.03
697.89	351.43
698.23	349.85
698.56	348.24
698.90	346.66
699.23	345.04
699.57	343.47
699.90	341.93
700.24	340.34
700.58	338.82
700.91	337.34
701.25	335.88
701.58	334.53
701.92	333.15
702.25	331.78
702.59	330.44
702.92	329.15
703.26	327.87
703.59	326.58
703.93	325.40
704.26	324.18
704.60	322.90
704.93	321.58
705.26	320.34
705.60	319.15
705.93	317.95
706.27	316.91
706.60	315.83
706.94	314.77
707.27	313.68
707.61	312.61
707.94	311.58
708.27	310.53
708.61	309.46
708.94	308.50
709.28	307.50
709.61	306.47
709.94	305.50
710.28	304.43
710.61	303.43
710.95	302.35
711.28	301.42
711.61	300.44
711.95	299.56
712.28	298.64
712.61	297.66
712.95	296.70
713.28	295.76
713.61	294.86
713.95	293.98
714.28	293.12
714.61	292.28
714.95	291.42
715.28	290.56
715.61	289.68
715.95	288.81
716.28	287.96
716.61	287.10
716.95	286.28
717.28	285.53
717.61	284.74
717.94	283.98
718.28	283.13
718.61	282.40
718.94	281.67
719.27	280.97
719.61	280.35
719.94	279.76
720.27	279.09
720.60	278.49
720.94	277.93
721.27	277.34
721.60	276.74
721.93	276.12
722.27	275.54
722.60	274.99
722.93	274.41
723.26	273.87
723.59	273.36
723.93	272.81
724.26	272.30
724.59	271.73
724.92	271.19
725.25	270.75
725.59	270.25
725.92	269.72
726.25	269.21
726.58	268.75
726.91	268.18
727.24	267.69
727.57	267.20
727.91	266.61
728.24	266.17
728.57	265.71
728.90	265.29
729.23	264.81
729.56	264.37
729.89	263.92
730.22	263.49
730.55	263.00
730.89	262.57
731.22	262.12
731.55	261.73
731.88	261.32
732.21	260.87
732.54	260.42
732.87	260.04
733.20	259.64
733.53	259.22
733.86	258.87
734.19	258.50
734.52	258.08
734.85	257.81
735.18	257.33
735.51	256.93
735.84	256.56
736.17	256.19
736.50	255.82
736.83	255.54
737.16	255.16
737.49	254.82
737.82	254.50
738.15	254.18
738.48	253.85
738.81	253.51
739.14	253.17
739.47	252.89
739.80	252.55
740.13	252.25
740.46	251.92
740.79	251.61
741.12	251.30
741.45	251.01
741.78	250.66
742.11	250.41
742.44	250.09
742.77	249.79
743.10	249.53
743.43	249.21
743.75	248.85
744.08	248.74
744.41	248.47
744.74	248.16
745.07	247.86
745.40	247.62
745.73	247.41
746.06	247.14
746.39	246.86
746.71	246.59
747.04	246.33
747.37	246.07
747.70	245.80
748.03	245.54
748.36	245.31
748.68	245.02
749.01	244.76
749.34	244.54
749.67	244.30
750.00	244.05
750.33	243.90
750.65	243.68
750.98	243.31
751.31	243.09
751.64	242.86
751.97	242.71
752.29	242.46
752.62	242.23
752.95	242.03
753.28	241.80
753.60	241.61
753.93	241.41
754.26	241.20
754.59	240.98
754.91	240.76
755.24	240.54
755.57	240.37
755.90	240.17
756.22	239.95
756.55	239.75
756.88	239.52
757.20	239.27
757.53	239.07
757.86	238.92
758.19	238.74
758.51	238.58
758.84	238.34
759.17	238.16
759.49	238.01
759.82	237.88
760.15	237.74
760.47	237.58
760.80	237.40
761.13	237.30
761.45	237.14
761.78	236.99
762.11	236.87
762.43	236.74
762.76	236.63
763.08	236.51
763.41	236.40
763.74	236.29
764.06	236.15
764.39	236.03
764.71	235.89
765.04	235.74
765.37	235.59
765.69	235.48
766.02	235.35
766.34	235.17
766.67	235.00
767.00	234.91
767.32	234.87
767.65	234.81
767.97	234.68
768.30	234.59
768.62	234.48
768.95	234.35
769.27	234.21
769.60	234.14
769.92	234.03
770.25	233.89
770.57	233.79
770.90	233.68
771.22	233.59
771.55	233.48
771.87	233.41
772.20	233.30
772.52	233.29
772.85	233.35
773.17	233.28
773.50	233.18
773.82	233.06
774.15	232.89
774.47	232.78
774.80	232.69
775.12	232.59
775.45	232.50
775.77	232.44
776.09	232.38
776.42	232.28
776.74	232.21
777.07	232.13
777.39	232.03
777.72	231.97
778.04	231.90
778.36	231.83
778.69	231.77
779.01	231.73
779.33	231.59
779.66	231.40
779.98	231.31
780.31	231.28
780.63	231.27
780.95	231.24
781.28	231.16
781.60	231.10
781.92	231.07
782.25	231.00
782.57	230.91
782.89	230.82
783.22	230.74
783.54	230.67
783.86	230.64
784.19	230.63
784.51	230.60
784.83	230.51
785.16	230.46
785.48	230.41
785.80	230.35
786.12	230.30
786.45	230.22
786.77	230.18
787.09	230.12
787.42	230.01
787.74	229.95
788.06	229.92
788.38	229.86
788.71	229.79
789.03	229.77
789.35	229.77
789.67	229.73
789.99	229.73
790.32	229.68
790.64	229.67
790.96	229.68
791.28	229.60
791.61	229.55
791.93	229.50
792.25	229.43
792.57	229.50
792.89	229.44
793.21	229.45
793.54	229.39
793.86	229.34
794.18	229.31
794.50	229.24
794.82	229.17
795.14	229.14
795.47	229.10
795.79	229.04
796.11	228.98
796.43	228.94
796.75	228.87
797.07	228.85
797.39	228.77
797.71	228.66
798.04	228.63
798.36	228.63
798.68	228.61
799.00	228.58
799.32	228.48
799.64	228.46
799.96	228.40
800.28	228.41
800.60	228.36
800.92	228.34
801.24	228.31
801.56	228.31
801.89	228.26
802.21	228.24
802.53	228.23
802.85	228.22
803.17	228.21
803.49	228.19
803.81	228.14
804.13	228.14
804.45	228.09
804.77	228.11
805.09	228.08
805.41	228.01
805.73	228.00
806.05	227.94
806.37	227.91
806.69	227.88
807.01	227.86
807.33	227.84
807.65	227.78
807.97	227.82
808.28	227.77
808.60	227.77
808.92	227.73
809.24	227.74
809.56	227.69
809.88	227.62
810.20	227.60
810.52	227.63
810.84	227.58
811.16	227.57
811.48	227.54
811.80	227.55
812.12	227.54
812.43	227.53
812.75	227.52
813.07	227.51
813.39	227.51
813.71	227.46
814.03	227.45
814.35	227.46
814.67	227.36
814.98	227.33
815.30	227.33
815.62	227.30
815.94	227.20
816.26	227.23
816.58	227.22
816.89	227.23
817.21	227.16
817.53	227.16
817.85	227.12
818.17	227.10
818.48	227.03
818.80	227.02
819.12	226.98
819.44	226.95
819.76	226.88
820.07	226.87
820.39	226.86
820.71	226.86
821.03	226.81
821.34	226.83
821.66	226.85
821.98	226.82
822.30	226.83
822.61	226.88
822.93	226.84
823.25	226.85
823.57	226.79
823.88	226.80
824.20	226.79
824.52	226.79
824.83	226.77
825.15	226.76
825.47	226.74
825.79	226.75
826.10	226.72
826.42	226.73
826.74	226.71
827.05	226.70
827.37	226.67
827.69	226.65
828.00	226.63
828.32	226.61
828.64	226.59
828.95	226.62
829.27	226.58
829.58	226.56
829.90	226.54
830.22	226.55
830.53	226.52
830.85	226.52
831.17	226.48
831.48	226.47
831.80	226.45
832.11	226.43
832.43	226.42
832.75	226.41
833.06	226.44
833.38	226.39
833.69	226.34
834.01	226.35
834.32	226.32
834.64	226.32
834.96	226.29
835.27	226.26
835.59	226.21
835.90	226.20
836.22	226.16
836.53	226.13
836.85	226.07
837.16	226.13
837.48	226.12
837.79	226.15
838.11	226.14
838.42	226.12
838.74	226.13
839.05	226.09
839.37	226.09
839.68	226.07
840.00	226.06
840.31	226.10
840.63	226.08
840.94	226.10
841.26	226.07
841.57	226.09
841.88	226.11
842.20	226.07
842.51	226.03
842.83	226.02
843.14	226.10
843.46	226.10
843.77	226.09
844.08	226.10
844.40	226.08
844.71	226.07
845.03	226.08
845.34	226.08
845.65	226.10
845.97	226.09
846.28	226.07
846.60	226.07
846.91	226.04
847.22	226.08
847.54	226.08
847.85	226.08
848.16	226.03
848.48	226.03
848.79	226.06
849.10	226.10
849.42	226.10
849.73	226.03
850.04	226.04
850.36	225.96
850.67	225.94
850.98	225.94
851.30	225.93
851.61	225.93
851.92	225.89
852.23	225.88
852.55	225.89
852.86	225.88
853.17	225.90
853.49	225.90
853.80	225.86
854.11	225.87
854.42	225.89
854.74	225.92
855.05	225.91
855.36	225.84
855.67	225.85
855.99	225.85
856.30	225.92
856.61	225.92
856.92	225.92
857.23	225.93
857.55	225.90
857.86	225.91
858.17	225.90
858.48	225.88
858.79	225.89
859.11	225.87
859.42	225.87
859.73	225.84
860.04	225.84
860.35	225.81
860.66	225.80
860.98	225.79
861.29	225.80
861.60	225.78
861.91	225.80
862.22	225.78
862.53	225.77
862.84	225.69
863.16	225.67
863.47	225.66
863.78	225.65
864.09	225.67
864.40	225.67
864.71	225.69
865.02	225.74
865.33	225.71
865.64	225.69
865.95	225.73
866.27	225.80
866.58	225.79
866.89	225.81
867.20	225.79
867.51	225.77
867.82	225.73
868.13	225.74
868.44	225.72
868.75	225.73
869.06	225.72
869.37	225.71
869.68	225.73
869.99	225.75
870.30	225.72
870.61	225.71
870.92	225.67
871.23	225.62
871.54	225.63
871.85	225.63
872.16	225.64
872.47	225.57
872.78	225.51
873.09	225.51
873.40	225.48
873.71	225.48
874.02	225.50
874.33	225.48
874.64	225.48
874.95	225.51
875.26	225.48
875.56	225.49
875.87	225.49
876.18	225.48
876.49	225.56
876.80	225.57
877.11	225.55
877.42	225.58
877.73	225.62
878.04	225.59
878.35	225.62
878.66	225.61
878.96	225.63
879.27	225.65
879.58	225.61
879.89	225.60
880.20	225.64
880.51	225.61
880.82	225.63
881.12	225.65
881.43	225.62
881.74	225.61
882.05	225.62
882.36	225.60
882.67	225.61
882.97	225.51
883.28	225.53
883.59	225.54
883.90	225.54
884.21	225.54
884.51	225.55
884.82	225.55
885.13	225.54
885.44	225.56
885.74	225.57
886.05	225.60
886.36	225.61
886.67	225.57
886.98	225.65
887.28	225.66
887.59	225.64
887.90	225.67
888.20	225.67
888.51	225.70
888.82	225.72
889.13	225.68
889.43	225.77
889.74	225.76
890.05	225.78
890.35	225.77
890.66	225.74
890.97	225.71
891.28	225.69
891.58	225.70
891.89	225.70
892.20	225.66
892.50	225.64
892.81	225.66
893.12	225.67
893.42	225.60
893.73	225.64
894.04	225.69
894.34	225.66
894.65	225.65
894.95	225.64
895.26	225.67
895.57	225.74
895.87	225.64
896.18	225.63
896.48	225.61
896.79	225.59
897.10	225.62
897.40	225.67
897.71	225.67
898.01	225.67
898.32	225.65
898.63	225.67
898.93	225.71
899.24	225.67
899.54	225.65
899.85	225.64
900.15	225.60
900.46	225.54
900.76	225.55
901.07	225.54
901.38	225.49
901.68	225.47
901.99	225.41
902.29	225.39
902.60	225.39
902.90	225.39
903.21	225.38
903.51	225.38
903.82	225.36
904.12	225.35
904.43	225.33
904.73	225.32
905.03	225.27
905.34	225.33
905.64	225.34
905.95	225.33
906.25	225.34
906.56	225.34
906.86	225.34
907.17	225.31
907.47	225.34
907.77	225.37
908.08	225.36
908.38	225.34
908.69	225.36
908.99	225.36
909.30	225.35
909.60	225.37
909.90	225.37
910.21	225.36
910.51	225.33
910.81	225.33
911.12	225.33
911.42	225.38
911.73	225.27
912.03	225.28
912.33	225.32
912.64	225.29
912.94	225.29
913.24	225.28
913.55	225.27
913.85	225.23
914.15	225.25
914.46	225.25
914.76	225.27
915.06	225.26
915.37	225.26
915.67	225.25
915.97	225.22
916.27	225.19
916.58	225.18
916.88	225.22
917.18	225.21
917.49	225.30
917.79	225.30
918.09	225.33
918.39	225.38
918.70	225.37
919.00	225.41
919.30	225.44
919.60	225.46
919.91	225.49
920.21	225.51
920.51	225.49
920.81	225.49
921.12	225.52
921.42	225.53
921.72	225.53
922.02	225.57
922.32	225.62
922.63	225.65
922.93	225.69
923.23	225.68
923.53	225.71
923.83	225.63
924.13	225.64
924.44	225.64
924.74	225.64
925.04	225.67
925.34	225.64
925.64	225.61
925.94	225.59
926.24	225.65
926.55	225.61
926.85	225.63
927.15	225.64
927.45	225.61
927.75	225.60
928.05	225.62
928.35	225.60
928.65	225.61
928.95	225.61
929.26	225.60
929.56	225.64
929.86	225.64
930.16	225.66
930.46	225.64
930.76	225.65
931.06	225.62
931.36	225.59
931.66	225.60
931.96	225.60
932.26	225.61
932.56	225.58
932.86	225.59
933.16	225.60
933.46	225.59
933.76	225.60
934.06	225.61
934.36	225.64
934.66	225.63
934.96	225.61
935.26	225.61
935.56	225.58
935.86	225.51
936.16	225.49
936.46	225.46
936.76	225.47
937.06	225.46
937.36	225.41
937.66	225.41
937.96	225.41
938.26	225.42
938.56	225.42
938.86	225.42
939.16	225.44
939.46	225.43
939.76	225.42
940.06	225.39
940.35	225.37
940.65	225.33
940.95	225.33
941.25	225.31
941.55	225.29
941.85	225.30
942.15	225.37
942.45	225.40
942.75	225.41
943.04	225.42
943.34	225.45
943.64	225.45
943.94	225.47
944.24	225.48
944.54	225.47
944.84	225.46
945.13	225.43
945.43	225.43
945.73	225.43
946.03	225.43
946.33	225.41
946.62	225.41
946.92	225.39
947.22	225.42
947.52	225.43
947.82	225.44
948.11	225.41
948.41	225.36
948.71	225.38
949.01	225.34
949.31	225.30
949.60	225.26
949.90	225.28
950.20	225.26
950.50	225.24
950.79	225.22
951.09	225.26
951.39	225.27
951.69	225.23
951.98	225.25
952.28	225.25
952.58	225.28
952.87	225.28
953.17	225.31
953.47	225.31
953.76	225.32
954.06	225.31
954.36	225.31
954.66	225.30
954.95	225.29
955.25	225.32
955.55	225.34
955.84	225.34
956.14	225.35
956.44	225.37
956.73	225.35
957.03	225.36
957.32	225.34
957.62	225.34
957.92	225.38
958.21	225.36
958.51	225.48
958.81	225.50
959.10	225.54
959.40	225.53
959.69	225.52
959.99	225.53
960.29	225.52
960.58	225.53
960.88	225.57
961.17	225.53
961.47	225.54
961.76	225.52
962.06	225.53
962.36	225.54
962.65	225.52
962.95	225.52
963.24	225.52
963.54	225.48
963.83	225.47
964.13	225.47
964.42	225.46
964.72	225.35
965.01	225.34
965.31	225.32
965.60	225.29
965.90	225.35
966.19	225.34
966.49	225.32
966.78	225.33
967.08	225.30
967.37	225.28
967.67	225.25
967.96	225.27
968.26	225.25
968.55	225.26
968.85	225.24
969.14	225.23
969.43	225.26
969.73	225.26
970.02	225.26
970.32	225.22
970.61	225.19
970.91	225.16
971.20	225.16
971.49	225.15
971.79	225.15
972.08	225.10
972.38	225.10
972.67	225.11
972.96	225.09
973.26	225.10
973.55	225.17
973.85	225.17
974.14	225.16
974.43	225.19
974.73	225.18
975.02	225.14
975.31	225.14
975.61	225.09
975.90	225.10
976.19	225.09
976.49	225.10
976.78	225.14
977.07	225.13
977.37	225.13
977.66	225.12
977.95	225.13
978.24	225.12
978.54	225.14
978.83	225.13
979.12	225.14
979.42	225.14
979.71	225.11
980.00	225.14
980.29	225.12
980.59	225.10
980.88	225.11
981.17	225.14
981.46	225.19
981.76	225.18
982.05	225.20
982.34	225.19
982.63	225.19
982.93	225.19
983.22	225.23
983.51	225.24
983.80	225.24
984.09	225.23
984.39	225.21
984.68	225.17
984.97	225.16
985.26	225.14
985.55	225.14
985.85	225.13
986.14	225.10
986.43	225.14
986.72	225.13
987.01	225.08
987.30	225.07
987.59	225.03
987.89	225.04
988.18	225.05
988.47	225.07
988.76	225.08
989.05	225.06
989.34	225.03
989.63	225.04
989.92	225.04
990.22	225.05
990.51	225.07
990.80	225.05
991.09	225.07
991.38	225.09
991.67	225.07
991.96	225.06
992.25	225.07
992.54	225.04
992.83	225.05
993.12	225.08
993.41	225.10
993.70	225.18
993.99	225.20
994.28	225.21
994.58	225.23
994.87	225.21
995.16	225.24
995.45	225.25
995.74	225.22
996.03	225.25
996.32	225.29
996.61	225.32
996.90	225.35
997.19	225.38
997.48	225.37
997.77	225.39
998.06	225.40
998.34	225.40
998.63	225.42
998.92	225.41
999.21	225.43
999.50	225.44
999.79	225.41
1000.08	225.42
1000.37	225.42
1000.66	225.43
1000.95	225.44
1001.24	225.44
1001.53	225.40
1001.82	225.43
1002.11	225.38
1002.40	225.35
1002.68	225.35
1002.97	225.44
1003.26	225.40
1003.55	225.40
1003.84	225.39
1004.13	225.40
1004.42	225.36
1004.71	225.35
1004.99	225.35
1005.28	225.36
1005.57	225.34
1005.86	225.29
1006.15	225.31
1006.44	225.27
1006.72	225.27
1007.01	225.29
1007.30	225.29
1007.59	225.31
1007.88	225.28
1008.17	225.30
1008.45	225.26
1008.74	225.21
1009.03	225.14
1009.32	225.14
1009.60	225.10
1009.89	225.07
1010.18	225.05
1010.47	225.08
1010.76	225.06
1011.04	225.09
1011.33	225.09
1011.62	225.12
1011.91	225.13
1012.19	225.09
1012.48	225.09
1012.77	225.08
1013.05	225.11
1013.34	225.12
1013.63	225.11
1013.92	225.13
1014.20	225.09
1014.49	225.12
1014.78	225.10
1015.06	225.08
1015.35	225.11
1015.64	225.15
1015.92	225.20
1016.21	225.22
1016.50	225.22
1016.78	225.26
1017.07	225.23
1017.36	225.21
1017.64	225.19
1017.93	225.18
1018.22	225.18
1018.50	225.18
1018.79	225.17
1019.08	225.10
1019.36	225.10
1019.65	225.10
1019.93	225.13
1020.22	225.18
1020.51	225.24
1020.79	225.23
1021.08	225.04
1021.36	224.74
1021.65	225.23
1021.94	224.88
1022.22	225.54
1022.51	224.96
1022.79	225.68
1023.08	225.60
1023.36	226.52
1023.65	224.64
>>>>>End Processed Spectral Data<<<<<
