SpectraSuite Data File
++++++++++++++++++++++++++++++++++++
Date: Fri Feb 01 15:24:09 EST 2013
User: group
Dark Spectrum Present: No
Reference Spectrum Present: No
Number of Sampled Component Spectra: 1
Spectrometers: USB2E7196
Integration Time (usec): 35000 (USB2E7196)
Spectra Averaged: 100 (USB2E7196)
Boxcar Smoothing: 10 (USB2E7196)
Correct for Electrical Dark: No (USB2E7196)
Strobe/Lamp Enabled: No (USB2E7196)
Correct for Detector Non-linearity: No (USB2E7196)
Correct for Stray Light: No (USB2E7196)
Number of Pixels in Processed Spectrum: 2048
>>>>>Begin Processed Spectral Data<<<<<
339.09	0.00
339.48	215.27
339.86	216.84
340.24	217.88
340.63	219.67
341.01	221.96
341.39	221.79
341.78	223.25
342.16	224.70
342.54	225.18
342.93	213.44
343.31	224.24
343.69	224.78
344.07	225.22
344.46	225.66
344.84	226.03
345.22	226.27
345.60	226.54
345.99	226.72
346.37	226.84
346.75	226.91
347.13	227.03
347.52	227.09
347.90	227.18
348.28	227.20
348.66	227.27
349.05	227.31
349.43	227.32
349.81	227.37
350.19	227.42
350.57	227.48
350.96	227.56
351.34	227.61
351.72	227.68
352.10	227.82
352.48	227.86
352.87	227.89
353.25	227.94
353.63	228.00
354.01	228.08
354.39	228.18
354.77	228.28
355.15	228.35
355.54	228.40
355.92	228.41
356.30	228.48
356.68	228.61
357.06	228.67
357.44	228.76
357.82	228.82
358.20	228.86
358.58	228.92
358.97	228.95
359.35	229.03
359.73	229.09
360.11	229.11
360.49	229.18
360.87	229.22
361.25	229.29
361.63	229.35
362.01	229.40
362.39	229.38
362.77	229.42
363.15	229.44
363.53	229.46
363.91	229.52
364.29	229.55
364.67	229.44
365.05	229.44
365.43	229.42
365.81	229.42
366.19	229.48
366.57	229.49
366.95	229.49
367.33	229.50
367.71	229.49
368.09	229.49
368.47	229.47
368.85	229.46
369.23	229.44
369.61	229.38
369.99	229.35
370.37	229.34
370.75	229.35
371.13	229.26
371.51	229.16
371.89	229.06
372.27	229.00
372.65	228.96
373.03	228.88
373.41	228.83
373.78	228.78
374.16	228.67
374.54	228.58
374.92	228.52
375.30	228.42
375.68	228.35
376.06	228.27
376.44	228.19
376.82	228.13
377.19	228.06
377.57	227.97
377.95	227.89
378.33	227.81
378.71	227.67
379.09	227.66
379.47	227.64
379.84	227.59
380.22	227.52
380.60	227.45
380.98	227.38
381.36	227.30
381.73	227.23
382.11	227.15
382.49	227.10
382.87	227.01
383.25	226.98
383.62	227.05
384.00	226.98
384.38	226.94
384.76	226.94
385.13	226.91
385.51	226.88
385.89	226.82
386.27	226.76
386.64	226.74
387.02	226.69
387.40	226.64
387.78	226.61
388.15	226.59
388.53	226.58
388.91	226.57
389.29	226.54
389.66	226.52
390.04	226.50
390.42	226.51
390.79	226.50
391.17	226.47
391.55	226.30
391.92	226.27
392.30	226.28
392.68	226.25
393.05	226.27
393.43	226.28
393.81	226.32
394.18	226.36
394.56	226.39
394.94	226.42
395.31	226.45
395.69	226.52
396.06	226.58
396.44	226.62
396.82	226.66
397.19	226.76
397.57	226.80
397.95	226.91
398.32	226.94
398.70	227.01
399.07	227.10
399.45	227.17
399.82	227.30
400.20	227.34
400.58	227.40
400.95	227.42
401.33	227.54
401.70	227.69
402.08	227.79
402.45	227.89
402.83	228.01
403.20	228.12
403.58	228.21
403.95	228.32
404.33	228.43
404.71	228.56
405.08	228.75
405.46	228.89
405.83	229.01
406.21	229.17
406.58	229.36
406.96	229.54
407.33	229.74
407.70	229.90
408.08	230.17
408.45	230.40
408.83	230.67
409.20	230.88
409.58	231.04
409.95	231.27
410.33	231.57
410.70	231.80
411.08	232.08
411.45	232.41
411.82	232.71
412.20	233.07
412.57	233.47
412.95	233.78
413.32	234.20
413.69	234.61
414.07	235.05
414.44	235.51
414.82	235.98
415.19	236.54
415.56	237.09
415.94	237.68
416.31	238.30
416.68	238.91
417.06	239.61
417.43	240.28
417.81	241.08
418.18	241.85
418.55	242.68
418.93	243.53
419.30	244.41
419.67	245.33
420.04	246.29
420.42	247.31
420.79	248.47
421.16	249.60
421.54	250.81
421.91	252.01
422.28	253.25
422.66	254.58
423.03	255.87
423.40	257.19
423.77	258.59
424.15	259.98
424.52	261.45
424.89	263.05
425.26	264.61
425.64	266.04
426.01	267.65
426.38	269.32
426.75	271.01
427.13	272.77
427.50	274.58
427.87	276.45
428.24	278.27
428.61	280.02
428.99	281.97
429.36	284.06
429.73	286.15
430.10	288.16
430.47	290.25
430.85	292.35
431.22	294.61
431.59	296.98
431.96	299.24
432.33	301.73
432.70	304.15
433.08	306.94
433.45	309.58
433.82	312.14
434.19	315.05
434.56	317.86
434.93	320.50
435.30	323.11
435.68	326.00
436.05	328.87
436.42	331.67
436.79	334.18
437.16	336.89
437.53	339.75
437.90	342.58
438.27	345.32
438.64	348.15
439.01	350.76
439.38	352.99
439.75	355.17
440.13	357.68
440.50	359.97
440.87	361.88
441.24	363.83
441.61	366.02
441.98	367.52
442.35	369.34
442.72	371.21
443.09	373.06
443.46	374.06
443.83	374.68
444.20	375.19
444.57	376.02
444.94	376.30
445.31	376.61
445.68	376.99
446.05	377.04
446.42	376.64
446.79	376.21
447.16	375.74
447.53	375.42
447.90	374.29
448.27	373.19
448.64	371.58
449.01	370.45
449.37	368.46
449.74	366.53
450.11	364.26
450.48	361.75
450.85	359.20
451.22	357.08
451.59	355.00
451.96	353.03
452.33	350.47
452.70	348.11
453.07	345.25
453.43	342.35
453.80	339.56
454.17	336.91
454.54	334.38
454.91	331.66
455.28	328.96
455.65	326.43
456.02	323.91
456.38	321.79
456.75	319.11
457.12	316.86
457.49	314.62
457.86	312.43
458.23	310.60
458.59	308.54
458.96	306.45
459.33	304.62
459.70	302.80
460.07	301.27
460.43	299.55
460.80	297.91
461.17	296.48
461.54	295.02
461.91	293.60
462.27	292.17
462.64	290.93
463.01	289.56
463.38	288.29
463.74	286.96
464.11	285.79
464.48	284.74
464.85	283.63
465.21	282.79
465.58	281.86
465.95	280.75
466.32	279.87
466.68	278.95
467.05	278.03
467.42	277.09
467.78	276.16
468.15	275.27
468.52	274.63
468.88	273.74
469.25	272.94
469.62	272.30
469.98	271.59
470.35	270.98
470.72	270.42
471.08	269.74
471.45	269.17
471.82	268.61
472.18	268.03
472.55	267.56
472.92	267.01
473.28	266.57
473.65	266.12
474.02	265.67
474.38	265.27
474.75	264.95
475.11	264.63
475.48	264.38
475.85	264.16
476.21	263.90
476.58	263.73
476.94	263.61
477.31	263.38
477.67	263.22
478.04	263.09
478.41	263.01
478.77	263.03
479.14	262.94
479.50	262.94
479.87	262.98
480.23	263.08
480.60	263.18
480.96	263.28
481.33	263.45
481.69	263.62
482.06	263.83
482.42	264.04
482.79	264.28
483.15	264.57
483.52	264.94
483.88	265.30
484.25	265.69
484.61	266.07
484.98	266.55
485.34	267.11
485.71	267.73
486.07	268.34
486.44	268.97
486.80	269.71
487.17	270.46
487.53	271.30
487.90	272.14
488.26	273.10
488.62	274.09
488.99	275.08
489.35	276.13
489.72	277.28
490.08	278.45
490.44	279.71
490.81	281.03
491.17	282.36
491.54	283.85
491.90	285.36
492.26	287.05
492.63	288.82
492.99	290.59
493.36	292.43
493.72	294.44
494.08	296.53
494.45	298.75
494.81	301.11
495.17	303.55
495.54	306.15
495.90	308.79
496.26	311.58
496.63	314.56
496.99	317.68
497.35	320.88
497.72	324.29
498.08	327.82
498.44	331.48
498.80	335.44
499.17	339.43
499.53	343.62
499.89	347.97
500.26	352.46
500.62	357.13
500.98	362.09
501.34	367.20
501.71	372.57
502.07	377.93
502.43	383.52
502.79	389.37
503.16	395.41
503.52	401.71
503.88	408.10
504.24	414.73
504.60	421.62
504.97	428.81
505.33	436.15
505.69	443.80
506.05	451.61
506.41	459.48
506.78	467.62
507.14	475.99
507.50	484.74
507.86	493.75
508.22	502.97
508.59	512.17
508.95	521.73
509.31	531.49
509.67	541.66
510.03	551.96
510.39	562.47
510.75	573.30
511.12	584.22
511.48	595.55
511.84	607.03
512.20	618.54
512.56	630.49
512.92	642.65
513.28	655.01
513.64	667.54
514.00	680.20
514.37	693.16
514.73	706.30
515.09	719.30
515.45	732.64
515.81	746.30
516.17	760.40
516.53	774.50
516.89	788.69
517.25	802.89
517.61	817.36
517.97	831.89
518.33	846.33
518.69	861.14
519.05	876.13
519.41	891.22
519.77	906.77
520.13	922.26
520.49	937.72
520.85	953.12
521.21	968.87
521.57	985.18
521.93	1001.01
522.29	1017.46
522.65	1033.78
523.01	1049.99
523.37	1065.99
523.73	1082.14
524.09	1098.31
524.45	1114.71
524.81	1131.36
525.17	1148.24
525.53	1165.07
525.89	1182.01
526.25	1198.75
526.61	1215.20
526.97	1232.16
527.33	1248.59
527.68	1265.25
528.04	1281.70
528.40	1298.41
528.76	1315.45
529.12	1332.18
529.48	1349.09
529.84	1365.08
530.20	1381.78
530.56	1398.81
530.91	1416.38
531.27	1433.29
531.63	1449.90
531.99	1466.44
532.35	1482.43
532.71	1498.33
533.07	1514.70
533.42	1530.52
533.78	1546.74
534.14	1563.04
534.50	1578.34
534.86	1594.25
535.21	1609.38
535.57	1625.51
535.93	1641.09
536.29	1656.05
536.65	1671.16
537.00	1686.13
537.36	1701.68
537.72	1716.24
538.08	1730.81
538.44	1744.63
538.79	1758.53
539.15	1772.33
539.51	1786.17
539.87	1800.63
540.22	1814.46
540.58	1828.28
540.94	1841.81
541.29	1854.78
541.65	1867.63
542.01	1881.00
542.37	1893.55
542.72	1906.10
543.08	1917.76
543.44	1930.25
543.79	1941.54
544.15	1952.55
544.51	1964.07
544.87	1975.01
545.22	1985.85
545.58	1996.02
545.94	2005.79
546.29	2015.64
546.65	2025.32
547.01	2034.65
547.36	2043.51
547.72	2052.01
548.07	2060.00
548.43	2068.16
548.79	2076.25
549.14	2083.78
549.50	2091.21
549.86	2098.90
550.21	2106.24
550.57	2113.47
550.92	2119.99
551.28	2126.98
551.64	2134.03
551.99	2140.69
552.35	2146.79
552.70	2152.94
553.06	2158.85
553.41	2165.11
553.77	2171.20
554.13	2177.37
554.48	2183.43
554.84	2188.74
555.19	2194.13
555.55	2199.21
555.90	2203.65
556.26	2208.48
556.61	2213.21
556.97	2217.28
557.32	2221.44
557.68	2225.52
558.03	2229.85
558.39	2233.74
558.74	2238.34
559.10	2242.13
559.45	2245.68
559.81	2250.16
560.16	2254.07
560.52	2257.40
560.87	2260.88
561.23	2263.44
561.58	2266.35
561.94	2268.95
562.29	2271.41
562.64	2274.00
563.00	2276.54
563.35	2280.15
563.71	2283.35
564.06	2286.52
564.42	2289.36
564.77	2291.78
565.12	2294.01
565.48	2295.92
565.83	2297.54
566.19	2298.67
566.54	2299.65
566.89	2300.65
567.25	2301.15
567.60	2302.49
567.96	2304.04
568.31	2304.95
568.66	2306.03
569.02	2306.53
569.37	2306.83
569.72	2307.50
570.08	2307.47
570.43	2307.47
570.78	2306.78
571.14	2305.06
571.49	2303.83
571.84	2303.47
572.20	2302.20
572.55	2301.14
572.90	2299.56
573.26	2298.12
573.61	2296.59
573.96	2294.83
574.31	2291.97
574.67	2288.65
575.02	2284.87
575.37	2281.51
575.72	2277.65
576.08	2274.33
576.43	2271.02
576.78	2267.22
577.13	2264.18
577.49	2261.13
577.84	2257.57
578.19	2253.79
578.54	2250.11
578.90	2245.63
579.25	2240.01
579.60	2235.08
579.95	2230.09
580.30	2225.05
580.66	2219.99
581.01	2214.97
581.36	2209.75
581.71	2205.22
582.06	2200.76
582.42	2196.28
582.77	2190.95
583.12	2186.12
583.47	2181.07
583.82	2175.93
584.17	2170.60
584.53	2164.91
584.88	2159.12
585.23	2153.29
585.58	2147.71
585.93	2142.25
586.28	2137.49
586.63	2132.38
586.98	2127.14
587.34	2122.28
587.69	2117.20
588.04	2111.74
588.39	2105.85
588.74	2099.41
589.09	2093.36
589.44	2086.57
589.79	2080.45
590.14	2074.85
590.49	2068.33
590.84	2062.11
591.19	2056.07
591.54	2049.50
591.89	2041.96
592.25	2035.14
592.60	2027.87
592.95	2020.07
593.30	2012.74
593.65	2004.95
594.00	1997.89
594.35	1990.69
594.70	1982.60
595.05	1975.28
595.40	1967.94
595.75	1960.45
596.10	1954.12
596.45	1947.28
596.80	1941.03
597.15	1934.19
597.50	1926.78
597.85	1920.33
598.19	1913.46
598.54	1906.26
598.89	1899.71
599.24	1893.82
599.59	1886.99
599.94	1880.74
600.29	1874.53
600.64	1867.71
600.99	1860.24
601.34	1853.29
601.69	1846.26
602.04	1839.27
602.39	1831.85
602.74	1824.94
603.08	1818.18
603.43	1811.42
603.78	1804.14
604.13	1796.84
604.48	1789.46
604.83	1782.71
605.18	1775.47
605.53	1767.50
605.87	1759.42
606.22	1752.20
606.57	1744.32
606.92	1737.14
607.27	1729.82
607.62	1722.76
607.96	1715.43
608.31	1708.79
608.66	1701.10
609.01	1693.35
609.36	1685.81
609.70	1677.85
610.05	1669.66
610.40	1661.89
610.75	1653.63
611.10	1645.96
611.44	1637.61
611.79	1629.81
612.14	1621.16
612.49	1612.18
612.83	1603.76
613.18	1595.68
613.53	1587.51
613.88	1578.87
614.22	1570.56
614.57	1562.12
614.92	1554.13
615.27	1546.55
615.61	1538.22
615.96	1530.24
616.31	1522.85
616.65	1515.43
617.00	1507.83
617.35	1500.28
617.70	1491.83
618.04	1483.32
618.39	1475.10
618.74	1467.55
619.08	1459.18
619.43	1451.57
619.78	1444.55
620.12	1437.46
620.47	1429.96
620.82	1421.75
621.16	1414.47
621.51	1406.83
621.85	1399.16
622.20	1390.69
622.55	1382.32
622.89	1374.49
623.24	1366.86
623.59	1359.51
623.93	1352.07
624.28	1344.88
624.62	1337.46
624.97	1330.42
625.32	1323.62
625.66	1316.54
626.01	1309.20
626.35	1301.74
626.70	1294.01
627.04	1286.36
627.39	1278.51
627.73	1271.01
628.08	1264.10
628.43	1256.67
628.77	1249.31
629.12	1241.65
629.46	1234.41
629.81	1227.09
630.15	1219.72
630.50	1212.36
630.84	1204.08
631.19	1196.18
631.53	1188.65
631.88	1181.00
632.22	1173.44
632.57	1166.13
632.91	1158.60
633.26	1151.22
633.60	1143.91
633.95	1136.89
634.29	1129.90
634.64	1123.37
634.98	1116.10
635.32	1109.00
635.67	1102.48
636.01	1095.76
636.36	1089.06
636.70	1082.63
637.05	1076.07
637.39	1069.79
637.73	1063.28
638.08	1057.44
638.42	1051.43
638.77	1045.02
639.11	1038.35
639.45	1031.86
639.80	1025.14
640.14	1018.72
640.49	1012.21
640.83	1005.89
641.17	999.58
641.52	993.12
641.86	986.71
642.20	980.82
642.55	974.49
642.89	967.94
643.23	961.46
643.58	955.58
643.92	949.31
644.26	943.18
644.61	937.19
644.95	931.20
645.29	924.51
645.64	917.71
645.98	911.34
646.32	905.64
646.66	899.71
647.01	894.01
647.35	888.29
647.69	882.45
648.04	876.94
648.38	871.14
648.72	865.14
649.06	859.02
649.41	853.14
649.75	847.06
650.09	841.12
650.43	835.35
650.78	829.26
651.12	823.35
651.46	817.67
651.80	811.82
652.14	806.35
652.49	801.02
652.83	795.85
653.17	790.13
653.51	784.27
653.85	778.80
654.20	773.13
654.54	767.15
654.88	761.50
655.22	755.68
655.56	750.03
655.90	744.65
656.25	739.38
656.59	734.05
656.93	729.01
657.27	723.88
657.61	718.48
657.95	713.41
658.29	708.39
658.64	703.12
658.98	697.81
659.32	692.39
659.66	687.20
660.00	681.93
660.34	677.04
660.68	672.22
661.02	667.25
661.36	662.59
661.70	658.13
662.05	653.68
662.39	649.28
662.73	644.82
663.07	640.46
663.41	636.04
663.75	631.51
664.09	626.94
664.43	622.59
664.77	618.43
665.11	614.24
665.45	610.05
665.79	606.02
666.13	601.98
666.47	597.91
666.81	593.77
667.15	589.66
667.49	585.79
667.83	582.03
668.17	578.12
668.51	574.03
668.85	570.04
669.19	566.30
669.53	562.45
669.87	558.57
670.21	554.85
670.55	551.23
670.89	547.83
671.23	544.43
671.57	540.93
671.91	537.45
672.25	533.89
672.58	530.40
672.92	527.07
673.26	523.97
673.60	520.87
673.94	517.75
674.28	514.89
674.62	511.90
674.96	508.76
675.30	505.85
675.64	502.98
675.97	500.22
676.31	497.23
676.65	494.30
676.99	491.62
677.33	488.80
677.67	485.99
678.01	482.91
678.34	479.94
678.68	477.08
679.02	474.24
679.36	471.55
679.70	468.91
680.04	466.08
680.37	463.12
680.71	460.33
681.05	457.72
681.39	454.98
681.73	452.35
682.06	449.85
682.40	447.28
682.74	444.71
683.08	442.14
683.42	439.57
683.75	437.13
684.09	434.54
684.43	432.04
684.77	429.57
685.10	427.30
685.44	425.01
685.78	422.75
686.12	420.51
686.45	418.22
686.79	415.86
687.13	413.69
687.46	411.55
687.80	409.39
688.14	407.14
688.48	405.09
688.81	402.87
689.15	400.71
689.49	398.60
689.82	396.56
690.16	394.52
690.50	392.63
690.83	390.68
691.17	388.74
691.51	386.80
691.84	384.95
692.18	383.02
692.52	381.00
692.85	379.03
693.19	377.22
693.52	375.38
693.86	373.56
694.20	371.77
694.53	369.96
694.87	368.09
695.21	366.33
695.54	364.52
695.88	362.87
696.21	361.14
696.55	359.44
696.88	357.80
697.22	356.14
697.56	354.52
697.89	352.83
698.23	351.23
698.56	349.66
698.90	348.08
699.23	346.42
699.57	344.89
699.90	343.34
700.24	341.73
700.58	340.18
700.91	338.72
701.25	337.30
701.58	335.94
701.92	334.58
702.25	333.19
702.59	331.80
702.92	330.45
703.26	329.16
703.59	327.87
703.93	326.66
704.26	325.40
704.60	324.12
704.93	322.88
705.26	321.64
705.60	320.48
705.93	319.35
706.27	318.32
706.60	317.30
706.94	316.25
707.27	315.15
707.61	314.11
707.94	313.10
708.27	312.02
708.61	310.91
708.94	309.97
709.28	309.01
709.61	308.10
709.94	307.11
710.28	306.07
710.61	305.13
710.95	304.08
711.28	303.19
711.61	302.20
711.95	301.30
712.28	300.35
712.61	299.37
712.95	298.39
713.28	297.51
713.61	296.57
713.95	295.68
714.28	294.85
714.61	293.99
714.95	293.10
715.28	292.20
715.61	291.34
715.95	290.47
716.28	289.60
716.61	288.76
716.95	287.95
717.28	287.25
717.61	286.46
717.94	285.70
718.28	284.86
718.61	284.17
718.94	283.42
719.27	282.77
719.61	282.09
719.94	281.43
720.27	280.73
720.60	280.07
720.94	279.44
721.27	278.83
721.60	278.23
721.93	277.65
722.27	277.13
722.60	276.59
722.93	276.01
723.26	275.51
723.59	274.92
723.93	274.37
724.26	273.82
724.59	273.28
724.92	272.77
725.25	272.28
725.59	271.74
725.92	271.28
726.25	270.75
726.58	270.29
726.91	269.79
727.24	269.30
727.57	268.84
727.91	268.32
728.24	267.84
728.57	267.38
728.90	266.91
729.23	266.37
729.56	265.97
729.89	265.46
730.22	264.91
730.55	264.46
730.89	264.00
731.22	263.54
731.55	263.06
731.88	262.64
732.21	262.19
732.54	261.77
732.87	261.32
733.20	260.93
733.53	260.54
733.86	260.19
734.19	259.78
734.52	259.40
734.85	259.08
735.18	258.67
735.51	258.28
735.84	257.92
736.17	257.63
736.50	257.23
736.83	257.03
737.16	256.74
737.49	256.42
737.82	256.11
738.15	255.76
738.48	255.45
738.81	255.07
739.14	254.76
739.47	254.48
739.80	254.17
740.13	253.87
740.46	253.52
740.79	253.23
741.12	252.96
741.45	252.65
741.78	252.31
742.11	252.02
742.44	251.74
742.77	251.44
743.10	251.10
743.43	250.79
743.75	250.42
744.08	250.28
744.41	250.01
744.74	249.74
745.07	249.49
745.40	249.27
745.73	249.06
746.06	248.81
746.39	248.52
746.71	248.28
747.04	247.99
747.37	247.76
747.70	247.54
748.03	247.27
748.36	247.06
748.68	246.82
749.01	246.58
749.34	246.30
749.67	246.08
750.00	245.84
750.33	245.73
750.65	245.50
750.98	245.11
751.31	244.90
751.64	244.65
751.97	244.49
752.29	244.25
752.62	243.99
752.95	243.76
753.28	243.54
753.60	243.33
753.93	243.20
754.26	243.00
754.59	242.71
754.91	242.47
755.24	242.25
755.57	242.07
755.90	241.88
756.22	241.71
756.55	241.50
756.88	241.34
757.20	241.06
757.53	240.83
757.86	240.66
758.19	240.52
758.51	240.35
758.84	240.13
759.17	239.94
759.49	239.79
759.82	239.65
760.15	239.48
760.47	239.32
760.80	239.08
761.13	238.95
761.45	238.82
761.78	238.72
762.11	238.55
762.43	238.36
762.76	238.20
763.08	238.06
763.41	237.97
763.74	237.80
764.06	237.66
764.39	237.53
764.71	237.42
765.04	237.23
765.37	237.11
765.69	236.95
766.02	236.86
766.34	236.75
766.67	236.60
767.00	236.50
767.32	236.43
767.65	236.40
767.97	236.25
768.30	236.12
768.62	235.98
768.95	235.89
769.27	235.80
769.60	235.73
769.92	235.61
770.25	235.47
770.57	235.34
770.90	235.24
771.22	235.12
771.55	235.00
771.87	234.93
772.20	234.81
772.52	234.80
772.85	234.82
773.17	234.73
773.50	234.62
773.82	234.50
774.15	234.36
774.47	234.17
774.80	234.08
775.12	233.97
775.45	233.90
775.77	233.80
776.09	233.73
776.42	233.62
776.74	233.58
777.07	233.49
777.39	233.44
777.72	233.30
778.04	233.28
778.36	233.19
778.69	233.12
779.01	233.07
779.33	232.96
779.66	232.77
779.98	232.70
780.31	232.63
780.63	232.63
780.95	232.60
781.28	232.57
781.60	232.50
781.92	232.51
782.25	232.44
782.57	232.41
782.89	232.36
783.22	232.31
783.54	232.25
783.86	232.20
784.19	232.17
784.51	232.25
784.83	232.17
785.16	232.13
785.48	232.09
785.80	232.06
786.12	231.99
786.45	232.00
786.77	232.01
787.09	231.99
787.42	231.92
787.74	231.91
788.06	231.89
788.38	231.90
788.71	231.83
789.03	231.81
789.35	231.79
789.67	231.75
789.99	231.73
790.32	231.66
790.64	231.64
790.96	231.70
791.28	231.60
791.61	231.58
791.93	231.59
792.25	231.54
792.57	231.56
792.89	231.52
793.21	231.46
793.54	231.40
793.86	231.35
794.18	231.32
794.50	231.27
794.82	231.23
795.14	231.17
795.47	231.14
795.79	231.12
796.11	231.06
796.43	231.02
796.75	230.99
797.07	230.99
797.39	230.93
797.71	230.79
798.04	230.78
798.36	230.75
798.68	230.72
799.00	230.68
799.32	230.59
799.64	230.56
799.96	230.53
800.28	230.49
800.60	230.42
800.92	230.39
801.24	230.33
801.56	230.32
801.89	230.31
802.21	230.29
802.53	230.21
802.85	230.17
803.17	230.19
803.49	230.16
803.81	230.12
804.13	230.11
804.45	230.06
804.77	229.99
805.09	229.94
805.41	229.89
805.73	229.84
806.05	229.76
806.37	229.74
806.69	229.69
807.01	229.63
807.33	229.65
807.65	229.58
807.97	229.61
808.28	229.56
808.60	229.51
808.92	229.44
809.24	229.48
809.56	229.46
809.88	229.40
810.20	229.33
810.52	229.30
810.84	229.25
811.16	229.22
811.48	229.18
811.80	229.21
812.12	229.19
812.43	229.20
812.75	229.21
813.07	229.20
813.39	229.17
813.71	229.14
814.03	229.09
814.35	229.09
814.67	229.02
814.98	229.00
815.30	229.00
815.62	228.96
815.94	228.92
816.26	228.93
816.58	228.89
816.89	228.89
817.21	228.86
817.53	228.83
817.85	228.85
818.17	228.85
818.48	228.80
818.80	228.80
819.12	228.78
819.44	228.75
819.76	228.72
820.07	228.72
820.39	228.73
820.71	228.73
821.03	228.74
821.34	228.71
821.66	228.70
821.98	228.68
822.30	228.67
822.61	228.70
822.93	228.65
823.25	228.64
823.57	228.60
823.88	228.62
824.20	228.65
824.52	228.68
824.83	228.69
825.15	228.64
825.47	228.60
825.79	228.61
826.10	228.57
826.42	228.55
826.74	228.55
827.05	228.54
827.37	228.52
827.69	228.47
828.00	228.48
828.32	228.51
828.64	228.49
828.95	228.55
829.27	228.51
829.58	228.53
829.90	228.52
830.22	228.54
830.53	228.50
830.85	228.48
831.17	228.40
831.48	228.37
831.80	228.39
832.11	228.39
832.43	228.32
832.75	228.36
833.06	228.41
833.38	228.37
833.69	228.36
834.01	228.36
834.32	228.40
834.64	228.37
834.96	228.33
835.27	228.31
835.59	228.24
835.90	228.23
836.22	228.22
836.53	228.22
836.85	228.18
837.16	228.24
837.48	228.23
837.79	228.28
838.11	228.28
838.42	228.32
838.74	228.31
839.05	228.33
839.37	228.28
839.68	228.22
840.00	228.22
840.31	228.23
840.63	228.19
840.94	228.15
841.26	228.12
841.57	228.08
841.88	228.11
842.20	228.08
842.51	228.02
842.83	227.96
843.14	228.03
843.46	228.04
843.77	227.98
844.08	227.96
844.40	227.93
844.71	227.90
845.03	227.85
845.34	227.85
845.65	227.83
845.97	227.81
846.28	227.79
846.60	227.78
846.91	227.75
847.22	227.75
847.54	227.76
847.85	227.77
848.16	227.75
848.48	227.69
848.79	227.72
849.10	227.77
849.42	227.76
849.73	227.69
850.04	227.66
850.36	227.61
850.67	227.59
850.98	227.58
851.30	227.56
851.61	227.53
851.92	227.51
852.23	227.52
852.55	227.53
852.86	227.56
853.17	227.58
853.49	227.57
853.80	227.59
854.11	227.56
854.42	227.56
854.74	227.57
855.05	227.61
855.36	227.57
855.67	227.57
855.99	227.62
856.30	227.68
856.61	227.68
856.92	227.67
857.23	227.71
857.55	227.70
857.86	227.71
858.17	227.76
858.48	227.71
858.79	227.70
859.11	227.72
859.42	227.72
859.73	227.67
860.04	227.68
860.35	227.68
860.66	227.69
860.98	227.67
861.29	227.67
861.60	227.65
861.91	227.69
862.22	227.68
862.53	227.63
862.84	227.55
863.16	227.59
863.47	227.61
863.78	227.58
864.09	227.59
864.40	227.58
864.71	227.56
865.02	227.59
865.33	227.58
865.64	227.56
865.95	227.51
866.27	227.58
866.58	227.58
866.89	227.57
867.20	227.56
867.51	227.58
867.82	227.58
868.13	227.57
868.44	227.55
868.75	227.53
869.06	227.54
869.37	227.57
869.68	227.53
869.99	227.53
870.30	227.52
870.61	227.53
870.92	227.56
871.23	227.55
871.54	227.55
871.85	227.58
872.16	227.58
872.47	227.60
872.78	227.56
873.09	227.57
873.40	227.55
873.71	227.57
874.02	227.55
874.33	227.55
874.64	227.53
874.95	227.53
875.26	227.52
875.56	227.52
875.87	227.46
876.18	227.46
876.49	227.55
876.80	227.56
877.11	227.52
877.42	227.51
877.73	227.51
878.04	227.50
878.35	227.48
878.66	227.50
878.96	227.49
879.27	227.45
879.58	227.43
879.89	227.45
880.20	227.47
880.51	227.50
880.82	227.49
881.12	227.50
881.43	227.49
881.74	227.51
882.05	227.51
882.36	227.54
882.67	227.57
882.97	227.48
883.28	227.49
883.59	227.49
883.90	227.48
884.21	227.48
884.51	227.47
884.82	227.45
885.13	227.45
885.44	227.46
885.74	227.50
886.05	227.50
886.36	227.48
886.67	227.43
886.98	227.42
887.28	227.43
887.59	227.43
887.90	227.41
888.20	227.40
888.51	227.41
888.82	227.41
889.13	227.41
889.43	227.48
889.74	227.46
890.05	227.48
890.35	227.45
890.66	227.45
890.97	227.46
891.28	227.43
891.58	227.42
891.89	227.43
892.20	227.42
892.50	227.37
892.81	227.38
893.12	227.36
893.42	227.32
893.73	227.34
894.04	227.34
894.34	227.37
894.65	227.37
894.95	227.36
895.26	227.34
895.57	227.36
895.87	227.26
896.18	227.27
896.48	227.26
896.79	227.26
897.10	227.27
897.40	227.23
897.71	227.25
898.01	227.26
898.32	227.26
898.63	227.27
898.93	227.31
899.24	227.29
899.54	227.30
899.85	227.31
900.15	227.31
900.46	227.32
900.76	227.32
901.07	227.32
901.38	227.32
901.68	227.32
901.99	227.27
902.29	227.29
902.60	227.30
902.90	227.29
903.21	227.31
903.51	227.32
903.82	227.37
904.12	227.35
904.43	227.37
904.73	227.39
905.03	227.38
905.34	227.45
905.64	227.45
905.95	227.45
906.25	227.43
906.56	227.41
906.86	227.39
907.17	227.36
907.47	227.37
907.77	227.33
908.08	227.31
908.38	227.31
908.69	227.30
908.99	227.31
909.30	227.31
909.60	227.33
909.90	227.28
910.21	227.25
910.51	227.29
910.81	227.25
911.12	227.22
911.42	227.21
911.73	227.15
912.03	227.16
912.33	227.19
912.64	227.18
912.94	227.19
913.24	227.20
913.55	227.24
913.85	227.24
914.15	227.29
914.46	227.31
914.76	227.32
915.06	227.33
915.37	227.27
915.67	227.26
915.97	227.24
916.27	227.24
916.58	227.26
916.88	227.23
917.18	227.24
917.49	227.33
917.79	227.31
918.09	227.30
918.39	227.33
918.70	227.32
919.00	227.36
919.30	227.40
919.60	227.35
919.91	227.35
920.21	227.34
920.51	227.30
920.81	227.31
921.12	227.30
921.42	227.31
921.72	227.35
922.02	227.37
922.32	227.40
922.63	227.42
922.93	227.47
923.23	227.44
923.53	227.40
923.83	227.32
924.13	227.33
924.44	227.33
924.74	227.35
925.04	227.33
925.34	227.29
925.64	227.25
925.94	227.26
926.24	227.25
926.55	227.23
926.85	227.21
927.15	227.23
927.45	227.25
927.75	227.25
928.05	227.26
928.35	227.24
928.65	227.24
928.95	227.25
929.26	227.23
929.56	227.28
929.86	227.30
930.16	227.30
930.46	227.29
930.76	227.31
931.06	227.25
931.36	227.24
931.66	227.29
931.96	227.30
932.26	227.33
932.56	227.29
932.86	227.31
933.16	227.32
933.46	227.28
933.76	227.24
934.06	227.25
934.36	227.29
934.66	227.29
934.96	227.27
935.26	227.25
935.56	227.24
935.86	227.23
936.16	227.22
936.46	227.21
936.76	227.21
937.06	227.17
937.36	227.15
937.66	227.14
937.96	227.15
938.26	227.11
938.56	227.10
938.86	227.13
939.16	227.14
939.46	227.16
939.76	227.18
940.06	227.19
940.35	227.13
940.65	227.07
940.95	227.07
941.25	227.05
941.55	227.06
941.85	227.07
942.15	227.09
942.45	227.10
942.75	227.11
943.04	227.10
943.34	227.14
943.64	227.13
943.94	227.11
944.24	227.07
944.54	227.13
944.84	227.13
945.13	227.09
945.43	227.05
945.73	227.04
946.03	227.04
946.33	227.00
946.62	227.03
946.92	227.04
947.22	227.04
947.52	227.06
947.82	227.07
948.11	227.05
948.41	227.02
948.71	227.02
949.01	227.06
949.31	227.04
949.60	227.01
949.90	227.04
950.20	227.06
950.50	227.06
950.79	227.03
951.09	227.01
951.39	227.05
951.69	227.06
951.98	227.09
952.28	227.08
952.58	227.12
952.87	227.13
953.17	227.15
953.47	227.17
953.76	227.16
954.06	227.11
954.36	227.08
954.66	227.08
954.95	227.07
955.25	227.06
955.55	227.11
955.84	227.13
956.14	227.13
956.44	227.15
956.73	227.15
957.03	227.13
957.32	227.16
957.62	227.14
957.92	227.18
958.21	227.17
958.51	227.26
958.81	227.23
959.10	227.21
959.40	227.18
959.69	227.16
959.99	227.16
960.29	227.21
960.58	227.20
960.88	227.26
961.17	227.27
961.47	227.28
961.76	227.24
962.06	227.24
962.36	227.25
962.65	227.25
962.95	227.26
963.24	227.25
963.54	227.27
963.83	227.28
964.13	227.27
964.42	227.22
964.72	227.17
965.01	227.17
965.31	227.17
965.60	227.16
965.90	227.22
966.19	227.24
966.49	227.23
966.78	227.24
967.08	227.20
967.37	227.18
967.67	227.17
967.96	227.19
968.26	227.19
968.55	227.18
968.85	227.21
969.14	227.19
969.43	227.20
969.73	227.19
970.02	227.21
970.32	227.18
970.61	227.20
970.91	227.15
971.20	227.18
971.49	227.19
971.79	227.19
972.08	227.13
972.38	227.11
972.67	227.12
972.96	227.15
973.26	227.11
973.55	227.18
973.85	227.17
974.14	227.16
974.43	227.16
974.73	227.15
975.02	227.10
975.31	227.12
975.61	227.12
975.90	227.10
976.19	227.07
976.49	227.11
976.78	227.11
977.07	227.11
977.37	227.09
977.66	227.09
977.95	227.08
978.24	227.10
978.54	227.10
978.83	227.09
979.12	227.05
979.42	227.05
979.71	226.96
980.00	226.96
980.29	226.96
980.59	226.91
980.88	226.93
981.17	226.94
981.46	226.94
981.76	226.94
982.05	226.92
982.34	226.94
982.63	226.91
982.93	226.91
983.22	226.94
983.51	226.94
983.80	226.94
984.09	226.96
984.39	226.94
984.68	226.93
984.97	226.92
985.26	226.93
985.55	226.94
985.85	226.94
986.14	226.99
986.43	226.99
986.72	227.01
987.01	226.98
987.30	226.98
987.59	226.98
987.89	226.97
988.18	226.94
988.47	226.91
988.76	226.91
989.05	226.92
989.34	226.90
989.63	226.92
989.92	226.93
990.22	226.92
990.51	226.92
990.80	226.92
991.09	226.93
991.38	226.93
991.67	226.90
991.96	226.92
992.25	226.89
992.54	226.86
992.83	226.86
993.12	226.86
993.41	226.90
993.70	226.91
993.99	226.91
994.28	226.93
994.58	226.95
994.87	226.94
995.16	226.91
995.45	226.88
995.74	226.82
996.03	226.80
996.32	226.80
996.61	226.80
996.90	226.78
997.19	226.75
997.48	226.77
997.77	226.74
998.06	226.74
998.34	226.70
998.63	226.76
998.92	226.77
999.21	226.78
999.50	226.74
999.79	226.73
1000.08	226.77
1000.37	226.78
1000.66	226.79
1000.95	226.82
1001.24	226.85
1001.53	226.86
1001.82	226.91
1002.11	226.90
1002.40	226.92
1002.68	226.95
1002.97	227.06
1003.26	227.08
1003.55	227.04
1003.84	227.06
1004.13	227.12
1004.42	227.17
1004.71	227.14
1004.99	227.14
1005.28	227.16
1005.57	227.16
1005.86	227.15
1006.15	227.12
1006.44	227.10
1006.72	227.12
1007.01	227.08
1007.30	227.06
1007.59	227.02
1007.88	227.02
1008.17	227.04
1008.45	227.01
1008.74	226.97
1009.03	226.89
1009.32	226.90
1009.60	226.93
1009.89	226.94
1010.18	226.90
1010.47	226.88
1010.76	226.88
1011.04	226.88
1011.33	226.85
1011.62	226.89
1011.91	226.90
1012.19	226.88
1012.48	226.87
1012.77	226.87
1013.05	226.95
1013.34	226.98
1013.63	227.03
1013.92	227.02
1014.20	227.01
1014.49	227.01
1014.78	227.03
1015.06	227.01
1015.35	227.03
1015.64	227.05
1015.92	227.06
1016.21	227.04
1016.50	227.02
1016.78	227.05
1017.07	227.05
1017.36	227.03
1017.64	227.02
1017.93	227.05
1018.22	227.06
1018.50	227.06
1018.79	227.02
1019.08	226.97
1019.36	227.00
1019.65	226.99
1019.93	227.02
1020.22	227.06
1020.51	227.10
1020.79	227.08
1021.08	226.77
1021.36	226.58
1021.65	226.77
1021.94	226.99
1022.22	227.81
1022.51	227.00
1022.79	227.43
1023.08	227.59
1023.36	227.65
1023.65	226.48
>>>>>End Processed Spectral Data<<<<<
