SpectraSuite Data File
++++++++++++++++++++++++++++++++++++
Date: Fri Feb 01 15:07:02 EST 2013
User: group
Dark Spectrum Present: No
Reference Spectrum Present: No
Number of Sampled Component Spectra: 1
Spectrometers: USB2E7196
Integration Time (usec): 35000 (USB2E7196)
Spectra Averaged: 100 (USB2E7196)
Boxcar Smoothing: 10 (USB2E7196)
Correct for Electrical Dark: No (USB2E7196)
Strobe/Lamp Enabled: No (USB2E7196)
Correct for Detector Non-linearity: No (USB2E7196)
Correct for Stray Light: No (USB2E7196)
Number of Pixels in Processed Spectrum: 2048
>>>>>Begin Processed Spectral Data<<<<<
339.09	0.00
339.48	215.43
339.86	216.32
340.24	218.22
340.63	219.30
341.01	222.23
341.39	222.68
341.78	223.21
342.16	225.35
342.54	225.64
342.93	213.71
343.31	224.54
343.69	225.08
344.07	225.56
344.46	225.97
344.84	226.35
345.22	226.62
345.60	226.84
345.99	227.06
346.37	227.16
346.75	227.29
347.13	227.38
347.52	227.41
347.90	227.46
348.28	227.47
348.66	227.55
349.05	227.54
349.43	227.57
349.81	227.64
350.19	227.67
350.57	227.74
350.96	227.79
351.34	227.87
351.72	227.95
352.10	228.05
352.48	228.16
352.87	228.23
353.25	228.29
353.63	228.33
354.01	228.39
354.39	228.47
354.77	228.53
355.15	228.64
355.54	228.70
355.92	228.75
356.30	228.82
356.68	228.89
357.06	229.00
357.44	229.04
357.82	229.08
358.20	229.15
358.58	229.24
358.97	229.27
359.35	229.31
359.73	229.38
360.11	229.45
360.49	229.48
360.87	229.54
361.25	229.58
361.63	229.67
362.01	229.72
362.39	229.73
362.77	229.76
363.15	229.73
363.53	229.74
363.91	229.73
364.29	229.75
364.67	229.69
365.05	229.66
365.43	229.67
365.81	229.67
366.19	229.68
366.57	229.66
366.95	229.63
367.33	229.57
367.71	229.51
368.09	229.47
368.47	229.44
368.85	229.39
369.23	229.37
369.61	229.29
369.99	229.24
370.37	229.23
370.75	229.20
371.13	229.16
371.51	229.10
371.89	229.06
372.27	228.99
372.65	228.93
373.03	228.85
373.41	228.76
373.78	228.66
374.16	228.55
374.54	228.48
374.92	228.42
375.30	228.35
375.68	228.28
376.06	228.21
376.44	228.11
376.82	228.04
377.19	227.94
377.57	227.89
377.95	227.82
378.33	227.74
378.71	227.61
379.09	227.53
379.47	227.46
379.84	227.40
380.22	227.33
380.60	227.24
380.98	227.18
381.36	227.13
381.73	227.05
382.11	227.01
382.49	226.93
382.87	226.84
383.25	226.81
383.62	226.85
384.00	226.79
384.38	226.76
384.76	226.71
385.13	226.71
385.51	226.63
385.89	226.57
386.27	226.50
386.64	226.48
387.02	226.46
387.40	226.44
387.78	226.43
388.15	226.41
388.53	226.38
388.91	226.33
389.29	226.32
389.66	226.34
390.04	226.29
390.42	226.31
390.79	226.31
391.17	226.31
391.55	226.22
391.92	226.21
392.30	226.20
392.68	226.21
393.05	226.23
393.43	226.26
393.81	226.26
394.18	226.27
394.56	226.29
394.94	226.33
395.31	226.38
395.69	226.43
396.06	226.49
396.44	226.56
396.82	226.62
397.19	226.72
397.57	226.76
397.95	226.86
398.32	226.92
398.70	227.02
399.07	227.12
399.45	227.22
399.82	227.32
400.20	227.42
400.58	227.51
400.95	227.54
401.33	227.68
401.70	227.87
402.08	228.00
402.45	228.14
402.83	228.26
403.20	228.38
403.58	228.47
403.95	228.61
404.33	228.78
404.71	228.92
405.08	229.10
405.46	229.28
405.83	229.46
406.21	229.60
406.58	229.80
406.96	229.97
407.33	230.09
407.70	230.29
408.08	230.58
408.45	230.81
408.83	231.06
409.20	231.24
409.58	231.39
409.95	231.65
410.33	231.91
410.70	232.17
411.08	232.48
411.45	232.82
411.82	233.14
412.20	233.49
412.57	233.92
412.95	234.24
413.32	234.63
413.69	235.02
414.07	235.46
414.44	235.88
414.82	236.32
415.19	236.92
415.56	237.44
415.94	237.96
416.31	238.60
416.68	239.23
417.06	239.93
417.43	240.64
417.81	241.39
418.18	242.17
418.55	243.03
418.93	243.87
419.30	244.75
419.67	245.67
420.04	246.61
420.42	247.61
420.79	248.78
421.16	249.91
421.54	251.10
421.91	252.32
422.28	253.57
422.66	254.93
423.03	256.21
423.40	257.55
423.77	258.98
424.15	260.38
424.52	261.87
424.89	263.49
425.26	265.00
425.64	266.46
426.01	268.02
426.38	269.63
426.75	271.30
427.13	273.00
427.50	274.79
427.87	276.65
428.24	278.49
428.61	280.20
428.99	282.17
429.36	284.26
429.73	286.31
430.10	288.35
430.47	290.41
430.85	292.52
431.22	294.77
431.59	297.15
431.96	299.40
432.33	301.89
432.70	304.28
433.08	307.15
433.45	309.78
433.82	312.45
434.19	315.37
434.56	318.20
434.93	320.89
435.30	323.52
435.68	326.38
436.05	329.23
436.42	332.05
436.79	334.64
437.16	337.36
437.53	340.20
437.90	343.03
438.27	345.81
438.64	348.65
439.01	351.27
439.38	353.48
439.75	355.66
440.13	358.17
440.50	360.51
440.87	362.34
441.24	364.31
441.61	366.48
441.98	367.94
442.35	369.75
442.72	371.58
443.09	373.44
443.46	374.50
443.83	375.08
444.20	375.57
444.57	376.36
444.94	376.65
445.31	377.03
445.68	377.40
446.05	377.42
446.42	377.03
446.79	376.60
447.16	376.19
447.53	375.90
447.90	374.71
448.27	373.56
448.64	372.00
449.01	370.89
449.37	368.89
449.74	366.99
450.11	364.73
450.48	362.21
450.85	359.64
451.22	357.47
451.59	355.48
451.96	353.50
452.33	350.84
452.70	348.46
453.07	345.61
453.43	342.68
453.80	339.93
454.17	337.27
454.54	334.70
454.91	331.95
455.28	329.25
455.65	326.74
456.02	324.27
456.38	322.09
456.75	319.45
457.12	317.26
457.49	315.06
457.86	312.88
458.23	311.05
458.59	309.00
458.96	306.91
459.33	305.02
459.70	303.18
460.07	301.72
460.43	300.01
460.80	298.37
461.17	296.96
461.54	295.43
461.91	293.99
462.27	292.52
462.64	291.27
463.01	289.94
463.38	288.69
463.74	287.35
464.11	286.20
464.48	285.10
464.85	283.89
465.21	283.03
465.58	282.12
465.95	281.02
466.32	280.12
466.68	279.20
467.05	278.28
467.42	277.43
467.78	276.47
468.15	275.56
468.52	274.88
468.88	273.98
469.25	273.25
469.62	272.60
469.98	271.94
470.35	271.28
470.72	270.61
471.08	269.89
471.45	269.33
471.82	268.73
472.18	268.11
472.55	267.70
472.92	267.14
473.28	266.65
473.65	266.23
474.02	265.75
474.38	265.38
474.75	265.08
475.11	264.69
475.48	264.40
475.85	264.19
476.21	263.92
476.58	263.74
476.94	263.57
477.31	263.41
477.67	263.22
478.04	263.13
478.41	263.07
478.77	263.11
479.14	263.00
479.50	263.02
479.87	263.10
480.23	263.16
480.60	263.25
480.96	263.33
481.33	263.51
481.69	263.73
482.06	263.91
482.42	264.08
482.79	264.33
483.15	264.63
483.52	265.01
483.88	265.39
484.25	265.75
484.61	266.17
484.98	266.64
485.34	267.22
485.71	267.78
486.07	268.39
486.44	268.94
486.80	269.62
487.17	270.34
487.53	271.17
487.90	271.99
488.26	272.92
488.62	273.87
488.99	274.81
489.35	275.82
489.72	276.96
490.08	278.16
490.44	279.37
490.81	280.72
491.17	282.03
491.54	283.50
491.90	285.04
492.26	286.68
492.63	288.36
492.99	290.12
493.36	292.02
493.72	294.03
494.08	296.16
494.45	298.42
494.81	300.79
495.17	303.18
495.54	305.73
495.90	308.37
496.26	311.18
496.63	314.12
496.99	317.23
497.35	320.47
497.72	323.83
498.08	327.34
498.44	331.00
498.80	334.93
499.17	338.94
499.53	343.11
499.89	347.46
500.26	352.02
500.62	356.70
500.98	361.63
501.34	366.67
501.71	372.02
502.07	377.45
502.43	383.09
502.79	388.90
503.16	394.96
503.52	401.26
503.88	407.71
504.24	414.38
504.60	421.23
504.97	428.36
505.33	435.72
505.69	443.42
506.05	451.18
506.41	459.05
506.78	467.22
507.14	475.66
507.50	484.31
507.86	493.30
508.22	502.51
508.59	511.74
508.95	521.35
509.31	531.05
509.67	541.10
510.03	551.30
510.39	561.88
510.75	572.63
511.12	583.51
511.48	594.78
511.84	606.20
512.20	617.77
512.56	629.72
512.92	641.92
513.28	654.31
513.64	666.82
514.00	679.49
514.37	692.42
514.73	705.47
515.09	718.63
515.45	731.95
515.81	745.51
516.17	759.46
516.53	773.59
516.89	787.79
517.25	801.98
517.61	816.50
517.97	830.93
518.33	845.55
518.69	860.36
519.05	875.37
519.41	890.56
519.77	906.05
520.13	921.62
520.49	936.94
520.85	952.40
521.21	968.13
521.57	984.38
521.93	1000.19
522.29	1016.70
522.65	1033.00
523.01	1049.17
523.37	1065.30
523.73	1081.50
524.09	1097.67
524.45	1114.17
524.81	1130.85
525.17	1147.70
525.53	1164.69
525.89	1181.50
526.25	1198.25
526.61	1214.67
526.97	1231.53
527.33	1248.05
527.68	1264.62
528.04	1281.18
528.40	1297.83
528.76	1314.95
529.12	1331.70
529.48	1348.64
529.84	1364.66
530.20	1381.28
530.56	1398.50
530.91	1415.79
531.27	1432.60
531.63	1449.13
531.99	1465.60
532.35	1481.62
532.71	1497.47
533.07	1513.77
533.42	1529.72
533.78	1545.94
534.14	1562.28
534.50	1577.66
534.86	1593.67
535.21	1608.95
535.57	1625.04
535.93	1640.71
536.29	1655.64
536.65	1670.84
537.00	1685.79
537.36	1701.23
537.72	1715.96
538.08	1730.30
538.44	1744.41
538.79	1758.49
539.15	1772.37
539.51	1786.34
539.87	1800.88
540.22	1814.76
540.58	1828.71
540.94	1842.16
541.29	1855.17
541.65	1867.97
542.01	1881.36
542.37	1893.77
542.72	1906.25
543.08	1918.03
543.44	1930.37
543.79	1941.57
544.15	1952.56
544.51	1964.14
544.87	1975.20
545.22	1985.93
545.58	1996.26
545.94	2006.03
546.29	2015.88
546.65	2025.63
547.01	2034.93
547.36	2043.75
547.72	2052.31
548.07	2060.07
548.43	2068.37
548.79	2076.54
549.14	2084.13
549.50	2091.49
549.86	2099.21
550.21	2106.47
550.57	2113.65
550.92	2120.36
551.28	2127.54
551.64	2134.68
551.99	2141.24
552.35	2147.24
552.70	2153.43
553.06	2159.40
553.41	2165.68
553.77	2171.85
554.13	2178.01
554.48	2184.00
554.84	2189.25
555.19	2194.70
555.55	2199.82
555.90	2204.13
556.26	2208.84
556.61	2213.50
556.97	2217.59
557.32	2221.73
557.68	2225.88
558.03	2230.39
558.39	2234.02
558.74	2238.54
559.10	2242.22
559.45	2245.83
559.81	2250.20
560.16	2253.84
560.52	2257.13
560.87	2260.62
561.23	2263.14
561.58	2266.07
561.94	2268.74
562.29	2271.31
562.64	2273.79
563.00	2276.36
563.35	2279.86
563.71	2282.98
564.06	2286.20
564.42	2289.01
564.77	2291.38
565.12	2293.56
565.48	2295.14
565.83	2296.87
566.19	2298.05
566.54	2299.10
566.89	2300.10
567.25	2300.51
567.60	2301.95
567.96	2303.41
568.31	2304.11
568.66	2304.99
569.02	2305.39
569.37	2305.41
569.72	2305.97
570.08	2306.00
570.43	2305.83
570.78	2305.05
571.14	2303.43
571.49	2301.97
571.84	2301.64
572.20	2300.21
572.55	2299.07
572.90	2297.39
573.26	2295.81
573.61	2294.10
573.96	2292.06
574.31	2288.92
574.67	2285.71
575.02	2281.86
575.37	2278.42
575.72	2274.45
576.08	2271.17
576.43	2267.65
576.78	2263.86
577.13	2260.63
577.49	2257.37
577.84	2253.80
578.19	2250.12
578.54	2246.20
578.90	2241.75
579.25	2236.07
579.60	2231.15
579.95	2225.99
580.30	2220.98
580.66	2215.70
581.01	2210.55
581.36	2205.51
581.71	2201.16
582.06	2196.67
582.42	2192.11
582.77	2186.71
583.12	2182.03
583.47	2177.08
583.82	2172.03
584.17	2166.64
584.53	2161.00
584.88	2155.29
585.23	2149.42
585.58	2143.79
585.93	2138.37
586.28	2133.64
586.63	2128.35
586.98	2123.23
587.34	2118.48
587.69	2113.42
588.04	2108.16
588.39	2102.27
588.74	2095.80
589.09	2089.65
589.44	2082.74
589.79	2076.62
590.14	2071.00
590.49	2064.31
590.84	2057.92
591.19	2051.81
591.54	2045.43
591.89	2037.87
592.25	2030.86
592.60	2023.57
592.95	2015.87
593.30	2008.35
593.65	2000.47
594.00	1993.46
594.35	1986.10
594.70	1978.01
595.05	1970.58
595.40	1963.12
595.75	1955.66
596.10	1949.31
596.45	1942.38
596.80	1936.22
597.15	1929.38
597.50	1922.19
597.85	1915.85
598.19	1909.05
598.54	1901.87
598.89	1895.17
599.24	1889.18
599.59	1882.48
599.94	1876.23
600.29	1869.87
600.64	1863.30
600.99	1855.87
601.34	1848.91
601.69	1841.93
602.04	1834.89
602.39	1827.60
602.74	1820.72
603.08	1814.04
603.43	1807.20
603.78	1800.00
604.13	1792.77
604.48	1785.60
604.83	1778.70
605.18	1771.49
605.53	1763.40
605.87	1755.23
606.22	1747.93
606.57	1740.09
606.92	1732.82
607.27	1725.63
607.62	1718.65
607.96	1711.36
608.31	1704.75
608.66	1697.11
609.01	1689.52
609.36	1681.97
609.70	1673.95
610.05	1665.85
610.40	1658.11
610.75	1649.90
611.10	1642.17
611.44	1633.74
611.79	1625.72
612.14	1616.97
612.49	1607.87
612.83	1599.59
613.18	1591.61
613.53	1583.51
613.88	1575.01
614.22	1566.68
614.57	1558.06
614.92	1550.00
615.27	1542.38
615.61	1534.11
615.96	1526.27
616.31	1518.64
616.65	1511.32
617.00	1503.84
617.35	1496.32
617.70	1487.93
618.04	1479.41
618.39	1471.23
618.74	1463.58
619.08	1455.27
619.43	1447.71
619.78	1440.87
620.12	1433.66
620.47	1426.18
620.82	1418.16
621.16	1410.80
621.51	1403.26
621.85	1395.76
622.20	1387.31
622.55	1378.99
622.89	1371.16
623.24	1363.52
623.59	1356.17
623.93	1348.66
624.28	1341.36
624.62	1333.78
624.97	1326.60
625.32	1319.80
625.66	1312.84
626.01	1305.75
626.35	1298.32
626.70	1290.64
627.04	1282.78
627.39	1275.13
627.73	1267.67
628.08	1260.70
628.43	1253.31
628.77	1245.87
629.12	1238.41
629.46	1231.18
629.81	1223.91
630.15	1216.64
630.50	1209.26
630.84	1201.02
631.19	1193.18
631.53	1185.83
631.88	1178.40
632.22	1170.87
632.57	1163.66
632.91	1156.16
633.26	1148.68
633.60	1141.49
633.95	1134.47
634.29	1127.51
634.64	1120.85
634.98	1113.50
635.32	1106.39
635.67	1099.94
636.01	1093.38
636.36	1086.54
636.70	1080.11
637.05	1073.61
637.39	1067.31
637.73	1060.80
638.08	1055.10
638.42	1049.13
638.77	1042.68
639.11	1036.05
639.45	1029.77
639.80	1023.13
640.14	1016.69
640.49	1010.24
640.83	1003.91
641.17	997.70
641.52	991.45
641.86	985.09
642.20	979.36
642.55	973.04
642.89	966.41
643.23	959.96
643.58	954.14
643.92	947.99
644.26	941.77
644.61	935.79
644.95	929.74
645.29	923.06
645.64	916.39
645.98	910.10
646.32	904.30
646.66	898.19
647.01	892.41
647.35	886.76
647.69	880.96
648.04	875.46
648.38	869.64
648.72	863.60
649.06	857.50
649.41	851.61
649.75	845.63
650.09	839.78
650.43	834.06
650.78	827.92
651.12	821.94
651.46	816.31
651.80	810.46
652.14	805.03
652.49	799.66
652.83	794.45
653.17	788.70
653.51	783.00
653.85	777.56
654.20	771.91
654.54	765.92
654.88	760.26
655.22	754.37
655.56	748.67
655.90	743.33
656.25	738.04
656.59	732.61
656.93	727.52
657.27	722.37
657.61	716.91
657.95	711.85
658.29	706.74
658.64	701.51
658.98	696.23
659.32	690.81
659.66	685.58
660.00	680.21
660.34	675.32
660.68	670.45
661.02	665.51
661.36	660.82
661.70	656.36
662.05	651.99
662.39	647.65
662.73	643.25
663.07	638.85
663.41	634.49
663.75	630.12
664.09	625.58
664.43	621.28
664.77	617.23
665.11	613.02
665.45	609.00
665.79	604.97
666.13	600.89
666.47	596.85
666.81	592.73
667.15	588.68
667.49	584.81
667.83	581.04
668.17	577.09
668.51	573.01
668.85	569.00
669.19	565.19
669.53	561.38
669.87	557.47
670.21	553.82
670.55	550.22
670.89	546.74
671.23	543.38
671.57	539.85
671.91	536.24
672.25	532.78
672.58	529.26
672.92	525.80
673.26	522.67
673.60	519.54
673.94	516.53
674.28	513.68
674.62	510.71
674.96	507.60
675.30	504.74
675.64	501.85
675.97	499.09
676.31	496.23
676.65	493.31
676.99	490.64
677.33	487.80
677.67	484.96
678.01	482.00
678.34	479.00
678.68	476.18
679.02	473.41
679.36	470.68
679.70	468.01
680.04	465.30
680.37	462.47
680.71	459.71
681.05	457.10
681.39	454.41
681.73	451.78
682.06	449.26
682.40	446.70
682.74	444.18
683.08	441.64
683.42	438.99
683.75	436.56
684.09	434.01
684.43	431.50
684.77	429.05
685.10	426.72
685.44	424.50
685.78	422.20
686.12	419.98
686.45	417.70
686.79	415.37
687.13	413.17
687.46	411.00
687.80	408.88
688.14	406.64
688.48	404.54
688.81	402.36
689.15	400.23
689.49	398.10
689.82	396.04
690.16	394.00
690.50	392.11
690.83	390.17
691.17	388.21
691.51	386.32
691.84	384.45
692.18	382.47
692.52	380.48
692.85	378.57
693.19	376.63
693.52	374.83
693.86	373.06
694.20	371.32
694.53	369.51
694.87	367.67
695.21	365.92
695.54	364.16
695.88	362.42
696.21	360.68
696.55	359.02
696.88	357.34
697.22	355.66
697.56	354.07
697.89	352.34
698.23	350.70
698.56	349.08
698.90	347.52
699.23	345.91
699.57	344.38
699.90	342.84
700.24	341.34
700.58	339.78
700.91	338.25
701.25	336.81
701.58	335.44
701.92	334.11
702.25	332.69
702.59	331.28
702.92	329.93
703.26	328.63
703.59	327.33
703.93	326.14
704.26	324.95
704.60	323.65
704.93	322.43
705.26	321.22
705.60	320.07
705.93	318.96
706.27	317.94
706.60	316.90
706.94	315.80
707.27	314.70
707.61	313.66
707.94	312.68
708.27	311.55
708.61	310.46
708.94	309.44
709.28	308.49
709.61	307.56
709.94	306.63
710.28	305.58
710.61	304.64
710.95	303.61
711.28	302.70
711.61	301.74
711.95	300.85
712.28	299.94
712.61	298.99
712.95	298.02
713.28	297.10
713.61	296.17
713.95	295.31
714.28	294.50
714.61	293.66
714.95	292.80
715.28	292.02
715.61	291.15
715.95	290.30
716.28	289.46
716.61	288.64
716.95	287.83
717.28	287.13
717.61	286.36
717.94	285.63
718.28	284.81
718.61	284.11
718.94	283.41
719.27	282.70
719.61	282.06
719.94	281.40
720.27	280.71
720.60	280.07
720.94	279.44
721.27	278.82
721.60	278.27
721.93	277.66
722.27	277.13
722.60	276.61
722.93	276.05
723.26	275.51
723.59	274.97
723.93	274.44
724.26	273.92
724.59	273.39
724.92	272.87
725.25	272.39
725.59	271.87
725.92	271.39
726.25	270.94
726.58	270.46
726.91	269.95
727.24	269.52
727.57	269.06
727.91	268.58
728.24	268.12
728.57	267.64
728.90	267.21
729.23	266.72
729.56	266.27
729.89	265.76
730.22	265.28
730.55	264.80
730.89	264.31
731.22	263.81
731.55	263.38
731.88	262.93
732.21	262.48
732.54	262.02
732.87	261.60
733.20	261.21
733.53	260.82
733.86	260.48
734.19	260.04
734.52	259.64
734.85	259.31
735.18	258.89
735.51	258.52
735.84	258.13
736.17	257.78
736.50	257.37
736.83	257.18
737.16	256.84
737.49	256.54
737.82	256.25
738.15	255.93
738.48	255.61
738.81	255.32
739.14	255.01
739.47	254.73
739.80	254.40
740.13	254.09
740.46	253.75
740.79	253.44
741.12	253.13
741.45	252.83
741.78	252.49
742.11	252.21
742.44	251.87
742.77	251.58
743.10	251.28
743.43	251.01
743.75	250.59
744.08	250.45
744.41	250.15
744.74	249.87
745.07	249.57
745.40	249.26
745.73	249.03
746.06	248.75
746.39	248.48
746.71	248.20
747.04	247.89
747.37	247.62
747.70	247.34
748.03	247.09
748.36	246.88
748.68	246.66
749.01	246.40
749.34	246.16
749.67	245.92
750.00	245.69
750.33	245.53
750.65	245.32
750.98	244.99
751.31	244.77
751.64	244.53
751.97	244.41
752.29	244.20
752.62	243.95
752.95	243.74
753.28	243.51
753.60	243.30
753.93	243.16
754.26	242.96
754.59	242.80
754.91	242.60
755.24	242.38
755.57	242.19
755.90	242.01
756.22	241.85
756.55	241.64
756.88	241.47
757.20	241.24
757.53	241.07
757.86	240.91
758.19	240.76
758.51	240.61
758.84	240.41
759.17	240.28
759.49	240.12
759.82	240.00
760.15	239.87
760.47	239.75
760.80	239.59
761.13	239.51
761.45	239.34
761.78	239.18
762.11	239.04
762.43	238.89
762.76	238.75
763.08	238.61
763.41	238.48
763.74	238.31
764.06	238.18
764.39	238.05
764.71	237.92
765.04	237.82
765.37	237.66
765.69	237.52
766.02	237.38
766.34	237.24
766.67	237.10
767.00	237.02
767.32	236.91
767.65	236.87
767.97	236.74
768.30	236.61
768.62	236.50
768.95	236.41
769.27	236.31
769.60	236.24
769.92	236.12
770.25	236.04
770.57	235.91
770.90	235.81
771.22	235.68
771.55	235.58
771.87	235.45
772.20	235.38
772.52	235.35
772.85	235.36
773.17	235.28
773.50	235.16
773.82	235.05
774.15	234.93
774.47	234.74
774.80	234.63
775.12	234.56
775.45	234.47
775.77	234.36
776.09	234.27
776.42	234.16
776.74	234.12
777.07	234.03
777.39	233.96
777.72	233.87
778.04	233.82
778.36	233.74
778.69	233.69
779.01	233.60
779.33	233.43
779.66	233.30
779.98	233.22
780.31	233.16
780.63	233.11
780.95	233.06
781.28	233.00
781.60	232.91
781.92	232.81
782.25	232.75
782.57	232.69
782.89	232.60
783.22	232.53
783.54	232.46
783.86	232.42
784.19	232.36
784.51	232.32
784.83	232.26
785.16	232.17
785.48	232.11
785.80	232.08
786.12	232.01
786.45	231.91
786.77	231.86
787.09	231.82
787.42	231.75
787.74	231.69
788.06	231.64
788.38	231.61
788.71	231.56
789.03	231.49
789.35	231.46
789.67	231.42
789.99	231.40
790.32	231.34
790.64	231.33
790.96	231.39
791.28	231.33
791.61	231.29
791.93	231.29
792.25	231.22
792.57	231.25
792.89	231.23
793.21	231.25
793.54	231.21
793.86	231.15
794.18	231.11
794.50	231.05
794.82	231.05
795.14	231.05
795.47	231.03
795.79	231.06
796.11	230.97
796.43	230.90
796.75	230.88
797.07	230.84
797.39	230.77
797.71	230.64
798.04	230.63
798.36	230.57
798.68	230.54
799.00	230.53
799.32	230.46
799.64	230.43
799.96	230.40
800.28	230.41
800.60	230.42
800.92	230.40
801.24	230.38
801.56	230.35
801.89	230.30
802.21	230.29
802.53	230.24
802.85	230.29
803.17	230.34
803.49	230.29
803.81	230.26
804.13	230.23
804.45	230.20
804.77	230.17
805.09	230.18
805.41	230.15
805.73	230.11
806.05	230.06
806.37	230.07
806.69	230.03
807.01	229.98
807.33	229.97
807.65	229.93
807.97	229.96
808.28	229.94
808.60	229.92
808.92	229.87
809.24	229.89
809.56	229.82
809.88	229.78
810.20	229.78
810.52	229.77
810.84	229.72
811.16	229.70
811.48	229.67
811.80	229.68
812.12	229.65
812.43	229.67
812.75	229.66
813.07	229.60
813.39	229.58
813.71	229.54
814.03	229.52
814.35	229.49
814.67	229.43
814.98	229.37
815.30	229.34
815.62	229.33
815.94	229.25
816.26	229.29
816.58	229.25
816.89	229.19
817.21	229.16
817.53	229.19
817.85	229.18
818.17	229.11
818.48	229.04
818.80	229.03
819.12	228.97
819.44	228.93
819.76	228.91
820.07	228.86
820.39	228.83
820.71	228.82
821.03	228.80
821.34	228.78
821.66	228.76
821.98	228.76
822.30	228.73
822.61	228.79
822.93	228.68
823.25	228.69
823.57	228.65
823.88	228.67
824.20	228.64
824.52	228.62
824.83	228.61
825.15	228.58
825.47	228.56
825.79	228.53
826.10	228.50
826.42	228.50
826.74	228.50
827.05	228.46
827.37	228.41
827.69	228.41
828.00	228.42
828.32	228.43
828.64	228.37
828.95	228.43
829.27	228.41
829.58	228.43
829.90	228.41
830.22	228.45
830.53	228.38
830.85	228.37
831.17	228.35
831.48	228.36
831.80	228.37
832.11	228.36
832.43	228.36
832.75	228.32
833.06	228.34
833.38	228.27
833.69	228.30
834.01	228.31
834.32	228.29
834.64	228.22
834.96	228.20
835.27	228.20
835.59	228.14
835.90	228.11
836.22	228.12
836.53	228.11
836.85	228.08
837.16	228.21
837.48	228.20
837.79	228.22
838.11	228.22
838.42	228.22
838.74	228.24
839.05	228.22
839.37	228.25
839.68	228.22
840.00	228.26
840.31	228.26
840.63	228.26
840.94	228.23
841.26	228.27
841.57	228.25
841.88	228.29
842.20	228.28
842.51	228.23
842.83	228.23
843.14	228.30
843.46	228.28
843.77	228.18
844.08	228.17
844.40	228.17
844.71	228.15
845.03	228.13
845.34	228.11
845.65	228.11
845.97	228.14
846.28	228.14
846.60	228.15
846.91	228.16
847.22	228.14
847.54	228.21
847.85	228.19
848.16	228.21
848.48	228.19
848.79	228.22
849.10	228.25
849.42	228.23
849.73	228.15
850.04	228.17
850.36	228.18
850.67	228.25
850.98	228.25
851.30	228.27
851.61	228.25
851.92	228.25
852.23	228.27
852.55	228.26
852.86	228.28
853.17	228.26
853.49	228.26
853.80	228.31
854.11	228.26
854.42	228.27
854.74	228.25
855.05	228.25
855.36	228.21
855.67	228.20
855.99	228.19
856.30	228.29
856.61	228.27
856.92	228.22
857.23	228.16
857.55	228.15
857.86	228.13
858.17	228.16
858.48	228.12
858.79	228.10
859.11	228.05
859.42	228.00
859.73	228.00
860.04	227.97
860.35	227.86
860.66	227.86
860.98	227.83
861.29	227.82
861.60	227.80
861.91	227.79
862.22	227.75
862.53	227.74
862.84	227.62
863.16	227.64
863.47	227.62
863.78	227.59
864.09	227.57
864.40	227.56
864.71	227.53
865.02	227.54
865.33	227.50
865.64	227.49
865.95	227.49
866.27	227.57
866.58	227.58
866.89	227.62
867.20	227.60
867.51	227.58
867.82	227.54
868.13	227.55
868.44	227.54
868.75	227.56
869.06	227.53
869.37	227.54
869.68	227.51
869.99	227.53
870.30	227.49
870.61	227.50
870.92	227.43
871.23	227.40
871.54	227.41
871.85	227.42
872.16	227.44
872.47	227.41
872.78	227.35
873.09	227.34
873.40	227.32
873.71	227.28
874.02	227.31
874.33	227.33
874.64	227.31
874.95	227.30
875.26	227.28
875.56	227.29
875.87	227.29
876.18	227.29
876.49	227.39
876.80	227.39
877.11	227.37
877.42	227.43
877.73	227.44
878.04	227.42
878.35	227.45
878.66	227.47
878.96	227.48
879.27	227.43
879.58	227.42
879.89	227.40
880.20	227.46
880.51	227.44
880.82	227.47
881.12	227.48
881.43	227.49
881.74	227.47
882.05	227.45
882.36	227.47
882.67	227.47
882.97	227.38
883.28	227.40
883.59	227.40
883.90	227.39
884.21	227.45
884.51	227.45
884.82	227.42
885.13	227.41
885.44	227.44
885.74	227.45
886.05	227.46
886.36	227.46
886.67	227.44
886.98	227.50
887.28	227.52
887.59	227.54
887.90	227.55
888.20	227.57
888.51	227.60
888.82	227.58
889.13	227.61
889.43	227.69
889.74	227.72
890.05	227.77
890.35	227.78
890.66	227.75
890.97	227.75
891.28	227.77
891.58	227.79
891.89	227.79
892.20	227.81
892.50	227.81
892.81	227.80
893.12	227.81
893.42	227.74
893.73	227.73
894.04	227.73
894.34	227.73
894.65	227.71
894.95	227.70
895.26	227.69
895.57	227.70
895.87	227.58
896.18	227.55
896.48	227.51
896.79	227.51
897.10	227.51
897.40	227.52
897.71	227.54
898.01	227.53
898.32	227.54
898.63	227.54
898.93	227.52
899.24	227.51
899.54	227.50
899.85	227.53
900.15	227.50
900.46	227.44
900.76	227.44
901.07	227.43
901.38	227.41
901.68	227.40
901.99	227.34
902.29	227.35
902.60	227.32
902.90	227.33
903.21	227.30
903.51	227.30
903.82	227.31
904.12	227.28
904.43	227.24
904.73	227.22
905.03	227.18
905.34	227.27
905.64	227.27
905.95	227.26
906.25	227.21
906.56	227.19
906.86	227.23
907.17	227.20
907.47	227.22
907.77	227.21
908.08	227.20
908.38	227.23
908.69	227.19
908.99	227.23
909.30	227.22
909.60	227.21
909.90	227.19
910.21	227.14
910.51	227.10
910.81	227.12
911.12	227.11
911.42	227.13
911.73	227.01
912.03	227.01
912.33	227.02
912.64	227.05
912.94	227.05
913.24	227.07
913.55	227.07
913.85	227.06
914.15	227.08
914.46	227.09
914.76	227.09
915.06	227.12
915.37	227.08
915.67	227.07
915.97	227.06
916.27	227.03
916.58	227.06
916.88	227.07
917.18	227.06
917.49	227.13
917.79	227.13
918.09	227.18
918.39	227.23
918.70	227.21
919.00	227.19
919.30	227.23
919.60	227.21
919.91	227.23
920.21	227.24
920.51	227.24
920.81	227.24
921.12	227.25
921.42	227.28
921.72	227.30
922.02	227.32
922.32	227.36
922.63	227.39
922.93	227.44
923.23	227.45
923.53	227.48
923.83	227.44
924.13	227.42
924.44	227.42
924.74	227.43
925.04	227.47
925.34	227.51
925.64	227.49
925.94	227.48
926.24	227.55
926.55	227.55
926.85	227.56
927.15	227.58
927.45	227.56
927.75	227.56
928.05	227.58
928.35	227.58
928.65	227.60
928.95	227.61
929.26	227.57
929.56	227.60
929.86	227.60
930.16	227.59
930.46	227.63
930.76	227.61
931.06	227.57
931.36	227.54
931.66	227.56
931.96	227.57
932.26	227.58
932.56	227.53
932.86	227.54
933.16	227.54
933.46	227.55
933.76	227.60
934.06	227.62
934.36	227.66
934.66	227.63
934.96	227.61
935.26	227.62
935.56	227.67
935.86	227.63
936.16	227.62
936.46	227.57
936.76	227.56
937.06	227.56
937.36	227.59
937.66	227.57
937.96	227.56
938.26	227.49
938.56	227.46
938.86	227.43
939.16	227.45
939.46	227.46
939.76	227.42
940.06	227.35
940.35	227.28
940.65	227.20
940.95	227.24
941.25	227.20
941.55	227.19
941.85	227.16
942.15	227.18
942.45	227.20
942.75	227.25
943.04	227.23
943.34	227.27
943.64	227.23
943.94	227.21
944.24	227.18
944.54	227.21
944.84	227.19
945.13	227.18
945.43	227.15
945.73	227.12
946.03	227.12
946.33	227.13
946.62	227.14
946.92	227.14
947.22	227.12
947.52	227.14
947.82	227.11
948.11	227.08
948.41	227.06
948.71	227.01
949.01	226.97
949.31	226.97
949.60	226.91
949.90	226.92
950.20	226.93
950.50	226.93
950.79	226.93
951.09	226.95
951.39	226.96
951.69	226.97
951.98	226.98
952.28	226.98
952.58	226.97
952.87	226.99
953.17	227.00
953.47	227.00
953.76	226.97
954.06	226.98
954.36	226.97
954.66	226.94
954.95	226.97
955.25	227.01
955.55	227.03
955.84	227.06
956.14	227.05
956.44	227.05
956.73	227.06
957.03	227.09
957.32	227.08
957.62	227.06
957.92	227.08
958.21	227.11
958.51	227.22
958.81	227.23
959.10	227.21
959.40	227.25
959.69	227.27
959.99	227.30
960.29	227.29
960.58	227.30
960.88	227.37
961.17	227.37
961.47	227.34
961.76	227.33
962.06	227.32
962.36	227.34
962.65	227.37
962.95	227.39
963.24	227.36
963.54	227.38
963.83	227.41
964.13	227.40
964.42	227.35
964.72	227.26
965.01	227.27
965.31	227.28
965.60	227.26
965.90	227.28
966.19	227.28
966.49	227.31
966.78	227.30
967.08	227.28
967.37	227.28
967.67	227.29
967.96	227.28
968.26	227.28
968.55	227.28
968.85	227.27
969.14	227.26
969.43	227.25
969.73	227.26
970.02	227.21
970.32	227.22
970.61	227.22
970.91	227.23
971.20	227.23
971.49	227.22
971.79	227.21
972.08	227.17
972.38	227.18
972.67	227.14
972.96	227.16
973.26	227.13
973.55	227.16
973.85	227.14
974.14	227.13
974.43	227.13
974.73	227.10
975.02	227.08
975.31	227.07
975.61	227.11
975.90	227.08
976.19	227.09
976.49	227.13
976.78	227.13
977.07	227.12
977.37	227.11
977.66	227.10
977.95	227.08
978.24	227.07
978.54	227.07
978.83	227.08
979.12	227.05
979.42	227.07
979.71	227.02
980.00	227.03
980.29	227.03
980.59	227.04
980.88	227.05
981.17	227.05
981.46	227.06
981.76	227.02
982.05	227.04
982.34	227.04
982.63	226.98
982.93	227.01
983.22	227.01
983.51	227.02
983.80	227.02
984.09	227.03
984.39	227.01
984.68	226.97
984.97	226.99
985.26	227.03
985.55	227.02
985.85	227.01
986.14	227.03
986.43	227.02
986.72	227.01
987.01	226.98
987.30	226.97
987.59	226.93
987.89	226.94
988.18	226.91
988.47	226.91
988.76	226.94
989.05	226.91
989.34	226.92
989.63	226.95
989.92	226.96
990.22	226.96
990.51	226.97
990.80	226.97
991.09	226.98
991.38	226.97
991.67	226.98
991.96	226.96
992.25	226.96
992.54	226.95
992.83	226.99
993.12	226.99
993.41	227.01
993.70	227.07
993.99	227.11
994.28	227.14
994.58	227.16
994.87	227.15
995.16	227.16
995.45	227.15
995.74	227.11
996.03	227.14
996.32	227.19
996.61	227.20
996.90	227.24
997.19	227.21
997.48	227.22
997.77	227.23
998.06	227.31
998.34	227.27
998.63	227.27
998.92	227.26
999.21	227.29
999.50	227.29
999.79	227.27
1000.08	227.22
1000.37	227.22
1000.66	227.19
1000.95	227.18
1001.24	227.18
1001.53	227.17
1001.82	227.17
1002.11	227.13
1002.40	227.10
1002.68	227.10
1002.97	227.16
1003.26	227.17
1003.55	227.15
1003.84	227.14
1004.13	227.10
1004.42	227.10
1004.71	227.09
1004.99	227.07
1005.28	227.10
1005.57	227.10
1005.86	227.08
1006.15	227.11
1006.44	227.10
1006.72	227.13
1007.01	227.13
1007.30	227.09
1007.59	227.13
1007.88	227.11
1008.17	227.12
1008.45	227.10
1008.74	227.10
1009.03	227.05
1009.32	227.03
1009.60	227.03
1009.89	227.03
1010.18	226.99
1010.47	227.02
1010.76	227.03
1011.04	227.02
1011.33	227.02
1011.62	227.00
1011.91	227.01
1012.19	227.02
1012.48	227.03
1012.77	227.01
1013.05	227.06
1013.34	227.08
1013.63	227.06
1013.92	227.06
1014.20	227.04
1014.49	227.02
1014.78	227.01
1015.06	226.97
1015.35	226.98
1015.64	226.98
1015.92	226.98
1016.21	227.01
1016.50	226.99
1016.78	226.96
1017.07	226.99
1017.36	226.95
1017.64	226.92
1017.93	226.96
1018.22	226.91
1018.50	226.87
1018.79	226.89
1019.08	226.85
1019.36	226.85
1019.65	226.86
1019.93	226.90
1020.22	226.89
1020.51	226.96
1020.79	226.95
1021.08	226.44
1021.36	226.43
1021.65	227.36
1021.94	227.13
1022.22	226.86
1022.51	227.29
1022.79	227.53
1023.08	226.52
1023.36	227.85
1023.65	226.88
>>>>>End Processed Spectral Data<<<<<
