SpectraSuite Data File
++++++++++++++++++++++++++++++++++++
Date: Fri Feb 01 15:35:01 EST 2013
User: group
Dark Spectrum Present: No
Reference Spectrum Present: No
Number of Sampled Component Spectra: 1
Spectrometers: USB2E7196
Integration Time (usec): 35000 (USB2E7196)
Spectra Averaged: 100 (USB2E7196)
Boxcar Smoothing: 10 (USB2E7196)
Correct for Electrical Dark: No (USB2E7196)
Strobe/Lamp Enabled: No (USB2E7196)
Correct for Detector Non-linearity: No (USB2E7196)
Correct for Stray Light: No (USB2E7196)
Number of Pixels in Processed Spectrum: 2048
>>>>>Begin Processed Spectral Data<<<<<
339.09	0.00
339.48	214.97
339.86	216.66
340.24	217.46
340.63	219.42
341.01	221.61
341.39	221.46
341.78	222.94
342.16	224.22
342.54	224.80
342.93	213.05
343.31	223.81
343.69	224.33
344.07	224.80
344.46	225.23
344.84	225.59
345.22	225.82
345.60	226.09
345.99	226.25
346.37	226.39
346.75	226.48
347.13	226.55
347.52	226.60
347.90	226.68
348.28	226.71
348.66	226.72
349.05	226.70
349.43	226.73
349.81	226.81
350.19	226.84
350.57	226.92
350.96	226.99
351.34	227.07
351.72	227.15
352.10	227.17
352.48	227.25
352.87	227.33
353.25	227.41
353.63	227.47
354.01	227.57
354.39	227.63
354.77	227.74
355.15	227.87
355.54	227.98
355.92	228.01
356.30	228.10
356.68	228.25
357.06	228.36
357.44	228.41
357.82	228.47
358.20	228.56
358.58	228.62
358.97	228.65
359.35	228.76
359.73	228.85
360.11	228.95
360.49	228.99
360.87	229.01
361.25	229.09
361.63	229.18
362.01	229.23
362.39	229.28
362.77	229.33
363.15	229.35
363.53	229.34
363.91	229.36
364.29	229.40
364.67	229.31
365.05	229.33
365.43	229.37
365.81	229.40
366.19	229.43
366.57	229.49
366.95	229.51
367.33	229.47
367.71	229.45
368.09	229.48
368.47	229.47
368.85	229.42
369.23	229.43
369.61	229.36
369.99	229.33
370.37	229.29
370.75	229.29
371.13	229.20
371.51	229.15
371.89	229.16
372.27	229.13
372.65	229.12
373.03	229.04
373.41	228.96
373.78	228.87
374.16	228.79
374.54	228.69
374.92	228.60
375.30	228.52
375.68	228.42
376.06	228.30
376.44	228.20
376.82	228.17
377.19	228.04
377.57	227.97
377.95	227.89
378.33	227.81
378.71	227.67
379.09	227.66
379.47	227.60
379.84	227.50
380.22	227.38
380.60	227.24
380.98	227.17
381.36	227.12
381.73	227.05
382.11	226.99
382.49	226.91
382.87	226.83
383.25	226.79
383.62	226.85
384.00	226.79
384.38	226.77
384.76	226.76
385.13	226.74
385.51	226.70
385.89	226.63
386.27	226.58
386.64	226.53
387.02	226.46
387.40	226.39
387.78	226.37
388.15	226.33
388.53	226.33
388.91	226.33
389.29	226.29
389.66	226.27
390.04	226.24
390.42	226.25
390.79	226.26
391.17	226.23
391.55	226.12
391.92	226.13
392.30	226.14
392.68	226.07
393.05	226.07
393.43	226.06
393.81	226.09
394.18	226.09
394.56	226.13
394.94	226.15
395.31	226.20
395.69	226.27
396.06	226.34
396.44	226.37
396.82	226.38
397.19	226.48
397.57	226.54
397.95	226.58
398.32	226.61
398.70	226.69
399.07	226.74
399.45	226.82
399.82	226.87
400.20	226.93
400.58	227.02
400.95	227.09
401.33	227.18
401.70	227.37
402.08	227.48
402.45	227.57
402.83	227.71
403.20	227.82
403.58	227.90
403.95	228.03
404.33	228.19
404.71	228.31
405.08	228.47
405.46	228.62
405.83	228.80
406.21	228.95
406.58	229.13
406.96	229.31
407.33	229.49
407.70	229.72
408.08	230.00
408.45	230.24
408.83	230.46
409.20	230.68
409.58	230.81
409.95	231.09
410.33	231.34
410.70	231.60
411.08	231.88
411.45	232.17
411.82	232.50
412.20	232.83
412.57	233.26
412.95	233.56
413.32	233.92
413.69	234.33
414.07	234.76
414.44	235.21
414.82	235.68
415.19	236.24
415.56	236.79
415.94	237.33
416.31	237.98
416.68	238.62
417.06	239.34
417.43	240.04
417.81	240.79
418.18	241.57
418.55	242.42
418.93	243.31
419.30	244.23
419.67	245.14
420.04	246.13
420.42	247.11
420.79	248.30
421.16	249.46
421.54	250.64
421.91	251.88
422.28	253.15
422.66	254.49
423.03	255.81
423.40	257.13
423.77	258.56
424.15	259.96
424.52	261.43
424.89	263.00
425.26	264.55
425.64	265.99
426.01	267.61
426.38	269.26
426.75	270.93
427.13	272.65
427.50	274.46
427.87	276.29
428.24	278.15
428.61	279.89
428.99	281.87
429.36	283.97
429.73	286.04
430.10	288.07
430.47	290.12
430.85	292.20
431.22	294.44
431.59	296.81
431.96	299.07
432.33	301.57
432.70	303.96
433.08	306.80
433.45	309.45
433.82	312.04
434.19	314.99
434.56	317.84
434.93	320.53
435.30	323.17
435.68	326.08
436.05	328.96
436.42	331.73
436.79	334.21
437.16	336.87
437.53	339.71
437.90	342.48
438.27	345.18
438.64	348.02
439.01	350.62
439.38	352.83
439.75	355.01
440.13	357.50
440.50	359.88
440.87	361.68
441.24	363.63
441.61	365.81
441.98	367.25
442.35	369.01
442.72	370.84
443.09	372.61
443.46	373.60
443.83	374.17
444.20	374.74
444.57	375.56
444.94	375.85
445.31	376.17
445.68	376.54
446.05	376.67
446.42	376.27
446.79	375.85
447.16	375.41
447.53	375.07
447.90	373.91
448.27	372.73
448.64	371.18
449.01	370.01
449.37	368.01
449.74	366.08
450.11	363.81
450.48	361.30
450.85	358.76
451.22	356.60
451.59	354.60
451.96	352.65
452.33	350.08
452.70	347.73
453.07	344.88
453.43	341.98
453.80	339.21
454.17	336.51
454.54	333.95
454.91	331.20
455.28	328.55
455.65	326.06
456.02	323.57
456.38	321.41
456.75	318.77
457.12	316.57
457.49	314.35
457.86	312.20
458.23	310.37
458.59	308.36
458.96	306.28
459.33	304.42
459.70	302.56
460.07	301.03
460.43	299.34
460.80	297.72
461.17	296.29
461.54	294.81
461.91	293.46
462.27	292.06
462.64	290.85
463.01	289.51
463.38	288.18
463.74	286.83
464.11	285.70
464.48	284.65
464.85	283.52
465.21	282.70
465.58	281.76
465.95	280.65
466.32	279.72
466.68	278.80
467.05	277.91
467.42	277.02
467.78	276.08
468.15	275.19
468.52	274.52
468.88	273.68
469.25	272.86
469.62	272.19
469.98	271.45
470.35	270.84
470.72	270.20
471.08	269.60
471.45	269.08
471.82	268.54
472.18	267.91
472.55	267.44
472.92	266.90
473.28	266.42
473.65	265.96
474.02	265.53
474.38	265.16
474.75	264.81
475.11	264.40
475.48	264.17
475.85	263.97
476.21	263.78
476.58	263.57
476.94	263.44
477.31	263.26
477.67	263.15
478.04	263.01
478.41	263.00
478.77	263.02
479.14	262.96
479.50	262.96
479.87	263.06
480.23	263.14
480.60	263.19
480.96	263.32
481.33	263.55
481.69	263.79
482.06	264.00
482.42	264.22
482.79	264.47
483.15	264.76
483.52	265.12
483.88	265.47
484.25	265.84
484.61	266.29
484.98	266.77
485.34	267.31
485.71	267.86
486.07	268.42
486.44	268.98
486.80	269.68
487.17	270.41
487.53	271.21
487.90	272.08
488.26	273.03
488.62	274.03
488.99	275.00
489.35	276.02
489.72	277.15
490.08	278.37
490.44	279.64
490.81	280.97
491.17	282.30
491.54	283.79
491.90	285.36
492.26	287.02
492.63	288.73
492.99	290.49
493.36	292.35
493.72	294.38
494.08	296.47
494.45	298.67
494.81	301.04
495.17	303.45
495.54	306.01
495.90	308.69
496.26	311.44
496.63	314.39
496.99	317.48
497.35	320.73
497.72	324.07
498.08	327.57
498.44	331.29
498.80	335.25
499.17	339.29
499.53	343.46
499.89	347.82
500.26	352.31
500.62	356.99
500.98	362.00
501.34	367.09
501.71	372.42
502.07	377.90
502.43	383.50
502.79	389.35
503.16	395.44
503.52	401.70
503.88	408.09
504.24	414.70
504.60	421.61
504.97	428.72
505.33	436.06
505.69	443.80
506.05	451.51
506.41	459.38
506.78	467.56
507.14	475.99
507.50	484.67
507.86	493.73
508.22	502.90
508.59	512.11
508.95	521.75
509.31	531.56
509.67	541.64
510.03	552.01
510.39	562.58
510.75	573.41
511.12	584.35
511.48	595.68
511.84	607.10
512.20	618.60
512.56	630.57
512.92	642.73
513.28	655.04
513.64	667.60
514.00	680.27
514.37	693.17
514.73	706.22
515.09	719.27
515.45	732.52
515.81	746.22
516.17	760.20
516.53	774.21
516.89	788.43
517.25	802.65
517.61	817.05
517.97	831.49
518.33	845.93
518.69	860.75
519.05	875.78
519.41	891.08
519.77	906.58
520.13	922.11
520.49	937.51
520.85	952.94
521.21	968.61
521.57	984.92
521.93	1000.67
522.29	1017.13
522.65	1033.49
523.01	1049.75
523.37	1065.77
523.73	1081.95
524.09	1098.19
524.45	1114.55
524.81	1131.13
525.17	1147.98
525.53	1164.92
525.89	1181.81
526.25	1198.62
526.61	1215.01
526.97	1231.68
527.33	1248.29
527.68	1264.85
528.04	1281.34
528.40	1298.07
528.76	1315.07
529.12	1331.70
529.48	1348.55
529.84	1364.57
530.20	1381.16
530.56	1398.29
530.91	1415.70
531.27	1432.45
531.63	1448.99
531.99	1465.56
532.35	1481.66
532.71	1497.58
533.07	1513.80
533.42	1529.68
533.78	1545.70
534.14	1561.98
534.50	1577.40
534.86	1593.28
535.21	1608.53
535.57	1624.56
535.93	1640.11
536.29	1655.15
536.65	1670.21
537.00	1685.21
537.36	1700.63
537.72	1715.20
538.08	1729.67
538.44	1743.42
538.79	1757.39
539.15	1771.07
539.51	1784.91
539.87	1799.27
540.22	1813.07
540.58	1827.06
540.94	1840.52
541.29	1853.47
541.65	1866.24
542.01	1879.47
542.37	1891.66
542.72	1904.16
543.08	1915.94
543.44	1928.22
543.79	1939.45
544.15	1950.47
544.51	1961.83
544.87	1972.72
545.22	1983.51
545.58	1993.67
545.94	2003.55
546.29	2013.48
546.65	2023.25
547.01	2032.43
547.36	2041.22
547.72	2049.67
548.07	2057.43
548.43	2065.72
548.79	2073.88
549.14	2081.45
549.50	2088.94
549.86	2096.91
550.21	2104.16
550.57	2111.38
550.92	2117.96
551.28	2125.02
551.64	2132.13
551.99	2138.94
552.35	2145.21
552.70	2151.50
553.06	2157.47
553.41	2163.78
553.77	2169.95
554.13	2176.05
554.48	2182.20
554.84	2187.68
555.19	2193.02
555.55	2198.06
555.90	2202.42
556.26	2207.26
556.61	2211.95
556.97	2216.08
557.32	2219.96
557.68	2224.09
558.03	2228.37
558.39	2232.25
558.74	2236.75
559.10	2240.59
559.45	2244.09
559.81	2248.41
560.16	2252.09
560.52	2255.39
560.87	2258.71
561.23	2261.29
561.58	2264.25
561.94	2266.90
562.29	2269.12
562.64	2271.75
563.00	2274.41
563.35	2277.93
563.71	2281.05
564.06	2284.31
564.42	2287.07
564.77	2289.68
565.12	2291.78
565.48	2293.56
565.83	2295.34
566.19	2296.61
566.54	2297.47
566.89	2298.67
567.25	2299.21
567.60	2300.63
567.96	2302.15
568.31	2303.17
568.66	2304.20
569.02	2304.78
569.37	2304.99
569.72	2305.82
570.08	2305.94
570.43	2305.95
570.78	2305.27
571.14	2303.82
571.49	2302.37
571.84	2302.13
572.20	2300.93
572.55	2299.97
572.90	2298.50
573.26	2297.02
573.61	2295.41
573.96	2293.66
574.31	2290.63
574.67	2287.42
575.02	2283.64
575.37	2280.32
575.72	2276.39
576.08	2273.09
576.43	2269.75
576.78	2266.05
577.13	2262.83
577.49	2259.64
577.84	2256.02
578.19	2252.32
578.54	2248.42
578.90	2244.13
579.25	2238.64
579.60	2233.68
579.95	2228.67
580.30	2223.59
580.66	2218.40
581.01	2213.41
581.36	2208.39
581.71	2204.17
582.06	2199.72
582.42	2195.28
582.77	2189.92
583.12	2185.29
583.47	2180.36
583.82	2175.19
584.17	2169.88
584.53	2164.46
584.88	2158.72
585.23	2152.94
585.58	2147.20
585.93	2141.82
586.28	2137.09
586.63	2131.89
586.98	2126.75
587.34	2121.92
587.69	2116.92
588.04	2111.59
588.39	2105.82
588.74	2099.36
589.09	2093.14
589.44	2086.36
589.79	2080.39
590.14	2074.68
590.49	2068.10
590.84	2061.81
591.19	2055.87
591.54	2049.36
591.89	2041.73
592.25	2034.98
592.60	2027.80
592.95	2020.32
593.30	2012.82
593.65	2005.12
594.00	1998.01
594.35	1990.76
594.70	1982.74
595.05	1975.54
595.40	1968.26
595.75	1960.72
596.10	1954.38
596.45	1947.54
596.80	1941.26
597.15	1934.38
597.50	1927.31
597.85	1920.76
598.19	1914.07
598.54	1906.84
598.89	1900.19
599.24	1894.50
599.59	1887.69
599.94	1881.49
600.29	1875.17
600.64	1868.46
600.99	1861.01
601.34	1854.17
601.69	1847.17
602.04	1840.25
602.39	1832.86
602.74	1825.89
603.08	1819.20
603.43	1812.45
603.78	1805.22
604.13	1798.08
604.48	1790.80
604.83	1783.98
605.18	1776.97
605.53	1768.84
605.87	1760.82
606.22	1753.65
606.57	1745.42
606.92	1738.10
607.27	1730.81
607.62	1723.79
607.96	1716.68
608.31	1710.11
608.66	1702.45
609.01	1694.80
609.36	1687.18
609.70	1679.18
610.05	1671.12
610.40	1663.31
610.75	1654.96
611.10	1647.23
611.44	1638.82
611.79	1630.83
612.14	1621.98
612.49	1612.78
612.83	1604.39
613.18	1596.34
613.53	1588.20
613.88	1579.69
614.22	1571.46
614.57	1562.80
614.92	1554.71
615.27	1546.91
615.61	1538.51
615.96	1530.44
616.31	1522.86
616.65	1515.47
617.00	1507.96
617.35	1500.37
617.70	1491.99
618.04	1483.49
618.39	1475.25
618.74	1467.58
619.08	1459.30
619.43	1451.98
619.78	1445.17
620.12	1438.03
620.47	1430.45
620.82	1422.09
621.16	1414.83
621.51	1407.19
621.85	1399.57
622.20	1391.02
622.55	1382.83
622.89	1374.95
623.24	1367.45
623.59	1360.03
623.93	1352.57
624.28	1345.32
624.62	1337.77
624.97	1330.72
625.32	1323.92
625.66	1316.86
626.01	1309.63
626.35	1302.08
626.70	1294.29
627.04	1286.51
627.39	1278.65
627.73	1271.25
628.08	1264.40
628.43	1257.05
628.77	1249.63
629.12	1242.10
629.46	1235.00
629.81	1227.62
630.15	1220.38
630.50	1212.89
630.84	1204.71
631.19	1196.80
631.53	1189.24
631.88	1181.64
632.22	1173.97
632.57	1166.74
632.91	1159.16
633.26	1151.79
633.60	1144.48
633.95	1137.30
634.29	1130.25
634.64	1123.66
634.98	1116.25
635.32	1109.10
635.67	1102.53
636.01	1095.91
636.36	1089.17
636.70	1082.77
637.05	1076.21
637.39	1069.73
637.73	1063.23
638.08	1057.33
638.42	1051.31
638.77	1044.84
639.11	1038.26
639.45	1031.89
639.80	1025.20
640.14	1018.83
640.49	1012.34
640.83	1006.03
641.17	999.84
641.52	993.57
641.86	987.11
642.20	981.26
642.55	975.02
642.89	968.49
643.23	962.04
643.58	956.28
643.92	949.99
644.26	943.93
644.61	938.00
644.95	932.03
645.29	925.41
645.64	918.62
645.98	912.28
646.32	906.48
646.66	900.47
647.01	894.66
647.35	889.00
647.69	883.15
648.04	877.62
648.38	871.71
648.72	865.61
649.06	859.52
649.41	853.68
649.75	847.59
650.09	841.62
650.43	835.81
650.78	829.57
651.12	823.62
651.46	817.83
651.80	812.05
652.14	806.54
652.49	801.27
652.83	796.20
653.17	790.53
653.51	784.80
653.85	779.30
654.20	773.65
654.54	767.59
654.88	761.83
655.22	756.03
655.56	750.47
655.90	745.04
656.25	739.79
656.59	734.45
656.93	729.50
657.27	724.41
657.61	719.00
657.95	713.91
658.29	708.82
658.64	703.66
658.98	698.33
659.32	692.88
659.66	687.63
660.00	682.23
660.34	677.28
660.68	672.39
661.02	667.44
661.36	662.72
661.70	658.26
662.05	653.90
662.39	649.49
662.73	644.97
663.07	640.63
663.41	636.20
663.75	631.63
664.09	627.01
664.43	622.61
664.77	618.47
665.11	614.22
665.45	610.13
665.79	606.00
666.13	601.94
666.47	597.92
666.81	593.73
667.15	589.63
667.49	585.75
667.83	581.92
668.17	577.98
668.51	573.96
668.85	569.92
669.19	566.08
669.53	562.25
669.87	558.35
670.21	554.67
670.55	551.00
670.89	547.62
671.23	544.21
671.57	540.73
671.91	537.18
672.25	533.71
672.58	530.17
672.92	526.74
673.26	523.50
673.60	520.29
673.94	517.25
674.28	514.38
674.62	511.46
674.96	508.35
675.30	505.39
675.64	502.47
675.97	499.73
676.31	496.91
676.65	494.02
676.99	491.33
677.33	488.44
677.67	485.61
678.01	482.58
678.34	479.62
678.68	476.69
679.02	473.92
679.36	471.18
679.70	468.44
680.04	465.69
680.37	462.83
680.71	460.12
681.05	457.46
681.39	454.71
681.73	452.01
682.06	449.49
682.40	446.98
682.74	444.45
683.08	441.91
683.42	439.30
683.75	436.80
684.09	434.24
684.43	431.77
684.77	429.38
685.10	427.04
685.44	424.72
685.78	422.49
686.12	420.26
686.45	417.99
686.79	415.73
687.13	413.56
687.46	411.42
687.80	409.25
688.14	407.06
688.48	405.06
688.81	402.87
689.15	400.75
689.49	398.60
689.82	396.52
690.16	394.43
690.50	392.53
690.83	390.60
691.17	388.69
691.51	386.83
691.84	384.99
692.18	383.11
692.52	381.11
692.85	379.20
693.19	377.30
693.52	375.46
693.86	373.65
694.20	371.84
694.53	370.04
694.87	368.23
695.21	366.42
695.54	364.55
695.88	362.84
696.21	361.07
696.55	359.40
696.88	357.72
697.22	356.09
697.56	354.42
697.89	352.78
698.23	351.17
698.56	349.52
698.90	347.92
699.23	346.21
699.57	344.66
699.90	343.08
700.24	341.52
700.58	339.99
700.91	338.49
701.25	337.04
701.58	335.69
701.92	334.31
702.25	332.95
702.59	331.62
702.92	330.27
703.26	329.03
703.59	327.74
703.93	326.57
704.26	325.29
704.60	323.97
704.93	322.70
705.26	321.41
705.60	320.29
705.93	319.13
706.27	318.15
706.60	317.14
706.94	316.09
707.27	315.00
707.61	313.93
707.94	312.95
708.27	311.86
708.61	310.79
708.94	309.80
709.28	308.83
709.61	307.89
709.94	306.95
710.28	305.88
710.61	304.93
710.95	303.88
711.28	303.01
711.61	302.07
711.95	301.14
712.28	300.21
712.61	299.22
712.95	298.29
713.28	297.36
713.61	296.47
713.95	295.52
714.28	294.65
714.61	293.81
714.95	292.93
715.28	292.08
715.61	291.20
715.95	290.24
716.28	289.41
716.61	288.55
716.95	287.74
717.28	287.02
717.61	286.25
717.94	285.49
718.28	284.66
718.61	283.96
718.94	283.27
719.27	282.59
719.61	281.93
719.94	281.31
720.27	280.58
720.60	279.88
720.94	279.29
721.27	278.68
721.60	278.10
721.93	277.50
722.27	276.96
722.60	276.39
722.93	275.88
723.26	275.33
723.59	274.80
723.93	274.25
724.26	273.65
724.59	273.07
724.92	272.59
725.25	272.12
725.59	271.58
725.92	271.05
726.25	270.58
726.58	270.08
726.91	269.53
727.24	269.07
727.57	268.59
727.91	268.08
728.24	267.60
728.57	267.09
728.90	266.63
729.23	266.12
729.56	265.73
729.89	265.28
730.22	264.81
730.55	264.35
730.89	263.93
731.22	263.51
731.55	263.10
731.88	262.66
732.21	262.20
732.54	261.82
732.87	261.42
733.20	261.02
733.53	260.65
733.86	260.28
734.19	259.90
734.52	259.55
734.85	259.26
735.18	258.85
735.51	258.49
735.84	258.15
736.17	257.81
736.50	257.35
736.83	257.14
737.16	256.79
737.49	256.46
737.82	256.10
738.15	255.76
738.48	255.45
738.81	255.11
739.14	254.82
739.47	254.49
739.80	254.17
740.13	253.87
740.46	253.54
740.79	253.19
741.12	252.89
741.45	252.55
741.78	252.19
742.11	251.92
742.44	251.60
742.77	251.30
743.10	251.03
743.43	250.76
743.75	250.32
744.08	250.20
744.41	249.90
744.74	249.59
745.07	249.32
745.40	249.06
745.73	248.79
746.06	248.47
746.39	248.19
746.71	247.90
747.04	247.61
747.37	247.39
747.70	247.20
748.03	246.96
748.36	246.76
748.68	246.55
749.01	246.32
749.34	246.07
749.67	245.85
750.00	245.60
750.33	245.49
750.65	245.31
750.98	244.94
751.31	244.74
751.64	244.57
751.97	244.43
752.29	244.21
752.62	244.00
752.95	243.86
753.28	243.66
753.60	243.45
753.93	243.31
754.26	243.08
754.59	242.84
754.91	242.62
755.24	242.41
755.57	242.21
755.90	242.01
756.22	241.85
756.55	241.67
756.88	241.47
757.20	241.22
757.53	241.01
757.86	240.88
758.19	240.74
758.51	240.56
758.84	240.36
759.17	240.17
759.49	239.98
759.82	239.82
760.15	239.65
760.47	239.52
760.80	239.31
761.13	239.17
761.45	239.01
761.78	238.85
762.11	238.72
762.43	238.56
762.76	238.41
763.08	238.28
763.41	238.16
763.74	238.01
764.06	237.86
764.39	237.75
764.71	237.56
765.04	237.39
765.37	237.23
765.69	237.07
766.02	236.94
766.34	236.83
766.67	236.67
767.00	236.56
767.32	236.48
767.65	236.43
767.97	236.30
768.30	236.16
768.62	236.06
768.95	235.91
769.27	235.77
769.60	235.67
769.92	235.52
770.25	235.34
770.57	235.21
770.90	235.11
771.22	234.98
771.55	234.89
771.87	234.79
772.20	234.72
772.52	234.70
772.85	234.74
773.17	234.62
773.50	234.54
773.82	234.47
774.15	234.34
774.47	234.16
774.80	234.02
775.12	233.94
775.45	233.86
775.77	233.81
776.09	233.77
776.42	233.69
776.74	233.67
777.07	233.63
777.39	233.56
777.72	233.48
778.04	233.45
778.36	233.32
778.69	233.29
779.01	233.21
779.33	233.08
779.66	232.91
779.98	232.84
780.31	232.74
780.63	232.73
780.95	232.68
781.28	232.66
781.60	232.60
781.92	232.55
782.25	232.51
782.57	232.42
782.89	232.38
783.22	232.33
783.54	232.23
783.86	232.17
784.19	232.16
784.51	232.16
784.83	232.07
785.16	232.05
785.48	231.97
785.80	231.94
786.12	231.90
786.45	231.82
786.77	231.81
787.09	231.82
787.42	231.74
787.74	231.70
788.06	231.67
788.38	231.67
788.71	231.63
789.03	231.61
789.35	231.58
789.67	231.53
789.99	231.49
790.32	231.48
790.64	231.48
790.96	231.51
791.28	231.42
791.61	231.38
791.93	231.37
792.25	231.33
792.57	231.35
792.89	231.30
793.21	231.29
793.54	231.23
793.86	231.19
794.18	231.12
794.50	231.08
794.82	231.05
795.14	230.98
795.47	230.97
795.79	230.91
796.11	230.87
796.43	230.85
796.75	230.81
797.07	230.74
797.39	230.70
797.71	230.60
798.04	230.57
798.36	230.55
798.68	230.53
799.00	230.49
799.32	230.42
799.64	230.41
799.96	230.37
800.28	230.36
800.60	230.28
800.92	230.26
801.24	230.21
801.56	230.22
801.89	230.23
802.21	230.18
802.53	230.15
802.85	230.14
803.17	230.09
803.49	230.05
803.81	230.03
804.13	230.00
804.45	229.96
804.77	229.94
805.09	229.87
805.41	229.84
805.73	229.83
806.05	229.74
806.37	229.70
806.69	229.61
807.01	229.60
807.33	229.58
807.65	229.50
807.97	229.51
808.28	229.42
808.60	229.37
808.92	229.33
809.24	229.36
809.56	229.31
809.88	229.27
810.20	229.26
810.52	229.25
810.84	229.22
811.16	229.18
811.48	229.11
811.80	229.16
812.12	229.12
812.43	229.10
812.75	229.09
813.07	229.06
813.39	229.06
813.71	229.02
814.03	229.00
814.35	228.97
814.67	228.90
814.98	228.88
815.30	228.87
815.62	228.84
815.94	228.73
816.26	228.73
816.58	228.69
816.89	228.66
817.21	228.61
817.53	228.58
817.85	228.55
818.17	228.57
818.48	228.50
818.80	228.54
819.12	228.50
819.44	228.46
819.76	228.43
820.07	228.39
820.39	228.36
820.71	228.35
821.03	228.38
821.34	228.38
821.66	228.39
821.98	228.38
822.30	228.37
822.61	228.41
822.93	228.38
823.25	228.40
823.57	228.38
823.88	228.38
824.20	228.39
824.52	228.40
824.83	228.35
825.15	228.32
825.47	228.27
825.79	228.27
826.10	228.26
826.42	228.27
826.74	228.28
827.05	228.26
827.37	228.27
827.69	228.27
828.00	228.27
828.32	228.27
828.64	228.23
828.95	228.25
829.27	228.25
829.58	228.23
829.90	228.23
830.22	228.21
830.53	228.18
830.85	228.16
831.17	228.13
831.48	228.13
831.80	228.12
832.11	228.10
832.43	228.11
832.75	228.11
833.06	228.14
833.38	228.10
833.69	228.11
834.01	228.10
834.32	228.09
834.64	228.06
834.96	228.05
835.27	228.05
835.59	228.04
835.90	228.01
836.22	227.99
836.53	227.98
836.85	227.99
837.16	228.09
837.48	228.06
837.79	228.07
838.11	228.11
838.42	228.12
838.74	228.14
839.05	228.09
839.37	228.08
839.68	228.01
840.00	228.04
840.31	228.02
840.63	228.01
840.94	227.96
841.26	227.96
841.57	227.95
841.88	227.93
842.20	227.89
842.51	227.84
842.83	227.84
843.14	227.88
843.46	227.88
843.77	227.81
844.08	227.81
844.40	227.79
844.71	227.75
845.03	227.75
845.34	227.71
845.65	227.71
845.97	227.70
846.28	227.67
846.60	227.67
846.91	227.64
847.22	227.65
847.54	227.72
847.85	227.66
848.16	227.63
848.48	227.62
848.79	227.66
849.10	227.69
849.42	227.66
849.73	227.58
850.04	227.52
850.36	227.47
850.67	227.47
850.98	227.46
851.30	227.46
851.61	227.47
851.92	227.45
852.23	227.48
852.55	227.51
852.86	227.55
853.17	227.56
853.49	227.60
853.80	227.56
854.11	227.56
854.42	227.60
854.74	227.56
855.05	227.58
855.36	227.51
855.67	227.50
855.99	227.52
856.30	227.63
856.61	227.66
856.92	227.67
857.23	227.69
857.55	227.67
857.86	227.67
858.17	227.64
858.48	227.63
858.79	227.58
859.11	227.57
859.42	227.54
859.73	227.53
860.04	227.50
860.35	227.50
860.66	227.46
860.98	227.47
861.29	227.48
861.60	227.46
861.91	227.52
862.22	227.50
862.53	227.46
862.84	227.34
863.16	227.37
863.47	227.34
863.78	227.31
864.09	227.32
864.40	227.33
864.71	227.36
865.02	227.36
865.33	227.38
865.64	227.34
865.95	227.34
866.27	227.38
866.58	227.36
866.89	227.36
867.20	227.34
867.51	227.28
867.82	227.30
868.13	227.33
868.44	227.29
868.75	227.31
869.06	227.31
869.37	227.30
869.68	227.27
869.99	227.28
870.30	227.28
870.61	227.29
870.92	227.26
871.23	227.25
871.54	227.27
871.85	227.29
872.16	227.29
872.47	227.25
872.78	227.21
873.09	227.25
873.40	227.21
873.71	227.20
874.02	227.23
874.33	227.21
874.64	227.23
874.95	227.26
875.26	227.21
875.56	227.23
875.87	227.27
876.18	227.24
876.49	227.35
876.80	227.32
877.11	227.31
877.42	227.33
877.73	227.33
878.04	227.34
878.35	227.33
878.66	227.35
878.96	227.40
879.27	227.40
879.58	227.38
879.89	227.40
880.20	227.47
880.51	227.45
880.82	227.48
881.12	227.47
881.43	227.42
881.74	227.44
882.05	227.46
882.36	227.46
882.67	227.48
882.97	227.39
883.28	227.40
883.59	227.38
883.90	227.39
884.21	227.41
884.51	227.40
884.82	227.36
885.13	227.35
885.44	227.33
885.74	227.32
886.05	227.33
886.36	227.34
886.67	227.28
886.98	227.33
887.28	227.31
887.59	227.30
887.90	227.32
888.20	227.29
888.51	227.28
888.82	227.29
889.13	227.32
889.43	227.40
889.74	227.40
890.05	227.41
890.35	227.37
890.66	227.34
890.97	227.34
891.28	227.34
891.58	227.32
891.89	227.33
892.20	227.30
892.50	227.26
892.81	227.25
893.12	227.25
893.42	227.20
893.73	227.20
894.04	227.19
894.34	227.20
894.65	227.21
894.95	227.19
895.26	227.17
895.57	227.17
895.87	227.07
896.18	227.09
896.48	227.07
896.79	227.08
897.10	227.11
897.40	227.09
897.71	227.10
898.01	227.11
898.32	227.14
898.63	227.15
898.93	227.14
899.24	227.14
899.54	227.15
899.85	227.16
900.15	227.14
900.46	227.12
900.76	227.13
901.07	227.12
901.38	227.10
901.68	227.10
901.99	227.09
902.29	227.06
902.60	227.03
902.90	227.05
903.21	227.06
903.51	227.01
903.82	227.03
904.12	227.03
904.43	227.04
904.73	227.00
905.03	226.97
905.34	227.11
905.64	227.11
905.95	227.08
906.25	227.08
906.56	227.12
906.86	227.12
907.17	227.12
907.47	227.16
907.77	227.17
908.08	227.17
908.38	227.13
908.69	227.16
908.99	227.23
909.30	227.24
909.60	227.25
909.90	227.27
910.21	227.26
910.51	227.26
910.81	227.27
911.12	227.29
911.42	227.32
911.73	227.21
912.03	227.20
912.33	227.26
912.64	227.25
912.94	227.20
913.24	227.22
913.55	227.20
913.85	227.17
914.15	227.18
914.46	227.18
914.76	227.14
915.06	227.16
915.37	227.12
915.67	227.09
915.97	227.08
916.27	227.07
916.58	227.08
916.88	227.08
917.18	227.06
917.49	227.10
917.79	227.12
918.09	227.11
918.39	227.12
918.70	227.12
919.00	227.12
919.30	227.19
919.60	227.21
919.91	227.21
920.21	227.23
920.51	227.23
920.81	227.23
921.12	227.29
921.42	227.27
921.72	227.26
922.02	227.24
922.32	227.23
922.63	227.23
922.93	227.26
923.23	227.25
923.53	227.22
923.83	227.18
924.13	227.16
924.44	227.19
924.74	227.22
925.04	227.21
925.34	227.25
925.64	227.16
925.94	227.12
926.24	227.12
926.55	227.09
926.85	227.08
927.15	227.10
927.45	227.09
927.75	227.05
928.05	227.04
928.35	227.04
928.65	227.06
928.95	227.05
929.26	227.00
929.56	227.00
929.86	227.02
930.16	227.01
930.46	226.99
930.76	226.96
931.06	226.87
931.36	226.84
931.66	226.80
931.96	226.84
932.26	226.84
932.56	226.82
932.86	226.81
933.16	226.79
933.46	226.74
933.76	226.70
934.06	226.74
934.36	226.80
934.66	226.79
934.96	226.76
935.26	226.76
935.56	226.77
935.86	226.75
936.16	226.76
936.46	226.74
936.76	226.75
937.06	226.75
937.36	226.79
937.66	226.81
937.96	226.79
938.26	226.79
938.56	226.78
938.86	226.77
939.16	226.83
939.46	226.85
939.76	226.88
940.06	226.89
940.35	226.89
940.65	226.84
940.95	226.91
941.25	226.89
941.55	226.87
941.85	226.90
942.15	226.91
942.45	226.93
942.75	226.94
943.04	226.95
943.34	226.96
943.64	226.95
943.94	226.90
944.24	226.91
944.54	226.93
944.84	226.93
945.13	226.95
945.43	226.90
945.73	226.92
946.03	226.92
946.33	226.92
946.62	226.90
946.92	226.88
947.22	226.87
947.52	226.89
947.82	226.92
948.11	226.90
948.41	226.88
948.71	226.84
949.01	226.84
949.31	226.85
949.60	226.84
949.90	226.89
950.20	226.90
950.50	226.89
950.79	226.87
951.09	226.92
951.39	226.89
951.69	226.87
951.98	226.90
952.28	226.91
952.58	226.91
952.87	226.94
953.17	226.98
953.47	226.93
953.76	226.94
954.06	226.91
954.36	226.90
954.66	226.90
954.95	226.92
955.25	226.97
955.55	226.98
955.84	226.96
956.14	226.93
956.44	226.91
956.73	226.91
957.03	226.88
957.32	226.85
957.62	226.86
957.92	226.91
958.21	226.88
958.51	226.97
958.81	227.00
959.10	226.98
959.40	226.98
959.69	227.05
959.99	227.06
960.29	227.07
960.58	227.04
960.88	227.08
961.17	227.07
961.47	227.05
961.76	227.04
962.06	227.07
962.36	227.06
962.65	227.07
962.95	227.08
963.24	227.08
963.54	227.08
963.83	227.08
964.13	227.04
964.42	227.04
964.72	226.98
965.01	226.97
965.31	226.96
965.60	226.95
965.90	226.99
966.19	226.95
966.49	226.96
966.78	227.00
967.08	226.93
967.37	226.95
967.67	226.90
967.96	226.89
968.26	226.87
968.55	226.87
968.85	226.87
969.14	226.86
969.43	226.87
969.73	226.87
970.02	226.86
970.32	226.87
970.61	226.86
970.91	226.81
971.20	226.80
971.49	226.78
971.79	226.77
972.08	226.67
972.38	226.70
972.67	226.70
972.96	226.68
973.26	226.72
973.55	226.76
973.85	226.77
974.14	226.76
974.43	226.79
974.73	226.80
975.02	226.78
975.31	226.81
975.61	226.82
975.90	226.78
976.19	226.78
976.49	226.77
976.78	226.79
977.07	226.80
977.37	226.78
977.66	226.81
977.95	226.80
978.24	226.82
978.54	226.81
978.83	226.79
979.12	226.77
979.42	226.76
979.71	226.74
980.00	226.74
980.29	226.76
980.59	226.72
980.88	226.74
981.17	226.73
981.46	226.71
981.76	226.71
982.05	226.78
982.34	226.80
982.63	226.83
982.93	226.79
983.22	226.83
983.51	226.84
983.80	226.86
984.09	226.88
984.39	226.89
984.68	226.89
984.97	226.90
985.26	226.92
985.55	226.93
985.85	226.90
986.14	226.92
986.43	226.95
986.72	226.94
987.01	226.91
987.30	226.94
987.59	226.93
987.89	226.94
988.18	226.91
988.47	226.91
988.76	226.90
989.05	226.91
989.34	226.88
989.63	226.94
989.92	226.90
990.22	226.89
990.51	226.89
990.80	226.90
991.09	226.91
991.38	226.95
991.67	226.94
991.96	226.92
992.25	226.92
992.54	226.88
992.83	226.92
993.12	226.91
993.41	226.90
993.70	226.96
993.99	226.98
994.28	226.99
994.58	227.04
994.87	227.01
995.16	227.01
995.45	227.02
995.74	226.97
996.03	227.01
996.32	226.99
996.61	226.99
996.90	226.96
997.19	226.95
997.48	226.92
997.77	226.89
998.06	226.90
998.34	226.87
998.63	226.90
998.92	226.90
999.21	226.91
999.50	226.92
999.79	226.89
1000.08	226.89
1000.37	226.88
1000.66	226.81
1000.95	226.84
1001.24	226.86
1001.53	226.87
1001.82	226.88
1002.11	226.84
1002.40	226.86
1002.68	226.90
1002.97	226.98
1003.26	226.97
1003.55	226.97
1003.84	226.99
1004.13	227.04
1004.42	227.04
1004.71	227.00
1004.99	226.97
1005.28	227.00
1005.57	226.98
1005.86	226.96
1006.15	226.93
1006.44	226.92
1006.72	226.94
1007.01	226.91
1007.30	226.89
1007.59	226.87
1007.88	226.86
1008.17	226.83
1008.45	226.80
1008.74	226.75
1009.03	226.73
1009.32	226.73
1009.60	226.72
1009.89	226.69
1010.18	226.63
1010.47	226.64
1010.76	226.64
1011.04	226.61
1011.33	226.59
1011.62	226.61
1011.91	226.62
1012.19	226.66
1012.48	226.66
1012.77	226.65
1013.05	226.69
1013.34	226.69
1013.63	226.67
1013.92	226.69
1014.20	226.72
1014.49	226.76
1014.78	226.77
1015.06	226.70
1015.35	226.73
1015.64	226.73
1015.92	226.76
1016.21	226.79
1016.50	226.80
1016.78	226.83
1017.07	226.83
1017.36	226.80
1017.64	226.78
1017.93	226.78
1018.22	226.73
1018.50	226.72
1018.79	226.76
1019.08	226.73
1019.36	226.72
1019.65	226.75
1019.93	226.78
1020.22	226.77
1020.51	226.80
1020.79	226.79
1021.08	226.46
1021.36	226.41
1021.65	227.30
1021.94	226.90
1022.22	226.39
1022.51	227.00
1022.79	227.65
1023.08	226.68
1023.36	227.93
1023.65	226.75
>>>>>End Processed Spectral Data<<<<<
