SpectraSuite Data File
++++++++++++++++++++++++++++++++++++
Date: Fri Feb 01 18:05:54 EST 2013
User: group
Dark Spectrum Present: No
Reference Spectrum Present: No
Number of Sampled Component Spectra: 1
Spectrometers: USB2E7196
Integration Time (usec): 35000 (USB2E7196)
Spectra Averaged: 100 (USB2E7196)
Boxcar Smoothing: 10 (USB2E7196)
Correct for Electrical Dark: No (USB2E7196)
Strobe/Lamp Enabled: No (USB2E7196)
Correct for Detector Non-linearity: No (USB2E7196)
Correct for Stray Light: No (USB2E7196)
Number of Pixels in Processed Spectrum: 2048
>>>>>Begin Processed Spectral Data<<<<<
339.09	0.00
339.48	213.20
339.86	214.33
340.24	215.98
340.63	217.02
341.01	220.77
341.39	219.78
341.78	221.49
342.16	222.92
342.54	223.12
342.93	211.56
343.31	222.25
343.69	222.81
344.07	223.29
344.46	223.71
344.84	224.14
345.22	224.34
345.60	224.61
345.99	224.78
346.37	224.92
346.75	225.03
347.13	225.11
347.52	225.15
347.90	225.20
348.28	225.22
348.66	225.30
349.05	225.32
349.43	225.36
349.81	225.37
350.19	225.42
350.57	225.50
350.96	225.52
351.34	225.61
351.72	225.67
352.10	225.74
352.48	225.79
352.87	225.81
353.25	225.89
353.63	225.96
354.01	226.01
354.39	226.04
354.77	226.11
355.15	226.21
355.54	226.25
355.92	226.30
356.30	226.36
356.68	226.46
357.06	226.51
357.44	226.54
357.82	226.60
358.20	226.65
358.58	226.72
358.97	226.81
359.35	226.88
359.73	226.99
360.11	227.02
360.49	227.09
360.87	227.11
361.25	227.16
361.63	227.24
362.01	227.30
362.39	227.33
362.77	227.38
363.15	227.39
363.53	227.43
363.91	227.45
364.29	227.49
364.67	227.42
365.05	227.45
365.43	227.51
365.81	227.56
366.19	227.64
366.57	227.66
366.95	227.65
367.33	227.60
367.71	227.56
368.09	227.60
368.47	227.59
368.85	227.59
369.23	227.60
369.61	227.53
369.99	227.53
370.37	227.55
370.75	227.57
371.13	227.54
371.51	227.51
371.89	227.51
372.27	227.48
372.65	227.42
373.03	227.37
373.41	227.27
373.78	227.20
374.16	227.10
374.54	227.03
374.92	226.99
375.30	226.98
375.68	226.91
376.06	226.86
376.44	226.77
376.82	226.72
377.19	226.66
377.57	226.58
377.95	226.50
378.33	226.43
378.71	226.33
379.09	226.30
379.47	226.27
379.84	226.18
380.22	226.11
380.60	226.06
380.98	226.03
381.36	225.96
381.73	225.89
382.11	225.86
382.49	225.78
382.87	225.68
383.25	225.61
383.62	225.69
384.00	225.62
384.38	225.62
384.76	225.58
385.13	225.54
385.51	225.49
385.89	225.46
386.27	225.40
386.64	225.31
387.02	225.24
387.40	225.18
387.78	225.15
388.15	225.10
388.53	225.05
388.91	224.99
389.29	225.00
389.66	224.97
390.04	224.93
390.42	224.91
390.79	224.91
391.17	224.86
391.55	224.72
391.92	224.69
392.30	224.67
392.68	224.65
393.05	224.65
393.43	224.66
393.81	224.63
394.18	224.64
394.56	224.68
394.94	224.72
395.31	224.72
395.69	224.77
396.06	224.82
396.44	224.85
396.82	224.87
397.19	224.97
397.57	225.01
397.95	225.05
398.32	225.09
398.70	225.13
399.07	225.22
399.45	225.29
399.82	225.37
400.20	225.41
400.58	225.47
400.95	225.51
401.33	225.61
401.70	225.74
402.08	225.84
402.45	225.92
402.83	226.05
403.20	226.17
403.58	226.28
403.95	226.45
404.33	226.59
404.71	226.74
405.08	226.91
405.46	227.05
405.83	227.24
406.21	227.41
406.58	227.64
406.96	227.82
407.33	228.05
407.70	228.28
408.08	228.62
408.45	228.89
408.83	229.18
409.20	229.45
409.58	229.71
409.95	230.04
410.33	230.38
410.70	230.68
411.08	231.05
411.45	231.43
411.82	231.82
412.20	232.29
412.57	232.80
412.95	233.22
413.32	233.78
413.69	234.28
414.07	234.88
414.44	235.44
414.82	236.10
415.19	236.80
415.56	237.54
415.94	238.28
416.31	239.11
416.68	239.97
417.06	240.92
417.43	241.83
417.81	242.85
418.18	243.91
418.55	245.05
418.93	246.21
419.30	247.45
419.67	248.73
420.04	250.03
420.42	251.35
420.79	252.91
421.16	254.45
421.54	256.08
421.91	257.70
422.28	259.38
422.66	261.16
423.03	262.92
423.40	264.73
423.77	266.63
424.15	268.60
424.52	270.60
424.89	272.82
425.26	274.94
425.64	276.90
426.01	279.06
426.38	281.27
426.75	283.54
427.13	285.86
427.50	288.27
427.87	290.82
428.24	293.40
428.61	295.81
428.99	298.45
429.36	301.35
429.73	304.18
430.10	306.99
430.47	309.83
430.85	312.75
431.22	315.75
431.59	318.99
431.96	322.03
432.33	325.45
432.70	328.68
433.08	332.52
433.45	336.14
433.82	339.67
434.19	343.64
434.56	347.50
434.93	351.13
435.30	354.73
435.68	358.65
436.05	362.52
436.42	366.31
436.79	369.77
437.16	373.44
437.53	377.33
437.90	381.18
438.27	384.88
438.64	388.74
439.01	392.26
439.38	395.32
439.75	398.28
440.13	401.70
440.50	404.84
440.87	407.34
441.24	409.96
441.61	412.94
441.98	415.03
442.35	417.51
442.72	420.01
443.09	422.44
443.46	423.83
443.83	424.64
444.20	425.40
444.57	426.58
444.94	426.89
445.31	427.32
445.68	427.76
446.05	427.87
446.42	427.33
446.79	426.82
447.16	426.22
447.53	425.80
447.90	424.18
448.27	422.60
448.64	420.45
449.01	418.95
449.37	416.27
449.74	413.63
450.11	410.53
450.48	407.21
450.85	403.79
451.22	400.86
451.59	398.09
451.96	395.39
452.33	391.82
452.70	388.69
453.07	384.83
453.43	380.91
453.80	377.14
454.17	373.54
454.54	370.05
454.91	366.34
455.28	362.63
455.65	359.25
456.02	355.88
456.38	352.98
456.75	349.32
457.12	346.25
457.49	343.21
457.86	340.28
458.23	337.72
458.59	334.92
458.96	332.08
459.33	329.51
459.70	326.96
460.07	324.88
460.43	322.49
460.80	320.30
461.17	318.31
461.54	316.29
461.91	314.28
462.27	312.29
462.64	310.58
463.01	308.77
463.38	306.99
463.74	305.17
464.11	303.55
464.48	302.12
464.85	300.56
465.21	299.36
465.58	298.05
465.95	296.54
466.32	295.28
466.68	294.02
467.05	292.81
467.42	291.58
467.78	290.30
468.15	289.11
468.52	288.15
468.88	286.98
469.25	285.88
469.62	285.02
469.98	284.08
470.35	283.13
470.72	282.30
471.08	281.38
471.45	280.58
471.82	279.83
472.18	279.00
472.55	278.41
472.92	277.70
473.28	277.10
473.65	276.47
474.02	275.82
474.38	275.32
474.75	274.85
475.11	274.34
475.48	273.96
475.85	273.64
476.21	273.26
476.58	272.95
476.94	272.70
477.31	272.41
477.67	272.18
478.04	272.02
478.41	271.90
478.77	271.86
479.14	271.73
479.50	271.66
479.87	271.67
480.23	271.68
480.60	271.68
480.96	271.66
481.33	271.81
481.69	272.00
482.06	272.12
482.42	272.25
482.79	272.41
483.15	272.69
483.52	273.02
483.88	273.33
484.25	273.64
484.61	274.05
484.98	274.50
485.34	275.07
485.71	275.62
486.07	276.16
486.44	276.73
486.80	277.44
487.17	278.20
487.53	279.02
487.90	279.88
488.26	280.81
488.62	281.81
488.99	282.80
489.35	283.88
489.72	285.06
490.08	286.33
490.44	287.62
490.81	288.99
491.17	290.39
491.54	291.95
491.90	293.61
492.26	295.32
492.63	297.15
492.99	299.03
493.36	301.05
493.72	303.22
494.08	305.43
494.45	307.81
494.81	310.29
495.17	312.85
495.54	315.54
495.90	318.44
496.26	321.43
496.63	324.56
496.99	327.87
497.35	331.33
497.72	334.90
498.08	338.67
498.44	342.55
498.80	346.69
499.17	351.03
499.53	355.47
499.89	360.14
500.26	364.89
500.62	369.82
500.98	375.09
501.34	380.47
501.71	386.14
502.07	391.87
502.43	397.85
502.79	404.12
503.16	410.58
503.52	417.21
503.88	424.08
504.24	431.18
504.60	438.48
504.97	446.04
505.33	453.87
505.69	462.11
506.05	470.42
506.41	478.87
506.78	487.55
507.14	496.56
507.50	505.87
507.86	515.55
508.22	525.41
508.59	535.21
508.95	545.46
509.31	555.95
509.67	566.80
510.03	577.81
510.39	589.10
510.75	600.65
511.12	612.42
511.48	624.53
511.84	636.80
512.20	649.16
512.56	661.95
512.92	675.04
513.28	688.31
513.64	701.78
514.00	715.45
514.37	729.44
514.73	743.55
515.09	757.65
515.45	771.95
515.81	786.60
516.17	801.78
516.53	817.19
516.89	832.53
517.25	847.84
517.61	863.56
517.97	879.29
518.33	895.05
518.69	911.08
519.05	927.38
519.41	943.86
519.77	960.81
520.13	977.79
520.49	994.62
520.85	1011.41
521.21	1028.48
521.57	1046.23
521.93	1063.38
522.29	1081.32
522.65	1099.21
523.01	1117.01
523.37	1134.67
523.73	1152.43
524.09	1170.03
524.45	1187.96
524.81	1206.36
525.17	1224.81
525.53	1243.43
525.89	1262.07
526.25	1280.74
526.61	1298.80
526.97	1317.38
527.33	1335.81
527.68	1354.12
528.04	1372.50
528.40	1390.91
528.76	1409.99
529.12	1428.55
529.48	1447.55
529.84	1465.41
530.20	1483.96
530.56	1502.96
530.91	1522.37
531.27	1541.27
531.63	1559.75
531.99	1578.47
532.35	1596.50
532.71	1614.49
533.07	1632.74
533.42	1650.77
533.78	1668.92
534.14	1687.52
534.50	1704.96
534.86	1722.83
535.21	1740.29
535.57	1758.37
535.93	1776.12
536.29	1793.13
536.65	1810.33
537.00	1827.17
537.36	1844.76
537.72	1861.32
538.08	1878.18
538.44	1894.36
538.79	1910.46
539.15	1926.36
539.51	1942.19
539.87	1958.81
540.22	1974.69
540.58	1990.85
540.94	2006.47
541.29	2021.61
541.65	2036.52
542.01	2052.12
542.37	2066.80
542.72	2081.50
543.08	2095.73
543.44	2110.56
543.79	2124.10
544.15	2137.43
544.51	2151.55
544.87	2164.95
545.22	2178.26
545.58	2190.66
545.94	2202.53
546.29	2214.56
546.65	2226.80
547.01	2238.42
547.36	2249.27
547.72	2260.03
548.07	2269.96
548.43	2280.14
548.79	2290.26
549.14	2299.92
549.50	2309.10
549.86	2318.81
550.21	2328.23
550.57	2337.25
550.92	2345.66
551.28	2354.65
551.64	2363.78
551.99	2372.08
552.35	2380.05
552.70	2388.19
553.06	2396.10
553.41	2404.58
553.77	2412.47
554.13	2420.32
554.48	2428.46
554.84	2436.06
555.19	2442.99
555.55	2450.17
555.90	2456.42
556.26	2463.22
556.61	2469.66
556.97	2476.05
557.32	2481.96
557.68	2487.78
558.03	2493.95
558.39	2499.34
558.74	2505.67
559.10	2511.31
559.45	2516.72
559.81	2522.60
560.16	2527.94
560.52	2532.78
560.87	2537.30
561.23	2541.50
561.58	2545.86
561.94	2549.83
562.29	2553.33
562.64	2557.68
563.00	2561.46
563.35	2566.53
563.71	2570.97
564.06	2575.64
564.42	2579.76
564.77	2583.67
565.12	2587.26
565.48	2590.30
565.83	2593.44
566.19	2596.01
566.54	2597.78
566.89	2600.02
567.25	2601.72
567.60	2604.07
567.96	2606.86
568.31	2608.87
568.66	2611.03
569.02	2612.53
569.37	2613.56
569.72	2615.55
570.08	2616.44
570.43	2617.31
570.78	2617.45
571.14	2616.39
571.49	2615.58
571.84	2616.01
572.20	2615.39
572.55	2614.83
572.90	2613.69
573.26	2612.76
573.61	2611.34
573.96	2610.15
574.31	2607.43
574.67	2604.75
575.02	2601.24
575.37	2597.85
575.72	2594.23
576.08	2590.91
576.43	2587.79
576.78	2584.20
577.13	2580.89
577.49	2577.77
577.84	2574.45
578.19	2570.50
578.54	2567.10
578.90	2562.78
579.25	2556.73
579.60	2551.56
579.95	2546.37
580.30	2541.13
580.66	2535.69
581.01	2530.47
581.36	2525.06
581.71	2520.72
582.06	2515.92
582.42	2511.33
582.77	2505.73
583.12	2500.91
583.47	2495.94
583.82	2490.64
584.17	2484.91
584.53	2479.01
584.88	2473.06
585.23	2466.71
585.58	2460.77
585.93	2454.66
586.28	2449.34
586.63	2443.79
586.98	2438.23
587.34	2432.86
587.69	2427.45
588.04	2421.71
588.39	2415.48
588.74	2408.36
589.09	2401.41
589.44	2393.95
589.79	2386.99
590.14	2380.79
590.49	2373.34
590.84	2366.22
591.19	2359.44
591.54	2352.39
591.89	2344.13
592.25	2336.44
592.60	2328.21
592.95	2319.61
593.30	2311.38
593.65	2302.82
594.00	2295.03
594.35	2286.79
594.70	2277.69
595.05	2269.69
595.40	2261.26
595.75	2252.64
596.10	2245.39
596.45	2237.73
596.80	2230.66
597.15	2223.28
597.50	2215.21
597.85	2207.69
598.19	2200.02
598.54	2191.84
598.89	2184.06
599.24	2177.27
599.59	2169.59
599.94	2162.44
600.29	2155.28
600.64	2147.47
600.99	2138.92
601.34	2130.96
601.69	2122.80
602.04	2114.97
602.39	2106.30
602.74	2098.42
603.08	2090.63
603.43	2083.04
603.78	2074.53
604.13	2066.10
604.48	2057.53
604.83	2049.56
605.18	2041.59
605.53	2032.32
605.87	2022.93
606.22	2014.49
606.57	2005.06
606.92	1996.29
607.27	1987.95
607.62	1979.71
607.96	1971.32
608.31	1963.55
608.66	1954.59
609.01	1945.87
609.36	1936.92
609.70	1927.52
610.05	1918.14
610.40	1909.24
610.75	1899.39
611.10	1890.34
611.44	1880.31
611.79	1870.85
612.14	1860.53
612.49	1849.70
612.83	1839.84
613.18	1830.29
613.53	1820.73
613.88	1810.85
614.22	1801.15
614.57	1790.89
614.92	1781.48
615.27	1772.61
615.61	1762.88
615.96	1753.36
616.31	1744.36
616.65	1735.64
617.00	1726.76
617.35	1717.52
617.70	1707.67
618.04	1697.66
618.39	1687.91
618.74	1678.94
619.08	1669.22
619.43	1660.19
619.78	1651.90
620.12	1643.36
620.47	1634.50
620.82	1624.75
621.16	1615.88
621.51	1606.90
621.85	1597.89
622.20	1587.76
622.55	1577.78
622.89	1568.38
623.24	1559.37
623.59	1550.43
623.93	1541.51
624.28	1532.92
624.62	1524.05
624.97	1515.40
625.32	1507.32
625.66	1499.03
626.01	1490.58
626.35	1481.84
626.70	1472.68
627.04	1463.63
627.39	1454.30
627.73	1445.48
628.08	1437.39
628.43	1428.82
628.77	1420.18
629.12	1411.35
629.46	1403.04
629.81	1394.34
630.15	1385.80
630.50	1377.12
630.84	1367.54
631.19	1358.18
631.53	1349.22
631.88	1340.30
632.22	1331.47
632.57	1322.83
632.91	1313.87
633.26	1305.14
633.60	1296.29
633.95	1287.85
634.29	1279.64
634.64	1271.89
634.98	1263.33
635.32	1254.83
635.67	1246.90
636.01	1239.06
636.36	1231.04
636.70	1223.18
637.05	1215.35
637.39	1207.70
637.73	1199.98
638.08	1192.93
638.42	1185.82
638.77	1178.24
639.11	1170.58
639.45	1162.93
639.80	1155.10
640.14	1147.63
640.49	1140.00
640.83	1132.72
641.17	1125.52
641.52	1118.03
641.86	1110.30
642.20	1103.38
642.55	1096.01
642.89	1088.49
643.23	1080.78
643.58	1074.02
643.92	1066.85
644.26	1059.71
644.61	1052.67
644.95	1045.65
645.29	1038.07
645.64	1030.28
645.98	1022.87
646.32	1016.07
646.66	1009.11
647.01	1002.41
647.35	995.72
647.69	988.83
648.04	982.27
648.38	975.48
648.72	968.57
649.06	961.64
649.41	954.83
649.75	947.92
650.09	941.08
650.43	934.33
650.78	927.18
651.12	920.28
651.46	913.69
651.80	907.01
652.14	900.70
652.49	894.43
652.83	888.41
653.17	881.84
653.51	875.16
653.85	868.85
654.20	862.27
654.54	855.32
654.88	848.67
655.22	841.84
655.56	835.23
655.90	828.78
656.25	822.67
656.59	816.41
656.93	810.57
657.27	804.60
657.61	798.24
657.95	792.35
658.29	786.37
658.64	780.24
658.98	774.12
659.32	767.81
659.66	761.80
660.00	755.60
660.34	749.84
660.68	744.15
661.02	738.28
661.36	732.76
661.70	727.51
662.05	722.48
662.39	717.48
662.73	712.29
663.07	707.22
663.41	702.04
663.75	696.82
664.09	691.38
664.43	686.20
664.77	681.50
665.11	676.55
665.45	671.80
665.79	667.10
666.13	662.30
666.47	657.51
666.81	652.70
667.15	647.95
667.49	643.46
667.83	638.96
668.17	634.45
668.51	629.78
668.85	625.08
669.19	620.61
669.53	616.15
669.87	611.71
670.21	607.41
670.55	603.23
670.89	599.28
671.23	595.33
671.57	591.29
671.91	587.17
672.25	583.05
672.58	578.95
672.92	574.98
673.26	571.25
673.60	567.58
673.94	563.96
674.28	560.58
674.62	557.11
674.96	553.52
675.30	550.08
675.64	546.73
675.97	543.51
676.31	540.21
676.65	536.88
676.99	533.74
677.33	530.41
677.67	527.11
678.01	523.52
678.34	520.16
678.68	516.81
679.02	513.50
679.36	510.33
679.70	507.22
680.04	504.04
680.37	500.74
680.71	497.58
681.05	494.54
681.39	491.41
681.73	488.36
682.06	485.50
682.40	482.57
682.74	479.59
683.08	476.61
683.42	473.52
683.75	470.59
684.09	467.54
684.43	464.68
684.77	461.82
685.10	459.16
685.44	456.43
685.78	453.82
686.12	451.25
686.45	448.56
686.79	445.86
687.13	443.32
687.46	440.80
687.80	438.19
688.14	435.60
688.48	433.22
688.81	430.56
689.15	428.00
689.49	425.46
689.82	423.01
690.16	420.60
690.50	418.36
690.83	416.05
691.17	413.72
691.51	411.47
691.84	409.34
692.18	407.03
692.52	404.71
692.85	402.36
693.19	400.18
693.52	398.02
693.86	395.90
694.20	393.77
694.53	391.68
694.87	389.54
695.21	387.43
695.54	385.22
695.88	383.23
696.21	381.23
696.55	379.29
696.88	377.31
697.22	375.27
697.56	373.34
697.89	371.46
698.23	369.65
698.56	367.77
698.90	365.86
699.23	363.99
699.57	362.18
699.90	360.40
700.24	358.54
700.58	356.72
700.91	354.94
701.25	353.25
701.58	351.66
701.92	350.10
702.25	348.48
702.59	346.92
702.92	345.41
703.26	343.89
703.59	342.42
703.93	341.04
704.26	339.66
704.60	338.18
704.93	336.64
705.26	335.18
705.60	333.80
705.93	332.46
706.27	331.21
706.60	329.97
706.94	328.65
707.27	327.34
707.61	326.13
707.94	324.93
708.27	323.67
708.61	322.41
708.94	321.20
709.28	320.07
709.61	318.95
709.94	317.80
710.28	316.56
710.61	315.38
710.95	314.15
711.28	313.07
711.61	311.93
711.95	310.91
712.28	309.83
712.61	308.70
712.95	307.61
713.28	306.56
713.61	305.52
713.95	304.58
714.28	303.65
714.61	302.66
714.95	301.68
715.28	300.69
715.61	299.63
715.95	298.65
716.28	297.69
716.61	296.64
716.95	295.69
717.28	294.85
717.61	293.99
717.94	293.11
718.28	292.20
718.61	291.37
718.94	290.55
719.27	289.74
719.61	288.99
719.94	288.22
720.27	287.43
720.60	286.66
720.94	285.94
721.27	285.22
721.60	284.58
721.93	283.86
722.27	283.23
722.60	282.62
722.93	281.96
723.26	281.30
723.59	280.69
723.93	280.08
724.26	279.47
724.59	278.79
724.92	278.21
725.25	277.67
725.59	277.09
725.92	276.52
726.25	275.93
726.58	275.39
726.91	274.83
727.24	274.29
727.57	273.77
727.91	273.19
728.24	272.63
728.57	272.06
728.90	271.56
729.23	271.00
729.56	270.51
729.89	269.96
730.22	269.40
730.55	268.90
730.89	268.37
731.22	267.86
731.55	267.35
731.88	266.87
732.21	266.34
732.54	265.85
732.87	265.33
733.20	264.89
733.53	264.42
733.86	263.97
734.19	263.47
734.52	263.04
734.85	262.61
735.18	262.13
735.51	261.68
735.84	261.26
736.17	260.85
736.50	260.38
736.83	260.08
737.16	259.70
737.49	259.30
737.82	258.87
738.15	258.49
738.48	258.11
738.81	257.72
739.14	257.34
739.47	256.96
739.80	256.61
740.13	256.24
740.46	255.87
740.79	255.50
741.12	255.13
741.45	254.73
741.78	254.35
742.11	254.02
742.44	253.65
742.77	253.29
743.10	252.93
743.43	252.57
743.75	252.15
744.08	251.97
744.41	251.66
744.74	251.32
745.07	250.97
745.40	250.72
745.73	250.44
746.06	250.11
746.39	249.78
746.71	249.46
747.04	249.14
747.37	248.81
747.70	248.51
748.03	248.23
748.36	247.97
748.68	247.67
749.01	247.38
749.34	247.14
749.67	246.89
750.00	246.64
750.33	246.49
750.65	246.25
750.98	245.84
751.31	245.56
751.64	245.34
751.97	245.17
752.29	244.88
752.62	244.56
752.95	244.33
753.28	244.05
753.60	243.78
753.93	243.59
754.26	243.36
754.59	243.13
754.91	242.91
755.24	242.69
755.57	242.43
755.90	242.21
756.22	241.95
756.55	241.70
756.88	241.45
757.20	241.16
757.53	240.95
757.86	240.77
758.19	240.58
758.51	240.39
758.84	240.12
759.17	239.92
759.49	239.72
759.82	239.58
760.15	239.46
760.47	239.31
760.80	239.11
761.13	238.98
761.45	238.79
761.78	238.61
762.11	238.44
762.43	238.32
762.76	238.17
763.08	238.03
763.41	237.92
763.74	237.80
764.06	237.66
764.39	237.47
764.71	237.35
765.04	237.21
765.37	237.02
765.69	236.90
766.02	236.75
766.34	236.61
766.67	236.42
767.00	236.30
767.32	236.22
767.65	236.12
767.97	235.98
768.30	235.86
768.62	235.75
768.95	235.60
769.27	235.46
769.60	235.32
769.92	235.18
770.25	234.99
770.57	234.84
770.90	234.71
771.22	234.58
771.55	234.41
771.87	234.32
772.20	234.20
772.52	234.15
772.85	234.16
773.17	234.04
773.50	233.93
773.82	233.82
774.15	233.67
774.47	233.52
774.80	233.40
775.12	233.28
775.45	233.15
775.77	233.06
776.09	232.96
776.42	232.88
776.74	232.82
777.07	232.76
777.39	232.68
777.72	232.57
778.04	232.50
778.36	232.46
778.69	232.36
779.01	232.30
779.33	232.14
779.66	231.97
779.98	231.89
780.31	231.81
780.63	231.73
780.95	231.68
781.28	231.61
781.60	231.51
781.92	231.45
782.25	231.41
782.57	231.33
782.89	231.28
783.22	231.19
783.54	231.09
783.86	231.02
784.19	230.94
784.51	230.91
784.83	230.81
785.16	230.69
785.48	230.63
785.80	230.59
786.12	230.54
786.45	230.44
786.77	230.42
787.09	230.36
787.42	230.30
787.74	230.21
788.06	230.16
788.38	230.09
788.71	230.03
789.03	229.97
789.35	229.96
789.67	229.91
789.99	229.87
790.32	229.83
790.64	229.81
790.96	229.84
791.28	229.78
791.61	229.76
791.93	229.74
792.25	229.69
792.57	229.66
792.89	229.62
793.21	229.56
793.54	229.48
793.86	229.44
794.18	229.42
794.50	229.39
794.82	229.33
795.14	229.33
795.47	229.30
795.79	229.25
796.11	229.18
796.43	229.14
796.75	229.12
797.07	229.09
797.39	229.02
797.71	228.92
798.04	228.90
798.36	228.89
798.68	228.84
799.00	228.79
799.32	228.74
799.64	228.69
799.96	228.68
800.28	228.70
800.60	228.66
800.92	228.59
801.24	228.53
801.56	228.50
801.89	228.46
802.21	228.43
802.53	228.40
802.85	228.39
803.17	228.38
803.49	228.32
803.81	228.27
804.13	228.24
804.45	228.20
804.77	228.16
805.09	228.13
805.41	228.12
805.73	228.08
806.05	228.03
806.37	227.97
806.69	227.94
807.01	227.88
807.33	227.86
807.65	227.82
807.97	227.85
808.28	227.83
808.60	227.79
808.92	227.75
809.24	227.80
809.56	227.77
809.88	227.71
810.20	227.68
810.52	227.66
810.84	227.62
811.16	227.58
811.48	227.52
811.80	227.50
812.12	227.51
812.43	227.51
812.75	227.53
813.07	227.52
813.39	227.52
813.71	227.48
814.03	227.45
814.35	227.43
814.67	227.39
814.98	227.35
815.30	227.34
815.62	227.31
815.94	227.22
816.26	227.23
816.58	227.21
816.89	227.21
817.21	227.16
817.53	227.13
817.85	227.13
818.17	227.12
818.48	227.07
818.80	227.04
819.12	226.98
819.44	226.92
819.76	226.91
820.07	226.88
820.39	226.87
820.71	226.88
821.03	226.85
821.34	226.81
821.66	226.79
821.98	226.78
822.30	226.75
822.61	226.75
822.93	226.68
823.25	226.66
823.57	226.61
823.88	226.63
824.20	226.62
824.52	226.58
824.83	226.57
825.15	226.55
825.47	226.53
825.79	226.54
826.10	226.51
826.42	226.48
826.74	226.45
827.05	226.42
827.37	226.38
827.69	226.37
828.00	226.36
828.32	226.34
828.64	226.31
828.95	226.35
829.27	226.33
829.58	226.31
829.90	226.29
830.22	226.28
830.53	226.24
830.85	226.26
831.17	226.24
831.48	226.20
831.80	226.18
832.11	226.16
832.43	226.12
832.75	226.15
833.06	226.20
833.38	226.16
833.69	226.14
834.01	226.15
834.32	226.11
834.64	226.10
834.96	226.10
835.27	226.12
835.59	226.07
835.90	226.06
836.22	226.03
836.53	226.01
836.85	226.01
837.16	226.10
837.48	226.09
837.79	226.11
838.11	226.15
838.42	226.16
838.74	226.14
839.05	226.15
839.37	226.12
839.68	226.04
840.00	226.05
840.31	226.05
840.63	226.04
840.94	226.05
841.26	226.03
841.57	226.02
841.88	226.04
842.20	226.05
842.51	226.03
842.83	226.07
843.14	226.15
843.46	226.16
843.77	226.10
844.08	226.05
844.40	226.05
844.71	226.02
845.03	226.00
845.34	225.98
845.65	225.96
845.97	225.98
846.28	225.99
846.60	226.00
846.91	225.99
847.22	225.96
847.54	225.99
847.85	226.00
848.16	226.01
848.48	225.97
848.79	225.98
849.10	225.94
849.42	225.92
849.73	225.83
850.04	225.78
850.36	225.72
850.67	225.74
850.98	225.72
851.30	225.71
851.61	225.70
851.92	225.72
852.23	225.76
852.55	225.73
852.86	225.74
853.17	225.73
853.49	225.76
853.80	225.77
854.11	225.77
854.42	225.76
854.74	225.75
855.05	225.71
855.36	225.65
855.67	225.69
855.99	225.68
856.30	225.77
856.61	225.79
856.92	225.81
857.23	225.80
857.55	225.78
857.86	225.78
858.17	225.79
858.48	225.76
858.79	225.73
859.11	225.74
859.42	225.69
859.73	225.65
860.04	225.62
860.35	225.59
860.66	225.52
860.98	225.50
861.29	225.50
861.60	225.52
861.91	225.55
862.22	225.53
862.53	225.52
862.84	225.42
863.16	225.44
863.47	225.40
863.78	225.38
864.09	225.38
864.40	225.36
864.71	225.36
865.02	225.35
865.33	225.34
865.64	225.30
865.95	225.33
866.27	225.42
866.58	225.43
866.89	225.45
867.20	225.42
867.51	225.43
867.82	225.41
868.13	225.43
868.44	225.42
868.75	225.42
869.06	225.43
869.37	225.42
869.68	225.36
869.99	225.39
870.30	225.40
870.61	225.44
870.92	225.44
871.23	225.42
871.54	225.43
871.85	225.45
872.16	225.45
872.47	225.43
872.78	225.36
873.09	225.34
873.40	225.29
873.71	225.35
874.02	225.34
874.33	225.35
874.64	225.33
874.95	225.33
875.26	225.32
875.56	225.29
875.87	225.32
876.18	225.34
876.49	225.44
876.80	225.41
877.11	225.39
877.42	225.39
877.73	225.40
878.04	225.38
878.35	225.35
878.66	225.34
878.96	225.34
879.27	225.34
879.58	225.34
879.89	225.35
880.20	225.36
880.51	225.36
880.82	225.36
881.12	225.35
881.43	225.35
881.74	225.32
882.05	225.36
882.36	225.37
882.67	225.34
882.97	225.25
883.28	225.24
883.59	225.23
883.90	225.22
884.21	225.24
884.51	225.24
884.82	225.28
885.13	225.30
885.44	225.28
885.74	225.28
886.05	225.32
886.36	225.34
886.67	225.35
886.98	225.39
887.28	225.38
887.59	225.37
887.90	225.35
888.20	225.38
888.51	225.37
888.82	225.36
889.13	225.39
889.43	225.42
889.74	225.42
890.05	225.40
890.35	225.42
890.66	225.41
890.97	225.39
891.28	225.36
891.58	225.32
891.89	225.35
892.20	225.32
892.50	225.29
892.81	225.29
893.12	225.25
893.42	225.19
893.73	225.17
894.04	225.20
894.34	225.20
894.65	225.17
894.95	225.12
895.26	225.11
895.57	225.17
895.87	225.11
896.18	225.15
896.48	225.19
896.79	225.21
897.10	225.23
897.40	225.24
897.71	225.27
898.01	225.28
898.32	225.29
898.63	225.27
898.93	225.28
899.24	225.27
899.54	225.24
899.85	225.25
900.15	225.23
900.46	225.23
900.76	225.24
901.07	225.24
901.38	225.27
901.68	225.26
901.99	225.16
902.29	225.14
902.60	225.10
902.90	225.07
903.21	225.01
903.51	225.00
903.82	225.01
904.12	224.97
904.43	224.98
904.73	224.99
905.03	225.01
905.34	225.09
905.64	225.07
905.95	225.10
906.25	225.06
906.56	225.07
906.86	225.02
907.17	225.02
907.47	225.04
907.77	225.02
908.08	225.01
908.38	225.04
908.69	225.06
908.99	225.10
909.30	225.10
909.60	225.11
909.90	225.07
910.21	225.04
910.51	225.06
910.81	225.05
911.12	225.00
911.42	225.02
911.73	224.92
912.03	224.95
912.33	224.95
912.64	224.99
912.94	224.97
913.24	224.96
913.55	224.95
913.85	224.93
914.15	224.93
914.46	224.92
914.76	224.90
915.06	224.89
915.37	224.84
915.67	224.82
915.97	224.83
916.27	224.81
916.58	224.83
916.88	224.80
917.18	224.80
917.49	224.88
917.79	224.89
918.09	224.90
918.39	224.90
918.70	224.89
919.00	224.92
919.30	224.96
919.60	225.00
919.91	224.98
920.21	225.00
920.51	225.04
920.81	225.07
921.12	225.11
921.42	225.12
921.72	225.17
922.02	225.20
922.32	225.22
922.63	225.25
922.93	225.30
923.23	225.32
923.53	225.30
923.83	225.27
924.13	225.27
924.44	225.27
924.74	225.30
925.04	225.37
925.34	225.38
925.64	225.36
925.94	225.37
926.24	225.45
926.55	225.45
926.85	225.46
927.15	225.47
927.45	225.47
927.75	225.47
928.05	225.46
928.35	225.43
928.65	225.42
928.95	225.43
929.26	225.41
929.56	225.41
929.86	225.44
930.16	225.42
930.46	225.43
930.76	225.44
931.06	225.38
931.36	225.32
931.66	225.32
931.96	225.35
932.26	225.34
932.56	225.28
932.86	225.30
933.16	225.28
933.46	225.24
933.76	225.17
934.06	225.19
934.36	225.20
934.66	225.21
934.96	225.20
935.26	225.19
935.56	225.21
935.86	225.20
936.16	225.15
936.46	225.10
936.76	225.04
937.06	225.04
937.36	225.05
937.66	225.03
937.96	225.02
938.26	224.97
938.56	224.96
938.86	225.00
939.16	225.00
939.46	224.98
939.76	225.00
940.06	225.06
940.35	225.04
940.65	225.00
940.95	224.99
941.25	224.93
941.55	224.92
941.85	224.87
942.15	224.90
942.45	224.91
942.75	224.93
943.04	224.93
943.34	224.92
943.64	224.89
943.94	224.91
944.24	224.87
944.54	224.86
944.84	224.82
945.13	224.78
945.43	224.75
945.73	224.75
946.03	224.72
946.33	224.69
946.62	224.64
946.92	224.61
947.22	224.61
947.52	224.63
947.82	224.62
948.11	224.60
948.41	224.56
948.71	224.54
949.01	224.55
949.31	224.57
949.60	224.58
949.90	224.62
950.20	224.55
950.50	224.56
950.79	224.54
951.09	224.57
951.39	224.57
951.69	224.54
951.98	224.55
952.28	224.56
952.58	224.54
952.87	224.53
953.17	224.55
953.47	224.52
953.76	224.53
954.06	224.49
954.36	224.47
954.66	224.47
954.95	224.50
955.25	224.52
955.55	224.53
955.84	224.50
956.14	224.46
956.44	224.50
956.73	224.50
957.03	224.53
957.32	224.53
957.62	224.51
957.92	224.53
958.21	224.54
958.51	224.64
958.81	224.72
959.10	224.75
959.40	224.79
959.69	224.83
959.99	224.84
960.29	224.87
960.58	224.88
960.88	224.93
961.17	224.94
961.47	224.94
961.76	224.94
962.06	224.97
962.36	225.01
962.65	225.01
962.95	225.04
963.24	225.02
963.54	225.04
963.83	225.09
964.13	225.10
964.42	225.06
964.72	225.01
965.01	224.96
965.31	225.00
965.60	225.00
965.90	225.06
966.19	225.04
966.49	225.04
966.78	225.09
967.08	225.10
967.37	225.10
967.67	225.10
967.96	225.12
968.26	225.12
968.55	225.09
968.85	225.09
969.14	225.09
969.43	225.10
969.73	225.09
970.02	225.08
970.32	225.07
970.61	225.09
970.91	225.06
971.20	225.04
971.49	225.02
971.79	225.01
972.08	224.94
972.38	224.96
972.67	224.96
972.96	224.94
973.26	224.90
973.55	224.94
973.85	224.92
974.14	224.88
974.43	224.89
974.73	224.91
975.02	224.90
975.31	224.88
975.61	224.88
975.90	224.86
976.19	224.88
976.49	224.90
976.78	224.89
977.07	224.91
977.37	224.93
977.66	224.94
977.95	224.93
978.24	224.93
978.54	224.96
978.83	224.95
979.12	224.94
979.42	224.94
979.71	224.89
980.00	224.90
980.29	224.93
980.59	224.90
980.88	224.92
981.17	224.90
981.46	224.92
981.76	224.89
982.05	224.90
982.34	224.88
982.63	224.86
982.93	224.88
983.22	224.87
983.51	224.85
983.80	224.85
984.09	224.85
984.39	224.84
984.68	224.81
984.97	224.83
985.26	224.81
985.55	224.80
985.85	224.76
986.14	224.74
986.43	224.74
986.72	224.72
987.01	224.65
987.30	224.66
987.59	224.64
987.89	224.64
988.18	224.60
988.47	224.58
988.76	224.57
989.05	224.57
989.34	224.55
989.63	224.56
989.92	224.55
990.22	224.50
990.51	224.51
990.80	224.49
991.09	224.49
991.38	224.52
991.67	224.54
991.96	224.55
992.25	224.61
992.54	224.58
992.83	224.60
993.12	224.57
993.41	224.60
993.70	224.66
993.99	224.70
994.28	224.70
994.58	224.74
994.87	224.74
995.16	224.71
995.45	224.71
995.74	224.70
996.03	224.70
996.32	224.70
996.61	224.72
996.90	224.76
997.19	224.77
997.48	224.73
997.77	224.73
998.06	224.78
998.34	224.75
998.63	224.76
998.92	224.77
999.21	224.80
999.50	224.78
999.79	224.74
1000.08	224.74
1000.37	224.75
1000.66	224.71
1000.95	224.74
1001.24	224.75
1001.53	224.77
1001.82	224.78
1002.11	224.78
1002.40	224.85
1002.68	224.87
1002.97	224.90
1003.26	224.89
1003.55	224.88
1003.84	224.90
1004.13	224.91
1004.42	224.90
1004.71	224.89
1004.99	224.90
1005.28	224.96
1005.57	224.97
1005.86	224.98
1006.15	225.00
1006.44	224.98
1006.72	225.00
1007.01	225.00
1007.30	225.00
1007.59	224.98
1007.88	224.97
1008.17	224.96
1008.45	224.93
1008.74	224.85
1009.03	224.83
1009.32	224.85
1009.60	224.89
1009.89	224.85
1010.18	224.80
1010.47	224.78
1010.76	224.78
1011.04	224.78
1011.33	224.76
1011.62	224.76
1011.91	224.75
1012.19	224.74
1012.48	224.74
1012.77	224.76
1013.05	224.79
1013.34	224.84
1013.63	224.83
1013.92	224.86
1014.20	224.85
1014.49	224.88
1014.78	224.95
1015.06	224.90
1015.35	224.86
1015.64	224.84
1015.92	224.87
1016.21	224.89
1016.50	224.90
1016.78	224.92
1017.07	224.93
1017.36	224.88
1017.64	224.89
1017.93	224.88
1018.22	224.84
1018.50	224.87
1018.79	224.84
1019.08	224.80
1019.36	224.75
1019.65	224.72
1019.93	224.73
1020.22	224.76
1020.51	224.78
1020.79	224.75
1021.08	223.98
1021.36	224.89
1021.65	224.65
1021.94	225.04
1022.22	224.33
1022.51	224.25
1022.79	225.13
1023.08	225.10
1023.36	226.18
1023.65	224.55
>>>>>End Processed Spectral Data<<<<<
