SpectraSuite Data File
++++++++++++++++++++++++++++++++++++
Date: Fri Feb 01 17:57:37 EST 2013
User: group
Dark Spectrum Present: No
Reference Spectrum Present: No
Number of Sampled Component Spectra: 1
Spectrometers: USB2E7196
Integration Time (usec): 35000 (USB2E7196)
Spectra Averaged: 100 (USB2E7196)
Boxcar Smoothing: 10 (USB2E7196)
Correct for Electrical Dark: No (USB2E7196)
Strobe/Lamp Enabled: No (USB2E7196)
Correct for Detector Non-linearity: No (USB2E7196)
Correct for Stray Light: No (USB2E7196)
Number of Pixels in Processed Spectrum: 2048
>>>>>Begin Processed Spectral Data<<<<<
339.09	0.00
339.48	213.48
339.86	214.11
340.24	215.85
340.63	217.26
341.01	219.46
341.39	219.75
341.78	220.77
342.16	222.74
342.54	222.51
342.93	211.20
343.31	221.85
343.69	222.34
344.07	222.81
344.46	223.22
344.84	223.59
345.22	223.83
345.60	224.06
345.99	224.27
346.37	224.38
346.75	224.49
347.13	224.56
347.52	224.64
347.90	224.70
348.28	224.73
348.66	224.73
349.05	224.73
349.43	224.78
349.81	224.79
350.19	224.84
350.57	224.88
350.96	224.97
351.34	225.07
351.72	225.15
352.10	225.22
352.48	225.30
352.87	225.35
353.25	225.38
353.63	225.45
354.01	225.50
354.39	225.54
354.77	225.62
355.15	225.72
355.54	225.77
355.92	225.79
356.30	225.86
356.68	226.05
357.06	226.13
357.44	226.18
357.82	226.27
358.20	226.34
358.58	226.41
358.97	226.43
359.35	226.50
359.73	226.60
360.11	226.69
360.49	226.74
360.87	226.80
361.25	226.88
361.63	226.93
362.01	226.98
362.39	227.03
362.77	227.07
363.15	227.13
363.53	227.14
363.91	227.18
364.29	227.19
364.67	227.11
365.05	227.15
365.43	227.17
365.81	227.23
366.19	227.30
366.57	227.37
366.95	227.45
367.33	227.46
367.71	227.46
368.09	227.47
368.47	227.47
368.85	227.46
369.23	227.47
369.61	227.46
369.99	227.47
370.37	227.47
370.75	227.55
371.13	227.48
371.51	227.43
371.89	227.42
372.27	227.39
372.65	227.37
373.03	227.31
373.41	227.33
373.78	227.27
374.16	227.20
374.54	227.11
374.92	227.06
375.30	227.03
375.68	226.97
376.06	226.93
376.44	226.87
376.82	226.82
377.19	226.77
377.57	226.70
377.95	226.62
378.33	226.57
378.71	226.38
379.09	226.37
379.47	226.36
379.84	226.28
380.22	226.20
380.60	226.14
380.98	226.06
381.36	225.93
381.73	225.85
382.11	225.77
382.49	225.71
382.87	225.61
383.25	225.51
383.62	225.57
384.00	225.47
384.38	225.45
384.76	225.41
385.13	225.40
385.51	225.37
385.89	225.29
386.27	225.21
386.64	225.22
387.02	225.14
387.40	225.06
387.78	225.03
388.15	225.00
388.53	224.94
388.91	224.92
389.29	224.91
389.66	224.90
390.04	224.86
390.42	224.84
390.79	224.87
391.17	224.85
391.55	224.73
391.92	224.72
392.30	224.70
392.68	224.70
393.05	224.69
393.43	224.70
393.81	224.72
394.18	224.72
394.56	224.70
394.94	224.78
395.31	224.81
395.69	224.87
396.06	224.93
396.44	224.93
396.82	224.96
397.19	225.00
397.57	224.98
397.95	225.03
398.32	225.06
398.70	225.08
399.07	225.15
399.45	225.17
399.82	225.24
400.20	225.23
400.58	225.28
400.95	225.27
401.33	225.35
401.70	225.49
402.08	225.57
402.45	225.67
402.83	225.75
403.20	225.84
403.58	225.89
403.95	225.98
404.33	226.13
404.71	226.27
405.08	226.46
405.46	226.62
405.83	226.77
406.21	226.92
406.58	227.07
406.96	227.24
407.33	227.44
407.70	227.66
408.08	228.00
408.45	228.25
408.83	228.52
409.20	228.73
409.58	228.95
409.95	229.30
410.33	229.64
410.70	229.95
411.08	230.30
411.45	230.71
411.82	231.11
412.20	231.57
412.57	232.06
412.95	232.49
413.32	233.02
413.69	233.57
414.07	234.18
414.44	234.82
414.82	235.48
415.19	236.21
415.56	236.92
415.94	237.64
416.31	238.47
416.68	239.37
417.06	240.36
417.43	241.29
417.81	242.26
418.18	243.28
418.55	244.41
418.93	245.58
419.30	246.79
419.67	248.04
420.04	249.31
420.42	250.67
420.79	252.16
421.16	253.73
421.54	255.31
421.91	256.91
422.28	258.59
422.66	260.36
423.03	262.08
423.40	263.86
423.77	265.78
424.15	267.73
424.52	269.68
424.89	271.83
425.26	273.93
425.64	275.92
426.01	278.08
426.38	280.35
426.75	282.59
427.13	284.95
427.50	287.36
427.87	289.88
428.24	292.39
428.61	294.81
428.99	297.38
429.36	300.26
429.73	303.04
430.10	305.74
430.47	308.52
430.85	311.45
431.22	314.50
431.59	317.70
431.96	320.71
432.33	324.07
432.70	327.26
433.08	331.03
433.45	334.57
433.82	338.08
434.19	341.90
434.56	345.64
434.93	349.14
435.30	352.69
435.68	356.55
436.05	360.38
436.42	364.14
436.79	367.58
437.16	371.14
437.53	374.95
437.90	378.76
438.27	382.39
438.64	386.14
439.01	389.59
439.38	392.59
439.75	395.50
440.13	398.86
440.50	402.02
440.87	404.51
441.24	407.10
441.61	410.04
441.98	412.09
442.35	414.56
442.72	417.07
443.09	419.51
443.46	420.89
443.83	421.64
444.20	422.33
444.57	423.45
444.94	423.83
445.31	424.34
445.68	424.80
446.05	424.97
446.42	424.49
446.79	423.97
447.16	423.37
447.53	422.99
447.90	421.41
448.27	419.83
448.64	417.70
449.01	416.19
449.37	413.51
449.74	410.96
450.11	407.93
450.48	404.62
450.85	401.27
451.22	398.37
451.59	395.68
451.96	393.07
452.33	389.58
452.70	386.50
453.07	382.64
453.43	378.74
453.80	375.00
454.17	371.40
454.54	367.96
454.91	364.32
455.28	360.69
455.65	357.37
456.02	354.05
456.38	351.17
456.75	347.60
457.12	344.54
457.49	341.50
457.86	338.59
458.23	336.07
458.59	333.24
458.96	330.45
459.33	327.93
459.70	325.40
460.07	323.36
460.43	321.01
460.80	318.79
461.17	316.85
461.54	314.82
461.91	312.88
462.27	310.91
462.64	309.20
463.01	307.36
463.38	305.54
463.74	303.72
464.11	302.13
464.48	300.71
464.85	299.25
465.21	298.07
465.58	296.79
465.95	295.33
466.32	294.13
466.68	292.92
467.05	291.70
467.42	290.50
467.78	289.19
468.15	288.01
468.52	287.13
468.88	286.00
469.25	284.96
469.62	284.06
469.98	283.14
470.35	282.30
470.72	281.49
471.08	280.64
471.45	279.87
471.82	279.12
472.18	278.30
472.55	277.67
472.92	276.95
473.28	276.36
473.65	275.75
474.02	275.11
474.38	274.57
474.75	274.10
475.11	273.64
475.48	273.30
475.85	272.91
476.21	272.57
476.58	272.23
476.94	271.99
477.31	271.78
477.67	271.52
478.04	271.29
478.41	271.12
478.77	271.08
479.14	270.95
479.50	270.90
479.87	270.90
480.23	270.92
480.60	270.93
480.96	270.92
481.33	271.05
481.69	271.22
482.06	271.34
482.42	271.49
482.79	271.67
483.15	271.95
483.52	272.34
483.88	272.63
484.25	273.00
484.61	273.39
484.98	273.79
485.34	274.33
485.71	274.91
486.07	275.52
486.44	276.06
486.80	276.78
487.17	277.51
487.53	278.36
487.90	279.25
488.26	280.19
488.62	281.21
488.99	282.22
489.35	283.28
489.72	284.47
490.08	285.71
490.44	287.04
490.81	288.43
491.17	289.85
491.54	291.40
491.90	292.99
492.26	294.71
492.63	296.57
492.99	298.48
493.36	300.50
493.72	302.66
494.08	304.90
494.45	307.28
494.81	309.76
495.17	312.32
495.54	315.03
495.90	317.90
496.26	320.85
496.63	323.97
496.99	327.29
497.35	330.77
497.72	334.43
498.08	338.13
498.44	341.99
498.80	346.13
499.17	350.46
499.53	354.92
499.89	359.56
500.26	364.30
500.62	369.21
500.98	374.42
501.34	379.80
501.71	385.44
502.07	391.23
502.43	397.21
502.79	403.39
503.16	409.83
503.52	416.47
503.88	423.24
504.24	430.31
504.60	437.60
504.97	445.15
505.33	452.85
505.69	461.06
506.05	469.33
506.41	477.65
506.78	486.26
507.14	495.25
507.50	504.53
507.86	514.12
508.22	523.95
508.59	533.81
508.95	544.01
509.31	554.45
509.67	565.24
510.03	576.19
510.39	587.50
510.75	599.01
511.12	610.68
511.48	622.78
511.84	635.07
512.20	647.42
512.56	660.19
512.92	673.23
513.28	686.48
513.64	699.83
514.00	713.53
514.37	727.50
514.73	741.50
515.09	755.53
515.45	769.78
515.81	784.43
516.17	799.44
516.53	814.66
516.89	830.13
517.25	845.40
517.61	861.00
517.97	876.63
518.33	892.26
518.69	908.26
519.05	924.48
519.41	940.94
519.77	957.77
520.13	974.58
520.49	991.37
520.85	1008.02
521.21	1025.15
521.57	1042.82
521.93	1059.97
522.29	1077.82
522.65	1095.59
523.01	1113.33
523.37	1130.85
523.73	1148.61
524.09	1166.20
524.45	1183.89
524.81	1202.15
525.17	1220.54
525.53	1239.07
525.89	1257.70
526.25	1276.31
526.61	1294.36
526.97	1312.82
527.33	1331.04
527.68	1349.33
528.04	1367.58
528.40	1385.92
528.76	1404.75
529.12	1423.25
529.48	1442.09
529.84	1459.97
530.20	1478.56
530.56	1497.54
530.91	1516.89
531.27	1535.57
531.63	1554.11
531.99	1572.70
532.35	1590.69
532.71	1608.61
533.07	1626.85
533.42	1644.70
533.78	1662.79
534.14	1681.19
534.50	1698.59
534.86	1716.56
535.21	1733.90
535.57	1751.81
535.93	1769.52
536.29	1786.44
536.65	1803.51
537.00	1820.32
537.36	1837.79
537.72	1854.22
538.08	1870.70
538.44	1886.68
538.79	1902.89
539.15	1918.48
539.51	1934.21
539.87	1950.68
540.22	1966.43
540.58	1982.45
540.94	1998.05
541.29	2012.94
541.65	2027.83
542.01	2043.20
542.37	2057.66
542.72	2072.09
543.08	2086.12
543.44	2100.79
543.79	2114.36
544.15	2127.58
544.51	2141.44
544.87	2154.58
545.22	2167.80
545.58	2180.20
545.94	2191.99
546.29	2203.80
546.65	2216.00
547.01	2227.65
547.36	2238.45
547.72	2249.16
548.07	2259.12
548.43	2269.15
548.79	2279.19
549.14	2288.68
549.50	2297.91
549.86	2307.64
550.21	2317.09
550.57	2326.23
550.92	2334.86
551.28	2343.64
551.64	2352.68
551.99	2360.95
552.35	2368.98
552.70	2376.85
553.06	2384.76
553.41	2393.06
553.77	2400.95
554.13	2408.73
554.48	2416.62
554.84	2424.06
555.19	2431.05
555.55	2437.97
555.90	2444.15
556.26	2451.00
556.61	2457.37
556.97	2463.44
557.32	2469.26
557.68	2474.96
558.03	2481.02
558.39	2486.08
558.74	2492.51
559.10	2497.85
559.45	2502.94
559.81	2508.69
560.16	2514.06
560.52	2518.81
560.87	2523.60
561.23	2527.57
561.58	2531.95
561.94	2535.99
562.29	2539.45
562.64	2543.66
563.00	2547.44
563.35	2552.28
563.71	2556.68
564.06	2561.27
564.42	2565.42
564.77	2569.12
565.12	2572.68
565.48	2575.63
565.83	2578.74
566.19	2581.29
566.54	2583.15
566.89	2585.47
567.25	2587.27
567.60	2589.75
567.96	2592.52
568.31	2594.20
568.66	2596.47
569.02	2597.88
569.37	2598.83
569.72	2600.71
570.08	2601.57
570.43	2602.35
570.78	2602.66
571.14	2601.62
571.49	2600.77
571.84	2601.09
572.20	2600.66
572.55	2600.13
572.90	2599.11
573.26	2598.35
573.61	2596.81
573.96	2595.73
574.31	2593.09
574.67	2590.38
575.02	2586.77
575.37	2583.43
575.72	2580.13
576.08	2576.65
576.43	2573.51
576.78	2570.05
577.13	2566.83
577.49	2563.75
577.84	2560.41
578.19	2556.68
578.54	2553.20
578.90	2549.12
579.25	2543.29
579.60	2537.95
579.95	2532.72
580.30	2527.39
580.66	2521.77
581.01	2516.56
581.36	2511.32
581.71	2506.89
582.06	2502.09
582.42	2497.45
582.77	2491.80
583.12	2486.86
583.47	2481.97
583.82	2476.60
584.17	2470.89
584.53	2464.93
584.88	2458.75
585.23	2452.45
585.58	2446.29
585.93	2440.21
586.28	2434.84
586.63	2429.44
586.98	2424.03
587.34	2418.87
587.69	2413.49
588.04	2407.74
588.39	2401.60
588.74	2394.32
589.09	2387.53
589.44	2380.06
589.79	2373.33
590.14	2367.13
590.49	2359.56
590.84	2352.42
591.19	2345.75
591.54	2338.50
591.89	2330.53
592.25	2323.12
592.60	2315.04
592.95	2306.69
593.30	2298.39
593.65	2289.75
594.00	2281.67
594.35	2273.47
594.70	2264.26
595.05	2256.26
595.40	2247.96
595.75	2239.35
596.10	2232.27
596.45	2224.67
596.80	2217.66
597.15	2210.08
597.50	2202.05
597.85	2194.67
598.19	2187.09
598.54	2179.07
598.89	2171.41
599.24	2164.58
599.59	2157.01
599.94	2149.77
600.29	2142.50
600.64	2134.86
600.99	2126.45
601.34	2118.49
601.69	2110.32
602.04	2102.67
602.39	2094.11
602.74	2086.20
603.08	2078.43
603.43	2070.61
603.78	2062.00
604.13	2053.57
604.48	2045.15
604.83	2037.22
605.18	2029.42
605.53	2020.15
605.87	2010.72
606.22	2002.34
606.57	1993.00
606.92	1984.21
607.27	1975.88
607.62	1967.72
607.96	1959.30
608.31	1951.75
608.66	1942.99
609.01	1934.40
609.36	1925.46
609.70	1916.04
610.05	1906.68
610.40	1897.66
610.75	1888.00
611.10	1879.14
611.44	1869.13
611.79	1859.78
612.14	1849.59
612.49	1838.61
612.83	1828.78
613.18	1819.26
613.53	1809.81
613.88	1799.80
614.22	1790.17
614.57	1780.07
614.92	1770.76
615.27	1762.01
615.61	1752.06
615.96	1742.67
616.31	1733.48
616.65	1724.76
617.00	1715.96
617.35	1706.97
617.70	1697.29
618.04	1687.33
618.39	1677.53
618.74	1668.69
619.08	1658.90
619.43	1649.89
619.78	1641.82
620.12	1633.47
620.47	1624.66
620.82	1614.87
621.16	1606.04
621.51	1596.97
621.85	1587.92
622.20	1577.91
622.55	1567.93
622.89	1558.82
623.24	1549.79
623.59	1541.10
623.93	1532.28
624.28	1523.74
624.62	1514.86
624.97	1506.25
625.32	1498.22
625.66	1490.11
626.01	1481.74
626.35	1473.03
626.70	1463.96
627.04	1454.99
627.39	1445.75
627.73	1437.01
628.08	1429.05
628.43	1420.67
628.77	1412.14
629.12	1403.44
629.46	1394.95
629.81	1386.22
630.15	1377.63
630.50	1368.98
630.84	1359.46
631.19	1350.09
631.53	1341.26
631.88	1332.37
632.22	1323.58
632.57	1315.04
632.91	1306.16
633.26	1297.51
633.60	1288.77
633.95	1280.40
634.29	1272.08
634.64	1264.35
634.98	1255.73
635.32	1247.35
635.67	1239.49
636.01	1231.69
636.36	1223.73
636.70	1216.03
637.05	1208.36
637.39	1200.85
637.73	1193.18
638.08	1186.29
638.42	1179.32
638.77	1171.86
639.11	1164.21
639.45	1156.75
639.80	1148.99
640.14	1141.49
640.49	1133.80
640.83	1126.54
641.17	1119.41
641.52	1112.04
641.86	1104.34
642.20	1097.45
642.55	1089.99
642.89	1082.52
643.23	1074.86
643.58	1068.17
643.92	1061.04
644.26	1054.11
644.61	1046.98
644.95	1040.08
645.29	1032.44
645.64	1024.59
645.98	1017.20
646.32	1010.36
646.66	1003.41
647.01	996.73
647.35	990.19
647.69	983.37
648.04	977.01
648.38	970.18
648.72	963.29
649.06	956.37
649.41	949.60
649.75	942.86
650.09	936.08
650.43	929.38
650.78	922.27
651.12	915.44
651.46	908.75
651.80	902.20
652.14	895.95
652.49	889.72
652.83	883.76
653.17	877.25
653.51	870.71
653.85	864.35
654.20	857.87
654.54	850.87
654.88	844.31
655.22	837.43
655.56	830.91
655.90	824.57
656.25	818.57
656.59	812.42
656.93	806.60
657.27	800.53
657.61	794.26
657.95	788.35
658.29	782.47
658.64	776.43
658.98	770.23
659.32	763.90
659.66	757.86
660.00	751.79
660.34	746.07
660.68	740.34
661.02	734.56
661.36	729.00
661.70	723.86
662.05	718.87
662.39	713.90
662.73	708.68
663.07	703.66
663.41	698.55
663.75	693.37
664.09	687.98
664.43	682.96
664.77	678.26
665.11	673.44
665.45	668.65
665.79	663.93
666.13	659.31
666.47	654.63
666.81	649.96
667.15	645.17
667.49	640.62
667.83	636.28
668.17	631.83
668.51	627.22
668.85	622.55
669.19	618.09
669.53	613.69
669.87	609.29
670.21	605.02
670.55	600.78
670.89	596.89
671.23	592.99
671.57	588.94
671.91	584.79
672.25	580.63
672.58	576.57
672.92	572.63
673.26	568.92
673.60	565.26
673.94	561.59
674.28	558.27
674.62	554.89
674.96	551.28
675.30	547.92
675.64	544.53
675.97	541.38
676.31	538.05
676.65	534.66
676.99	531.57
677.33	528.29
677.67	525.03
678.01	521.54
678.34	518.11
678.68	514.76
679.02	511.59
679.36	508.47
679.70	505.34
680.04	502.22
680.37	498.90
680.71	495.68
681.05	492.76
681.39	489.60
681.73	486.60
682.06	483.74
682.40	480.79
682.74	477.91
683.08	474.89
683.42	471.89
683.75	469.06
684.09	466.13
684.43	463.25
684.77	460.43
685.10	457.68
685.44	455.02
685.78	452.39
686.12	449.77
686.45	447.07
686.79	444.44
687.13	441.88
687.46	439.32
687.80	436.80
688.14	434.13
688.48	431.76
688.81	429.10
689.15	426.61
689.49	424.11
689.82	421.68
690.16	419.29
690.50	416.98
690.83	414.74
691.17	412.38
691.51	410.17
691.84	408.00
692.18	405.78
692.52	403.49
692.85	401.20
693.19	399.00
693.52	396.90
693.86	394.78
694.20	392.69
694.53	390.64
694.87	388.49
695.21	386.43
695.54	384.31
695.88	382.33
696.21	380.29
696.55	378.32
696.88	376.32
697.22	374.34
697.56	372.49
697.89	370.57
698.23	368.77
698.56	366.89
698.90	365.08
699.23	363.21
699.57	361.40
699.90	359.62
700.24	357.87
700.58	356.05
700.91	354.33
701.25	352.64
701.58	351.08
701.92	349.55
702.25	347.96
702.59	346.36
702.92	344.79
703.26	343.33
703.59	341.86
703.93	340.52
704.26	339.20
704.60	337.72
704.93	336.24
705.26	334.75
705.60	333.39
705.93	332.03
706.27	330.83
706.60	329.60
706.94	328.36
707.27	327.04
707.61	325.85
707.94	324.59
708.27	323.35
708.61	322.05
708.94	320.86
709.28	319.73
709.61	318.63
709.94	317.55
710.28	316.28
710.61	315.12
710.95	313.86
711.28	312.73
711.61	311.61
711.95	310.53
712.28	309.45
712.61	308.31
712.95	307.24
713.28	306.17
713.61	305.10
713.95	304.07
714.28	303.05
714.61	302.03
714.95	301.08
715.28	300.07
715.61	299.09
715.95	298.13
716.28	297.12
716.61	296.16
716.95	295.22
717.28	294.40
717.61	293.50
717.94	292.64
718.28	291.70
718.61	290.86
718.94	290.03
719.27	289.30
719.61	288.59
719.94	287.81
720.27	287.00
720.60	286.21
720.94	285.51
721.27	284.81
721.60	284.14
721.93	283.46
722.27	282.82
722.60	282.18
722.93	281.48
723.26	280.89
723.59	280.22
723.93	279.58
724.26	278.89
724.59	278.26
724.92	277.67
725.25	277.11
725.59	276.53
725.92	275.95
726.25	275.29
726.58	274.69
726.91	274.10
727.24	273.52
727.57	273.01
727.91	272.41
728.24	271.90
728.57	271.33
728.90	270.76
729.23	270.18
729.56	269.63
729.89	269.13
730.22	268.53
730.55	268.00
730.89	267.44
731.22	266.96
731.55	266.44
731.88	265.93
732.21	265.39
732.54	264.85
732.87	264.35
733.20	263.92
733.53	263.47
733.86	263.07
734.19	262.63
734.52	262.18
734.85	261.80
735.18	261.33
735.51	260.90
735.84	260.48
736.17	260.11
736.50	259.68
736.83	259.34
737.16	258.97
737.49	258.55
737.82	258.16
738.15	257.79
738.48	257.40
738.81	257.00
739.14	256.66
739.47	256.31
739.80	255.93
740.13	255.56
740.46	255.16
740.79	254.76
741.12	254.42
741.45	254.06
741.78	253.69
742.11	253.34
742.44	252.99
742.77	252.66
743.10	252.26
743.43	251.93
743.75	251.50
744.08	251.33
744.41	251.03
744.74	250.70
745.07	250.36
745.40	250.08
745.73	249.81
746.06	249.48
746.39	249.19
746.71	248.92
747.04	248.60
747.37	248.33
747.70	248.02
748.03	247.70
748.36	247.43
748.68	247.15
749.01	246.88
749.34	246.62
749.67	246.35
750.00	246.10
750.33	245.89
750.65	245.65
750.98	245.24
751.31	244.99
751.64	244.76
751.97	244.54
752.29	244.27
752.62	243.98
752.95	243.73
753.28	243.46
753.60	243.23
753.93	243.03
754.26	242.79
754.59	242.56
754.91	242.32
755.24	242.08
755.57	241.85
755.90	241.63
756.22	241.40
756.55	241.16
756.88	240.99
757.20	240.74
757.53	240.54
757.86	240.37
758.19	240.18
758.51	239.98
758.84	239.76
759.17	239.58
759.49	239.41
759.82	239.24
760.15	239.08
760.47	238.88
760.80	238.71
761.13	238.58
761.45	238.42
761.78	238.23
762.11	238.07
762.43	237.90
762.76	237.74
763.08	237.56
763.41	237.39
763.74	237.22
764.06	237.06
764.39	236.88
764.71	236.69
765.04	236.51
765.37	236.36
765.69	236.20
766.02	236.04
766.34	235.88
766.67	235.73
767.00	235.59
767.32	235.51
767.65	235.40
767.97	235.25
768.30	235.12
768.62	235.02
768.95	234.86
769.27	234.74
769.60	234.62
769.92	234.51
770.25	234.39
770.57	234.27
770.90	234.15
771.22	234.04
771.55	233.93
771.87	233.83
772.20	233.72
772.52	233.72
772.85	233.78
773.17	233.68
773.50	233.57
773.82	233.48
774.15	233.32
774.47	233.14
774.80	233.06
775.12	232.95
775.45	232.86
775.77	232.80
776.09	232.68
776.42	232.61
776.74	232.56
777.07	232.45
777.39	232.38
777.72	232.26
778.04	232.21
778.36	232.10
778.69	232.06
779.01	231.99
779.33	231.81
779.66	231.60
779.98	231.50
780.31	231.43
780.63	231.39
780.95	231.34
781.28	231.29
781.60	231.19
781.92	231.13
782.25	231.06
782.57	230.99
782.89	230.95
783.22	230.86
783.54	230.74
783.86	230.70
784.19	230.61
784.51	230.58
784.83	230.48
785.16	230.44
785.48	230.37
785.80	230.32
786.12	230.27
786.45	230.20
786.77	230.16
787.09	230.10
787.42	230.02
787.74	229.97
788.06	229.89
788.38	229.80
788.71	229.76
789.03	229.72
789.35	229.69
789.67	229.60
789.99	229.55
790.32	229.51
790.64	229.46
790.96	229.51
791.28	229.41
791.61	229.38
791.93	229.32
792.25	229.27
792.57	229.28
792.89	229.22
793.21	229.20
793.54	229.19
793.86	229.13
794.18	229.07
794.50	229.01
794.82	229.00
795.14	228.99
795.47	228.93
795.79	228.87
796.11	228.80
796.43	228.78
796.75	228.72
797.07	228.69
797.39	228.65
797.71	228.54
798.04	228.54
798.36	228.52
798.68	228.47
799.00	228.43
799.32	228.33
799.64	228.32
799.96	228.28
800.28	228.21
800.60	228.17
800.92	228.15
801.24	228.11
801.56	228.06
801.89	228.03
802.21	228.03
802.53	227.99
802.85	228.00
803.17	228.02
803.49	227.98
803.81	227.94
804.13	227.92
804.45	227.88
804.77	227.82
805.09	227.73
805.41	227.72
805.73	227.69
806.05	227.64
806.37	227.58
806.69	227.55
807.01	227.47
807.33	227.45
807.65	227.39
807.97	227.42
808.28	227.38
808.60	227.34
808.92	227.28
809.24	227.34
809.56	227.29
809.88	227.20
810.20	227.18
810.52	227.17
810.84	227.13
811.16	227.11
811.48	227.10
811.80	227.13
812.12	227.11
812.43	227.07
812.75	227.06
813.07	227.03
813.39	226.99
813.71	227.01
814.03	226.97
814.35	226.96
814.67	226.90
814.98	226.91
815.30	226.88
815.62	226.85
815.94	226.72
816.26	226.74
816.58	226.73
816.89	226.69
817.21	226.66
817.53	226.63
817.85	226.61
818.17	226.60
818.48	226.55
818.80	226.53
819.12	226.50
819.44	226.47
819.76	226.45
820.07	226.41
820.39	226.37
820.71	226.36
821.03	226.37
821.34	226.31
821.66	226.26
821.98	226.26
822.30	226.21
822.61	226.27
822.93	226.18
823.25	226.18
823.57	226.18
823.88	226.16
824.20	226.13
824.52	226.12
824.83	226.08
825.15	226.06
825.47	226.04
825.79	226.03
826.10	226.03
826.42	226.02
826.74	226.02
827.05	226.01
827.37	226.03
827.69	226.01
828.00	226.02
828.32	226.03
828.64	226.03
828.95	226.09
829.27	226.05
829.58	226.05
829.90	226.05
830.22	226.04
830.53	226.01
830.85	226.01
831.17	225.97
831.48	225.99
831.80	225.99
832.11	225.96
832.43	225.96
832.75	225.93
833.06	225.95
833.38	225.91
833.69	225.93
834.01	225.91
834.32	225.91
834.64	225.90
834.96	225.90
835.27	225.88
835.59	225.86
835.90	225.79
836.22	225.77
836.53	225.70
836.85	225.69
837.16	225.76
837.48	225.77
837.79	225.78
838.11	225.77
838.42	225.72
838.74	225.71
839.05	225.70
839.37	225.71
839.68	225.67
840.00	225.66
840.31	225.64
840.63	225.64
840.94	225.62
841.26	225.61
841.57	225.60
841.88	225.59
842.20	225.57
842.51	225.60
842.83	225.62
843.14	225.74
843.46	225.74
843.77	225.71
844.08	225.69
844.40	225.68
844.71	225.63
845.03	225.62
845.34	225.62
845.65	225.61
845.97	225.59
846.28	225.60
846.60	225.59
846.91	225.56
847.22	225.52
847.54	225.52
847.85	225.50
848.16	225.48
848.48	225.47
848.79	225.49
849.10	225.46
849.42	225.44
849.73	225.36
850.04	225.30
850.36	225.27
850.67	225.26
850.98	225.24
851.30	225.28
851.61	225.28
851.92	225.29
852.23	225.30
852.55	225.31
852.86	225.28
853.17	225.32
853.49	225.35
853.80	225.37
854.11	225.37
854.42	225.39
854.74	225.38
855.05	225.35
855.36	225.30
855.67	225.31
855.99	225.31
856.30	225.40
856.61	225.44
856.92	225.43
857.23	225.43
857.55	225.43
857.86	225.39
858.17	225.42
858.48	225.41
858.79	225.40
859.11	225.39
859.42	225.38
859.73	225.35
860.04	225.31
860.35	225.30
860.66	225.27
860.98	225.27
861.29	225.30
861.60	225.29
861.91	225.33
862.22	225.31
862.53	225.27
862.84	225.16
863.16	225.15
863.47	225.14
863.78	225.12
864.09	225.12
864.40	225.12
864.71	225.12
865.02	225.15
865.33	225.12
865.64	225.08
865.95	225.09
866.27	225.16
866.58	225.16
866.89	225.13
867.20	225.13
867.51	225.09
867.82	225.08
868.13	225.13
868.44	225.10
868.75	225.13
869.06	225.13
869.37	225.11
869.68	225.12
869.99	225.14
870.30	225.19
870.61	225.22
870.92	225.20
871.23	225.18
871.54	225.18
871.85	225.21
872.16	225.24
872.47	225.25
872.78	225.19
873.09	225.20
873.40	225.22
873.71	225.22
874.02	225.27
874.33	225.24
874.64	225.22
874.95	225.24
875.26	225.24
875.56	225.27
875.87	225.30
876.18	225.30
876.49	225.38
876.80	225.34
877.11	225.30
877.42	225.34
877.73	225.32
878.04	225.26
878.35	225.25
878.66	225.27
878.96	225.26
879.27	225.26
879.58	225.25
879.89	225.22
880.20	225.27
880.51	225.24
880.82	225.26
881.12	225.24
881.43	225.23
881.74	225.18
882.05	225.18
882.36	225.16
882.67	225.11
882.97	225.02
883.28	225.03
883.59	225.02
883.90	225.02
884.21	225.05
884.51	225.09
884.82	225.08
885.13	225.08
885.44	225.08
885.74	225.06
886.05	225.06
886.36	225.08
886.67	225.02
886.98	225.07
887.28	225.06
887.59	225.06
887.90	225.08
888.20	225.08
888.51	225.10
888.82	225.09
889.13	225.12
889.43	225.18
889.74	225.17
890.05	225.14
890.35	225.12
890.66	225.14
890.97	225.14
891.28	225.15
891.58	225.16
891.89	225.15
892.20	225.15
892.50	225.14
892.81	225.12
893.12	225.16
893.42	225.08
893.73	225.06
894.04	225.09
894.34	225.10
894.65	225.10
894.95	225.10
895.26	225.12
895.57	225.16
895.87	225.05
896.18	225.08
896.48	225.11
896.79	225.16
897.10	225.12
897.40	225.11
897.71	225.09
898.01	225.05
898.32	225.07
898.63	225.05
898.93	225.04
899.24	225.05
899.54	225.02
899.85	225.03
900.15	225.04
900.46	225.01
900.76	224.97
901.07	224.96
901.38	224.93
901.68	224.90
901.99	224.86
902.29	224.86
902.60	224.86
902.90	224.84
903.21	224.82
903.51	224.82
903.82	224.85
904.12	224.86
904.43	224.88
904.73	224.89
905.03	224.91
905.34	224.99
905.64	224.99
905.95	225.01
906.25	225.02
906.56	225.06
906.86	225.07
907.17	225.06
907.47	225.07
907.77	225.08
908.08	225.06
908.38	225.07
908.69	225.08
908.99	225.08
909.30	225.12
909.60	225.11
909.90	225.10
910.21	225.09
910.51	225.04
910.81	225.02
911.12	225.01
911.42	224.98
911.73	224.88
912.03	224.85
912.33	224.87
912.64	224.87
912.94	224.86
913.24	224.85
913.55	224.85
913.85	224.85
914.15	224.87
914.46	224.89
914.76	224.87
915.06	224.87
915.37	224.86
915.67	224.83
915.97	224.82
916.27	224.81
916.58	224.82
916.88	224.86
917.18	224.86
917.49	224.92
917.79	224.92
918.09	224.95
918.39	225.01
918.70	224.98
919.00	224.97
919.30	225.00
919.60	224.98
919.91	224.93
920.21	224.92
920.51	224.90
920.81	224.91
921.12	224.96
921.42	224.95
921.72	224.94
922.02	224.95
922.32	224.97
922.63	224.98
922.93	224.99
923.23	225.00
923.53	224.99
923.83	224.93
924.13	224.92
924.44	224.90
924.74	224.92
925.04	224.94
925.34	224.93
925.64	224.86
925.94	224.86
926.24	224.96
926.55	224.97
926.85	224.97
927.15	224.98
927.45	224.95
927.75	224.97
928.05	224.96
928.35	224.93
928.65	224.95
928.95	224.97
929.26	224.89
929.56	224.88
929.86	224.88
930.16	224.89
930.46	224.88
930.76	224.89
931.06	224.81
931.36	224.78
931.66	224.82
931.96	224.84
932.26	224.87
932.56	224.80
932.86	224.80
933.16	224.77
933.46	224.72
933.76	224.72
934.06	224.72
934.36	224.77
934.66	224.79
934.96	224.76
935.26	224.74
935.56	224.79
935.86	224.78
936.16	224.76
936.46	224.74
936.76	224.78
937.06	224.76
937.36	224.73
937.66	224.73
937.96	224.69
938.26	224.68
938.56	224.65
938.86	224.66
939.16	224.64
939.46	224.68
939.76	224.70
940.06	224.69
940.35	224.67
940.65	224.62
940.95	224.59
941.25	224.55
941.55	224.55
941.85	224.54
942.15	224.54
942.45	224.58
942.75	224.54
943.04	224.52
943.34	224.52
943.64	224.55
943.94	224.56
944.24	224.55
944.54	224.52
944.84	224.52
945.13	224.51
945.43	224.53
945.73	224.49
946.03	224.48
946.33	224.46
946.62	224.45
946.92	224.44
947.22	224.48
947.52	224.49
947.82	224.50
948.11	224.48
948.41	224.50
948.71	224.45
949.01	224.46
949.31	224.44
949.60	224.45
949.90	224.48
950.20	224.47
950.50	224.48
950.79	224.49
951.09	224.53
951.39	224.52
951.69	224.48
951.98	224.52
952.28	224.52
952.58	224.52
952.87	224.50
953.17	224.49
953.47	224.49
953.76	224.51
954.06	224.48
954.36	224.48
954.66	224.44
954.95	224.49
955.25	224.54
955.55	224.58
955.84	224.57
956.14	224.60
956.44	224.56
956.73	224.56
957.03	224.57
957.32	224.54
957.62	224.56
957.92	224.60
958.21	224.61
958.51	224.73
958.81	224.75
959.10	224.79
959.40	224.85
959.69	224.84
959.99	224.85
960.29	224.87
960.58	224.85
960.88	224.91
961.17	224.90
961.47	224.90
961.76	224.90
962.06	224.92
962.36	224.88
962.65	224.92
962.95	224.94
963.24	224.92
963.54	224.90
963.83	224.90
964.13	224.89
964.42	224.84
964.72	224.76
965.01	224.74
965.31	224.74
965.60	224.71
965.90	224.74
966.19	224.71
966.49	224.69
966.78	224.70
967.08	224.72
967.37	224.70
967.67	224.69
967.96	224.69
968.26	224.66
968.55	224.66
968.85	224.66
969.14	224.66
969.43	224.67
969.73	224.68
970.02	224.67
970.32	224.66
970.61	224.67
970.91	224.66
971.20	224.69
971.49	224.66
971.79	224.65
972.08	224.59
972.38	224.62
972.67	224.63
972.96	224.63
973.26	224.58
973.55	224.63
973.85	224.64
974.14	224.62
974.43	224.64
974.73	224.65
975.02	224.63
975.31	224.62
975.61	224.62
975.90	224.65
976.19	224.65
976.49	224.69
976.78	224.68
977.07	224.66
977.37	224.66
977.66	224.68
977.95	224.63
978.24	224.66
978.54	224.63
978.83	224.63
979.12	224.59
979.42	224.61
979.71	224.55
980.00	224.53
980.29	224.52
980.59	224.49
980.88	224.51
981.17	224.51
981.46	224.54
981.76	224.54
982.05	224.55
982.34	224.53
982.63	224.52
982.93	224.52
983.22	224.56
983.51	224.53
983.80	224.53
984.09	224.61
984.39	224.58
984.68	224.58
984.97	224.56
985.26	224.61
985.55	224.63
985.85	224.65
986.14	224.65
986.43	224.66
986.72	224.65
987.01	224.58
987.30	224.58
987.59	224.54
987.89	224.52
988.18	224.47
988.47	224.46
988.76	224.42
989.05	224.41
989.34	224.39
989.63	224.44
989.92	224.44
990.22	224.38
990.51	224.42
990.80	224.41
991.09	224.44
991.38	224.43
991.67	224.39
991.96	224.37
992.25	224.37
992.54	224.37
992.83	224.39
993.12	224.41
993.41	224.46
993.70	224.48
993.99	224.51
994.28	224.52
994.58	224.53
994.87	224.51
995.16	224.51
995.45	224.48
995.74	224.44
996.03	224.44
996.32	224.49
996.61	224.48
996.90	224.47
997.19	224.46
997.48	224.46
997.77	224.48
998.06	224.49
998.34	224.47
998.63	224.49
998.92	224.47
999.21	224.48
999.50	224.44
999.79	224.43
1000.08	224.42
1000.37	224.43
1000.66	224.42
1000.95	224.45
1001.24	224.47
1001.53	224.47
1001.82	224.48
1002.11	224.45
1002.40	224.44
1002.68	224.45
1002.97	224.54
1003.26	224.55
1003.55	224.52
1003.84	224.53
1004.13	224.55
1004.42	224.59
1004.71	224.53
1004.99	224.52
1005.28	224.57
1005.57	224.58
1005.86	224.58
1006.15	224.59
1006.44	224.57
1006.72	224.60
1007.01	224.59
1007.30	224.59
1007.59	224.62
1007.88	224.62
1008.17	224.63
1008.45	224.62
1008.74	224.58
1009.03	224.53
1009.32	224.53
1009.60	224.53
1009.89	224.50
1010.18	224.46
1010.47	224.44
1010.76	224.48
1011.04	224.50
1011.33	224.51
1011.62	224.54
1011.91	224.54
1012.19	224.54
1012.48	224.52
1012.77	224.53
1013.05	224.58
1013.34	224.58
1013.63	224.56
1013.92	224.57
1014.20	224.55
1014.49	224.56
1014.78	224.58
1015.06	224.55
1015.35	224.56
1015.64	224.58
1015.92	224.60
1016.21	224.60
1016.50	224.58
1016.78	224.58
1017.07	224.59
1017.36	224.55
1017.64	224.54
1017.93	224.53
1018.22	224.52
1018.50	224.53
1018.79	224.57
1019.08	224.51
1019.36	224.53
1019.65	224.51
1019.93	224.55
1020.22	224.58
1020.51	224.61
1020.79	224.60
1021.08	224.29
1021.36	224.26
1021.65	225.44
1021.94	224.37
1022.22	224.89
1022.51	223.99
1022.79	225.35
1023.08	224.74
1023.36	225.59
1023.65	224.44
>>>>>End Processed Spectral Data<<<<<
