SpectraSuite Data File
++++++++++++++++++++++++++++++++++++
Date: Fri Feb 01 15:06:07 EST 2013
User: group
Dark Spectrum Present: No
Reference Spectrum Present: No
Number of Sampled Component Spectra: 1
Spectrometers: USB2E7196
Integration Time (usec): 35000 (USB2E7196)
Spectra Averaged: 100 (USB2E7196)
Boxcar Smoothing: 10 (USB2E7196)
Correct for Electrical Dark: No (USB2E7196)
Strobe/Lamp Enabled: No (USB2E7196)
Correct for Detector Non-linearity: No (USB2E7196)
Correct for Stray Light: No (USB2E7196)
Number of Pixels in Processed Spectrum: 2048
>>>>>Begin Processed Spectral Data<<<<<
339.09	0.00
339.48	215.09
339.86	216.75
340.24	218.11
340.63	219.23
341.01	222.77
341.39	221.99
341.78	223.57
342.16	224.22
342.54	225.21
342.93	213.52
343.31	224.30
343.69	224.83
344.07	225.31
344.46	225.72
344.84	226.11
345.22	226.30
345.60	226.56
345.99	226.77
346.37	226.90
346.75	227.02
347.13	227.05
347.52	227.05
347.90	227.13
348.28	227.14
348.66	227.18
349.05	227.21
349.43	227.23
349.81	227.29
350.19	227.33
350.57	227.36
350.96	227.41
351.34	227.50
351.72	227.58
352.10	227.64
352.48	227.74
352.87	227.80
353.25	227.86
353.63	227.88
354.01	227.93
354.39	228.03
354.77	228.08
355.15	228.19
355.54	228.28
355.92	228.31
356.30	228.40
356.68	228.51
357.06	228.57
357.44	228.64
357.82	228.68
358.20	228.76
358.58	228.84
358.97	228.92
359.35	228.99
359.73	229.09
360.11	229.15
360.49	229.22
360.87	229.24
361.25	229.33
361.63	229.44
362.01	229.49
362.39	229.52
362.77	229.55
363.15	229.56
363.53	229.60
363.91	229.63
364.29	229.63
364.67	229.58
365.05	229.61
365.43	229.62
365.81	229.65
366.19	229.68
366.57	229.71
366.95	229.70
367.33	229.69
367.71	229.65
368.09	229.63
368.47	229.58
368.85	229.54
369.23	229.54
369.61	229.43
369.99	229.41
370.37	229.37
370.75	229.39
371.13	229.34
371.51	229.26
371.89	229.25
372.27	229.17
372.65	229.11
373.03	229.04
373.41	228.96
373.78	228.90
374.16	228.79
374.54	228.67
374.92	228.60
375.30	228.52
375.68	228.44
376.06	228.36
376.44	228.27
376.82	228.21
377.19	228.13
377.57	228.06
377.95	227.94
378.33	227.85
378.71	227.72
379.09	227.63
379.47	227.57
379.84	227.43
380.22	227.37
380.60	227.27
380.98	227.18
381.36	227.12
381.73	227.02
382.11	226.98
382.49	226.93
382.87	226.86
383.25	226.80
383.62	226.83
384.00	226.80
384.38	226.77
384.76	226.74
385.13	226.69
385.51	226.67
385.89	226.59
386.27	226.53
386.64	226.50
387.02	226.47
387.40	226.45
387.78	226.40
388.15	226.36
388.53	226.35
388.91	226.34
389.29	226.29
389.66	226.28
390.04	226.24
390.42	226.24
390.79	226.22
391.17	226.22
391.55	226.13
391.92	226.09
392.30	226.11
392.68	226.09
393.05	226.08
393.43	226.08
393.81	226.12
394.18	226.14
394.56	226.14
394.94	226.17
395.31	226.16
395.69	226.25
396.06	226.31
396.44	226.37
396.82	226.41
397.19	226.51
397.57	226.59
397.95	226.69
398.32	226.74
398.70	226.83
399.07	226.89
399.45	226.95
399.82	227.02
400.20	227.05
400.58	227.13
400.95	227.18
401.33	227.29
401.70	227.48
402.08	227.60
402.45	227.73
402.83	227.85
403.20	227.97
403.58	228.07
403.95	228.22
404.33	228.37
404.71	228.48
405.08	228.67
405.46	228.77
405.83	228.88
406.21	229.03
406.58	229.18
406.96	229.36
407.33	229.56
407.70	229.77
408.08	230.05
408.45	230.29
408.83	230.56
409.20	230.79
409.58	230.93
409.95	231.20
410.33	231.47
410.70	231.75
411.08	232.06
411.45	232.39
411.82	232.70
412.20	233.04
412.57	233.47
412.95	233.77
413.32	234.18
413.69	234.63
414.07	235.04
414.44	235.48
414.82	235.97
415.19	236.50
415.56	237.04
415.94	237.61
416.31	238.25
416.68	238.88
417.06	239.56
417.43	240.28
417.81	241.03
418.18	241.85
418.55	242.70
418.93	243.55
419.30	244.44
419.67	245.35
420.04	246.33
420.42	247.33
420.79	248.48
421.16	249.62
421.54	250.82
421.91	252.07
422.28	253.35
422.66	254.63
423.03	255.94
423.40	257.28
423.77	258.67
424.15	260.10
424.52	261.59
424.89	263.20
425.26	264.72
425.64	266.17
426.01	267.73
426.38	269.33
426.75	271.03
427.13	272.76
427.50	274.59
427.87	276.44
428.24	278.30
428.61	280.09
428.99	282.11
429.36	284.20
429.73	286.24
430.10	288.26
430.47	290.34
430.85	292.47
431.22	294.71
431.59	297.11
431.96	299.32
432.33	301.77
432.70	304.17
433.08	307.00
433.45	309.65
433.82	312.21
434.19	315.14
434.56	318.00
434.93	320.69
435.30	323.29
435.68	326.22
436.05	329.09
436.42	331.90
436.79	334.35
437.16	337.05
437.53	339.88
437.90	342.72
438.27	345.47
438.64	348.33
439.01	350.95
439.38	353.25
439.75	355.43
440.13	357.99
440.50	360.33
440.87	362.24
441.24	364.18
441.61	366.42
441.98	367.93
442.35	369.69
442.72	371.52
443.09	373.31
443.46	374.27
443.83	374.83
444.20	375.35
444.57	376.19
444.94	376.49
445.31	376.91
445.68	377.24
446.05	377.34
446.42	376.95
446.79	376.53
447.16	376.09
447.53	375.79
447.90	374.62
448.27	373.44
448.64	371.79
449.01	370.64
449.37	368.66
449.74	366.77
450.11	364.51
450.48	362.05
450.85	359.58
451.22	357.46
451.59	355.43
451.96	353.42
452.33	350.85
452.70	348.48
453.07	345.58
453.43	342.68
453.80	339.90
454.17	337.21
454.54	334.70
454.91	331.92
455.28	329.23
455.65	326.74
456.02	324.31
456.38	322.20
456.75	319.54
457.12	317.29
457.49	315.04
457.86	312.87
458.23	311.00
458.59	308.93
458.96	306.85
459.33	305.00
459.70	303.18
460.07	301.69
460.43	299.97
460.80	298.38
461.17	296.96
461.54	295.42
461.91	294.01
462.27	292.51
462.64	291.24
463.01	289.90
463.38	288.59
463.74	287.19
464.11	286.02
464.48	284.99
464.85	283.81
465.21	282.92
465.58	281.96
465.95	280.87
466.32	279.94
466.68	278.99
467.05	278.07
467.42	277.17
467.78	276.22
468.15	275.30
468.52	274.61
468.88	273.74
469.25	273.01
469.62	272.34
469.98	271.62
470.35	270.97
470.72	270.34
471.08	269.64
471.45	269.11
471.82	268.52
472.18	267.90
472.55	267.49
472.92	266.96
473.28	266.51
473.65	266.03
474.02	265.59
474.38	265.23
474.75	264.90
475.11	264.53
475.48	264.27
475.85	264.05
476.21	263.74
476.58	263.49
476.94	263.30
477.31	263.13
477.67	263.03
478.04	262.90
478.41	262.82
478.77	262.84
479.14	262.74
479.50	262.73
479.87	262.82
480.23	262.86
480.60	262.93
480.96	263.01
481.33	263.24
481.69	263.43
482.06	263.60
482.42	263.78
482.79	264.01
483.15	264.32
483.52	264.68
483.88	265.08
484.25	265.48
484.61	265.93
484.98	266.38
485.34	266.87
485.71	267.46
486.07	268.10
486.44	268.65
486.80	269.37
487.17	270.13
487.53	270.90
487.90	271.76
488.26	272.68
488.62	273.66
488.99	274.63
489.35	275.67
489.72	276.82
490.08	278.01
490.44	279.27
490.81	280.59
491.17	281.92
491.54	283.42
491.90	284.97
492.26	286.61
492.63	288.35
492.99	290.17
493.36	292.05
493.72	294.05
494.08	296.18
494.45	298.44
494.81	300.76
495.17	303.22
495.54	305.77
495.90	308.45
496.26	311.22
496.63	314.20
496.99	317.26
497.35	320.48
497.72	323.88
498.08	327.39
498.44	331.03
498.80	334.94
499.17	338.92
499.53	343.07
499.89	347.40
500.26	351.89
500.62	356.53
500.98	361.52
501.34	366.51
501.71	371.83
502.07	377.23
502.43	382.80
502.79	388.56
503.16	394.60
503.52	400.84
503.88	407.24
504.24	413.84
504.60	420.70
504.97	427.79
505.33	435.07
505.69	442.79
506.05	450.52
506.41	458.40
506.78	466.57
507.14	474.99
507.50	483.70
507.86	492.66
508.22	501.80
508.59	510.90
508.95	520.55
509.31	530.37
509.67	540.44
510.03	550.79
510.39	561.39
510.75	572.29
511.12	583.21
511.48	594.54
511.84	605.94
512.20	617.47
512.56	629.39
512.92	641.61
513.28	653.81
513.64	666.35
514.00	679.08
514.37	691.97
514.73	705.12
515.09	718.15
515.45	731.48
515.81	745.11
516.17	759.12
516.53	773.25
516.89	787.31
517.25	801.49
517.61	815.82
517.97	830.29
518.33	844.70
518.69	859.59
519.05	874.53
519.41	889.75
519.77	905.37
520.13	920.88
520.49	936.19
520.85	951.77
521.21	967.50
521.57	983.75
521.93	999.69
522.29	1016.11
522.65	1032.40
523.01	1048.74
523.37	1064.87
523.73	1081.14
524.09	1097.30
524.45	1113.80
524.81	1130.60
525.17	1147.61
525.53	1164.44
525.89	1181.42
526.25	1198.21
526.61	1214.76
526.97	1231.54
527.33	1248.06
527.68	1264.85
528.04	1281.52
528.40	1298.22
528.76	1315.27
529.12	1331.84
529.48	1348.74
529.84	1364.81
530.20	1381.48
530.56	1398.58
530.91	1416.11
531.27	1432.81
531.63	1449.42
531.99	1466.14
532.35	1482.11
532.71	1497.99
533.07	1514.44
533.42	1530.25
533.78	1546.45
534.14	1562.73
534.50	1578.08
534.86	1594.14
535.21	1609.27
535.57	1625.32
535.93	1640.83
536.29	1655.86
536.65	1671.07
537.00	1685.89
537.36	1701.32
537.72	1715.97
538.08	1730.37
538.44	1744.18
538.79	1758.40
539.15	1772.08
539.51	1785.81
539.87	1800.27
540.22	1814.11
540.58	1828.05
540.94	1841.65
541.29	1854.62
541.65	1867.48
542.01	1880.85
542.37	1893.11
542.72	1905.64
543.08	1917.46
543.44	1929.96
543.79	1941.20
544.15	1952.19
544.51	1963.75
544.87	1974.72
545.22	1985.71
545.58	1996.05
545.94	2005.92
546.29	2015.79
546.65	2025.66
547.01	2034.99
547.36	2043.75
547.72	2052.18
548.07	2060.05
548.43	2068.25
548.79	2076.23
549.14	2083.72
549.50	2091.27
549.86	2099.06
550.21	2106.37
550.57	2113.41
550.92	2120.00
551.28	2127.11
551.64	2134.20
551.99	2140.88
552.35	2147.04
552.70	2153.03
553.06	2158.89
553.41	2165.20
553.77	2171.11
554.13	2177.21
554.48	2183.23
554.84	2188.59
555.19	2194.11
555.55	2199.04
555.90	2203.51
556.26	2208.32
556.61	2212.96
556.97	2217.06
557.32	2221.13
557.68	2225.37
558.03	2229.75
558.39	2233.43
558.74	2238.02
559.10	2241.88
559.45	2245.30
559.81	2249.61
560.16	2253.27
560.52	2256.51
560.87	2259.78
561.23	2262.37
561.58	2265.40
561.94	2267.89
562.29	2270.33
562.64	2272.79
563.00	2275.51
563.35	2278.84
563.71	2282.00
564.06	2285.22
564.42	2287.95
564.77	2290.42
565.12	2292.45
565.48	2294.11
565.83	2295.73
566.19	2296.82
566.54	2297.69
566.89	2298.99
567.25	2299.38
567.60	2300.88
567.96	2302.38
568.31	2303.09
568.66	2304.01
569.02	2304.26
569.37	2304.49
569.72	2305.05
570.08	2305.02
570.43	2304.82
570.78	2303.96
571.14	2302.20
571.49	2300.68
571.84	2300.26
572.20	2298.94
572.55	2297.67
572.90	2296.14
573.26	2294.65
573.61	2292.92
573.96	2290.90
574.31	2287.52
574.67	2284.28
575.02	2280.41
575.37	2277.09
575.72	2273.15
576.08	2269.80
576.43	2266.52
576.78	2262.70
577.13	2259.48
577.49	2256.38
577.84	2252.87
578.19	2249.18
578.54	2245.39
578.90	2240.92
579.25	2235.26
579.60	2230.11
579.95	2225.06
580.30	2220.04
580.66	2214.82
581.01	2209.67
581.36	2204.65
581.71	2200.45
582.06	2195.93
582.42	2191.23
582.77	2185.90
583.12	2181.23
583.47	2176.34
583.82	2171.10
584.17	2165.79
584.53	2160.15
584.88	2154.28
585.23	2148.22
585.58	2142.69
585.93	2137.29
586.28	2132.63
586.63	2127.45
586.98	2122.22
587.34	2117.50
587.69	2112.34
588.04	2106.98
588.39	2101.16
588.74	2094.72
589.09	2088.61
589.44	2081.72
589.79	2075.74
590.14	2069.92
590.49	2063.40
590.84	2056.97
591.19	2050.83
591.54	2044.30
591.89	2036.73
592.25	2029.94
592.60	2022.82
592.95	2014.92
593.30	2007.40
593.65	1999.53
594.00	1992.43
594.35	1985.17
594.70	1976.98
595.05	1969.74
595.40	1962.37
595.75	1954.88
596.10	1948.41
596.45	1941.36
596.80	1935.13
597.15	1928.32
597.50	1921.01
597.85	1914.36
598.19	1907.69
598.54	1900.46
598.89	1893.68
599.24	1887.84
599.59	1880.94
599.94	1874.65
600.29	1868.51
600.64	1861.91
600.99	1854.44
601.34	1847.48
601.69	1840.53
602.04	1833.53
602.39	1826.14
602.74	1819.36
603.08	1812.58
603.43	1805.83
603.78	1798.57
604.13	1791.44
604.48	1784.19
604.83	1777.43
605.18	1770.35
605.53	1762.16
605.87	1754.16
606.22	1747.00
606.57	1738.98
606.92	1731.76
607.27	1724.39
607.62	1717.22
607.96	1709.77
608.31	1703.05
608.66	1695.39
609.01	1687.86
609.36	1680.49
609.70	1672.35
610.05	1664.21
610.40	1656.53
610.75	1648.27
611.10	1640.56
611.44	1632.26
611.79	1624.20
612.14	1615.50
612.49	1606.59
612.83	1598.38
613.18	1590.29
613.53	1582.13
613.88	1573.57
614.22	1565.37
614.57	1556.96
614.92	1549.06
615.27	1541.58
615.61	1533.44
615.96	1525.43
616.31	1517.76
616.65	1510.23
617.00	1502.84
617.35	1495.25
617.70	1486.88
618.04	1478.48
618.39	1470.35
618.74	1462.71
619.08	1454.47
619.43	1446.86
619.78	1439.88
620.12	1432.72
620.47	1425.23
620.82	1417.08
621.16	1409.81
621.51	1402.14
621.85	1394.60
622.20	1386.14
622.55	1377.80
622.89	1369.96
623.24	1362.43
623.59	1355.07
623.93	1347.76
624.28	1340.57
624.62	1333.05
624.97	1325.98
625.32	1319.22
625.66	1312.24
626.01	1304.99
626.35	1297.56
626.70	1289.92
627.04	1282.20
627.39	1274.47
627.73	1267.07
628.08	1260.24
628.43	1252.86
628.77	1245.51
629.12	1237.86
629.46	1230.69
629.81	1223.41
630.15	1216.24
630.50	1208.86
630.84	1200.72
631.19	1192.73
631.53	1185.21
631.88	1177.68
632.22	1170.01
632.57	1162.76
632.91	1155.29
633.26	1147.90
633.60	1140.62
633.95	1133.62
634.29	1126.68
634.64	1120.09
634.98	1112.79
635.32	1105.71
635.67	1099.36
636.01	1092.83
636.36	1086.18
636.70	1079.74
637.05	1073.17
637.39	1066.77
637.73	1060.27
638.08	1054.45
638.42	1048.52
638.77	1042.09
639.11	1035.53
639.45	1029.28
639.80	1022.60
640.14	1016.22
640.49	1009.74
640.83	1003.50
641.17	997.27
641.52	991.01
641.86	984.58
642.20	978.80
642.55	972.53
642.89	965.92
643.23	959.39
643.58	953.56
643.92	947.38
644.26	941.34
644.61	935.38
644.95	929.37
645.29	922.70
645.64	915.93
645.98	909.61
646.32	903.76
646.66	897.62
647.01	891.86
647.35	886.11
647.69	880.31
648.04	874.84
648.38	869.03
648.72	862.84
649.06	856.76
649.41	850.86
649.75	844.85
650.09	839.02
650.43	833.22
650.78	827.02
651.12	821.07
651.46	815.38
651.80	809.59
652.14	804.24
652.49	798.96
652.83	793.85
653.17	788.18
653.51	782.51
653.85	777.18
654.20	771.55
654.54	765.62
654.88	759.97
655.22	754.02
655.56	748.31
655.90	743.04
656.25	737.80
656.59	732.42
656.93	727.38
657.27	722.19
657.61	716.76
657.95	711.76
658.29	706.70
658.64	701.47
658.98	696.21
659.32	690.77
659.66	685.60
660.00	680.28
660.34	675.41
660.68	670.51
661.02	665.56
661.36	660.86
661.70	656.39
662.05	651.99
662.39	647.71
662.73	643.29
663.07	638.97
663.41	634.56
663.75	630.08
664.09	625.56
664.43	621.21
664.77	617.06
665.11	612.80
665.45	608.68
665.79	604.64
666.13	600.50
666.47	596.44
666.81	592.31
667.15	588.24
667.49	584.35
667.83	580.59
668.17	576.69
668.51	572.72
668.85	568.72
669.19	564.88
669.53	561.07
669.87	557.25
670.21	553.57
670.55	549.92
670.89	546.57
671.23	543.15
671.57	539.70
671.91	536.20
672.25	532.76
672.58	529.26
672.92	525.87
673.26	522.77
673.60	519.68
673.94	516.55
674.28	513.70
674.62	510.74
674.96	507.61
675.30	504.73
675.64	501.79
675.97	499.03
676.31	496.18
676.65	493.24
676.99	490.54
677.33	487.65
677.67	484.87
678.01	481.81
678.34	478.83
678.68	475.96
679.02	473.19
679.36	470.49
679.70	467.76
680.04	465.01
680.37	462.11
680.71	459.30
681.05	456.68
681.39	453.93
681.73	451.35
682.06	448.81
682.40	446.22
682.74	443.71
683.08	441.18
683.42	438.62
683.75	436.15
684.09	433.63
684.43	431.16
684.77	428.72
685.10	426.45
685.44	424.21
685.78	421.91
686.12	419.70
686.45	417.37
686.79	415.12
687.13	412.95
687.46	410.84
687.80	408.71
688.14	406.56
688.48	404.56
688.81	402.31
689.15	400.22
689.49	398.16
689.82	396.07
690.16	393.95
690.50	392.00
690.83	390.07
691.17	388.11
691.51	386.21
691.84	384.37
692.18	382.44
692.52	380.42
692.85	378.50
693.19	376.57
693.52	374.78
693.86	373.02
694.20	371.23
694.53	369.43
694.87	367.59
695.21	365.81
695.54	363.96
695.88	362.26
696.21	360.52
696.55	358.80
696.88	357.12
697.22	355.50
697.56	353.90
697.89	352.23
698.23	350.63
698.56	349.02
698.90	347.42
699.23	345.81
699.57	344.28
699.90	342.75
700.24	341.26
700.58	339.72
700.91	338.19
701.25	336.81
701.58	335.45
701.92	334.08
702.25	332.73
702.59	331.38
702.92	330.04
703.26	328.74
703.59	327.45
703.93	326.31
704.26	325.05
704.60	323.77
704.93	322.52
705.26	321.30
705.60	320.17
705.93	319.03
706.27	317.96
706.60	316.90
706.94	315.83
707.27	314.74
707.61	313.69
707.94	312.66
708.27	311.52
708.61	310.48
708.94	309.49
709.28	308.51
709.61	307.54
709.94	306.63
710.28	305.60
710.61	304.64
710.95	303.57
711.28	302.69
711.61	301.73
711.95	300.84
712.28	299.86
712.61	298.88
712.95	297.96
713.28	297.11
713.61	296.21
713.95	295.35
714.28	294.45
714.61	293.61
714.95	292.80
715.28	291.98
715.61	291.08
715.95	290.24
716.28	289.41
716.61	288.62
716.95	287.78
717.28	287.08
717.61	286.32
717.94	285.58
718.28	284.80
718.61	284.10
718.94	283.42
719.27	282.79
719.61	282.15
719.94	281.51
720.27	280.80
720.60	280.12
720.94	279.49
721.27	278.96
721.60	278.37
721.93	277.77
722.27	277.23
722.60	276.71
722.93	276.09
723.26	275.59
723.59	274.98
723.93	274.49
724.26	273.95
724.59	273.40
724.92	272.88
725.25	272.41
725.59	271.89
725.92	271.37
726.25	270.85
726.58	270.35
726.91	269.85
727.24	269.41
727.57	268.99
727.91	268.46
728.24	267.94
728.57	267.47
728.90	267.01
729.23	266.50
729.56	266.07
729.89	265.65
730.22	265.08
730.55	264.62
730.89	264.15
731.22	263.69
731.55	263.28
731.88	262.89
732.21	262.42
732.54	261.99
732.87	261.57
733.20	261.16
733.53	260.78
733.86	260.41
734.19	259.95
734.52	259.55
734.85	259.28
735.18	258.92
735.51	258.56
735.84	258.17
736.17	257.81
736.50	257.39
736.83	257.14
737.16	256.84
737.49	256.53
737.82	256.16
738.15	255.83
738.48	255.49
738.81	255.12
739.14	254.79
739.47	254.47
739.80	254.15
740.13	253.86
740.46	253.53
740.79	253.21
741.12	252.93
741.45	252.63
741.78	252.26
742.11	251.96
742.44	251.61
742.77	251.33
743.10	251.00
743.43	250.68
743.75	250.29
744.08	250.12
744.41	249.84
744.74	249.59
745.07	249.32
745.40	249.04
745.73	248.78
746.06	248.52
746.39	248.24
746.71	247.97
747.04	247.67
747.37	247.37
747.70	247.08
748.03	246.80
748.36	246.60
748.68	246.39
749.01	246.12
749.34	245.92
749.67	245.69
750.00	245.52
750.33	245.35
750.65	245.17
750.98	244.82
751.31	244.64
751.64	244.46
751.97	244.28
752.29	244.10
752.62	243.89
752.95	243.68
753.28	243.50
753.60	243.32
753.93	243.17
754.26	243.00
754.59	242.78
754.91	242.61
755.24	242.39
755.57	242.18
755.90	242.02
756.22	241.84
756.55	241.67
756.88	241.47
757.20	241.28
757.53	241.08
757.86	240.93
758.19	240.77
758.51	240.57
758.84	240.38
759.17	240.19
759.49	240.03
759.82	239.88
760.15	239.74
760.47	239.57
760.80	239.39
761.13	239.26
761.45	239.14
761.78	238.98
762.11	238.83
762.43	238.69
762.76	238.55
763.08	238.41
763.41	238.28
763.74	238.18
764.06	238.04
764.39	237.91
764.71	237.77
765.04	237.61
765.37	237.46
765.69	237.30
766.02	237.19
766.34	237.05
766.67	236.92
767.00	236.82
767.32	236.77
767.65	236.75
767.97	236.64
768.30	236.53
768.62	236.44
768.95	236.32
769.27	236.19
769.60	236.09
769.92	235.98
770.25	235.86
770.57	235.69
770.90	235.59
771.22	235.49
771.55	235.39
771.87	235.29
772.20	235.21
772.52	235.21
772.85	235.27
773.17	235.20
773.50	235.09
773.82	234.97
774.15	234.84
774.47	234.65
774.80	234.57
775.12	234.47
775.45	234.37
775.77	234.31
776.09	234.25
776.42	234.16
776.74	234.09
777.07	234.01
777.39	233.98
777.72	233.89
778.04	233.81
778.36	233.74
778.69	233.69
779.01	233.66
779.33	233.54
779.66	233.32
779.98	233.24
780.31	233.18
780.63	233.15
780.95	233.08
781.28	233.04
781.60	232.94
781.92	232.92
782.25	232.87
782.57	232.82
782.89	232.74
783.22	232.68
783.54	232.61
783.86	232.56
784.19	232.46
784.51	232.43
784.83	232.38
785.16	232.34
785.48	232.28
785.80	232.19
786.12	232.11
786.45	232.05
786.77	232.01
787.09	231.98
787.42	231.88
787.74	231.81
788.06	231.77
788.38	231.72
788.71	231.64
789.03	231.59
789.35	231.53
789.67	231.49
789.99	231.45
790.32	231.38
790.64	231.34
790.96	231.40
791.28	231.29
791.61	231.23
791.93	231.18
792.25	231.13
792.57	231.16
792.89	231.11
793.21	231.03
793.54	230.98
793.86	230.90
794.18	230.90
794.50	230.88
794.82	230.85
795.14	230.83
795.47	230.82
795.79	230.78
796.11	230.73
796.43	230.64
796.75	230.62
797.07	230.58
797.39	230.54
797.71	230.43
798.04	230.43
798.36	230.39
798.68	230.37
799.00	230.32
799.32	230.25
799.64	230.24
799.96	230.23
800.28	230.22
800.60	230.20
800.92	230.15
801.24	230.07
801.56	230.06
801.89	230.03
802.21	229.99
802.53	229.95
802.85	229.91
803.17	229.98
803.49	229.95
803.81	229.94
804.13	229.92
804.45	229.87
804.77	229.86
805.09	229.86
805.41	229.82
805.73	229.79
806.05	229.73
806.37	229.71
806.69	229.72
807.01	229.67
807.33	229.67
807.65	229.63
807.97	229.68
808.28	229.62
808.60	229.60
808.92	229.57
809.24	229.62
809.56	229.61
809.88	229.53
810.20	229.50
810.52	229.52
810.84	229.50
811.16	229.46
811.48	229.44
811.80	229.43
812.12	229.40
812.43	229.43
812.75	229.42
813.07	229.37
813.39	229.33
813.71	229.33
814.03	229.28
814.35	229.26
814.67	229.18
814.98	229.16
815.30	229.15
815.62	229.08
815.94	228.98
816.26	228.99
816.58	228.94
816.89	228.91
817.21	228.84
817.53	228.80
817.85	228.83
818.17	228.81
818.48	228.77
818.80	228.77
819.12	228.70
819.44	228.63
819.76	228.60
820.07	228.60
820.39	228.58
820.71	228.58
821.03	228.56
821.34	228.55
821.66	228.53
821.98	228.51
822.30	228.52
822.61	228.56
822.93	228.51
823.25	228.52
823.57	228.51
823.88	228.54
824.20	228.52
824.52	228.49
824.83	228.44
825.15	228.39
825.47	228.38
825.79	228.39
826.10	228.40
826.42	228.41
826.74	228.38
827.05	228.38
827.37	228.36
827.69	228.36
828.00	228.36
828.32	228.35
828.64	228.35
828.95	228.40
829.27	228.35
829.58	228.34
829.90	228.35
830.22	228.31
830.53	228.26
830.85	228.25
831.17	228.20
831.48	228.20
831.80	228.22
832.11	228.20
832.43	228.19
832.75	228.18
833.06	228.20
833.38	228.18
833.69	228.18
834.01	228.18
834.32	228.18
834.64	228.15
834.96	228.16
835.27	228.14
835.59	228.08
835.90	228.07
836.22	228.07
836.53	228.04
836.85	228.03
837.16	228.15
837.48	228.17
837.79	228.21
838.11	228.20
838.42	228.17
838.74	228.18
839.05	228.15
839.37	228.14
839.68	228.11
840.00	228.11
840.31	228.08
840.63	228.06
840.94	228.04
841.26	228.02
841.57	228.03
841.88	228.03
842.20	228.03
842.51	228.03
842.83	228.02
843.14	228.13
843.46	228.16
843.77	228.10
844.08	228.06
844.40	228.03
844.71	228.02
845.03	228.06
845.34	228.03
845.65	228.03
845.97	228.05
846.28	228.02
846.60	227.99
846.91	227.99
847.22	228.01
847.54	228.05
847.85	228.07
848.16	228.01
848.48	228.00
848.79	228.04
849.10	228.02
849.42	228.06
849.73	227.93
850.04	227.92
850.36	227.89
850.67	227.96
850.98	227.97
851.30	227.99
851.61	227.98
851.92	227.99
852.23	228.04
852.55	228.04
852.86	228.07
853.17	228.11
853.49	228.12
853.80	228.09
854.11	228.08
854.42	228.08
854.74	228.11
855.05	228.10
855.36	228.05
855.67	228.09
855.99	228.06
856.30	228.18
856.61	228.16
856.92	228.12
857.23	228.08
857.55	228.02
857.86	228.01
858.17	227.97
858.48	227.92
858.79	227.84
859.11	227.82
859.42	227.79
859.73	227.74
860.04	227.70
860.35	227.67
860.66	227.61
860.98	227.58
861.29	227.58
861.60	227.54
861.91	227.52
862.22	227.47
862.53	227.43
862.84	227.30
863.16	227.32
863.47	227.27
863.78	227.24
864.09	227.25
864.40	227.22
864.71	227.27
865.02	227.29
865.33	227.30
865.64	227.29
865.95	227.27
866.27	227.35
866.58	227.33
866.89	227.32
867.20	227.35
867.51	227.33
867.82	227.30
868.13	227.35
868.44	227.31
868.75	227.32
869.06	227.34
869.37	227.36
869.68	227.32
869.99	227.39
870.30	227.36
870.61	227.36
870.92	227.37
871.23	227.37
871.54	227.41
871.85	227.43
872.16	227.45
872.47	227.44
872.78	227.37
873.09	227.40
873.40	227.42
873.71	227.43
874.02	227.44
874.33	227.44
874.64	227.42
874.95	227.48
875.26	227.44
875.56	227.43
875.87	227.43
876.18	227.41
876.49	227.55
876.80	227.59
877.11	227.60
877.42	227.61
877.73	227.59
878.04	227.54
878.35	227.54
878.66	227.54
878.96	227.57
879.27	227.57
879.58	227.56
879.89	227.56
880.20	227.57
880.51	227.60
880.82	227.61
881.12	227.61
881.43	227.60
881.74	227.62
882.05	227.62
882.36	227.63
882.67	227.68
882.97	227.54
883.28	227.52
883.59	227.52
883.90	227.55
884.21	227.58
884.51	227.61
884.82	227.60
885.13	227.57
885.44	227.55
885.74	227.58
886.05	227.59
886.36	227.61
886.67	227.55
886.98	227.60
887.28	227.63
887.59	227.65
887.90	227.63
888.20	227.62
888.51	227.65
888.82	227.62
889.13	227.59
889.43	227.65
889.74	227.62
890.05	227.63
890.35	227.58
890.66	227.53
890.97	227.49
891.28	227.51
891.58	227.55
891.89	227.55
892.20	227.51
892.50	227.51
892.81	227.47
893.12	227.48
893.42	227.43
893.73	227.39
894.04	227.36
894.34	227.38
894.65	227.39
894.95	227.38
895.26	227.37
895.57	227.39
895.87	227.31
896.18	227.35
896.48	227.35
896.79	227.36
897.10	227.39
897.40	227.39
897.71	227.36
898.01	227.34
898.32	227.34
898.63	227.32
898.93	227.29
899.24	227.29
899.54	227.27
899.85	227.24
900.15	227.24
900.46	227.26
900.76	227.24
901.07	227.21
901.38	227.17
901.68	227.18
901.99	227.14
902.29	227.15
902.60	227.13
902.90	227.08
903.21	227.08
903.51	227.07
903.82	227.08
904.12	227.09
904.43	227.05
904.73	227.03
905.03	227.03
905.34	227.12
905.64	227.11
905.95	227.11
906.25	227.11
906.56	227.11
906.86	227.10
907.17	227.08
907.47	227.10
907.77	227.08
908.08	227.07
908.38	227.05
908.69	227.05
908.99	227.07
909.30	227.09
909.60	227.09
909.90	227.06
910.21	227.03
910.51	227.03
910.81	227.05
911.12	227.10
911.42	227.12
911.73	227.04
912.03	227.07
912.33	227.07
912.64	227.09
912.94	227.07
913.24	227.07
913.55	227.12
913.85	227.09
914.15	227.16
914.46	227.17
914.76	227.20
915.06	227.19
915.37	227.17
915.67	227.15
915.97	227.15
916.27	227.14
916.58	227.18
916.88	227.17
917.18	227.17
917.49	227.25
917.79	227.26
918.09	227.30
918.39	227.34
918.70	227.35
919.00	227.39
919.30	227.45
919.60	227.42
919.91	227.42
920.21	227.46
920.51	227.43
920.81	227.43
921.12	227.45
921.42	227.45
921.72	227.45
922.02	227.49
922.32	227.55
922.63	227.57
922.93	227.61
923.23	227.61
923.53	227.60
923.83	227.52
924.13	227.48
924.44	227.48
924.74	227.49
925.04	227.54
925.34	227.51
925.64	227.48
925.94	227.52
926.24	227.56
926.55	227.53
926.85	227.56
927.15	227.57
927.45	227.57
927.75	227.55
928.05	227.55
928.35	227.52
928.65	227.48
928.95	227.50
929.26	227.43
929.56	227.42
929.86	227.46
930.16	227.46
930.46	227.45
930.76	227.45
931.06	227.41
931.36	227.36
931.66	227.35
931.96	227.33
932.26	227.28
932.56	227.24
932.86	227.23
933.16	227.21
933.46	227.16
933.76	227.12
934.06	227.16
934.36	227.19
934.66	227.19
934.96	227.19
935.26	227.17
935.56	227.22
935.86	227.20
936.16	227.16
936.46	227.12
936.76	227.10
937.06	227.07
937.36	227.04
937.66	227.03
937.96	227.03
938.26	227.00
938.56	227.04
938.86	227.03
939.16	227.04
939.46	227.00
939.76	227.04
940.06	227.04
940.35	227.00
940.65	226.96
940.95	226.98
941.25	226.94
941.55	226.93
941.85	226.89
942.15	226.94
942.45	226.97
942.75	226.98
943.04	227.02
943.34	227.05
943.64	227.07
943.94	227.06
944.24	227.04
944.54	227.06
944.84	227.06
945.13	227.02
945.43	227.00
945.73	227.05
946.03	227.03
946.33	227.03
946.62	227.06
946.92	227.04
947.22	227.03
947.52	227.06
947.82	227.08
948.11	227.11
948.41	227.11
948.71	227.07
949.01	227.06
949.31	227.05
949.60	227.05
949.90	227.07
950.20	227.08
950.50	227.11
950.79	227.10
951.09	227.08
951.39	227.09
951.69	227.07
951.98	227.09
952.28	227.11
952.58	227.12
952.87	227.12
953.17	227.12
953.47	227.10
953.76	227.12
954.06	227.11
954.36	227.09
954.66	227.08
954.95	227.10
955.25	227.10
955.55	227.12
955.84	227.09
956.14	227.10
956.44	227.10
956.73	227.09
957.03	227.11
957.32	227.14
957.62	227.14
957.92	227.22
958.21	227.17
958.51	227.26
958.81	227.29
959.10	227.31
959.40	227.34
959.69	227.36
959.99	227.35
960.29	227.34
960.58	227.32
960.88	227.35
961.17	227.37
961.47	227.41
961.76	227.38
962.06	227.42
962.36	227.42
962.65	227.40
962.95	227.40
963.24	227.41
963.54	227.38
963.83	227.39
964.13	227.35
964.42	227.34
964.72	227.26
965.01	227.21
965.31	227.16
965.60	227.13
965.90	227.18
966.19	227.14
966.49	227.15
966.78	227.17
967.08	227.13
967.37	227.12
967.67	227.05
967.96	227.06
968.26	227.01
968.55	227.00
968.85	227.01
969.14	226.98
969.43	226.96
969.73	226.96
970.02	226.93
970.32	226.92
970.61	226.93
970.91	226.86
971.20	226.84
971.49	226.81
971.79	226.83
972.08	226.74
972.38	226.75
972.67	226.71
972.96	226.68
973.26	226.67
973.55	226.69
973.85	226.69
974.14	226.67
974.43	226.72
974.73	226.66
975.02	226.64
975.31	226.64
975.61	226.63
975.90	226.62
976.19	226.61
976.49	226.62
976.78	226.62
977.07	226.65
977.37	226.69
977.66	226.71
977.95	226.68
978.24	226.70
978.54	226.72
978.83	226.72
979.12	226.71
979.42	226.71
979.71	226.69
980.00	226.68
980.29	226.69
980.59	226.63
980.88	226.68
981.17	226.71
981.46	226.71
981.76	226.73
982.05	226.78
982.34	226.80
982.63	226.79
982.93	226.80
983.22	226.84
983.51	226.85
983.80	226.86
984.09	226.91
984.39	226.93
984.68	226.92
984.97	226.93
985.26	226.97
985.55	226.97
985.85	226.96
986.14	226.99
986.43	227.03
986.72	227.04
987.01	227.04
987.30	227.04
987.59	227.05
987.89	227.03
988.18	227.00
988.47	227.00
988.76	227.03
989.05	227.02
989.34	227.00
989.63	227.01
989.92	227.02
990.22	227.01
990.51	227.04
990.80	227.02
991.09	227.06
991.38	227.05
991.67	227.06
991.96	227.05
992.25	227.05
992.54	227.04
992.83	227.09
993.12	227.09
993.41	227.13
993.70	227.18
993.99	227.23
994.28	227.24
994.58	227.23
994.87	227.22
995.16	227.22
995.45	227.24
995.74	227.20
996.03	227.20
996.32	227.23
996.61	227.24
996.90	227.23
997.19	227.22
997.48	227.23
997.77	227.24
998.06	227.25
998.34	227.23
998.63	227.22
998.92	227.17
999.21	227.18
999.50	227.15
999.79	227.12
1000.08	227.09
1000.37	227.08
1000.66	227.09
1000.95	227.09
1001.24	227.10
1001.53	227.10
1001.82	227.09
1002.11	227.06
1002.40	227.04
1002.68	227.03
1002.97	227.13
1003.26	227.11
1003.55	227.09
1003.84	227.07
1004.13	227.07
1004.42	227.07
1004.71	227.06
1004.99	227.06
1005.28	227.09
1005.57	227.07
1005.86	227.01
1006.15	227.00
1006.44	226.99
1006.72	226.98
1007.01	226.97
1007.30	226.99
1007.59	226.97
1007.88	226.93
1008.17	226.94
1008.45	226.91
1008.74	226.85
1009.03	226.79
1009.32	226.79
1009.60	226.78
1009.89	226.76
1010.18	226.72
1010.47	226.71
1010.76	226.69
1011.04	226.72
1011.33	226.70
1011.62	226.70
1011.91	226.74
1012.19	226.74
1012.48	226.75
1012.77	226.75
1013.05	226.80
1013.34	226.77
1013.63	226.76
1013.92	226.78
1014.20	226.78
1014.49	226.77
1014.78	226.82
1015.06	226.78
1015.35	226.79
1015.64	226.81
1015.92	226.84
1016.21	226.88
1016.50	226.88
1016.78	226.90
1017.07	226.90
1017.36	226.86
1017.64	226.86
1017.93	226.86
1018.22	226.86
1018.50	226.87
1018.79	226.89
1019.08	226.80
1019.36	226.82
1019.65	226.82
1019.93	226.87
1020.22	226.88
1020.51	226.97
1020.79	226.95
1021.08	226.73
1021.36	227.17
1021.65	226.97
1021.94	226.20
1022.22	227.14
1022.51	226.79
1022.79	227.21
1023.08	227.01
1023.36	228.20
1023.65	226.80
>>>>>End Processed Spectral Data<<<<<
