SpectraSuite Data File
++++++++++++++++++++++++++++++++++++
Date: Fri Feb 01 17:05:15 EST 2013
User: group
Dark Spectrum Present: No
Reference Spectrum Present: No
Number of Sampled Component Spectra: 1
Spectrometers: USB2E7196
Integration Time (usec): 35000 (USB2E7196)
Spectra Averaged: 100 (USB2E7196)
Boxcar Smoothing: 10 (USB2E7196)
Correct for Electrical Dark: No (USB2E7196)
Strobe/Lamp Enabled: No (USB2E7196)
Correct for Detector Non-linearity: No (USB2E7196)
Correct for Stray Light: No (USB2E7196)
Number of Pixels in Processed Spectrum: 2048
>>>>>Begin Processed Spectral Data<<<<<
339.09	0.00
339.48	213.38
339.86	215.01
340.24	216.48
340.63	217.64
341.01	220.43
341.39	220.22
341.78	221.66
342.16	222.99
342.54	223.77
342.93	211.95
343.31	222.69
343.69	223.25
344.07	223.73
344.46	224.13
344.84	224.54
345.22	224.77
345.60	225.06
345.99	225.25
346.37	225.38
346.75	225.47
347.13	225.57
347.52	225.64
347.90	225.74
348.28	225.73
348.66	225.77
349.05	225.76
349.43	225.82
349.81	225.82
350.19	225.84
350.57	225.87
350.96	225.95
351.34	226.01
351.72	226.08
352.10	226.15
352.48	226.24
352.87	226.28
353.25	226.35
353.63	226.40
354.01	226.47
354.39	226.53
354.77	226.58
355.15	226.67
355.54	226.72
355.92	226.75
356.30	226.85
356.68	226.98
357.06	227.06
357.44	227.08
357.82	227.15
358.20	227.25
358.58	227.32
358.97	227.35
359.35	227.40
359.73	227.47
360.11	227.52
360.49	227.54
360.87	227.57
361.25	227.63
361.63	227.67
362.01	227.71
362.39	227.73
362.77	227.79
363.15	227.82
363.53	227.84
363.91	227.88
364.29	227.86
364.67	227.77
365.05	227.79
365.43	227.82
365.81	227.83
366.19	227.88
366.57	227.86
366.95	227.85
367.33	227.83
367.71	227.80
368.09	227.81
368.47	227.81
368.85	227.79
369.23	227.80
369.61	227.76
369.99	227.74
370.37	227.74
370.75	227.72
371.13	227.64
371.51	227.58
371.89	227.54
372.27	227.52
372.65	227.50
373.03	227.44
373.41	227.38
373.78	227.38
374.16	227.23
374.54	227.20
374.92	227.13
375.30	227.07
375.68	226.99
376.06	226.91
376.44	226.84
376.82	226.81
377.19	226.72
377.57	226.61
377.95	226.52
378.33	226.47
378.71	226.37
379.09	226.33
379.47	226.29
379.84	226.20
380.22	226.09
380.60	226.01
380.98	225.94
381.36	225.89
381.73	225.80
382.11	225.79
382.49	225.72
382.87	225.68
383.25	225.63
383.62	225.67
384.00	225.61
384.38	225.58
384.76	225.53
385.13	225.50
385.51	225.46
385.89	225.38
386.27	225.34
386.64	225.30
387.02	225.25
387.40	225.18
387.78	225.13
388.15	225.14
388.53	225.10
388.91	225.06
389.29	225.00
389.66	224.97
390.04	224.93
390.42	224.90
390.79	224.88
391.17	224.84
391.55	224.77
391.92	224.75
392.30	224.74
392.68	224.73
393.05	224.75
393.43	224.79
393.81	224.82
394.18	224.81
394.56	224.82
394.94	224.85
395.31	224.86
395.69	224.92
396.06	224.98
396.44	225.03
396.82	225.04
397.19	225.16
397.57	225.18
397.95	225.22
398.32	225.23
398.70	225.30
399.07	225.39
399.45	225.46
399.82	225.51
400.20	225.56
400.58	225.60
400.95	225.61
401.33	225.66
401.70	225.83
402.08	225.88
402.45	225.96
402.83	226.07
403.20	226.18
403.58	226.24
403.95	226.33
404.33	226.47
404.71	226.57
405.08	226.76
405.46	226.89
405.83	227.06
406.21	227.21
406.58	227.35
406.96	227.48
407.33	227.61
407.70	227.81
408.08	228.05
408.45	228.30
408.83	228.54
409.20	228.78
409.58	228.94
409.95	229.21
410.33	229.47
410.70	229.72
411.08	230.01
411.45	230.33
411.82	230.61
412.20	230.92
412.57	231.35
412.95	231.58
413.32	232.02
413.69	232.42
414.07	232.86
414.44	233.30
414.82	233.76
415.19	234.32
415.56	234.89
415.94	235.43
416.31	236.04
416.68	236.65
417.06	237.36
417.43	238.05
417.81	238.82
418.18	239.59
418.55	240.42
418.93	241.27
419.30	242.17
419.67	243.08
420.04	244.05
420.42	245.03
420.79	246.23
421.16	247.36
421.54	248.54
421.91	249.75
422.28	251.02
422.66	252.36
423.03	253.62
423.40	254.91
423.77	256.29
424.15	257.70
424.52	259.21
424.89	260.80
425.26	262.32
425.64	263.74
426.01	265.31
426.38	266.95
426.75	268.62
427.13	270.35
427.50	272.16
427.87	274.01
428.24	275.83
428.61	277.58
428.99	279.49
429.36	281.56
429.73	283.58
430.10	285.58
430.47	287.63
430.85	289.76
431.22	291.98
431.59	294.38
431.96	296.59
432.33	299.04
432.70	301.43
433.08	304.21
433.45	306.86
433.82	309.44
434.19	312.31
434.56	315.08
434.93	317.65
435.30	320.27
435.68	323.16
436.05	326.00
436.42	328.73
436.79	331.20
437.16	333.87
437.53	336.71
437.90	339.48
438.27	342.17
438.64	344.98
439.01	347.53
439.38	349.76
439.75	351.96
440.13	354.43
440.50	356.73
440.87	358.57
441.24	360.48
441.61	362.67
441.98	364.14
442.35	365.96
442.72	367.87
443.09	369.67
443.46	370.65
443.83	371.23
444.20	371.78
444.57	372.64
444.94	372.97
445.31	373.33
445.68	373.75
446.05	373.83
446.42	373.44
446.79	373.03
447.16	372.57
447.53	372.22
447.90	371.10
448.27	369.90
448.64	368.35
449.01	367.22
449.37	365.25
449.74	363.39
450.11	361.20
450.48	358.75
450.85	356.27
451.22	354.16
451.59	352.23
451.96	350.28
452.33	347.74
452.70	345.36
453.07	342.53
453.43	339.64
453.80	336.90
454.17	334.26
454.54	331.76
454.91	329.06
455.28	326.47
455.65	323.99
456.02	321.60
456.38	319.46
456.75	316.82
457.12	314.62
457.49	312.42
457.86	310.24
458.23	308.41
458.59	306.33
458.96	304.24
459.33	302.31
459.70	300.48
460.07	298.97
460.43	297.25
460.80	295.62
461.17	294.23
461.54	292.75
461.91	291.35
462.27	289.91
462.64	288.71
463.01	287.34
463.38	286.06
463.74	284.74
464.11	283.58
464.48	282.58
464.85	281.45
465.21	280.60
465.58	279.69
465.95	278.64
466.32	277.77
466.68	276.90
467.05	276.06
467.42	275.14
467.78	274.21
468.15	273.38
468.52	272.75
468.88	271.87
469.25	271.12
469.62	270.52
469.98	269.89
470.35	269.27
470.72	268.68
471.08	268.01
471.45	267.46
471.82	266.96
472.18	266.38
472.55	265.99
472.92	265.44
473.28	264.98
473.65	264.48
474.02	264.02
474.38	263.70
474.75	263.39
475.11	263.06
475.48	262.82
475.85	262.62
476.21	262.38
476.58	262.21
476.94	262.07
477.31	261.89
477.67	261.74
478.04	261.61
478.41	261.53
478.77	261.60
479.14	261.51
479.50	261.53
479.87	261.59
480.23	261.62
480.60	261.71
480.96	261.81
481.33	262.03
481.69	262.26
482.06	262.43
482.42	262.60
482.79	262.86
483.15	263.17
483.52	263.56
483.88	263.92
484.25	264.30
484.61	264.74
484.98	265.21
485.34	265.78
485.71	266.41
486.07	267.04
486.44	267.60
486.80	268.32
487.17	269.06
487.53	269.88
487.90	270.75
488.26	271.67
488.62	272.66
488.99	273.66
489.35	274.70
489.72	275.81
490.08	277.03
490.44	278.28
490.81	279.62
491.17	280.93
491.54	282.42
491.90	284.01
492.26	285.66
492.63	287.41
492.99	289.11
493.36	291.00
493.72	293.03
494.08	295.10
494.45	297.33
494.81	299.69
495.17	302.09
495.54	304.67
495.90	307.39
496.26	310.15
496.63	313.04
496.99	316.14
497.35	319.39
497.72	322.82
498.08	326.31
498.44	329.94
498.80	333.90
499.17	337.94
499.53	342.08
499.89	346.42
500.26	350.87
500.62	355.50
500.98	360.38
501.34	365.43
501.71	370.74
502.07	376.13
502.43	381.69
502.79	387.50
503.16	393.55
503.52	399.76
503.88	406.16
504.24	412.78
504.60	419.64
504.97	426.66
505.33	433.92
505.69	441.54
506.05	449.29
506.41	457.05
506.78	465.13
507.14	473.52
507.50	482.10
507.86	491.01
508.22	500.18
508.59	509.39
508.95	518.81
509.31	528.55
509.67	538.58
510.03	548.65
510.39	558.99
510.75	569.65
511.12	580.42
511.48	591.51
511.84	602.78
512.20	614.14
512.56	626.03
512.92	637.97
513.28	650.17
513.64	662.36
514.00	674.93
514.37	687.62
514.73	700.42
515.09	713.27
515.45	726.33
515.81	739.70
516.17	753.32
516.53	767.20
516.89	781.15
517.25	795.08
517.61	809.30
517.97	823.55
518.33	837.67
518.69	852.14
519.05	866.82
519.41	881.73
519.77	896.93
520.13	911.96
520.49	927.03
520.85	942.04
521.21	957.45
521.57	973.20
521.93	988.66
522.29	1004.69
522.65	1020.64
523.01	1036.57
523.37	1052.25
523.73	1068.08
524.09	1083.82
524.45	1099.75
524.81	1116.00
525.17	1132.35
525.53	1148.86
525.89	1165.35
526.25	1181.89
526.61	1197.93
526.97	1214.23
527.33	1230.35
527.68	1246.55
528.04	1262.62
528.40	1278.76
528.76	1295.52
529.12	1311.82
529.48	1328.23
529.84	1343.71
530.20	1359.90
530.56	1376.43
530.91	1393.41
531.27	1409.80
531.63	1425.93
531.99	1442.01
532.35	1457.56
532.71	1473.18
533.07	1489.16
533.42	1504.69
533.78	1520.35
534.14	1536.25
534.50	1551.31
534.86	1566.66
535.21	1581.55
535.57	1597.11
535.93	1612.26
536.29	1626.68
536.65	1641.36
537.00	1655.68
537.36	1670.89
537.72	1685.12
538.08	1699.27
538.44	1712.81
538.79	1726.39
539.15	1739.50
539.51	1752.90
539.87	1766.96
540.22	1780.33
540.58	1793.67
540.94	1806.63
541.29	1819.14
541.65	1831.41
542.01	1844.22
542.37	1856.41
542.72	1868.46
543.08	1879.89
543.44	1892.13
543.79	1903.04
544.15	1913.86
544.51	1925.25
544.87	1935.82
545.22	1946.33
545.58	1956.33
545.94	1965.76
546.29	1975.47
546.65	1985.40
547.01	1994.46
547.36	2003.01
547.72	2011.23
548.07	2018.92
548.43	2026.91
548.79	2034.71
549.14	2042.24
549.50	2049.51
549.86	2056.96
550.21	2064.24
550.57	2071.42
550.92	2077.88
551.28	2084.89
551.64	2091.73
551.99	2098.28
552.35	2104.43
552.70	2110.49
553.06	2116.44
553.41	2122.76
553.77	2128.69
554.13	2134.63
554.48	2140.85
554.84	2146.40
555.19	2151.75
555.55	2156.96
555.90	2161.55
556.26	2166.55
556.61	2171.14
556.97	2175.51
557.32	2179.63
557.68	2183.81
558.03	2188.09
558.39	2191.68
558.74	2196.31
559.10	2200.26
559.45	2203.95
559.81	2208.31
560.16	2212.24
560.52	2215.50
560.87	2218.89
561.23	2221.59
561.58	2224.49
561.94	2227.01
562.29	2229.32
562.64	2232.30
563.00	2234.79
563.35	2238.24
563.71	2241.40
564.06	2244.87
564.42	2247.94
564.77	2250.66
565.12	2253.18
565.48	2255.30
565.83	2257.53
566.19	2259.16
566.54	2260.13
566.89	2261.40
567.25	2262.13
567.60	2263.52
567.96	2265.38
568.31	2266.47
568.66	2267.75
569.02	2268.69
569.37	2269.38
569.72	2270.42
570.08	2270.69
570.43	2271.20
570.78	2270.95
571.14	2269.64
571.49	2268.41
571.84	2268.13
572.20	2267.37
572.55	2266.43
572.90	2264.96
573.26	2263.79
573.61	2262.18
573.96	2260.81
574.31	2258.19
574.67	2255.46
575.02	2252.09
575.37	2248.94
575.72	2245.46
576.08	2242.29
576.43	2239.08
576.78	2235.60
577.13	2232.61
577.49	2229.56
577.84	2226.17
578.19	2222.60
578.54	2219.41
578.90	2215.44
579.25	2210.23
579.60	2205.45
579.95	2200.57
580.30	2195.75
580.66	2190.67
581.01	2185.84
581.36	2181.06
581.71	2177.05
582.06	2172.94
582.42	2168.77
582.77	2163.66
583.12	2159.35
583.47	2155.06
583.82	2150.44
584.17	2145.54
584.53	2140.24
584.88	2134.84
585.23	2129.46
585.58	2124.21
585.93	2118.64
586.28	2114.00
586.63	2109.06
586.98	2104.07
587.34	2099.60
587.69	2094.97
588.04	2090.08
588.39	2084.65
588.74	2078.46
589.09	2072.48
589.44	2065.81
589.79	2059.85
590.14	2054.56
590.49	2048.02
590.84	2041.57
591.19	2035.62
591.54	2029.26
591.89	2022.31
592.25	2015.74
592.60	2008.69
592.95	2001.49
593.30	1994.47
593.65	1987.16
594.00	1980.27
594.35	1973.27
594.70	1965.46
595.05	1958.52
595.40	1951.25
595.75	1943.95
596.10	1937.99
596.45	1931.37
596.80	1925.32
597.15	1919.04
597.50	1912.28
597.85	1906.02
598.19	1899.63
598.54	1892.81
598.89	1886.20
599.24	1880.39
599.59	1873.99
599.94	1867.81
600.29	1861.44
600.64	1855.11
600.99	1847.92
601.34	1841.34
601.69	1834.47
602.04	1827.73
602.39	1820.41
602.74	1813.77
603.08	1807.18
603.43	1800.55
603.78	1793.37
604.13	1786.30
604.48	1779.17
604.83	1772.31
605.18	1765.63
605.53	1757.98
605.87	1749.99
606.22	1742.80
606.57	1735.00
606.92	1727.57
607.27	1720.74
607.62	1714.06
607.96	1706.89
608.31	1700.46
608.66	1692.86
609.01	1685.49
609.36	1678.12
609.70	1670.50
610.05	1662.67
610.40	1655.14
610.75	1646.90
611.10	1639.48
611.44	1631.18
611.79	1623.22
612.14	1614.63
612.49	1605.53
612.83	1597.01
613.18	1589.04
613.53	1581.10
613.88	1572.61
614.22	1564.45
614.57	1555.71
614.92	1547.61
615.27	1540.20
615.61	1531.85
615.96	1523.99
616.31	1516.32
616.65	1509.00
617.00	1501.29
617.35	1493.58
617.70	1485.45
618.04	1477.05
618.39	1468.70
618.74	1461.25
619.08	1453.04
619.43	1445.53
619.78	1438.69
620.12	1431.67
620.47	1424.29
620.82	1416.20
621.16	1408.77
621.51	1401.26
621.85	1393.76
622.20	1385.38
622.55	1376.79
622.89	1368.95
623.24	1361.13
623.59	1353.77
623.93	1346.27
624.28	1339.19
624.62	1331.77
624.97	1324.55
625.32	1317.72
625.66	1310.79
626.01	1303.61
626.35	1296.22
626.70	1288.48
627.04	1280.77
627.39	1272.99
627.73	1265.46
628.08	1258.55
628.43	1251.34
628.77	1244.04
629.12	1236.50
629.46	1229.43
629.81	1222.03
630.15	1214.92
630.50	1207.79
630.84	1199.66
631.19	1191.69
631.53	1184.05
631.88	1176.51
632.22	1168.93
632.57	1161.66
632.91	1154.20
633.26	1146.83
633.60	1139.40
633.95	1132.22
634.29	1125.09
634.64	1118.51
634.98	1111.22
635.32	1104.15
635.67	1097.57
636.01	1090.93
636.36	1084.25
636.70	1077.69
637.05	1071.27
637.39	1064.74
637.73	1058.16
638.08	1052.35
638.42	1046.40
638.77	1040.11
639.11	1033.67
639.45	1027.27
639.80	1020.62
640.14	1014.20
640.49	1007.65
640.83	1001.46
641.17	995.25
641.52	988.97
641.86	982.44
642.20	976.66
642.55	970.32
642.89	963.88
643.23	957.33
643.58	951.54
643.92	945.39
644.26	939.45
644.61	933.41
644.95	927.49
645.29	920.99
645.64	914.40
645.98	908.10
646.32	902.05
646.66	896.10
647.01	890.49
647.35	884.92
647.69	879.11
648.04	873.58
648.38	867.91
648.72	862.03
649.06	856.09
649.41	850.24
649.75	844.29
650.09	838.44
650.43	832.72
650.78	826.62
651.12	820.71
651.46	815.04
651.80	809.46
652.14	804.09
652.49	798.74
652.83	793.60
653.17	787.99
653.51	782.46
653.85	776.99
654.20	771.40
654.54	765.43
654.88	759.76
655.22	753.90
655.56	748.21
655.90	742.72
656.25	737.53
656.59	732.18
656.93	727.16
657.27	722.03
657.61	716.67
657.95	711.60
658.29	706.63
658.64	701.33
658.98	695.97
659.32	690.52
659.66	685.39
660.00	680.05
660.34	675.14
660.68	670.24
661.02	665.31
661.36	660.64
661.70	656.15
662.05	651.82
662.39	647.54
662.73	643.09
663.07	638.88
663.41	634.44
663.75	629.98
664.09	625.48
664.43	621.12
664.77	617.05
665.11	612.84
665.45	608.68
665.79	604.64
666.13	600.62
666.47	596.57
666.81	592.41
667.15	588.33
667.49	584.38
667.83	580.53
668.17	576.61
668.51	572.49
668.85	568.47
669.19	564.62
669.53	560.83
669.87	557.07
670.21	553.33
670.55	549.71
670.89	546.35
671.23	542.94
671.57	539.40
671.91	535.86
672.25	532.31
672.58	528.86
672.92	525.44
673.26	522.24
673.60	519.11
673.94	516.07
674.28	513.13
674.62	510.24
674.96	507.17
675.30	504.25
675.64	501.33
675.97	498.61
676.31	495.80
676.65	492.87
676.99	490.14
677.33	487.30
677.67	484.47
678.01	481.42
678.34	478.43
678.68	475.61
679.02	472.77
679.36	469.98
679.70	467.24
680.04	464.52
680.37	461.67
680.71	458.87
681.05	456.22
681.39	453.52
681.73	450.85
682.06	448.34
682.40	445.84
682.74	443.33
683.08	440.75
683.42	438.11
683.75	435.61
684.09	433.06
684.43	430.55
684.77	428.09
685.10	425.71
685.44	423.43
685.78	421.08
686.12	418.85
686.45	416.60
686.79	414.33
687.13	412.11
687.46	409.93
687.80	407.79
688.14	405.55
688.48	403.50
688.81	401.28
689.15	399.13
689.49	396.95
689.82	394.92
690.16	392.78
690.50	390.88
690.83	388.92
691.17	386.89
691.51	385.05
691.84	383.22
692.18	381.35
692.52	379.41
692.85	377.53
693.19	375.72
693.52	373.83
693.86	371.99
694.20	370.25
694.53	368.50
694.87	366.65
695.21	364.86
695.54	363.05
695.88	361.29
696.21	359.60
696.55	357.95
696.88	356.24
697.22	354.57
697.56	352.89
697.89	351.25
698.23	349.68
698.56	348.06
698.90	346.47
699.23	344.85
699.57	343.28
699.90	341.72
700.24	340.12
700.58	338.66
700.91	337.17
701.25	335.73
701.58	334.35
701.92	333.02
702.25	331.67
702.59	330.30
702.92	329.04
703.26	327.74
703.59	326.48
703.93	325.30
704.26	324.13
704.60	322.86
704.93	321.59
705.26	320.31
705.60	319.12
705.93	317.98
706.27	316.93
706.60	315.87
706.94	314.81
707.27	313.68
707.61	312.63
707.94	311.59
708.27	310.48
708.61	309.41
708.94	308.41
709.28	307.42
709.61	306.51
709.94	305.53
710.28	304.50
710.61	303.49
710.95	302.42
711.28	301.50
711.61	300.55
711.95	299.67
712.28	298.78
712.61	297.82
712.95	296.91
713.28	296.01
713.61	295.07
713.95	294.16
714.28	293.32
714.61	292.45
714.95	291.59
715.28	290.76
715.61	289.88
715.95	288.98
716.28	288.12
716.61	287.26
716.95	286.44
717.28	285.70
717.61	284.92
717.94	284.15
718.28	283.34
718.61	282.62
718.94	281.91
719.27	281.23
719.61	280.56
719.94	279.85
720.27	279.10
720.60	278.47
720.94	277.84
721.27	277.24
721.60	276.66
721.93	276.06
722.27	275.48
722.60	274.90
722.93	274.36
723.26	273.83
723.59	273.26
723.93	272.69
724.26	272.13
724.59	271.56
724.92	271.01
725.25	270.53
725.59	270.02
725.92	269.51
726.25	269.00
726.58	268.46
726.91	267.97
727.24	267.54
727.57	267.05
727.91	266.55
728.24	266.07
728.57	265.57
728.90	265.12
729.23	264.61
729.56	264.20
729.89	263.72
730.22	263.22
730.55	262.76
730.89	262.31
731.22	261.87
731.55	261.47
731.88	261.07
732.21	260.60
732.54	260.14
732.87	259.70
733.20	259.29
733.53	258.95
733.86	258.60
734.19	258.17
734.52	257.82
734.85	257.51
735.18	257.10
735.51	256.75
735.84	256.37
736.17	256.06
736.50	255.63
736.83	255.41
737.16	255.08
737.49	254.74
737.82	254.39
738.15	254.08
738.48	253.70
738.81	253.37
739.14	253.06
739.47	252.76
739.80	252.47
740.13	252.16
740.46	251.82
740.79	251.48
741.12	251.19
741.45	250.86
741.78	250.50
742.11	250.26
742.44	249.92
742.77	249.64
743.10	249.37
743.43	249.12
743.75	248.74
744.08	248.58
744.41	248.31
744.74	248.06
745.07	247.78
745.40	247.59
745.73	247.36
746.06	247.09
746.39	246.83
746.71	246.52
747.04	246.27
747.37	246.01
747.70	245.77
748.03	245.53
748.36	245.29
748.68	245.09
749.01	244.80
749.34	244.60
749.67	244.39
750.00	244.16
750.33	243.95
750.65	243.74
750.98	243.43
751.31	243.21
751.64	243.01
751.97	242.83
752.29	242.62
752.62	242.37
752.95	242.17
753.28	241.96
753.60	241.77
753.93	241.58
754.26	241.38
754.59	241.15
754.91	240.95
755.24	240.76
755.57	240.54
755.90	240.37
756.22	240.15
756.55	239.93
756.88	239.74
757.20	239.52
757.53	239.30
757.86	239.12
758.19	238.96
758.51	238.76
758.84	238.57
759.17	238.35
759.49	238.18
759.82	238.08
760.15	237.96
760.47	237.83
760.80	237.68
761.13	237.55
761.45	237.41
761.78	237.24
762.11	237.11
762.43	236.96
762.76	236.86
763.08	236.73
763.41	236.63
763.74	236.50
764.06	236.39
764.39	236.29
764.71	236.15
765.04	236.00
765.37	235.88
765.69	235.74
766.02	235.64
766.34	235.53
766.67	235.35
767.00	235.25
767.32	235.18
767.65	235.13
767.97	235.00
768.30	234.91
768.62	234.80
768.95	234.67
769.27	234.56
769.60	234.43
769.92	234.30
770.25	234.18
770.57	234.06
770.90	233.94
771.22	233.78
771.55	233.69
771.87	233.63
772.20	233.53
772.52	233.55
772.85	233.57
773.17	233.51
773.50	233.44
773.82	233.31
774.15	233.17
774.47	232.99
774.80	232.90
775.12	232.80
775.45	232.73
775.77	232.67
776.09	232.59
776.42	232.52
776.74	232.47
777.07	232.39
777.39	232.31
777.72	232.24
778.04	232.21
778.36	232.12
778.69	232.05
779.01	231.97
779.33	231.80
779.66	231.62
779.98	231.53
780.31	231.47
780.63	231.46
780.95	231.41
781.28	231.38
781.60	231.31
781.92	231.27
782.25	231.17
782.57	231.12
782.89	231.11
783.22	231.04
783.54	231.00
783.86	230.94
784.19	230.89
784.51	230.84
784.83	230.77
785.16	230.73
785.48	230.67
785.80	230.66
786.12	230.61
786.45	230.56
786.77	230.49
787.09	230.43
787.42	230.33
787.74	230.29
788.06	230.24
788.38	230.20
788.71	230.13
789.03	230.12
789.35	230.08
789.67	229.98
789.99	229.95
790.32	229.88
790.64	229.84
790.96	229.86
791.28	229.80
791.61	229.74
791.93	229.68
792.25	229.61
792.57	229.62
792.89	229.57
793.21	229.55
793.54	229.48
793.86	229.45
794.18	229.43
794.50	229.35
794.82	229.28
795.14	229.26
795.47	229.23
795.79	229.21
796.11	229.15
796.43	229.14
796.75	229.09
797.07	229.03
797.39	229.00
797.71	228.92
798.04	228.88
798.36	228.87
798.68	228.82
799.00	228.78
799.32	228.68
799.64	228.66
799.96	228.60
800.28	228.58
800.60	228.50
800.92	228.46
801.24	228.44
801.56	228.41
801.89	228.38
802.21	228.37
802.53	228.27
802.85	228.22
803.17	228.24
803.49	228.17
803.81	228.13
804.13	228.07
804.45	228.03
804.77	227.98
805.09	227.95
805.41	227.91
805.73	227.87
806.05	227.84
806.37	227.79
806.69	227.76
807.01	227.74
807.33	227.73
807.65	227.69
807.97	227.73
808.28	227.67
808.60	227.64
808.92	227.60
809.24	227.66
809.56	227.62
809.88	227.54
810.20	227.52
810.52	227.55
810.84	227.54
811.16	227.48
811.48	227.45
811.80	227.46
812.12	227.44
812.43	227.43
812.75	227.41
813.07	227.38
813.39	227.37
813.71	227.39
814.03	227.36
814.35	227.35
814.67	227.26
814.98	227.24
815.30	227.20
815.62	227.20
815.94	227.12
816.26	227.14
816.58	227.14
816.89	227.16
817.21	227.10
817.53	227.09
817.85	227.09
818.17	227.10
818.48	227.05
818.80	227.08
819.12	227.05
819.44	227.03
819.76	227.00
820.07	227.00
820.39	226.96
820.71	226.95
821.03	226.93
821.34	226.95
821.66	226.97
821.98	226.97
822.30	226.93
822.61	226.97
822.93	226.94
823.25	226.89
823.57	226.85
823.88	226.88
824.20	226.87
824.52	226.91
824.83	226.87
825.15	226.84
825.47	226.81
825.79	226.84
826.10	226.83
826.42	226.83
826.74	226.78
827.05	226.78
827.37	226.77
827.69	226.74
828.00	226.73
828.32	226.69
828.64	226.66
828.95	226.70
829.27	226.67
829.58	226.66
829.90	226.66
830.22	226.66
830.53	226.60
830.85	226.56
831.17	226.49
831.48	226.47
831.80	226.48
832.11	226.45
832.43	226.42
832.75	226.41
833.06	226.44
833.38	226.41
833.69	226.37
834.01	226.37
834.32	226.36
834.64	226.34
834.96	226.35
835.27	226.32
835.59	226.27
835.90	226.20
836.22	226.21
836.53	226.21
836.85	226.20
837.16	226.29
837.48	226.28
837.79	226.32
838.11	226.33
838.42	226.29
838.74	226.29
839.05	226.27
839.37	226.23
839.68	226.14
840.00	226.13
840.31	226.12
840.63	226.12
840.94	226.08
841.26	226.03
841.57	226.04
841.88	226.03
842.20	226.00
842.51	225.99
842.83	225.97
843.14	225.99
843.46	225.97
843.77	225.91
844.08	225.91
844.40	225.85
844.71	225.83
845.03	225.84
845.34	225.80
845.65	225.77
845.97	225.78
846.28	225.78
846.60	225.77
846.91	225.78
847.22	225.75
847.54	225.75
847.85	225.75
848.16	225.72
848.48	225.72
848.79	225.76
849.10	225.76
849.42	225.72
849.73	225.66
850.04	225.66
850.36	225.62
850.67	225.64
850.98	225.67
851.30	225.68
851.61	225.68
851.92	225.71
852.23	225.76
852.55	225.75
852.86	225.76
853.17	225.80
853.49	225.84
853.80	225.87
854.11	225.91
854.42	225.91
854.74	225.91
855.05	225.95
855.36	225.91
855.67	225.92
855.99	225.97
856.30	226.10
856.61	226.08
856.92	226.08
857.23	226.05
857.55	226.01
857.86	225.99
858.17	226.00
858.48	225.99
858.79	225.98
859.11	226.02
859.42	226.01
859.73	226.01
860.04	225.99
860.35	225.99
860.66	225.98
860.98	225.98
861.29	226.01
861.60	225.99
861.91	226.02
862.22	226.02
862.53	225.99
862.84	225.86
863.16	225.91
863.47	225.89
863.78	225.92
864.09	225.95
864.40	225.99
864.71	225.97
865.02	226.00
865.33	225.98
865.64	225.93
865.95	225.94
866.27	225.98
866.58	225.97
866.89	225.96
867.20	225.94
867.51	225.94
867.82	225.92
868.13	225.95
868.44	225.92
868.75	225.93
869.06	225.96
869.37	225.97
869.68	225.95
869.99	225.98
870.30	225.96
870.61	225.91
870.92	225.88
871.23	225.87
871.54	225.85
871.85	225.89
872.16	225.92
872.47	225.87
872.78	225.80
873.09	225.79
873.40	225.78
873.71	225.77
874.02	225.76
874.33	225.73
874.64	225.70
874.95	225.73
875.26	225.73
875.56	225.70
875.87	225.66
876.18	225.61
876.49	225.70
876.80	225.65
877.11	225.69
877.42	225.68
877.73	225.71
878.04	225.69
878.35	225.66
878.66	225.61
878.96	225.62
879.27	225.61
879.58	225.60
879.89	225.56
880.20	225.56
880.51	225.54
880.82	225.55
881.12	225.51
881.43	225.46
881.74	225.42
882.05	225.40
882.36	225.42
882.67	225.43
882.97	225.31
883.28	225.34
883.59	225.33
883.90	225.32
884.21	225.30
884.51	225.28
884.82	225.28
885.13	225.33
885.44	225.31
885.74	225.34
886.05	225.32
886.36	225.34
886.67	225.29
886.98	225.37
887.28	225.38
887.59	225.37
887.90	225.39
888.20	225.38
888.51	225.40
888.82	225.37
889.13	225.38
889.43	225.44
889.74	225.44
890.05	225.44
890.35	225.47
890.66	225.46
890.97	225.46
891.28	225.45
891.58	225.43
891.89	225.46
892.20	225.45
892.50	225.45
892.81	225.44
893.12	225.44
893.42	225.36
893.73	225.37
894.04	225.39
894.34	225.38
894.65	225.40
894.95	225.38
895.26	225.40
895.57	225.47
895.87	225.38
896.18	225.38
896.48	225.39
896.79	225.38
897.10	225.40
897.40	225.41
897.71	225.43
898.01	225.42
898.32	225.42
898.63	225.42
898.93	225.42
899.24	225.45
899.54	225.48
899.85	225.49
900.15	225.47
900.46	225.47
900.76	225.48
901.07	225.46
901.38	225.45
901.68	225.46
901.99	225.38
902.29	225.39
902.60	225.38
902.90	225.37
903.21	225.34
903.51	225.34
903.82	225.37
904.12	225.37
904.43	225.38
904.73	225.37
905.03	225.36
905.34	225.46
905.64	225.41
905.95	225.40
906.25	225.42
906.56	225.42
906.86	225.41
907.17	225.43
907.47	225.46
907.77	225.48
908.08	225.47
908.38	225.48
908.69	225.50
908.99	225.53
909.30	225.51
909.60	225.50
909.90	225.49
910.21	225.42
910.51	225.41
910.81	225.41
911.12	225.42
911.42	225.41
911.73	225.34
912.03	225.40
912.33	225.40
912.64	225.39
912.94	225.35
913.24	225.32
913.55	225.28
913.85	225.27
914.15	225.27
914.46	225.28
914.76	225.27
915.06	225.27
915.37	225.24
915.67	225.24
915.97	225.25
916.27	225.24
916.58	225.25
916.88	225.23
917.18	225.20
917.49	225.25
917.79	225.25
918.09	225.25
918.39	225.21
918.70	225.23
919.00	225.24
919.30	225.29
919.60	225.28
919.91	225.28
920.21	225.26
920.51	225.24
920.81	225.25
921.12	225.25
921.42	225.23
921.72	225.24
922.02	225.25
922.32	225.24
922.63	225.25
922.93	225.32
923.23	225.35
923.53	225.37
923.83	225.33
924.13	225.34
924.44	225.35
924.74	225.38
925.04	225.39
925.34	225.38
925.64	225.36
925.94	225.38
926.24	225.41
926.55	225.42
926.85	225.47
927.15	225.47
927.45	225.49
927.75	225.49
928.05	225.46
928.35	225.47
928.65	225.53
928.95	225.52
929.26	225.49
929.56	225.50
929.86	225.49
930.16	225.49
930.46	225.48
930.76	225.48
931.06	225.45
931.36	225.40
931.66	225.44
931.96	225.48
932.26	225.48
932.56	225.43
932.86	225.44
933.16	225.39
933.46	225.35
933.76	225.36
934.06	225.37
934.36	225.43
934.66	225.44
934.96	225.39
935.26	225.42
935.56	225.42
935.86	225.41
936.16	225.38
936.46	225.35
936.76	225.35
937.06	225.32
937.36	225.30
937.66	225.29
937.96	225.26
938.26	225.20
938.56	225.19
938.86	225.22
939.16	225.24
939.46	225.26
939.76	225.28
940.06	225.28
940.35	225.28
940.65	225.23
940.95	225.22
941.25	225.21
941.55	225.18
941.85	225.16
942.15	225.16
942.45	225.21
942.75	225.21
943.04	225.19
943.34	225.22
943.64	225.21
943.94	225.23
944.24	225.24
944.54	225.24
944.84	225.25
945.13	225.25
945.43	225.24
945.73	225.24
946.03	225.22
946.33	225.19
946.62	225.19
946.92	225.16
947.22	225.17
947.52	225.17
947.82	225.17
948.11	225.18
948.41	225.16
948.71	225.12
949.01	225.13
949.31	225.13
949.60	225.13
949.90	225.18
950.20	225.16
950.50	225.18
950.79	225.18
951.09	225.17
951.39	225.16
951.69	225.14
951.98	225.16
952.28	225.16
952.58	225.16
952.87	225.14
953.17	225.17
953.47	225.15
953.76	225.15
954.06	225.16
954.36	225.12
954.66	225.11
954.95	225.14
955.25	225.16
955.55	225.21
955.84	225.18
956.14	225.17
956.44	225.17
956.73	225.12
957.03	225.14
957.32	225.16
957.62	225.15
957.92	225.16
958.21	225.15
958.51	225.25
958.81	225.24
959.10	225.27
959.40	225.29
959.69	225.33
959.99	225.34
960.29	225.34
960.58	225.35
960.88	225.37
961.17	225.34
961.47	225.33
961.76	225.28
962.06	225.28
962.36	225.26
962.65	225.27
962.95	225.28
963.24	225.28
963.54	225.25
963.83	225.27
964.13	225.26
964.42	225.24
964.72	225.18
965.01	225.20
965.31	225.19
965.60	225.14
965.90	225.16
966.19	225.14
966.49	225.14
966.78	225.16
967.08	225.20
967.37	225.26
967.67	225.26
967.96	225.27
968.26	225.26
968.55	225.28
968.85	225.25
969.14	225.24
969.43	225.25
969.73	225.26
970.02	225.25
970.32	225.27
970.61	225.28
970.91	225.24
971.20	225.25
971.49	225.28
971.79	225.31
972.08	225.25
972.38	225.27
972.67	225.28
972.96	225.29
973.26	225.24
973.55	225.25
973.85	225.27
974.14	225.26
974.43	225.29
974.73	225.27
975.02	225.29
975.31	225.32
975.61	225.34
975.90	225.34
976.19	225.32
976.49	225.34
976.78	225.33
977.07	225.35
977.37	225.35
977.66	225.33
977.95	225.31
978.24	225.32
978.54	225.34
978.83	225.33
979.12	225.36
979.42	225.39
979.71	225.39
980.00	225.36
980.29	225.38
980.59	225.34
980.88	225.36
981.17	225.37
981.46	225.37
981.76	225.36
982.05	225.42
982.34	225.44
982.63	225.43
982.93	225.45
983.22	225.47
983.51	225.47
983.80	225.51
984.09	225.53
984.39	225.53
984.68	225.51
984.97	225.50
985.26	225.49
985.55	225.50
985.85	225.47
986.14	225.48
986.43	225.50
986.72	225.53
987.01	225.53
987.30	225.52
987.59	225.50
987.89	225.51
988.18	225.45
988.47	225.43
988.76	225.41
989.05	225.39
989.34	225.36
989.63	225.38
989.92	225.37
990.22	225.36
990.51	225.37
990.80	225.37
991.09	225.38
991.38	225.35
991.67	225.33
991.96	225.33
992.25	225.34
992.54	225.32
992.83	225.29
993.12	225.28
993.41	225.30
993.70	225.33
993.99	225.35
994.28	225.36
994.58	225.38
994.87	225.33
995.16	225.31
995.45	225.32
995.74	225.27
996.03	225.25
996.32	225.25
996.61	225.22
996.90	225.20
997.19	225.18
997.48	225.22
997.77	225.19
998.06	225.16
998.34	225.16
998.63	225.17
998.92	225.16
999.21	225.15
999.50	225.12
999.79	225.10
1000.08	225.09
1000.37	225.11
1000.66	225.06
1000.95	225.17
1001.24	225.17
1001.53	225.18
1001.82	225.20
1002.11	225.22
1002.40	225.25
1002.68	225.28
1002.97	225.39
1003.26	225.40
1003.55	225.38
1003.84	225.36
1004.13	225.41
1004.42	225.39
1004.71	225.38
1004.99	225.38
1005.28	225.43
1005.57	225.44
1005.86	225.44
1006.15	225.43
1006.44	225.39
1006.72	225.45
1007.01	225.37
1007.30	225.36
1007.59	225.32
1007.88	225.29
1008.17	225.25
1008.45	225.23
1008.74	225.20
1009.03	225.10
1009.32	225.05
1009.60	225.01
1009.89	225.01
1010.18	224.99
1010.47	224.96
1010.76	224.97
1011.04	224.96
1011.33	224.97
1011.62	224.99
1011.91	224.99
1012.19	224.98
1012.48	225.00
1012.77	224.98
1013.05	225.03
1013.34	225.07
1013.63	225.08
1013.92	225.08
1014.20	225.10
1014.49	225.09
1014.78	225.13
1015.06	225.13
1015.35	225.17
1015.64	225.21
1015.92	225.25
1016.21	225.25
1016.50	225.27
1016.78	225.27
1017.07	225.27
1017.36	225.25
1017.64	225.21
1017.93	225.16
1018.22	225.15
1018.50	225.17
1018.79	225.16
1019.08	225.14
1019.36	225.15
1019.65	225.15
1019.93	225.19
1020.22	225.20
1020.51	225.24
1020.79	225.25
1021.08	224.73
1021.36	225.39
1021.65	225.08
1021.94	225.32
1022.22	225.75
1022.51	225.09
1022.79	225.69
1023.08	225.26
1023.36	226.21
1023.65	225.88
>>>>>End Processed Spectral Data<<<<<
