SpectraSuite Data File
++++++++++++++++++++++++++++++++++++
Date: Fri Feb 01 14:53:45 EST 2013
User: group
Dark Spectrum Present: No
Reference Spectrum Present: No
Number of Sampled Component Spectra: 1
Spectrometers: USB2E7196
Integration Time (usec): 35000 (USB2E7196)
Spectra Averaged: 100 (USB2E7196)
Boxcar Smoothing: 10 (USB2E7196)
Correct for Electrical Dark: No (USB2E7196)
Strobe/Lamp Enabled: No (USB2E7196)
Correct for Detector Non-linearity: No (USB2E7196)
Correct for Stray Light: No (USB2E7196)
Number of Pixels in Processed Spectrum: 2048
>>>>>Begin Processed Spectral Data<<<<<
339.09	0.00
339.48	215.96
339.86	217.37
340.24	217.79
340.63	220.08
341.01	222.91
341.39	222.83
341.78	223.62
342.16	225.34
342.54	225.21
342.93	213.91
343.31	224.72
343.69	225.26
344.07	225.70
344.46	226.16
344.84	226.51
345.22	226.72
345.60	226.96
345.99	227.16
346.37	227.24
346.75	227.35
347.13	227.42
347.52	227.47
347.90	227.53
348.28	227.58
348.66	227.63
349.05	227.60
349.43	227.64
349.81	227.65
350.19	227.68
350.57	227.75
350.96	227.78
351.34	227.86
351.72	227.95
352.10	228.05
352.48	228.10
352.87	228.13
353.25	228.20
353.63	228.25
354.01	228.33
354.39	228.44
354.77	228.49
355.15	228.61
355.54	228.69
355.92	228.72
356.30	228.76
356.68	228.90
357.06	228.99
357.44	229.04
357.82	229.08
358.20	229.13
358.58	229.19
358.97	229.25
359.35	229.32
359.73	229.38
360.11	229.39
360.49	229.47
360.87	229.56
361.25	229.63
361.63	229.70
362.01	229.73
362.39	229.74
362.77	229.79
363.15	229.79
363.53	229.80
363.91	229.84
364.29	229.89
364.67	229.77
365.05	229.75
365.43	229.76
365.81	229.79
366.19	229.82
366.57	229.86
366.95	229.85
367.33	229.85
367.71	229.81
368.09	229.84
368.47	229.81
368.85	229.77
369.23	229.74
369.61	229.66
369.99	229.66
370.37	229.63
370.75	229.64
371.13	229.60
371.51	229.52
371.89	229.44
372.27	229.39
372.65	229.35
373.03	229.35
373.41	229.25
373.78	229.18
374.16	229.06
374.54	228.95
374.92	228.86
375.30	228.76
375.68	228.72
376.06	228.63
376.44	228.55
376.82	228.48
377.19	228.35
377.57	228.27
377.95	228.17
378.33	228.07
378.71	227.93
379.09	227.85
379.47	227.79
379.84	227.71
380.22	227.59
380.60	227.50
380.98	227.38
381.36	227.32
381.73	227.25
382.11	227.20
382.49	227.13
382.87	227.06
383.25	226.99
383.62	226.98
384.00	226.90
384.38	226.82
384.76	226.75
385.13	226.77
385.51	226.70
385.89	226.64
386.27	226.62
386.64	226.56
387.02	226.52
387.40	226.45
387.78	226.40
388.15	226.36
388.53	226.33
388.91	226.29
389.29	226.23
389.66	226.25
390.04	226.22
390.42	226.24
390.79	226.20
391.17	226.20
391.55	226.08
391.92	226.07
392.30	226.07
392.68	226.08
393.05	226.06
393.43	226.10
393.81	226.09
394.18	226.09
394.56	226.13
394.94	226.17
395.31	226.24
395.69	226.33
396.06	226.42
396.44	226.49
396.82	226.52
397.19	226.61
397.57	226.65
397.95	226.72
398.32	226.73
398.70	226.82
399.07	226.91
399.45	226.98
399.82	227.08
400.20	227.18
400.58	227.25
400.95	227.31
401.33	227.41
401.70	227.59
402.08	227.72
402.45	227.84
402.83	227.96
403.20	228.07
403.58	228.19
403.95	228.32
404.33	228.45
404.71	228.62
405.08	228.84
405.46	228.99
405.83	229.15
406.21	229.36
406.58	229.55
406.96	229.72
407.33	229.93
407.70	230.15
408.08	230.43
408.45	230.65
408.83	230.92
409.20	231.14
409.58	231.35
409.95	231.61
410.33	231.88
410.70	232.16
411.08	232.48
411.45	232.80
411.82	233.12
412.20	233.51
412.57	233.92
412.95	234.23
413.32	234.63
413.69	235.03
414.07	235.45
414.44	235.92
414.82	236.37
415.19	236.93
415.56	237.49
415.94	238.03
416.31	238.69
416.68	239.32
417.06	240.07
417.43	240.73
417.81	241.47
418.18	242.26
418.55	243.08
418.93	243.92
419.30	244.84
419.67	245.78
420.04	246.70
420.42	247.68
420.79	248.88
421.16	250.02
421.54	251.23
421.91	252.43
422.28	253.68
422.66	255.04
423.03	256.33
423.40	257.64
423.77	259.06
424.15	260.49
424.52	261.93
424.89	263.52
425.26	265.08
425.64	266.56
426.01	268.13
426.38	269.78
426.75	271.46
427.13	273.16
427.50	274.96
427.87	276.80
428.24	278.64
428.61	280.33
428.99	282.29
429.36	284.37
429.73	286.44
430.10	288.44
430.47	290.49
430.85	292.61
431.22	294.86
431.59	297.23
431.96	299.46
432.33	301.94
432.70	304.30
433.08	307.07
433.45	309.68
433.82	312.25
434.19	315.14
434.56	317.96
434.93	320.61
435.30	323.18
435.68	326.10
436.05	328.91
436.42	331.75
436.79	334.23
437.16	336.95
437.53	339.81
437.90	342.59
438.27	345.33
438.64	348.16
439.01	350.76
439.38	352.96
439.75	355.11
440.13	357.63
440.50	359.95
440.87	361.80
441.24	363.75
441.61	365.91
441.98	367.36
442.35	369.10
442.72	370.94
443.09	372.79
443.46	373.76
443.83	374.38
444.20	374.85
444.57	375.68
444.94	375.95
445.31	376.29
445.68	376.67
446.05	376.74
446.42	376.34
446.79	375.88
447.16	375.45
447.53	375.13
447.90	373.96
448.27	372.79
448.64	371.19
449.01	370.06
449.37	368.11
449.74	366.25
450.11	364.03
450.48	361.58
450.85	359.05
451.22	356.91
451.59	354.93
451.96	352.98
452.33	350.39
452.70	348.07
453.07	345.23
453.43	342.35
453.80	339.58
454.17	336.92
454.54	334.41
454.91	331.71
455.28	329.04
455.65	326.56
456.02	324.14
456.38	322.05
456.75	319.41
457.12	317.21
457.49	314.97
457.86	312.80
458.23	310.91
458.59	308.88
458.96	306.83
459.33	304.95
459.70	303.07
460.07	301.63
460.43	299.90
460.80	298.31
461.17	296.87
461.54	295.39
461.91	293.96
462.27	292.50
462.64	291.26
463.01	289.93
463.38	288.65
463.74	287.29
464.11	286.13
464.48	285.08
464.85	283.92
465.21	283.10
465.58	282.21
465.95	281.11
466.32	280.18
466.68	279.31
467.05	278.38
467.42	277.49
467.78	276.50
468.15	275.59
468.52	274.87
468.88	274.00
469.25	273.22
469.62	272.59
469.98	271.89
470.35	271.25
470.72	270.63
471.08	269.94
471.45	269.36
471.82	268.75
472.18	268.14
472.55	267.70
472.92	267.10
473.28	266.57
473.65	266.12
474.02	265.63
474.38	265.22
474.75	264.90
475.11	264.54
475.48	264.29
475.85	264.05
476.21	263.80
476.58	263.60
476.94	263.43
477.31	263.22
477.67	263.06
478.04	262.91
478.41	262.82
478.77	262.87
479.14	262.79
479.50	262.79
479.87	262.84
480.23	262.92
480.60	263.00
480.96	263.08
481.33	263.28
481.69	263.47
482.06	263.64
482.42	263.79
482.79	264.02
483.15	264.31
483.52	264.66
483.88	265.02
484.25	265.37
484.61	265.77
484.98	266.21
485.34	266.77
485.71	267.37
486.07	267.97
486.44	268.49
486.80	269.22
487.17	269.95
487.53	270.77
487.90	271.59
488.26	272.52
488.62	273.49
488.99	274.47
489.35	275.51
489.72	276.63
490.08	277.85
490.44	279.08
490.81	280.41
491.17	281.76
491.54	283.21
491.90	284.73
492.26	286.39
492.63	288.12
492.99	289.87
493.36	291.69
493.72	293.72
494.08	295.83
494.45	298.04
494.81	300.36
495.17	302.77
495.54	305.31
495.90	307.98
496.26	310.76
496.63	313.69
496.99	316.75
497.35	319.98
497.72	323.32
498.08	326.84
498.44	330.47
498.80	334.36
499.17	338.35
499.53	342.53
499.89	346.87
500.26	351.35
500.62	356.05
500.98	361.02
501.34	366.09
501.71	371.42
502.07	376.87
502.43	382.49
502.79	388.26
503.16	394.35
503.52	400.56
503.88	406.97
504.24	413.54
504.60	420.44
504.97	427.56
505.33	434.91
505.69	442.54
506.05	450.29
506.41	458.14
506.78	466.31
507.14	474.71
507.50	483.46
507.86	492.48
508.22	501.64
508.59	510.80
508.95	520.35
509.31	530.10
509.67	540.14
510.03	550.34
510.39	560.93
510.75	571.68
511.12	582.65
511.48	593.87
511.84	605.33
512.20	616.83
512.56	628.74
512.92	640.82
513.28	653.19
513.64	665.63
514.00	678.36
514.37	691.25
514.73	704.27
515.09	717.23
515.45	730.50
515.81	744.08
516.17	758.10
516.53	772.18
516.89	786.40
517.25	800.64
517.61	815.15
517.97	829.55
518.33	844.01
518.69	858.79
519.05	873.87
519.41	889.02
519.77	904.62
520.13	920.09
520.49	935.60
520.85	951.08
521.21	966.92
521.57	983.20
521.93	999.05
522.29	1015.51
522.65	1031.81
523.01	1048.13
523.37	1064.15
523.73	1080.33
524.09	1096.53
524.45	1112.82
524.81	1129.45
525.17	1146.38
525.53	1163.38
525.89	1180.30
526.25	1197.00
526.61	1213.38
526.97	1230.12
527.33	1246.62
527.68	1263.30
528.04	1279.86
528.40	1296.48
528.76	1313.50
529.12	1330.02
529.48	1346.99
529.84	1363.11
530.20	1379.75
530.56	1396.72
530.91	1414.17
531.27	1430.95
531.63	1447.50
531.99	1464.20
532.35	1480.26
532.71	1496.16
533.07	1512.50
533.42	1528.58
533.78	1544.87
534.14	1561.32
534.50	1576.74
534.86	1592.66
535.21	1607.91
535.57	1623.89
535.93	1639.39
536.29	1654.33
536.65	1669.63
537.00	1684.58
537.36	1699.95
537.72	1714.55
538.08	1729.15
538.44	1743.07
538.79	1757.14
539.15	1770.90
539.51	1784.80
539.87	1799.26
540.22	1812.99
540.58	1826.87
540.94	1840.32
541.29	1853.39
541.65	1866.18
542.01	1879.69
542.37	1892.21
542.72	1904.79
543.08	1916.60
543.44	1929.06
543.79	1940.18
544.15	1951.07
544.51	1962.47
544.87	1973.51
545.22	1984.51
545.58	1994.73
545.94	2004.44
546.29	2014.35
546.65	2024.13
547.01	2033.45
547.36	2042.16
547.72	2050.64
548.07	2058.49
548.43	2066.62
548.79	2074.44
549.14	2081.96
549.50	2089.15
549.86	2096.82
550.21	2103.99
550.57	2111.17
550.92	2117.96
551.28	2125.31
551.64	2132.47
551.99	2139.08
552.35	2145.24
552.70	2151.21
553.06	2157.12
553.41	2163.43
553.77	2169.33
554.13	2175.43
554.48	2181.48
554.84	2186.79
555.19	2192.20
555.55	2197.18
555.90	2201.44
556.26	2206.26
556.61	2210.92
556.97	2215.04
557.32	2219.03
557.68	2223.16
558.03	2227.32
558.39	2230.87
558.74	2235.24
559.10	2239.04
559.45	2242.49
559.81	2246.67
560.16	2250.42
560.52	2253.56
560.87	2256.99
561.23	2259.61
561.58	2262.31
561.94	2264.61
562.29	2266.94
562.64	2269.50
563.00	2272.18
563.35	2275.73
563.71	2278.82
564.06	2281.76
564.42	2284.59
564.77	2287.01
565.12	2289.08
565.48	2290.81
565.83	2292.30
566.19	2293.43
566.54	2294.17
566.89	2295.16
567.25	2295.57
567.60	2296.78
567.96	2298.23
568.31	2298.71
568.66	2299.48
569.02	2299.97
569.37	2300.17
569.72	2300.79
570.08	2300.59
570.43	2300.15
570.78	2299.08
571.14	2297.27
571.49	2295.88
571.84	2295.25
572.20	2293.70
572.55	2292.33
572.90	2290.63
573.26	2289.09
573.61	2287.37
573.96	2285.42
574.31	2282.40
574.67	2279.22
575.02	2275.40
575.37	2271.96
575.72	2268.08
576.08	2264.72
576.43	2261.22
576.78	2257.32
577.13	2254.00
577.49	2250.78
577.84	2247.25
578.19	2243.56
578.54	2239.69
578.90	2235.20
579.25	2229.61
579.60	2224.57
579.95	2219.51
580.30	2214.22
580.66	2208.91
581.01	2203.66
581.36	2198.45
581.71	2193.96
582.06	2189.33
582.42	2184.77
582.77	2179.27
583.12	2174.54
583.47	2169.64
583.82	2164.29
584.17	2158.94
584.53	2153.25
584.88	2147.46
585.23	2141.42
585.58	2135.82
585.93	2130.30
586.28	2125.47
586.63	2120.17
586.98	2114.93
587.34	2110.14
587.69	2105.15
588.04	2099.77
588.39	2094.01
588.74	2087.44
589.09	2081.22
589.44	2074.30
589.79	2068.08
590.14	2062.19
590.49	2055.41
590.84	2048.76
591.19	2042.66
591.54	2035.99
591.89	2028.43
592.25	2021.35
592.60	2014.17
592.95	2006.31
593.30	1998.85
593.65	1991.03
594.00	1983.94
594.35	1976.65
594.70	1968.54
595.05	1961.24
595.40	1953.98
595.75	1946.30
596.10	1940.00
596.45	1933.00
596.80	1926.67
597.15	1919.92
597.50	1912.83
597.85	1906.44
598.19	1899.80
598.54	1892.79
598.89	1886.12
599.24	1880.30
599.59	1873.71
599.94	1867.48
600.29	1861.23
600.64	1854.73
600.99	1847.43
601.34	1840.47
601.69	1833.36
602.04	1826.36
602.39	1819.03
602.74	1812.10
603.08	1805.46
603.43	1798.81
603.78	1791.74
604.13	1784.48
604.48	1777.23
604.83	1770.45
605.18	1763.43
605.53	1755.47
605.87	1747.40
606.22	1740.28
606.57	1732.34
606.92	1725.01
607.27	1717.80
607.62	1710.89
607.96	1703.53
608.31	1696.77
608.66	1689.16
609.01	1681.73
609.36	1674.32
609.70	1666.30
610.05	1658.23
610.40	1650.59
610.75	1642.25
611.10	1634.58
611.44	1626.40
611.79	1618.34
612.14	1609.61
612.49	1600.55
612.83	1592.24
613.18	1584.23
613.53	1576.13
613.88	1567.56
614.22	1559.43
614.57	1550.80
614.92	1542.73
615.27	1535.20
615.61	1526.94
615.96	1519.01
616.31	1511.45
616.65	1504.07
617.00	1496.63
617.35	1489.02
617.70	1480.57
618.04	1472.04
618.39	1463.86
618.74	1456.21
619.08	1448.07
619.43	1440.69
619.78	1433.92
620.12	1426.82
620.47	1419.35
620.82	1411.29
621.16	1403.98
621.51	1396.29
621.85	1388.88
622.20	1380.51
622.55	1372.36
622.89	1364.59
623.24	1357.03
623.59	1349.80
623.93	1342.35
624.28	1335.12
624.62	1327.74
624.97	1320.70
625.32	1314.07
625.66	1307.18
626.01	1300.06
626.35	1292.69
626.70	1284.83
627.04	1277.08
627.39	1269.35
627.73	1262.01
628.08	1255.18
628.43	1247.90
628.77	1240.69
629.12	1233.15
629.46	1225.97
629.81	1218.55
630.15	1211.44
630.50	1204.12
630.84	1195.89
631.19	1188.07
631.53	1180.71
631.88	1173.28
632.22	1165.79
632.57	1158.56
632.91	1151.07
633.26	1143.72
633.60	1136.41
633.95	1129.53
634.29	1122.61
634.64	1116.02
634.98	1108.79
635.32	1101.66
635.67	1095.22
636.01	1088.70
636.36	1081.94
636.70	1075.56
637.05	1069.05
637.39	1062.67
637.73	1056.25
638.08	1050.49
638.42	1044.53
638.77	1038.15
639.11	1031.58
639.45	1025.25
639.80	1018.62
640.14	1012.20
640.49	1005.86
640.83	999.64
641.17	993.44
641.52	987.19
641.86	980.86
642.20	975.07
642.55	968.89
642.89	962.40
643.23	955.88
643.58	950.25
643.92	944.19
644.26	938.21
644.61	932.20
644.95	926.24
645.29	919.74
645.64	913.03
645.98	906.72
646.32	900.91
646.66	894.89
647.01	889.28
647.35	883.70
647.69	877.87
648.04	872.39
648.38	866.69
648.72	860.75
649.06	854.70
649.41	848.80
649.75	842.85
650.09	836.99
650.43	831.23
650.78	825.07
651.12	819.10
651.46	813.40
651.80	807.66
652.14	802.29
652.49	796.94
652.83	791.89
653.17	786.34
653.51	780.70
653.85	775.34
654.20	769.68
654.54	763.62
654.88	757.93
655.22	752.07
655.56	746.43
655.90	740.92
656.25	735.74
656.59	730.44
656.93	725.39
657.27	720.25
657.61	714.85
657.95	709.76
658.29	704.66
658.64	699.47
658.98	694.30
659.32	688.87
659.66	683.69
660.00	678.36
660.34	673.41
660.68	668.51
661.02	663.54
661.36	658.88
661.70	654.50
662.05	650.10
662.39	645.79
662.73	641.32
663.07	637.09
663.41	632.58
663.75	628.07
664.09	623.51
664.43	619.18
664.77	615.14
665.11	610.98
665.45	606.92
665.79	602.91
666.13	598.76
666.47	594.70
666.81	590.60
667.15	586.55
667.49	582.69
667.83	578.91
668.17	575.04
668.51	571.00
668.85	567.00
669.19	563.23
669.53	559.49
669.87	555.71
670.21	552.08
670.55	548.55
670.89	545.18
671.23	541.79
671.57	538.32
671.91	534.83
672.25	531.34
672.58	527.88
672.92	524.48
673.26	521.36
673.60	518.31
673.94	515.22
674.28	512.38
674.62	509.48
674.96	506.41
675.30	503.52
675.64	500.60
675.97	497.83
676.31	494.97
676.65	492.03
676.99	489.26
677.33	486.34
677.67	483.53
678.01	480.57
678.34	477.60
678.68	474.75
679.02	471.95
679.36	469.24
679.70	466.54
680.04	463.79
680.37	460.98
680.71	458.19
681.05	455.65
681.39	452.90
681.73	450.26
682.06	447.75
682.40	445.19
682.74	442.73
683.08	440.20
683.42	437.64
683.75	435.20
684.09	432.74
684.43	430.34
684.77	427.93
685.10	425.66
685.44	423.37
685.78	421.12
686.12	418.90
686.45	416.66
686.79	414.40
687.13	412.25
687.46	410.18
687.80	408.03
688.14	405.84
688.48	403.90
688.81	401.67
689.15	399.58
689.49	397.47
689.82	395.44
690.16	393.40
690.50	391.51
690.83	389.57
691.17	387.59
691.51	385.73
691.84	383.89
692.18	381.98
692.52	380.04
692.85	378.15
693.19	376.30
693.52	374.43
693.86	372.66
694.20	370.91
694.53	369.10
694.87	367.32
695.21	365.53
695.54	363.68
695.88	361.96
696.21	360.24
696.55	358.61
696.88	356.93
697.22	355.30
697.56	353.69
697.89	352.06
698.23	350.47
698.56	348.84
698.90	347.27
699.23	345.58
699.57	344.07
699.90	342.57
700.24	341.05
700.58	339.57
700.91	338.03
701.25	336.54
701.58	335.18
701.92	333.81
702.25	332.49
702.59	331.15
702.92	329.87
703.26	328.61
703.59	327.32
703.93	326.13
704.26	324.87
704.60	323.54
704.93	322.29
705.26	321.01
705.60	319.88
705.93	318.76
706.27	317.75
706.60	316.71
706.94	315.62
707.27	314.47
707.61	313.38
707.94	312.40
708.27	311.37
708.61	310.27
708.94	309.28
709.28	308.25
709.61	307.28
709.94	306.30
710.28	305.26
710.61	304.30
710.95	303.24
711.28	302.38
711.61	301.49
711.95	300.59
712.28	299.69
712.61	298.69
712.95	297.74
713.28	296.86
713.61	295.99
713.95	295.15
714.28	294.33
714.61	293.49
714.95	292.66
715.28	291.80
715.61	290.98
715.95	290.14
716.28	289.30
716.61	288.45
716.95	287.69
717.28	287.00
717.61	286.24
717.94	285.50
718.28	284.69
718.61	283.99
718.94	283.30
719.27	282.67
719.61	282.05
719.94	281.39
720.27	280.69
720.60	280.00
720.94	279.32
721.27	278.75
721.60	278.21
721.93	277.63
722.27	277.11
722.60	276.53
722.93	275.96
723.26	275.45
723.59	274.93
723.93	274.36
724.26	273.80
724.59	273.24
724.92	272.74
725.25	272.24
725.59	271.68
725.92	271.19
726.25	270.65
726.58	270.16
726.91	269.68
727.24	269.23
727.57	268.79
727.91	268.32
728.24	267.82
728.57	267.33
728.90	266.86
729.23	266.34
729.56	265.89
729.89	265.45
730.22	264.99
730.55	264.56
730.89	264.13
731.22	263.68
731.55	263.26
731.88	262.83
732.21	262.43
732.54	262.01
732.87	261.58
733.20	261.21
733.53	260.86
733.86	260.50
734.19	260.12
734.52	259.73
734.85	259.42
735.18	259.03
735.51	258.66
735.84	258.30
736.17	257.96
736.50	257.58
736.83	257.31
737.16	256.96
737.49	256.59
737.82	256.24
738.15	255.88
738.48	255.57
738.81	255.25
739.14	254.92
739.47	254.63
739.80	254.32
740.13	254.04
740.46	253.68
740.79	253.34
741.12	253.00
741.45	252.71
741.78	252.35
742.11	252.06
742.44	251.72
742.77	251.44
743.10	251.16
743.43	250.87
743.75	250.49
744.08	250.30
744.41	250.05
744.74	249.79
745.07	249.53
745.40	249.28
745.73	249.04
746.06	248.76
746.39	248.52
746.71	248.26
747.04	247.99
747.37	247.73
747.70	247.48
748.03	247.24
748.36	247.00
748.68	246.77
749.01	246.51
749.34	246.31
749.67	246.07
750.00	245.80
750.33	245.66
750.65	245.45
750.98	245.14
751.31	244.95
751.64	244.71
751.97	244.51
752.29	244.26
752.62	244.01
752.95	243.80
753.28	243.58
753.60	243.36
753.93	243.15
754.26	242.97
754.59	242.75
754.91	242.58
755.24	242.39
755.57	242.25
755.90	242.09
756.22	241.92
756.55	241.74
756.88	241.56
757.20	241.30
757.53	241.13
757.86	240.97
758.19	240.77
758.51	240.62
758.84	240.47
759.17	240.32
759.49	240.18
759.82	240.08
760.15	239.94
760.47	239.78
760.80	239.62
761.13	239.50
761.45	239.34
761.78	239.21
762.11	239.06
762.43	238.87
762.76	238.73
763.08	238.58
763.41	238.46
763.74	238.38
764.06	238.27
764.39	238.13
764.71	237.99
765.04	237.88
765.37	237.75
765.69	237.62
766.02	237.50
766.34	237.40
766.67	237.22
767.00	237.09
767.32	237.06
767.65	237.01
767.97	236.89
768.30	236.80
768.62	236.67
768.95	236.52
769.27	236.42
769.60	236.32
769.92	236.20
770.25	236.08
770.57	235.94
770.90	235.82
771.22	235.70
771.55	235.61
771.87	235.52
772.20	235.39
772.52	235.36
772.85	235.35
773.17	235.22
773.50	235.12
773.82	235.03
774.15	234.88
774.47	234.73
774.80	234.62
775.12	234.54
775.45	234.47
775.77	234.41
776.09	234.32
776.42	234.23
776.74	234.18
777.07	234.10
777.39	234.00
777.72	233.94
778.04	233.89
778.36	233.83
778.69	233.76
779.01	233.73
779.33	233.58
779.66	233.41
779.98	233.37
780.31	233.32
780.63	233.32
780.95	233.26
781.28	233.18
781.60	233.17
781.92	233.12
782.25	233.03
782.57	232.96
782.89	232.90
783.22	232.83
783.54	232.79
783.86	232.74
784.19	232.72
784.51	232.70
784.83	232.63
785.16	232.56
785.48	232.49
785.80	232.46
786.12	232.41
786.45	232.37
786.77	232.30
787.09	232.26
787.42	232.13
787.74	232.09
788.06	232.03
788.38	231.91
788.71	231.84
789.03	231.79
789.35	231.73
789.67	231.69
789.99	231.67
790.32	231.58
790.64	231.54
790.96	231.55
791.28	231.48
791.61	231.42
791.93	231.38
792.25	231.34
792.57	231.32
792.89	231.30
793.21	231.24
793.54	231.20
793.86	231.16
794.18	231.15
794.50	231.09
794.82	231.05
795.14	231.04
795.47	231.02
795.79	230.98
796.11	230.92
796.43	230.90
796.75	230.81
797.07	230.80
797.39	230.80
797.71	230.68
798.04	230.62
798.36	230.61
798.68	230.59
799.00	230.55
799.32	230.47
799.64	230.44
799.96	230.41
800.28	230.42
800.60	230.36
800.92	230.33
801.24	230.29
801.56	230.30
801.89	230.26
802.21	230.26
802.53	230.24
802.85	230.26
803.17	230.24
803.49	230.24
803.81	230.18
804.13	230.11
804.45	230.10
804.77	230.10
805.09	230.04
805.41	229.97
805.73	229.96
806.05	229.92
806.37	229.91
806.69	229.90
807.01	229.84
807.33	229.83
807.65	229.77
807.97	229.78
808.28	229.74
808.60	229.73
808.92	229.67
809.24	229.70
809.56	229.64
809.88	229.61
810.20	229.60
810.52	229.61
810.84	229.58
811.16	229.52
811.48	229.49
811.80	229.53
812.12	229.52
812.43	229.51
812.75	229.52
813.07	229.47
813.39	229.48
813.71	229.47
814.03	229.47
814.35	229.47
814.67	229.42
814.98	229.39
815.30	229.35
815.62	229.32
815.94	229.23
816.26	229.24
816.58	229.18
816.89	229.17
817.21	229.14
817.53	229.15
817.85	229.17
818.17	229.13
818.48	229.07
818.80	229.09
819.12	229.09
819.44	229.03
819.76	228.98
820.07	228.92
820.39	228.90
820.71	228.89
821.03	228.88
821.34	228.86
821.66	228.87
821.98	228.87
822.30	228.88
822.61	228.94
822.93	228.90
823.25	228.89
823.57	228.86
823.88	228.89
824.20	228.87
824.52	228.85
824.83	228.86
825.15	228.84
825.47	228.80
825.79	228.78
826.10	228.81
826.42	228.83
826.74	228.84
827.05	228.83
827.37	228.81
827.69	228.78
828.00	228.76
828.32	228.74
828.64	228.72
828.95	228.76
829.27	228.72
829.58	228.72
829.90	228.70
830.22	228.67
830.53	228.61
830.85	228.57
831.17	228.52
831.48	228.48
831.80	228.48
832.11	228.48
832.43	228.44
832.75	228.39
833.06	228.41
833.38	228.39
833.69	228.36
834.01	228.38
834.32	228.37
834.64	228.33
834.96	228.34
835.27	228.32
835.59	228.24
835.90	228.19
836.22	228.19
836.53	228.18
836.85	228.16
837.16	228.25
837.48	228.27
837.79	228.32
838.11	228.32
838.42	228.34
838.74	228.34
839.05	228.32
839.37	228.31
839.68	228.24
840.00	228.22
840.31	228.22
840.63	228.19
840.94	228.20
841.26	228.20
841.57	228.18
841.88	228.21
842.20	228.20
842.51	228.17
842.83	228.16
843.14	228.25
843.46	228.26
843.77	228.20
844.08	228.18
844.40	228.14
844.71	228.13
845.03	228.08
845.34	228.06
845.65	228.07
845.97	228.08
846.28	228.10
846.60	228.09
846.91	228.09
847.22	228.09
847.54	228.11
847.85	228.07
848.16	228.06
848.48	228.03
848.79	228.08
849.10	228.11
849.42	228.10
849.73	228.01
850.04	228.02
850.36	227.98
850.67	228.00
850.98	228.02
851.30	228.00
851.61	228.01
851.92	228.02
852.23	228.05
852.55	228.05
852.86	228.05
853.17	228.08
853.49	228.10
853.80	228.10
854.11	228.09
854.42	228.15
854.74	228.15
855.05	228.15
855.36	228.10
855.67	228.10
855.99	228.13
856.30	228.26
856.61	228.26
856.92	228.27
857.23	228.27
857.55	228.26
857.86	228.26
858.17	228.29
858.48	228.27
858.79	228.28
859.11	228.29
859.42	228.29
859.73	228.28
860.04	228.27
860.35	228.22
860.66	228.18
860.98	228.17
861.29	228.19
861.60	228.16
861.91	228.19
862.22	228.18
862.53	228.14
862.84	228.03
863.16	228.02
863.47	228.00
863.78	228.00
864.09	227.96
864.40	228.01
864.71	228.00
865.02	228.01
865.33	227.95
865.64	227.92
865.95	227.89
866.27	227.95
866.58	227.90
866.89	227.92
867.20	227.93
867.51	227.92
867.82	227.92
868.13	227.96
868.44	227.93
868.75	227.94
869.06	227.97
869.37	227.99
869.68	227.97
869.99	228.03
870.30	228.05
870.61	228.06
870.92	228.02
871.23	228.00
871.54	227.99
871.85	228.01
872.16	228.03
872.47	228.03
872.78	227.97
873.09	227.99
873.40	227.99
873.71	227.96
874.02	227.96
874.33	227.93
874.64	227.95
874.95	227.98
875.26	227.95
875.56	227.93
875.87	227.91
876.18	227.88
876.49	227.94
876.80	227.94
877.11	227.92
877.42	227.93
877.73	227.93
878.04	227.93
878.35	227.92
878.66	227.93
878.96	227.92
879.27	227.90
879.58	227.88
879.89	227.85
880.20	227.89
880.51	227.89
880.82	227.88
881.12	227.84
881.43	227.78
881.74	227.79
882.05	227.78
882.36	227.74
882.67	227.74
882.97	227.63
883.28	227.64
883.59	227.63
883.90	227.64
884.21	227.64
884.51	227.63
884.82	227.64
885.13	227.60
885.44	227.61
885.74	227.61
886.05	227.63
886.36	227.65
886.67	227.62
886.98	227.69
887.28	227.70
887.59	227.71
887.90	227.72
888.20	227.72
888.51	227.73
888.82	227.72
889.13	227.75
889.43	227.83
889.74	227.80
890.05	227.79
890.35	227.78
890.66	227.79
890.97	227.79
891.28	227.79
891.58	227.81
891.89	227.82
892.20	227.81
892.50	227.79
892.81	227.79
893.12	227.80
893.42	227.71
893.73	227.71
894.04	227.73
894.34	227.77
894.65	227.78
894.95	227.76
895.26	227.78
895.57	227.83
895.87	227.72
896.18	227.73
896.48	227.76
896.79	227.74
897.10	227.72
897.40	227.78
897.71	227.80
898.01	227.78
898.32	227.81
898.63	227.82
898.93	227.82
899.24	227.81
899.54	227.80
899.85	227.81
900.15	227.80
900.46	227.79
900.76	227.77
901.07	227.76
901.38	227.75
901.68	227.75
901.99	227.69
902.29	227.70
902.60	227.71
902.90	227.72
903.21	227.73
903.51	227.73
903.82	227.71
904.12	227.69
904.43	227.74
904.73	227.71
905.03	227.70
905.34	227.79
905.64	227.80
905.95	227.78
906.25	227.79
906.56	227.79
906.86	227.78
907.17	227.77
907.47	227.77
907.77	227.77
908.08	227.74
908.38	227.76
908.69	227.76
908.99	227.78
909.30	227.76
909.60	227.73
909.90	227.75
910.21	227.70
910.51	227.67
910.81	227.60
911.12	227.63
911.42	227.64
911.73	227.54
912.03	227.50
912.33	227.55
912.64	227.52
912.94	227.51
913.24	227.51
913.55	227.48
913.85	227.46
914.15	227.45
914.46	227.47
914.76	227.44
915.06	227.43
915.37	227.37
915.67	227.37
915.97	227.38
916.27	227.32
916.58	227.35
916.88	227.34
917.18	227.37
917.49	227.38
917.79	227.35
918.09	227.35
918.39	227.40
918.70	227.38
919.00	227.38
919.30	227.43
919.60	227.43
919.91	227.42
920.21	227.43
920.51	227.42
920.81	227.40
921.12	227.45
921.42	227.44
921.72	227.46
922.02	227.47
922.32	227.47
922.63	227.49
922.93	227.51
923.23	227.54
923.53	227.54
923.83	227.49
924.13	227.52
924.44	227.54
924.74	227.55
925.04	227.56
925.34	227.57
925.64	227.53
925.94	227.52
926.24	227.59
926.55	227.61
926.85	227.61
927.15	227.61
927.45	227.57
927.75	227.60
928.05	227.59
928.35	227.57
928.65	227.63
928.95	227.65
929.26	227.65
929.56	227.68
929.86	227.70
930.16	227.72
930.46	227.70
930.76	227.71
931.06	227.68
931.36	227.71
931.66	227.72
931.96	227.76
932.26	227.75
932.56	227.72
932.86	227.73
933.16	227.77
933.46	227.76
933.76	227.78
934.06	227.79
934.36	227.86
934.66	227.89
934.96	227.86
935.26	227.88
935.56	227.88
935.86	227.85
936.16	227.81
936.46	227.81
936.76	227.82
937.06	227.81
937.36	227.82
937.66	227.80
937.96	227.81
938.26	227.78
938.56	227.78
938.86	227.78
939.16	227.77
939.46	227.73
939.76	227.76
940.06	227.75
940.35	227.70
940.65	227.61
940.95	227.58
941.25	227.56
941.55	227.52
941.85	227.50
942.15	227.47
942.45	227.49
942.75	227.46
943.04	227.45
943.34	227.45
943.64	227.44
943.94	227.40
944.24	227.39
944.54	227.40
944.84	227.39
945.13	227.38
945.43	227.34
945.73	227.35
946.03	227.34
946.33	227.34
946.62	227.34
946.92	227.36
947.22	227.35
947.52	227.35
947.82	227.35
948.11	227.31
948.41	227.28
948.71	227.24
949.01	227.25
949.31	227.23
949.60	227.20
949.90	227.19
950.20	227.18
950.50	227.15
950.79	227.12
951.09	227.12
951.39	227.09
951.69	227.09
951.98	227.10
952.28	227.08
952.58	227.09
952.87	227.08
953.17	227.08
953.47	227.05
953.76	227.02
954.06	227.03
954.36	227.03
954.66	227.04
954.95	227.08
955.25	227.06
955.55	227.09
955.84	227.07
956.14	227.08
956.44	227.08
956.73	227.07
957.03	227.08
957.32	227.09
957.62	227.10
957.92	227.12
958.21	227.12
958.51	227.23
958.81	227.25
959.10	227.25
959.40	227.25
959.69	227.27
959.99	227.29
960.29	227.28
960.58	227.28
960.88	227.33
961.17	227.32
961.47	227.35
961.76	227.35
962.06	227.38
962.36	227.36
962.65	227.36
962.95	227.39
963.24	227.39
963.54	227.39
963.83	227.42
964.13	227.40
964.42	227.37
964.72	227.31
965.01	227.32
965.31	227.33
965.60	227.34
965.90	227.41
966.19	227.41
966.49	227.45
966.78	227.45
967.08	227.47
967.37	227.49
967.67	227.50
967.96	227.50
968.26	227.52
968.55	227.57
968.85	227.60
969.14	227.59
969.43	227.59
969.73	227.63
970.02	227.63
970.32	227.67
970.61	227.69
970.91	227.66
971.20	227.63
971.49	227.65
971.79	227.67
972.08	227.62
972.38	227.62
972.67	227.57
972.96	227.61
973.26	227.55
973.55	227.56
973.85	227.54
974.14	227.54
974.43	227.53
974.73	227.52
975.02	227.50
975.31	227.49
975.61	227.50
975.90	227.47
976.19	227.45
976.49	227.43
976.78	227.43
977.07	227.44
977.37	227.45
977.66	227.42
977.95	227.40
978.24	227.41
978.54	227.44
978.83	227.45
979.12	227.42
979.42	227.45
979.71	227.45
980.00	227.41
980.29	227.42
980.59	227.39
980.88	227.40
981.17	227.40
981.46	227.37
981.76	227.34
982.05	227.33
982.34	227.35
982.63	227.37
982.93	227.36
983.22	227.36
983.51	227.33
983.80	227.34
984.09	227.34
984.39	227.35
984.68	227.34
984.97	227.34
985.26	227.32
985.55	227.31
985.85	227.28
986.14	227.29
986.43	227.27
986.72	227.27
987.01	227.23
987.30	227.22
987.59	227.25
987.89	227.26
988.18	227.24
988.47	227.18
988.76	227.15
989.05	227.13
989.34	227.13
989.63	227.17
989.92	227.15
990.22	227.14
990.51	227.10
990.80	227.08
991.09	227.06
991.38	227.08
991.67	227.07
991.96	227.07
992.25	227.05
992.54	227.04
992.83	227.03
993.12	227.03
993.41	227.05
993.70	227.08
993.99	227.12
994.28	227.16
994.58	227.22
994.87	227.22
995.16	227.20
995.45	227.19
995.74	227.14
996.03	227.18
996.32	227.19
996.61	227.22
996.90	227.20
997.19	227.20
997.48	227.20
997.77	227.17
998.06	227.18
998.34	227.20
998.63	227.22
998.92	227.24
999.21	227.27
999.50	227.28
999.79	227.26
1000.08	227.26
1000.37	227.23
1000.66	227.21
1000.95	227.24
1001.24	227.28
1001.53	227.30
1001.82	227.30
1002.11	227.25
1002.40	227.27
1002.68	227.30
1002.97	227.38
1003.26	227.37
1003.55	227.38
1003.84	227.41
1004.13	227.46
1004.42	227.44
1004.71	227.45
1004.99	227.46
1005.28	227.46
1005.57	227.44
1005.86	227.45
1006.15	227.41
1006.44	227.41
1006.72	227.42
1007.01	227.44
1007.30	227.45
1007.59	227.43
1007.88	227.46
1008.17	227.49
1008.45	227.50
1008.74	227.48
1009.03	227.44
1009.32	227.46
1009.60	227.48
1009.89	227.49
1010.18	227.42
1010.47	227.46
1010.76	227.45
1011.04	227.42
1011.33	227.41
1011.62	227.46
1011.91	227.46
1012.19	227.50
1012.48	227.51
1012.77	227.48
1013.05	227.51
1013.34	227.50
1013.63	227.45
1013.92	227.44
1014.20	227.42
1014.49	227.37
1014.78	227.33
1015.06	227.28
1015.35	227.25
1015.64	227.26
1015.92	227.22
1016.21	227.24
1016.50	227.21
1016.78	227.21
1017.07	227.19
1017.36	227.18
1017.64	227.11
1017.93	227.09
1018.22	227.07
1018.50	227.04
1018.79	227.03
1019.08	226.95
1019.36	226.95
1019.65	226.93
1019.93	226.94
1020.22	226.95
1020.51	227.01
1020.79	227.01
1021.08	227.28
1021.36	226.65
1021.65	226.95
1021.94	226.67
1022.22	227.43
1022.51	226.09
1022.79	227.33
1023.08	227.17
1023.36	228.13
1023.65	226.71
>>>>>End Processed Spectral Data<<<<<
