SpectraSuite Data File
++++++++++++++++++++++++++++++++++++
Date: Fri Feb 01 17:42:42 EST 2013
User: group
Dark Spectrum Present: No
Reference Spectrum Present: No
Number of Sampled Component Spectra: 1
Spectrometers: USB2E7196
Integration Time (usec): 35000 (USB2E7196)
Spectra Averaged: 100 (USB2E7196)
Boxcar Smoothing: 10 (USB2E7196)
Correct for Electrical Dark: No (USB2E7196)
Strobe/Lamp Enabled: No (USB2E7196)
Correct for Detector Non-linearity: No (USB2E7196)
Correct for Stray Light: No (USB2E7196)
Number of Pixels in Processed Spectrum: 2048
>>>>>Begin Processed Spectral Data<<<<<
339.09	0.00
339.48	213.09
339.86	214.57
340.24	215.46
340.63	216.62
341.01	219.09
341.39	219.75
341.78	220.97
342.16	222.56
342.54	222.42
342.93	211.01
343.31	221.65
343.69	222.14
344.07	222.58
344.46	222.99
344.84	223.39
345.22	223.65
345.60	223.91
345.99	224.08
346.37	224.17
346.75	224.32
347.13	224.40
347.52	224.47
347.90	224.58
348.28	224.61
348.66	224.65
349.05	224.67
349.43	224.71
349.81	224.78
350.19	224.79
350.57	224.87
350.96	224.95
351.34	225.04
351.72	225.16
352.10	225.26
352.48	225.34
352.87	225.40
353.25	225.45
353.63	225.49
354.01	225.60
354.39	225.67
354.77	225.71
355.15	225.81
355.54	225.87
355.92	225.91
356.30	225.98
356.68	226.14
357.06	226.21
357.44	226.28
357.82	226.31
358.20	226.43
358.58	226.49
358.97	226.56
359.35	226.65
359.73	226.72
360.11	226.77
360.49	226.83
360.87	226.87
361.25	226.98
361.63	227.03
362.01	227.06
362.39	227.09
362.77	227.14
363.15	227.17
363.53	227.18
363.91	227.23
364.29	227.28
364.67	227.20
365.05	227.20
365.43	227.23
365.81	227.30
366.19	227.31
366.57	227.33
366.95	227.33
367.33	227.32
367.71	227.34
368.09	227.34
368.47	227.33
368.85	227.28
369.23	227.26
369.61	227.23
369.99	227.23
370.37	227.20
370.75	227.24
371.13	227.18
371.51	227.15
371.89	227.11
372.27	227.04
372.65	227.00
373.03	227.01
373.41	226.95
373.78	226.86
374.16	226.80
374.54	226.73
374.92	226.65
375.30	226.60
375.68	226.51
376.06	226.48
376.44	226.41
376.82	226.38
377.19	226.30
377.57	226.23
377.95	226.16
378.33	226.11
378.71	225.99
379.09	225.95
379.47	225.91
379.84	225.83
380.22	225.77
380.60	225.69
380.98	225.57
381.36	225.51
381.73	225.44
382.11	225.40
382.49	225.33
382.87	225.28
383.25	225.22
383.62	225.27
384.00	225.16
384.38	225.12
384.76	225.09
385.13	225.08
385.51	225.06
385.89	225.00
386.27	224.95
386.64	224.89
387.02	224.84
387.40	224.78
387.78	224.73
388.15	224.69
388.53	224.65
388.91	224.61
389.29	224.57
389.66	224.55
390.04	224.51
390.42	224.49
390.79	224.47
391.17	224.43
391.55	224.30
391.92	224.30
392.30	224.30
392.68	224.26
393.05	224.22
393.43	224.18
393.81	224.17
394.18	224.18
394.56	224.18
394.94	224.21
395.31	224.21
395.69	224.25
396.06	224.29
396.44	224.31
396.82	224.32
397.19	224.41
397.57	224.40
397.95	224.43
398.32	224.49
398.70	224.54
399.07	224.62
399.45	224.65
399.82	224.74
400.20	224.78
400.58	224.86
400.95	224.89
401.33	225.00
401.70	225.15
402.08	225.24
402.45	225.35
402.83	225.49
403.20	225.59
403.58	225.66
403.95	225.78
404.33	225.94
404.71	226.07
405.08	226.22
405.46	226.40
405.83	226.54
406.21	226.67
406.58	226.86
406.96	227.05
407.33	227.25
407.70	227.48
408.08	227.81
408.45	228.06
408.83	228.35
409.20	228.58
409.58	228.77
409.95	229.05
410.33	229.34
410.70	229.60
411.08	229.96
411.45	230.37
411.82	230.73
412.20	231.16
412.57	231.65
412.95	232.02
413.32	232.50
413.69	232.99
414.07	233.51
414.44	234.02
414.82	234.55
415.19	235.21
415.56	235.84
415.94	236.44
416.31	237.22
416.68	237.95
417.06	238.81
417.43	239.61
417.81	240.54
418.18	241.45
418.55	242.46
418.93	243.47
419.30	244.51
419.67	245.64
420.04	246.75
420.42	247.90
420.79	249.28
421.16	250.67
421.54	252.09
421.91	253.54
422.28	255.07
422.66	256.69
423.03	258.23
423.40	259.78
423.77	261.46
424.15	263.13
424.52	264.87
424.89	266.76
425.26	268.64
425.64	270.40
426.01	272.29
426.38	274.26
426.75	276.22
427.13	278.28
427.50	280.43
427.87	282.64
428.24	284.86
428.61	286.93
428.99	289.19
429.36	291.71
429.73	294.16
430.10	296.59
430.47	299.06
430.85	301.62
431.22	304.32
431.59	307.13
431.96	309.82
432.33	312.73
432.70	315.57
433.08	318.92
433.45	322.05
433.82	325.16
434.19	328.58
434.56	331.92
434.93	335.04
435.30	338.18
435.68	341.61
436.05	345.00
436.42	348.35
436.79	351.39
437.16	354.58
437.53	357.94
437.90	361.22
438.27	364.40
438.64	367.70
439.01	370.76
439.38	373.41
439.75	375.94
440.13	378.95
440.50	381.68
440.87	383.83
441.24	386.14
441.61	388.73
441.98	390.54
442.35	392.73
442.72	394.95
443.09	397.04
443.46	398.22
443.83	398.87
444.20	399.49
444.57	400.45
444.94	400.79
445.31	401.18
445.68	401.62
446.05	401.73
446.42	401.30
446.79	400.85
447.16	400.31
447.53	399.99
447.90	398.63
448.27	397.32
448.64	395.48
449.01	394.10
449.37	391.72
449.74	389.45
450.11	386.80
450.48	383.90
450.85	380.91
451.22	378.38
451.59	376.05
451.96	373.73
452.33	370.66
452.70	367.91
453.07	364.55
453.43	361.12
453.80	357.87
454.17	354.70
454.54	351.65
454.91	348.47
455.28	345.25
455.65	342.26
456.02	339.31
456.38	336.73
456.75	333.55
457.12	330.91
457.49	328.23
457.86	325.62
458.23	323.42
458.59	321.00
458.96	318.53
459.33	316.26
459.70	314.03
460.07	312.20
460.43	310.12
460.80	308.19
461.17	306.45
461.54	304.64
461.91	302.94
462.27	301.20
462.64	299.69
463.01	298.11
463.38	296.57
463.74	294.96
464.11	293.58
464.48	292.34
464.85	291.00
465.21	289.95
465.58	288.82
465.95	287.48
466.32	286.37
466.68	285.29
467.05	284.25
467.42	283.18
467.78	282.08
468.15	281.03
468.52	280.28
468.88	279.29
469.25	278.38
469.62	277.61
469.98	276.84
470.35	276.09
470.72	275.38
471.08	274.61
471.45	273.97
471.82	273.33
472.18	272.65
472.55	272.14
472.92	271.53
473.28	270.99
473.65	270.45
474.02	269.92
474.38	269.49
474.75	269.09
475.11	268.69
475.48	268.40
475.85	268.09
476.21	267.76
476.58	267.53
476.94	267.34
477.31	267.16
477.67	266.93
478.04	266.78
478.41	266.65
478.77	266.70
479.14	266.60
479.50	266.55
479.87	266.58
480.23	266.63
480.60	266.66
480.96	266.73
481.33	266.94
481.69	267.14
482.06	267.32
482.42	267.48
482.79	267.69
483.15	267.96
483.52	268.32
483.88	268.69
484.25	269.06
484.61	269.44
484.98	269.85
485.34	270.43
485.71	271.03
486.07	271.64
486.44	272.14
486.80	272.80
487.17	273.54
487.53	274.37
487.90	275.22
488.26	276.16
488.62	277.13
488.99	278.06
489.35	279.05
489.72	280.17
490.08	281.35
490.44	282.60
490.81	283.94
491.17	285.32
491.54	286.79
491.90	288.34
492.26	290.02
492.63	291.77
492.99	293.54
493.36	295.47
493.72	297.51
494.08	299.67
494.45	301.96
494.81	304.36
495.17	306.77
495.54	309.39
495.90	312.10
496.26	314.96
496.63	318.00
496.99	321.23
497.35	324.52
497.72	328.04
498.08	331.57
498.44	335.32
498.80	339.32
499.17	343.44
499.53	347.69
499.89	352.14
500.26	356.76
500.62	361.49
500.98	366.51
501.34	371.71
501.71	377.15
502.07	382.74
502.43	388.45
502.79	394.37
503.16	400.55
503.52	406.94
503.88	413.49
504.24	420.22
504.60	427.20
504.97	434.50
505.33	441.92
505.69	449.84
506.05	457.76
506.41	465.78
506.78	474.07
507.14	482.68
507.50	491.55
507.86	500.70
508.22	510.12
508.59	519.45
508.95	529.25
509.31	539.25
509.67	549.51
510.03	559.99
510.39	570.87
510.75	581.88
511.12	593.06
511.48	604.57
511.84	616.28
512.20	628.07
512.56	640.24
512.92	652.61
513.28	665.22
513.64	677.99
514.00	691.05
514.37	704.28
514.73	717.69
515.09	731.06
515.45	744.71
515.81	758.62
516.17	772.94
516.53	787.42
516.89	802.00
517.25	816.52
517.61	831.39
517.97	846.21
518.33	861.07
518.69	876.35
519.05	891.78
519.41	907.42
519.77	923.31
520.13	939.27
520.49	955.36
520.85	971.24
521.21	987.34
521.57	1003.96
521.93	1020.31
522.29	1037.06
522.65	1053.87
523.01	1070.54
523.37	1087.10
523.73	1103.82
524.09	1120.37
524.45	1137.07
524.81	1154.37
525.17	1171.66
525.53	1189.12
525.89	1206.55
526.25	1223.98
526.61	1240.95
526.97	1258.39
527.33	1275.56
527.68	1292.65
528.04	1309.61
528.40	1326.84
528.76	1344.65
529.12	1361.96
529.48	1379.46
529.84	1396.27
530.20	1413.49
530.56	1431.21
530.91	1449.35
531.27	1466.96
531.63	1484.19
531.99	1501.63
532.35	1518.40
532.71	1535.19
533.07	1552.10
533.42	1568.88
533.78	1585.73
534.14	1602.83
534.50	1618.83
534.86	1635.51
535.21	1651.70
535.57	1668.48
535.93	1684.78
536.29	1700.34
536.65	1716.21
537.00	1731.84
537.36	1748.07
537.72	1763.62
538.08	1779.01
538.44	1793.61
538.79	1808.51
539.15	1823.14
539.51	1837.74
539.87	1853.07
540.22	1867.45
540.58	1882.35
540.94	1896.52
541.29	1910.15
541.65	1923.79
542.01	1938.09
542.37	1951.54
542.72	1964.95
543.08	1977.82
543.44	1991.43
543.79	2003.77
544.15	2015.89
544.51	2028.56
544.87	2040.55
545.22	2052.39
545.58	2063.70
545.94	2074.55
546.29	2085.39
546.65	2096.32
547.01	2106.72
547.36	2116.53
547.72	2126.46
548.07	2135.46
548.43	2144.69
548.79	2153.77
549.14	2162.52
549.50	2170.93
549.86	2179.59
550.21	2187.89
550.57	2196.07
550.92	2203.64
551.28	2211.74
551.64	2219.85
551.99	2227.43
552.35	2234.65
552.70	2241.79
553.06	2248.98
553.41	2256.46
553.77	2263.53
554.13	2270.66
554.48	2277.83
554.84	2284.53
555.19	2290.68
555.55	2296.86
555.90	2302.43
556.26	2308.67
556.61	2314.26
556.97	2319.59
557.32	2324.74
557.68	2330.02
558.03	2335.31
558.39	2339.75
558.74	2345.34
559.10	2350.29
559.45	2354.86
559.81	2360.11
560.16	2364.95
560.52	2368.92
560.87	2373.19
561.23	2376.69
561.58	2380.42
561.94	2383.84
562.29	2386.79
562.64	2390.58
563.00	2393.87
563.35	2398.31
563.71	2402.17
564.06	2406.18
564.42	2409.90
564.77	2413.37
565.12	2416.62
565.48	2419.40
565.83	2422.24
566.19	2424.44
566.54	2425.82
566.89	2427.89
567.25	2429.24
567.60	2431.31
567.96	2433.78
568.31	2435.44
568.66	2437.25
569.02	2438.56
569.37	2439.51
569.72	2441.13
570.08	2441.65
570.43	2442.20
570.78	2442.14
571.14	2441.06
571.49	2440.25
571.84	2440.38
572.20	2439.66
572.55	2439.02
572.90	2437.72
573.26	2436.90
573.61	2435.60
573.96	2434.66
574.31	2432.01
574.67	2429.35
575.02	2425.92
575.37	2422.79
575.72	2419.28
576.08	2416.01
576.43	2412.65
576.78	2409.57
577.13	2406.45
577.49	2403.56
577.84	2400.54
578.19	2396.84
578.54	2393.48
578.90	2389.57
579.25	2384.15
579.60	2379.35
579.95	2374.42
580.30	2369.43
580.66	2364.15
581.01	2359.08
581.36	2353.91
581.71	2349.87
582.06	2345.67
582.42	2341.46
582.77	2336.28
583.12	2331.82
583.47	2327.41
583.82	2322.78
584.17	2317.21
584.53	2311.63
584.88	2305.89
585.23	2300.02
585.58	2294.57
585.93	2288.95
586.28	2283.91
586.63	2278.88
586.98	2273.53
587.34	2268.62
587.69	2263.72
588.04	2258.59
588.39	2252.82
588.74	2246.18
589.09	2239.68
589.44	2232.55
589.79	2225.87
590.14	2220.00
590.49	2213.00
590.84	2206.19
591.19	2199.84
591.54	2193.10
591.89	2185.62
592.25	2178.77
592.60	2171.27
592.95	2163.37
593.30	2155.72
593.65	2147.74
594.00	2140.18
594.35	2132.68
594.70	2124.02
595.05	2116.69
595.40	2108.84
595.75	2101.01
596.10	2094.54
596.45	2087.55
596.80	2080.91
597.15	2074.24
597.50	2066.96
597.85	2060.09
598.19	2053.08
598.54	2045.76
598.89	2038.85
599.24	2032.52
599.59	2025.62
599.94	2018.94
600.29	2012.04
600.64	2004.85
600.99	1997.07
601.34	1989.88
601.69	1982.25
602.04	1975.06
602.39	1966.95
602.74	1959.73
603.08	1952.56
603.43	1945.22
603.78	1937.31
604.13	1929.62
604.48	1921.88
604.83	1914.43
605.18	1907.20
605.53	1898.88
605.87	1890.17
606.22	1882.23
606.57	1873.65
606.92	1865.41
607.27	1857.85
607.62	1850.61
607.96	1842.98
608.31	1836.02
608.66	1827.87
609.01	1819.91
609.36	1811.92
609.70	1803.39
610.05	1794.68
610.40	1786.36
610.75	1777.50
611.10	1769.26
611.44	1760.02
611.79	1751.28
612.14	1741.80
612.49	1731.73
612.83	1722.44
613.18	1713.61
613.53	1704.88
613.88	1695.60
614.22	1686.54
614.57	1676.88
614.92	1668.06
615.27	1659.89
615.61	1650.85
615.96	1641.98
616.31	1633.50
616.65	1625.40
617.00	1617.20
617.35	1608.76
617.70	1599.67
618.04	1590.35
618.39	1581.27
618.74	1573.16
619.08	1564.10
619.43	1555.82
619.78	1548.20
620.12	1540.47
620.47	1532.37
620.82	1523.32
621.16	1515.11
621.51	1506.78
621.85	1498.55
622.20	1489.33
622.55	1480.15
622.89	1471.48
623.24	1463.10
623.59	1454.96
623.93	1446.78
624.28	1438.80
624.62	1430.71
624.97	1422.94
625.32	1415.43
625.66	1407.77
626.01	1400.01
626.35	1392.01
626.70	1383.49
627.04	1375.20
627.39	1366.58
627.73	1358.28
628.08	1350.77
628.43	1343.11
628.77	1335.28
629.12	1327.15
629.46	1319.31
629.81	1311.04
630.15	1303.01
630.50	1294.99
630.84	1286.27
631.19	1277.49
631.53	1269.13
631.88	1260.78
632.22	1252.42
632.57	1244.47
632.91	1236.23
633.26	1228.04
633.60	1219.81
633.95	1212.04
634.29	1204.19
634.64	1196.86
634.98	1188.98
635.32	1181.21
635.67	1173.82
636.01	1166.50
636.36	1159.07
636.70	1151.84
637.05	1144.85
637.39	1137.84
637.73	1130.76
638.08	1124.25
638.42	1117.70
638.77	1110.85
639.11	1103.78
639.45	1096.88
639.80	1089.71
640.14	1082.78
640.49	1075.77
640.83	1068.94
641.17	1062.30
641.52	1055.46
641.86	1048.40
642.20	1042.04
642.55	1035.08
642.89	1028.17
643.23	1020.95
643.58	1014.69
643.92	1008.01
644.26	1001.53
644.61	994.82
644.95	988.35
645.29	981.31
645.64	974.07
645.98	967.11
646.32	960.54
646.66	953.94
647.01	947.69
647.35	941.49
647.69	935.13
648.04	929.09
648.38	922.84
648.72	916.51
649.06	910.11
649.41	903.72
649.75	897.35
650.09	890.82
650.43	884.59
650.78	877.89
651.12	871.53
651.46	865.19
651.80	859.22
652.14	853.38
652.49	847.53
652.83	841.87
653.17	835.87
653.51	829.84
653.85	824.02
654.20	817.95
654.54	811.57
654.88	805.25
655.22	798.92
655.56	792.71
655.90	786.60
656.25	780.92
656.59	775.06
656.93	769.57
657.27	764.04
657.61	758.22
657.95	752.71
658.29	747.12
658.64	741.41
658.98	735.58
659.32	729.70
659.66	724.11
660.00	718.49
660.34	713.09
660.68	707.79
661.02	702.43
661.36	697.35
661.70	692.39
662.05	687.71
662.39	683.09
662.73	678.30
663.07	673.69
663.41	668.94
663.75	664.18
664.09	659.22
664.43	654.48
664.77	650.13
665.11	645.58
665.45	641.16
665.79	636.88
666.13	632.48
666.47	628.05
666.81	623.61
667.15	619.18
667.49	614.95
667.83	610.80
668.17	606.53
668.51	602.18
668.85	597.82
669.19	593.62
669.53	589.47
669.87	585.32
670.21	581.29
670.55	577.27
670.89	573.61
671.23	570.00
671.57	566.17
671.91	562.36
672.25	558.62
672.58	554.87
672.92	551.10
673.26	547.61
673.60	544.22
673.94	540.84
674.28	537.64
674.62	534.53
674.96	531.23
675.30	528.17
675.64	525.01
675.97	522.05
676.31	519.02
676.65	515.84
676.99	512.90
677.33	509.80
677.67	506.83
678.01	503.52
678.34	500.31
678.68	497.19
679.02	494.14
679.36	491.12
679.70	488.15
680.04	485.20
680.37	482.17
680.71	479.11
681.05	476.26
681.39	473.36
681.73	470.37
682.06	467.66
682.40	464.91
682.74	462.16
683.08	459.42
683.42	456.64
683.75	453.97
684.09	451.20
684.43	448.57
684.77	445.87
685.10	443.30
685.44	440.69
685.78	438.22
686.12	435.75
686.45	433.28
686.79	430.87
687.13	428.51
687.46	426.16
687.80	423.78
688.14	421.35
688.48	419.12
688.81	416.79
689.15	414.42
689.49	412.03
689.82	409.75
690.16	407.40
690.50	405.24
690.83	403.11
691.17	400.93
691.51	398.81
691.84	396.81
692.18	394.77
692.52	392.70
692.85	390.55
693.19	388.53
693.52	386.49
693.86	384.44
694.20	382.45
694.53	380.52
694.87	378.54
695.21	376.65
695.54	374.63
695.88	372.72
696.21	370.82
696.55	368.99
696.88	367.13
697.22	365.31
697.56	363.48
697.89	361.66
698.23	359.96
698.56	358.23
698.90	356.51
699.23	354.76
699.57	353.12
699.90	351.45
700.24	349.73
700.58	348.14
700.91	346.58
701.25	345.03
701.58	343.56
701.92	342.12
702.25	340.61
702.59	339.11
702.92	337.70
703.26	336.31
703.59	334.88
703.93	333.60
704.26	332.30
704.60	330.93
704.93	329.55
705.26	328.13
705.60	326.82
705.93	325.51
706.27	324.35
706.60	323.14
706.94	322.01
707.27	320.79
707.61	319.55
707.94	318.39
708.27	317.20
708.61	315.94
708.94	314.80
709.28	313.71
709.61	312.65
709.94	311.57
710.28	310.45
710.61	309.36
710.95	308.20
711.28	307.23
711.61	306.18
711.95	305.21
712.28	304.26
712.61	303.18
712.95	302.15
713.28	301.13
713.61	300.15
713.95	299.20
714.28	298.30
714.61	297.38
714.95	296.47
715.28	295.51
715.61	294.58
715.95	293.62
716.28	292.69
716.61	291.77
716.95	290.88
717.28	290.01
717.61	289.19
717.94	288.39
718.28	287.46
718.61	286.68
718.94	285.87
719.27	285.09
719.61	284.42
719.94	283.74
720.27	282.99
720.60	282.26
720.94	281.53
721.27	280.85
721.60	280.19
721.93	279.52
722.27	278.95
722.60	278.32
722.93	277.72
723.26	277.12
723.59	276.49
723.93	275.87
724.26	275.28
724.59	274.70
724.92	274.12
725.25	273.62
725.59	273.05
725.92	272.54
726.25	271.97
726.58	271.42
726.91	270.86
727.24	270.34
727.57	269.83
727.91	269.29
728.24	268.78
728.57	268.26
728.90	267.77
729.23	267.24
729.56	266.79
729.89	266.27
730.22	265.75
730.55	265.30
730.89	264.82
731.22	264.33
731.55	263.83
731.88	263.31
732.21	262.84
732.54	262.35
732.87	261.87
733.20	261.45
733.53	261.03
733.86	260.66
734.19	260.21
734.52	259.84
734.85	259.47
735.18	259.03
735.51	258.64
735.84	258.25
736.17	257.84
736.50	257.43
736.83	257.19
737.16	256.83
737.49	256.44
737.82	256.06
738.15	255.72
738.48	255.40
738.81	255.10
739.14	254.72
739.47	254.44
739.80	254.11
740.13	253.77
740.46	253.41
740.79	253.03
741.12	252.70
741.45	252.31
741.78	251.97
742.11	251.67
742.44	251.31
742.77	251.00
743.10	250.69
743.43	250.36
743.75	249.99
744.08	249.81
744.41	249.53
744.74	249.27
745.07	249.01
745.40	248.73
745.73	248.44
746.06	248.15
746.39	247.82
746.71	247.54
747.04	247.25
747.37	247.00
747.70	246.73
748.03	246.46
748.36	246.24
748.68	245.96
749.01	245.68
749.34	245.47
749.67	245.23
750.00	244.97
750.33	244.77
750.65	244.53
750.98	244.19
751.31	243.94
751.64	243.70
751.97	243.49
752.29	243.24
752.62	242.96
752.95	242.74
753.28	242.53
753.60	242.31
753.93	242.12
754.26	241.89
754.59	241.64
754.91	241.44
755.24	241.22
755.57	241.01
755.90	240.81
756.22	240.58
756.55	240.36
756.88	240.15
757.20	239.90
757.53	239.66
757.86	239.47
758.19	239.30
758.51	239.12
758.84	238.87
759.17	238.70
759.49	238.57
759.82	238.45
760.15	238.25
760.47	238.12
760.80	237.93
761.13	237.80
761.45	237.63
761.78	237.49
762.11	237.32
762.43	237.18
762.76	237.02
763.08	236.88
763.41	236.77
763.74	236.64
764.06	236.48
764.39	236.34
764.71	236.17
765.04	236.02
765.37	235.88
765.69	235.76
766.02	235.64
766.34	235.47
766.67	235.29
767.00	235.20
767.32	235.07
767.65	234.98
767.97	234.84
768.30	234.73
768.62	234.59
768.95	234.45
769.27	234.29
769.60	234.17
769.92	234.03
770.25	233.85
770.57	233.70
770.90	233.59
771.22	233.45
771.55	233.33
771.87	233.23
772.20	233.09
772.52	233.08
772.85	233.07
773.17	232.97
773.50	232.85
773.82	232.71
774.15	232.55
774.47	232.40
774.80	232.27
775.12	232.16
775.45	232.05
775.77	231.99
776.09	231.94
776.42	231.86
776.74	231.78
777.07	231.73
777.39	231.66
777.72	231.54
778.04	231.50
778.36	231.45
778.69	231.36
779.01	231.32
779.33	231.14
779.66	230.99
779.98	230.93
780.31	230.88
780.63	230.83
780.95	230.84
781.28	230.75
781.60	230.67
781.92	230.62
782.25	230.54
782.57	230.47
782.89	230.40
783.22	230.34
783.54	230.29
783.86	230.22
784.19	230.14
784.51	230.15
784.83	230.08
785.16	230.01
785.48	229.95
785.80	229.87
786.12	229.81
786.45	229.73
786.77	229.65
787.09	229.59
787.42	229.56
787.74	229.49
788.06	229.43
788.38	229.41
788.71	229.36
789.03	229.35
789.35	229.33
789.67	229.26
789.99	229.22
790.32	229.17
790.64	229.14
790.96	229.19
791.28	229.13
791.61	229.05
791.93	229.03
792.25	228.97
792.57	229.00
792.89	228.97
793.21	228.91
793.54	228.89
793.86	228.86
794.18	228.80
794.50	228.73
794.82	228.71
795.14	228.68
795.47	228.65
795.79	228.57
796.11	228.49
796.43	228.48
796.75	228.42
797.07	228.39
797.39	228.35
797.71	228.25
798.04	228.20
798.36	228.21
798.68	228.21
799.00	228.20
799.32	228.13
799.64	228.09
799.96	228.07
800.28	228.07
800.60	228.01
800.92	228.00
801.24	228.00
801.56	228.00
801.89	227.95
802.21	227.91
802.53	227.91
802.85	227.93
803.17	227.93
803.49	227.87
803.81	227.84
804.13	227.79
804.45	227.75
804.77	227.76
805.09	227.73
805.41	227.68
805.73	227.60
806.05	227.52
806.37	227.48
806.69	227.47
807.01	227.42
807.33	227.40
807.65	227.31
807.97	227.31
808.28	227.27
808.60	227.28
808.92	227.26
809.24	227.27
809.56	227.23
809.88	227.17
810.20	227.17
810.52	227.17
810.84	227.14
811.16	227.10
811.48	227.00
811.80	226.98
812.12	226.93
812.43	226.93
812.75	226.91
813.07	226.93
813.39	226.87
813.71	226.84
814.03	226.81
814.35	226.84
814.67	226.74
814.98	226.69
815.30	226.65
815.62	226.58
815.94	226.50
816.26	226.52
816.58	226.45
816.89	226.41
817.21	226.36
817.53	226.35
817.85	226.34
818.17	226.34
818.48	226.32
818.80	226.36
819.12	226.34
819.44	226.35
819.76	226.30
820.07	226.30
820.39	226.27
820.71	226.30
821.03	226.27
821.34	226.30
821.66	226.28
821.98	226.29
822.30	226.30
822.61	226.33
822.93	226.27
823.25	226.29
823.57	226.27
823.88	226.27
824.20	226.28
824.52	226.30
824.83	226.28
825.15	226.24
825.47	226.21
825.79	226.23
826.10	226.17
826.42	226.16
826.74	226.16
827.05	226.17
827.37	226.14
827.69	226.13
828.00	226.10
828.32	226.10
828.64	226.09
828.95	226.15
829.27	226.09
829.58	226.07
829.90	226.07
830.22	226.09
830.53	226.10
830.85	226.06
831.17	226.05
831.48	226.08
831.80	226.10
832.11	226.08
832.43	226.06
832.75	226.07
833.06	226.09
833.38	226.07
833.69	226.06
834.01	226.07
834.32	226.04
834.64	226.04
834.96	226.05
835.27	226.02
835.59	225.96
835.90	225.95
836.22	225.95
836.53	225.90
836.85	225.88
837.16	225.94
837.48	225.96
837.79	225.96
838.11	225.92
838.42	225.88
838.74	225.88
839.05	225.87
839.37	225.85
839.68	225.80
840.00	225.79
840.31	225.79
840.63	225.74
840.94	225.75
841.26	225.72
841.57	225.70
841.88	225.69
842.20	225.70
842.51	225.67
842.83	225.67
843.14	225.78
843.46	225.78
843.77	225.74
844.08	225.68
844.40	225.64
844.71	225.64
845.03	225.64
845.34	225.62
845.65	225.59
845.97	225.60
846.28	225.61
846.60	225.62
846.91	225.62
847.22	225.59
847.54	225.56
847.85	225.54
848.16	225.55
848.48	225.53
848.79	225.50
849.10	225.53
849.42	225.51
849.73	225.40
850.04	225.39
850.36	225.30
850.67	225.30
850.98	225.28
851.30	225.31
851.61	225.29
851.92	225.28
852.23	225.29
852.55	225.28
852.86	225.25
853.17	225.20
853.49	225.20
853.80	225.23
854.11	225.27
854.42	225.28
854.74	225.23
855.05	225.23
855.36	225.19
855.67	225.16
855.99	225.17
856.30	225.27
856.61	225.25
856.92	225.28
857.23	225.29
857.55	225.28
857.86	225.25
858.17	225.26
858.48	225.24
858.79	225.21
859.11	225.22
859.42	225.24
859.73	225.27
860.04	225.26
860.35	225.20
860.66	225.17
860.98	225.20
861.29	225.23
861.60	225.25
861.91	225.26
862.22	225.27
862.53	225.24
862.84	225.15
863.16	225.17
863.47	225.12
863.78	225.10
864.09	225.12
864.40	225.08
864.71	225.07
865.02	225.09
865.33	225.09
865.64	225.07
865.95	225.08
866.27	225.13
866.58	225.13
866.89	225.14
867.20	225.14
867.51	225.09
867.82	225.09
868.13	225.11
868.44	225.13
868.75	225.13
869.06	225.14
869.37	225.15
869.68	225.13
869.99	225.17
870.30	225.21
870.61	225.22
870.92	225.22
871.23	225.21
871.54	225.22
871.85	225.24
872.16	225.26
872.47	225.22
872.78	225.15
873.09	225.13
873.40	225.15
873.71	225.16
874.02	225.21
874.33	225.19
874.64	225.16
874.95	225.15
875.26	225.15
875.56	225.15
875.87	225.17
876.18	225.15
876.49	225.28
876.80	225.27
877.11	225.25
877.42	225.26
877.73	225.28
878.04	225.27
878.35	225.27
878.66	225.26
878.96	225.30
879.27	225.32
879.58	225.34
879.89	225.35
880.20	225.37
880.51	225.34
880.82	225.36
881.12	225.40
881.43	225.39
881.74	225.38
882.05	225.38
882.36	225.35
882.67	225.39
882.97	225.26
883.28	225.23
883.59	225.22
883.90	225.21
884.21	225.22
884.51	225.22
884.82	225.23
885.13	225.24
885.44	225.19
885.74	225.19
886.05	225.17
886.36	225.15
886.67	225.11
886.98	225.18
887.28	225.16
887.59	225.13
887.90	225.14
888.20	225.09
888.51	225.08
888.82	225.07
889.13	225.07
889.43	225.15
889.74	225.16
890.05	225.20
890.35	225.22
890.66	225.17
890.97	225.14
891.28	225.09
891.58	225.06
891.89	225.07
892.20	225.04
892.50	225.03
892.81	225.02
893.12	224.99
893.42	224.94
893.73	224.92
894.04	224.92
894.34	224.93
894.65	224.93
894.95	224.93
895.26	224.93
895.57	224.95
895.87	224.81
896.18	224.83
896.48	224.82
896.79	224.79
897.10	224.82
897.40	224.85
897.71	224.87
898.01	224.86
898.32	224.86
898.63	224.87
898.93	224.85
899.24	224.81
899.54	224.80
899.85	224.77
900.15	224.78
900.46	224.79
900.76	224.76
901.07	224.79
901.38	224.79
901.68	224.77
901.99	224.71
902.29	224.75
902.60	224.71
902.90	224.66
903.21	224.62
903.51	224.62
903.82	224.61
904.12	224.61
904.43	224.63
904.73	224.66
905.03	224.62
905.34	224.72
905.64	224.75
905.95	224.77
906.25	224.76
906.56	224.75
906.86	224.72
907.17	224.72
907.47	224.71
907.77	224.69
908.08	224.70
908.38	224.72
908.69	224.73
908.99	224.76
909.30	224.78
909.60	224.78
909.90	224.78
910.21	224.75
910.51	224.75
910.81	224.72
911.12	224.69
911.42	224.71
911.73	224.63
912.03	224.62
912.33	224.64
912.64	224.66
912.94	224.67
913.24	224.66
913.55	224.69
913.85	224.71
914.15	224.73
914.46	224.74
914.76	224.75
915.06	224.74
915.37	224.74
915.67	224.72
915.97	224.75
916.27	224.74
916.58	224.77
916.88	224.77
917.18	224.80
917.49	224.87
917.79	224.85
918.09	224.85
918.39	224.89
918.70	224.83
919.00	224.82
919.30	224.87
919.60	224.84
919.91	224.79
920.21	224.78
920.51	224.73
920.81	224.75
921.12	224.78
921.42	224.78
921.72	224.77
922.02	224.76
922.32	224.77
922.63	224.77
922.93	224.78
923.23	224.78
923.53	224.75
923.83	224.67
924.13	224.69
924.44	224.68
924.74	224.66
925.04	224.73
925.34	224.73
925.64	224.67
925.94	224.68
926.24	224.71
926.55	224.72
926.85	224.74
927.15	224.71
927.45	224.68
927.75	224.70
928.05	224.71
928.35	224.70
928.65	224.67
928.95	224.63
929.26	224.58
929.56	224.58
929.86	224.59
930.16	224.59
930.46	224.58
930.76	224.62
931.06	224.59
931.36	224.56
931.66	224.55
931.96	224.55
932.26	224.54
932.56	224.50
932.86	224.51
933.16	224.51
933.46	224.50
933.76	224.47
934.06	224.46
934.36	224.47
934.66	224.50
934.96	224.49
935.26	224.55
935.56	224.54
935.86	224.53
936.16	224.50
936.46	224.50
936.76	224.46
937.06	224.40
937.36	224.39
937.66	224.37
937.96	224.37
938.26	224.36
938.56	224.35
938.86	224.34
939.16	224.35
939.46	224.33
939.76	224.33
940.06	224.35
940.35	224.30
940.65	224.26
940.95	224.23
941.25	224.20
941.55	224.18
941.85	224.18
942.15	224.19
942.45	224.20
942.75	224.18
943.04	224.20
943.34	224.23
943.64	224.25
943.94	224.24
944.24	224.21
944.54	224.22
944.84	224.21
945.13	224.19
945.43	224.17
945.73	224.21
946.03	224.18
946.33	224.16
946.62	224.15
946.92	224.15
947.22	224.17
947.52	224.18
947.82	224.17
948.11	224.15
948.41	224.12
948.71	224.07
949.01	224.08
949.31	224.07
949.60	224.07
949.90	224.06
950.20	224.05
950.50	224.07
950.79	224.05
951.09	224.06
951.39	224.08
951.69	224.08
951.98	224.07
952.28	224.09
952.58	224.09
952.87	224.06
953.17	224.07
953.47	224.09
953.76	224.11
954.06	224.11
954.36	224.11
954.66	224.13
954.95	224.17
955.25	224.20
955.55	224.24
955.84	224.24
956.14	224.25
956.44	224.28
956.73	224.29
957.03	224.30
957.32	224.33
957.62	224.37
957.92	224.37
958.21	224.36
958.51	224.48
958.81	224.49
959.10	224.55
959.40	224.57
959.69	224.58
959.99	224.61
960.29	224.62
960.58	224.66
960.88	224.69
961.17	224.73
961.47	224.76
961.76	224.76
962.06	224.77
962.36	224.80
962.65	224.82
962.95	224.81
963.24	224.83
963.54	224.84
963.83	224.82
964.13	224.82
964.42	224.82
964.72	224.75
965.01	224.76
965.31	224.76
965.60	224.74
965.90	224.79
966.19	224.77
966.49	224.81
966.78	224.78
967.08	224.74
967.37	224.73
967.67	224.70
967.96	224.70
968.26	224.71
968.55	224.67
968.85	224.62
969.14	224.62
969.43	224.61
969.73	224.62
970.02	224.62
970.32	224.64
970.61	224.61
970.91	224.56
971.20	224.55
971.49	224.52
971.79	224.52
972.08	224.45
972.38	224.45
972.67	224.45
972.96	224.48
973.26	224.52
973.55	224.57
973.85	224.54
974.14	224.54
974.43	224.51
974.73	224.50
975.02	224.51
975.31	224.51
975.61	224.48
975.90	224.41
976.19	224.38
976.49	224.36
976.78	224.38
977.07	224.39
977.37	224.38
977.66	224.39
977.95	224.38
978.24	224.38
978.54	224.40
978.83	224.34
979.12	224.32
979.42	224.28
979.71	224.23
980.00	224.21
980.29	224.24
980.59	224.25
980.88	224.28
981.17	224.28
981.46	224.25
981.76	224.26
982.05	224.34
982.34	224.31
982.63	224.31
982.93	224.32
983.22	224.33
983.51	224.33
983.80	224.32
984.09	224.33
984.39	224.29
984.68	224.28
984.97	224.28
985.26	224.26
985.55	224.26
985.85	224.24
986.14	224.27
986.43	224.24
986.72	224.22
987.01	224.17
987.30	224.18
987.59	224.17
987.89	224.18
988.18	224.14
988.47	224.17
988.76	224.14
989.05	224.12
989.34	224.10
989.63	224.14
989.92	224.14
990.22	224.13
990.51	224.17
990.80	224.16
991.09	224.15
991.38	224.19
991.67	224.20
991.96	224.20
992.25	224.22
992.54	224.21
992.83	224.20
993.12	224.20
993.41	224.18
993.70	224.26
993.99	224.27
994.28	224.31
994.58	224.31
994.87	224.33
995.16	224.35
995.45	224.36
995.74	224.36
996.03	224.37
996.32	224.39
996.61	224.39
996.90	224.42
997.19	224.44
997.48	224.39
997.77	224.35
998.06	224.36
998.34	224.35
998.63	224.35
998.92	224.39
999.21	224.41
999.50	224.42
999.79	224.37
1000.08	224.40
1000.37	224.37
1000.66	224.36
1000.95	224.35
1001.24	224.37
1001.53	224.38
1001.82	224.35
1002.11	224.33
1002.40	224.37
1002.68	224.41
1002.97	224.45
1003.26	224.43
1003.55	224.45
1003.84	224.47
1004.13	224.50
1004.42	224.47
1004.71	224.46
1004.99	224.46
1005.28	224.49
1005.57	224.53
1005.86	224.51
1006.15	224.48
1006.44	224.49
1006.72	224.50
1007.01	224.53
1007.30	224.50
1007.59	224.48
1007.88	224.52
1008.17	224.55
1008.45	224.50
1008.74	224.44
1009.03	224.40
1009.32	224.41
1009.60	224.43
1009.89	224.44
1010.18	224.41
1010.47	224.43
1010.76	224.46
1011.04	224.46
1011.33	224.46
1011.62	224.42
1011.91	224.42
1012.19	224.40
1012.48	224.39
1012.77	224.43
1013.05	224.45
1013.34	224.43
1013.63	224.43
1013.92	224.40
1014.20	224.39
1014.49	224.37
1014.78	224.39
1015.06	224.37
1015.35	224.36
1015.64	224.34
1015.92	224.36
1016.21	224.36
1016.50	224.36
1016.78	224.35
1017.07	224.37
1017.36	224.32
1017.64	224.31
1017.93	224.36
1018.22	224.37
1018.50	224.38
1018.79	224.36
1019.08	224.30
1019.36	224.31
1019.65	224.32
1019.93	224.32
1020.22	224.33
1020.51	224.42
1020.79	224.39
1021.08	224.13
1021.36	224.62
1021.65	224.40
1021.94	223.95
1022.22	224.04
1022.51	224.22
1022.79	224.57
1023.08	224.37
1023.36	225.84
1023.65	224.01
>>>>>End Processed Spectral Data<<<<<
