SpectraSuite Data File
++++++++++++++++++++++++++++++++++++
Date: Fri Feb 01 18:08:35 EST 2013
User: group
Dark Spectrum Present: No
Reference Spectrum Present: No
Number of Sampled Component Spectra: 1
Spectrometers: USB2E7196
Integration Time (usec): 35000 (USB2E7196)
Spectra Averaged: 100 (USB2E7196)
Boxcar Smoothing: 10 (USB2E7196)
Correct for Electrical Dark: No (USB2E7196)
Strobe/Lamp Enabled: No (USB2E7196)
Correct for Detector Non-linearity: No (USB2E7196)
Correct for Stray Light: No (USB2E7196)
Number of Pixels in Processed Spectrum: 2048
>>>>>Begin Processed Spectral Data<<<<<
339.09	0.00
339.48	213.26
339.86	214.74
340.24	216.00
340.63	217.97
341.01	220.33
341.39	220.49
341.78	221.64
342.16	222.50
342.54	223.66
342.93	211.70
343.31	222.38
343.69	222.92
344.07	223.37
344.46	223.81
344.84	224.16
345.22	224.40
345.60	224.61
345.99	224.77
346.37	224.92
346.75	225.01
347.13	225.08
347.52	225.12
347.90	225.15
348.28	225.15
348.66	225.20
349.05	225.17
349.43	225.19
349.81	225.21
350.19	225.25
350.57	225.33
350.96	225.38
351.34	225.46
351.72	225.52
352.10	225.61
352.48	225.63
352.87	225.66
353.25	225.68
353.63	225.75
354.01	225.80
354.39	225.85
354.77	225.92
355.15	226.03
355.54	226.06
355.92	226.12
356.30	226.19
356.68	226.28
357.06	226.38
357.44	226.44
357.82	226.47
358.20	226.52
358.58	226.56
358.97	226.62
359.35	226.73
359.73	226.79
360.11	226.85
360.49	226.93
360.87	226.99
361.25	227.08
361.63	227.14
362.01	227.21
362.39	227.27
362.77	227.29
363.15	227.31
363.53	227.37
363.91	227.38
364.29	227.42
364.67	227.40
365.05	227.38
365.43	227.41
365.81	227.47
366.19	227.51
366.57	227.55
366.95	227.52
367.33	227.46
367.71	227.47
368.09	227.47
368.47	227.48
368.85	227.46
369.23	227.48
369.61	227.45
369.99	227.47
370.37	227.42
370.75	227.43
371.13	227.37
371.51	227.35
371.89	227.32
372.27	227.31
372.65	227.27
373.03	227.31
373.41	227.29
373.78	227.25
374.16	227.21
374.54	227.14
374.92	227.09
375.30	227.06
375.68	226.98
376.06	226.93
376.44	226.86
376.82	226.82
377.19	226.73
377.57	226.67
377.95	226.56
378.33	226.52
378.71	226.43
379.09	226.40
379.47	226.32
379.84	226.25
380.22	226.16
380.60	226.09
380.98	225.99
381.36	225.90
381.73	225.82
382.11	225.78
382.49	225.72
382.87	225.66
383.25	225.60
383.62	225.68
384.00	225.62
384.38	225.60
384.76	225.56
385.13	225.60
385.51	225.55
385.89	225.51
386.27	225.48
386.64	225.47
387.02	225.46
387.40	225.44
387.78	225.42
388.15	225.39
388.53	225.34
388.91	225.30
389.29	225.29
389.66	225.27
390.04	225.24
390.42	225.25
390.79	225.26
391.17	225.26
391.55	225.15
391.92	225.15
392.30	225.13
392.68	225.12
393.05	225.07
393.43	225.08
393.81	225.07
394.18	225.06
394.56	225.05
394.94	225.04
395.31	225.04
395.69	225.08
396.06	225.13
396.44	225.18
396.82	225.22
397.19	225.29
397.57	225.36
397.95	225.35
398.32	225.37
398.70	225.43
399.07	225.50
399.45	225.55
399.82	225.59
400.20	225.67
400.58	225.74
400.95	225.78
401.33	225.88
401.70	226.04
402.08	226.13
402.45	226.23
402.83	226.38
403.20	226.48
403.58	226.57
403.95	226.69
404.33	226.83
404.71	226.94
405.08	227.11
405.46	227.23
405.83	227.43
406.21	227.60
406.58	227.76
406.96	227.93
407.33	228.12
407.70	228.37
408.08	228.68
408.45	228.94
408.83	229.24
409.20	229.51
409.58	229.72
409.95	230.04
410.33	230.41
410.70	230.71
411.08	231.12
411.45	231.50
411.82	231.89
412.20	232.35
412.57	232.92
412.95	233.34
413.32	233.88
413.69	234.46
414.07	235.03
414.44	235.66
414.82	236.28
415.19	237.01
415.56	237.72
415.94	238.44
416.31	239.31
416.68	240.14
417.06	241.07
417.43	242.02
417.81	243.08
418.18	244.09
418.55	245.21
418.93	246.38
419.30	247.62
419.67	248.89
420.04	250.18
420.42	251.54
420.79	253.13
421.16	254.69
421.54	256.23
421.91	257.86
422.28	259.60
422.66	261.41
423.03	263.17
423.40	265.03
423.77	266.96
424.15	268.86
424.52	270.91
424.89	273.10
425.26	275.22
425.64	277.21
426.01	279.40
426.38	281.68
426.75	283.98
427.13	286.34
427.50	288.83
427.87	291.40
428.24	293.97
428.61	296.37
428.99	299.07
429.36	302.03
429.73	304.89
430.10	307.68
430.47	310.54
430.85	313.46
431.22	316.54
431.59	319.78
431.96	322.89
432.33	326.27
432.70	329.54
433.08	333.41
433.45	337.07
433.82	340.65
434.19	344.61
434.56	348.42
434.93	352.08
435.30	355.68
435.68	359.59
436.05	363.47
436.42	367.34
436.79	370.74
437.16	374.37
437.53	378.24
437.90	382.04
438.27	385.75
438.64	389.64
439.01	393.18
439.38	396.29
439.75	399.31
440.13	402.75
440.50	405.97
440.87	408.51
441.24	411.12
441.61	414.10
441.98	416.16
442.35	418.69
442.72	421.22
443.09	423.68
443.46	425.06
443.83	425.84
444.20	426.49
444.57	427.65
444.94	428.07
445.31	428.54
445.68	428.97
446.05	429.13
446.42	428.57
446.79	427.99
447.16	427.34
447.53	426.88
447.90	425.27
448.27	423.65
448.64	421.39
449.01	419.80
449.37	417.08
449.74	414.48
450.11	411.35
450.48	407.93
450.85	404.44
451.22	401.47
451.59	398.69
451.96	396.02
452.33	392.46
452.70	389.24
453.07	385.37
453.43	381.43
453.80	377.62
454.17	373.99
454.54	370.52
454.91	366.80
455.28	363.09
455.65	359.66
456.02	356.24
456.38	353.34
456.75	349.70
457.12	346.60
457.49	343.51
457.86	340.55
458.23	338.00
458.59	335.18
458.96	332.33
459.33	329.79
459.70	327.22
460.07	325.11
460.43	322.72
460.80	320.47
461.17	318.48
461.54	316.40
461.91	314.37
462.27	312.36
462.64	310.65
463.01	308.79
463.38	307.02
463.74	305.20
464.11	303.56
464.48	302.14
464.85	300.60
465.21	299.39
465.58	298.12
465.95	296.60
466.32	295.35
466.68	294.13
467.05	292.85
467.42	291.63
467.78	290.37
468.15	289.20
468.52	288.28
468.88	287.11
469.25	286.07
469.62	285.23
469.98	284.30
470.35	283.38
470.72	282.55
471.08	281.66
471.45	280.93
471.82	280.17
472.18	279.38
472.55	278.80
472.92	278.08
473.28	277.46
473.65	276.84
474.02	276.23
474.38	275.68
474.75	275.27
475.11	274.75
475.48	274.36
475.85	273.97
476.21	273.62
476.58	273.32
476.94	273.08
477.31	272.78
477.67	272.52
478.04	272.32
478.41	272.17
478.77	272.11
479.14	271.95
479.50	271.87
479.87	271.86
480.23	271.85
480.60	271.87
480.96	271.86
481.33	272.05
481.69	272.20
482.06	272.38
482.42	272.50
482.79	272.74
483.15	273.04
483.52	273.42
483.88	273.72
484.25	274.09
484.61	274.46
484.98	274.92
485.34	275.45
485.71	276.05
486.07	276.66
486.44	277.23
486.80	277.96
487.17	278.72
487.53	279.52
487.90	280.39
488.26	281.30
488.62	282.29
488.99	283.29
489.35	284.37
489.72	285.55
490.08	286.81
490.44	288.08
490.81	289.45
491.17	290.82
491.54	292.39
491.90	294.01
492.26	295.75
492.63	297.56
492.99	299.47
493.36	301.46
493.72	303.64
494.08	305.84
494.45	308.16
494.81	310.71
495.17	313.30
495.54	316.05
495.90	318.93
496.26	321.95
496.63	325.06
496.99	328.33
497.35	331.75
497.72	335.39
498.08	339.13
498.44	343.04
498.80	347.19
499.17	351.43
499.53	355.82
499.89	360.46
500.26	365.30
500.62	370.22
500.98	375.53
501.34	380.88
501.71	386.50
502.07	392.31
502.43	398.22
502.79	404.40
503.16	410.82
503.52	417.47
503.88	424.29
504.24	431.37
504.60	438.78
504.97	446.38
505.33	454.18
505.69	462.40
506.05	470.70
506.41	479.10
506.78	487.93
507.14	497.02
507.50	506.39
507.86	515.97
508.22	525.82
508.59	535.65
508.95	545.95
509.31	556.60
509.67	567.51
510.03	578.65
510.39	590.01
510.75	601.67
511.12	613.46
511.48	625.64
511.84	638.01
512.20	650.33
512.56	663.17
512.92	676.26
513.28	689.62
513.64	703.11
514.00	716.94
514.37	730.77
514.73	744.88
515.09	758.89
515.45	773.29
515.81	788.08
516.17	803.17
516.53	818.43
516.89	833.75
517.25	849.11
517.61	864.80
517.97	880.51
518.33	896.18
518.69	912.26
519.05	928.54
519.41	944.99
519.77	962.00
520.13	978.87
520.49	995.80
520.85	1012.62
521.21	1029.82
521.57	1047.68
521.93	1065.03
522.29	1083.02
522.65	1100.99
523.01	1118.79
523.37	1136.51
523.73	1154.40
524.09	1172.24
524.45	1190.17
524.81	1208.55
525.17	1227.03
525.53	1245.74
525.89	1264.33
526.25	1283.01
526.61	1301.21
526.97	1319.95
527.33	1338.21
527.68	1356.73
528.04	1375.09
528.40	1393.58
528.76	1412.61
529.12	1431.11
529.48	1450.11
529.84	1468.04
530.20	1486.62
530.56	1505.65
530.91	1525.19
531.27	1544.01
531.63	1562.54
531.99	1581.31
532.35	1599.41
532.71	1617.52
533.07	1635.92
533.42	1654.19
533.78	1672.45
534.14	1690.98
534.50	1708.63
534.86	1726.76
535.21	1744.27
535.57	1762.44
535.93	1780.31
536.29	1797.24
536.65	1814.43
537.00	1831.51
537.36	1849.21
537.72	1866.09
538.08	1882.98
538.44	1898.90
538.79	1915.18
539.15	1931.13
539.51	1947.19
539.87	1963.87
540.22	1979.80
540.58	1995.98
540.94	2011.54
541.29	2026.70
541.65	2041.72
542.01	2057.08
542.37	2071.85
542.72	2086.50
543.08	2100.67
543.44	2115.42
543.79	2129.09
544.15	2142.44
544.51	2156.30
544.87	2169.50
545.22	2182.58
545.58	2195.11
545.94	2207.12
546.29	2219.23
546.65	2231.47
547.01	2242.97
547.36	2253.75
547.72	2264.32
548.07	2274.16
548.43	2284.33
548.79	2294.45
549.14	2304.01
549.50	2313.35
549.86	2322.98
550.21	2332.30
550.57	2341.47
550.92	2350.03
551.28	2359.13
551.64	2368.25
551.99	2376.79
552.35	2385.05
552.70	2393.21
553.06	2401.07
553.41	2409.43
553.77	2417.40
554.13	2425.13
554.48	2433.27
554.84	2440.94
555.19	2448.15
555.55	2455.33
555.90	2461.77
556.26	2468.60
556.61	2475.23
556.97	2481.49
557.32	2487.44
557.68	2493.34
558.03	2499.35
558.39	2504.81
558.74	2511.16
559.10	2516.73
559.45	2521.93
559.81	2527.57
560.16	2533.07
560.52	2537.78
560.87	2542.72
561.23	2546.67
561.58	2551.17
561.94	2554.99
562.29	2558.50
562.64	2562.77
563.00	2566.65
563.35	2571.53
563.71	2575.86
564.06	2580.35
564.42	2584.47
564.77	2588.29
565.12	2591.98
565.48	2595.04
565.83	2598.00
566.19	2600.62
566.54	2602.53
566.89	2604.81
567.25	2606.63
567.60	2608.81
567.96	2611.80
568.31	2613.67
568.66	2616.13
569.02	2617.73
569.37	2618.89
569.72	2620.86
570.08	2621.88
570.43	2622.76
570.78	2622.99
571.14	2622.23
571.49	2621.56
571.84	2621.99
572.20	2621.40
572.55	2620.71
572.90	2619.73
573.26	2618.80
573.61	2617.31
573.96	2616.10
574.31	2613.42
574.67	2610.67
575.02	2607.23
575.37	2603.85
575.72	2600.33
576.08	2596.72
576.43	2593.43
576.78	2590.06
577.13	2586.75
577.49	2583.52
577.84	2580.06
578.19	2576.22
578.54	2572.57
578.90	2568.21
579.25	2562.17
579.60	2557.04
579.95	2551.90
580.30	2546.60
580.66	2541.12
581.01	2535.76
581.36	2530.41
581.71	2526.03
582.06	2521.37
582.42	2516.67
582.77	2511.16
583.12	2506.22
583.47	2501.38
583.82	2496.10
584.17	2490.31
584.53	2484.37
584.88	2478.13
585.23	2471.95
585.58	2466.03
585.93	2459.98
586.28	2454.62
586.63	2449.29
586.98	2443.75
587.34	2438.74
587.69	2433.23
588.04	2427.52
588.39	2421.22
588.74	2413.94
589.09	2406.96
589.44	2399.42
589.79	2392.39
590.14	2385.92
590.49	2378.50
590.84	2371.21
591.19	2364.33
591.54	2357.01
591.89	2348.91
592.25	2341.39
592.60	2333.07
592.95	2324.50
593.30	2316.19
593.65	2307.68
594.00	2299.53
594.35	2291.11
594.70	2281.73
595.05	2273.76
595.40	2265.28
595.75	2256.81
596.10	2249.85
596.45	2242.15
596.80	2235.07
597.15	2227.81
597.50	2219.92
597.85	2212.23
598.19	2204.66
598.54	2196.55
598.89	2188.87
599.24	2181.97
599.59	2174.37
599.94	2167.17
600.29	2159.78
600.64	2152.08
600.99	2143.46
601.34	2135.59
601.69	2127.55
602.04	2119.67
602.39	2110.94
602.74	2103.00
603.08	2095.09
603.43	2087.19
603.78	2078.56
604.13	2070.07
604.48	2061.57
604.83	2053.43
605.18	2045.64
605.53	2036.16
605.87	2026.90
606.22	2018.49
606.57	2009.05
606.92	2000.25
607.27	1991.93
607.62	1983.81
607.96	1975.24
608.31	1967.54
608.66	1958.65
609.01	1949.88
609.36	1940.99
609.70	1931.58
610.05	1922.19
610.40	1913.21
610.75	1903.41
611.10	1894.59
611.44	1884.53
611.79	1875.00
612.14	1864.60
612.49	1853.53
612.83	1843.72
613.18	1834.00
613.53	1824.42
613.88	1814.41
614.22	1804.67
614.57	1794.38
614.92	1784.93
615.27	1776.21
615.61	1766.35
615.96	1756.79
616.31	1747.62
616.65	1738.81
617.00	1729.89
617.35	1720.76
617.70	1711.00
618.04	1701.09
618.39	1691.21
618.74	1682.33
619.08	1672.60
619.43	1663.68
619.78	1655.52
620.12	1647.11
620.47	1638.15
620.82	1628.47
621.16	1619.67
621.51	1610.62
621.85	1601.61
622.20	1591.56
622.55	1581.56
622.89	1572.25
623.24	1563.19
623.59	1554.39
623.93	1545.49
624.28	1536.85
624.62	1527.98
624.97	1519.33
625.32	1511.18
625.66	1502.91
626.01	1494.46
626.35	1485.71
626.70	1476.60
627.04	1467.45
627.39	1458.17
627.73	1449.39
628.08	1441.11
628.43	1432.51
628.77	1423.88
629.12	1414.93
629.46	1406.35
629.81	1397.48
630.15	1388.87
630.50	1380.13
630.84	1370.49
631.19	1361.05
631.53	1352.15
631.88	1343.24
632.22	1334.27
632.57	1325.65
632.91	1316.64
633.26	1307.95
633.60	1299.11
633.95	1290.56
634.29	1282.13
634.64	1274.16
634.98	1265.53
635.32	1257.10
635.67	1249.19
636.01	1241.34
636.36	1233.34
636.70	1225.58
637.05	1217.84
637.39	1210.21
637.73	1202.48
638.08	1195.51
638.42	1188.45
638.77	1180.82
639.11	1173.11
639.45	1165.64
639.80	1157.74
640.14	1150.42
640.49	1142.63
640.83	1135.20
641.17	1127.97
641.52	1120.59
641.86	1112.92
642.20	1106.04
642.55	1098.52
642.89	1090.97
643.23	1083.25
643.58	1076.54
643.92	1069.28
644.26	1062.20
644.61	1055.02
644.95	1048.05
645.29	1040.37
645.64	1032.48
645.98	1025.20
646.32	1018.18
646.66	1011.03
647.01	1004.28
647.35	997.38
647.69	990.51
648.04	984.04
648.38	977.30
648.72	970.32
649.06	963.42
649.41	956.58
649.75	949.79
650.09	942.82
650.43	936.09
650.78	928.83
651.12	921.90
651.46	915.15
651.80	908.57
652.14	902.20
652.49	895.97
652.83	889.94
653.17	883.27
653.51	876.67
653.85	870.41
654.20	863.85
654.54	856.90
654.88	850.29
655.22	843.34
655.56	836.66
655.90	830.32
656.25	824.13
656.59	817.82
656.93	811.81
657.27	805.79
657.61	799.37
657.95	793.43
658.29	787.49
658.64	781.32
658.98	775.16
659.32	768.82
659.66	762.77
660.00	756.61
660.34	750.85
660.68	745.10
661.02	739.30
661.36	733.75
661.70	728.55
662.05	723.39
662.39	718.43
662.73	713.19
663.07	708.10
663.41	702.94
663.75	697.68
664.09	692.40
664.43	687.32
664.77	682.66
665.11	677.71
665.45	672.89
665.79	668.19
666.13	663.31
666.47	658.60
666.81	653.74
667.15	648.97
667.49	644.38
667.83	639.95
668.17	635.34
668.51	630.64
668.85	625.93
669.19	621.47
669.53	617.01
669.87	612.56
670.21	608.25
670.55	604.00
670.89	600.06
671.23	596.05
671.57	591.95
671.91	587.77
672.25	583.68
672.58	579.62
672.92	575.68
673.26	571.97
673.60	568.27
673.94	564.64
674.28	561.25
674.62	557.86
674.96	554.21
675.30	550.87
675.64	547.44
675.97	544.22
676.31	540.92
676.65	537.49
676.99	534.38
677.33	531.10
677.67	527.84
678.01	524.41
678.34	520.99
678.68	517.65
679.02	514.38
679.36	511.15
679.70	508.01
680.04	504.84
680.37	501.56
680.71	498.28
681.05	495.27
681.39	492.08
681.73	489.00
682.06	486.16
682.40	483.20
682.74	480.32
683.08	477.32
683.42	474.26
683.75	471.40
684.09	468.36
684.43	465.41
684.77	462.54
685.10	459.71
685.44	457.03
685.78	454.39
686.12	451.75
686.45	449.13
686.79	446.45
687.13	443.90
687.46	441.38
687.80	438.88
688.14	436.28
688.48	433.90
688.81	431.27
689.15	428.72
689.49	426.15
689.82	423.70
690.16	421.27
690.50	418.98
690.83	416.73
691.17	414.42
691.51	412.20
691.84	410.03
692.18	407.76
692.52	405.44
692.85	403.14
693.19	400.97
693.52	398.81
693.86	396.67
694.20	394.56
694.53	392.47
694.87	390.29
695.21	388.20
695.54	386.05
695.88	384.02
696.21	382.00
696.55	380.09
696.88	378.10
697.22	376.13
697.56	374.23
697.89	372.31
698.23	370.46
698.56	368.60
698.90	366.77
699.23	364.94
699.57	363.10
699.90	361.34
700.24	359.49
700.58	357.72
700.91	355.96
701.25	354.30
701.58	352.68
701.92	351.13
702.25	349.49
702.59	347.85
702.92	346.31
703.26	344.78
703.59	343.26
703.93	341.85
704.26	340.43
704.60	338.93
704.93	337.40
705.26	335.93
705.60	334.56
705.93	333.18
706.27	331.92
706.60	330.68
706.94	329.41
707.27	328.10
707.61	326.83
707.94	325.65
708.27	324.28
708.61	323.03
708.94	321.82
709.28	320.70
709.61	319.60
709.94	318.47
710.28	317.28
710.61	316.11
710.95	314.86
711.28	313.77
711.61	312.65
711.95	311.61
712.28	310.50
712.61	309.30
712.95	308.21
713.28	307.17
713.61	306.11
713.95	305.05
714.28	304.08
714.61	303.10
714.95	302.08
715.28	301.14
715.61	300.09
715.95	299.09
716.28	298.07
716.61	297.09
716.95	296.15
717.28	295.25
717.61	294.35
717.94	293.47
718.28	292.55
718.61	291.70
718.94	290.87
719.27	290.09
719.61	289.37
719.94	288.61
720.27	287.78
720.60	287.02
720.94	286.29
721.27	285.55
721.60	284.87
721.93	284.20
722.27	283.54
722.60	282.92
722.93	282.24
723.26	281.61
723.59	280.96
723.93	280.30
724.26	279.66
724.59	279.04
724.92	278.44
725.25	277.87
725.59	277.28
725.92	276.68
726.25	276.11
726.58	275.52
726.91	274.92
727.24	274.38
727.57	273.81
727.91	273.19
728.24	272.68
728.57	272.12
728.90	271.57
729.23	271.03
729.56	270.51
729.89	269.97
730.22	269.43
730.55	268.89
730.89	268.40
731.22	267.92
731.55	267.39
731.88	266.92
732.21	266.42
732.54	265.89
732.87	265.40
733.20	264.91
733.53	264.47
733.86	264.04
734.19	263.57
734.52	263.13
734.85	262.78
735.18	262.31
735.51	261.87
735.84	261.41
736.17	260.99
736.50	260.54
736.83	260.23
737.16	259.85
737.49	259.45
737.82	259.00
738.15	258.60
738.48	258.20
738.81	257.82
739.14	257.42
739.47	257.05
739.80	256.71
740.13	256.36
740.46	255.95
740.79	255.59
741.12	255.21
741.45	254.82
741.78	254.47
742.11	254.12
742.44	253.74
742.77	253.41
743.10	253.02
743.43	252.66
743.75	252.27
744.08	252.04
744.41	251.71
744.74	251.43
745.07	251.09
745.40	250.83
745.73	250.53
746.06	250.21
746.39	249.90
746.71	249.57
747.04	249.22
747.37	248.92
747.70	248.61
748.03	248.32
748.36	248.05
748.68	247.74
749.01	247.44
749.34	247.17
749.67	246.91
750.00	246.65
750.33	246.45
750.65	246.18
750.98	245.80
751.31	245.56
751.64	245.32
751.97	245.13
752.29	244.84
752.62	244.53
752.95	244.29
753.28	244.04
753.60	243.81
753.93	243.60
754.26	243.39
754.59	243.14
754.91	242.88
755.24	242.66
755.57	242.45
755.90	242.23
756.22	242.01
756.55	241.77
756.88	241.55
757.20	241.30
757.53	241.11
757.86	240.94
758.19	240.73
758.51	240.57
758.84	240.31
759.17	240.15
759.49	240.01
759.82	239.88
760.15	239.73
760.47	239.53
760.80	239.36
761.13	239.24
761.45	239.08
761.78	238.92
762.11	238.77
762.43	238.59
762.76	238.45
763.08	238.33
763.41	238.18
763.74	238.07
764.06	237.92
764.39	237.77
764.71	237.59
765.04	237.43
765.37	237.24
765.69	237.11
766.02	236.96
766.34	236.82
766.67	236.63
767.00	236.52
767.32	236.46
767.65	236.35
767.97	236.20
768.30	236.07
768.62	235.98
768.95	235.84
769.27	235.76
769.60	235.63
769.92	235.48
770.25	235.36
770.57	235.21
770.90	235.09
771.22	234.91
771.55	234.81
771.87	234.68
772.20	234.60
772.52	234.56
772.85	234.56
773.17	234.45
773.50	234.37
773.82	234.20
774.15	234.06
774.47	233.92
774.80	233.82
775.12	233.70
775.45	233.57
775.77	233.48
776.09	233.34
776.42	233.25
776.74	233.16
777.07	233.03
777.39	232.93
777.72	232.83
778.04	232.80
778.36	232.71
778.69	232.63
779.01	232.57
779.33	232.41
779.66	232.21
779.98	232.11
780.31	232.00
780.63	231.99
780.95	231.90
781.28	231.83
781.60	231.74
781.92	231.65
782.25	231.60
782.57	231.52
782.89	231.44
783.22	231.34
783.54	231.24
783.86	231.21
784.19	231.12
784.51	231.08
784.83	230.96
785.16	230.89
785.48	230.83
785.80	230.72
786.12	230.64
786.45	230.57
786.77	230.49
787.09	230.47
787.42	230.36
787.74	230.32
788.06	230.27
788.38	230.15
788.71	230.10
789.03	230.00
789.35	229.95
789.67	229.90
789.99	229.88
790.32	229.83
790.64	229.77
790.96	229.81
791.28	229.73
791.61	229.71
791.93	229.66
792.25	229.64
792.57	229.67
792.89	229.59
793.21	229.56
793.54	229.53
793.86	229.42
794.18	229.39
794.50	229.33
794.82	229.30
795.14	229.30
795.47	229.29
795.79	229.30
796.11	229.23
796.43	229.21
796.75	229.17
797.07	229.16
797.39	229.11
797.71	229.03
798.04	229.01
798.36	228.96
798.68	228.94
799.00	228.91
799.32	228.85
799.64	228.86
799.96	228.83
800.28	228.82
800.60	228.83
800.92	228.82
801.24	228.79
801.56	228.73
801.89	228.72
802.21	228.70
802.53	228.67
802.85	228.67
803.17	228.67
803.49	228.65
803.81	228.60
804.13	228.57
804.45	228.56
804.77	228.53
805.09	228.51
805.41	228.52
805.73	228.45
806.05	228.37
806.37	228.33
806.69	228.32
807.01	228.29
807.33	228.24
807.65	228.17
807.97	228.21
808.28	228.18
808.60	228.15
808.92	228.11
809.24	228.11
809.56	228.09
809.88	228.03
810.20	227.98
810.52	227.99
810.84	227.97
811.16	227.91
811.48	227.87
811.80	227.89
812.12	227.80
812.43	227.80
812.75	227.79
813.07	227.74
813.39	227.70
813.71	227.66
814.03	227.65
814.35	227.64
814.67	227.54
814.98	227.52
815.30	227.51
815.62	227.44
815.94	227.35
816.26	227.37
816.58	227.34
816.89	227.34
817.21	227.26
817.53	227.24
817.85	227.21
818.17	227.18
818.48	227.12
818.80	227.14
819.12	227.10
819.44	227.04
819.76	227.03
820.07	227.00
820.39	226.97
820.71	226.93
821.03	226.91
821.34	226.87
821.66	226.88
821.98	226.83
822.30	226.82
822.61	226.82
822.93	226.76
823.25	226.73
823.57	226.70
823.88	226.70
824.20	226.67
824.52	226.65
824.83	226.64
825.15	226.62
825.47	226.57
825.79	226.57
826.10	226.56
826.42	226.56
826.74	226.53
827.05	226.50
827.37	226.51
827.69	226.48
828.00	226.48
828.32	226.47
828.64	226.44
828.95	226.49
829.27	226.48
829.58	226.42
829.90	226.40
830.22	226.37
830.53	226.32
830.85	226.30
831.17	226.28
831.48	226.26
831.80	226.21
832.11	226.19
832.43	226.17
832.75	226.15
833.06	226.20
833.38	226.20
833.69	226.18
834.01	226.19
834.32	226.19
834.64	226.17
834.96	226.14
835.27	226.13
835.59	226.11
835.90	226.05
836.22	226.05
836.53	226.06
836.85	226.06
837.16	226.16
837.48	226.16
837.79	226.18
838.11	226.19
838.42	226.21
838.74	226.23
839.05	226.20
839.37	226.20
839.68	226.11
840.00	226.10
840.31	226.13
840.63	226.10
840.94	226.06
841.26	226.02
841.57	226.03
841.88	226.06
842.20	226.01
842.51	226.03
842.83	226.06
843.14	226.14
843.46	226.14
843.77	226.07
844.08	226.09
844.40	226.06
844.71	226.05
845.03	226.04
845.34	226.01
845.65	226.02
845.97	226.00
846.28	226.02
846.60	226.04
846.91	226.00
847.22	225.98
847.54	225.99
847.85	226.03
848.16	225.98
848.48	225.94
848.79	225.99
849.10	225.98
849.42	225.97
849.73	225.84
850.04	225.81
850.36	225.78
850.67	225.80
850.98	225.78
851.30	225.78
851.61	225.76
851.92	225.78
852.23	225.80
852.55	225.80
852.86	225.79
853.17	225.79
853.49	225.77
853.80	225.80
854.11	225.84
854.42	225.82
854.74	225.82
855.05	225.81
855.36	225.76
855.67	225.77
855.99	225.78
856.30	225.92
856.61	225.92
856.92	225.92
857.23	225.89
857.55	225.90
857.86	225.88
858.17	225.94
858.48	225.89
858.79	225.88
859.11	225.90
859.42	225.90
859.73	225.86
860.04	225.87
860.35	225.81
860.66	225.74
860.98	225.73
861.29	225.77
861.60	225.77
861.91	225.80
862.22	225.76
862.53	225.75
862.84	225.62
863.16	225.66
863.47	225.67
863.78	225.66
864.09	225.63
864.40	225.63
864.71	225.63
865.02	225.65
865.33	225.63
865.64	225.60
865.95	225.63
866.27	225.71
866.58	225.71
866.89	225.76
867.20	225.78
867.51	225.75
867.82	225.72
868.13	225.74
868.44	225.70
868.75	225.72
869.06	225.71
869.37	225.72
869.68	225.69
869.99	225.66
870.30	225.65
870.61	225.66
870.92	225.63
871.23	225.59
871.54	225.60
871.85	225.62
872.16	225.63
872.47	225.60
872.78	225.53
873.09	225.55
873.40	225.55
873.71	225.56
874.02	225.60
874.33	225.58
874.64	225.58
874.95	225.61
875.26	225.61
875.56	225.61
875.87	225.60
876.18	225.60
876.49	225.69
876.80	225.72
877.11	225.75
877.42	225.77
877.73	225.79
878.04	225.76
878.35	225.74
878.66	225.75
878.96	225.76
879.27	225.73
879.58	225.71
879.89	225.67
880.20	225.69
880.51	225.69
880.82	225.71
881.12	225.70
881.43	225.70
881.74	225.68
882.05	225.68
882.36	225.69
882.67	225.69
882.97	225.60
883.28	225.58
883.59	225.54
883.90	225.58
884.21	225.59
884.51	225.60
884.82	225.56
885.13	225.58
885.44	225.56
885.74	225.53
886.05	225.53
886.36	225.54
886.67	225.50
886.98	225.52
887.28	225.52
887.59	225.51
887.90	225.49
888.20	225.47
888.51	225.46
888.82	225.40
889.13	225.40
889.43	225.46
889.74	225.43
890.05	225.43
890.35	225.35
890.66	225.28
890.97	225.25
891.28	225.26
891.58	225.25
891.89	225.24
892.20	225.22
892.50	225.20
892.81	225.20
893.12	225.18
893.42	225.13
893.73	225.13
894.04	225.10
894.34	225.07
894.65	225.05
894.95	225.04
895.26	225.05
895.57	225.08
895.87	225.01
896.18	225.00
896.48	225.00
896.79	225.04
897.10	225.07
897.40	225.10
897.71	225.11
898.01	225.03
898.32	225.04
898.63	225.08
898.93	225.06
899.24	225.04
899.54	225.03
899.85	225.02
900.15	224.99
900.46	225.01
900.76	225.03
901.07	225.05
901.38	225.09
901.68	225.10
901.99	225.06
902.29	225.04
902.60	225.02
902.90	225.01
903.21	225.01
903.51	225.01
903.82	225.01
904.12	225.02
904.43	225.08
904.73	225.08
905.03	225.04
905.34	225.15
905.64	225.15
905.95	225.17
906.25	225.18
906.56	225.20
906.86	225.21
907.17	225.20
907.47	225.18
907.77	225.11
908.08	225.11
908.38	225.08
908.69	225.12
908.99	225.16
909.30	225.17
909.60	225.16
909.90	225.18
910.21	225.17
910.51	225.15
910.81	225.16
911.12	225.15
911.42	225.19
911.73	225.07
912.03	225.08
912.33	225.09
912.64	225.09
912.94	225.06
913.24	225.02
913.55	225.01
913.85	225.02
914.15	225.06
914.46	225.09
914.76	225.08
915.06	225.06
915.37	225.05
915.67	225.05
915.97	225.08
916.27	225.03
916.58	225.04
916.88	225.00
917.18	224.99
917.49	225.07
917.79	225.10
918.09	225.11
918.39	225.15
918.70	225.12
919.00	225.13
919.30	225.18
919.60	225.20
919.91	225.22
920.21	225.25
920.51	225.23
920.81	225.21
921.12	225.26
921.42	225.25
921.72	225.24
922.02	225.22
922.32	225.20
922.63	225.22
922.93	225.29
923.23	225.34
923.53	225.33
923.83	225.26
924.13	225.20
924.44	225.22
924.74	225.21
925.04	225.26
925.34	225.24
925.64	225.16
925.94	225.17
926.24	225.21
926.55	225.17
926.85	225.17
927.15	225.19
927.45	225.18
927.75	225.17
928.05	225.18
928.35	225.19
928.65	225.21
928.95	225.19
929.26	225.13
929.56	225.13
929.86	225.14
930.16	225.12
930.46	225.14
930.76	225.16
931.06	225.18
931.36	225.14
931.66	225.16
931.96	225.22
932.26	225.22
932.56	225.17
932.86	225.17
933.16	225.20
933.46	225.16
933.76	225.14
934.06	225.18
934.36	225.20
934.66	225.20
934.96	225.20
935.26	225.24
935.56	225.26
935.86	225.21
936.16	225.18
936.46	225.21
936.76	225.19
937.06	225.14
937.36	225.13
937.66	225.14
937.96	225.11
938.26	225.07
938.56	225.04
938.86	225.03
939.16	225.07
939.46	225.08
939.76	225.11
940.06	225.11
940.35	225.06
940.65	225.01
940.95	225.02
941.25	224.99
941.55	224.95
941.85	224.92
942.15	224.96
942.45	224.97
942.75	224.96
943.04	224.99
943.34	225.01
943.64	224.96
943.94	224.96
944.24	224.97
944.54	224.99
944.84	225.02
945.13	225.04
945.43	225.01
945.73	225.00
946.03	224.99
946.33	224.96
946.62	224.99
946.92	224.98
947.22	224.99
947.52	225.03
947.82	225.05
948.11	225.05
948.41	225.04
948.71	225.03
949.01	225.04
949.31	225.00
949.60	225.01
949.90	225.04
950.20	225.04
950.50	225.03
950.79	225.03
951.09	225.04
951.39	225.04
951.69	225.03
951.98	225.06
952.28	225.05
952.58	225.03
952.87	224.99
953.17	225.03
953.47	224.99
953.76	225.00
954.06	224.99
954.36	224.98
954.66	224.97
954.95	225.01
955.25	225.00
955.55	225.02
955.84	225.00
956.14	225.02
956.44	225.01
956.73	225.01
957.03	225.01
957.32	224.97
957.62	224.94
957.92	224.96
958.21	224.93
958.51	225.04
958.81	225.03
959.10	225.07
959.40	225.11
959.69	225.16
959.99	225.12
960.29	225.10
960.58	225.11
960.88	225.13
961.17	225.09
961.47	225.10
961.76	225.07
962.06	225.07
962.36	225.05
962.65	225.04
962.95	225.02
963.24	225.03
963.54	225.06
963.83	225.08
964.13	225.07
964.42	225.07
964.72	224.97
965.01	225.01
965.31	225.01
965.60	224.95
965.90	224.96
966.19	224.94
966.49	224.96
966.78	224.96
967.08	224.97
967.37	224.97
967.67	224.94
967.96	224.97
968.26	224.97
968.55	224.99
968.85	224.99
969.14	225.00
969.43	225.00
969.73	224.99
970.02	224.98
970.32	224.97
970.61	224.95
970.91	224.94
971.20	224.93
971.49	224.92
971.79	224.93
972.08	224.89
972.38	224.90
972.67	224.89
972.96	224.86
973.26	224.86
973.55	224.91
973.85	224.89
974.14	224.90
974.43	224.89
974.73	224.87
975.02	224.85
975.31	224.84
975.61	224.80
975.90	224.79
976.19	224.77
976.49	224.80
976.78	224.83
977.07	224.84
977.37	224.83
977.66	224.84
977.95	224.83
978.24	224.81
978.54	224.84
978.83	224.82
979.12	224.83
979.42	224.79
979.71	224.76
980.00	224.79
980.29	224.76
980.59	224.74
980.88	224.76
981.17	224.79
981.46	224.82
981.76	224.83
982.05	224.87
982.34	224.88
982.63	224.85
982.93	224.83
983.22	224.83
983.51	224.84
983.80	224.85
984.09	224.87
984.39	224.86
984.68	224.81
984.97	224.82
985.26	224.82
985.55	224.86
985.85	224.85
986.14	224.86
986.43	224.89
986.72	224.85
987.01	224.85
987.30	224.82
987.59	224.78
987.89	224.77
988.18	224.73
988.47	224.72
988.76	224.70
989.05	224.69
989.34	224.68
989.63	224.69
989.92	224.67
990.22	224.65
990.51	224.66
990.80	224.69
991.09	224.68
991.38	224.66
991.67	224.63
991.96	224.60
992.25	224.59
992.54	224.52
992.83	224.53
993.12	224.50
993.41	224.52
993.70	224.59
993.99	224.64
994.28	224.62
994.58	224.65
994.87	224.65
995.16	224.65
995.45	224.64
995.74	224.61
996.03	224.62
996.32	224.63
996.61	224.63
996.90	224.63
997.19	224.63
997.48	224.64
997.77	224.63
998.06	224.66
998.34	224.66
998.63	224.71
998.92	224.70
999.21	224.73
999.50	224.70
999.79	224.66
1000.08	224.63
1000.37	224.64
1000.66	224.63
1000.95	224.64
1001.24	224.66
1001.53	224.69
1001.82	224.69
1002.11	224.67
1002.40	224.66
1002.68	224.70
1002.97	224.77
1003.26	224.76
1003.55	224.76
1003.84	224.75
1004.13	224.74
1004.42	224.73
1004.71	224.71
1004.99	224.71
1005.28	224.72
1005.57	224.72
1005.86	224.71
1006.15	224.70
1006.44	224.67
1006.72	224.69
1007.01	224.69
1007.30	224.68
1007.59	224.63
1007.88	224.62
1008.17	224.64
1008.45	224.62
1008.74	224.57
1009.03	224.54
1009.32	224.54
1009.60	224.54
1009.89	224.56
1010.18	224.54
1010.47	224.55
1010.76	224.58
1011.04	224.60
1011.33	224.62
1011.62	224.67
1011.91	224.69
1012.19	224.73
1012.48	224.80
1012.77	224.77
1013.05	224.84
1013.34	224.87
1013.63	224.89
1013.92	224.92
1014.20	224.93
1014.49	224.95
1014.78	224.98
1015.06	224.92
1015.35	224.96
1015.64	224.98
1015.92	224.98
1016.21	225.01
1016.50	225.00
1016.78	225.01
1017.07	225.04
1017.36	225.01
1017.64	224.96
1017.93	224.98
1018.22	224.97
1018.50	224.95
1018.79	224.99
1019.08	224.92
1019.36	224.92
1019.65	224.92
1019.93	224.94
1020.22	224.96
1020.51	225.06
1020.79	225.02
1021.08	224.74
1021.36	225.18
1021.65	225.42
1021.94	224.88
1022.22	224.93
1022.51	225.07
1022.79	225.44
1023.08	225.04
1023.36	226.84
1023.65	224.36
>>>>>End Processed Spectral Data<<<<<
