SpectraSuite Data File
++++++++++++++++++++++++++++++++++++
Date: Fri Feb 01 16:22:45 EST 2013
User: group
Dark Spectrum Present: No
Reference Spectrum Present: No
Number of Sampled Component Spectra: 1
Spectrometers: USB2E7196
Integration Time (usec): 35000 (USB2E7196)
Spectra Averaged: 100 (USB2E7196)
Boxcar Smoothing: 10 (USB2E7196)
Correct for Electrical Dark: No (USB2E7196)
Strobe/Lamp Enabled: No (USB2E7196)
Correct for Detector Non-linearity: No (USB2E7196)
Correct for Stray Light: No (USB2E7196)
Number of Pixels in Processed Spectrum: 2048
>>>>>Begin Processed Spectral Data<<<<<
339.09	0.00
339.48	214.16
339.86	215.43
340.24	216.43
340.63	218.39
341.01	221.14
341.39	221.21
341.78	222.34
342.16	223.75
342.54	223.94
342.93	212.49
343.31	223.24
343.69	223.77
344.07	224.24
344.46	224.71
344.84	225.06
345.22	225.30
345.60	225.55
345.99	225.72
346.37	225.83
346.75	225.91
347.13	225.96
347.52	225.97
347.90	226.01
348.28	226.06
348.66	226.10
349.05	226.11
349.43	226.17
349.81	226.21
350.19	226.25
350.57	226.28
350.96	226.34
351.34	226.42
351.72	226.50
352.10	226.59
352.48	226.64
352.87	226.71
353.25	226.76
353.63	226.81
354.01	226.90
354.39	227.00
354.77	227.10
355.15	227.19
355.54	227.30
355.92	227.35
356.30	227.42
356.68	227.55
357.06	227.58
357.44	227.63
357.82	227.69
358.20	227.75
358.58	227.84
358.97	227.91
359.35	227.98
359.73	228.07
360.11	228.11
360.49	228.17
360.87	228.23
361.25	228.27
361.63	228.37
362.01	228.44
362.39	228.45
362.77	228.46
363.15	228.49
363.53	228.52
363.91	228.52
364.29	228.56
364.67	228.48
365.05	228.52
365.43	228.52
365.81	228.53
366.19	228.60
366.57	228.60
366.95	228.61
367.33	228.59
367.71	228.58
368.09	228.62
368.47	228.62
368.85	228.62
369.23	228.64
369.61	228.56
369.99	228.54
370.37	228.55
370.75	228.60
371.13	228.56
371.51	228.49
371.89	228.50
372.27	228.46
372.65	228.43
373.03	228.37
373.41	228.35
373.78	228.28
374.16	228.16
374.54	228.09
374.92	228.01
375.30	227.95
375.68	227.83
376.06	227.73
376.44	227.64
376.82	227.55
377.19	227.47
377.57	227.41
377.95	227.30
378.33	227.21
378.71	227.08
379.09	227.00
379.47	226.94
379.84	226.83
380.22	226.75
380.60	226.70
380.98	226.65
381.36	226.59
381.73	226.56
382.11	226.52
382.49	226.49
382.87	226.42
383.25	226.34
383.62	226.41
384.00	226.38
384.38	226.32
384.76	226.30
385.13	226.28
385.51	226.24
385.89	226.18
386.27	226.14
386.64	226.11
387.02	226.09
387.40	226.04
387.78	226.03
388.15	225.98
388.53	225.93
388.91	225.91
389.29	225.86
389.66	225.81
390.04	225.76
390.42	225.76
390.79	225.76
391.17	225.78
391.55	225.68
391.92	225.64
392.30	225.63
392.68	225.61
393.05	225.59
393.43	225.58
393.81	225.58
394.18	225.55
394.56	225.53
394.94	225.55
395.31	225.56
395.69	225.60
396.06	225.62
396.44	225.63
396.82	225.61
397.19	225.69
397.57	225.71
397.95	225.80
398.32	225.77
398.70	225.80
399.07	225.86
399.45	225.92
399.82	226.02
400.20	226.09
400.58	226.16
400.95	226.17
401.33	226.27
401.70	226.40
402.08	226.50
402.45	226.60
402.83	226.71
403.20	226.78
403.58	226.89
403.95	227.02
404.33	227.17
404.71	227.27
405.08	227.45
405.46	227.57
405.83	227.69
406.21	227.84
406.58	228.02
406.96	228.17
407.33	228.35
407.70	228.50
408.08	228.77
408.45	229.00
408.83	229.25
409.20	229.48
409.58	229.67
409.95	229.90
410.33	230.15
410.70	230.42
411.08	230.75
411.45	231.02
411.82	231.34
412.20	231.68
412.57	232.13
412.95	232.40
413.32	232.81
413.69	233.22
414.07	233.65
414.44	234.14
414.82	234.62
415.19	235.15
415.56	235.75
415.94	236.30
416.31	236.92
416.68	237.56
417.06	238.30
417.43	239.02
417.81	239.82
418.18	240.63
418.55	241.48
418.93	242.37
419.30	243.27
419.67	244.21
420.04	245.20
420.42	246.19
420.79	247.42
421.16	248.61
421.54	249.85
421.91	251.09
422.28	252.31
422.66	253.61
423.03	254.96
423.40	256.34
423.77	257.71
424.15	259.14
424.52	260.62
424.89	262.20
425.26	263.74
425.64	265.18
426.01	266.74
426.38	268.39
426.75	270.05
427.13	271.79
427.50	273.58
427.87	275.41
428.24	277.30
428.61	279.00
428.99	280.86
429.36	282.94
429.73	285.02
430.10	287.04
430.47	289.13
430.85	291.20
431.22	293.37
431.59	295.76
431.96	297.99
432.33	300.52
432.70	302.88
433.08	305.70
433.45	308.34
433.82	310.92
434.19	313.74
434.56	316.55
434.93	319.17
435.30	321.80
435.68	324.70
436.05	327.52
436.42	330.33
436.79	332.91
437.16	335.56
437.53	338.34
437.90	341.15
438.27	343.88
438.64	346.68
439.01	349.23
439.38	351.45
439.75	353.61
440.13	356.05
440.50	358.37
440.87	360.18
441.24	362.14
441.61	364.28
441.98	365.76
442.35	367.53
442.72	369.41
443.09	371.17
443.46	372.13
443.83	372.67
444.20	373.17
444.57	373.96
444.94	374.22
445.31	374.54
445.68	374.89
446.05	374.94
446.42	374.55
446.79	374.13
447.16	373.65
447.53	373.28
447.90	372.11
448.27	370.95
448.64	369.36
449.01	368.17
449.37	366.26
449.74	364.38
450.11	362.13
450.48	359.63
450.85	357.12
451.22	355.02
451.59	353.01
451.96	351.05
452.33	348.46
452.70	346.12
453.07	343.31
453.43	340.42
453.80	337.65
454.17	335.00
454.54	332.53
454.91	329.86
455.28	327.26
455.65	324.79
456.02	322.33
456.38	320.21
456.75	317.55
457.12	315.27
457.49	313.05
457.86	310.93
458.23	309.07
458.59	307.02
458.96	304.92
459.33	303.08
459.70	301.25
460.07	299.78
460.43	298.09
460.80	296.52
461.17	295.07
461.54	293.62
461.91	292.19
462.27	290.69
462.64	289.46
463.01	288.14
463.38	286.85
463.74	285.51
464.11	284.32
464.48	283.34
464.85	282.24
465.21	281.38
465.58	280.44
465.95	279.35
466.32	278.48
466.68	277.57
467.05	276.69
467.42	275.77
467.78	274.85
468.15	274.00
468.52	273.30
468.88	272.45
469.25	271.67
469.62	271.05
469.98	270.44
470.35	269.81
470.72	269.20
471.08	268.57
471.45	268.05
471.82	267.54
472.18	266.96
472.55	266.57
472.92	266.07
473.28	265.59
473.65	265.19
474.02	264.74
474.38	264.39
474.75	264.07
475.11	263.77
475.48	263.47
475.85	263.21
476.21	263.03
476.58	262.88
476.94	262.74
477.31	262.57
477.67	262.41
478.04	262.31
478.41	262.26
478.77	262.27
479.14	262.22
479.50	262.22
479.87	262.27
480.23	262.36
480.60	262.44
480.96	262.60
481.33	262.80
481.69	263.01
482.06	263.23
482.42	263.42
482.79	263.67
483.15	263.99
483.52	264.38
483.88	264.72
484.25	265.10
484.61	265.51
484.98	265.96
485.34	266.52
485.71	267.09
486.07	267.66
486.44	268.27
486.80	268.95
487.17	269.69
487.53	270.55
487.90	271.38
488.26	272.30
488.62	273.28
488.99	274.27
489.35	275.31
489.72	276.44
490.08	277.66
490.44	278.91
490.81	280.29
491.17	281.69
491.54	283.22
491.90	284.75
492.26	286.43
492.63	288.17
492.99	289.94
493.36	291.83
493.72	293.88
494.08	295.98
494.45	298.27
494.81	300.63
495.17	303.02
495.54	305.60
495.90	308.31
496.26	311.12
496.63	314.11
496.99	317.26
497.35	320.52
497.72	323.95
498.08	327.48
498.44	331.16
498.80	335.04
499.17	339.05
499.53	343.26
499.89	347.69
500.26	352.14
500.62	356.86
500.98	361.82
501.34	366.92
501.71	372.31
502.07	377.72
502.43	383.36
502.79	389.20
503.16	395.24
503.52	401.50
503.88	407.88
504.24	414.50
504.60	421.37
504.97	428.53
505.33	435.84
505.69	443.57
506.05	451.34
506.41	459.23
506.78	467.42
507.14	475.86
507.50	484.53
507.86	493.64
508.22	502.86
508.59	512.07
508.95	521.65
509.31	531.35
509.67	541.43
510.03	551.74
510.39	562.31
510.75	573.14
511.12	584.02
511.48	595.29
511.84	606.75
512.20	618.28
512.56	630.21
512.92	642.41
513.28	654.73
513.64	667.20
514.00	679.91
514.37	692.82
514.73	705.87
515.09	718.92
515.45	732.19
515.81	745.76
516.17	759.74
516.53	773.85
516.89	788.10
517.25	802.38
517.61	816.72
517.97	831.20
518.33	845.57
518.69	860.38
519.05	875.35
519.41	890.51
519.77	906.05
520.13	921.42
520.49	936.72
520.85	952.10
521.21	967.77
521.57	984.00
521.93	999.62
522.29	1015.99
522.65	1032.10
523.01	1048.29
523.37	1064.26
523.73	1080.38
524.09	1096.42
524.45	1112.61
524.81	1129.10
525.17	1145.85
525.53	1162.71
525.89	1179.68
526.25	1196.55
526.61	1212.93
526.97	1229.61
527.33	1246.00
527.68	1262.58
528.04	1279.05
528.40	1295.55
528.76	1312.51
529.12	1328.87
529.48	1345.85
529.84	1361.65
530.20	1378.28
530.56	1395.15
530.91	1412.49
531.27	1429.19
531.63	1445.63
531.99	1462.07
532.35	1477.98
532.71	1493.73
533.07	1509.79
533.42	1525.41
533.78	1541.19
534.14	1557.35
534.50	1572.57
534.86	1588.30
535.21	1603.35
535.57	1619.17
535.93	1634.62
536.29	1649.35
536.65	1664.60
537.00	1679.20
537.36	1694.51
537.72	1708.87
538.08	1723.32
538.44	1737.04
538.79	1750.86
539.15	1764.30
539.51	1778.16
539.87	1792.33
540.22	1806.05
540.58	1819.90
540.94	1833.14
541.29	1846.02
541.65	1858.67
542.01	1871.81
542.37	1884.04
542.72	1896.52
543.08	1908.15
543.44	1920.52
543.79	1931.68
544.15	1942.48
544.51	1954.01
544.87	1964.83
545.22	1975.66
545.58	1985.73
545.94	1995.45
546.29	2005.13
546.65	2015.07
547.01	2024.12
547.36	2032.80
547.72	2041.27
548.07	2048.94
548.43	2057.25
548.79	2065.29
549.14	2072.73
549.50	2080.01
549.86	2087.74
550.21	2094.92
550.57	2102.14
550.92	2108.65
551.28	2115.60
551.64	2122.59
551.99	2129.05
552.35	2135.30
552.70	2141.54
553.06	2147.51
553.41	2153.75
553.77	2159.86
554.13	2165.83
554.48	2172.01
554.84	2177.53
555.19	2182.80
555.55	2187.97
555.90	2192.29
556.26	2196.99
556.61	2201.72
556.97	2206.07
557.32	2210.07
557.68	2214.22
558.03	2218.53
558.39	2222.09
558.74	2226.74
559.10	2230.59
559.45	2234.24
559.81	2238.47
560.16	2242.16
560.52	2245.50
560.87	2248.78
561.23	2251.38
561.58	2254.36
561.94	2256.85
562.29	2259.23
562.64	2261.99
563.00	2264.51
563.35	2268.10
563.71	2271.32
564.06	2274.61
564.42	2277.45
564.77	2280.20
565.12	2282.62
565.48	2284.46
565.83	2286.42
566.19	2287.81
566.54	2288.78
566.89	2290.05
567.25	2290.56
567.60	2291.97
567.96	2293.62
568.31	2294.70
568.66	2296.00
569.02	2296.55
569.37	2297.02
569.72	2298.01
570.08	2298.09
570.43	2298.27
570.78	2297.66
571.14	2296.22
571.49	2294.82
571.84	2294.56
572.20	2293.39
572.55	2292.24
572.90	2290.77
573.26	2289.42
573.61	2287.69
573.96	2286.03
574.31	2283.04
574.67	2280.11
575.02	2276.57
575.37	2273.23
575.72	2269.34
576.08	2265.98
576.43	2262.71
576.78	2258.98
577.13	2255.72
577.49	2252.72
577.84	2249.22
578.19	2245.52
578.54	2241.95
578.90	2237.86
579.25	2232.26
579.60	2227.27
579.95	2222.39
580.30	2217.55
580.66	2212.45
581.01	2207.60
581.36	2202.67
581.71	2198.47
582.06	2194.09
582.42	2189.61
582.77	2184.53
583.12	2180.12
583.47	2175.37
583.82	2170.60
584.17	2165.35
584.53	2159.93
584.88	2154.29
585.23	2148.64
585.58	2143.35
585.93	2137.93
586.28	2133.24
586.63	2128.29
586.98	2123.29
587.34	2118.61
587.69	2113.56
588.04	2108.34
588.39	2102.72
588.74	2096.41
589.09	2090.46
589.44	2083.75
589.79	2077.67
590.14	2072.07
590.49	2065.54
590.84	2059.26
591.19	2053.22
591.54	2046.85
591.89	2039.55
592.25	2032.85
592.60	2025.63
592.95	2017.99
593.30	2010.78
593.65	2003.17
594.00	1996.10
594.35	1988.91
594.70	1980.80
595.05	1973.74
595.40	1966.63
595.75	1959.12
596.10	1952.83
596.45	1946.13
596.80	1940.22
597.15	1933.87
597.50	1926.68
597.85	1920.29
598.19	1913.70
598.54	1906.52
598.89	1899.95
599.24	1894.06
599.59	1887.41
599.94	1881.23
600.29	1874.98
600.64	1868.26
600.99	1860.79
601.34	1854.12
601.69	1847.11
602.04	1840.43
602.39	1833.11
602.74	1826.25
603.08	1819.56
603.43	1812.80
603.78	1805.36
604.13	1798.06
604.48	1790.62
604.83	1783.77
605.18	1776.84
605.53	1768.83
605.87	1760.95
606.22	1753.69
606.57	1745.74
606.92	1738.49
607.27	1731.42
607.62	1724.58
607.96	1717.36
608.31	1710.92
608.66	1703.36
609.01	1695.96
609.36	1688.30
609.70	1680.34
610.05	1672.22
610.40	1664.61
610.75	1656.36
611.10	1648.76
611.44	1640.29
611.79	1632.31
612.14	1623.72
612.49	1614.57
612.83	1606.21
613.18	1597.93
613.53	1589.89
613.88	1581.38
614.22	1573.13
614.57	1564.33
614.92	1556.10
615.27	1548.64
615.61	1540.18
615.96	1532.00
616.31	1524.30
616.65	1516.93
617.00	1509.29
617.35	1501.65
617.70	1493.28
618.04	1484.81
618.39	1476.58
618.74	1469.04
619.08	1460.74
619.43	1453.10
619.78	1446.09
620.12	1438.91
620.47	1431.59
620.82	1423.36
621.16	1415.95
621.51	1408.28
621.85	1400.73
622.20	1392.28
622.55	1383.81
622.89	1376.05
623.24	1368.41
623.59	1361.01
623.93	1353.48
624.28	1346.22
624.62	1338.75
624.97	1331.59
625.32	1324.81
625.66	1317.74
626.01	1310.58
626.35	1303.16
626.70	1295.45
627.04	1287.78
627.39	1279.95
627.73	1272.43
628.08	1265.51
628.43	1258.07
628.77	1250.62
629.12	1243.11
629.46	1236.02
629.81	1228.59
630.15	1221.40
630.50	1213.97
630.84	1205.73
631.19	1197.83
631.53	1190.33
631.88	1182.72
632.22	1175.11
632.57	1167.77
632.91	1160.29
633.26	1152.79
633.60	1145.43
633.95	1138.34
634.29	1131.29
634.64	1124.69
634.98	1117.33
635.32	1110.13
635.67	1103.66
636.01	1097.12
636.36	1090.30
636.70	1083.83
637.05	1077.27
637.39	1070.75
637.73	1064.38
638.08	1058.57
638.42	1052.50
638.77	1046.06
639.11	1039.50
639.45	1033.13
639.80	1026.49
640.14	1020.14
640.49	1013.66
640.83	1007.31
641.17	1001.03
641.52	994.74
641.86	988.20
642.20	982.36
642.55	976.12
642.89	969.54
643.23	962.93
643.58	957.13
643.92	950.85
644.26	944.88
644.61	938.84
644.95	932.73
645.29	926.22
645.64	919.51
645.98	913.12
646.32	907.34
646.66	901.36
647.01	895.59
647.35	889.82
647.69	883.98
648.04	878.48
648.38	872.68
648.72	866.55
649.06	860.49
649.41	854.63
649.75	848.65
650.09	842.84
650.43	837.08
650.78	830.91
651.12	824.98
651.46	819.18
651.80	813.39
652.14	808.00
652.49	802.51
652.83	797.30
653.17	791.63
653.51	785.86
653.85	780.40
654.20	774.70
654.54	768.61
654.88	762.86
655.22	756.96
655.56	751.26
655.90	745.86
656.25	740.65
656.59	735.27
656.93	730.19
657.27	724.95
657.61	719.49
657.95	714.41
658.29	709.34
658.64	704.09
658.98	698.81
659.32	693.35
659.66	688.22
660.00	682.92
660.34	677.95
660.68	673.04
661.02	667.93
661.36	663.31
661.70	658.81
662.05	654.44
662.39	650.06
662.73	645.65
663.07	641.27
663.41	636.78
663.75	632.30
664.09	627.77
664.43	623.42
664.77	619.31
665.11	615.03
665.45	610.84
665.79	606.73
666.13	602.51
666.47	598.36
666.81	594.20
667.15	590.07
667.49	586.16
667.83	582.33
668.17	578.43
668.51	574.27
668.85	570.26
669.19	566.40
669.53	562.58
669.87	558.69
670.21	554.98
670.55	551.35
670.89	547.87
671.23	544.41
671.57	540.89
671.91	537.32
672.25	533.83
672.58	530.23
672.92	526.80
673.26	523.69
673.60	520.54
673.94	517.37
674.28	514.48
674.62	511.55
674.96	508.38
675.30	505.43
675.64	502.47
675.97	499.66
676.31	496.76
676.65	493.83
676.99	491.07
677.33	488.20
677.67	485.38
678.01	482.41
678.34	479.43
678.68	476.52
679.02	473.71
679.36	471.02
679.70	468.36
680.04	465.70
680.37	462.82
680.71	460.03
681.05	457.45
681.39	454.70
681.73	452.04
682.06	449.50
682.40	447.02
682.74	444.56
683.08	442.08
683.42	439.49
683.75	437.02
684.09	434.49
684.43	432.01
684.77	429.54
685.10	427.15
685.44	424.78
685.78	422.54
686.12	420.27
686.45	417.95
686.79	415.63
687.13	413.39
687.46	411.21
687.80	409.12
688.14	406.86
688.48	404.80
688.81	402.59
689.15	400.43
689.49	398.27
689.82	396.20
690.16	394.12
690.50	392.23
690.83	390.27
691.17	388.30
691.51	386.40
691.84	384.57
692.18	382.60
692.52	380.63
692.85	378.63
693.19	376.75
693.52	374.92
693.86	373.13
694.20	371.33
694.53	369.57
694.87	367.68
695.21	365.89
695.54	364.08
695.88	362.37
696.21	360.71
696.55	359.01
696.88	357.27
697.22	355.57
697.56	353.90
697.89	352.25
698.23	350.64
698.56	349.05
698.90	347.46
699.23	345.88
699.57	344.33
699.90	342.77
700.24	341.23
700.58	339.68
700.91	338.17
701.25	336.71
701.58	335.30
701.92	333.93
702.25	332.53
702.59	331.14
702.92	329.82
703.26	328.49
703.59	327.18
703.93	326.01
704.26	324.75
704.60	323.44
704.93	322.18
705.26	320.90
705.60	319.69
705.93	318.51
706.27	317.45
706.60	316.45
706.94	315.44
707.27	314.32
707.61	313.27
707.94	312.25
708.27	311.20
708.61	310.09
708.94	309.08
709.28	308.13
709.61	307.16
709.94	306.18
710.28	305.13
710.61	304.15
710.95	303.07
711.28	302.19
711.61	301.23
711.95	300.28
712.28	299.34
712.61	298.39
712.95	297.43
713.28	296.55
713.61	295.64
713.95	294.69
714.28	293.88
714.61	292.99
714.95	292.16
715.28	291.25
715.61	290.39
715.95	289.55
716.28	288.67
716.61	287.84
716.95	287.01
717.28	286.31
717.61	285.55
717.94	284.82
718.28	283.99
718.61	283.26
718.94	282.58
719.27	281.94
719.61	281.31
719.94	280.70
720.27	279.98
720.60	279.27
720.94	278.71
721.27	278.09
721.60	277.53
721.93	276.89
722.27	276.36
722.60	275.80
722.93	275.24
723.26	274.75
723.59	274.20
723.93	273.67
724.26	273.11
724.59	272.53
724.92	272.03
725.25	271.52
725.59	271.02
725.92	270.52
726.25	269.99
726.58	269.50
726.91	268.98
727.24	268.52
727.57	268.07
727.91	267.53
728.24	267.04
728.57	266.53
728.90	266.10
729.23	265.64
729.56	265.25
729.89	264.81
730.22	264.30
730.55	263.85
730.89	263.36
731.22	262.93
731.55	262.52
731.88	262.09
732.21	261.68
732.54	261.23
732.87	260.80
733.20	260.40
733.53	260.01
733.86	259.64
734.19	259.20
734.52	258.81
734.85	258.51
735.18	258.10
735.51	257.75
735.84	257.36
736.17	256.99
736.50	256.53
736.83	256.28
737.16	255.97
737.49	255.64
737.82	255.32
738.15	254.99
738.48	254.64
738.81	254.33
739.14	253.98
739.47	253.66
739.80	253.33
740.13	253.02
740.46	252.67
740.79	252.31
741.12	252.01
741.45	251.70
741.78	251.32
742.11	251.10
742.44	250.76
742.77	250.46
743.10	250.17
743.43	249.91
743.75	249.51
744.08	249.36
744.41	249.09
744.74	248.81
745.07	248.50
745.40	248.24
745.73	247.97
746.06	247.70
746.39	247.46
746.71	247.21
747.04	246.94
747.37	246.67
747.70	246.47
748.03	246.23
748.36	246.00
748.68	245.74
749.01	245.41
749.34	245.18
749.67	244.94
750.00	244.71
750.33	244.53
750.65	244.30
750.98	243.96
751.31	243.73
751.64	243.50
751.97	243.32
752.29	243.10
752.62	242.81
752.95	242.62
753.28	242.38
753.60	242.20
753.93	242.02
754.26	241.84
754.59	241.61
754.91	241.37
755.24	241.17
755.57	240.99
755.90	240.82
756.22	240.61
756.55	240.41
756.88	240.22
757.20	240.00
757.53	239.84
757.86	239.64
758.19	239.46
758.51	239.33
758.84	239.16
759.17	238.99
759.49	238.86
759.82	238.77
760.15	238.67
760.47	238.50
760.80	238.33
761.13	238.19
761.45	238.05
761.78	237.93
762.11	237.82
762.43	237.71
762.76	237.59
763.08	237.49
763.41	237.37
763.74	237.23
764.06	237.11
764.39	237.00
764.71	236.87
765.04	236.77
765.37	236.64
765.69	236.51
766.02	236.38
766.34	236.26
766.67	236.11
767.00	235.99
767.32	235.93
767.65	235.86
767.97	235.75
768.30	235.65
768.62	235.54
768.95	235.40
769.27	235.29
769.60	235.19
769.92	235.07
770.25	234.99
770.57	234.88
770.90	234.77
771.22	234.63
771.55	234.57
771.87	234.46
772.20	234.31
772.52	234.26
772.85	234.29
773.17	234.21
773.50	234.06
773.82	233.97
774.15	233.82
774.47	233.67
774.80	233.56
775.12	233.45
775.45	233.35
775.77	233.26
776.09	233.17
776.42	233.10
776.74	233.04
777.07	232.93
777.39	232.84
777.72	232.74
778.04	232.67
778.36	232.58
778.69	232.51
779.01	232.47
779.33	232.33
779.66	232.15
779.98	232.06
780.31	232.01
780.63	231.93
780.95	231.87
781.28	231.77
781.60	231.70
781.92	231.60
782.25	231.54
782.57	231.46
782.89	231.35
783.22	231.26
783.54	231.18
783.86	231.13
784.19	231.06
784.51	231.01
784.83	230.94
785.16	230.82
785.48	230.75
785.80	230.65
786.12	230.60
786.45	230.54
786.77	230.48
787.09	230.42
787.42	230.34
787.74	230.30
788.06	230.29
788.38	230.21
788.71	230.16
789.03	230.11
789.35	230.08
789.67	230.05
789.99	230.00
790.32	229.97
790.64	229.93
790.96	229.96
791.28	229.87
791.61	229.85
791.93	229.86
792.25	229.83
792.57	229.90
792.89	229.85
793.21	229.82
793.54	229.79
793.86	229.73
794.18	229.72
794.50	229.67
794.82	229.63
795.14	229.64
795.47	229.66
795.79	229.62
796.11	229.59
796.43	229.58
796.75	229.55
797.07	229.49
797.39	229.46
797.71	229.38
798.04	229.38
798.36	229.37
798.68	229.35
799.00	229.36
799.32	229.28
799.64	229.29
799.96	229.26
800.28	229.27
800.60	229.28
800.92	229.28
801.24	229.28
801.56	229.26
801.89	229.21
802.21	229.19
802.53	229.17
802.85	229.18
803.17	229.18
803.49	229.16
803.81	229.14
804.13	229.15
804.45	229.14
804.77	229.14
805.09	229.11
805.41	229.06
805.73	229.02
806.05	228.99
806.37	228.95
806.69	228.94
807.01	228.86
807.33	228.84
807.65	228.79
807.97	228.79
808.28	228.75
808.60	228.74
808.92	228.72
809.24	228.75
809.56	228.72
809.88	228.67
810.20	228.64
810.52	228.63
810.84	228.58
811.16	228.52
811.48	228.48
811.80	228.48
812.12	228.43
812.43	228.43
812.75	228.38
813.07	228.35
813.39	228.32
813.71	228.33
814.03	228.28
814.35	228.26
814.67	228.21
814.98	228.19
815.30	228.15
815.62	228.12
815.94	228.02
816.26	228.02
816.58	227.96
816.89	227.97
817.21	227.92
817.53	227.92
817.85	227.93
818.17	227.88
818.48	227.80
818.80	227.82
819.12	227.77
819.44	227.75
819.76	227.70
820.07	227.65
820.39	227.59
820.71	227.59
821.03	227.50
821.34	227.46
821.66	227.47
821.98	227.46
822.30	227.41
822.61	227.44
822.93	227.39
823.25	227.38
823.57	227.33
823.88	227.35
824.20	227.29
824.52	227.27
824.83	227.25
825.15	227.22
825.47	227.20
825.79	227.16
826.10	227.13
826.42	227.14
826.74	227.14
827.05	227.15
827.37	227.13
827.69	227.14
828.00	227.12
828.32	227.10
828.64	227.04
828.95	227.11
829.27	227.08
829.58	227.02
829.90	227.02
830.22	227.06
830.53	226.98
830.85	226.97
831.17	226.94
831.48	226.93
831.80	226.93
832.11	226.90
832.43	226.89
832.75	226.86
833.06	226.90
833.38	226.87
833.69	226.83
834.01	226.85
834.32	226.87
834.64	226.86
834.96	226.82
835.27	226.86
835.59	226.81
835.90	226.78
836.22	226.81
836.53	226.78
836.85	226.73
837.16	226.86
837.48	226.87
837.79	226.88
838.11	226.90
838.42	226.92
838.74	226.92
839.05	226.93
839.37	226.94
839.68	226.87
840.00	226.90
840.31	226.96
840.63	226.94
840.94	226.92
841.26	226.93
841.57	226.94
841.88	226.96
842.20	226.95
842.51	226.92
842.83	226.93
843.14	227.05
843.46	227.07
843.77	226.97
844.08	226.95
844.40	226.93
844.71	226.92
845.03	226.88
845.34	226.90
845.65	226.89
845.97	226.91
846.28	226.91
846.60	226.92
846.91	226.91
847.22	226.91
847.54	226.90
847.85	226.91
848.16	226.91
848.48	226.88
848.79	226.90
849.10	226.93
849.42	226.94
849.73	226.83
850.04	226.81
850.36	226.84
850.67	226.85
850.98	226.87
851.30	226.87
851.61	226.88
851.92	226.90
852.23	226.93
852.55	226.89
852.86	226.87
853.17	226.87
853.49	226.86
853.80	226.88
854.11	226.89
854.42	226.88
854.74	226.88
855.05	226.88
855.36	226.84
855.67	226.84
855.99	226.80
856.30	226.92
856.61	226.95
856.92	226.91
857.23	226.91
857.55	226.90
857.86	226.91
858.17	226.90
858.48	226.86
858.79	226.85
859.11	226.85
859.42	226.86
859.73	226.80
860.04	226.77
860.35	226.70
860.66	226.70
860.98	226.69
861.29	226.68
861.60	226.65
861.91	226.66
862.22	226.64
862.53	226.62
862.84	226.46
863.16	226.47
863.47	226.48
863.78	226.46
864.09	226.45
864.40	226.42
864.71	226.42
865.02	226.42
865.33	226.38
865.64	226.36
865.95	226.36
866.27	226.44
866.58	226.45
866.89	226.49
867.20	226.45
867.51	226.44
867.82	226.43
868.13	226.45
868.44	226.42
868.75	226.44
869.06	226.44
869.37	226.47
869.68	226.44
869.99	226.44
870.30	226.42
870.61	226.41
870.92	226.42
871.23	226.37
871.54	226.40
871.85	226.43
872.16	226.46
872.47	226.45
872.78	226.38
873.09	226.39
873.40	226.36
873.71	226.36
874.02	226.36
874.33	226.36
874.64	226.32
874.95	226.36
875.26	226.31
875.56	226.32
875.87	226.31
876.18	226.28
876.49	226.35
876.80	226.40
877.11	226.35
877.42	226.33
877.73	226.37
878.04	226.29
878.35	226.30
878.66	226.29
878.96	226.27
879.27	226.28
879.58	226.27
879.89	226.25
880.20	226.31
880.51	226.29
880.82	226.29
881.12	226.30
881.43	226.28
881.74	226.29
882.05	226.28
882.36	226.28
882.67	226.30
882.97	226.23
883.28	226.20
883.59	226.21
883.90	226.24
884.21	226.26
884.51	226.29
884.82	226.25
885.13	226.25
885.44	226.26
885.74	226.24
886.05	226.23
886.36	226.26
886.67	226.21
886.98	226.28
887.28	226.25
887.59	226.25
887.90	226.25
888.20	226.24
888.51	226.26
888.82	226.25
889.13	226.21
889.43	226.27
889.74	226.25
890.05	226.28
890.35	226.26
890.66	226.22
890.97	226.24
891.28	226.25
891.58	226.24
891.89	226.26
892.20	226.28
892.50	226.28
892.81	226.26
893.12	226.23
893.42	226.15
893.73	226.19
894.04	226.19
894.34	226.21
894.65	226.23
894.95	226.22
895.26	226.24
895.57	226.32
895.87	226.25
896.18	226.25
896.48	226.24
896.79	226.23
897.10	226.25
897.40	226.24
897.71	226.27
898.01	226.27
898.32	226.29
898.63	226.29
898.93	226.29
899.24	226.31
899.54	226.34
899.85	226.36
900.15	226.38
900.46	226.37
900.76	226.36
901.07	226.33
901.38	226.34
901.68	226.37
901.99	226.28
902.29	226.31
902.60	226.32
902.90	226.29
903.21	226.30
903.51	226.34
903.82	226.36
904.12	226.34
904.43	226.34
904.73	226.32
905.03	226.33
905.34	226.41
905.64	226.40
905.95	226.40
906.25	226.42
906.56	226.38
906.86	226.40
907.17	226.39
907.47	226.41
907.77	226.39
908.08	226.35
908.38	226.34
908.69	226.31
908.99	226.31
909.30	226.34
909.60	226.36
909.90	226.32
910.21	226.28
910.51	226.26
910.81	226.28
911.12	226.27
911.42	226.29
911.73	226.21
912.03	226.20
912.33	226.22
912.64	226.21
912.94	226.20
913.24	226.20
913.55	226.17
913.85	226.19
914.15	226.19
914.46	226.21
914.76	226.24
915.06	226.22
915.37	226.21
915.67	226.19
915.97	226.16
916.27	226.12
916.58	226.14
916.88	226.15
917.18	226.12
917.49	226.17
917.79	226.13
918.09	226.11
918.39	226.13
918.70	226.09
919.00	226.08
919.30	226.09
919.60	226.09
919.91	226.09
920.21	226.06
920.51	226.02
920.81	226.01
921.12	226.00
921.42	226.00
921.72	226.02
922.02	226.01
922.32	226.05
922.63	226.11
922.93	226.14
923.23	226.09
923.53	226.07
923.83	226.02
924.13	226.03
924.44	226.05
924.74	226.08
925.04	226.10
925.34	226.11
925.64	226.07
925.94	226.07
926.24	226.10
926.55	226.08
926.85	226.14
927.15	226.13
927.45	226.12
927.75	226.09
928.05	226.11
928.35	226.09
928.65	226.10
928.95	226.08
929.26	226.04
929.56	226.08
929.86	226.11
930.16	226.10
930.46	226.08
930.76	226.07
931.06	226.04
931.36	226.03
931.66	226.05
931.96	226.08
932.26	226.06
932.56	226.03
932.86	226.09
933.16	226.05
933.46	226.05
933.76	226.05
934.06	226.11
934.36	226.14
934.66	226.14
934.96	226.12
935.26	226.10
935.56	226.13
935.86	226.09
936.16	226.08
936.46	226.11
936.76	226.12
937.06	226.10
937.36	226.10
937.66	226.09
937.96	226.06
938.26	226.02
938.56	225.99
938.86	226.03
939.16	226.02
939.46	226.03
939.76	226.06
940.06	226.03
940.35	226.03
940.65	225.97
940.95	225.98
941.25	225.96
941.55	225.96
941.85	225.91
942.15	225.95
942.45	225.94
942.75	225.91
943.04	225.92
943.34	225.97
943.64	225.93
943.94	225.90
944.24	225.91
944.54	225.94
944.84	225.99
945.13	225.93
945.43	225.90
945.73	225.87
946.03	225.84
946.33	225.84
946.62	225.82
946.92	225.82
947.22	225.86
947.52	225.89
947.82	225.89
948.11	225.90
948.41	225.87
948.71	225.86
949.01	225.86
949.31	225.86
949.60	225.83
949.90	225.88
950.20	225.87
950.50	225.85
950.79	225.84
951.09	225.85
951.39	225.87
951.69	225.86
951.98	225.90
952.28	225.88
952.58	225.87
952.87	225.88
953.17	225.88
953.47	225.88
953.76	225.84
954.06	225.83
954.36	225.82
954.66	225.82
954.95	225.85
955.25	225.87
955.55	225.88
955.84	225.86
956.14	225.86
956.44	225.87
956.73	225.85
957.03	225.85
957.32	225.85
957.62	225.85
957.92	225.89
958.21	225.87
958.51	226.01
958.81	226.06
959.10	226.04
959.40	226.09
959.69	226.09
959.99	226.12
960.29	226.12
960.58	226.14
960.88	226.18
961.17	226.19
961.47	226.17
961.76	226.14
962.06	226.16
962.36	226.16
962.65	226.18
962.95	226.20
963.24	226.18
963.54	226.17
963.83	226.18
964.13	226.15
964.42	226.13
964.72	226.06
965.01	226.05
965.31	226.04
965.60	226.00
965.90	226.05
966.19	226.03
966.49	226.05
966.78	226.05
967.08	226.04
967.37	226.04
967.67	226.06
967.96	226.09
968.26	226.09
968.55	226.11
968.85	226.11
969.14	226.10
969.43	226.15
969.73	226.15
970.02	226.17
970.32	226.22
970.61	226.21
970.91	226.19
971.20	226.20
971.49	226.19
971.79	226.23
972.08	226.16
972.38	226.19
972.67	226.19
972.96	226.25
973.26	226.20
973.55	226.26
973.85	226.24
974.14	226.23
974.43	226.22
974.73	226.21
975.02	226.20
975.31	226.21
975.61	226.18
975.90	226.19
976.19	226.18
976.49	226.12
976.78	226.14
977.07	226.14
977.37	226.15
977.66	226.19
977.95	226.18
978.24	226.20
978.54	226.20
978.83	226.17
979.12	226.16
979.42	226.19
979.71	226.14
980.00	226.17
980.29	226.19
980.59	226.19
980.88	226.20
981.17	226.17
981.46	226.19
981.76	226.18
982.05	226.19
982.34	226.20
982.63	226.23
982.93	226.23
983.22	226.25
983.51	226.23
983.80	226.23
984.09	226.21
984.39	226.19
984.68	226.14
984.97	226.16
985.26	226.12
985.55	226.13
985.85	226.09
986.14	226.06
986.43	226.05
986.72	226.04
987.01	226.00
987.30	226.01
987.59	225.97
987.89	225.98
988.18	225.96
988.47	225.93
988.76	225.92
989.05	225.89
989.34	225.87
989.63	225.90
989.92	225.88
990.22	225.84
990.51	225.81
990.80	225.82
991.09	225.81
991.38	225.79
991.67	225.76
991.96	225.75
992.25	225.73
992.54	225.72
992.83	225.70
993.12	225.71
993.41	225.74
993.70	225.79
993.99	225.77
994.28	225.78
994.58	225.78
994.87	225.78
995.16	225.78
995.45	225.79
995.74	225.77
996.03	225.76
996.32	225.77
996.61	225.82
996.90	225.83
997.19	225.85
997.48	225.85
997.77	225.86
998.06	225.88
998.34	225.90
998.63	225.93
998.92	225.98
999.21	226.00
999.50	225.99
999.79	225.99
1000.08	226.01
1000.37	226.02
1000.66	226.02
1000.95	226.04
1001.24	226.07
1001.53	226.05
1001.82	226.04
1002.11	226.05
1002.40	226.05
1002.68	226.07
1002.97	226.12
1003.26	226.10
1003.55	226.09
1003.84	226.10
1004.13	226.14
1004.42	226.11
1004.71	226.10
1004.99	226.09
1005.28	226.08
1005.57	226.09
1005.86	226.07
1006.15	226.04
1006.44	226.03
1006.72	226.01
1007.01	225.99
1007.30	225.96
1007.59	225.97
1007.88	225.99
1008.17	225.97
1008.45	225.99
1008.74	225.94
1009.03	225.89
1009.32	225.92
1009.60	225.95
1009.89	225.94
1010.18	225.87
1010.47	225.89
1010.76	225.90
1011.04	225.90
1011.33	225.93
1011.62	225.90
1011.91	225.92
1012.19	225.92
1012.48	225.90
1012.77	225.91
1013.05	225.96
1013.34	225.98
1013.63	225.96
1013.92	225.95
1014.20	225.93
1014.49	225.90
1014.78	225.92
1015.06	225.88
1015.35	225.86
1015.64	225.83
1015.92	225.84
1016.21	225.85
1016.50	225.85
1016.78	225.83
1017.07	225.79
1017.36	225.73
1017.64	225.72
1017.93	225.71
1018.22	225.72
1018.50	225.72
1018.79	225.73
1019.08	225.66
1019.36	225.64
1019.65	225.64
1019.93	225.69
1020.22	225.71
1020.51	225.75
1020.79	225.73
1021.08	225.70
1021.36	225.53
1021.65	225.94
1021.94	225.53
1022.22	225.49
1022.51	225.64
1022.79	226.93
1023.08	225.81
1023.36	226.41
1023.65	225.59
>>>>>End Processed Spectral Data<<<<<
