SpectraSuite Data File
++++++++++++++++++++++++++++++++++++
Date: Fri Feb 01 15:45:37 EST 2013
User: group
Dark Spectrum Present: No
Reference Spectrum Present: No
Number of Sampled Component Spectra: 1
Spectrometers: USB2E7196
Integration Time (usec): 35000 (USB2E7196)
Spectra Averaged: 100 (USB2E7196)
Boxcar Smoothing: 10 (USB2E7196)
Correct for Electrical Dark: No (USB2E7196)
Strobe/Lamp Enabled: No (USB2E7196)
Correct for Detector Non-linearity: No (USB2E7196)
Correct for Stray Light: No (USB2E7196)
Number of Pixels in Processed Spectrum: 2048
>>>>>Begin Processed Spectral Data<<<<<
339.09	0.00
339.48	214.65
339.86	216.32
340.24	217.52
340.63	218.38
341.01	221.85
341.39	221.33
341.78	222.65
342.16	224.06
342.54	224.57
342.93	212.97
343.31	223.73
343.69	224.27
344.07	224.74
344.46	225.17
344.84	225.59
345.22	225.79
345.60	226.07
345.99	226.27
346.37	226.40
346.75	226.51
347.13	226.59
347.52	226.64
347.90	226.70
348.28	226.74
348.66	226.83
349.05	226.85
349.43	226.89
349.81	226.95
350.19	227.00
350.57	227.06
350.96	227.18
351.34	227.29
351.72	227.34
352.10	227.42
352.48	227.48
352.87	227.53
353.25	227.64
353.63	227.70
354.01	227.79
354.39	227.89
354.77	227.98
355.15	228.10
355.54	228.18
355.92	228.21
356.30	228.28
356.68	228.39
357.06	228.46
357.44	228.51
357.82	228.59
358.20	228.66
358.58	228.73
358.97	228.79
359.35	228.87
359.73	229.01
360.11	229.05
360.49	229.13
360.87	229.15
361.25	229.19
361.63	229.29
362.01	229.32
362.39	229.33
362.77	229.35
363.15	229.35
363.53	229.37
363.91	229.41
364.29	229.44
364.67	229.38
365.05	229.35
365.43	229.40
365.81	229.39
366.19	229.45
366.57	229.46
366.95	229.44
367.33	229.40
367.71	229.37
368.09	229.41
368.47	229.38
368.85	229.38
369.23	229.39
369.61	229.31
369.99	229.31
370.37	229.27
370.75	229.25
371.13	229.19
371.51	229.12
371.89	229.09
372.27	229.04
372.65	228.97
373.03	228.94
373.41	228.83
373.78	228.77
374.16	228.64
374.54	228.56
374.92	228.49
375.30	228.44
375.68	228.34
376.06	228.25
376.44	228.20
376.82	228.13
377.19	228.05
377.57	227.97
377.95	227.89
378.33	227.80
378.71	227.70
379.09	227.64
379.47	227.58
379.84	227.50
380.22	227.44
380.60	227.35
380.98	227.28
381.36	227.23
381.73	227.16
382.11	227.11
382.49	227.06
382.87	226.98
383.25	226.93
383.62	226.97
384.00	226.90
384.38	226.83
384.76	226.80
385.13	226.81
385.51	226.74
385.89	226.69
386.27	226.64
386.64	226.62
387.02	226.59
387.40	226.52
387.78	226.46
388.15	226.43
388.53	226.44
388.91	226.42
389.29	226.37
389.66	226.36
390.04	226.34
390.42	226.34
390.79	226.34
391.17	226.30
391.55	226.20
391.92	226.20
392.30	226.23
392.68	226.18
393.05	226.15
393.43	226.19
393.81	226.17
394.18	226.20
394.56	226.24
394.94	226.27
395.31	226.34
395.69	226.40
396.06	226.46
396.44	226.43
396.82	226.49
397.19	226.62
397.57	226.62
397.95	226.67
398.32	226.70
398.70	226.77
399.07	226.86
399.45	226.92
399.82	227.00
400.20	227.04
400.58	227.17
400.95	227.24
401.33	227.31
401.70	227.45
402.08	227.57
402.45	227.66
402.83	227.76
403.20	227.84
403.58	227.95
403.95	228.05
404.33	228.23
404.71	228.35
405.08	228.50
405.46	228.69
405.83	228.84
406.21	229.02
406.58	229.16
406.96	229.34
407.33	229.50
407.70	229.69
408.08	229.99
408.45	230.21
408.83	230.41
409.20	230.66
409.58	230.87
409.95	231.12
410.33	231.40
410.70	231.68
411.08	232.01
411.45	232.31
411.82	232.67
412.20	233.01
412.57	233.43
412.95	233.74
413.32	234.15
413.69	234.56
414.07	235.00
414.44	235.47
414.82	235.92
415.19	236.50
415.56	237.05
415.94	237.59
416.31	238.24
416.68	238.86
417.06	239.54
417.43	240.23
417.81	241.00
418.18	241.76
418.55	242.59
418.93	243.42
419.30	244.34
419.67	245.25
420.04	246.19
420.42	247.16
420.79	248.33
421.16	249.45
421.54	250.63
421.91	251.80
422.28	253.06
422.66	254.39
423.03	255.66
423.40	257.01
423.77	258.35
424.15	259.77
424.52	261.27
424.89	262.87
425.26	264.42
425.64	265.82
426.01	267.40
426.38	269.04
426.75	270.70
427.13	272.39
427.50	274.18
427.87	276.09
428.24	277.91
428.61	279.63
428.99	281.63
429.36	283.72
429.73	285.80
430.10	287.81
430.47	289.86
430.85	291.95
431.22	294.20
431.59	296.62
431.96	298.89
432.33	301.33
432.70	303.74
433.08	306.57
433.45	309.26
433.82	311.83
434.19	314.76
434.56	317.60
434.93	320.29
435.30	322.91
435.68	325.82
436.05	328.69
436.42	331.51
436.79	333.97
437.16	336.66
437.53	339.46
437.90	342.29
438.27	345.01
438.64	347.89
439.01	350.43
439.38	352.62
439.75	354.76
440.13	357.29
440.50	359.60
440.87	361.47
441.24	363.43
441.61	365.61
441.98	367.09
442.35	368.87
442.72	370.72
443.09	372.50
443.46	373.46
443.83	374.04
444.20	374.55
444.57	375.41
444.94	375.75
445.31	376.11
445.68	376.49
446.05	376.59
446.42	376.20
446.79	375.77
447.16	375.35
447.53	375.00
447.90	373.83
448.27	372.67
448.64	371.06
449.01	369.92
449.37	367.97
449.74	366.11
450.11	363.89
450.48	361.41
450.85	358.92
451.22	356.82
451.59	354.78
451.96	352.86
452.33	350.24
452.70	347.86
453.07	345.03
453.43	342.08
453.80	339.28
454.17	336.60
454.54	334.12
454.91	331.38
455.28	328.74
455.65	326.24
456.02	323.81
456.38	321.63
456.75	318.95
457.12	316.71
457.49	314.46
457.86	312.26
458.23	310.38
458.59	308.29
458.96	306.20
459.33	304.35
459.70	302.46
460.07	300.95
460.43	299.21
460.80	297.61
461.17	296.18
461.54	294.70
461.91	293.30
462.27	291.83
462.64	290.59
463.01	289.21
463.38	287.93
463.74	286.56
464.11	285.41
464.48	284.36
464.85	283.20
465.21	282.32
465.58	281.42
465.95	280.33
466.32	279.46
466.68	278.53
467.05	277.66
467.42	276.75
467.78	275.80
468.15	274.91
468.52	274.21
468.88	273.38
469.25	272.62
469.62	271.98
469.98	271.30
470.35	270.67
470.72	270.08
471.08	269.39
471.45	268.88
471.82	268.31
472.18	267.70
472.55	267.31
472.92	266.75
473.28	266.25
473.65	265.81
474.02	265.38
474.38	265.02
474.75	264.67
475.11	264.36
475.48	264.16
475.85	263.96
476.21	263.72
476.58	263.52
476.94	263.37
477.31	263.18
477.67	263.05
478.04	262.91
478.41	262.89
478.77	262.94
479.14	262.84
479.50	262.86
479.87	262.92
480.23	262.98
480.60	263.10
480.96	263.17
481.33	263.38
481.69	263.51
482.06	263.69
482.42	263.87
482.79	264.10
483.15	264.38
483.52	264.72
483.88	265.10
484.25	265.46
484.61	265.91
484.98	266.39
485.34	266.93
485.71	267.54
486.07	268.12
486.44	268.68
486.80	269.41
487.17	270.14
487.53	270.98
487.90	271.84
488.26	272.74
488.62	273.78
488.99	274.73
489.35	275.82
489.72	276.98
490.08	278.17
490.44	279.43
490.81	280.73
491.17	282.11
491.54	283.56
491.90	285.12
492.26	286.77
492.63	288.50
492.99	290.27
493.36	292.21
493.72	294.25
494.08	296.37
494.45	298.64
494.81	301.02
495.17	303.44
495.54	306.00
495.90	308.72
496.26	311.52
496.63	314.48
496.99	317.57
497.35	320.80
497.72	324.23
498.08	327.77
498.44	331.51
498.80	335.39
499.17	339.45
499.53	343.61
499.89	347.92
500.26	352.41
500.62	357.09
500.98	362.05
501.34	367.11
501.71	372.48
502.07	377.86
502.43	383.48
502.79	389.30
503.16	395.43
503.52	401.71
503.88	408.12
504.24	414.77
504.60	421.65
504.97	428.81
505.33	436.12
505.69	443.79
506.05	451.57
506.41	459.52
506.78	467.72
507.14	476.21
507.50	484.97
507.86	493.99
508.22	503.14
508.59	512.30
508.95	521.88
509.31	531.64
509.67	541.80
510.03	552.15
510.39	562.72
510.75	573.48
511.12	584.46
511.48	595.77
511.84	607.30
512.20	618.87
512.56	630.80
512.92	642.99
513.28	655.37
513.64	667.86
514.00	680.55
514.37	693.42
514.73	706.48
515.09	719.50
515.45	732.83
515.81	746.48
516.17	760.53
516.53	774.73
516.89	788.94
517.25	803.09
517.61	817.55
517.97	831.99
518.33	846.40
518.69	861.14
519.05	876.09
519.41	891.20
519.77	906.78
520.13	922.28
520.49	937.76
520.85	953.16
521.21	968.87
521.57	985.03
521.93	1000.88
522.29	1017.31
522.65	1033.60
523.01	1049.73
523.37	1065.72
523.73	1081.96
524.09	1098.04
524.45	1114.27
524.81	1130.99
525.17	1147.73
525.53	1164.65
525.89	1181.58
526.25	1198.42
526.61	1214.86
526.97	1231.64
527.33	1247.97
527.68	1264.51
528.04	1280.99
528.40	1297.58
528.76	1314.53
529.12	1331.17
529.48	1348.02
529.84	1364.01
530.20	1380.68
530.56	1397.74
530.91	1415.20
531.27	1431.94
531.63	1448.36
531.99	1465.11
532.35	1480.97
532.71	1496.81
533.07	1513.15
533.42	1529.08
533.78	1545.06
534.14	1561.39
534.50	1576.71
534.86	1592.74
535.21	1607.97
535.57	1623.91
535.93	1639.44
536.29	1654.26
536.65	1669.31
537.00	1684.13
537.36	1699.47
537.72	1714.05
538.08	1728.51
538.44	1742.24
538.79	1756.01
539.15	1769.67
539.51	1783.31
539.87	1797.63
540.22	1811.39
540.58	1825.05
540.94	1838.33
541.29	1851.29
541.65	1863.95
542.01	1877.27
542.37	1889.55
542.72	1901.96
543.08	1913.64
543.44	1926.04
543.79	1937.38
544.15	1948.48
544.51	1959.92
544.87	1970.75
545.22	1981.50
545.58	1991.69
545.94	2001.57
546.29	2011.45
546.65	2021.37
547.01	2030.52
547.36	2039.21
547.72	2047.57
548.07	2055.44
548.43	2063.55
548.79	2071.57
549.14	2079.06
549.50	2086.26
549.86	2094.01
550.21	2101.28
550.57	2108.45
550.92	2114.93
551.28	2122.02
551.64	2128.93
551.99	2135.50
552.35	2141.77
552.70	2147.85
553.06	2153.86
553.41	2160.24
553.77	2166.25
554.13	2172.28
554.48	2178.59
554.84	2183.98
555.19	2189.46
555.55	2194.58
555.90	2198.95
556.26	2203.84
556.61	2208.61
556.97	2212.93
557.32	2217.05
557.68	2221.19
558.03	2225.38
558.39	2229.09
558.74	2233.85
559.10	2237.82
559.45	2241.58
559.81	2245.85
560.16	2249.74
560.52	2253.04
560.87	2256.35
561.23	2259.07
561.58	2262.10
561.94	2264.41
562.29	2266.91
562.64	2269.56
563.00	2272.21
563.35	2275.85
563.71	2278.90
564.06	2282.10
564.42	2284.85
564.77	2287.30
565.12	2289.53
565.48	2291.60
565.83	2293.56
566.19	2294.67
566.54	2295.64
566.89	2296.69
567.25	2297.26
567.60	2298.60
567.96	2300.16
568.31	2301.07
568.66	2302.13
569.02	2302.68
569.37	2303.14
569.72	2304.07
570.08	2304.20
570.43	2304.23
570.78	2303.66
571.14	2302.04
571.49	2300.57
571.84	2300.26
572.20	2299.08
572.55	2298.12
572.90	2296.43
573.26	2295.03
573.61	2293.33
573.96	2291.36
574.31	2288.39
574.67	2285.46
575.02	2281.75
575.37	2278.36
575.72	2274.45
576.08	2271.14
576.43	2267.67
576.78	2263.92
577.13	2260.79
577.49	2257.72
577.84	2254.09
578.19	2250.37
578.54	2246.78
578.90	2242.46
579.25	2236.89
579.60	2231.87
579.95	2226.81
580.30	2221.87
580.66	2216.65
581.01	2211.70
581.36	2206.90
581.71	2202.62
582.06	2198.09
582.42	2193.65
582.77	2188.42
583.12	2183.88
583.47	2178.98
583.82	2174.07
584.17	2168.81
584.53	2163.28
584.88	2157.73
585.23	2151.96
585.58	2146.42
585.93	2140.94
586.28	2136.31
586.63	2131.24
586.98	2126.18
587.34	2121.46
587.69	2116.51
588.04	2111.19
588.39	2105.46
588.74	2098.99
589.09	2092.89
589.44	2086.03
589.79	2079.97
590.14	2074.33
590.49	2067.71
590.84	2061.46
591.19	2055.34
591.54	2048.87
591.89	2041.19
592.25	2034.18
592.60	2027.02
592.95	2019.40
593.30	2012.05
593.65	2004.52
594.00	1997.57
594.35	1990.34
594.70	1982.40
595.05	1975.01
595.40	1967.85
595.75	1960.26
596.10	1954.01
596.45	1947.34
596.80	1941.25
597.15	1934.68
597.50	1927.45
597.85	1921.08
598.19	1914.34
598.54	1907.11
598.89	1900.52
599.24	1894.81
599.59	1887.97
599.94	1881.80
600.29	1875.47
600.64	1868.81
600.99	1861.23
601.34	1854.31
601.69	1847.29
602.04	1840.28
602.39	1833.10
602.74	1826.13
603.08	1819.47
603.43	1812.75
603.78	1805.32
604.13	1798.03
604.48	1790.59
604.83	1783.87
605.18	1776.83
605.53	1768.90
605.87	1761.04
606.22	1753.75
606.57	1745.73
606.92	1738.61
607.27	1731.32
607.62	1724.35
607.96	1717.06
608.31	1710.43
608.66	1702.87
609.01	1695.33
609.36	1687.79
609.70	1679.81
610.05	1671.76
610.40	1664.00
610.75	1655.63
611.10	1648.01
611.44	1639.72
611.79	1631.83
612.14	1623.04
612.49	1613.85
612.83	1605.52
613.18	1597.43
613.53	1589.38
613.88	1580.84
614.22	1572.53
614.57	1563.93
614.92	1555.88
615.27	1548.39
615.61	1540.07
615.96	1532.03
616.31	1524.39
616.65	1516.98
617.00	1509.35
617.35	1501.65
617.70	1493.33
618.04	1484.83
618.39	1476.57
618.74	1468.93
619.08	1460.57
619.43	1453.05
619.78	1446.17
620.12	1438.90
620.47	1431.37
620.82	1423.11
621.16	1415.80
621.51	1408.20
621.85	1400.60
622.20	1392.12
622.55	1383.71
622.89	1375.94
623.24	1368.20
623.59	1360.81
623.93	1353.20
624.28	1346.02
624.62	1338.54
624.97	1331.42
625.32	1324.71
625.66	1317.66
626.01	1310.32
626.35	1302.93
626.70	1295.14
627.04	1287.31
627.39	1279.58
627.73	1272.10
628.08	1265.21
628.43	1257.81
628.77	1250.38
629.12	1242.81
629.46	1235.67
629.81	1228.33
630.15	1221.18
630.50	1213.81
630.84	1205.63
631.19	1197.86
631.53	1190.37
631.88	1182.78
632.22	1175.06
632.57	1167.70
632.91	1160.16
633.26	1152.76
633.60	1145.36
633.95	1138.36
634.29	1131.41
634.64	1124.75
634.98	1117.36
635.32	1110.17
635.67	1103.56
636.01	1096.89
636.36	1090.05
636.70	1083.54
637.05	1077.02
637.39	1070.45
637.73	1063.92
638.08	1058.09
638.42	1051.99
638.77	1045.45
639.11	1038.86
639.45	1032.48
639.80	1025.85
640.14	1019.48
640.49	1013.02
640.83	1006.70
641.17	1000.36
641.52	993.95
641.86	987.39
642.20	981.54
642.55	975.30
642.89	968.79
643.23	962.30
643.58	956.55
643.92	950.29
644.26	944.12
644.61	938.11
644.95	932.03
645.29	925.33
645.64	918.59
645.98	912.33
646.32	906.48
646.66	900.48
647.01	894.60
647.35	888.88
647.69	882.92
648.04	877.36
648.38	871.50
648.72	865.52
649.06	859.48
649.41	853.60
649.75	847.63
650.09	841.75
650.43	835.93
650.78	829.83
651.12	823.88
651.46	818.13
651.80	812.37
652.14	807.01
652.49	801.62
652.83	796.49
653.17	790.75
653.51	785.05
653.85	779.72
654.20	774.10
654.54	768.08
654.88	762.45
655.22	756.62
655.56	750.97
655.90	745.58
656.25	740.34
656.59	735.02
656.93	730.02
657.27	724.88
657.61	719.54
657.95	714.40
658.29	709.40
658.64	704.23
658.98	698.87
659.32	693.50
659.66	688.30
660.00	682.97
660.34	678.07
660.68	673.19
661.02	668.10
661.36	663.43
661.70	659.00
662.05	654.60
662.39	650.25
662.73	645.79
663.07	641.36
663.41	636.97
663.75	632.44
664.09	627.82
664.43	623.37
664.77	619.22
665.11	615.03
665.45	610.91
665.79	606.83
666.13	602.76
666.47	598.67
666.81	594.52
667.15	590.32
667.49	586.50
667.83	582.69
668.17	578.74
668.51	574.62
668.85	570.51
669.19	566.66
669.53	562.87
669.87	558.98
670.21	555.33
670.55	551.64
670.89	548.21
671.23	544.74
671.57	541.27
671.91	537.66
672.25	534.17
672.58	530.61
672.92	527.18
673.26	524.00
673.60	520.84
673.94	517.73
674.28	514.93
674.62	511.87
674.96	508.74
675.30	505.87
675.64	502.95
675.97	500.17
676.31	497.23
676.65	494.24
676.99	491.63
677.33	488.73
677.67	485.91
678.01	482.88
678.34	479.87
678.68	476.95
679.02	474.18
679.36	471.36
679.70	468.63
680.04	465.83
680.37	462.94
680.71	460.13
681.05	457.56
681.39	454.83
681.73	452.20
682.06	449.64
682.40	447.05
682.74	444.52
683.08	441.97
683.42	439.40
683.75	436.91
684.09	434.34
684.43	431.84
684.77	429.38
685.10	427.09
685.44	424.78
685.78	422.52
686.12	420.27
686.45	417.99
686.79	415.73
687.13	413.53
687.46	411.37
687.80	409.19
688.14	406.92
688.48	404.85
688.81	402.61
689.15	400.47
689.49	398.36
689.82	396.32
690.16	394.29
690.50	392.36
690.83	390.43
691.17	388.42
691.51	386.56
691.84	384.76
692.18	382.80
692.52	380.83
692.85	378.90
693.19	376.97
693.52	375.19
693.86	373.38
694.20	371.63
694.53	369.88
694.87	368.07
695.21	366.31
695.54	364.47
695.88	362.77
696.21	361.08
696.55	359.41
696.88	357.67
697.22	356.00
697.56	354.41
697.89	352.77
698.23	351.18
698.56	349.61
698.90	348.01
699.23	346.37
699.57	344.87
699.90	343.33
700.24	341.89
700.58	340.33
700.91	338.81
701.25	337.35
701.58	335.97
701.92	334.60
702.25	333.24
702.59	331.89
702.92	330.57
703.26	329.24
703.59	327.95
703.93	326.80
704.26	325.61
704.60	324.30
704.93	323.01
705.26	321.77
705.60	320.60
705.93	319.43
706.27	318.38
706.60	317.32
706.94	316.21
707.27	315.04
707.61	314.02
707.94	313.01
708.27	311.93
708.61	310.86
708.94	309.82
709.28	308.83
709.61	307.86
709.94	306.92
710.28	305.88
710.61	304.87
710.95	303.80
711.28	302.84
711.61	301.90
711.95	300.96
712.28	300.00
712.61	298.98
712.95	298.04
713.28	297.17
713.61	296.25
713.95	295.36
714.28	294.48
714.61	293.58
714.95	292.75
715.28	291.87
715.61	290.98
715.95	290.15
716.28	289.28
716.61	288.44
716.95	287.60
717.28	286.86
717.61	286.11
717.94	285.36
718.28	284.52
718.61	283.81
718.94	283.11
719.27	282.45
719.61	281.80
719.94	281.15
720.27	280.42
720.60	279.75
720.94	279.12
721.27	278.55
721.60	277.97
721.93	277.34
722.27	276.79
722.60	276.24
722.93	275.67
723.26	275.14
723.59	274.56
723.93	274.01
724.26	273.45
724.59	272.91
724.92	272.42
725.25	271.95
725.59	271.42
725.92	270.92
726.25	270.39
726.58	269.88
726.91	269.39
727.24	268.94
727.57	268.47
727.91	268.01
728.24	267.56
728.57	267.07
728.90	266.61
729.23	266.10
729.56	265.71
729.89	265.23
730.22	264.76
730.55	264.34
730.89	263.90
731.22	263.45
731.55	263.03
731.88	262.59
732.21	262.14
732.54	261.67
732.87	261.26
733.20	260.88
733.53	260.52
733.86	260.15
734.19	259.74
734.52	259.39
734.85	259.06
735.18	258.67
735.51	258.35
735.84	257.98
736.17	257.68
736.50	257.24
736.83	257.04
737.16	256.71
737.49	256.35
737.82	256.00
738.15	255.70
738.48	255.39
738.81	255.06
739.14	254.77
739.47	254.51
739.80	254.23
740.13	253.96
740.46	253.62
740.79	253.27
741.12	252.97
741.45	252.65
741.78	252.33
742.11	252.02
742.44	251.68
742.77	251.41
743.10	251.12
743.43	250.84
743.75	250.43
744.08	250.32
744.41	250.05
744.74	249.80
745.07	249.49
745.40	249.23
745.73	249.02
746.06	248.74
746.39	248.45
746.71	248.16
747.04	247.85
747.37	247.61
747.70	247.39
748.03	247.11
748.36	246.92
748.68	246.66
749.01	246.43
749.34	246.18
749.67	245.91
750.00	245.66
750.33	245.49
750.65	245.29
750.98	244.89
751.31	244.72
751.64	244.50
751.97	244.32
752.29	244.09
752.62	243.82
752.95	243.61
753.28	243.43
753.60	243.18
753.93	243.03
754.26	242.81
754.59	242.57
754.91	242.35
755.24	242.11
755.57	241.91
755.90	241.70
756.22	241.54
756.55	241.37
756.88	241.14
757.20	240.88
757.53	240.66
757.86	240.52
758.19	240.33
758.51	240.14
758.84	239.93
759.17	239.72
759.49	239.57
759.82	239.45
760.15	239.29
760.47	239.14
760.80	238.95
761.13	238.83
761.45	238.69
761.78	238.56
762.11	238.42
762.43	238.29
762.76	238.14
763.08	237.98
763.41	237.84
763.74	237.72
764.06	237.59
764.39	237.44
764.71	237.28
765.04	237.15
765.37	237.00
765.69	236.88
766.02	236.80
766.34	236.64
766.67	236.48
767.00	236.33
767.32	236.27
767.65	236.19
767.97	236.06
768.30	235.93
768.62	235.81
768.95	235.67
769.27	235.55
769.60	235.43
769.92	235.31
770.25	235.20
770.57	235.11
770.90	235.01
771.22	234.89
771.55	234.79
771.87	234.65
772.20	234.58
772.52	234.56
772.85	234.56
773.17	234.47
773.50	234.38
773.82	234.27
774.15	234.15
774.47	234.02
774.80	233.92
775.12	233.84
775.45	233.75
775.77	233.68
776.09	233.58
776.42	233.54
776.74	233.50
777.07	233.42
777.39	233.32
777.72	233.24
778.04	233.22
778.36	233.17
778.69	233.13
779.01	233.11
779.33	232.96
779.66	232.80
779.98	232.73
780.31	232.66
780.63	232.65
780.95	232.58
781.28	232.50
781.60	232.43
781.92	232.40
782.25	232.35
782.57	232.31
782.89	232.28
783.22	232.23
783.54	232.17
783.86	232.14
784.19	232.10
784.51	232.08
784.83	232.02
785.16	231.95
785.48	231.90
785.80	231.80
786.12	231.77
786.45	231.73
786.77	231.74
787.09	231.74
787.42	231.67
787.74	231.67
788.06	231.65
788.38	231.61
788.71	231.54
789.03	231.50
789.35	231.48
789.67	231.42
789.99	231.39
790.32	231.30
790.64	231.25
790.96	231.30
791.28	231.21
791.61	231.19
791.93	231.17
792.25	231.13
792.57	231.18
792.89	231.12
793.21	231.06
793.54	230.97
793.86	230.89
794.18	230.89
794.50	230.83
794.82	230.78
795.14	230.76
795.47	230.76
795.79	230.72
796.11	230.62
796.43	230.61
796.75	230.57
797.07	230.55
797.39	230.53
797.71	230.43
798.04	230.43
798.36	230.40
798.68	230.36
799.00	230.31
799.32	230.24
799.64	230.22
799.96	230.20
800.28	230.20
800.60	230.18
800.92	230.13
801.24	230.09
801.56	230.08
801.89	230.04
802.21	230.00
802.53	229.97
802.85	229.98
803.17	229.97
803.49	229.89
803.81	229.87
804.13	229.79
804.45	229.75
804.77	229.72
805.09	229.68
805.41	229.63
805.73	229.60
806.05	229.55
806.37	229.53
806.69	229.50
807.01	229.45
807.33	229.39
807.65	229.35
807.97	229.37
808.28	229.37
808.60	229.35
808.92	229.33
809.24	229.37
809.56	229.33
809.88	229.25
810.20	229.21
810.52	229.19
810.84	229.19
811.16	229.12
811.48	229.07
811.80	229.06
812.12	229.03
812.43	229.00
812.75	228.99
813.07	228.93
813.39	228.90
813.71	228.89
814.03	228.86
814.35	228.80
814.67	228.70
814.98	228.67
815.30	228.63
815.62	228.58
815.94	228.48
816.26	228.50
816.58	228.49
816.89	228.52
817.21	228.48
817.53	228.45
817.85	228.47
818.17	228.43
818.48	228.39
818.80	228.42
819.12	228.43
819.44	228.37
819.76	228.35
820.07	228.34
820.39	228.32
820.71	228.32
821.03	228.30
821.34	228.31
821.66	228.28
821.98	228.26
822.30	228.25
822.61	228.30
822.93	228.23
823.25	228.19
823.57	228.14
823.88	228.17
824.20	228.16
824.52	228.17
824.83	228.20
825.15	228.18
825.47	228.17
825.79	228.16
826.10	228.17
826.42	228.17
826.74	228.15
827.05	228.12
827.37	228.10
827.69	228.11
828.00	228.09
828.32	228.08
828.64	228.10
828.95	228.16
829.27	228.13
829.58	228.13
829.90	228.17
830.22	228.15
830.53	228.11
830.85	228.12
831.17	228.08
831.48	228.05
831.80	228.08
832.11	228.08
832.43	228.08
832.75	228.11
833.06	228.16
833.38	228.14
833.69	228.14
834.01	228.14
834.32	228.17
834.64	228.16
834.96	228.14
835.27	228.11
835.59	228.05
835.90	228.01
836.22	228.04
836.53	228.02
836.85	228.03
837.16	228.14
837.48	228.11
837.79	228.11
838.11	228.12
838.42	228.08
838.74	228.05
839.05	228.03
839.37	227.98
839.68	227.98
840.00	228.00
840.31	228.05
840.63	228.03
840.94	227.99
841.26	227.99
841.57	227.98
841.88	227.98
842.20	227.95
842.51	227.95
842.83	227.93
843.14	228.01
843.46	228.02
843.77	227.95
844.08	227.98
844.40	227.97
844.71	227.96
845.03	227.95
845.34	227.94
845.65	227.93
845.97	227.93
846.28	227.88
846.60	227.87
846.91	227.84
847.22	227.87
847.54	227.89
847.85	227.90
848.16	227.91
848.48	227.88
848.79	227.91
849.10	227.93
849.42	227.93
849.73	227.82
850.04	227.78
850.36	227.74
850.67	227.72
850.98	227.75
851.30	227.74
851.61	227.72
851.92	227.72
852.23	227.76
852.55	227.74
852.86	227.72
853.17	227.70
853.49	227.67
853.80	227.67
854.11	227.65
854.42	227.63
854.74	227.59
855.05	227.60
855.36	227.56
855.67	227.53
855.99	227.50
856.30	227.64
856.61	227.61
856.92	227.61
857.23	227.62
857.55	227.56
857.86	227.54
858.17	227.53
858.48	227.50
858.79	227.45
859.11	227.47
859.42	227.45
859.73	227.44
860.04	227.42
860.35	227.37
860.66	227.32
860.98	227.33
861.29	227.34
861.60	227.34
861.91	227.35
862.22	227.35
862.53	227.33
862.84	227.19
863.16	227.24
863.47	227.22
863.78	227.19
864.09	227.21
864.40	227.24
864.71	227.25
865.02	227.25
865.33	227.25
865.64	227.21
865.95	227.24
866.27	227.30
866.58	227.30
866.89	227.32
867.20	227.33
867.51	227.28
867.82	227.28
868.13	227.31
868.44	227.31
868.75	227.30
869.06	227.32
869.37	227.33
869.68	227.31
869.99	227.29
870.30	227.33
870.61	227.34
870.92	227.31
871.23	227.33
871.54	227.38
871.85	227.36
872.16	227.38
872.47	227.38
872.78	227.35
873.09	227.36
873.40	227.35
873.71	227.36
874.02	227.41
874.33	227.41
874.64	227.38
874.95	227.39
875.26	227.42
875.56	227.43
875.87	227.43
876.18	227.39
876.49	227.52
876.80	227.48
877.11	227.46
877.42	227.49
877.73	227.50
878.04	227.45
878.35	227.46
878.66	227.45
878.96	227.45
879.27	227.44
879.58	227.44
879.89	227.43
880.20	227.47
880.51	227.44
880.82	227.43
881.12	227.44
881.43	227.40
881.74	227.36
882.05	227.32
882.36	227.31
882.67	227.32
882.97	227.20
883.28	227.21
883.59	227.15
883.90	227.14
884.21	227.11
884.51	227.12
884.82	227.10
885.13	227.07
885.44	227.05
885.74	227.02
886.05	227.00
886.36	227.03
886.67	226.97
886.98	227.00
887.28	226.98
887.59	226.95
887.90	226.95
888.20	226.95
888.51	226.99
888.82	226.97
889.13	227.01
889.43	227.06
889.74	227.06
890.05	227.07
890.35	227.05
890.66	227.04
890.97	227.03
891.28	227.02
891.58	227.04
891.89	227.03
892.20	227.04
892.50	227.06
892.81	227.01
893.12	227.02
893.42	226.99
893.73	227.00
894.04	227.02
894.34	227.05
894.65	227.03
894.95	227.01
895.26	227.04
895.57	227.05
895.87	226.99
896.18	227.01
896.48	227.06
896.79	227.07
897.10	227.07
897.40	227.06
897.71	227.10
898.01	227.10
898.32	227.12
898.63	227.12
898.93	227.15
899.24	227.14
899.54	227.12
899.85	227.14
900.15	227.14
900.46	227.15
900.76	227.14
901.07	227.14
901.38	227.15
901.68	227.14
901.99	227.09
902.29	227.09
902.60	227.09
902.90	227.05
903.21	227.03
903.51	227.06
903.82	227.11
904.12	227.09
904.43	227.10
904.73	227.10
905.03	227.11
905.34	227.14
905.64	227.17
905.95	227.15
906.25	227.14
906.56	227.16
906.86	227.17
907.17	227.16
907.47	227.19
907.77	227.16
908.08	227.14
908.38	227.17
908.69	227.17
908.99	227.18
909.30	227.20
909.60	227.22
909.90	227.20
910.21	227.17
910.51	227.18
910.81	227.18
911.12	227.19
911.42	227.19
911.73	227.09
912.03	227.08
912.33	227.12
912.64	227.15
912.94	227.12
913.24	227.11
913.55	227.11
913.85	227.10
914.15	227.14
914.46	227.16
914.76	227.15
915.06	227.15
915.37	227.12
915.67	227.10
915.97	227.10
916.27	227.08
916.58	227.07
916.88	227.02
917.18	227.02
917.49	227.06
917.79	227.03
918.09	227.04
918.39	227.06
918.70	227.04
919.00	227.01
919.30	227.04
919.60	227.01
919.91	226.99
920.21	226.98
920.51	226.94
920.81	226.93
921.12	226.94
921.42	226.90
921.72	226.93
922.02	226.92
922.32	226.89
922.63	226.87
922.93	226.91
923.23	226.90
923.53	226.88
923.83	226.80
924.13	226.83
924.44	226.84
924.74	226.84
925.04	226.87
925.34	226.87
925.64	226.80
925.94	226.77
926.24	226.82
926.55	226.78
926.85	226.81
927.15	226.80
927.45	226.78
927.75	226.81
928.05	226.79
928.35	226.81
928.65	226.85
928.95	226.90
929.26	226.87
929.56	226.89
929.86	226.91
930.16	226.93
930.46	226.95
930.76	226.94
931.06	226.89
931.36	226.87
931.66	226.84
931.96	226.93
932.26	226.96
932.56	226.92
932.86	226.98
933.16	226.95
933.46	226.95
933.76	226.96
934.06	226.98
934.36	227.01
934.66	227.00
934.96	226.96
935.26	226.95
935.56	226.98
935.86	226.98
936.16	226.97
936.46	226.98
936.76	226.94
937.06	226.92
937.36	226.94
937.66	226.97
937.96	227.00
938.26	226.97
938.56	226.96
938.86	227.00
939.16	227.00
939.46	227.03
939.76	227.05
940.06	227.04
940.35	227.00
940.65	226.98
940.95	227.00
941.25	226.98
941.55	226.98
941.85	226.95
942.15	226.99
942.45	227.02
942.75	226.99
943.04	227.00
943.34	227.02
943.64	226.98
943.94	226.97
944.24	226.96
944.54	226.95
944.84	226.96
945.13	226.95
945.43	226.94
945.73	226.92
946.03	226.92
946.33	226.91
946.62	226.90
946.92	226.89
947.22	226.89
947.52	226.89
947.82	226.89
948.11	226.88
948.41	226.83
948.71	226.80
949.01	226.82
949.31	226.80
949.60	226.80
949.90	226.84
950.20	226.82
950.50	226.82
950.79	226.79
951.09	226.81
951.39	226.79
951.69	226.78
951.98	226.79
952.28	226.77
952.58	226.76
952.87	226.78
953.17	226.79
953.47	226.75
953.76	226.79
954.06	226.76
954.36	226.75
954.66	226.74
954.95	226.74
955.25	226.73
955.55	226.75
955.84	226.72
956.14	226.73
956.44	226.75
956.73	226.72
957.03	226.73
957.32	226.73
957.62	226.72
957.92	226.72
958.21	226.73
958.51	226.82
958.81	226.84
959.10	226.83
959.40	226.83
959.69	226.88
959.99	226.86
960.29	226.85
960.58	226.86
960.88	226.91
961.17	226.92
961.47	226.91
961.76	226.92
962.06	226.89
962.36	226.88
962.65	226.88
962.95	226.90
963.24	226.91
963.54	226.91
963.83	226.92
964.13	226.93
964.42	226.90
964.72	226.84
965.01	226.84
965.31	226.85
965.60	226.83
965.90	226.87
966.19	226.84
966.49	226.87
966.78	226.86
967.08	226.84
967.37	226.81
967.67	226.84
967.96	226.85
968.26	226.86
968.55	226.85
968.85	226.85
969.14	226.84
969.43	226.81
969.73	226.79
970.02	226.80
970.32	226.76
970.61	226.77
970.91	226.73
971.20	226.73
971.49	226.73
971.79	226.74
972.08	226.68
972.38	226.71
972.67	226.72
972.96	226.76
973.26	226.75
973.55	226.80
973.85	226.76
974.14	226.74
974.43	226.79
974.73	226.77
975.02	226.77
975.31	226.76
975.61	226.78
975.90	226.78
976.19	226.75
976.49	226.78
976.78	226.77
977.07	226.77
977.37	226.78
977.66	226.77
977.95	226.76
978.24	226.75
978.54	226.77
978.83	226.77
979.12	226.76
979.42	226.75
979.71	226.72
980.00	226.77
980.29	226.80
980.59	226.76
980.88	226.81
981.17	226.79
981.46	226.81
981.76	226.80
982.05	226.82
982.34	226.82
982.63	226.79
982.93	226.79
983.22	226.84
983.51	226.78
983.80	226.81
984.09	226.82
984.39	226.77
984.68	226.76
984.97	226.76
985.26	226.74
985.55	226.73
985.85	226.73
986.14	226.71
986.43	226.69
986.72	226.67
987.01	226.63
987.30	226.63
987.59	226.62
987.89	226.61
988.18	226.59
988.47	226.58
988.76	226.60
989.05	226.61
989.34	226.55
989.63	226.63
989.92	226.62
990.22	226.62
990.51	226.63
990.80	226.60
991.09	226.58
991.38	226.60
991.67	226.61
991.96	226.58
992.25	226.58
992.54	226.56
992.83	226.58
993.12	226.57
993.41	226.57
993.70	226.58
993.99	226.62
994.28	226.60
994.58	226.65
994.87	226.64
995.16	226.62
995.45	226.62
995.74	226.58
996.03	226.57
996.32	226.56
996.61	226.58
996.90	226.59
997.19	226.58
997.48	226.52
997.77	226.51
998.06	226.51
998.34	226.52
998.63	226.56
998.92	226.57
999.21	226.59
999.50	226.59
999.79	226.57
1000.08	226.56
1000.37	226.57
1000.66	226.55
1000.95	226.56
1001.24	226.59
1001.53	226.61
1001.82	226.60
1002.11	226.62
1002.40	226.65
1002.68	226.67
1002.97	226.73
1003.26	226.74
1003.55	226.77
1003.84	226.79
1004.13	226.82
1004.42	226.81
1004.71	226.76
1004.99	226.75
1005.28	226.77
1005.57	226.80
1005.86	226.82
1006.15	226.83
1006.44	226.83
1006.72	226.83
1007.01	226.80
1007.30	226.78
1007.59	226.79
1007.88	226.78
1008.17	226.79
1008.45	226.78
1008.74	226.78
1009.03	226.75
1009.32	226.77
1009.60	226.78
1009.89	226.76
1010.18	226.73
1010.47	226.74
1010.76	226.77
1011.04	226.76
1011.33	226.79
1011.62	226.75
1011.91	226.74
1012.19	226.72
1012.48	226.76
1012.77	226.76
1013.05	226.84
1013.34	226.88
1013.63	226.87
1013.92	226.88
1014.20	226.84
1014.49	226.81
1014.78	226.82
1015.06	226.78
1015.35	226.78
1015.64	226.76
1015.92	226.77
1016.21	226.78
1016.50	226.79
1016.78	226.78
1017.07	226.78
1017.36	226.74
1017.64	226.76
1017.93	226.79
1018.22	226.78
1018.50	226.75
1018.79	226.75
1019.08	226.73
1019.36	226.69
1019.65	226.69
1019.93	226.70
1020.22	226.73
1020.51	226.80
1020.79	226.78
1021.08	226.49
1021.36	226.53
1021.65	226.85
1021.94	227.35
1022.22	226.43
1022.51	226.93
1022.79	226.70
1023.08	226.93
1023.36	228.11
1023.65	226.62
>>>>>End Processed Spectral Data<<<<<
