SpectraSuite Data File
++++++++++++++++++++++++++++++++++++
Date: Fri Feb 01 15:14:26 EST 2013
User: group
Dark Spectrum Present: No
Reference Spectrum Present: No
Number of Sampled Component Spectra: 1
Spectrometers: USB2E7196
Integration Time (usec): 35000 (USB2E7196)
Spectra Averaged: 100 (USB2E7196)
Boxcar Smoothing: 10 (USB2E7196)
Correct for Electrical Dark: No (USB2E7196)
Strobe/Lamp Enabled: No (USB2E7196)
Correct for Detector Non-linearity: No (USB2E7196)
Correct for Stray Light: No (USB2E7196)
Number of Pixels in Processed Spectrum: 2048
>>>>>Begin Processed Spectral Data<<<<<
339.09	0.00
339.48	215.21
339.86	216.78
340.24	218.06
340.63	219.47
341.01	222.55
341.39	222.21
341.78	223.33
342.16	224.99
342.54	225.46
342.93	213.58
343.31	224.36
343.69	224.94
344.07	225.41
344.46	225.86
344.84	226.25
345.22	226.48
345.60	226.73
345.99	226.92
346.37	227.03
346.75	227.10
347.13	227.18
347.52	227.26
347.90	227.33
348.28	227.39
348.66	227.47
349.05	227.48
349.43	227.49
349.81	227.55
350.19	227.62
350.57	227.66
350.96	227.75
351.34	227.86
351.72	227.92
352.10	228.01
352.48	228.08
352.87	228.15
353.25	228.21
353.63	228.26
354.01	228.36
354.39	228.45
354.77	228.56
355.15	228.68
355.54	228.73
355.92	228.79
356.30	228.85
356.68	228.97
357.06	229.01
357.44	229.06
357.82	229.10
358.20	229.16
358.58	229.22
358.97	229.30
359.35	229.36
359.73	229.40
360.11	229.42
360.49	229.48
360.87	229.49
361.25	229.54
361.63	229.61
362.01	229.62
362.39	229.66
362.77	229.67
363.15	229.71
363.53	229.70
363.91	229.71
364.29	229.71
364.67	229.64
365.05	229.66
365.43	229.69
365.81	229.73
366.19	229.77
366.57	229.81
366.95	229.77
367.33	229.72
367.71	229.71
368.09	229.71
368.47	229.65
368.85	229.64
369.23	229.62
369.61	229.57
369.99	229.56
370.37	229.52
370.75	229.49
371.13	229.41
371.51	229.36
371.89	229.32
372.27	229.28
372.65	229.19
373.03	229.09
373.41	229.03
373.78	228.93
374.16	228.79
374.54	228.67
374.92	228.61
375.30	228.52
375.68	228.44
376.06	228.37
376.44	228.32
376.82	228.23
377.19	228.14
377.57	228.04
377.95	227.94
378.33	227.84
378.71	227.72
379.09	227.64
379.47	227.60
379.84	227.46
380.22	227.35
380.60	227.28
380.98	227.23
381.36	227.17
381.73	227.10
382.11	227.07
382.49	226.99
382.87	226.90
383.25	226.82
383.62	226.88
384.00	226.78
384.38	226.70
384.76	226.67
385.13	226.64
385.51	226.60
385.89	226.49
386.27	226.48
386.64	226.45
387.02	226.39
387.40	226.32
387.78	226.35
388.15	226.32
388.53	226.28
388.91	226.26
389.29	226.18
389.66	226.15
390.04	226.10
390.42	226.12
390.79	226.13
391.17	226.14
391.55	226.02
391.92	226.03
392.30	226.03
392.68	225.99
393.05	226.00
393.43	226.02
393.81	226.08
394.18	226.05
394.56	226.08
394.94	226.11
395.31	226.13
395.69	226.19
396.06	226.29
396.44	226.33
396.82	226.36
397.19	226.48
397.57	226.55
397.95	226.65
398.32	226.67
398.70	226.74
399.07	226.84
399.45	226.90
399.82	227.01
400.20	227.10
400.58	227.21
400.95	227.27
401.33	227.39
401.70	227.56
402.08	227.70
402.45	227.79
402.83	227.92
403.20	228.06
403.58	228.15
403.95	228.29
404.33	228.44
404.71	228.59
405.08	228.76
405.46	228.89
405.83	229.03
406.21	229.20
406.58	229.38
406.96	229.55
407.33	229.76
407.70	229.94
408.08	230.23
408.45	230.45
408.83	230.74
409.20	230.95
409.58	231.15
409.95	231.42
410.33	231.72
410.70	231.98
411.08	232.31
411.45	232.63
411.82	232.92
412.20	233.33
412.57	233.76
412.95	234.06
413.32	234.49
413.69	234.96
414.07	235.43
414.44	235.87
414.82	236.35
415.19	236.90
415.56	237.47
415.94	238.01
416.31	238.67
416.68	239.28
417.06	239.97
417.43	240.63
417.81	241.42
418.18	242.20
418.55	243.03
418.93	243.92
419.30	244.84
419.67	245.77
420.04	246.67
420.42	247.64
420.79	248.83
421.16	249.98
421.54	251.13
421.91	252.32
422.28	253.59
422.66	254.91
423.03	256.23
423.40	257.54
423.77	258.95
424.15	260.33
424.52	261.81
424.89	263.44
425.26	264.98
425.64	266.40
426.01	267.99
426.38	269.63
426.75	271.26
427.13	272.97
427.50	274.79
427.87	276.64
428.24	278.54
428.61	280.27
428.99	282.19
429.36	284.29
429.73	286.37
430.10	288.38
430.47	290.44
430.85	292.51
431.22	294.75
431.59	297.11
431.96	299.37
432.33	301.84
432.70	304.20
433.08	307.03
433.45	309.69
433.82	312.33
434.19	315.27
434.56	318.11
434.93	320.75
435.30	323.37
435.68	326.28
436.05	329.09
436.42	331.91
436.79	334.40
437.16	337.11
437.53	339.91
437.90	342.73
438.27	345.48
438.64	348.33
439.01	350.96
439.38	353.23
439.75	355.40
440.13	357.88
440.50	360.19
440.87	362.07
441.24	364.00
441.61	366.17
441.98	367.64
442.35	369.42
442.72	371.28
443.09	373.11
443.46	374.12
443.83	374.73
444.20	375.22
444.57	376.11
444.94	376.36
445.31	376.76
445.68	377.09
446.05	377.17
446.42	376.82
446.79	376.38
447.16	375.93
447.53	375.61
447.90	374.45
448.27	373.34
448.64	371.76
449.01	370.63
449.37	368.59
449.74	366.65
450.11	364.39
450.48	361.92
450.85	359.35
451.22	357.23
451.59	355.19
451.96	353.29
452.33	350.69
452.70	348.37
453.07	345.51
453.43	342.61
453.80	339.85
454.17	337.14
454.54	334.57
454.91	331.83
455.28	329.14
455.65	326.66
456.02	324.21
456.38	322.06
456.75	319.41
457.12	317.20
457.49	315.05
457.86	312.86
458.23	311.03
458.59	309.01
458.96	306.91
459.33	305.07
459.70	303.16
460.07	301.61
460.43	299.85
460.80	298.24
461.17	296.82
461.54	295.33
461.91	293.92
462.27	292.47
462.64	291.22
463.01	289.87
463.38	288.55
463.74	287.18
464.11	285.99
464.48	284.96
464.85	283.83
465.21	282.92
465.58	282.03
465.95	280.88
466.32	279.94
466.68	279.01
467.05	278.10
467.42	277.21
467.78	276.31
468.15	275.42
468.52	274.75
468.88	273.87
469.25	273.09
469.62	272.46
469.98	271.78
470.35	271.16
470.72	270.58
471.08	269.94
471.45	269.40
471.82	268.83
472.18	268.18
472.55	267.74
472.92	267.22
473.28	266.75
473.65	266.32
474.02	265.86
474.38	265.44
474.75	265.08
475.11	264.67
475.48	264.39
475.85	264.15
476.21	263.87
476.58	263.67
476.94	263.47
477.31	263.29
477.67	263.11
478.04	262.95
478.41	262.88
478.77	262.89
479.14	262.80
479.50	262.79
479.87	262.88
480.23	262.92
480.60	262.96
480.96	263.01
481.33	263.20
481.69	263.37
482.06	263.58
482.42	263.81
482.79	264.10
483.15	264.41
483.52	264.77
483.88	265.11
484.25	265.48
484.61	265.96
484.98	266.39
485.34	267.00
485.71	267.60
486.07	268.15
486.44	268.72
486.80	269.42
487.17	270.15
487.53	270.93
487.90	271.81
488.26	272.75
488.62	273.76
488.99	274.71
489.35	275.77
489.72	276.90
490.08	278.07
490.44	279.29
490.81	280.63
491.17	281.98
491.54	283.49
491.90	285.05
492.26	286.65
492.63	288.36
492.99	290.11
493.36	291.98
493.72	294.06
494.08	296.14
494.45	298.38
494.81	300.73
495.17	303.17
495.54	305.71
495.90	308.37
496.26	311.19
496.63	314.13
496.99	317.20
497.35	320.41
497.72	323.84
498.08	327.32
498.44	330.98
498.80	334.93
499.17	338.92
499.53	343.08
499.89	347.47
500.26	352.02
500.62	356.67
500.98	361.69
501.34	366.78
501.71	372.17
502.07	377.61
502.43	383.26
502.79	389.10
503.16	395.21
503.52	401.49
503.88	407.83
504.24	414.43
504.60	421.46
504.97	428.63
505.33	435.92
505.69	443.66
506.05	451.44
506.41	459.26
506.78	467.50
507.14	476.04
507.50	484.76
507.86	493.77
508.22	503.03
508.59	512.16
508.95	521.77
509.31	531.52
509.67	541.59
510.03	551.80
510.39	562.35
510.75	573.11
511.12	584.11
511.48	595.40
511.84	606.91
512.20	618.36
512.56	630.34
512.92	642.63
513.28	654.94
513.64	667.40
514.00	680.13
514.37	693.05
514.73	706.01
515.09	719.03
515.45	732.35
515.81	745.85
516.17	759.87
516.53	773.96
516.89	788.20
517.25	802.46
517.61	817.00
517.97	831.52
518.33	845.96
518.69	860.64
519.05	875.62
519.41	890.78
519.77	906.30
520.13	921.76
520.49	937.12
520.85	952.62
521.21	968.30
521.57	984.60
521.93	1000.46
522.29	1016.89
522.65	1033.19
523.01	1049.41
523.37	1065.55
523.73	1081.73
524.09	1097.85
524.45	1114.15
524.81	1130.83
525.17	1147.70
525.53	1164.67
525.89	1181.52
526.25	1198.51
526.61	1215.08
526.97	1231.88
527.33	1248.41
527.68	1264.99
528.04	1281.48
528.40	1298.17
528.76	1315.31
529.12	1332.00
529.48	1348.76
529.84	1364.88
530.20	1381.62
530.56	1398.66
530.91	1416.08
531.27	1432.87
531.63	1449.47
531.99	1466.12
532.35	1482.01
532.71	1497.96
533.07	1514.19
533.42	1530.19
533.78	1546.30
534.14	1562.74
534.50	1578.06
534.86	1594.01
535.21	1609.18
535.57	1625.17
535.93	1640.64
536.29	1655.54
536.65	1670.69
537.00	1685.70
537.36	1700.99
537.72	1715.52
538.08	1730.02
538.44	1744.02
538.79	1758.02
539.15	1771.86
539.51	1785.68
539.87	1800.20
540.22	1814.06
540.58	1828.02
540.94	1841.54
541.29	1854.53
541.65	1867.12
542.01	1880.55
542.37	1892.92
542.72	1905.54
543.08	1917.49
543.44	1929.96
543.79	1941.19
544.15	1952.12
544.51	1963.69
544.87	1974.78
545.22	1985.62
545.58	1995.91
545.94	2005.62
546.29	2015.60
546.65	2025.28
547.01	2034.64
547.36	2043.43
547.72	2051.78
548.07	2059.52
548.43	2067.67
548.79	2075.75
549.14	2083.30
549.50	2090.69
549.86	2098.58
550.21	2105.95
550.57	2113.08
550.92	2119.73
551.28	2126.87
551.64	2134.12
551.99	2140.66
552.35	2146.71
552.70	2152.85
553.06	2158.78
553.41	2165.26
553.77	2171.28
554.13	2177.49
554.48	2183.55
554.84	2188.91
555.19	2194.32
555.55	2199.54
555.90	2203.95
556.26	2208.70
556.61	2213.47
556.97	2217.57
557.32	2221.69
557.68	2225.83
558.03	2230.06
558.39	2233.83
558.74	2238.36
559.10	2242.08
559.45	2245.72
559.81	2250.17
560.16	2254.10
560.52	2257.40
560.87	2260.76
561.23	2263.33
561.58	2266.24
561.94	2268.72
562.29	2271.17
562.64	2273.84
563.00	2276.47
563.35	2280.04
563.71	2283.20
564.06	2286.34
564.42	2289.22
564.77	2291.50
565.12	2293.59
565.48	2295.49
565.83	2297.01
566.19	2298.34
566.54	2299.37
566.89	2300.37
567.25	2300.80
567.60	2302.16
567.96	2303.59
568.31	2304.41
568.66	2305.35
569.02	2305.78
569.37	2305.98
569.72	2306.80
570.08	2306.74
570.43	2306.56
570.78	2305.79
571.14	2304.20
571.49	2302.83
571.84	2302.50
572.20	2301.22
572.55	2300.08
572.90	2298.52
573.26	2297.25
573.61	2295.38
573.96	2293.32
574.31	2290.31
574.67	2287.22
575.02	2283.28
575.37	2279.91
575.72	2275.73
576.08	2272.41
576.43	2269.05
576.78	2265.30
577.13	2262.11
577.49	2258.89
577.84	2255.33
578.19	2251.51
578.54	2247.67
578.90	2243.31
579.25	2237.69
579.60	2232.68
579.95	2227.68
580.30	2222.56
580.66	2217.36
581.01	2212.38
581.36	2207.39
581.71	2203.14
582.06	2198.60
582.42	2194.12
582.77	2188.85
583.12	2184.32
583.47	2179.44
583.82	2174.23
584.17	2168.91
584.53	2163.22
584.88	2157.61
585.23	2151.77
585.58	2146.27
585.93	2140.83
586.28	2136.07
586.63	2130.79
586.98	2125.72
587.34	2121.04
587.69	2116.01
588.04	2110.61
588.39	2104.91
588.74	2098.35
589.09	2092.18
589.44	2085.10
589.79	2079.04
590.14	2073.35
590.49	2066.73
590.84	2060.40
591.19	2054.42
591.54	2047.82
591.89	2040.17
592.25	2033.27
592.60	2025.92
592.95	2018.29
593.30	2010.84
593.65	2003.10
594.00	1996.10
594.35	1988.79
594.70	1980.67
595.05	1973.33
595.40	1965.94
595.75	1958.27
596.10	1951.93
596.45	1944.87
596.80	1938.90
597.15	1932.19
597.50	1924.93
597.85	1918.52
598.19	1911.59
598.54	1904.38
598.89	1897.91
599.24	1892.15
599.59	1885.22
599.94	1879.12
600.29	1872.79
600.64	1866.14
600.99	1858.57
601.34	1851.57
601.69	1844.47
602.04	1837.32
602.39	1829.89
602.74	1823.07
603.08	1816.42
603.43	1809.72
603.78	1802.60
604.13	1795.25
604.48	1787.85
604.83	1781.07
605.18	1773.87
605.53	1765.96
605.87	1757.90
606.22	1750.51
606.57	1742.58
606.92	1735.37
607.27	1727.94
607.62	1720.88
607.96	1713.55
608.31	1706.84
608.66	1699.28
609.01	1691.82
609.36	1684.33
609.70	1676.28
610.05	1668.05
610.40	1660.15
610.75	1651.84
611.10	1644.10
611.44	1635.73
611.79	1627.75
612.14	1618.95
612.49	1609.93
612.83	1601.52
613.18	1593.46
613.53	1585.43
613.88	1576.71
614.22	1568.46
614.57	1560.00
614.92	1551.95
615.27	1544.39
615.61	1536.13
615.96	1528.12
616.31	1520.39
616.65	1513.00
617.00	1505.54
617.35	1498.01
617.70	1489.74
618.04	1481.19
618.39	1472.97
618.74	1465.37
619.08	1457.16
619.43	1449.61
619.78	1442.73
620.12	1435.64
620.47	1428.11
620.82	1419.83
621.16	1412.55
621.51	1404.94
621.85	1397.37
622.20	1388.86
622.55	1380.58
622.89	1372.76
623.24	1365.08
623.59	1357.75
623.93	1350.26
624.28	1343.09
624.62	1335.52
624.97	1328.34
625.32	1321.62
625.66	1314.59
626.01	1307.39
626.35	1299.91
626.70	1292.18
627.04	1284.40
627.39	1276.65
627.73	1269.28
628.08	1262.35
628.43	1254.99
628.77	1247.58
629.12	1239.93
629.46	1232.82
629.81	1225.36
630.15	1218.12
630.50	1210.82
630.84	1202.67
631.19	1194.91
631.53	1187.40
631.88	1179.85
632.22	1172.40
632.57	1165.16
632.91	1157.56
633.26	1150.12
633.60	1142.81
633.95	1135.71
634.29	1128.66
634.64	1121.90
634.98	1114.53
635.32	1107.52
635.67	1101.04
636.01	1094.49
636.36	1087.81
636.70	1081.34
637.05	1074.80
637.39	1068.44
637.73	1061.94
638.08	1056.21
638.42	1050.09
638.77	1043.66
639.11	1037.10
639.45	1030.67
639.80	1024.03
640.14	1017.75
640.49	1011.31
640.83	1004.98
641.17	998.78
641.52	992.53
641.86	986.22
642.20	980.47
642.55	974.25
642.89	967.66
643.23	961.14
643.58	955.28
643.92	949.03
644.26	942.98
644.61	936.99
644.95	930.97
645.29	924.24
645.64	917.50
645.98	911.20
646.32	905.46
646.66	899.46
647.01	893.70
647.35	887.97
647.69	882.24
648.04	876.76
648.38	871.07
648.72	865.05
649.06	858.97
649.41	853.02
649.75	846.92
650.09	841.03
650.43	835.19
650.78	829.12
651.12	823.16
651.46	817.40
651.80	811.60
652.14	806.17
652.49	800.81
652.83	795.70
653.17	789.95
653.51	784.18
653.85	778.76
654.20	773.01
654.54	766.96
654.88	761.14
655.22	755.25
655.56	749.46
655.90	744.04
656.25	738.75
656.59	733.33
656.93	728.24
657.27	723.08
657.61	717.67
657.95	712.52
658.29	707.48
658.64	702.28
658.98	696.95
659.32	691.43
659.66	686.25
660.00	680.89
660.34	675.99
660.68	671.07
661.02	665.98
661.36	661.30
661.70	656.91
662.05	652.57
662.39	648.21
662.73	643.76
663.07	639.37
663.41	634.97
663.75	630.49
664.09	625.94
664.43	621.60
664.77	617.49
665.11	613.23
665.45	609.06
665.79	604.98
666.13	600.88
666.47	596.91
666.81	592.75
667.15	588.68
667.49	584.81
667.83	581.08
668.17	577.18
668.51	573.18
668.85	569.12
669.19	565.26
669.53	561.43
669.87	557.56
670.21	553.86
670.55	550.23
670.89	546.86
671.23	543.46
671.57	539.99
671.91	536.45
672.25	533.04
672.58	529.60
672.92	526.25
673.26	523.16
673.60	520.04
673.94	516.91
674.28	514.06
674.62	511.08
674.96	507.93
675.30	505.06
675.64	502.16
675.97	499.44
676.31	496.62
676.65	493.72
676.99	491.05
677.33	488.27
677.67	485.41
678.01	482.40
678.34	479.47
678.68	476.54
679.02	473.79
679.36	471.01
679.70	468.32
680.04	465.57
680.37	462.65
680.71	459.86
681.05	457.30
681.39	454.61
681.73	452.06
682.06	449.56
682.40	447.06
682.74	444.55
683.08	442.01
683.42	439.48
683.75	437.00
684.09	434.47
684.43	431.98
684.77	429.58
685.10	427.26
685.44	424.97
685.78	422.74
686.12	420.52
686.45	418.32
686.79	416.04
687.13	413.87
687.46	411.76
687.80	409.64
688.14	407.46
688.48	405.36
688.81	403.07
689.15	400.94
689.49	398.81
689.82	396.72
690.16	394.65
690.50	392.61
690.83	390.71
691.17	388.74
691.51	386.80
691.84	385.01
692.18	383.06
692.52	381.04
692.85	379.09
693.19	377.20
693.52	375.37
693.86	373.55
694.20	371.72
694.53	369.94
694.87	368.10
695.21	366.28
695.54	364.48
695.88	362.75
696.21	361.03
696.55	359.29
696.88	357.64
697.22	355.98
697.56	354.38
697.89	352.67
698.23	351.03
698.56	349.46
698.90	347.84
699.23	346.15
699.57	344.63
699.90	343.08
700.24	341.52
700.58	339.96
700.91	338.41
701.25	336.96
701.58	335.60
701.92	334.23
702.25	332.86
702.59	331.47
702.92	330.13
703.26	328.83
703.59	327.55
703.93	326.34
704.26	325.13
704.60	323.83
704.93	322.61
705.26	321.37
705.60	320.21
705.93	319.04
706.27	318.03
706.60	316.98
706.94	315.94
707.27	314.82
707.61	313.74
707.94	312.74
708.27	311.65
708.61	310.49
708.94	309.44
709.28	308.45
709.61	307.49
709.94	306.50
710.28	305.45
710.61	304.49
710.95	303.41
711.28	302.49
711.61	301.56
711.95	300.68
712.28	299.77
712.61	298.75
712.95	297.83
713.28	296.97
713.61	296.04
713.95	295.15
714.28	294.33
714.61	293.50
714.95	292.67
715.28	291.79
715.61	291.00
715.95	290.19
716.28	289.35
716.61	288.56
716.95	287.78
717.28	287.08
717.61	286.31
717.94	285.59
718.28	284.79
718.61	284.13
718.94	283.39
719.27	282.73
719.61	282.12
719.94	281.47
720.27	280.77
720.60	280.13
720.94	279.54
721.27	278.96
721.60	278.40
721.93	277.82
722.27	277.30
722.60	276.76
722.93	276.19
723.26	275.66
723.59	275.10
723.93	274.57
724.26	274.01
724.59	273.52
724.92	273.01
725.25	272.54
725.59	271.97
725.92	271.48
726.25	270.97
726.58	270.48
726.91	270.00
727.24	269.52
727.57	269.06
727.91	268.55
728.24	268.08
728.57	267.58
728.90	267.15
729.23	266.65
729.56	266.19
729.89	265.74
730.22	265.27
730.55	264.84
730.89	264.38
731.22	263.96
731.55	263.49
731.88	263.06
732.21	262.61
732.54	262.17
732.87	261.75
733.20	261.37
733.53	260.97
733.86	260.59
734.19	260.18
734.52	259.81
734.85	259.51
735.18	259.08
735.51	258.70
735.84	258.32
736.17	257.95
736.50	257.57
736.83	257.31
737.16	256.95
737.49	256.57
737.82	256.24
738.15	255.90
738.48	255.58
738.81	255.26
739.14	254.93
739.47	254.63
739.80	254.30
740.13	253.99
740.46	253.62
740.79	253.28
741.12	252.99
741.45	252.63
741.78	252.25
742.11	251.98
742.44	251.65
742.77	251.34
743.10	251.04
743.43	250.72
743.75	250.36
744.08	250.22
744.41	249.93
744.74	249.64
745.07	249.36
745.40	249.09
745.73	248.84
746.06	248.52
746.39	248.27
746.71	248.01
747.04	247.73
747.37	247.49
747.70	247.27
748.03	246.99
748.36	246.81
748.68	246.55
749.01	246.29
749.34	246.07
749.67	245.82
750.00	245.56
750.33	245.40
750.65	245.15
750.98	244.80
751.31	244.58
751.64	244.36
751.97	244.17
752.29	243.97
752.62	243.72
752.95	243.58
753.28	243.35
753.60	243.12
753.93	242.93
754.26	242.76
754.59	242.54
754.91	242.37
755.24	242.15
755.57	241.98
755.90	241.82
756.22	241.66
756.55	241.47
756.88	241.32
757.20	241.08
757.53	240.91
757.86	240.74
758.19	240.59
758.51	240.43
758.84	240.24
759.17	240.07
759.49	239.92
759.82	239.79
760.15	239.65
760.47	239.53
760.80	239.41
761.13	239.28
761.45	239.15
761.78	238.99
762.11	238.89
762.43	238.74
762.76	238.59
763.08	238.43
763.41	238.28
763.74	238.14
764.06	238.04
764.39	237.91
764.71	237.77
765.04	237.66
765.37	237.54
765.69	237.40
766.02	237.28
766.34	237.17
766.67	236.98
767.00	236.91
767.32	236.86
767.65	236.78
767.97	236.66
768.30	236.54
768.62	236.45
768.95	236.30
769.27	236.19
769.60	236.09
769.92	236.02
770.25	235.96
770.57	235.85
770.90	235.75
771.22	235.62
771.55	235.53
771.87	235.44
772.20	235.33
772.52	235.33
772.85	235.33
773.17	235.25
773.50	235.16
773.82	235.05
774.15	234.88
774.47	234.71
774.80	234.60
775.12	234.51
775.45	234.38
775.77	234.30
776.09	234.24
776.42	234.17
776.74	234.11
777.07	234.01
777.39	233.94
777.72	233.85
778.04	233.79
778.36	233.71
778.69	233.63
779.01	233.57
779.33	233.43
779.66	233.28
779.98	233.18
780.31	233.09
780.63	233.05
780.95	233.00
781.28	232.92
781.60	232.86
781.92	232.80
782.25	232.74
782.57	232.64
782.89	232.56
783.22	232.49
783.54	232.36
783.86	232.29
784.19	232.24
784.51	232.21
784.83	232.15
785.16	232.08
785.48	231.99
785.80	231.94
786.12	231.88
786.45	231.82
786.77	231.77
787.09	231.75
787.42	231.64
787.74	231.59
788.06	231.58
788.38	231.51
788.71	231.44
789.03	231.41
789.35	231.39
789.67	231.33
789.99	231.28
790.32	231.24
790.64	231.23
790.96	231.22
791.28	231.17
791.61	231.14
791.93	231.13
792.25	231.11
792.57	231.13
792.89	231.06
793.21	231.04
793.54	231.00
793.86	230.97
794.18	230.96
794.50	230.91
794.82	230.89
795.14	230.89
795.47	230.86
795.79	230.83
796.11	230.79
796.43	230.75
796.75	230.74
797.07	230.74
797.39	230.68
797.71	230.62
798.04	230.59
798.36	230.59
798.68	230.56
799.00	230.55
799.32	230.47
799.64	230.49
799.96	230.46
800.28	230.46
800.60	230.43
800.92	230.42
801.24	230.40
801.56	230.38
801.89	230.34
802.21	230.36
802.53	230.33
802.85	230.34
803.17	230.37
803.49	230.32
803.81	230.29
804.13	230.27
804.45	230.26
804.77	230.23
805.09	230.19
805.41	230.18
805.73	230.16
806.05	230.10
806.37	230.08
806.69	230.05
807.01	230.04
807.33	230.04
807.65	230.01
807.97	230.04
808.28	230.01
808.60	229.99
808.92	229.95
809.24	229.98
809.56	229.93
809.88	229.87
810.20	229.85
810.52	229.87
810.84	229.83
811.16	229.77
811.48	229.75
811.80	229.75
812.12	229.73
812.43	229.70
812.75	229.67
813.07	229.62
813.39	229.59
813.71	229.55
814.03	229.49
814.35	229.47
814.67	229.40
814.98	229.36
815.30	229.31
815.62	229.29
815.94	229.21
816.26	229.24
816.58	229.20
816.89	229.20
817.21	229.11
817.53	229.11
817.85	229.11
818.17	229.09
818.48	229.02
818.80	228.99
819.12	228.98
819.44	228.96
819.76	228.94
820.07	228.91
820.39	228.88
820.71	228.86
821.03	228.83
821.34	228.79
821.66	228.79
821.98	228.81
822.30	228.75
822.61	228.76
822.93	228.69
823.25	228.67
823.57	228.64
823.88	228.65
824.20	228.61
824.52	228.60
824.83	228.55
825.15	228.52
825.47	228.48
825.79	228.46
826.10	228.44
826.42	228.42
826.74	228.40
827.05	228.36
827.37	228.32
827.69	228.27
828.00	228.25
828.32	228.22
828.64	228.16
828.95	228.21
829.27	228.17
829.58	228.16
829.90	228.14
830.22	228.11
830.53	228.05
830.85	228.04
831.17	227.98
831.48	227.97
831.80	227.96
832.11	227.94
832.43	227.88
832.75	227.87
833.06	227.92
833.38	227.89
833.69	227.88
834.01	227.89
834.32	227.88
834.64	227.86
834.96	227.85
835.27	227.84
835.59	227.81
835.90	227.80
836.22	227.76
836.53	227.78
836.85	227.77
837.16	227.86
837.48	227.84
837.79	227.87
838.11	227.87
838.42	227.89
838.74	227.95
839.05	227.97
839.37	227.94
839.68	227.88
840.00	227.90
840.31	227.95
840.63	227.96
840.94	227.99
841.26	227.99
841.57	227.97
841.88	228.00
842.20	228.00
842.51	228.01
842.83	228.03
843.14	228.12
843.46	228.13
843.77	228.13
844.08	228.16
844.40	228.17
844.71	228.19
845.03	228.18
845.34	228.16
845.65	228.19
845.97	228.20
846.28	228.21
846.60	228.22
846.91	228.21
847.22	228.18
847.54	228.20
847.85	228.21
848.16	228.20
848.48	228.22
848.79	228.27
849.10	228.29
849.42	228.29
849.73	228.18
850.04	228.19
850.36	228.09
850.67	228.11
850.98	228.10
851.30	228.09
851.61	228.09
851.92	228.07
852.23	228.08
852.55	228.10
852.86	228.09
853.17	228.09
853.49	228.10
853.80	228.10
854.11	228.11
854.42	228.15
854.74	228.14
855.05	228.10
855.36	227.99
855.67	227.95
855.99	227.98
856.30	228.09
856.61	228.06
856.92	228.06
857.23	228.04
857.55	228.01
857.86	228.00
858.17	228.00
858.48	227.98
858.79	227.95
859.11	227.91
859.42	227.91
859.73	227.85
860.04	227.83
860.35	227.79
860.66	227.76
860.98	227.67
861.29	227.67
861.60	227.65
861.91	227.67
862.22	227.68
862.53	227.61
862.84	227.48
863.16	227.47
863.47	227.46
863.78	227.43
864.09	227.43
864.40	227.41
864.71	227.40
865.02	227.40
865.33	227.39
865.64	227.34
865.95	227.34
866.27	227.39
866.58	227.36
866.89	227.37
867.20	227.32
867.51	227.31
867.82	227.29
868.13	227.30
868.44	227.28
868.75	227.28
869.06	227.27
869.37	227.24
869.68	227.23
869.99	227.26
870.30	227.23
870.61	227.21
870.92	227.20
871.23	227.16
871.54	227.18
871.85	227.19
872.16	227.23
872.47	227.18
872.78	227.09
873.09	227.11
873.40	227.11
873.71	227.14
874.02	227.18
874.33	227.21
874.64	227.18
874.95	227.20
875.26	227.17
875.56	227.19
875.87	227.19
876.18	227.20
876.49	227.27
876.80	227.28
877.11	227.30
877.42	227.34
877.73	227.41
878.04	227.40
878.35	227.42
878.66	227.41
878.96	227.44
879.27	227.49
879.58	227.48
879.89	227.48
880.20	227.49
880.51	227.49
880.82	227.46
881.12	227.49
881.43	227.45
881.74	227.48
882.05	227.50
882.36	227.52
882.67	227.50
882.97	227.45
883.28	227.46
883.59	227.47
883.90	227.46
884.21	227.45
884.51	227.47
884.82	227.44
885.13	227.46
885.44	227.45
885.74	227.47
886.05	227.48
886.36	227.50
886.67	227.51
886.98	227.56
887.28	227.61
887.59	227.64
887.90	227.67
888.20	227.69
888.51	227.68
888.82	227.67
889.13	227.70
889.43	227.76
889.74	227.76
890.05	227.76
890.35	227.73
890.66	227.70
890.97	227.66
891.28	227.67
891.58	227.64
891.89	227.66
892.20	227.65
892.50	227.66
892.81	227.66
893.12	227.62
893.42	227.58
893.73	227.57
894.04	227.56
894.34	227.61
894.65	227.57
894.95	227.58
895.26	227.57
895.57	227.59
895.87	227.54
896.18	227.54
896.48	227.52
896.79	227.50
897.10	227.50
897.40	227.48
897.71	227.48
898.01	227.50
898.32	227.48
898.63	227.47
898.93	227.45
899.24	227.43
899.54	227.44
899.85	227.43
900.15	227.38
900.46	227.36
900.76	227.32
901.07	227.28
901.38	227.27
901.68	227.32
901.99	227.25
902.29	227.22
902.60	227.19
902.90	227.16
903.21	227.16
903.51	227.15
903.82	227.17
904.12	227.14
904.43	227.11
904.73	227.09
905.03	227.11
905.34	227.18
905.64	227.17
905.95	227.16
906.25	227.16
906.56	227.16
906.86	227.15
907.17	227.14
907.47	227.17
907.77	227.13
908.08	227.07
908.38	227.06
908.69	227.08
908.99	227.10
909.30	227.11
909.60	227.11
909.90	227.10
910.21	227.09
910.51	227.09
910.81	227.08
911.12	227.08
911.42	227.05
911.73	226.95
912.03	226.92
912.33	226.93
912.64	226.89
912.94	226.91
913.24	226.91
913.55	226.92
913.85	226.93
914.15	226.98
914.46	226.99
914.76	226.99
915.06	226.97
915.37	226.97
915.67	226.96
915.97	226.98
916.27	226.96
916.58	226.98
916.88	227.00
917.18	227.01
917.49	227.08
917.79	227.07
918.09	227.12
918.39	227.18
918.70	227.20
919.00	227.24
919.30	227.26
919.60	227.25
919.91	227.23
920.21	227.22
920.51	227.21
920.81	227.24
921.12	227.28
921.42	227.29
921.72	227.29
922.02	227.34
922.32	227.36
922.63	227.39
922.93	227.47
923.23	227.46
923.53	227.49
923.83	227.44
924.13	227.48
924.44	227.48
924.74	227.49
925.04	227.52
925.34	227.54
925.64	227.50
925.94	227.53
926.24	227.61
926.55	227.61
926.85	227.66
927.15	227.66
927.45	227.66
927.75	227.68
928.05	227.72
928.35	227.71
928.65	227.72
928.95	227.76
929.26	227.71
929.56	227.73
929.86	227.73
930.16	227.75
930.46	227.73
930.76	227.73
931.06	227.72
931.36	227.70
931.66	227.70
931.96	227.72
932.26	227.72
932.56	227.65
932.86	227.68
933.16	227.66
933.46	227.65
933.76	227.63
934.06	227.63
934.36	227.63
934.66	227.63
934.96	227.62
935.26	227.60
935.56	227.63
935.86	227.59
936.16	227.57
936.46	227.55
936.76	227.51
937.06	227.51
937.36	227.48
937.66	227.47
937.96	227.44
938.26	227.42
938.56	227.41
938.86	227.40
939.16	227.42
939.46	227.40
939.76	227.36
940.06	227.35
940.35	227.31
940.65	227.23
940.95	227.23
941.25	227.20
941.55	227.17
941.85	227.11
942.15	227.13
942.45	227.16
942.75	227.11
943.04	227.12
943.34	227.10
943.64	227.10
943.94	227.05
944.24	227.04
944.54	227.05
944.84	227.00
945.13	226.99
945.43	226.96
945.73	226.94
946.03	226.91
946.33	226.91
946.62	226.90
946.92	226.88
947.22	226.88
947.52	226.87
947.82	226.88
948.11	226.87
948.41	226.86
948.71	226.79
949.01	226.83
949.31	226.81
949.60	226.81
949.90	226.83
950.20	226.86
950.50	226.85
950.79	226.85
951.09	226.91
951.39	226.91
951.69	226.88
951.98	226.91
952.28	226.95
952.58	226.95
952.87	226.93
953.17	226.97
953.47	226.98
953.76	226.96
954.06	226.95
954.36	226.96
954.66	226.95
954.95	227.00
955.25	227.00
955.55	227.01
955.84	226.95
956.14	226.96
956.44	226.95
956.73	226.93
957.03	226.93
957.32	226.90
957.62	226.88
957.92	226.94
958.21	226.96
958.51	227.04
958.81	227.04
959.10	227.09
959.40	227.10
959.69	227.09
959.99	227.12
960.29	227.11
960.58	227.12
960.88	227.15
961.17	227.12
961.47	227.15
961.76	227.15
962.06	227.21
962.36	227.19
962.65	227.21
962.95	227.26
963.24	227.26
963.54	227.27
963.83	227.30
964.13	227.26
964.42	227.21
964.72	227.16
965.01	227.19
965.31	227.16
965.60	227.13
965.90	227.18
966.19	227.15
966.49	227.19
966.78	227.17
967.08	227.19
967.37	227.21
967.67	227.20
967.96	227.23
968.26	227.22
968.55	227.21
968.85	227.21
969.14	227.20
969.43	227.20
969.73	227.18
970.02	227.18
970.32	227.17
970.61	227.19
970.91	227.15
971.20	227.10
971.49	227.11
971.79	227.14
972.08	227.09
972.38	227.08
972.67	227.07
972.96	227.09
973.26	227.09
973.55	227.10
973.85	227.06
974.14	227.02
974.43	227.03
974.73	227.01
975.02	227.02
975.31	227.00
975.61	226.99
975.90	227.00
976.19	226.96
976.49	226.95
976.78	226.97
977.07	226.97
977.37	226.98
977.66	226.98
977.95	226.96
978.24	226.96
978.54	226.98
978.83	226.96
979.12	226.93
979.42	226.90
979.71	226.87
980.00	226.88
980.29	226.91
980.59	226.87
980.88	226.90
981.17	226.89
981.46	226.89
981.76	226.87
982.05	226.88
982.34	226.90
982.63	226.92
982.93	226.90
983.22	226.92
983.51	226.91
983.80	226.95
984.09	226.95
984.39	226.91
984.68	226.89
984.97	226.88
985.26	226.87
985.55	226.88
985.85	226.86
986.14	226.88
986.43	226.88
986.72	226.91
987.01	226.85
987.30	226.84
987.59	226.86
987.89	226.85
988.18	226.85
988.47	226.83
988.76	226.82
989.05	226.83
989.34	226.82
989.63	226.89
989.92	226.85
990.22	226.88
990.51	226.90
990.80	226.93
991.09	226.94
991.38	226.97
991.67	226.97
991.96	226.99
992.25	226.99
992.54	226.97
992.83	226.97
993.12	227.00
993.41	227.05
993.70	227.10
993.99	227.15
994.28	227.20
994.58	227.24
994.87	227.23
995.16	227.26
995.45	227.26
995.74	227.22
996.03	227.24
996.32	227.25
996.61	227.28
996.90	227.28
997.19	227.27
997.48	227.27
997.77	227.31
998.06	227.32
998.34	227.33
998.63	227.36
998.92	227.39
999.21	227.42
999.50	227.40
999.79	227.36
1000.08	227.36
1000.37	227.34
1000.66	227.34
1000.95	227.35
1001.24	227.30
1001.53	227.33
1001.82	227.34
1002.11	227.32
1002.40	227.35
1002.68	227.38
1002.97	227.45
1003.26	227.47
1003.55	227.47
1003.84	227.45
1004.13	227.48
1004.42	227.48
1004.71	227.45
1004.99	227.43
1005.28	227.43
1005.57	227.43
1005.86	227.43
1006.15	227.42
1006.44	227.43
1006.72	227.43
1007.01	227.46
1007.30	227.50
1007.59	227.49
1007.88	227.49
1008.17	227.47
1008.45	227.44
1008.74	227.37
1009.03	227.31
1009.32	227.27
1009.60	227.27
1009.89	227.25
1010.18	227.19
1010.47	227.18
1010.76	227.18
1011.04	227.17
1011.33	227.18
1011.62	227.17
1011.91	227.17
1012.19	227.16
1012.48	227.12
1012.77	227.07
1013.05	227.08
1013.34	227.05
1013.63	227.03
1013.92	227.02
1014.20	227.01
1014.49	226.99
1014.78	227.01
1015.06	226.96
1015.35	226.99
1015.64	226.99
1015.92	227.00
1016.21	227.01
1016.50	226.97
1016.78	226.98
1017.07	226.99
1017.36	226.96
1017.64	226.94
1017.93	226.92
1018.22	226.90
1018.50	226.92
1018.79	226.92
1019.08	226.86
1019.36	226.83
1019.65	226.82
1019.93	226.86
1020.22	226.89
1020.51	226.94
1020.79	226.91
1021.08	226.67
1021.36	227.31
1021.65	226.28
1021.94	226.69
1022.22	226.44
1022.51	226.86
1022.79	227.63
1023.08	227.22
1023.36	228.18
1023.65	226.47
>>>>>End Processed Spectral Data<<<<<
