SpectraSuite Data File
++++++++++++++++++++++++++++++++++++
Date: Fri Feb 01 15:24:42 EST 2013
User: group
Dark Spectrum Present: No
Reference Spectrum Present: No
Number of Sampled Component Spectra: 1
Spectrometers: USB2E7196
Integration Time (usec): 35000 (USB2E7196)
Spectra Averaged: 100 (USB2E7196)
Boxcar Smoothing: 10 (USB2E7196)
Correct for Electrical Dark: No (USB2E7196)
Strobe/Lamp Enabled: No (USB2E7196)
Correct for Detector Non-linearity: No (USB2E7196)
Correct for Stray Light: No (USB2E7196)
Number of Pixels in Processed Spectrum: 2048
>>>>>Begin Processed Spectral Data<<<<<
339.09	0.00
339.48	215.36
339.86	217.22
340.24	217.80
340.63	219.86
341.01	222.65
341.39	222.45
341.78	223.72
342.16	225.00
342.54	225.83
342.93	213.67
343.31	224.46
343.69	225.00
344.07	225.42
344.46	225.87
344.84	226.23
345.22	226.47
345.60	226.71
345.99	226.85
346.37	227.00
346.75	227.06
347.13	227.09
347.52	227.16
347.90	227.23
348.28	227.24
348.66	227.28
349.05	227.28
349.43	227.31
349.81	227.35
350.19	227.38
350.57	227.42
350.96	227.49
351.34	227.56
351.72	227.67
352.10	227.76
352.48	227.82
352.87	227.87
353.25	227.92
353.63	227.99
354.01	228.07
354.39	228.12
354.77	228.20
355.15	228.32
355.54	228.36
355.92	228.40
356.30	228.50
356.68	228.61
357.06	228.68
357.44	228.73
357.82	228.84
358.20	228.91
358.58	228.97
358.97	229.03
359.35	229.11
359.73	229.17
360.11	229.22
360.49	229.27
360.87	229.33
361.25	229.40
361.63	229.46
362.01	229.50
362.39	229.51
362.77	229.56
363.15	229.59
363.53	229.63
363.91	229.67
364.29	229.67
364.67	229.59
365.05	229.64
365.43	229.65
365.81	229.64
366.19	229.70
366.57	229.73
366.95	229.74
367.33	229.71
367.71	229.69
368.09	229.70
368.47	229.67
368.85	229.65
369.23	229.61
369.61	229.56
369.99	229.58
370.37	229.56
370.75	229.59
371.13	229.54
371.51	229.46
371.89	229.42
372.27	229.38
372.65	229.32
373.03	229.25
373.41	229.18
373.78	229.11
374.16	228.99
374.54	228.92
374.92	228.84
375.30	228.78
375.68	228.68
376.06	228.64
376.44	228.55
376.82	228.46
377.19	228.37
377.57	228.30
377.95	228.15
378.33	228.07
378.71	227.91
379.09	227.83
379.47	227.81
379.84	227.74
380.22	227.66
380.60	227.58
380.98	227.51
381.36	227.45
381.73	227.40
382.11	227.36
382.49	227.26
382.87	227.18
383.25	227.09
383.62	227.15
384.00	227.05
384.38	227.01
384.76	227.00
385.13	226.98
385.51	226.91
385.89	226.86
386.27	226.81
386.64	226.83
387.02	226.79
387.40	226.71
387.78	226.67
388.15	226.62
388.53	226.59
388.91	226.56
389.29	226.52
389.66	226.51
390.04	226.48
390.42	226.49
390.79	226.49
391.17	226.51
391.55	226.41
391.92	226.42
392.30	226.44
392.68	226.40
393.05	226.38
393.43	226.40
393.81	226.41
394.18	226.40
394.56	226.40
394.94	226.41
395.31	226.43
395.69	226.48
396.06	226.52
396.44	226.55
396.82	226.56
397.19	226.64
397.57	226.65
397.95	226.69
398.32	226.72
398.70	226.79
399.07	226.87
399.45	226.92
399.82	226.97
400.20	227.04
400.58	227.11
400.95	227.19
401.33	227.28
401.70	227.45
402.08	227.57
402.45	227.66
402.83	227.79
403.20	227.88
403.58	227.96
403.95	228.14
404.33	228.28
404.71	228.41
405.08	228.60
405.46	228.74
405.83	228.95
406.21	229.12
406.58	229.30
406.96	229.44
407.33	229.62
407.70	229.83
408.08	230.10
408.45	230.31
408.83	230.53
409.20	230.75
409.58	230.94
409.95	231.20
410.33	231.46
410.70	231.72
411.08	232.07
411.45	232.39
411.82	232.68
412.20	233.04
412.57	233.48
412.95	233.77
413.32	234.19
413.69	234.59
414.07	235.02
414.44	235.47
414.82	236.00
415.19	236.57
415.56	237.14
415.94	237.67
416.31	238.36
416.68	239.00
417.06	239.75
417.43	240.42
417.81	241.22
418.18	242.01
418.55	242.85
418.93	243.70
419.30	244.60
419.67	245.53
420.04	246.50
420.42	247.50
420.79	248.70
421.16	249.85
421.54	251.03
421.91	252.23
422.28	253.51
422.66	254.82
423.03	256.09
423.40	257.45
423.77	258.90
424.15	260.33
424.52	261.79
424.89	263.37
425.26	264.95
425.64	266.40
426.01	268.03
426.38	269.70
426.75	271.39
427.13	273.09
427.50	274.93
427.87	276.81
428.24	278.64
428.61	280.38
428.99	282.36
429.36	284.48
429.73	286.56
430.10	288.56
430.47	290.62
430.85	292.76
431.22	294.98
431.59	297.32
431.96	299.53
432.33	302.08
432.70	304.46
433.08	307.28
433.45	309.90
433.82	312.48
434.19	315.37
434.56	318.18
434.93	320.85
435.30	323.46
435.68	326.34
436.05	329.25
436.42	332.06
436.79	334.56
437.16	337.23
437.53	340.12
437.90	342.94
438.27	345.66
438.64	348.51
439.01	351.10
439.38	353.34
439.75	355.52
440.13	357.99
440.50	360.33
440.87	362.18
441.24	364.16
441.61	366.38
441.98	367.86
442.35	369.66
442.72	371.54
443.09	373.33
443.46	374.32
443.83	374.84
444.20	375.36
444.57	376.17
444.94	376.47
445.31	376.77
445.68	377.12
446.05	377.23
446.42	376.83
446.79	376.41
447.16	375.98
447.53	375.65
447.90	374.48
448.27	373.34
448.64	371.77
449.01	370.57
449.37	368.56
449.74	366.68
450.11	364.41
450.48	361.95
450.85	359.39
451.22	357.27
451.59	355.26
451.96	353.31
452.33	350.72
452.70	348.37
453.07	345.55
453.43	342.65
453.80	339.88
454.17	337.19
454.54	334.62
454.91	331.86
455.28	329.17
455.65	326.67
456.02	324.18
456.38	321.96
456.75	319.36
457.12	317.08
457.49	314.85
457.86	312.68
458.23	310.80
458.59	308.81
458.96	306.68
459.33	304.81
459.70	302.90
460.07	301.38
460.43	299.69
460.80	298.07
461.17	296.64
461.54	295.16
461.91	293.71
462.27	292.27
462.64	291.05
463.01	289.74
463.38	288.46
463.74	287.07
464.11	285.93
464.48	284.87
464.85	283.76
465.21	282.87
465.58	281.99
465.95	280.87
466.32	279.94
466.68	279.07
467.05	278.17
467.42	277.30
467.78	276.36
468.15	275.41
468.52	274.71
468.88	273.85
469.25	273.04
469.62	272.42
469.98	271.75
470.35	271.11
470.72	270.48
471.08	269.81
471.45	269.34
471.82	268.81
472.18	268.20
472.55	267.77
472.92	267.22
473.28	266.73
473.65	266.30
474.02	265.80
474.38	265.38
474.75	265.02
475.11	264.65
475.48	264.42
475.85	264.24
476.21	264.03
476.58	263.80
476.94	263.66
477.31	263.48
477.67	263.32
478.04	263.18
478.41	263.16
478.77	263.16
479.14	263.08
479.50	263.07
479.87	263.14
480.23	263.21
480.60	263.29
480.96	263.38
481.33	263.55
481.69	263.77
482.06	263.96
482.42	264.16
482.79	264.38
483.15	264.66
483.52	265.00
483.88	265.33
484.25	265.70
484.61	266.13
484.98	266.59
485.34	267.15
485.71	267.77
486.07	268.35
486.44	268.90
486.80	269.56
487.17	270.28
487.53	271.13
487.90	271.93
488.26	272.87
488.62	273.85
488.99	274.87
489.35	275.91
489.72	277.08
490.08	278.30
490.44	279.59
490.81	280.94
491.17	282.27
491.54	283.75
491.90	285.32
492.26	286.93
492.63	288.67
492.99	290.38
493.36	292.24
493.72	294.27
494.08	296.40
494.45	298.71
494.81	301.08
495.17	303.44
495.54	306.02
495.90	308.69
496.26	311.52
496.63	314.45
496.99	317.56
497.35	320.78
497.72	324.18
498.08	327.66
498.44	331.31
498.80	335.25
499.17	339.31
499.53	343.45
499.89	347.82
500.26	352.33
500.62	357.08
500.98	362.05
501.34	367.10
501.71	372.43
502.07	377.83
502.43	383.42
502.79	389.23
503.16	395.34
503.52	401.57
503.88	407.94
504.24	414.54
504.60	421.41
504.97	428.56
505.33	435.88
505.69	443.59
506.05	451.38
506.41	459.23
506.78	467.36
507.14	475.84
507.50	484.60
507.86	493.59
508.22	502.76
508.59	511.96
508.95	521.56
509.31	531.40
509.67	541.46
510.03	551.83
510.39	562.50
510.75	573.31
511.12	584.31
511.48	595.60
511.84	607.11
512.20	618.67
512.56	630.62
512.92	642.86
513.28	655.27
513.64	667.84
514.00	680.67
514.37	693.63
514.73	706.67
515.09	719.69
515.45	733.08
515.81	746.65
516.17	760.71
516.53	774.84
516.89	788.97
517.25	803.20
517.61	817.60
517.97	832.10
518.33	846.54
518.69	861.29
519.05	876.32
519.41	891.57
519.77	907.19
520.13	922.71
520.49	937.99
520.85	953.45
521.21	969.16
521.57	985.40
521.93	1001.21
522.29	1017.61
522.65	1033.91
523.01	1050.04
523.37	1066.20
523.73	1082.42
524.09	1098.49
524.45	1114.97
524.81	1131.69
525.17	1148.66
525.53	1165.53
525.89	1182.45
526.25	1199.35
526.61	1215.84
526.97	1232.49
527.33	1249.03
527.68	1265.60
528.04	1282.14
528.40	1298.79
528.76	1315.83
529.12	1332.49
529.48	1349.30
529.84	1365.51
530.20	1382.18
530.56	1399.40
530.91	1416.85
531.27	1433.60
531.63	1450.24
531.99	1466.90
532.35	1482.85
532.71	1498.77
533.07	1515.06
533.42	1531.00
533.78	1547.07
534.14	1563.36
534.50	1578.79
534.86	1594.72
535.21	1610.00
535.57	1626.19
535.93	1641.66
536.29	1656.50
536.65	1671.60
537.00	1686.63
537.36	1702.00
537.72	1716.54
538.08	1730.83
538.44	1744.62
538.79	1758.67
539.15	1772.44
539.51	1786.15
539.87	1800.65
540.22	1814.45
540.58	1828.40
540.94	1842.05
541.29	1855.04
541.65	1867.86
542.01	1881.24
542.37	1893.64
542.72	1906.18
543.08	1917.92
543.44	1930.43
543.79	1941.74
544.15	1952.78
544.51	1964.33
544.87	1975.23
545.22	1986.10
545.58	1996.46
545.94	2006.30
546.29	2016.07
546.65	2025.89
547.01	2035.11
547.36	2043.80
547.72	2052.26
548.07	2060.17
548.43	2068.15
548.79	2076.28
549.14	2083.67
549.50	2091.13
549.86	2098.85
550.21	2106.03
550.57	2113.17
550.92	2119.73
551.28	2127.03
551.64	2134.10
551.99	2140.65
552.35	2146.73
552.70	2152.83
553.06	2158.84
553.41	2165.23
553.77	2171.31
554.13	2177.31
554.48	2183.42
554.84	2188.74
555.19	2194.05
555.55	2199.16
555.90	2203.65
556.26	2208.42
556.61	2213.35
556.97	2217.41
557.32	2221.44
557.68	2225.78
558.03	2230.32
558.39	2234.19
558.74	2238.69
559.10	2242.51
559.45	2246.16
559.81	2250.71
560.16	2254.58
560.52	2257.84
560.87	2261.19
561.23	2263.79
561.58	2266.77
561.94	2269.32
562.29	2271.86
562.64	2274.55
563.00	2277.06
563.35	2280.62
563.71	2283.69
564.06	2286.76
564.42	2289.55
564.77	2292.14
565.12	2294.26
565.48	2295.84
565.83	2297.42
566.19	2298.60
566.54	2299.65
566.89	2300.83
567.25	2301.18
567.60	2302.74
567.96	2304.24
568.31	2305.11
568.66	2306.23
569.02	2306.89
569.37	2307.21
569.72	2308.03
570.08	2307.98
570.43	2307.96
570.78	2307.32
571.14	2305.80
571.49	2304.40
571.84	2304.22
572.20	2302.78
572.55	2301.75
572.90	2300.28
573.26	2298.84
573.61	2297.16
573.96	2295.24
574.31	2292.07
574.67	2289.10
575.02	2285.14
575.37	2281.91
575.72	2277.91
576.08	2274.56
576.43	2271.10
576.78	2267.41
577.13	2264.12
577.49	2261.04
577.84	2257.50
578.19	2253.60
578.54	2249.93
578.90	2245.51
579.25	2239.73
579.60	2234.78
579.95	2229.64
580.30	2224.48
580.66	2219.23
581.01	2214.03
581.36	2208.95
581.71	2204.74
582.06	2200.18
582.42	2195.69
582.77	2190.24
583.12	2185.54
583.47	2180.61
583.82	2175.43
584.17	2170.08
584.53	2164.48
584.88	2158.79
585.23	2152.82
585.58	2147.28
585.93	2141.75
586.28	2137.20
586.63	2132.10
586.98	2126.97
587.34	2122.25
587.69	2117.23
588.04	2111.93
588.39	2106.26
588.74	2099.73
589.09	2093.52
589.44	2086.57
589.79	2080.47
590.14	2074.83
590.49	2068.22
590.84	2061.75
591.19	2055.86
591.54	2049.39
591.89	2041.89
592.25	2035.02
592.60	2027.78
592.95	2020.09
593.30	2012.62
593.65	2004.71
594.00	1997.70
594.35	1990.44
594.70	1982.33
595.05	1975.07
595.40	1967.71
595.75	1960.20
596.10	1953.99
596.45	1947.07
596.80	1940.92
597.15	1934.25
597.50	1926.87
597.85	1920.54
598.19	1913.91
598.54	1906.67
598.89	1899.84
599.24	1894.04
599.59	1887.21
599.94	1881.00
600.29	1874.74
600.64	1868.14
600.99	1860.71
601.34	1853.69
601.69	1846.68
602.04	1839.66
602.39	1832.28
602.74	1825.50
603.08	1818.69
603.43	1811.85
603.78	1804.61
604.13	1797.27
604.48	1789.90
604.83	1783.19
605.18	1776.07
605.53	1767.92
605.87	1759.95
606.22	1752.79
606.57	1744.76
606.92	1737.53
607.27	1730.28
607.62	1723.29
607.96	1715.95
608.31	1709.32
608.66	1701.72
609.01	1694.13
609.36	1686.61
609.70	1678.62
610.05	1670.48
610.40	1662.76
610.75	1654.50
611.10	1646.83
611.44	1638.54
611.79	1630.58
612.14	1621.89
612.49	1612.79
612.83	1604.55
613.18	1596.39
613.53	1588.21
613.88	1579.65
614.22	1571.30
614.57	1562.68
614.92	1554.58
615.27	1546.96
615.61	1538.61
615.96	1530.60
616.31	1522.96
616.65	1515.58
617.00	1508.05
617.35	1500.43
617.70	1492.04
618.04	1483.49
618.39	1475.25
618.74	1467.57
619.08	1459.25
619.43	1451.68
619.78	1444.84
620.12	1437.60
620.47	1430.08
620.82	1421.94
621.16	1414.56
621.51	1406.93
621.85	1399.39
622.20	1390.91
622.55	1382.53
622.89	1374.70
623.24	1367.16
623.59	1359.80
623.93	1352.27
624.28	1344.99
624.62	1337.42
624.97	1330.37
625.32	1323.75
625.66	1316.64
626.01	1309.41
626.35	1301.95
626.70	1294.23
627.04	1286.34
627.39	1278.61
627.73	1271.04
628.08	1264.20
628.43	1256.79
628.77	1249.39
629.12	1241.77
629.46	1234.62
629.81	1227.29
630.15	1220.12
630.50	1212.64
630.84	1204.39
631.19	1196.43
631.53	1188.91
631.88	1181.39
632.22	1173.77
632.57	1166.38
632.91	1158.86
633.26	1151.50
633.60	1144.13
633.95	1137.01
634.29	1130.15
634.64	1123.46
634.98	1116.27
635.32	1109.02
635.67	1102.61
636.01	1095.93
636.36	1089.22
636.70	1082.72
637.05	1076.13
637.39	1069.70
637.73	1063.25
638.08	1057.41
638.42	1051.46
638.77	1045.00
639.11	1038.34
639.45	1031.89
639.80	1025.12
640.14	1018.75
640.49	1012.19
640.83	1005.93
641.17	999.62
641.52	993.18
641.86	986.77
642.20	980.85
642.55	974.63
642.89	967.96
643.23	961.49
643.58	955.64
643.92	949.36
644.26	943.24
644.61	937.15
644.95	931.05
645.29	924.50
645.64	917.75
645.98	911.49
646.32	905.72
646.66	899.76
647.01	894.00
647.35	888.32
647.69	882.51
648.04	877.04
648.38	871.27
648.72	865.32
649.06	859.20
649.41	853.29
649.75	847.23
650.09	841.34
650.43	835.55
650.78	829.41
651.12	823.52
651.46	817.82
651.80	812.05
652.14	806.68
652.49	801.26
652.83	796.05
653.17	790.32
653.51	784.54
653.85	779.15
654.20	773.50
654.54	767.48
654.88	761.74
655.22	755.77
655.56	750.14
655.90	744.71
656.25	739.50
656.59	734.21
656.93	729.18
657.27	724.10
657.61	718.65
657.95	713.56
658.29	708.40
658.64	703.21
658.98	697.93
659.32	692.39
659.66	687.18
660.00	681.91
660.34	676.90
660.68	672.00
661.02	666.93
661.36	662.24
661.70	657.78
662.05	653.44
662.39	649.12
662.73	644.66
663.07	640.27
663.41	635.76
663.75	631.25
664.09	626.68
664.43	622.30
664.77	618.16
665.11	613.86
665.45	609.76
665.79	605.71
666.13	601.62
666.47	597.67
666.81	593.48
667.15	589.38
667.49	585.55
667.83	581.81
668.17	577.86
668.51	573.82
668.85	569.74
669.19	565.93
669.53	562.12
669.87	558.17
670.21	554.48
670.55	550.88
670.89	547.51
671.23	544.07
671.57	540.58
671.91	537.13
672.25	533.75
672.58	530.25
672.92	526.83
673.26	523.66
673.60	520.49
673.94	517.46
674.28	514.57
674.62	511.62
674.96	508.52
675.30	505.63
675.64	502.69
675.97	500.05
676.31	497.13
676.65	494.22
676.99	491.56
677.33	488.69
677.67	485.89
678.01	482.81
678.34	479.82
678.68	476.89
679.02	474.09
679.36	471.25
679.70	468.58
680.04	465.85
680.37	462.93
680.71	460.13
681.05	457.50
681.39	454.86
681.73	452.28
682.06	449.80
682.40	447.26
682.74	444.73
683.08	442.17
683.42	439.65
683.75	437.18
684.09	434.63
684.43	432.19
684.77	429.74
685.10	427.41
685.44	425.15
685.78	422.94
686.12	420.69
686.45	418.47
686.79	416.15
687.13	413.97
687.46	411.83
687.80	409.70
688.14	407.50
688.48	405.36
688.81	403.06
689.15	400.88
689.49	398.72
689.82	396.69
690.16	394.57
690.50	392.63
690.83	390.64
691.17	388.68
691.51	386.81
691.84	384.97
692.18	383.01
692.52	381.03
692.85	379.11
693.19	377.21
693.52	375.37
693.86	373.59
694.20	371.82
694.53	370.03
694.87	368.16
695.21	366.38
695.54	364.55
695.88	362.83
696.21	361.09
696.55	359.45
696.88	357.77
697.22	356.12
697.56	354.45
697.89	352.81
698.23	351.20
698.56	349.53
698.90	347.91
699.23	346.30
699.57	344.70
699.90	343.13
700.24	341.61
700.58	340.11
700.91	338.61
701.25	337.16
701.58	335.81
701.92	334.46
702.25	333.10
702.59	331.82
702.92	330.50
703.26	329.23
703.59	327.94
703.93	326.75
704.26	325.54
704.60	324.27
704.93	323.03
705.26	321.84
705.60	320.70
705.93	319.59
706.27	318.57
706.60	317.55
706.94	316.47
707.27	315.37
707.61	314.30
707.94	313.25
708.27	312.14
708.61	311.04
708.94	310.05
709.28	309.02
709.61	308.01
709.94	307.05
710.28	306.01
710.61	305.04
710.95	303.98
711.28	303.04
711.61	302.05
711.95	301.12
712.28	300.17
712.61	299.19
712.95	298.23
713.28	297.34
713.61	296.44
713.95	295.58
714.28	294.69
714.61	293.83
714.95	292.99
715.28	292.14
715.61	291.30
715.95	290.48
716.28	289.67
716.61	288.85
716.95	288.09
717.28	287.33
717.61	286.58
717.94	285.83
718.28	285.06
718.61	284.39
718.94	283.70
719.27	282.99
719.61	282.35
719.94	281.68
720.27	280.98
720.60	280.31
720.94	279.64
721.27	279.09
721.60	278.50
721.93	277.91
722.27	277.39
722.60	276.84
722.93	276.25
723.26	275.69
723.59	275.16
723.93	274.61
724.26	274.07
724.59	273.49
724.92	272.96
725.25	272.47
725.59	271.94
725.92	271.44
726.25	270.91
726.58	270.42
726.91	269.97
727.24	269.50
727.57	269.03
727.91	268.58
728.24	268.06
728.57	267.56
728.90	267.12
729.23	266.61
729.56	266.17
729.89	265.71
730.22	265.23
730.55	264.76
730.89	264.28
731.22	263.80
731.55	263.38
731.88	262.96
732.21	262.51
732.54	262.04
732.87	261.63
733.20	261.24
733.53	260.86
733.86	260.45
734.19	260.05
734.52	259.69
734.85	259.37
735.18	258.99
735.51	258.65
735.84	258.28
736.17	257.91
736.50	257.50
736.83	257.26
737.16	256.92
737.49	256.56
737.82	256.21
738.15	255.90
738.48	255.55
738.81	255.24
739.14	254.94
739.47	254.65
739.80	254.33
740.13	254.04
740.46	253.68
740.79	253.34
741.12	253.05
741.45	252.71
741.78	252.36
742.11	252.04
742.44	251.71
742.77	251.40
743.10	251.10
743.43	250.81
743.75	250.41
744.08	250.26
744.41	249.99
744.74	249.76
745.07	249.49
745.40	249.24
745.73	249.00
746.06	248.68
746.39	248.38
746.71	248.12
747.04	247.82
747.37	247.58
747.70	247.40
748.03	247.09
748.36	246.89
748.68	246.66
749.01	246.40
749.34	246.20
749.67	245.95
750.00	245.73
750.33	245.57
750.65	245.35
750.98	245.01
751.31	244.80
751.64	244.55
751.97	244.38
752.29	244.19
752.62	243.94
752.95	243.76
753.28	243.59
753.60	243.40
753.93	243.23
754.26	243.04
754.59	242.78
754.91	242.62
755.24	242.41
755.57	242.20
755.90	242.03
756.22	241.83
756.55	241.68
756.88	241.51
757.20	241.31
757.53	241.13
757.86	240.97
758.19	240.83
758.51	240.69
758.84	240.50
759.17	240.32
759.49	240.14
759.82	240.04
760.15	239.92
760.47	239.76
760.80	239.61
761.13	239.49
761.45	239.34
761.78	239.19
762.11	239.08
762.43	238.91
762.76	238.80
763.08	238.69
763.41	238.55
763.74	238.41
764.06	238.24
764.39	238.10
764.71	237.99
765.04	237.82
765.37	237.72
765.69	237.59
766.02	237.46
766.34	237.36
766.67	237.19
767.00	237.07
767.32	236.99
767.65	236.93
767.97	236.81
768.30	236.70
768.62	236.57
768.95	236.40
769.27	236.32
769.60	236.21
769.92	236.09
770.25	235.97
770.57	235.85
770.90	235.77
771.22	235.64
771.55	235.53
771.87	235.43
772.20	235.32
772.52	235.29
772.85	235.31
773.17	235.18
773.50	235.07
773.82	234.98
774.15	234.86
774.47	234.73
774.80	234.62
775.12	234.53
775.45	234.47
775.77	234.43
776.09	234.36
776.42	234.25
776.74	234.20
777.07	234.10
777.39	234.03
777.72	233.95
778.04	233.88
778.36	233.80
778.69	233.76
779.01	233.68
779.33	233.53
779.66	233.34
779.98	233.27
780.31	233.23
780.63	233.20
780.95	233.13
781.28	233.04
781.60	232.96
781.92	232.88
782.25	232.82
782.57	232.74
782.89	232.67
783.22	232.62
783.54	232.53
783.86	232.47
784.19	232.38
784.51	232.35
784.83	232.30
785.16	232.24
785.48	232.18
785.80	232.14
786.12	232.09
786.45	232.04
786.77	232.02
787.09	231.98
787.42	231.89
787.74	231.84
788.06	231.80
788.38	231.75
788.71	231.74
789.03	231.67
789.35	231.65
789.67	231.61
789.99	231.61
790.32	231.56
790.64	231.52
790.96	231.56
791.28	231.50
791.61	231.46
791.93	231.45
792.25	231.40
792.57	231.42
792.89	231.35
793.21	231.35
793.54	231.27
793.86	231.21
794.18	231.16
794.50	231.11
794.82	231.09
795.14	231.07
795.47	231.03
795.79	231.01
796.11	230.94
796.43	230.92
796.75	230.85
797.07	230.82
797.39	230.79
797.71	230.68
798.04	230.65
798.36	230.61
798.68	230.56
799.00	230.54
799.32	230.45
799.64	230.43
799.96	230.37
800.28	230.39
800.60	230.37
800.92	230.31
801.24	230.28
801.56	230.26
801.89	230.25
802.21	230.22
802.53	230.17
802.85	230.19
803.17	230.21
803.49	230.17
803.81	230.13
804.13	230.09
804.45	230.05
804.77	230.03
805.09	230.01
805.41	229.97
805.73	229.92
806.05	229.88
806.37	229.87
806.69	229.84
807.01	229.81
807.33	229.79
807.65	229.78
807.97	229.81
808.28	229.74
808.60	229.70
808.92	229.66
809.24	229.69
809.56	229.61
809.88	229.53
810.20	229.51
810.52	229.50
810.84	229.46
811.16	229.44
811.48	229.45
811.80	229.44
812.12	229.39
812.43	229.38
812.75	229.37
813.07	229.32
813.39	229.30
813.71	229.25
814.03	229.21
814.35	229.18
814.67	229.11
814.98	229.15
815.30	229.10
815.62	229.08
815.94	229.00
816.26	229.01
816.58	229.00
816.89	228.98
817.21	228.95
817.53	228.93
817.85	228.89
818.17	228.85
818.48	228.79
818.80	228.82
819.12	228.80
819.44	228.77
819.76	228.75
820.07	228.74
820.39	228.70
820.71	228.70
821.03	228.69
821.34	228.67
821.66	228.63
821.98	228.63
822.30	228.62
822.61	228.68
822.93	228.62
823.25	228.59
823.57	228.54
823.88	228.51
824.20	228.50
824.52	228.53
824.83	228.54
825.15	228.52
825.47	228.52
825.79	228.50
826.10	228.47
826.42	228.47
826.74	228.49
827.05	228.49
827.37	228.48
827.69	228.47
828.00	228.47
828.32	228.45
828.64	228.46
828.95	228.49
829.27	228.46
829.58	228.47
829.90	228.47
830.22	228.48
830.53	228.47
830.85	228.46
831.17	228.42
831.48	228.38
831.80	228.39
832.11	228.37
832.43	228.36
832.75	228.36
833.06	228.38
833.38	228.34
833.69	228.37
834.01	228.37
834.32	228.38
834.64	228.37
834.96	228.36
835.27	228.32
835.59	228.29
835.90	228.29
836.22	228.27
836.53	228.26
836.85	228.26
837.16	228.38
837.48	228.40
837.79	228.41
838.11	228.41
838.42	228.42
838.74	228.43
839.05	228.42
839.37	228.38
839.68	228.34
840.00	228.30
840.31	228.29
840.63	228.26
840.94	228.23
841.26	228.20
841.57	228.21
841.88	228.23
842.20	228.20
842.51	228.17
842.83	228.17
843.14	228.24
843.46	228.24
843.77	228.15
844.08	228.14
844.40	228.16
844.71	228.14
845.03	228.14
845.34	228.12
845.65	228.11
845.97	228.13
846.28	228.16
846.60	228.18
846.91	228.12
847.22	228.15
847.54	228.14
847.85	228.16
848.16	228.14
848.48	228.11
848.79	228.14
849.10	228.14
849.42	228.13
849.73	228.05
850.04	228.04
850.36	227.97
850.67	228.00
850.98	227.95
851.30	227.97
851.61	227.94
851.92	227.93
852.23	227.96
852.55	227.97
852.86	227.93
853.17	227.92
853.49	227.95
853.80	227.95
854.11	227.97
854.42	227.96
854.74	227.95
855.05	227.93
855.36	227.89
855.67	227.87
855.99	227.85
856.30	227.95
856.61	227.95
856.92	227.94
857.23	227.90
857.55	227.89
857.86	227.90
858.17	227.90
858.48	227.89
858.79	227.87
859.11	227.87
859.42	227.85
859.73	227.84
860.04	227.85
860.35	227.80
860.66	227.75
860.98	227.75
861.29	227.75
861.60	227.74
861.91	227.75
862.22	227.75
862.53	227.77
862.84	227.64
863.16	227.68
863.47	227.70
863.78	227.68
864.09	227.69
864.40	227.68
864.71	227.69
865.02	227.66
865.33	227.64
865.64	227.63
865.95	227.66
866.27	227.74
866.58	227.69
866.89	227.72
867.20	227.73
867.51	227.73
867.82	227.73
868.13	227.75
868.44	227.73
868.75	227.74
869.06	227.71
869.37	227.75
869.68	227.67
869.99	227.65
870.30	227.66
870.61	227.69
870.92	227.65
871.23	227.63
871.54	227.65
871.85	227.68
872.16	227.68
872.47	227.66
872.78	227.59
873.09	227.59
873.40	227.60
873.71	227.61
874.02	227.61
874.33	227.58
874.64	227.57
874.95	227.57
875.26	227.52
875.56	227.52
875.87	227.49
876.18	227.49
876.49	227.61
876.80	227.60
877.11	227.57
877.42	227.59
877.73	227.59
878.04	227.54
878.35	227.52
878.66	227.52
878.96	227.52
879.27	227.55
879.58	227.54
879.89	227.51
880.20	227.55
880.51	227.52
880.82	227.54
881.12	227.55
881.43	227.53
881.74	227.55
882.05	227.57
882.36	227.59
882.67	227.62
882.97	227.53
883.28	227.52
883.59	227.49
883.90	227.47
884.21	227.45
884.51	227.48
884.82	227.46
885.13	227.45
885.44	227.42
885.74	227.39
886.05	227.39
886.36	227.36
886.67	227.29
886.98	227.34
887.28	227.34
887.59	227.33
887.90	227.35
888.20	227.33
888.51	227.33
888.82	227.31
889.13	227.34
889.43	227.41
889.74	227.42
890.05	227.43
890.35	227.43
890.66	227.45
890.97	227.43
891.28	227.43
891.58	227.44
891.89	227.43
892.20	227.42
892.50	227.44
892.81	227.45
893.12	227.45
893.42	227.37
893.73	227.37
894.04	227.37
894.34	227.36
894.65	227.37
894.95	227.38
895.26	227.38
895.57	227.38
895.87	227.31
896.18	227.29
896.48	227.30
896.79	227.33
897.10	227.36
897.40	227.38
897.71	227.39
898.01	227.39
898.32	227.39
898.63	227.41
898.93	227.35
899.24	227.36
899.54	227.37
899.85	227.40
900.15	227.37
900.46	227.33
900.76	227.31
901.07	227.31
901.38	227.28
901.68	227.28
901.99	227.24
902.29	227.23
902.60	227.25
902.90	227.22
903.21	227.18
903.51	227.18
903.82	227.20
904.12	227.23
904.43	227.22
904.73	227.25
905.03	227.27
905.34	227.38
905.64	227.37
905.95	227.36
906.25	227.36
906.56	227.39
906.86	227.42
907.17	227.42
907.47	227.41
907.77	227.40
908.08	227.38
908.38	227.40
908.69	227.38
908.99	227.40
909.30	227.40
909.60	227.42
909.90	227.39
910.21	227.36
910.51	227.33
910.81	227.36
911.12	227.33
911.42	227.30
911.73	227.22
912.03	227.23
912.33	227.24
912.64	227.22
912.94	227.17
913.24	227.14
913.55	227.12
913.85	227.12
914.15	227.17
914.46	227.16
914.76	227.15
915.06	227.16
915.37	227.11
915.67	227.11
915.97	227.11
916.27	227.10
916.58	227.07
916.88	227.06
917.18	227.04
917.49	227.11
917.79	227.12
918.09	227.12
918.39	227.14
918.70	227.16
919.00	227.16
919.30	227.24
919.60	227.29
919.91	227.32
920.21	227.32
920.51	227.29
920.81	227.28
921.12	227.26
921.42	227.26
921.72	227.26
922.02	227.27
922.32	227.26
922.63	227.26
922.93	227.34
923.23	227.35
923.53	227.33
923.83	227.29
924.13	227.28
924.44	227.30
924.74	227.32
925.04	227.36
925.34	227.36
925.64	227.33
925.94	227.28
926.24	227.33
926.55	227.32
926.85	227.35
927.15	227.36
927.45	227.36
927.75	227.37
928.05	227.39
928.35	227.40
928.65	227.46
928.95	227.46
929.26	227.40
929.56	227.42
929.86	227.43
930.16	227.39
930.46	227.38
930.76	227.39
931.06	227.34
931.36	227.28
931.66	227.31
931.96	227.30
932.26	227.30
932.56	227.25
932.86	227.24
933.16	227.21
933.46	227.19
933.76	227.19
934.06	227.21
934.36	227.22
934.66	227.22
934.96	227.18
935.26	227.18
935.56	227.20
935.86	227.16
936.16	227.15
936.46	227.16
936.76	227.18
937.06	227.14
937.36	227.13
937.66	227.13
937.96	227.10
938.26	227.07
938.56	227.06
938.86	227.06
939.16	227.10
939.46	227.12
939.76	227.16
940.06	227.18
940.35	227.19
940.65	227.12
940.95	227.14
941.25	227.09
941.55	227.07
941.85	227.06
942.15	227.07
942.45	227.11
942.75	227.10
943.04	227.09
943.34	227.13
943.64	227.13
943.94	227.13
944.24	227.13
944.54	227.15
944.84	227.15
945.13	227.16
945.43	227.14
945.73	227.15
946.03	227.11
946.33	227.06
946.62	227.02
946.92	227.07
947.22	227.05
947.52	227.09
947.82	227.13
948.11	227.15
948.41	227.14
948.71	227.12
949.01	227.15
949.31	227.13
949.60	227.11
949.90	227.14
950.20	227.12
950.50	227.12
950.79	227.10
951.09	227.12
951.39	227.11
951.69	227.13
951.98	227.13
952.28	227.17
952.58	227.20
952.87	227.21
953.17	227.20
953.47	227.21
953.76	227.22
954.06	227.20
954.36	227.17
954.66	227.15
954.95	227.17
955.25	227.15
955.55	227.18
955.84	227.15
956.14	227.14
956.44	227.16
956.73	227.13
957.03	227.14
957.32	227.15
957.62	227.11
957.92	227.08
958.21	227.03
958.51	227.12
958.81	227.12
959.10	227.13
959.40	227.15
959.69	227.14
959.99	227.18
960.29	227.18
960.58	227.18
960.88	227.22
961.17	227.16
961.47	227.20
961.76	227.19
962.06	227.19
962.36	227.20
962.65	227.18
962.95	227.20
963.24	227.20
963.54	227.22
963.83	227.26
964.13	227.26
964.42	227.26
964.72	227.16
965.01	227.16
965.31	227.13
965.60	227.08
965.90	227.13
966.19	227.06
966.49	227.05
966.78	227.05
967.08	227.04
967.37	227.04
967.67	226.97
967.96	226.98
968.26	226.98
968.55	226.99
968.85	227.01
969.14	227.01
969.43	227.01
969.73	227.00
970.02	226.98
970.32	226.99
970.61	226.98
970.91	226.93
971.20	226.88
971.49	226.88
971.79	226.90
972.08	226.82
972.38	226.87
972.67	226.85
972.96	226.86
973.26	226.83
973.55	226.88
973.85	226.91
974.14	226.89
974.43	226.92
974.73	226.87
975.02	226.86
975.31	226.85
975.61	226.83
975.90	226.82
976.19	226.83
976.49	226.80
976.78	226.84
977.07	226.88
977.37	226.90
977.66	226.93
977.95	226.95
978.24	226.99
978.54	226.98
978.83	226.99
979.12	227.00
979.42	227.04
979.71	227.02
980.00	227.00
980.29	227.04
980.59	227.03
980.88	227.05
981.17	227.06
981.46	227.09
981.76	227.11
982.05	227.16
982.34	227.16
982.63	227.19
982.93	227.19
983.22	227.20
983.51	227.22
983.80	227.24
984.09	227.22
984.39	227.18
984.68	227.20
984.97	227.20
985.26	227.18
985.55	227.19
985.85	227.17
986.14	227.21
986.43	227.19
986.72	227.18
987.01	227.16
987.30	227.15
987.59	227.15
987.89	227.15
988.18	227.06
988.47	227.07
988.76	227.05
989.05	227.07
989.34	227.04
989.63	227.08
989.92	227.08
990.22	227.09
990.51	227.09
990.80	227.07
991.09	227.08
991.38	227.11
991.67	227.10
991.96	227.10
992.25	227.10
992.54	227.08
992.83	227.07
993.12	227.11
993.41	227.10
993.70	227.13
993.99	227.15
994.28	227.22
994.58	227.23
994.87	227.25
995.16	227.21
995.45	227.23
995.74	227.16
996.03	227.15
996.32	227.16
996.61	227.15
996.90	227.15
997.19	227.14
997.48	227.13
997.77	227.08
998.06	227.08
998.34	227.07
998.63	227.05
998.92	227.05
999.21	227.02
999.50	227.03
999.79	226.99
1000.08	226.97
1000.37	226.97
1000.66	226.95
1000.95	226.93
1001.24	226.92
1001.53	226.93
1001.82	226.93
1002.11	226.90
1002.40	226.91
1002.68	226.95
1002.97	226.99
1003.26	226.98
1003.55	226.94
1003.84	226.93
1004.13	226.94
1004.42	226.92
1004.71	226.92
1004.99	226.90
1005.28	226.93
1005.57	226.90
1005.86	226.90
1006.15	226.89
1006.44	226.82
1006.72	226.81
1007.01	226.80
1007.30	226.81
1007.59	226.78
1007.88	226.80
1008.17	226.78
1008.45	226.79
1008.74	226.72
1009.03	226.69
1009.32	226.70
1009.60	226.70
1009.89	226.68
1010.18	226.65
1010.47	226.65
1010.76	226.66
1011.04	226.68
1011.33	226.68
1011.62	226.67
1011.91	226.68
1012.19	226.69
1012.48	226.72
1012.77	226.71
1013.05	226.79
1013.34	226.80
1013.63	226.80
1013.92	226.78
1014.20	226.78
1014.49	226.74
1014.78	226.80
1015.06	226.77
1015.35	226.75
1015.64	226.79
1015.92	226.86
1016.21	226.86
1016.50	226.87
1016.78	226.86
1017.07	226.85
1017.36	226.86
1017.64	226.89
1017.93	226.91
1018.22	226.93
1018.50	226.92
1018.79	226.92
1019.08	226.89
1019.36	226.91
1019.65	226.88
1019.93	226.95
1020.22	226.97
1020.51	227.03
1020.79	227.01
1021.08	227.08
1021.36	226.78
1021.65	226.59
1021.94	227.43
1022.22	227.18
1022.51	226.33
1022.79	227.82
1023.08	226.86
1023.36	227.83
1023.65	226.83
>>>>>End Processed Spectral Data<<<<<
