SpectraSuite Data File
++++++++++++++++++++++++++++++++++++
Date: Fri Feb 01 15:58:27 EST 2013
User: group
Dark Spectrum Present: No
Reference Spectrum Present: No
Number of Sampled Component Spectra: 1
Spectrometers: USB2E7196
Integration Time (usec): 35000 (USB2E7196)
Spectra Averaged: 100 (USB2E7196)
Boxcar Smoothing: 10 (USB2E7196)
Correct for Electrical Dark: No (USB2E7196)
Strobe/Lamp Enabled: No (USB2E7196)
Correct for Detector Non-linearity: No (USB2E7196)
Correct for Stray Light: No (USB2E7196)
Number of Pixels in Processed Spectrum: 2048
>>>>>Begin Processed Spectral Data<<<<<
339.09	0.00
339.48	214.96
339.86	216.21
340.24	217.28
340.63	219.09
341.01	221.40
341.39	221.49
341.78	222.48
342.16	223.40
342.54	224.43
342.93	212.93
343.31	223.69
343.69	224.22
344.07	224.68
344.46	225.10
344.84	225.45
345.22	225.72
345.60	225.97
345.99	226.16
346.37	226.30
346.75	226.40
347.13	226.48
347.52	226.52
347.90	226.54
348.28	226.59
348.66	226.66
349.05	226.72
349.43	226.77
349.81	226.88
350.19	226.90
350.57	226.93
350.96	227.02
351.34	227.12
351.72	227.21
352.10	227.31
352.48	227.39
352.87	227.45
353.25	227.50
353.63	227.57
354.01	227.70
354.39	227.82
354.77	227.91
355.15	228.02
355.54	228.10
355.92	228.15
356.30	228.25
356.68	228.37
357.06	228.42
357.44	228.46
357.82	228.48
358.20	228.57
358.58	228.69
358.97	228.75
359.35	228.82
359.73	228.92
360.11	228.97
360.49	229.05
360.87	229.12
361.25	229.18
361.63	229.25
362.01	229.29
362.39	229.31
362.77	229.36
363.15	229.39
363.53	229.43
363.91	229.47
364.29	229.46
364.67	229.42
365.05	229.45
365.43	229.46
365.81	229.49
366.19	229.54
366.57	229.55
366.95	229.55
367.33	229.53
367.71	229.48
368.09	229.50
368.47	229.48
368.85	229.46
369.23	229.45
369.61	229.40
369.99	229.38
370.37	229.36
370.75	229.37
371.13	229.29
371.51	229.23
371.89	229.21
372.27	229.17
372.65	229.11
373.03	229.03
373.41	228.99
373.78	228.90
374.16	228.78
374.54	228.69
374.92	228.60
375.30	228.53
375.68	228.47
376.06	228.39
376.44	228.34
376.82	228.27
377.19	228.22
377.57	228.14
377.95	228.03
378.33	227.95
378.71	227.83
379.09	227.78
379.47	227.71
379.84	227.62
380.22	227.55
380.60	227.45
380.98	227.39
381.36	227.31
381.73	227.26
382.11	227.20
382.49	227.15
382.87	227.09
383.25	227.04
383.62	227.09
384.00	227.00
384.38	226.91
384.76	226.88
385.13	226.83
385.51	226.77
385.89	226.73
386.27	226.68
386.64	226.66
387.02	226.60
387.40	226.56
387.78	226.54
388.15	226.50
388.53	226.46
388.91	226.41
389.29	226.38
389.66	226.34
390.04	226.34
390.42	226.31
390.79	226.31
391.17	226.26
391.55	226.13
391.92	226.11
392.30	226.11
392.68	226.09
393.05	226.10
393.43	226.12
393.81	226.10
394.18	226.09
394.56	226.10
394.94	226.17
395.31	226.19
395.69	226.22
396.06	226.24
396.44	226.29
396.82	226.31
397.19	226.39
397.57	226.43
397.95	226.48
398.32	226.52
398.70	226.61
399.07	226.70
399.45	226.78
399.82	226.88
400.20	226.96
400.58	227.02
400.95	227.05
401.33	227.13
401.70	227.30
402.08	227.39
402.45	227.46
402.83	227.55
403.20	227.64
403.58	227.74
403.95	227.88
404.33	227.98
404.71	228.10
405.08	228.27
405.46	228.42
405.83	228.56
406.21	228.69
406.58	228.83
406.96	229.00
407.33	229.15
407.70	229.37
408.08	229.63
408.45	229.86
408.83	230.10
409.20	230.32
409.58	230.53
409.95	230.81
410.33	231.10
410.70	231.34
411.08	231.64
411.45	231.96
411.82	232.32
412.20	232.69
412.57	233.15
412.95	233.44
413.32	233.85
413.69	234.24
414.07	234.68
414.44	235.12
414.82	235.61
415.19	236.17
415.56	236.69
415.94	237.18
416.31	237.83
416.68	238.46
417.06	239.19
417.43	239.86
417.81	240.63
418.18	241.36
418.55	242.23
418.93	243.09
419.30	243.99
419.67	244.83
420.04	245.80
420.42	246.76
420.79	247.96
421.16	249.07
421.54	250.27
421.91	251.50
422.28	252.78
422.66	254.07
423.03	255.39
423.40	256.70
423.77	258.12
424.15	259.53
424.52	261.00
424.89	262.61
425.26	264.15
425.64	265.59
426.01	267.22
426.38	268.86
426.75	270.53
427.13	272.24
427.50	274.11
427.87	275.95
428.24	277.83
428.61	279.57
428.99	281.53
429.36	283.64
429.73	285.70
430.10	287.71
430.47	289.81
430.85	291.88
431.22	294.12
431.59	296.53
431.96	298.73
432.33	301.20
432.70	303.59
433.08	306.35
433.45	308.97
433.82	311.52
434.19	314.39
434.56	317.25
434.93	319.91
435.30	322.54
435.68	325.48
436.05	328.32
436.42	331.10
436.79	333.63
437.16	336.32
437.53	339.10
437.90	341.89
438.27	344.59
438.64	347.39
439.01	349.97
439.38	352.17
439.75	354.34
440.13	356.86
440.50	359.15
440.87	361.02
441.24	362.96
441.61	365.09
441.98	366.53
442.35	368.28
442.72	370.13
443.09	371.87
443.46	372.85
443.83	373.41
444.20	373.89
444.57	374.68
444.94	374.99
445.31	375.33
445.68	375.68
446.05	375.76
446.42	375.37
446.79	374.98
447.16	374.53
447.53	374.22
447.90	373.02
448.27	371.85
448.64	370.31
449.01	369.18
449.37	367.21
449.74	365.37
450.11	363.11
450.48	360.64
450.85	358.13
451.22	355.99
451.59	353.96
451.96	352.05
452.33	349.47
452.70	347.05
453.07	344.26
453.43	341.39
453.80	338.64
454.17	336.00
454.54	333.44
454.91	330.75
455.28	328.06
455.65	325.63
456.02	323.22
456.38	321.04
456.75	318.37
457.12	316.19
457.49	313.96
457.86	311.81
458.23	309.94
458.59	307.91
458.96	305.80
459.33	303.98
459.70	302.12
460.07	300.67
460.43	298.96
460.80	297.37
461.17	295.89
461.54	294.43
461.91	293.01
462.27	291.60
462.64	290.30
463.01	288.99
463.38	287.68
463.74	286.35
464.11	285.22
464.48	284.22
464.85	283.08
465.21	282.22
465.58	281.27
465.95	280.19
466.32	279.30
466.68	278.44
467.05	277.58
467.42	276.66
467.78	275.71
468.15	274.88
468.52	274.20
468.88	273.38
469.25	272.62
469.62	272.03
469.98	271.35
470.35	270.77
470.72	270.16
471.08	269.52
471.45	268.94
471.82	268.39
472.18	267.79
472.55	267.35
472.92	266.86
473.28	266.43
473.65	266.01
474.02	265.57
474.38	265.21
474.75	264.87
475.11	264.53
475.48	264.27
475.85	264.05
476.21	263.85
476.58	263.68
476.94	263.50
477.31	263.30
477.67	263.16
478.04	263.03
478.41	262.98
478.77	263.01
479.14	262.95
479.50	262.95
479.87	263.01
480.23	263.10
480.60	263.16
480.96	263.27
481.33	263.45
481.69	263.66
482.06	263.82
482.42	263.99
482.79	264.24
483.15	264.55
483.52	264.89
483.88	265.20
484.25	265.55
484.61	265.98
484.98	266.44
485.34	266.96
485.71	267.52
486.07	268.15
486.44	268.73
486.80	269.43
487.17	270.16
487.53	270.98
487.90	271.81
488.26	272.72
488.62	273.69
488.99	274.69
489.35	275.72
489.72	276.84
490.08	278.04
490.44	279.31
490.81	280.68
491.17	282.04
491.54	283.57
491.90	285.12
492.26	286.81
492.63	288.54
492.99	290.34
493.36	292.24
493.72	294.31
494.08	296.40
494.45	298.64
494.81	301.00
495.17	303.42
495.54	306.03
495.90	308.74
496.26	311.52
496.63	314.47
496.99	317.60
497.35	320.89
497.72	324.32
498.08	327.86
498.44	331.50
498.80	335.45
499.17	339.43
499.53	343.59
499.89	347.94
500.26	352.48
500.62	357.18
500.98	362.17
501.34	367.20
501.71	372.54
502.07	378.00
502.43	383.63
502.79	389.46
503.16	395.48
503.52	401.76
503.88	408.17
504.24	414.82
504.60	421.69
504.97	428.86
505.33	436.23
505.69	443.92
506.05	451.67
506.41	459.52
506.78	467.79
507.14	476.25
507.50	484.95
507.86	493.97
508.22	503.18
508.59	512.44
508.95	522.07
509.31	531.92
509.67	542.04
510.03	552.35
510.39	562.91
510.75	573.80
511.12	584.71
511.48	596.06
511.84	607.53
512.20	619.10
512.56	631.01
512.92	643.14
513.28	655.45
513.64	667.98
514.00	680.70
514.37	693.56
514.73	706.73
515.09	719.74
515.45	733.04
515.81	746.57
516.17	760.60
516.53	774.64
516.89	788.79
517.25	802.93
517.61	817.36
517.97	831.81
518.33	846.21
518.69	860.98
519.05	875.93
519.41	891.00
519.77	906.45
520.13	921.96
520.49	937.30
520.85	952.79
521.21	968.44
521.57	984.55
521.93	1000.27
522.29	1016.56
522.65	1032.80
523.01	1048.95
523.37	1065.00
523.73	1081.15
524.09	1097.26
524.45	1113.56
524.81	1130.17
525.17	1146.99
525.53	1163.92
525.89	1180.77
526.25	1197.57
526.61	1213.94
526.97	1230.67
527.33	1247.05
527.68	1263.42
528.04	1279.87
528.40	1296.42
528.76	1313.44
529.12	1330.08
529.48	1346.85
529.84	1362.95
530.20	1379.61
530.56	1396.54
530.91	1413.95
531.27	1430.60
531.63	1447.01
531.99	1463.57
532.35	1479.41
532.71	1495.13
533.07	1511.22
533.42	1527.00
533.78	1542.96
534.14	1559.24
534.50	1574.64
534.86	1590.54
535.21	1605.86
535.57	1621.79
535.93	1637.25
536.29	1652.04
536.65	1667.05
537.00	1681.81
537.36	1696.86
537.72	1711.27
538.08	1725.65
538.44	1739.35
538.79	1753.23
539.15	1766.84
539.51	1780.43
539.87	1794.79
540.22	1808.58
540.58	1822.35
540.94	1835.72
541.29	1848.51
541.65	1861.17
542.01	1874.29
542.37	1886.60
542.72	1898.91
543.08	1910.57
543.44	1922.85
543.79	1934.04
544.15	1945.08
544.51	1956.75
544.87	1967.66
545.22	1978.55
545.58	1988.86
545.94	1998.65
546.29	2008.46
546.65	2018.35
547.01	2027.67
547.36	2036.31
547.72	2044.85
548.07	2052.63
548.43	2060.74
548.79	2068.90
549.14	2076.24
549.50	2083.52
549.86	2091.20
550.21	2098.57
550.57	2105.78
550.92	2112.34
551.28	2119.38
551.64	2126.33
551.99	2132.71
552.35	2138.93
552.70	2144.98
553.06	2150.84
553.41	2157.13
553.77	2163.20
554.13	2169.30
554.48	2175.46
554.84	2180.88
555.19	2185.98
555.55	2191.14
555.90	2195.58
556.26	2200.42
556.61	2205.19
556.97	2209.52
557.32	2213.50
557.68	2217.57
558.03	2221.92
558.39	2225.72
558.74	2230.36
559.10	2234.31
559.45	2238.16
559.81	2242.54
560.16	2246.42
560.52	2249.53
560.87	2252.91
561.23	2255.56
561.58	2258.70
561.94	2261.20
562.29	2263.83
562.64	2266.45
563.00	2269.14
563.35	2272.68
563.71	2275.91
564.06	2279.30
564.42	2282.04
564.77	2284.63
565.12	2286.78
565.48	2288.65
565.83	2290.40
566.19	2291.62
566.54	2292.54
566.89	2293.59
567.25	2294.17
567.60	2295.32
567.96	2297.18
568.31	2298.11
568.66	2299.22
569.02	2299.44
569.37	2299.76
569.72	2300.49
570.08	2300.81
570.43	2300.80
570.78	2300.35
571.14	2298.60
571.49	2297.15
571.84	2296.93
572.20	2295.91
572.55	2294.96
572.90	2293.53
573.26	2292.25
573.61	2290.57
573.96	2288.78
574.31	2285.72
574.67	2282.75
575.02	2279.41
575.37	2276.00
575.72	2271.98
576.08	2268.67
576.43	2265.37
576.78	2261.62
577.13	2258.42
577.49	2255.44
577.84	2252.00
578.19	2248.17
578.54	2244.55
578.90	2240.32
579.25	2234.77
579.60	2229.68
579.95	2224.69
580.30	2219.55
580.66	2214.56
581.01	2209.66
581.36	2204.80
581.71	2200.81
582.06	2196.30
582.42	2191.75
582.77	2186.47
583.12	2182.06
583.47	2177.28
583.82	2172.38
584.17	2167.16
584.53	2161.70
584.88	2156.00
585.23	2150.07
585.58	2144.61
585.93	2139.27
586.28	2134.45
586.63	2129.38
586.98	2124.35
587.34	2119.64
587.69	2114.75
588.04	2109.30
588.39	2103.69
588.74	2097.14
589.09	2090.88
589.44	2084.01
589.79	2077.95
590.14	2072.47
590.49	2065.92
590.84	2059.63
591.19	2053.61
591.54	2047.31
591.89	2039.93
592.25	2033.16
592.60	2026.00
592.95	2018.40
593.30	2011.20
593.65	2003.72
594.00	1996.76
594.35	1989.58
594.70	1981.50
595.05	1974.22
595.40	1966.94
595.75	1959.46
596.10	1953.21
596.45	1946.46
596.80	1940.40
597.15	1933.78
597.50	1926.70
597.85	1920.30
598.19	1913.64
598.54	1906.42
598.89	1899.57
599.24	1893.63
599.59	1886.80
599.94	1880.72
600.29	1874.46
600.64	1867.80
600.99	1860.36
601.34	1853.42
601.69	1846.58
602.04	1839.79
602.39	1832.54
602.74	1825.73
603.08	1818.95
603.43	1812.19
603.78	1804.90
604.13	1797.60
604.48	1790.32
604.83	1783.40
605.18	1776.36
605.53	1768.28
605.87	1760.37
606.22	1753.32
606.57	1745.45
606.92	1738.20
607.27	1730.91
607.62	1723.95
607.96	1716.61
608.31	1709.96
608.66	1702.50
609.01	1694.86
609.36	1687.31
609.70	1679.31
610.05	1671.27
610.40	1663.49
610.75	1655.31
611.10	1647.66
611.44	1639.28
611.79	1631.13
612.14	1622.43
612.49	1613.24
612.83	1604.95
613.18	1596.77
613.53	1588.56
613.88	1580.07
614.22	1571.81
614.57	1563.43
614.92	1555.37
615.27	1547.82
615.61	1539.43
615.96	1531.34
616.31	1523.78
616.65	1516.40
617.00	1508.90
617.35	1501.25
617.70	1492.96
618.04	1484.50
618.39	1476.30
618.74	1468.72
619.08	1460.56
619.43	1452.90
619.78	1446.00
620.12	1438.71
620.47	1431.16
620.82	1423.05
621.16	1415.62
621.51	1408.02
621.85	1400.18
622.20	1391.56
622.55	1383.15
622.89	1375.39
623.24	1367.85
623.59	1360.38
623.93	1352.84
624.28	1345.47
624.62	1337.86
624.97	1330.70
625.32	1323.88
625.66	1316.94
626.01	1309.73
626.35	1302.30
626.70	1294.67
627.04	1286.99
627.39	1279.28
627.73	1271.98
628.08	1265.06
628.43	1257.69
628.77	1250.14
629.12	1242.67
629.46	1235.60
629.81	1228.30
630.15	1221.02
630.50	1213.57
630.84	1205.26
631.19	1197.41
631.53	1189.95
631.88	1182.33
632.22	1174.71
632.57	1167.45
632.91	1159.87
633.26	1152.51
633.60	1145.15
633.95	1138.00
634.29	1131.00
634.64	1124.30
634.98	1116.85
635.32	1109.63
635.67	1103.07
636.01	1096.62
636.36	1089.82
636.70	1083.34
637.05	1076.73
637.39	1070.26
637.73	1063.73
638.08	1057.95
638.42	1052.01
638.77	1045.56
639.11	1039.10
639.45	1032.76
639.80	1026.10
640.14	1019.66
640.49	1013.17
640.83	1006.89
641.17	1000.69
641.52	994.21
641.86	987.84
642.20	981.99
642.55	975.77
642.89	969.20
643.23	962.66
643.58	956.89
643.92	950.64
644.26	944.55
644.61	938.54
644.95	932.48
645.29	925.89
645.64	919.05
645.98	912.74
646.32	906.91
646.66	900.86
647.01	895.05
647.35	889.34
647.69	883.46
648.04	877.87
648.38	872.01
648.72	866.11
649.06	859.96
649.41	854.05
649.75	848.08
650.09	842.21
650.43	836.37
650.78	830.21
651.12	824.33
651.46	818.57
651.80	812.80
652.14	807.42
652.49	802.05
652.83	796.93
653.17	791.17
653.51	785.44
653.85	780.06
654.20	774.33
654.54	768.33
654.88	762.60
655.22	756.72
655.56	751.02
655.90	745.62
656.25	740.44
656.59	735.18
656.93	730.13
657.27	724.91
657.61	719.55
657.95	714.51
658.29	709.40
658.64	704.23
658.98	698.95
659.32	693.45
659.66	688.24
660.00	682.86
660.34	677.95
660.68	673.03
661.02	667.96
661.36	663.31
661.70	658.79
662.05	654.39
662.39	650.07
662.73	645.59
663.07	641.16
663.41	636.71
663.75	632.18
664.09	627.60
664.43	623.17
664.77	619.01
665.11	614.71
665.45	610.59
665.79	606.47
666.13	602.37
666.47	598.32
666.81	594.15
667.15	590.12
667.49	586.15
667.83	582.33
668.17	578.38
668.51	574.25
668.85	570.20
669.19	566.43
669.53	562.57
669.87	558.75
670.21	555.01
670.55	551.37
670.89	547.92
671.23	544.49
671.57	541.07
671.91	537.48
672.25	533.99
672.58	530.44
672.92	527.03
673.26	523.78
673.60	520.57
673.94	517.46
674.28	514.50
674.62	511.63
674.96	508.49
675.30	505.66
675.64	502.73
675.97	500.01
676.31	497.02
676.65	494.13
676.99	491.40
677.33	488.54
677.67	485.71
678.01	482.68
678.34	479.69
678.68	476.81
679.02	474.04
679.36	471.29
679.70	468.60
680.04	465.82
680.37	462.99
680.71	460.22
681.05	457.60
681.39	454.83
681.73	452.19
682.06	449.65
682.40	447.07
682.74	444.54
683.08	441.97
683.42	439.45
683.75	436.96
684.09	434.47
684.43	432.01
684.77	429.53
685.10	427.23
685.44	424.96
685.78	422.66
686.12	420.40
686.45	418.10
686.79	415.75
687.13	413.58
687.46	411.43
687.80	409.29
688.14	407.06
688.48	405.09
688.81	402.83
689.15	400.74
689.49	398.57
689.82	396.47
690.16	394.41
690.50	392.45
690.83	390.50
691.17	388.57
691.51	386.70
691.84	384.88
692.18	382.92
692.52	380.90
692.85	378.98
693.19	377.14
693.52	375.29
693.86	373.48
694.20	371.72
694.53	369.96
694.87	368.13
695.21	366.38
695.54	364.51
695.88	362.77
696.21	361.06
696.55	359.43
696.88	357.78
697.22	356.12
697.56	354.52
697.89	352.88
698.23	351.21
698.56	349.59
698.90	348.03
699.23	346.39
699.57	344.87
699.90	343.36
700.24	341.84
700.58	340.33
700.91	338.84
701.25	337.35
701.58	335.97
701.92	334.60
702.25	333.18
702.59	331.82
702.92	330.50
703.26	329.19
703.59	327.87
703.93	326.67
704.26	325.42
704.60	324.08
704.93	322.79
705.26	321.55
705.60	320.38
705.93	319.17
706.27	318.18
706.60	317.12
706.94	316.03
707.27	314.87
707.61	313.80
707.94	312.74
708.27	311.66
708.61	310.56
708.94	309.54
709.28	308.59
709.61	307.61
709.94	306.67
710.28	305.63
710.61	304.67
710.95	303.61
711.28	302.65
711.61	301.70
711.95	300.75
712.28	299.79
712.61	298.78
712.95	297.85
713.28	296.91
713.61	296.00
713.95	295.07
714.28	294.20
714.61	293.34
714.95	292.52
715.28	291.67
715.61	290.80
715.95	289.93
716.28	289.06
716.61	288.24
716.95	287.43
717.28	286.67
717.61	285.85
717.94	285.10
718.28	284.30
718.61	283.59
718.94	282.95
719.27	282.29
719.61	281.66
719.94	281.03
720.27	280.34
720.60	279.67
720.94	279.07
721.27	278.47
721.60	277.89
721.93	277.28
722.27	276.72
722.60	276.17
722.93	275.64
723.26	275.13
723.59	274.60
723.93	274.06
724.26	273.52
724.59	272.98
724.92	272.49
725.25	272.05
725.59	271.56
725.92	271.02
726.25	270.51
726.58	270.02
726.91	269.50
727.24	269.03
727.57	268.60
727.91	268.11
728.24	267.68
728.57	267.19
728.90	266.76
729.23	266.29
729.56	265.88
729.89	265.42
730.22	264.95
730.55	264.48
730.89	264.02
731.22	263.58
731.55	263.16
731.88	262.72
732.21	262.26
732.54	261.80
732.87	261.40
733.20	261.00
733.53	260.60
733.86	260.25
734.19	259.84
734.52	259.44
734.85	259.13
735.18	258.72
735.51	258.36
735.84	258.03
736.17	257.68
736.50	257.24
736.83	256.97
737.16	256.65
737.49	256.32
737.82	256.00
738.15	255.68
738.48	255.37
738.81	255.06
739.14	254.75
739.47	254.47
739.80	254.18
740.13	253.89
740.46	253.58
740.79	253.26
741.12	252.95
741.45	252.61
741.78	252.27
742.11	251.98
742.44	251.66
742.77	251.31
743.10	251.02
743.43	250.74
743.75	250.38
744.08	250.19
744.41	249.87
744.74	249.58
745.07	249.31
745.40	249.05
745.73	248.81
746.06	248.52
746.39	248.25
746.71	247.96
747.04	247.65
747.37	247.41
747.70	247.12
748.03	246.88
748.36	246.67
748.68	246.38
749.01	246.11
749.34	245.88
749.67	245.71
750.00	245.47
750.33	245.31
750.65	245.10
750.98	244.75
751.31	244.57
751.64	244.39
751.97	244.23
752.29	244.00
752.62	243.72
752.95	243.50
753.28	243.29
753.60	243.08
753.93	242.93
754.26	242.72
754.59	242.53
754.91	242.31
755.24	242.14
755.57	241.96
755.90	241.80
756.22	241.58
756.55	241.33
756.88	241.14
757.20	240.90
757.53	240.70
757.86	240.52
758.19	240.38
758.51	240.19
758.84	239.97
759.17	239.79
759.49	239.65
759.82	239.56
760.15	239.39
760.47	239.21
760.80	239.04
761.13	238.90
761.45	238.76
761.78	238.60
762.11	238.44
762.43	238.32
762.76	238.16
763.08	238.05
763.41	237.93
763.74	237.80
764.06	237.66
764.39	237.53
764.71	237.40
765.04	237.23
765.37	237.09
765.69	236.93
766.02	236.79
766.34	236.68
766.67	236.52
767.00	236.43
767.32	236.38
767.65	236.33
767.97	236.18
768.30	236.07
768.62	235.92
768.95	235.77
769.27	235.66
769.60	235.55
769.92	235.45
770.25	235.33
770.57	235.20
770.90	235.10
771.22	234.99
771.55	234.90
771.87	234.80
772.20	234.67
772.52	234.68
772.85	234.73
773.17	234.61
773.50	234.50
773.82	234.39
774.15	234.25
774.47	234.07
774.80	234.02
775.12	233.95
775.45	233.91
775.77	233.84
776.09	233.75
776.42	233.66
776.74	233.60
777.07	233.53
777.39	233.46
777.72	233.39
778.04	233.33
778.36	233.25
778.69	233.20
779.01	233.14
779.33	232.98
779.66	232.78
779.98	232.72
780.31	232.65
780.63	232.64
780.95	232.60
781.28	232.55
781.60	232.45
781.92	232.40
782.25	232.33
782.57	232.29
782.89	232.26
783.22	232.23
783.54	232.13
783.86	232.08
784.19	232.01
784.51	231.97
784.83	231.89
785.16	231.82
785.48	231.79
785.80	231.74
786.12	231.72
786.45	231.69
786.77	231.66
787.09	231.62
787.42	231.53
787.74	231.50
788.06	231.47
788.38	231.43
788.71	231.36
789.03	231.28
789.35	231.26
789.67	231.21
789.99	231.17
790.32	231.14
790.64	231.10
790.96	231.14
791.28	231.12
791.61	231.10
791.93	231.07
792.25	230.98
792.57	231.03
792.89	230.95
793.21	230.93
793.54	230.86
793.86	230.81
794.18	230.80
794.50	230.71
794.82	230.67
795.14	230.64
795.47	230.61
795.79	230.62
796.11	230.50
796.43	230.47
796.75	230.41
797.07	230.37
797.39	230.35
797.71	230.28
798.04	230.22
798.36	230.21
798.68	230.17
799.00	230.16
799.32	230.06
799.64	230.05
799.96	229.98
800.28	229.95
800.60	229.90
800.92	229.88
801.24	229.86
801.56	229.85
801.89	229.81
802.21	229.80
802.53	229.74
802.85	229.78
803.17	229.74
803.49	229.70
803.81	229.69
804.13	229.60
804.45	229.54
804.77	229.49
805.09	229.46
805.41	229.46
805.73	229.42
806.05	229.36
806.37	229.32
806.69	229.29
807.01	229.28
807.33	229.25
807.65	229.14
807.97	229.14
808.28	229.12
808.60	229.09
808.92	229.04
809.24	229.07
809.56	229.00
809.88	228.98
810.20	228.97
810.52	228.95
810.84	228.90
811.16	228.90
811.48	228.90
811.80	228.89
812.12	228.86
812.43	228.86
812.75	228.84
813.07	228.81
813.39	228.84
813.71	228.78
814.03	228.76
814.35	228.77
814.67	228.72
814.98	228.68
815.30	228.68
815.62	228.66
815.94	228.59
816.26	228.63
816.58	228.60
816.89	228.59
817.21	228.55
817.53	228.60
817.85	228.56
818.17	228.54
818.48	228.47
818.80	228.47
819.12	228.46
819.44	228.45
819.76	228.43
820.07	228.39
820.39	228.41
820.71	228.39
821.03	228.37
821.34	228.35
821.66	228.35
821.98	228.34
822.30	228.34
822.61	228.40
822.93	228.37
823.25	228.32
823.57	228.31
823.88	228.30
824.20	228.27
824.52	228.28
824.83	228.25
825.15	228.24
825.47	228.20
825.79	228.20
826.10	228.18
826.42	228.16
826.74	228.17
827.05	228.17
827.37	228.19
827.69	228.18
828.00	228.20
828.32	228.20
828.64	228.16
828.95	228.17
829.27	228.13
829.58	228.13
829.90	228.17
830.22	228.17
830.53	228.15
830.85	228.15
831.17	228.10
831.48	228.12
831.80	228.13
832.11	228.14
832.43	228.09
832.75	228.09
833.06	228.16
833.38	228.13
833.69	228.11
834.01	228.11
834.32	228.12
834.64	228.11
834.96	228.09
835.27	228.11
835.59	228.09
835.90	228.07
836.22	228.05
836.53	228.02
836.85	228.02
837.16	228.09
837.48	228.08
837.79	228.12
838.11	228.13
838.42	228.13
838.74	228.15
839.05	228.15
839.37	228.15
839.68	228.09
840.00	228.06
840.31	228.09
840.63	228.07
840.94	228.05
841.26	228.00
841.57	228.00
841.88	227.99
842.20	227.97
842.51	227.95
842.83	227.93
843.14	228.00
843.46	227.97
843.77	227.92
844.08	227.92
844.40	227.87
844.71	227.87
845.03	227.83
845.34	227.79
845.65	227.77
845.97	227.75
846.28	227.73
846.60	227.73
846.91	227.65
847.22	227.64
847.54	227.65
847.85	227.63
848.16	227.60
848.48	227.54
848.79	227.56
849.10	227.54
849.42	227.52
849.73	227.43
850.04	227.42
850.36	227.38
850.67	227.37
850.98	227.35
851.30	227.30
851.61	227.29
851.92	227.28
852.23	227.28
852.55	227.28
852.86	227.30
853.17	227.30
853.49	227.33
853.80	227.36
854.11	227.35
854.42	227.34
854.74	227.33
855.05	227.37
855.36	227.32
855.67	227.36
855.99	227.34
856.30	227.48
856.61	227.47
856.92	227.48
857.23	227.48
857.55	227.45
857.86	227.47
858.17	227.49
858.48	227.50
858.79	227.51
859.11	227.48
859.42	227.45
859.73	227.45
860.04	227.48
860.35	227.44
860.66	227.41
860.98	227.41
861.29	227.44
861.60	227.42
861.91	227.47
862.22	227.44
862.53	227.41
862.84	227.28
863.16	227.28
863.47	227.24
863.78	227.23
864.09	227.26
864.40	227.28
864.71	227.28
865.02	227.31
865.33	227.29
865.64	227.29
865.95	227.31
866.27	227.37
866.58	227.34
866.89	227.33
867.20	227.33
867.51	227.33
867.82	227.33
868.13	227.34
868.44	227.32
868.75	227.35
869.06	227.35
869.37	227.36
869.68	227.37
869.99	227.41
870.30	227.44
870.61	227.46
870.92	227.45
871.23	227.45
871.54	227.45
871.85	227.49
872.16	227.52
872.47	227.52
872.78	227.47
873.09	227.49
873.40	227.53
873.71	227.57
874.02	227.61
874.33	227.59
874.64	227.58
874.95	227.59
875.26	227.58
875.56	227.62
875.87	227.61
876.18	227.61
876.49	227.71
876.80	227.68
877.11	227.66
877.42	227.64
877.73	227.63
878.04	227.60
878.35	227.60
878.66	227.60
878.96	227.55
879.27	227.52
879.58	227.49
879.89	227.47
880.20	227.47
880.51	227.44
880.82	227.42
881.12	227.40
881.43	227.38
881.74	227.37
882.05	227.33
882.36	227.34
882.67	227.31
882.97	227.18
883.28	227.17
883.59	227.14
883.90	227.14
884.21	227.13
884.51	227.13
884.82	227.08
885.13	227.04
885.44	227.05
885.74	227.06
886.05	227.04
886.36	227.03
886.67	227.01
886.98	227.06
887.28	227.06
887.59	227.06
887.90	227.06
888.20	227.06
888.51	227.08
888.82	227.02
889.13	227.03
889.43	227.12
889.74	227.11
890.05	227.11
890.35	227.11
890.66	227.08
890.97	227.05
891.28	227.04
891.58	227.07
891.89	227.07
892.20	227.01
892.50	227.00
892.81	226.97
893.12	226.96
893.42	226.90
893.73	226.90
894.04	226.90
894.34	226.88
894.65	226.83
894.95	226.81
895.26	226.80
895.57	226.81
895.87	226.70
896.18	226.73
896.48	226.75
896.79	226.73
897.10	226.75
897.40	226.72
897.71	226.71
898.01	226.68
898.32	226.68
898.63	226.71
898.93	226.73
899.24	226.72
899.54	226.68
899.85	226.68
900.15	226.69
900.46	226.69
900.76	226.70
901.07	226.70
901.38	226.71
901.68	226.76
901.99	226.72
902.29	226.75
902.60	226.74
902.90	226.74
903.21	226.75
903.51	226.74
903.82	226.80
904.12	226.82
904.43	226.83
904.73	226.84
905.03	226.82
905.34	226.92
905.64	226.94
905.95	226.99
906.25	227.02
906.56	227.00
906.86	227.01
907.17	227.02
907.47	227.03
907.77	227.03
908.08	226.99
908.38	227.03
908.69	227.00
908.99	227.00
909.30	226.99
909.60	226.97
909.90	227.00
910.21	226.97
910.51	226.97
910.81	226.97
911.12	226.98
911.42	226.98
911.73	226.88
912.03	226.89
912.33	226.92
912.64	226.86
912.94	226.88
913.24	226.85
913.55	226.85
913.85	226.86
914.15	226.87
914.46	226.91
914.76	226.93
915.06	226.95
915.37	226.96
915.67	226.98
915.97	226.99
916.27	227.03
916.58	227.04
916.88	227.08
917.18	227.08
917.49	227.15
917.79	227.18
918.09	227.22
918.39	227.24
918.70	227.21
919.00	227.26
919.30	227.30
919.60	227.34
919.91	227.32
920.21	227.30
920.51	227.29
920.81	227.27
921.12	227.25
921.42	227.27
921.72	227.29
922.02	227.30
922.32	227.33
922.63	227.31
922.93	227.35
923.23	227.31
923.53	227.30
923.83	227.24
924.13	227.25
924.44	227.22
924.74	227.20
925.04	227.23
925.34	227.23
925.64	227.19
925.94	227.18
926.24	227.20
926.55	227.19
926.85	227.20
927.15	227.21
927.45	227.23
927.75	227.21
928.05	227.21
928.35	227.19
928.65	227.18
928.95	227.16
929.26	227.12
929.56	227.13
929.86	227.11
930.16	227.07
930.46	227.04
930.76	227.07
931.06	227.03
931.36	227.02
931.66	226.98
931.96	227.01
932.26	227.02
932.56	226.99
932.86	227.00
933.16	227.02
933.46	227.01
933.76	226.97
934.06	226.97
934.36	226.94
934.66	226.91
934.96	226.86
935.26	226.84
935.56	226.84
935.86	226.81
936.16	226.81
936.46	226.84
936.76	226.83
937.06	226.77
937.36	226.77
937.66	226.71
937.96	226.73
938.26	226.70
938.56	226.64
938.86	226.64
939.16	226.64
939.46	226.62
939.76	226.60
940.06	226.58
940.35	226.55
940.65	226.55
940.95	226.56
941.25	226.55
941.55	226.54
941.85	226.55
942.15	226.58
942.45	226.58
942.75	226.58
943.04	226.57
943.34	226.64
943.64	226.66
943.94	226.71
944.24	226.68
944.54	226.66
944.84	226.64
945.13	226.61
945.43	226.62
945.73	226.62
946.03	226.65
946.33	226.68
946.62	226.70
946.92	226.69
947.22	226.70
947.52	226.74
947.82	226.76
948.11	226.76
948.41	226.75
948.71	226.75
949.01	226.72
949.31	226.71
949.60	226.67
949.90	226.68
950.20	226.62
950.50	226.65
950.79	226.65
951.09	226.72
951.39	226.74
951.69	226.72
951.98	226.74
952.28	226.72
952.58	226.69
952.87	226.67
953.17	226.69
953.47	226.70
953.76	226.69
954.06	226.67
954.36	226.67
954.66	226.63
954.95	226.67
955.25	226.70
955.55	226.72
955.84	226.67
956.14	226.67
956.44	226.72
956.73	226.72
957.03	226.74
957.32	226.73
957.62	226.70
957.92	226.74
958.21	226.72
958.51	226.84
958.81	226.87
959.10	226.88
959.40	226.89
959.69	226.88
959.99	226.90
960.29	226.87
960.58	226.88
960.88	226.95
961.17	226.89
961.47	226.90
961.76	226.88
962.06	226.95
962.36	226.94
962.65	226.93
962.95	226.91
963.24	226.91
963.54	226.88
963.83	226.92
964.13	226.93
964.42	226.90
964.72	226.82
965.01	226.80
965.31	226.78
965.60	226.76
965.90	226.82
966.19	226.78
966.49	226.78
966.78	226.74
967.08	226.73
967.37	226.74
967.67	226.69
967.96	226.69
968.26	226.66
968.55	226.69
968.85	226.68
969.14	226.65
969.43	226.65
969.73	226.65
970.02	226.63
970.32	226.59
970.61	226.58
970.91	226.53
971.20	226.49
971.49	226.50
971.79	226.46
972.08	226.36
972.38	226.34
972.67	226.35
972.96	226.37
973.26	226.34
973.55	226.37
973.85	226.37
974.14	226.35
974.43	226.36
974.73	226.31
975.02	226.30
975.31	226.31
975.61	226.29
975.90	226.29
976.19	226.29
976.49	226.29
976.78	226.28
977.07	226.30
977.37	226.32
977.66	226.32
977.95	226.36
978.24	226.38
978.54	226.43
978.83	226.41
979.12	226.45
979.42	226.45
979.71	226.42
980.00	226.40
980.29	226.44
980.59	226.43
980.88	226.44
981.17	226.42
981.46	226.43
981.76	226.43
982.05	226.46
982.34	226.45
982.63	226.45
982.93	226.46
983.22	226.50
983.51	226.49
983.80	226.50
984.09	226.51
984.39	226.53
984.68	226.51
984.97	226.50
985.26	226.44
985.55	226.46
985.85	226.46
986.14	226.53
986.43	226.52
986.72	226.50
987.01	226.49
987.30	226.53
987.59	226.53
987.89	226.55
988.18	226.53
988.47	226.55
988.76	226.50
989.05	226.50
989.34	226.51
989.63	226.55
989.92	226.54
990.22	226.54
990.51	226.53
990.80	226.56
991.09	226.62
991.38	226.66
991.67	226.65
991.96	226.64
992.25	226.62
992.54	226.63
992.83	226.66
993.12	226.67
993.41	226.68
993.70	226.73
993.99	226.77
994.28	226.80
994.58	226.79
994.87	226.83
995.16	226.85
995.45	226.81
995.74	226.78
996.03	226.79
996.32	226.81
996.61	226.83
996.90	226.84
997.19	226.82
997.48	226.81
997.77	226.79
998.06	226.80
998.34	226.80
998.63	226.80
998.92	226.81
999.21	226.83
999.50	226.82
999.79	226.78
1000.08	226.77
1000.37	226.77
1000.66	226.78
1000.95	226.83
1001.24	226.84
1001.53	226.86
1001.82	226.85
1002.11	226.85
1002.40	226.85
1002.68	226.87
1002.97	226.92
1003.26	226.91
1003.55	226.91
1003.84	226.93
1004.13	226.99
1004.42	227.02
1004.71	227.03
1004.99	227.00
1005.28	227.03
1005.57	227.04
1005.86	227.03
1006.15	227.03
1006.44	226.98
1006.72	226.98
1007.01	226.95
1007.30	226.92
1007.59	226.94
1007.88	226.96
1008.17	226.94
1008.45	226.92
1008.74	226.88
1009.03	226.83
1009.32	226.81
1009.60	226.79
1009.89	226.79
1010.18	226.69
1010.47	226.69
1010.76	226.67
1011.04	226.69
1011.33	226.66
1011.62	226.64
1011.91	226.62
1012.19	226.60
1012.48	226.63
1012.77	226.61
1013.05	226.68
1013.34	226.70
1013.63	226.67
1013.92	226.65
1014.20	226.65
1014.49	226.67
1014.78	226.69
1015.06	226.66
1015.35	226.68
1015.64	226.68
1015.92	226.69
1016.21	226.70
1016.50	226.68
1016.78	226.68
1017.07	226.66
1017.36	226.63
1017.64	226.63
1017.93	226.67
1018.22	226.65
1018.50	226.62
1018.79	226.63
1019.08	226.54
1019.36	226.52
1019.65	226.51
1019.93	226.54
1020.22	226.53
1020.51	226.56
1020.79	226.54
1021.08	226.24
1021.36	226.24
1021.65	226.33
1021.94	226.04
1022.22	226.69
1022.51	226.17
1022.79	227.10
1023.08	226.23
1023.36	227.72
1023.65	226.56
>>>>>End Processed Spectral Data<<<<<
