SpectraSuite Data File
++++++++++++++++++++++++++++++++++++
Date: Fri Feb 01 14:59:02 EST 2013
User: group
Dark Spectrum Present: No
Reference Spectrum Present: No
Number of Sampled Component Spectra: 1
Spectrometers: USB2E7196
Integration Time (usec): 35000 (USB2E7196)
Spectra Averaged: 100 (USB2E7196)
Boxcar Smoothing: 10 (USB2E7196)
Correct for Electrical Dark: No (USB2E7196)
Strobe/Lamp Enabled: No (USB2E7196)
Correct for Detector Non-linearity: No (USB2E7196)
Correct for Stray Light: No (USB2E7196)
Number of Pixels in Processed Spectrum: 2048
>>>>>Begin Processed Spectral Data<<<<<
339.09	0.00
339.48	215.33
339.86	216.77
340.24	218.11
340.63	219.98
341.01	221.94
341.39	221.94
341.78	223.93
342.16	224.58
342.54	225.73
342.93	213.63
343.31	224.42
343.69	224.98
344.07	225.43
344.46	225.88
344.84	226.23
345.22	226.50
345.60	226.77
345.99	226.95
346.37	227.06
346.75	227.11
347.13	227.22
347.52	227.25
347.90	227.29
348.28	227.29
348.66	227.36
349.05	227.36
349.43	227.40
349.81	227.45
350.19	227.54
350.57	227.59
350.96	227.63
351.34	227.70
351.72	227.76
352.10	227.83
352.48	227.86
352.87	227.93
353.25	227.96
353.63	228.01
354.01	228.08
354.39	228.15
354.77	228.25
355.15	228.32
355.54	228.40
355.92	228.42
356.30	228.48
356.68	228.58
357.06	228.65
357.44	228.72
357.82	228.74
358.20	228.80
358.58	228.86
358.97	228.91
359.35	228.97
359.73	229.02
360.11	229.10
360.49	229.14
360.87	229.16
361.25	229.25
361.63	229.33
362.01	229.32
362.39	229.38
362.77	229.39
363.15	229.43
363.53	229.41
363.91	229.45
364.29	229.48
364.67	229.38
365.05	229.41
365.43	229.41
365.81	229.41
366.19	229.43
366.57	229.48
366.95	229.45
367.33	229.44
367.71	229.45
368.09	229.44
368.47	229.41
368.85	229.40
369.23	229.35
369.61	229.27
369.99	229.31
370.37	229.26
370.75	229.25
371.13	229.18
371.51	229.15
371.89	229.12
372.27	229.07
372.65	229.04
373.03	228.97
373.41	228.89
373.78	228.83
374.16	228.72
374.54	228.61
374.92	228.56
375.30	228.51
375.68	228.38
376.06	228.30
376.44	228.27
376.82	228.17
377.19	228.10
377.57	227.99
377.95	227.88
378.33	227.82
378.71	227.70
379.09	227.65
379.47	227.57
379.84	227.44
380.22	227.35
380.60	227.26
380.98	227.16
381.36	227.12
381.73	227.03
382.11	226.96
382.49	226.91
382.87	226.81
383.25	226.73
383.62	226.82
384.00	226.74
384.38	226.66
384.76	226.63
385.13	226.61
385.51	226.61
385.89	226.53
386.27	226.49
386.64	226.48
387.02	226.44
387.40	226.40
387.78	226.41
388.15	226.39
388.53	226.37
388.91	226.35
389.29	226.32
389.66	226.34
390.04	226.31
390.42	226.32
390.79	226.33
391.17	226.33
391.55	226.19
391.92	226.19
392.30	226.21
392.68	226.21
393.05	226.20
393.43	226.20
393.81	226.21
394.18	226.18
394.56	226.18
394.94	226.23
395.31	226.28
395.69	226.34
396.06	226.40
396.44	226.46
396.82	226.49
397.19	226.60
397.57	226.62
397.95	226.70
398.32	226.75
398.70	226.83
399.07	226.92
399.45	226.99
399.82	227.09
400.20	227.17
400.58	227.24
400.95	227.31
401.33	227.41
401.70	227.59
402.08	227.75
402.45	227.87
402.83	227.97
403.20	228.07
403.58	228.20
403.95	228.34
404.33	228.48
404.71	228.66
405.08	228.84
405.46	229.01
405.83	229.24
406.21	229.40
406.58	229.58
406.96	229.76
407.33	229.99
407.70	230.20
408.08	230.47
408.45	230.69
408.83	230.94
409.20	231.21
409.58	231.40
409.95	231.68
410.33	231.95
410.70	232.24
411.08	232.56
411.45	232.85
411.82	233.18
412.20	233.53
412.57	233.93
412.95	234.23
413.32	234.64
413.69	234.97
414.07	235.40
414.44	235.87
414.82	236.32
415.19	236.86
415.56	237.40
415.94	237.94
416.31	238.60
416.68	239.21
417.06	239.89
417.43	240.58
417.81	241.31
418.18	242.11
418.55	242.92
418.93	243.76
419.30	244.65
419.67	245.54
420.04	246.51
420.42	247.49
420.79	248.61
421.16	249.77
421.54	250.99
421.91	252.16
422.28	253.43
422.66	254.75
423.03	256.05
423.40	257.35
423.77	258.75
424.15	260.19
424.52	261.69
424.89	263.28
425.26	264.81
425.64	266.27
426.01	267.84
426.38	269.51
426.75	271.17
427.13	272.86
427.50	274.71
427.87	276.58
428.24	278.46
428.61	280.26
428.99	282.16
429.36	284.26
429.73	286.38
430.10	288.37
430.47	290.44
430.85	292.54
431.22	294.82
431.59	297.26
431.96	299.50
432.33	301.99
432.70	304.40
433.08	307.21
433.45	309.85
433.82	312.49
434.19	315.36
434.56	318.20
434.93	320.90
435.30	323.50
435.68	326.38
436.05	329.23
436.42	332.03
436.79	334.60
437.16	337.30
437.53	340.12
437.90	342.96
438.27	345.68
438.64	348.53
439.01	351.06
439.38	353.29
439.75	355.46
440.13	357.94
440.50	360.23
440.87	362.09
441.24	364.03
441.61	366.19
441.98	367.72
442.35	369.52
442.72	371.39
443.09	373.26
443.46	374.25
443.83	374.80
444.20	375.27
444.57	376.15
444.94	376.44
445.31	376.77
445.68	377.08
446.05	377.18
446.42	376.78
446.79	376.43
447.16	375.97
447.53	375.62
447.90	374.47
448.27	373.39
448.64	371.82
449.01	370.67
449.37	368.69
449.74	366.78
450.11	364.54
450.48	362.07
450.85	359.52
451.22	357.40
451.59	355.39
451.96	353.52
452.33	350.91
452.70	348.57
453.07	345.71
453.43	342.86
453.80	340.11
454.17	337.48
454.54	334.91
454.91	332.22
455.28	329.56
455.65	327.10
456.02	324.62
456.38	322.48
456.75	319.85
457.12	317.55
457.49	315.31
457.86	313.17
458.23	311.30
458.59	309.24
458.96	307.13
459.33	305.27
459.70	303.36
460.07	301.82
460.43	300.09
460.80	298.47
461.17	296.98
461.54	295.48
461.91	294.03
462.27	292.61
462.64	291.31
463.01	289.97
463.38	288.62
463.74	287.23
464.11	286.03
464.48	285.00
464.85	283.93
465.21	283.07
465.58	282.09
465.95	280.97
466.32	280.03
466.68	279.12
467.05	278.23
467.42	277.31
467.78	276.38
468.15	275.51
468.52	274.86
468.88	274.02
469.25	273.25
469.62	272.60
469.98	271.90
470.35	271.24
470.72	270.63
471.08	269.95
471.45	269.38
471.82	268.86
472.18	268.25
472.55	267.78
472.92	267.24
473.28	266.78
473.65	266.35
474.02	265.88
474.38	265.47
474.75	265.13
475.11	264.78
475.48	264.47
475.85	264.20
476.21	263.93
476.58	263.72
476.94	263.54
477.31	263.34
477.67	263.17
478.04	263.06
478.41	262.97
478.77	263.02
479.14	262.96
479.50	262.92
479.87	262.97
480.23	263.04
480.60	263.08
480.96	263.16
481.33	263.34
481.69	263.56
482.06	263.76
482.42	263.94
482.79	264.20
483.15	264.54
483.52	264.91
483.88	265.25
484.25	265.62
484.61	266.04
484.98	266.49
485.34	267.04
485.71	267.60
486.07	268.21
486.44	268.77
486.80	269.48
487.17	270.22
487.53	271.03
487.90	271.84
488.26	272.78
488.62	273.76
488.99	274.72
489.35	275.75
489.72	276.88
490.08	278.06
490.44	279.25
490.81	280.57
491.17	281.89
491.54	283.39
491.90	284.90
492.26	286.55
492.63	288.29
492.99	290.07
493.36	291.97
493.72	294.02
494.08	296.13
494.45	298.33
494.81	300.69
495.17	303.06
495.54	305.64
495.90	308.32
496.26	311.08
496.63	314.01
496.99	317.06
497.35	320.29
497.72	323.71
498.08	327.22
498.44	330.80
498.80	334.76
499.17	338.72
499.53	342.89
499.89	347.19
500.26	351.69
500.62	356.28
500.98	361.21
501.34	366.25
501.71	371.52
502.07	376.95
502.43	382.55
502.79	388.34
503.16	394.39
503.52	400.55
503.88	406.97
504.24	413.68
504.60	420.58
504.97	427.71
505.33	434.99
505.69	442.67
506.05	450.47
506.41	458.29
506.78	466.47
507.14	474.87
507.50	483.61
507.86	492.61
508.22	501.83
508.59	510.98
508.95	520.48
509.31	530.20
509.67	540.31
510.03	550.57
510.39	561.16
510.75	571.92
511.12	582.91
511.48	594.12
511.84	605.44
512.20	616.88
512.56	628.80
512.92	641.03
513.28	653.27
513.64	665.71
514.00	678.50
514.37	691.51
514.73	704.62
515.09	717.66
515.45	730.90
515.81	744.47
516.17	758.53
516.53	772.71
516.89	786.94
517.25	801.06
517.61	815.47
517.97	829.97
518.33	844.49
518.69	859.35
519.05	874.42
519.41	889.65
519.77	905.24
520.13	920.73
520.49	936.05
520.85	951.62
521.21	967.38
521.57	983.58
521.93	999.42
522.29	1015.88
522.65	1032.16
523.01	1048.52
523.37	1064.71
523.73	1080.85
524.09	1096.94
524.45	1113.35
524.81	1130.12
525.17	1147.01
525.53	1163.90
525.89	1180.70
526.25	1197.52
526.61	1213.96
526.97	1230.83
527.33	1247.43
527.68	1263.98
528.04	1280.68
528.40	1297.49
528.76	1314.69
529.12	1331.39
529.48	1348.24
529.84	1364.37
530.20	1381.10
530.56	1398.16
530.91	1415.44
531.27	1432.32
531.63	1448.93
531.99	1465.65
532.35	1481.72
532.71	1497.74
533.07	1514.14
533.42	1530.21
533.78	1546.30
534.14	1562.63
534.50	1578.08
534.86	1593.98
535.21	1609.40
535.57	1625.31
535.93	1640.81
536.29	1655.65
536.65	1670.81
537.00	1685.70
537.36	1701.04
537.72	1715.69
538.08	1730.26
538.44	1744.30
538.79	1758.39
539.15	1772.33
539.51	1786.16
539.87	1800.53
540.22	1814.31
540.58	1828.23
540.94	1841.68
541.29	1854.80
541.65	1867.61
542.01	1880.97
542.37	1893.39
542.72	1905.88
543.08	1917.65
543.44	1930.11
543.79	1941.50
544.15	1952.44
544.51	1964.09
544.87	1975.12
545.22	1986.02
545.58	1996.10
545.94	2005.84
546.29	2015.52
546.65	2025.14
547.01	2034.46
547.36	2043.28
547.72	2051.82
548.07	2059.59
548.43	2067.90
548.79	2075.90
549.14	2083.47
549.50	2090.75
549.86	2098.68
550.21	2106.10
550.57	2113.28
550.92	2119.88
551.28	2126.99
551.64	2134.21
551.99	2140.73
552.35	2146.94
552.70	2153.02
553.06	2159.05
553.41	2165.31
553.77	2171.53
554.13	2177.66
554.48	2183.54
554.84	2188.83
555.19	2194.09
555.55	2199.21
555.90	2203.54
556.26	2208.34
556.61	2213.08
556.97	2217.12
557.32	2221.12
557.68	2225.11
558.03	2229.57
558.39	2233.23
558.74	2237.65
559.10	2241.33
559.45	2244.93
559.81	2249.13
560.16	2252.98
560.52	2256.10
560.87	2259.51
561.23	2261.97
561.58	2264.97
561.94	2267.44
562.29	2270.03
562.64	2272.62
563.00	2275.21
563.35	2278.71
563.71	2281.82
564.06	2284.93
564.42	2287.79
564.77	2290.08
565.12	2292.10
565.48	2293.76
565.83	2295.47
566.19	2296.73
566.54	2297.64
566.89	2298.72
567.25	2299.19
567.60	2300.43
567.96	2302.08
568.31	2302.87
568.66	2303.81
569.02	2304.19
569.37	2304.38
569.72	2304.89
570.08	2304.93
570.43	2304.71
570.78	2303.69
571.14	2301.97
571.49	2300.41
571.84	2299.84
572.20	2298.43
572.55	2297.42
572.90	2295.80
573.26	2294.28
573.61	2292.42
573.96	2290.44
574.31	2287.18
574.67	2284.09
575.02	2280.27
575.37	2276.71
575.72	2272.73
576.08	2269.30
576.43	2265.95
576.78	2262.21
577.13	2258.90
577.49	2255.61
577.84	2252.16
578.19	2248.50
578.54	2244.55
578.90	2240.22
579.25	2234.75
579.60	2229.65
579.95	2224.42
580.30	2219.17
580.66	2213.77
581.01	2208.74
581.36	2203.55
581.71	2199.25
582.06	2194.53
582.42	2189.91
582.77	2184.48
583.12	2179.72
583.47	2174.82
583.82	2169.51
584.17	2164.09
584.53	2158.42
584.88	2152.72
585.23	2146.58
585.58	2140.94
585.93	2135.56
586.28	2130.71
586.63	2125.43
586.98	2120.39
587.34	2115.62
587.69	2110.61
588.04	2105.25
588.39	2099.45
588.74	2093.05
589.09	2086.73
589.44	2079.83
589.79	2073.69
590.14	2068.09
590.49	2061.43
590.84	2055.06
591.19	2048.88
591.54	2042.37
591.89	2034.83
592.25	2027.75
592.60	2020.63
592.95	2012.94
593.30	2005.36
593.65	1997.64
594.00	1990.52
594.35	1983.15
594.70	1975.01
595.05	1967.71
595.40	1960.44
595.75	1952.85
596.10	1946.50
596.45	1939.63
596.80	1933.37
597.15	1926.54
597.50	1919.25
597.85	1912.82
598.19	1906.07
598.54	1898.96
598.89	1892.20
599.24	1886.37
599.59	1879.57
599.94	1873.20
600.29	1866.89
600.64	1860.40
600.99	1852.85
601.34	1845.90
601.69	1838.94
602.04	1831.92
602.39	1824.44
602.74	1817.51
603.08	1810.76
603.43	1804.00
603.78	1796.83
604.13	1789.63
604.48	1782.40
604.83	1775.63
605.18	1768.41
605.53	1760.28
605.87	1752.25
606.22	1745.11
606.57	1737.12
606.92	1729.99
607.27	1722.82
607.62	1715.82
607.96	1708.44
608.31	1701.77
608.66	1694.07
609.01	1686.45
609.36	1679.03
609.70	1671.17
610.05	1663.10
610.40	1655.38
610.75	1646.97
611.10	1639.36
611.44	1631.01
611.79	1622.96
612.14	1614.22
612.49	1605.24
612.83	1597.00
613.18	1589.01
613.53	1580.90
613.88	1572.41
614.22	1564.10
614.57	1555.57
614.92	1547.63
615.27	1540.07
615.61	1531.79
615.96	1524.02
616.31	1516.40
616.65	1508.99
617.00	1501.44
617.35	1493.85
617.70	1485.27
618.04	1476.90
618.39	1468.51
618.74	1460.97
619.08	1452.75
619.43	1445.37
619.78	1438.39
620.12	1431.25
620.47	1423.65
620.82	1415.54
621.16	1408.20
621.51	1400.62
621.85	1393.03
622.20	1384.47
622.55	1376.08
622.89	1368.35
623.24	1360.75
623.59	1353.46
623.93	1345.89
624.28	1338.70
624.62	1331.16
624.97	1324.24
625.32	1317.47
625.66	1310.52
626.01	1303.16
626.35	1295.69
626.70	1287.80
627.04	1280.15
627.39	1272.34
627.73	1264.94
628.08	1257.97
628.43	1250.58
628.77	1243.26
629.12	1235.67
629.46	1228.52
629.81	1221.32
630.15	1214.12
630.50	1206.70
630.84	1198.53
631.19	1190.77
631.53	1183.33
631.88	1175.86
632.22	1168.30
632.57	1160.97
632.91	1153.61
633.26	1146.27
633.60	1139.07
633.95	1132.15
634.29	1125.25
634.64	1118.64
634.98	1111.35
635.32	1104.30
635.67	1097.95
636.01	1091.32
636.36	1084.61
636.70	1078.23
637.05	1071.72
637.39	1065.40
637.73	1058.91
638.08	1053.05
638.42	1046.97
638.77	1040.50
639.11	1033.90
639.45	1027.58
639.80	1021.02
640.14	1014.54
640.49	1008.15
640.83	1001.87
641.17	995.58
641.52	989.29
641.86	983.00
642.20	977.24
642.55	971.04
642.89	964.54
643.23	958.07
643.58	952.33
643.92	946.08
644.26	939.99
644.61	933.90
644.95	927.97
645.29	921.39
645.64	914.85
645.98	908.68
646.32	902.88
646.66	896.92
647.01	891.22
647.35	885.59
647.69	879.76
648.04	874.31
648.38	868.55
648.72	862.51
649.06	856.40
649.41	850.46
649.75	844.46
650.09	838.50
650.43	832.69
650.78	826.55
651.12	820.64
651.46	814.95
651.80	809.16
652.14	803.84
652.49	798.52
652.83	793.30
653.17	787.58
653.51	781.93
653.85	776.55
654.20	770.91
654.54	764.93
654.88	759.24
655.22	753.33
655.56	747.65
655.90	742.22
656.25	737.02
656.59	731.70
656.93	726.58
657.27	721.49
657.61	716.16
657.95	711.09
658.29	706.03
658.64	700.78
658.98	695.58
659.32	690.06
659.66	684.89
660.00	679.59
660.34	674.64
660.68	669.75
661.02	664.75
661.36	660.03
661.70	655.64
662.05	651.29
662.39	646.96
662.73	642.57
663.07	638.27
663.41	633.81
663.75	629.39
664.09	624.94
664.43	620.61
664.77	616.49
665.11	612.24
665.45	608.20
665.79	604.12
666.13	599.98
666.47	595.93
666.81	591.68
667.15	587.67
667.49	583.85
667.83	580.12
668.17	576.14
668.51	572.08
668.85	567.99
669.19	564.21
669.53	560.39
669.87	556.54
670.21	552.86
670.55	549.28
670.89	545.93
671.23	542.45
671.57	538.94
671.91	535.39
672.25	532.00
672.58	528.50
672.92	525.19
673.26	522.07
673.60	518.93
673.94	515.92
674.28	513.01
674.62	510.03
674.96	506.92
675.30	504.09
675.64	501.23
675.97	498.56
676.31	495.69
676.65	492.83
676.99	490.15
677.33	487.28
677.67	484.42
678.01	481.37
678.34	478.41
678.68	475.54
679.02	472.75
679.36	470.02
679.70	467.34
680.04	464.56
680.37	461.68
680.71	458.97
681.05	456.42
681.39	453.77
681.73	451.17
682.06	448.59
682.40	446.10
682.74	443.59
683.08	441.03
683.42	438.47
683.75	435.98
684.09	433.43
684.43	431.02
684.77	428.64
685.10	426.31
685.44	424.10
685.78	421.87
686.12	419.69
686.45	417.43
686.79	415.16
687.13	412.99
687.46	410.86
687.80	408.72
688.14	406.49
688.48	404.41
688.81	402.15
689.15	400.04
689.49	397.89
689.82	395.82
690.16	393.72
690.50	391.79
690.83	389.86
691.17	387.87
691.51	386.02
691.84	384.16
692.18	382.27
692.52	380.26
692.85	378.30
693.19	376.40
693.52	374.57
693.86	372.72
694.20	370.96
694.53	369.14
694.87	367.29
695.21	365.51
695.54	363.70
695.88	362.00
696.21	360.31
696.55	358.62
696.88	356.97
697.22	355.38
697.56	353.74
697.89	352.09
698.23	350.55
698.56	348.90
698.90	347.28
699.23	345.65
699.57	344.14
699.90	342.62
700.24	341.08
700.58	339.54
700.91	338.05
701.25	336.64
701.58	335.32
701.92	333.96
702.25	332.66
702.59	331.23
702.92	329.93
703.26	328.61
703.59	327.30
703.93	326.14
704.26	324.90
704.60	323.64
704.93	322.38
705.26	321.13
705.60	320.00
705.93	318.91
706.27	317.86
706.60	316.83
706.94	315.74
707.27	314.68
707.61	313.66
707.94	312.67
708.27	311.57
708.61	310.49
708.94	309.49
709.28	308.50
709.61	307.59
709.94	306.63
710.28	305.66
710.61	304.74
710.95	303.70
711.28	302.78
711.61	301.84
711.95	300.90
712.28	299.98
712.61	299.01
712.95	298.07
713.28	297.23
713.61	296.35
713.95	295.46
714.28	294.60
714.61	293.74
714.95	292.91
715.28	292.05
715.61	291.19
715.95	290.37
716.28	289.52
716.61	288.67
716.95	287.90
717.28	287.16
717.61	286.38
717.94	285.64
718.28	284.80
718.61	284.08
718.94	283.44
719.27	282.75
719.61	282.12
719.94	281.48
720.27	280.74
720.60	280.05
720.94	279.45
721.27	278.88
721.60	278.28
721.93	277.67
722.27	277.15
722.60	276.62
722.93	276.06
723.26	275.52
723.59	275.02
723.93	274.46
724.26	273.90
724.59	273.39
724.92	272.86
725.25	272.41
725.59	271.90
725.92	271.37
726.25	270.88
726.58	270.41
726.91	269.91
727.24	269.46
727.57	268.99
727.91	268.48
728.24	267.99
728.57	267.54
728.90	267.07
729.23	266.56
729.56	266.15
729.89	265.65
730.22	265.15
730.55	264.67
730.89	264.23
731.22	263.82
731.55	263.36
731.88	262.92
732.21	262.47
732.54	262.05
732.87	261.62
733.20	261.22
733.53	260.83
733.86	260.44
734.19	260.01
734.52	259.66
734.85	259.34
735.18	258.91
735.51	258.51
735.84	258.14
736.17	257.82
736.50	257.36
736.83	257.12
737.16	256.80
737.49	256.44
737.82	256.09
738.15	255.71
738.48	255.38
738.81	255.03
739.14	254.71
739.47	254.39
739.80	254.07
740.13	253.75
740.46	253.39
740.79	253.03
741.12	252.73
741.45	252.40
741.78	252.05
742.11	251.77
742.44	251.47
742.77	251.17
743.10	250.85
743.43	250.57
743.75	250.20
744.08	250.07
744.41	249.81
744.74	249.52
745.07	249.27
745.40	249.00
745.73	248.74
746.06	248.49
746.39	248.23
746.71	247.96
747.04	247.69
747.37	247.43
747.70	247.26
748.03	247.03
748.36	246.82
748.68	246.60
749.01	246.35
749.34	246.13
749.67	245.93
750.00	245.67
750.33	245.52
750.65	245.35
750.98	245.00
751.31	244.76
751.64	244.55
751.97	244.39
752.29	244.17
752.62	243.93
752.95	243.68
753.28	243.47
753.60	243.31
753.93	243.18
754.26	243.03
754.59	242.76
754.91	242.53
755.24	242.34
755.57	242.14
755.90	241.97
756.22	241.77
756.55	241.55
756.88	241.37
757.20	241.15
757.53	240.93
757.86	240.77
758.19	240.67
758.51	240.53
758.84	240.32
759.17	240.19
759.49	240.06
759.82	240.00
760.15	239.87
760.47	239.71
760.80	239.51
761.13	239.35
761.45	239.24
761.78	239.11
762.11	238.98
762.43	238.87
762.76	238.77
763.08	238.64
763.41	238.55
763.74	238.45
764.06	238.34
764.39	238.19
764.71	238.05
765.04	237.88
765.37	237.75
765.69	237.64
766.02	237.47
766.34	237.34
766.67	237.20
767.00	237.11
767.32	237.03
767.65	237.00
767.97	236.88
768.30	236.74
768.62	236.64
768.95	236.54
769.27	236.39
769.60	236.28
769.92	236.17
770.25	236.02
770.57	235.91
770.90	235.76
771.22	235.67
771.55	235.57
771.87	235.48
772.20	235.38
772.52	235.34
772.85	235.36
773.17	235.27
773.50	235.12
773.82	235.00
774.15	234.83
774.47	234.64
774.80	234.53
775.12	234.47
775.45	234.37
775.77	234.29
776.09	234.21
776.42	234.12
776.74	234.03
777.07	233.92
777.39	233.81
777.72	233.74
778.04	233.68
778.36	233.60
778.69	233.52
779.01	233.45
779.33	233.28
779.66	233.11
779.98	233.08
780.31	232.97
780.63	232.96
780.95	232.91
781.28	232.88
781.60	232.81
781.92	232.71
782.25	232.66
782.57	232.57
782.89	232.51
783.22	232.42
783.54	232.37
783.86	232.31
784.19	232.27
784.51	232.23
784.83	232.15
785.16	232.08
785.48	232.02
785.80	231.95
786.12	231.92
786.45	231.82
786.77	231.75
787.09	231.72
787.42	231.59
787.74	231.55
788.06	231.48
788.38	231.42
788.71	231.36
789.03	231.29
789.35	231.28
789.67	231.23
789.99	231.19
790.32	231.13
790.64	231.15
790.96	231.18
791.28	231.09
791.61	231.06
791.93	231.00
792.25	230.96
792.57	230.99
792.89	230.93
793.21	230.94
793.54	230.89
793.86	230.87
794.18	230.85
794.50	230.80
794.82	230.77
795.14	230.77
795.47	230.81
795.79	230.79
796.11	230.70
796.43	230.68
796.75	230.66
797.07	230.66
797.39	230.59
797.71	230.50
798.04	230.51
798.36	230.48
798.68	230.48
799.00	230.47
799.32	230.40
799.64	230.42
799.96	230.38
800.28	230.37
800.60	230.35
800.92	230.31
801.24	230.29
801.56	230.31
801.89	230.30
802.21	230.23
802.53	230.18
802.85	230.20
803.17	230.19
803.49	230.14
803.81	230.08
804.13	230.07
804.45	230.03
804.77	229.99
805.09	229.99
805.41	229.94
805.73	229.88
806.05	229.86
806.37	229.81
806.69	229.80
807.01	229.77
807.33	229.77
807.65	229.71
807.97	229.74
808.28	229.70
808.60	229.66
808.92	229.63
809.24	229.69
809.56	229.64
809.88	229.61
810.20	229.60
810.52	229.63
810.84	229.57
811.16	229.52
811.48	229.51
811.80	229.51
812.12	229.47
812.43	229.47
812.75	229.43
813.07	229.41
813.39	229.38
813.71	229.35
814.03	229.30
814.35	229.28
814.67	229.24
814.98	229.19
815.30	229.13
815.62	229.09
815.94	228.99
816.26	228.99
816.58	228.96
816.89	228.94
817.21	228.88
817.53	228.91
817.85	228.95
818.17	228.92
818.48	228.88
818.80	228.90
819.12	228.86
819.44	228.86
819.76	228.81
820.07	228.78
820.39	228.73
820.71	228.73
821.03	228.72
821.34	228.69
821.66	228.71
821.98	228.72
822.30	228.72
822.61	228.76
822.93	228.71
823.25	228.68
823.57	228.65
823.88	228.65
824.20	228.61
824.52	228.56
824.83	228.54
825.15	228.50
825.47	228.47
825.79	228.43
826.10	228.38
826.42	228.37
826.74	228.37
827.05	228.35
827.37	228.32
827.69	228.32
828.00	228.30
828.32	228.28
828.64	228.25
828.95	228.30
829.27	228.25
829.58	228.23
829.90	228.24
830.22	228.23
830.53	228.21
830.85	228.19
831.17	228.15
831.48	228.14
831.80	228.13
832.11	228.16
832.43	228.19
832.75	228.18
833.06	228.23
833.38	228.21
833.69	228.23
834.01	228.26
834.32	228.25
834.64	228.25
834.96	228.24
835.27	228.22
835.59	228.16
835.90	228.17
836.22	228.16
836.53	228.13
836.85	228.14
837.16	228.25
837.48	228.27
837.79	228.31
838.11	228.30
838.42	228.31
838.74	228.29
839.05	228.29
839.37	228.30
839.68	228.25
840.00	228.24
840.31	228.25
840.63	228.24
840.94	228.24
841.26	228.20
841.57	228.20
841.88	228.21
842.20	228.20
842.51	228.21
842.83	228.22
843.14	228.28
843.46	228.29
843.77	228.23
844.08	228.23
844.40	228.25
844.71	228.25
845.03	228.27
845.34	228.26
845.65	228.27
845.97	228.26
846.28	228.28
846.60	228.33
846.91	228.32
847.22	228.30
847.54	228.29
847.85	228.34
848.16	228.36
848.48	228.34
848.79	228.39
849.10	228.38
849.42	228.38
849.73	228.33
850.04	228.31
850.36	228.24
850.67	228.20
850.98	228.17
851.30	228.18
851.61	228.14
851.92	228.13
852.23	228.13
852.55	228.15
852.86	228.13
853.17	228.09
853.49	228.07
853.80	228.10
854.11	228.12
854.42	228.12
854.74	228.09
855.05	228.10
855.36	228.02
855.67	228.03
855.99	228.03
856.30	228.11
856.61	228.13
856.92	228.15
857.23	228.16
857.55	228.14
857.86	228.11
858.17	228.14
858.48	228.09
858.79	228.06
859.11	228.05
859.42	228.05
859.73	228.04
860.04	228.06
860.35	228.01
860.66	227.96
860.98	227.93
861.29	227.91
861.60	227.89
861.91	227.89
862.22	227.87
862.53	227.86
862.84	227.77
863.16	227.77
863.47	227.78
863.78	227.78
864.09	227.79
864.40	227.83
864.71	227.82
865.02	227.84
865.33	227.85
865.64	227.84
865.95	227.79
866.27	227.79
866.58	227.77
866.89	227.76
867.20	227.77
867.51	227.75
867.82	227.73
868.13	227.76
868.44	227.75
868.75	227.74
869.06	227.74
869.37	227.73
869.68	227.66
869.99	227.66
870.30	227.62
870.61	227.62
870.92	227.55
871.23	227.53
871.54	227.56
871.85	227.55
872.16	227.54
872.47	227.56
872.78	227.54
873.09	227.53
873.40	227.51
873.71	227.52
874.02	227.51
874.33	227.52
874.64	227.51
874.95	227.52
875.26	227.52
875.56	227.47
875.87	227.43
876.18	227.46
876.49	227.53
876.80	227.55
877.11	227.56
877.42	227.59
877.73	227.58
878.04	227.54
878.35	227.56
878.66	227.58
878.96	227.56
879.27	227.55
879.58	227.55
879.89	227.58
880.20	227.57
880.51	227.57
880.82	227.56
881.12	227.56
881.43	227.55
881.74	227.54
882.05	227.57
882.36	227.59
882.67	227.60
882.97	227.50
883.28	227.47
883.59	227.45
883.90	227.46
884.21	227.49
884.51	227.50
884.82	227.45
885.13	227.43
885.44	227.45
885.74	227.46
886.05	227.47
886.36	227.47
886.67	227.48
886.98	227.56
887.28	227.58
887.59	227.58
887.90	227.60
888.20	227.60
888.51	227.61
888.82	227.60
889.13	227.57
889.43	227.66
889.74	227.69
890.05	227.68
890.35	227.66
890.66	227.66
890.97	227.59
891.28	227.59
891.58	227.61
891.89	227.60
892.20	227.61
892.50	227.62
892.81	227.57
893.12	227.56
893.42	227.49
893.73	227.50
894.04	227.49
894.34	227.48
894.65	227.45
894.95	227.43
895.26	227.45
895.57	227.54
895.87	227.43
896.18	227.43
896.48	227.45
896.79	227.44
897.10	227.44
897.40	227.49
897.71	227.49
898.01	227.43
898.32	227.42
898.63	227.39
898.93	227.38
899.24	227.37
899.54	227.35
899.85	227.31
900.15	227.29
900.46	227.27
900.76	227.28
901.07	227.28
901.38	227.28
901.68	227.26
901.99	227.18
902.29	227.21
902.60	227.20
902.90	227.19
903.21	227.18
903.51	227.16
903.82	227.16
904.12	227.16
904.43	227.19
904.73	227.21
905.03	227.24
905.34	227.32
905.64	227.34
905.95	227.37
906.25	227.40
906.56	227.41
906.86	227.40
907.17	227.38
907.47	227.38
907.77	227.33
908.08	227.33
908.38	227.33
908.69	227.33
908.99	227.32
909.30	227.31
909.60	227.30
909.90	227.33
910.21	227.31
910.51	227.30
910.81	227.28
911.12	227.28
911.42	227.29
911.73	227.20
912.03	227.21
912.33	227.20
912.64	227.20
912.94	227.19
913.24	227.21
913.55	227.21
913.85	227.21
914.15	227.27
914.46	227.28
914.76	227.28
915.06	227.27
915.37	227.27
915.67	227.29
915.97	227.32
916.27	227.28
916.58	227.30
916.88	227.30
917.18	227.32
917.49	227.41
917.79	227.38
918.09	227.39
918.39	227.41
918.70	227.43
919.00	227.44
919.30	227.48
919.60	227.48
919.91	227.46
920.21	227.43
920.51	227.43
920.81	227.46
921.12	227.49
921.42	227.51
921.72	227.53
922.02	227.53
922.32	227.52
922.63	227.57
922.93	227.62
923.23	227.66
923.53	227.66
923.83	227.59
924.13	227.62
924.44	227.65
924.74	227.65
925.04	227.66
925.34	227.68
925.64	227.67
925.94	227.68
926.24	227.77
926.55	227.80
926.85	227.80
927.15	227.78
927.45	227.78
927.75	227.74
928.05	227.75
928.35	227.73
928.65	227.75
928.95	227.73
929.26	227.67
929.56	227.68
929.86	227.69
930.16	227.70
930.46	227.65
930.76	227.67
931.06	227.63
931.36	227.61
931.66	227.61
931.96	227.60
932.26	227.58
932.56	227.52
932.86	227.52
933.16	227.49
933.46	227.47
933.76	227.46
934.06	227.51
934.36	227.51
934.66	227.52
934.96	227.50
935.26	227.50
935.56	227.50
935.86	227.47
936.16	227.41
936.46	227.40
936.76	227.42
937.06	227.37
937.36	227.39
937.66	227.37
937.96	227.35
938.26	227.33
938.56	227.35
938.86	227.35
939.16	227.36
939.46	227.40
939.76	227.42
940.06	227.41
940.35	227.36
940.65	227.32
940.95	227.32
941.25	227.28
941.55	227.26
941.85	227.25
942.15	227.27
942.45	227.34
942.75	227.34
943.04	227.32
943.34	227.35
943.64	227.31
943.94	227.30
944.24	227.28
944.54	227.28
944.84	227.25
945.13	227.22
945.43	227.19
945.73	227.20
946.03	227.19
946.33	227.17
946.62	227.21
946.92	227.21
947.22	227.18
947.52	227.18
947.82	227.25
948.11	227.26
948.41	227.25
948.71	227.20
949.01	227.19
949.31	227.18
949.60	227.15
949.90	227.18
950.20	227.19
950.50	227.21
950.79	227.23
951.09	227.27
951.39	227.27
951.69	227.26
951.98	227.24
952.28	227.25
952.58	227.24
952.87	227.23
953.17	227.24
953.47	227.24
953.76	227.25
954.06	227.18
954.36	227.17
954.66	227.13
954.95	227.15
955.25	227.15
955.55	227.16
955.84	227.17
956.14	227.21
956.44	227.22
956.73	227.19
957.03	227.17
957.32	227.17
957.62	227.19
957.92	227.24
958.21	227.27
958.51	227.35
958.81	227.37
959.10	227.40
959.40	227.44
959.69	227.48
959.99	227.51
960.29	227.53
960.58	227.54
960.88	227.61
961.17	227.59
961.47	227.59
961.76	227.59
962.06	227.60
962.36	227.52
962.65	227.54
962.95	227.53
963.24	227.54
963.54	227.53
963.83	227.53
964.13	227.50
964.42	227.49
964.72	227.41
965.01	227.38
965.31	227.38
965.60	227.34
965.90	227.37
966.19	227.33
966.49	227.34
966.78	227.32
967.08	227.30
967.37	227.37
967.67	227.37
967.96	227.40
968.26	227.38
968.55	227.41
968.85	227.39
969.14	227.39
969.43	227.40
969.73	227.36
970.02	227.39
970.32	227.37
970.61	227.36
970.91	227.32
971.20	227.31
971.49	227.26
971.79	227.28
972.08	227.25
972.38	227.26
972.67	227.25
972.96	227.26
973.26	227.24
973.55	227.21
973.85	227.19
974.14	227.16
974.43	227.17
974.73	227.13
975.02	227.11
975.31	227.11
975.61	227.10
975.90	227.11
976.19	227.06
976.49	227.08
976.78	227.07
977.07	227.07
977.37	227.12
977.66	227.17
977.95	227.14
978.24	227.11
978.54	227.09
978.83	227.06
979.12	227.05
979.42	227.05
979.71	227.03
980.00	227.02
980.29	226.99
980.59	226.96
980.88	227.01
981.17	227.00
981.46	226.98
981.76	226.95
982.05	226.98
982.34	226.99
982.63	226.96
982.93	226.94
983.22	226.98
983.51	226.93
983.80	226.91
984.09	226.93
984.39	226.93
984.68	226.91
984.97	226.92
985.26	226.88
985.55	226.88
985.85	226.87
986.14	226.89
986.43	226.90
986.72	226.91
987.01	226.90
987.30	226.91
987.59	226.93
987.89	226.93
988.18	226.90
988.47	226.89
988.76	226.90
989.05	226.90
989.34	226.89
989.63	226.94
989.92	226.93
990.22	226.91
990.51	226.90
990.80	226.90
991.09	226.92
991.38	226.96
991.67	226.95
991.96	226.93
992.25	226.91
992.54	226.94
992.83	226.95
993.12	226.95
993.41	226.96
993.70	226.99
993.99	227.04
994.28	227.08
994.58	227.10
994.87	227.08
995.16	227.10
995.45	227.10
995.74	227.06
996.03	227.07
996.32	227.07
996.61	227.08
996.90	227.08
997.19	227.07
997.48	227.04
997.77	227.02
998.06	227.05
998.34	227.05
998.63	227.01
998.92	227.01
999.21	227.03
999.50	227.02
999.79	227.01
1000.08	227.00
1000.37	226.98
1000.66	226.96
1000.95	227.01
1001.24	227.01
1001.53	226.99
1001.82	227.01
1002.11	226.99
1002.40	226.99
1002.68	227.03
1002.97	227.09
1003.26	227.09
1003.55	227.11
1003.84	227.09
1004.13	227.10
1004.42	227.10
1004.71	227.11
1004.99	227.11
1005.28	227.13
1005.57	227.12
1005.86	227.11
1006.15	227.12
1006.44	227.11
1006.72	227.14
1007.01	227.11
1007.30	227.08
1007.59	227.08
1007.88	227.07
1008.17	227.07
1008.45	227.04
1008.74	227.02
1009.03	226.99
1009.32	227.00
1009.60	226.98
1009.89	227.03
1010.18	227.00
1010.47	227.01
1010.76	227.00
1011.04	226.99
1011.33	227.00
1011.62	227.02
1011.91	227.03
1012.19	227.01
1012.48	226.96
1012.77	226.94
1013.05	227.00
1013.34	227.01
1013.63	227.00
1013.92	227.02
1014.20	227.03
1014.49	227.03
1014.78	227.03
1015.06	226.99
1015.35	226.97
1015.64	227.00
1015.92	226.99
1016.21	227.00
1016.50	226.98
1016.78	227.03
1017.07	227.00
1017.36	226.94
1017.64	226.93
1017.93	226.92
1018.22	226.87
1018.50	226.89
1018.79	226.92
1019.08	226.84
1019.36	226.85
1019.65	226.85
1019.93	226.87
1020.22	226.87
1020.51	226.92
1020.79	226.92
1021.08	226.29
1021.36	226.63
1021.65	227.39
1021.94	226.55
1022.22	226.98
1022.51	226.79
1022.79	227.51
1023.08	226.94
1023.36	228.02
1023.65	226.72
>>>>>End Processed Spectral Data<<<<<
