SpectraSuite Data File
++++++++++++++++++++++++++++++++++++
Date: Fri Feb 01 16:51:47 EST 2013
User: group
Dark Spectrum Present: No
Reference Spectrum Present: No
Number of Sampled Component Spectra: 1
Spectrometers: USB2E7196
Integration Time (usec): 35000 (USB2E7196)
Spectra Averaged: 100 (USB2E7196)
Boxcar Smoothing: 10 (USB2E7196)
Correct for Electrical Dark: No (USB2E7196)
Strobe/Lamp Enabled: No (USB2E7196)
Correct for Detector Non-linearity: No (USB2E7196)
Correct for Stray Light: No (USB2E7196)
Number of Pixels in Processed Spectrum: 2048
>>>>>Begin Processed Spectral Data<<<<<
339.09	0.00
339.48	212.96
339.86	214.54
340.24	216.42
340.63	217.79
341.01	220.53
341.39	219.92
341.78	222.15
342.16	222.64
342.54	223.16
342.93	211.77
343.31	222.46
343.69	223.02
344.07	223.48
344.46	223.89
344.84	224.26
345.22	224.47
345.60	224.75
345.99	224.92
346.37	225.03
346.75	225.12
347.13	225.19
347.52	225.23
347.90	225.28
348.28	225.31
348.66	225.34
349.05	225.30
349.43	225.37
349.81	225.41
350.19	225.47
350.57	225.52
350.96	225.58
351.34	225.62
351.72	225.69
352.10	225.81
352.48	225.88
352.87	225.93
353.25	226.02
353.63	226.05
354.01	226.07
354.39	226.17
354.77	226.25
355.15	226.31
355.54	226.38
355.92	226.38
356.30	226.45
356.68	226.56
357.06	226.65
357.44	226.70
357.82	226.72
358.20	226.78
358.58	226.82
358.97	226.86
359.35	226.96
359.73	227.02
360.11	227.01
360.49	227.08
360.87	227.08
361.25	227.13
361.63	227.19
362.01	227.27
362.39	227.30
362.77	227.34
363.15	227.34
363.53	227.38
363.91	227.45
364.29	227.49
364.67	227.42
365.05	227.41
365.43	227.40
365.81	227.43
366.19	227.47
366.57	227.52
366.95	227.55
367.33	227.54
367.71	227.53
368.09	227.60
368.47	227.57
368.85	227.60
369.23	227.58
369.61	227.53
369.99	227.55
370.37	227.53
370.75	227.59
371.13	227.59
371.51	227.53
371.89	227.46
372.27	227.40
372.65	227.37
373.03	227.33
373.41	227.29
373.78	227.23
374.16	227.15
374.54	227.06
374.92	226.99
375.30	226.95
375.68	226.88
376.06	226.80
376.44	226.72
376.82	226.64
377.19	226.60
377.57	226.57
377.95	226.46
378.33	226.38
378.71	226.24
379.09	226.16
379.47	226.14
379.84	226.09
380.22	226.04
380.60	225.94
380.98	225.88
381.36	225.81
381.73	225.78
382.11	225.76
382.49	225.69
382.87	225.63
383.25	225.59
383.62	225.63
384.00	225.56
384.38	225.52
384.76	225.52
385.13	225.50
385.51	225.45
385.89	225.37
386.27	225.36
386.64	225.32
387.02	225.28
387.40	225.21
387.78	225.19
388.15	225.16
388.53	225.13
388.91	225.09
389.29	225.03
389.66	225.02
390.04	224.98
390.42	224.99
390.79	224.97
391.17	224.93
391.55	224.83
391.92	224.83
392.30	224.83
392.68	224.77
393.05	224.76
393.43	224.77
393.81	224.79
394.18	224.77
394.56	224.78
394.94	224.80
395.31	224.81
395.69	224.86
396.06	224.88
396.44	224.94
396.82	225.00
397.19	225.09
397.57	225.07
397.95	225.10
398.32	225.10
398.70	225.15
399.07	225.21
399.45	225.24
399.82	225.27
400.20	225.27
400.58	225.37
400.95	225.41
401.33	225.47
401.70	225.61
402.08	225.68
402.45	225.75
402.83	225.86
403.20	225.92
403.58	225.97
403.95	226.09
404.33	226.18
404.71	226.29
405.08	226.45
405.46	226.59
405.83	226.71
406.21	226.83
406.58	227.00
406.96	227.19
407.33	227.36
407.70	227.56
408.08	227.88
408.45	228.07
408.83	228.26
409.20	228.46
409.58	228.62
409.95	228.87
410.33	229.15
410.70	229.38
411.08	229.72
411.45	230.01
411.82	230.30
412.20	230.66
412.57	231.09
412.95	231.38
413.32	231.80
413.69	232.23
414.07	232.67
414.44	233.11
414.82	233.54
415.19	234.09
415.56	234.63
415.94	235.17
416.31	235.81
416.68	236.43
417.06	237.17
417.43	237.85
417.81	238.62
418.18	239.38
418.55	240.22
418.93	241.07
419.30	242.03
419.67	242.97
420.04	243.88
420.42	244.84
420.79	246.07
421.16	247.24
421.54	248.41
421.91	249.65
422.28	250.91
422.66	252.24
423.03	253.57
423.40	254.93
423.77	256.33
424.15	257.76
424.52	259.27
424.89	260.85
425.26	262.41
425.64	263.87
426.01	265.46
426.38	267.14
426.75	268.83
427.13	270.50
427.50	272.30
427.87	274.21
428.24	276.06
428.61	277.79
428.99	279.70
429.36	281.79
429.73	283.84
430.10	285.85
430.47	287.91
430.85	290.02
431.22	292.22
431.59	294.56
431.96	296.79
432.33	299.28
432.70	301.66
433.08	304.47
433.45	307.10
433.82	309.69
434.19	312.53
434.56	315.35
434.93	318.03
435.30	320.62
435.68	323.47
436.05	326.30
436.42	329.04
436.79	331.53
437.16	334.23
437.53	337.07
437.90	339.84
438.27	342.55
438.64	345.33
439.01	347.92
439.38	350.16
439.75	352.29
440.13	354.76
440.50	357.05
440.87	358.84
441.24	360.81
441.61	362.95
441.98	364.41
442.35	366.16
442.72	367.97
443.09	369.81
443.46	370.84
443.83	371.42
444.20	371.93
444.57	372.78
444.94	373.05
445.31	373.36
445.68	373.75
446.05	373.85
446.42	373.49
446.79	373.05
447.16	372.59
447.53	372.31
447.90	371.18
448.27	370.06
448.64	368.49
449.01	367.33
449.37	365.40
449.74	363.54
450.11	361.36
450.48	358.90
450.85	356.38
451.22	354.22
451.59	352.23
451.96	350.28
452.33	347.70
452.70	345.35
453.07	342.55
453.43	339.67
453.80	336.93
454.17	334.27
454.54	331.76
454.91	329.07
455.28	326.42
455.65	323.93
456.02	321.49
456.38	319.40
456.75	316.75
457.12	314.46
457.49	312.23
457.86	310.05
458.23	308.21
458.59	306.18
458.96	304.11
459.33	302.26
459.70	300.44
460.07	298.97
460.43	297.28
460.80	295.67
461.17	294.28
461.54	292.76
461.91	291.32
462.27	289.92
462.64	288.70
463.01	287.34
463.38	286.06
463.74	284.70
464.11	283.52
464.48	282.54
464.85	281.42
465.21	280.58
465.58	279.67
465.95	278.60
466.32	277.75
466.68	276.86
467.05	275.97
467.42	275.10
467.78	274.16
468.15	273.29
468.52	272.63
468.88	271.78
469.25	271.06
469.62	270.49
469.98	269.81
470.35	269.19
470.72	268.61
471.08	267.96
471.45	267.43
471.82	266.92
472.18	266.28
472.55	265.94
472.92	265.44
473.28	265.01
473.65	264.57
474.02	264.11
474.38	263.78
474.75	263.48
475.11	263.11
475.48	262.83
475.85	262.63
476.21	262.44
476.58	262.24
476.94	262.08
477.31	261.91
477.67	261.81
478.04	261.71
478.41	261.67
478.77	261.75
479.14	261.70
479.50	261.72
479.87	261.85
480.23	261.93
480.60	262.01
480.96	262.09
481.33	262.30
481.69	262.47
482.06	262.68
482.42	262.87
482.79	263.12
483.15	263.48
483.52	263.88
483.88	264.22
484.25	264.60
484.61	265.06
484.98	265.52
485.34	266.07
485.71	266.64
486.07	267.23
486.44	267.78
486.80	268.50
487.17	269.23
487.53	270.06
487.90	270.88
488.26	271.84
488.62	272.84
488.99	273.82
489.35	274.88
489.72	276.01
490.08	277.24
490.44	278.51
490.81	279.83
491.17	281.16
491.54	282.60
491.90	284.16
492.26	285.79
492.63	287.52
492.99	289.29
493.36	291.18
493.72	293.22
494.08	295.29
494.45	297.54
494.81	299.89
495.17	302.27
495.54	304.87
495.90	307.50
496.26	310.29
496.63	313.24
496.99	316.35
497.35	319.60
497.72	322.94
498.08	326.48
498.44	330.10
498.80	334.02
499.17	338.09
499.53	342.19
499.89	346.54
500.26	351.02
500.62	355.61
500.98	360.53
501.34	365.60
501.71	370.95
502.07	376.35
502.43	381.98
502.79	387.79
503.16	393.81
503.52	400.10
503.88	406.47
504.24	413.09
504.60	419.92
504.97	426.99
505.33	434.24
505.69	441.89
506.05	449.65
506.41	457.46
506.78	465.54
507.14	473.93
507.50	482.61
507.86	491.52
508.22	500.67
508.59	509.87
508.95	519.35
509.31	529.10
509.67	539.09
510.03	549.26
510.39	559.81
510.75	570.52
511.12	581.41
511.48	592.62
511.84	603.93
512.20	615.33
512.56	627.18
512.92	639.28
513.28	651.59
513.64	664.00
514.00	676.62
514.37	689.46
514.73	702.43
515.09	715.35
515.45	728.53
515.81	741.95
516.17	755.77
516.53	769.75
516.89	783.79
517.25	797.86
517.61	812.17
517.97	826.47
518.33	840.76
518.69	855.28
519.05	870.12
519.41	885.16
519.77	900.55
520.13	915.73
520.49	930.97
520.85	946.11
521.21	961.60
521.57	977.67
521.93	993.23
522.29	1009.39
522.65	1025.46
523.01	1041.47
523.37	1057.44
523.73	1073.39
524.09	1089.37
524.45	1105.34
524.81	1121.86
525.17	1138.35
525.53	1155.01
525.89	1171.68
526.25	1188.35
526.61	1204.47
526.97	1220.96
527.33	1237.20
527.68	1253.65
528.04	1269.85
528.40	1286.16
528.76	1302.94
529.12	1319.20
529.48	1335.85
529.84	1351.69
530.20	1368.01
530.56	1384.71
530.91	1401.73
531.27	1418.19
531.63	1434.24
531.99	1450.71
532.35	1466.35
532.71	1482.03
533.07	1497.98
533.42	1513.65
533.78	1529.34
534.14	1545.33
534.50	1560.56
534.86	1576.13
535.21	1591.08
535.57	1606.80
535.93	1622.11
536.29	1636.63
536.65	1651.46
537.00	1665.83
537.36	1680.95
537.72	1695.20
538.08	1709.57
538.44	1723.18
538.79	1736.99
539.15	1750.44
539.51	1763.90
539.87	1777.95
540.22	1791.48
540.58	1804.88
540.94	1818.01
541.29	1830.67
541.65	1843.11
542.01	1855.94
542.37	1868.12
542.72	1880.40
543.08	1892.08
543.44	1904.25
543.79	1915.35
544.15	1926.14
544.51	1937.69
544.87	1948.37
545.22	1959.02
545.58	1969.11
545.94	1978.70
546.29	1988.22
546.65	1998.08
547.01	2007.19
547.36	2015.76
547.72	2024.12
548.07	2032.08
548.43	2039.96
548.79	2047.97
549.14	2055.53
549.50	2062.80
549.86	2070.30
550.21	2077.36
550.57	2084.34
550.92	2090.99
551.28	2098.16
551.64	2105.30
551.99	2111.90
552.35	2118.10
552.70	2124.19
553.06	2130.06
553.41	2136.44
553.77	2142.51
554.13	2148.55
554.48	2154.68
554.84	2160.41
555.19	2165.76
555.55	2171.00
555.90	2175.57
556.26	2180.57
556.61	2185.31
556.97	2189.76
557.32	2194.00
557.68	2198.27
558.03	2202.58
558.39	2206.15
558.74	2210.58
559.10	2214.42
559.45	2218.06
559.81	2222.28
560.16	2226.29
560.52	2229.63
560.87	2232.95
561.23	2235.60
561.58	2238.57
561.94	2241.16
562.29	2243.35
562.64	2246.11
563.00	2248.56
563.35	2252.19
563.71	2255.11
564.06	2258.33
564.42	2261.29
564.77	2263.93
565.12	2266.44
565.48	2268.51
565.83	2270.53
566.19	2272.17
566.54	2273.07
566.89	2274.40
567.25	2275.21
567.60	2276.49
567.96	2278.21
568.31	2279.22
568.66	2280.63
569.02	2281.20
569.37	2281.64
569.72	2282.74
570.08	2282.96
570.43	2283.16
570.78	2282.72
571.14	2281.59
571.49	2280.38
571.84	2279.95
572.20	2279.00
572.55	2278.01
572.90	2276.52
573.26	2275.30
573.61	2273.58
573.96	2272.18
574.31	2269.27
574.67	2266.48
575.02	2263.11
575.37	2259.86
575.72	2256.45
576.08	2253.03
576.43	2249.83
576.78	2246.40
577.13	2243.21
577.49	2240.27
577.84	2236.98
578.19	2233.39
578.54	2229.92
578.90	2225.96
579.25	2220.65
579.60	2215.86
579.95	2210.98
580.30	2206.21
580.66	2201.36
581.01	2196.54
581.36	2191.72
581.71	2187.81
582.06	2183.58
582.42	2179.36
582.77	2174.40
583.12	2169.89
583.47	2165.59
583.82	2160.96
584.17	2155.93
584.53	2150.61
584.88	2145.10
585.23	2139.58
585.58	2134.08
585.93	2128.70
586.28	2123.90
586.63	2119.00
586.98	2114.05
587.34	2109.50
587.69	2104.64
588.04	2099.43
588.39	2093.86
588.74	2087.48
589.09	2081.44
589.44	2074.68
589.79	2068.62
590.14	2062.96
590.49	2056.42
590.84	2050.03
591.19	2043.94
591.54	2037.57
591.89	2030.43
592.25	2023.74
592.60	2016.64
592.95	2009.37
593.30	2002.12
593.65	1994.80
594.00	1987.95
594.35	1980.75
594.70	1972.78
595.05	1965.81
595.40	1958.66
595.75	1951.40
596.10	1945.43
596.45	1938.80
596.80	1932.72
597.15	1926.25
597.50	1919.49
597.85	1913.11
598.19	1906.59
598.54	1899.75
598.89	1893.22
599.24	1887.44
599.59	1880.97
599.94	1874.71
600.29	1868.47
600.64	1861.95
600.99	1854.63
601.34	1847.91
601.69	1841.09
602.04	1834.43
602.39	1827.20
602.74	1820.53
603.08	1813.86
603.43	1807.08
603.78	1799.73
604.13	1792.63
604.48	1785.50
604.83	1778.65
605.18	1771.95
605.53	1764.03
605.87	1756.04
606.22	1748.82
606.57	1740.94
606.92	1733.58
607.27	1726.63
607.62	1719.80
607.96	1712.72
608.31	1706.11
608.66	1698.56
609.01	1691.03
609.36	1683.48
609.70	1675.49
610.05	1667.49
610.40	1659.83
610.75	1651.57
611.10	1644.12
611.44	1635.72
611.79	1627.72
612.14	1619.06
612.49	1609.86
612.83	1601.59
613.18	1593.39
613.53	1585.29
613.88	1576.73
614.22	1568.49
614.57	1559.79
614.92	1551.77
615.27	1544.27
615.61	1536.03
615.96	1527.95
616.31	1520.37
616.65	1513.08
617.00	1505.54
617.35	1497.85
617.70	1489.71
618.04	1481.22
618.39	1472.84
618.74	1465.28
619.08	1457.07
619.43	1449.45
619.78	1442.46
620.12	1435.42
620.47	1428.05
620.82	1419.95
621.16	1412.57
621.51	1405.00
621.85	1397.40
622.20	1388.91
622.55	1380.52
622.89	1372.71
623.24	1365.07
623.59	1357.61
623.93	1350.12
624.28	1342.92
624.62	1335.31
624.97	1328.03
625.32	1321.25
625.66	1314.26
626.01	1307.19
626.35	1299.78
626.70	1292.02
627.04	1284.45
627.39	1276.57
627.73	1269.20
628.08	1262.31
628.43	1255.15
628.77	1247.79
629.12	1240.34
629.46	1233.23
629.81	1225.73
630.15	1218.51
630.50	1211.17
630.84	1203.02
631.19	1195.01
631.53	1187.43
631.88	1180.06
632.22	1172.57
632.57	1165.28
632.91	1157.71
633.26	1150.27
633.60	1142.85
633.95	1135.74
634.29	1128.73
634.64	1122.06
634.98	1114.75
635.32	1107.55
635.67	1100.89
636.01	1094.30
636.36	1087.49
636.70	1080.85
637.05	1074.35
637.39	1067.85
637.73	1061.51
638.08	1055.77
638.42	1049.80
638.77	1043.34
639.11	1036.77
639.45	1030.26
639.80	1023.65
640.14	1017.32
640.49	1010.82
640.83	1004.47
641.17	998.24
641.52	991.88
641.86	985.43
642.20	979.51
642.55	973.22
642.89	966.76
643.23	960.27
643.58	954.60
643.92	948.53
644.26	942.59
644.61	936.54
644.95	930.43
645.29	923.80
645.64	917.14
645.98	910.83
646.32	904.91
646.66	898.95
647.01	893.20
647.35	887.54
647.69	881.75
648.04	876.23
648.38	870.58
648.72	864.60
649.06	858.58
649.41	852.73
649.75	846.83
650.09	840.95
650.43	835.19
650.78	828.95
651.12	822.97
651.46	817.19
651.80	811.56
652.14	806.18
652.49	800.88
652.83	795.69
653.17	790.07
653.51	784.36
653.85	778.91
654.20	773.36
654.54	767.38
654.88	761.63
655.22	755.74
655.56	749.96
655.90	744.54
656.25	739.27
656.59	733.95
656.93	728.86
657.27	723.64
657.61	718.18
657.95	713.17
658.29	708.13
658.64	702.85
658.98	697.52
659.32	692.10
659.66	686.81
660.00	681.53
660.34	676.61
660.68	671.69
661.02	666.66
661.36	661.92
661.70	657.42
662.05	653.06
662.39	648.79
662.73	644.42
663.07	640.03
663.41	635.66
663.75	631.24
664.09	626.68
664.43	622.32
664.77	618.22
665.11	613.90
665.45	609.73
665.79	605.66
666.13	601.48
666.47	597.39
666.81	593.28
667.15	589.12
667.49	585.16
667.83	581.33
668.17	577.47
668.51	573.40
668.85	569.30
669.19	565.44
669.53	561.56
669.87	557.68
670.21	553.95
670.55	550.23
670.89	546.75
671.23	543.30
671.57	539.78
671.91	536.21
672.25	532.74
672.58	529.19
672.92	525.77
673.26	522.64
673.60	519.46
673.94	516.34
674.28	513.44
674.62	510.52
674.96	507.48
675.30	504.49
675.64	501.54
675.97	498.80
676.31	495.90
676.65	492.99
676.99	490.30
677.33	487.38
677.67	484.61
678.01	481.58
678.34	478.64
678.68	475.75
679.02	472.98
679.36	470.13
679.70	467.44
680.04	464.71
680.37	461.82
680.71	458.98
681.05	456.38
681.39	453.63
681.73	450.97
682.06	448.42
682.40	445.93
682.74	443.37
683.08	440.81
683.42	438.23
683.75	435.74
684.09	433.12
684.43	430.68
684.77	428.22
685.10	425.78
685.44	423.48
685.78	421.19
686.12	418.94
686.45	416.68
686.79	414.37
687.13	412.17
687.46	410.02
687.80	407.90
688.14	405.62
688.48	403.59
688.81	401.33
689.15	399.17
689.49	397.02
689.82	395.00
690.16	392.92
690.50	390.99
690.83	389.08
691.17	387.14
691.51	385.27
691.84	383.41
692.18	381.55
692.52	379.59
692.85	377.65
693.19	375.76
693.52	373.95
693.86	372.16
694.20	370.31
694.53	368.55
694.87	366.71
695.21	364.96
695.54	363.13
695.88	361.43
696.21	359.71
696.55	358.06
696.88	356.30
697.22	354.65
697.56	352.99
697.89	351.33
698.23	349.72
698.56	348.14
698.90	346.62
699.23	345.01
699.57	343.47
699.90	341.92
700.24	340.40
700.58	338.91
700.91	337.45
701.25	336.04
701.58	334.71
701.92	333.35
702.25	331.98
702.59	330.64
702.92	329.31
703.26	328.05
703.59	326.72
703.93	325.58
704.26	324.35
704.60	323.03
704.93	321.76
705.26	320.49
705.60	319.28
705.93	318.05
706.27	316.99
706.60	315.92
706.94	314.85
707.27	313.71
707.61	312.60
707.94	311.51
708.27	310.46
708.61	309.36
708.94	308.36
709.28	307.40
709.61	306.44
709.94	305.50
710.28	304.41
710.61	303.44
710.95	302.32
711.28	301.37
711.61	300.44
711.95	299.48
712.28	298.57
712.61	297.58
712.95	296.64
713.28	295.70
713.61	294.79
713.95	293.92
714.28	293.06
714.61	292.21
714.95	291.33
715.28	290.44
715.61	289.55
715.95	288.66
716.28	287.78
716.61	286.89
716.95	286.02
717.28	285.29
717.61	284.51
717.94	283.75
718.28	282.94
718.61	282.21
718.94	281.55
719.27	280.90
719.61	280.26
719.94	279.60
720.27	278.92
720.60	278.27
720.94	277.61
721.27	277.01
721.60	276.42
721.93	275.82
722.27	275.26
722.60	274.69
722.93	274.13
723.26	273.56
723.59	273.01
723.93	272.48
724.26	271.94
724.59	271.37
724.92	270.83
725.25	270.36
725.59	269.80
725.92	269.27
726.25	268.75
726.58	268.24
726.91	267.74
727.24	267.28
727.57	266.78
727.91	266.28
728.24	265.79
728.57	265.31
728.90	264.92
729.23	264.42
729.56	264.00
729.89	263.53
730.22	263.06
730.55	262.63
730.89	262.19
731.22	261.77
731.55	261.36
731.88	260.99
732.21	260.55
732.54	260.18
732.87	259.79
733.20	259.36
733.53	259.00
733.86	258.66
734.19	258.25
734.52	257.91
734.85	257.61
735.18	257.20
735.51	256.83
735.84	256.45
736.17	256.13
736.50	255.73
736.83	255.52
737.16	255.21
737.49	254.89
737.82	254.55
738.15	254.22
738.48	253.86
738.81	253.56
739.14	253.22
739.47	252.87
739.80	252.58
740.13	252.32
740.46	251.97
740.79	251.61
741.12	251.32
741.45	250.98
741.78	250.64
742.11	250.40
742.44	250.09
742.77	249.81
743.10	249.51
743.43	249.23
743.75	248.80
744.08	248.66
744.41	248.37
744.74	248.08
745.07	247.81
745.40	247.61
745.73	247.32
746.06	247.07
746.39	246.81
746.71	246.49
747.04	246.23
747.37	245.99
747.70	245.77
748.03	245.51
748.36	245.28
748.68	245.04
749.01	244.77
749.34	244.54
749.67	244.31
750.00	244.06
750.33	243.91
750.65	243.71
750.98	243.34
751.31	243.12
751.64	242.94
751.97	242.76
752.29	242.51
752.62	242.27
752.95	242.06
753.28	241.83
753.60	241.65
753.93	241.45
754.26	241.23
754.59	240.99
754.91	240.74
755.24	240.54
755.57	240.31
755.90	240.10
756.22	239.91
756.55	239.67
756.88	239.49
757.20	239.23
757.53	239.03
757.86	238.85
758.19	238.69
758.51	238.49
758.84	238.26
759.17	238.10
759.49	237.93
759.82	237.78
760.15	237.67
760.47	237.48
760.80	237.30
761.13	237.14
761.45	236.98
761.78	236.84
762.11	236.72
762.43	236.60
762.76	236.46
763.08	236.28
763.41	236.16
763.74	235.98
764.06	235.82
764.39	235.67
764.71	235.52
765.04	235.36
765.37	235.19
765.69	235.04
766.02	234.89
766.34	234.76
766.67	234.59
767.00	234.45
767.32	234.42
767.65	234.35
767.97	234.25
768.30	234.19
768.62	234.08
768.95	233.90
769.27	233.74
769.60	233.65
769.92	233.53
770.25	233.42
770.57	233.32
770.90	233.25
771.22	233.16
771.55	233.08
771.87	232.98
772.20	232.91
772.52	232.95
772.85	232.98
773.17	232.91
773.50	232.84
773.82	232.75
774.15	232.59
774.47	232.47
774.80	232.37
775.12	232.27
775.45	232.17
775.77	232.14
776.09	232.10
776.42	232.01
776.74	232.01
777.07	231.95
777.39	231.90
777.72	231.85
778.04	231.81
778.36	231.74
778.69	231.70
779.01	231.66
779.33	231.50
779.66	231.32
779.98	231.27
780.31	231.21
780.63	231.22
780.95	231.20
781.28	231.13
781.60	231.06
781.92	231.00
782.25	230.96
782.57	230.89
782.89	230.84
783.22	230.81
783.54	230.71
783.86	230.64
784.19	230.61
784.51	230.56
784.83	230.46
785.16	230.43
785.48	230.38
785.80	230.30
786.12	230.27
786.45	230.24
786.77	230.21
787.09	230.16
787.42	230.06
787.74	230.02
788.06	229.98
788.38	229.96
788.71	229.91
789.03	229.90
789.35	229.90
789.67	229.86
789.99	229.79
790.32	229.78
790.64	229.75
790.96	229.77
791.28	229.69
791.61	229.67
791.93	229.65
792.25	229.61
792.57	229.66
792.89	229.58
793.21	229.55
793.54	229.46
793.86	229.41
794.18	229.37
794.50	229.30
794.82	229.30
795.14	229.27
795.47	229.24
795.79	229.18
796.11	229.08
796.43	229.06
796.75	229.05
797.07	229.00
797.39	228.99
797.71	228.89
798.04	228.87
798.36	228.82
798.68	228.76
799.00	228.73
799.32	228.64
799.64	228.64
799.96	228.62
800.28	228.62
800.60	228.61
800.92	228.59
801.24	228.57
801.56	228.53
801.89	228.50
802.21	228.45
802.53	228.42
802.85	228.43
803.17	228.43
803.49	228.38
803.81	228.35
804.13	228.35
804.45	228.29
804.77	228.26
805.09	228.22
805.41	228.18
805.73	228.10
806.05	228.04
806.37	227.98
806.69	227.93
807.01	227.91
807.33	227.87
807.65	227.80
807.97	227.81
808.28	227.77
808.60	227.71
808.92	227.69
809.24	227.73
809.56	227.71
809.88	227.66
810.20	227.64
810.52	227.63
810.84	227.58
811.16	227.59
811.48	227.57
811.80	227.58
812.12	227.55
812.43	227.56
812.75	227.55
813.07	227.52
813.39	227.48
813.71	227.45
814.03	227.41
814.35	227.39
814.67	227.34
814.98	227.31
815.30	227.29
815.62	227.26
815.94	227.16
816.26	227.17
816.58	227.10
816.89	227.09
817.21	227.05
817.53	227.02
817.85	226.99
818.17	226.96
818.48	226.91
818.80	226.92
819.12	226.88
819.44	226.85
819.76	226.79
820.07	226.80
820.39	226.77
820.71	226.80
821.03	226.81
821.34	226.82
821.66	226.79
821.98	226.80
822.30	226.77
822.61	226.85
822.93	226.77
823.25	226.77
823.57	226.73
823.88	226.72
824.20	226.71
824.52	226.73
824.83	226.71
825.15	226.71
825.47	226.67
825.79	226.68
826.10	226.68
826.42	226.74
826.74	226.71
827.05	226.71
827.37	226.70
827.69	226.67
828.00	226.64
828.32	226.65
828.64	226.63
828.95	226.69
829.27	226.63
829.58	226.66
829.90	226.66
830.22	226.67
830.53	226.63
830.85	226.60
831.17	226.55
831.48	226.56
831.80	226.53
832.11	226.54
832.43	226.53
832.75	226.52
833.06	226.55
833.38	226.55
833.69	226.50
834.01	226.45
834.32	226.42
834.64	226.40
834.96	226.39
835.27	226.37
835.59	226.32
835.90	226.28
836.22	226.27
836.53	226.26
836.85	226.24
837.16	226.33
837.48	226.30
837.79	226.32
838.11	226.29
838.42	226.29
838.74	226.27
839.05	226.24
839.37	226.22
839.68	226.15
840.00	226.14
840.31	226.16
840.63	226.15
840.94	226.17
841.26	226.17
841.57	226.15
841.88	226.14
842.20	226.10
842.51	226.12
842.83	226.10
843.14	226.15
843.46	226.17
843.77	226.12
844.08	226.15
844.40	226.09
844.71	226.10
845.03	226.09
845.34	226.09
845.65	226.12
845.97	226.12
846.28	226.12
846.60	226.12
846.91	226.10
847.22	226.10
847.54	226.10
847.85	226.09
848.16	226.08
848.48	226.08
848.79	226.10
849.10	226.12
849.42	226.11
849.73	226.04
850.04	226.03
850.36	225.97
850.67	225.95
850.98	225.97
851.30	225.97
851.61	225.96
851.92	225.96
852.23	225.98
852.55	225.96
852.86	225.94
853.17	225.96
853.49	225.98
853.80	226.02
854.11	226.03
854.42	226.06
854.74	226.04
855.05	226.04
855.36	226.01
855.67	225.99
855.99	226.00
856.30	226.09
856.61	226.06
856.92	226.07
857.23	226.10
857.55	226.11
857.86	226.12
858.17	226.14
858.48	226.15
858.79	226.09
859.11	226.09
859.42	226.09
859.73	226.07
860.04	226.08
860.35	226.03
860.66	225.97
860.98	225.94
861.29	225.97
861.60	225.91
861.91	225.94
862.22	225.89
862.53	225.87
862.84	225.76
863.16	225.80
863.47	225.77
863.78	225.73
864.09	225.71
864.40	225.74
864.71	225.75
865.02	225.74
865.33	225.73
865.64	225.76
865.95	225.74
866.27	225.82
866.58	225.79
866.89	225.79
867.20	225.78
867.51	225.77
867.82	225.74
868.13	225.80
868.44	225.76
868.75	225.80
869.06	225.79
869.37	225.81
869.68	225.77
869.99	225.79
870.30	225.81
870.61	225.79
870.92	225.72
871.23	225.67
871.54	225.66
871.85	225.72
872.16	225.70
872.47	225.70
872.78	225.61
873.09	225.61
873.40	225.59
873.71	225.61
874.02	225.60
874.33	225.58
874.64	225.57
874.95	225.60
875.26	225.57
875.56	225.58
875.87	225.55
876.18	225.50
876.49	225.63
876.80	225.58
877.11	225.59
877.42	225.60
877.73	225.62
878.04	225.63
878.35	225.62
878.66	225.61
878.96	225.62
879.27	225.59
879.58	225.60
879.89	225.62
880.20	225.66
880.51	225.66
880.82	225.67
881.12	225.66
881.43	225.63
881.74	225.64
882.05	225.65
882.36	225.66
882.67	225.68
882.97	225.54
883.28	225.56
883.59	225.54
883.90	225.57
884.21	225.58
884.51	225.55
884.82	225.50
885.13	225.48
885.44	225.47
885.74	225.50
886.05	225.48
886.36	225.47
886.67	225.40
886.98	225.48
887.28	225.52
887.59	225.53
887.90	225.53
888.20	225.53
888.51	225.51
888.82	225.52
889.13	225.56
889.43	225.65
889.74	225.62
890.05	225.64
890.35	225.62
890.66	225.60
890.97	225.58
891.28	225.61
891.58	225.61
891.89	225.63
892.20	225.60
892.50	225.59
892.81	225.57
893.12	225.58
893.42	225.51
893.73	225.47
894.04	225.46
894.34	225.48
894.65	225.48
894.95	225.47
895.26	225.44
895.57	225.47
895.87	225.39
896.18	225.41
896.48	225.39
896.79	225.40
897.10	225.41
897.40	225.43
897.71	225.41
898.01	225.43
898.32	225.43
898.63	225.42
898.93	225.45
899.24	225.46
899.54	225.44
899.85	225.42
900.15	225.40
900.46	225.40
900.76	225.39
901.07	225.35
901.38	225.33
901.68	225.35
901.99	225.29
902.29	225.29
902.60	225.27
902.90	225.30
903.21	225.28
903.51	225.27
903.82	225.29
904.12	225.30
904.43	225.29
904.73	225.27
905.03	225.29
905.34	225.37
905.64	225.34
905.95	225.37
906.25	225.37
906.56	225.37
906.86	225.37
907.17	225.37
907.47	225.39
907.77	225.40
908.08	225.37
908.38	225.36
908.69	225.36
908.99	225.37
909.30	225.33
909.60	225.36
909.90	225.36
910.21	225.31
910.51	225.28
910.81	225.29
911.12	225.33
911.42	225.31
911.73	225.22
912.03	225.23
912.33	225.24
912.64	225.28
912.94	225.25
913.24	225.24
913.55	225.26
913.85	225.24
914.15	225.25
914.46	225.27
914.76	225.26
915.06	225.28
915.37	225.28
915.67	225.31
915.97	225.28
916.27	225.28
916.58	225.32
916.88	225.37
917.18	225.35
917.49	225.40
917.79	225.38
918.09	225.39
918.39	225.43
918.70	225.43
919.00	225.37
919.30	225.41
919.60	225.40
919.91	225.37
920.21	225.41
920.51	225.38
920.81	225.40
921.12	225.41
921.42	225.38
921.72	225.39
922.02	225.40
922.32	225.41
922.63	225.40
922.93	225.45
923.23	225.42
923.53	225.44
923.83	225.40
924.13	225.45
924.44	225.46
924.74	225.46
925.04	225.48
925.34	225.51
925.64	225.48
925.94	225.48
926.24	225.55
926.55	225.53
926.85	225.54
927.15	225.54
927.45	225.57
927.75	225.58
928.05	225.59
928.35	225.57
928.65	225.59
928.95	225.59
929.26	225.52
929.56	225.52
929.86	225.47
930.16	225.42
930.46	225.39
930.76	225.39
931.06	225.33
931.36	225.30
931.66	225.30
931.96	225.30
932.26	225.31
932.56	225.24
932.86	225.22
933.16	225.21
933.46	225.19
933.76	225.16
934.06	225.19
934.36	225.20
934.66	225.20
934.96	225.19
935.26	225.21
935.56	225.22
935.86	225.22
936.16	225.25
936.46	225.26
936.76	225.26
937.06	225.23
937.36	225.26
937.66	225.27
937.96	225.26
938.26	225.24
938.56	225.21
938.86	225.20
939.16	225.24
939.46	225.26
939.76	225.26
940.06	225.25
940.35	225.24
940.65	225.17
940.95	225.15
941.25	225.10
941.55	225.06
941.85	225.07
942.15	225.09
942.45	225.09
942.75	225.10
943.04	225.09
943.34	225.08
943.64	225.09
943.94	225.09
944.24	225.10
944.54	225.11
944.84	225.13
945.13	225.11
945.43	225.08
945.73	225.08
946.03	225.07
946.33	225.08
946.62	225.06
946.92	225.07
947.22	225.09
947.52	225.11
947.82	225.13
948.11	225.09
948.41	225.08
948.71	225.07
949.01	225.03
949.31	225.03
949.60	225.05
949.90	225.05
950.20	225.04
950.50	225.01
950.79	225.00
951.09	225.01
951.39	225.03
951.69	225.05
951.98	225.05
952.28	225.08
952.58	225.04
952.87	225.05
953.17	225.08
953.47	225.05
953.76	225.06
954.06	225.04
954.36	225.05
954.66	225.02
954.95	225.04
955.25	225.05
955.55	225.07
955.84	225.04
956.14	225.04
956.44	225.00
956.73	225.01
957.03	225.01
957.32	225.02
957.62	225.01
957.92	224.98
958.21	225.00
958.51	225.09
958.81	225.12
959.10	225.11
959.40	225.11
959.69	225.13
959.99	225.13
960.29	225.12
960.58	225.11
960.88	225.17
961.17	225.14
961.47	225.17
961.76	225.12
962.06	225.12
962.36	225.12
962.65	225.13
962.95	225.14
963.24	225.17
963.54	225.14
963.83	225.15
964.13	225.17
964.42	225.14
964.72	225.07
965.01	225.05
965.31	225.05
965.60	225.03
965.90	225.08
966.19	225.09
966.49	225.09
966.78	225.08
967.08	225.08
967.37	225.11
967.67	225.07
967.96	225.09
968.26	225.10
968.55	225.11
968.85	225.16
969.14	225.14
969.43	225.16
969.73	225.18
970.02	225.18
970.32	225.17
970.61	225.17
970.91	225.12
971.20	225.11
971.49	225.13
971.79	225.19
972.08	225.13
972.38	225.13
972.67	225.16
972.96	225.14
973.26	225.14
973.55	225.17
973.85	225.18
974.14	225.18
974.43	225.17
974.73	225.15
975.02	225.14
975.31	225.17
975.61	225.15
975.90	225.11
976.19	225.10
976.49	225.11
976.78	225.12
977.07	225.15
977.37	225.17
977.66	225.18
977.95	225.13
978.24	225.14
978.54	225.15
978.83	225.16
979.12	225.18
979.42	225.17
979.71	225.15
980.00	225.17
980.29	225.18
980.59	225.20
980.88	225.24
981.17	225.23
981.46	225.23
981.76	225.22
982.05	225.26
982.34	225.31
982.63	225.33
982.93	225.33
983.22	225.34
983.51	225.35
983.80	225.35
984.09	225.39
984.39	225.39
984.68	225.39
984.97	225.41
985.26	225.40
985.55	225.41
985.85	225.38
986.14	225.38
986.43	225.40
986.72	225.38
987.01	225.36
987.30	225.33
987.59	225.30
987.89	225.30
988.18	225.28
988.47	225.25
988.76	225.25
989.05	225.22
989.34	225.21
989.63	225.21
989.92	225.21
990.22	225.19
990.51	225.18
990.80	225.16
991.09	225.15
991.38	225.15
991.67	225.13
991.96	225.17
992.25	225.15
992.54	225.16
992.83	225.14
993.12	225.11
993.41	225.16
993.70	225.21
993.99	225.24
994.28	225.24
994.58	225.26
994.87	225.23
995.16	225.24
995.45	225.24
995.74	225.23
996.03	225.21
996.32	225.22
996.61	225.20
996.90	225.20
997.19	225.17
997.48	225.20
997.77	225.17
998.06	225.12
998.34	225.10
998.63	225.05
998.92	225.06
999.21	225.11
999.50	225.09
999.79	225.05
1000.08	225.04
1000.37	225.01
1000.66	224.97
1000.95	224.99
1001.24	225.02
1001.53	224.99
1001.82	224.99
1002.11	224.97
1002.40	224.96
1002.68	225.00
1002.97	225.06
1003.26	225.07
1003.55	225.04
1003.84	225.05
1004.13	225.09
1004.42	225.12
1004.71	225.12
1004.99	225.10
1005.28	225.10
1005.57	225.11
1005.86	225.11
1006.15	225.10
1006.44	225.10
1006.72	225.11
1007.01	225.10
1007.30	225.10
1007.59	225.12
1007.88	225.12
1008.17	225.12
1008.45	225.12
1008.74	225.09
1009.03	225.07
1009.32	225.05
1009.60	225.06
1009.89	225.05
1010.18	224.99
1010.47	224.97
1010.76	225.00
1011.04	224.99
1011.33	224.98
1011.62	225.02
1011.91	225.01
1012.19	225.02
1012.48	225.03
1012.77	225.04
1013.05	225.08
1013.34	225.10
1013.63	225.09
1013.92	225.07
1014.20	225.11
1014.49	225.10
1014.78	225.12
1015.06	225.05
1015.35	225.05
1015.64	225.06
1015.92	225.06
1016.21	225.11
1016.50	225.12
1016.78	225.10
1017.07	225.14
1017.36	225.11
1017.64	225.07
1017.93	225.11
1018.22	225.09
1018.50	225.10
1018.79	225.06
1019.08	225.03
1019.36	225.00
1019.65	224.97
1019.93	225.02
1020.22	225.02
1020.51	225.05
1020.79	225.03
1021.08	224.83
1021.36	225.12
1021.65	224.51
1021.94	225.28
1022.22	224.86
1022.51	224.60
1022.79	225.68
1023.08	225.33
1023.36	225.75
1023.65	225.00
>>>>>End Processed Spectral Data<<<<<
