SpectraSuite Data File
++++++++++++++++++++++++++++++++++++
Date: Fri Feb 01 17:18:07 EST 2013
User: group
Dark Spectrum Present: No
Reference Spectrum Present: No
Number of Sampled Component Spectra: 1
Spectrometers: USB2E7196
Integration Time (usec): 35000 (USB2E7196)
Spectra Averaged: 100 (USB2E7196)
Boxcar Smoothing: 10 (USB2E7196)
Correct for Electrical Dark: No (USB2E7196)
Strobe/Lamp Enabled: No (USB2E7196)
Correct for Detector Non-linearity: No (USB2E7196)
Correct for Stray Light: No (USB2E7196)
Number of Pixels in Processed Spectrum: 2048
>>>>>Begin Processed Spectral Data<<<<<
339.09	0.00
339.48	213.44
339.86	214.68
340.24	216.18
340.63	217.45
341.01	220.35
341.39	220.27
341.78	221.75
342.16	222.46
342.54	223.45
342.93	211.68
343.31	222.36
343.69	222.87
344.07	223.36
344.46	223.75
344.84	224.13
345.22	224.35
345.60	224.60
345.99	224.77
346.37	224.89
346.75	224.98
347.13	225.05
347.52	225.05
347.90	225.11
348.28	225.10
348.66	225.15
349.05	225.12
349.43	225.17
349.81	225.22
350.19	225.25
350.57	225.29
350.96	225.33
351.34	225.42
351.72	225.52
352.10	225.60
352.48	225.65
352.87	225.70
353.25	225.77
353.63	225.80
354.01	225.87
354.39	225.96
354.77	226.00
355.15	226.09
355.54	226.19
355.92	226.21
356.30	226.27
356.68	226.41
357.06	226.44
357.44	226.47
357.82	226.54
358.20	226.59
358.58	226.63
358.97	226.72
359.35	226.80
359.73	226.87
360.11	226.89
360.49	226.97
360.87	227.03
361.25	227.07
361.63	227.15
362.01	227.19
362.39	227.22
362.77	227.30
363.15	227.32
363.53	227.36
363.91	227.39
364.29	227.43
364.67	227.34
365.05	227.41
365.43	227.45
365.81	227.43
366.19	227.52
366.57	227.58
366.95	227.57
367.33	227.53
367.71	227.52
368.09	227.56
368.47	227.53
368.85	227.51
369.23	227.52
369.61	227.48
369.99	227.49
370.37	227.46
370.75	227.45
371.13	227.41
371.51	227.35
371.89	227.34
372.27	227.31
372.65	227.28
373.03	227.22
373.41	227.19
373.78	227.17
374.16	227.04
374.54	226.96
374.92	226.89
375.30	226.84
375.68	226.77
376.06	226.73
376.44	226.67
376.82	226.61
377.19	226.52
377.57	226.46
377.95	226.36
378.33	226.30
378.71	226.21
379.09	226.15
379.47	226.10
379.84	225.99
380.22	225.93
380.60	225.85
380.98	225.80
381.36	225.72
381.73	225.66
382.11	225.61
382.49	225.59
382.87	225.54
383.25	225.48
383.62	225.52
384.00	225.41
384.38	225.38
384.76	225.36
385.13	225.36
385.51	225.29
385.89	225.24
386.27	225.21
386.64	225.15
387.02	225.09
387.40	225.06
387.78	225.03
388.15	224.98
388.53	224.93
388.91	224.90
389.29	224.87
389.66	224.86
390.04	224.81
390.42	224.79
390.79	224.74
391.17	224.75
391.55	224.66
391.92	224.64
392.30	224.65
392.68	224.64
393.05	224.62
393.43	224.65
393.81	224.68
394.18	224.65
394.56	224.67
394.94	224.71
395.31	224.75
395.69	224.81
396.06	224.87
396.44	224.93
396.82	224.95
397.19	225.03
397.57	225.05
397.95	225.13
398.32	225.12
398.70	225.20
399.07	225.25
399.45	225.28
399.82	225.37
400.20	225.38
400.58	225.45
400.95	225.48
401.33	225.56
401.70	225.70
402.08	225.81
402.45	225.89
402.83	226.01
403.20	226.08
403.58	226.17
403.95	226.29
404.33	226.38
404.71	226.54
405.08	226.72
405.46	226.85
405.83	226.95
406.21	227.09
406.58	227.26
406.96	227.43
407.33	227.59
407.70	227.74
408.08	228.04
408.45	228.22
408.83	228.46
409.20	228.67
409.58	228.80
409.95	229.05
410.33	229.32
410.70	229.52
411.08	229.81
411.45	230.13
411.82	230.42
412.20	230.80
412.57	231.16
412.95	231.44
413.32	231.87
413.69	232.31
414.07	232.76
414.44	233.22
414.82	233.69
415.19	234.27
415.56	234.87
415.94	235.41
416.31	236.06
416.68	236.71
417.06	237.43
417.43	238.18
417.81	238.95
418.18	239.75
418.55	240.65
418.93	241.57
419.30	242.47
419.67	243.42
420.04	244.42
420.42	245.46
420.79	246.69
421.16	247.84
421.54	249.06
421.91	250.33
422.28	251.63
422.66	253.02
423.03	254.35
423.40	255.72
423.77	257.17
424.15	258.66
424.52	260.21
424.89	261.90
425.26	263.49
425.64	265.01
426.01	266.65
426.38	268.35
426.75	270.06
427.13	271.90
427.50	273.78
427.87	275.67
428.24	277.58
428.61	279.36
428.99	281.38
429.36	283.55
429.73	285.70
430.10	287.77
430.47	289.87
430.85	292.05
431.22	294.34
431.59	296.79
431.96	299.10
432.33	301.65
432.70	304.08
433.08	306.96
433.45	309.67
433.82	312.37
434.19	315.30
434.56	318.20
434.93	320.87
435.30	323.55
435.68	326.58
436.05	329.55
436.42	332.43
436.79	335.02
437.16	337.74
437.53	340.66
437.90	343.55
438.27	346.35
438.64	349.24
439.01	351.89
439.38	354.19
439.75	356.41
440.13	358.96
440.50	361.37
440.87	363.25
441.24	365.26
441.61	367.48
441.98	369.02
442.35	370.89
442.72	372.83
443.09	374.74
443.46	375.76
443.83	376.37
444.20	376.90
444.57	377.80
444.94	378.14
445.31	378.50
445.68	378.88
446.05	379.01
446.42	378.69
446.79	378.30
447.16	377.84
447.53	377.54
447.90	376.39
448.27	375.22
448.64	373.63
449.01	372.45
449.37	370.44
449.74	368.53
450.11	366.22
450.48	363.71
450.85	361.07
451.22	358.88
451.59	356.81
451.96	354.85
452.33	352.18
452.70	349.76
453.07	346.84
453.43	343.86
453.80	341.02
454.17	338.23
454.54	335.63
454.91	332.86
455.28	330.09
455.65	327.54
456.02	324.99
456.38	322.78
456.75	320.06
457.12	317.74
457.49	315.46
457.86	313.20
458.23	311.29
458.59	309.18
458.96	307.02
459.33	305.11
459.70	303.17
460.07	301.60
460.43	299.82
460.80	298.20
461.17	296.73
461.54	295.22
461.91	293.77
462.27	292.24
462.64	290.97
463.01	289.60
463.38	288.25
463.74	286.86
464.11	285.65
464.48	284.57
464.85	283.46
465.21	282.59
465.58	281.67
465.95	280.53
466.32	279.60
466.68	278.68
467.05	277.73
467.42	276.84
467.78	275.89
468.15	275.01
468.52	274.29
468.88	273.40
469.25	272.59
469.62	271.94
469.98	271.27
470.35	270.60
470.72	269.97
471.08	269.29
471.45	268.76
471.82	268.21
472.18	267.62
472.55	267.17
472.92	266.60
473.28	266.13
473.65	265.69
474.02	265.27
474.38	264.89
474.75	264.60
475.11	264.23
475.48	263.99
475.85	263.76
476.21	263.54
476.58	263.37
476.94	263.21
477.31	263.03
477.67	262.91
478.04	262.80
478.41	262.77
478.77	262.83
479.14	262.79
479.50	262.80
479.87	262.86
480.23	262.96
480.60	263.06
480.96	263.13
481.33	263.33
481.69	263.54
482.06	263.72
482.42	263.92
482.79	264.19
483.15	264.49
483.52	264.86
483.88	265.18
484.25	265.57
484.61	266.01
484.98	266.47
485.34	267.00
485.71	267.57
486.07	268.18
486.44	268.74
486.80	269.40
487.17	270.15
487.53	270.98
487.90	271.83
488.26	272.74
488.62	273.72
488.99	274.70
489.35	275.71
489.72	276.81
490.08	278.01
490.44	279.20
490.81	280.48
491.17	281.80
491.54	283.34
491.90	284.84
492.26	286.44
492.63	288.16
492.99	289.91
493.36	291.79
493.72	293.79
494.08	295.84
494.45	298.06
494.81	300.37
495.17	302.77
495.54	305.33
495.90	307.95
496.26	310.75
496.63	313.65
496.99	316.77
497.35	320.05
497.72	323.39
498.08	326.91
498.44	330.58
498.80	334.47
499.17	338.48
499.53	342.64
499.89	346.97
500.26	351.46
500.62	356.12
500.98	361.06
501.34	366.17
501.71	371.43
502.07	376.81
502.43	382.36
502.79	388.12
503.16	394.11
503.52	400.35
503.88	406.74
504.24	413.27
504.60	420.05
504.97	427.09
505.33	434.38
505.69	442.00
506.05	449.71
506.41	457.52
506.78	465.57
507.14	473.89
507.50	482.50
507.86	491.39
508.22	500.47
508.59	509.52
508.95	518.88
509.31	528.63
509.67	538.60
510.03	548.78
510.39	559.19
510.75	569.77
511.12	580.49
511.48	591.50
511.84	602.84
512.20	614.17
512.56	626.00
512.92	637.92
513.28	650.09
513.64	662.35
514.00	674.81
514.37	687.54
514.73	700.39
515.09	713.21
515.45	726.31
515.81	739.71
516.17	753.47
516.53	767.31
516.89	781.18
517.25	795.15
517.61	809.27
517.97	823.54
518.33	837.69
518.69	852.28
519.05	867.03
519.41	881.91
519.77	897.19
520.13	912.19
520.49	927.32
520.85	942.29
521.21	957.62
521.57	973.49
521.93	989.00
522.29	1005.02
522.65	1020.94
523.01	1036.69
523.37	1052.33
523.73	1068.17
524.09	1084.05
524.45	1099.93
524.81	1116.24
525.17	1132.57
525.53	1149.04
525.89	1165.56
526.25	1182.02
526.61	1197.93
526.97	1214.34
527.33	1230.46
527.68	1246.78
528.04	1262.92
528.40	1279.15
528.76	1295.90
529.12	1312.15
529.48	1328.57
529.84	1344.18
530.20	1360.43
530.56	1377.14
530.91	1394.14
531.27	1410.60
531.63	1426.65
531.99	1442.82
532.35	1458.50
532.71	1474.26
533.07	1490.31
533.42	1506.08
533.78	1521.83
534.14	1537.93
534.50	1552.98
534.86	1568.46
535.21	1583.37
535.57	1598.99
535.93	1614.35
536.29	1628.84
536.65	1643.72
537.00	1658.29
537.36	1673.45
537.72	1687.76
538.08	1702.04
538.44	1715.72
538.79	1729.35
539.15	1742.81
539.51	1756.52
539.87	1770.60
540.22	1784.11
540.58	1797.58
540.94	1810.52
541.29	1823.16
541.65	1835.62
542.01	1848.66
542.37	1861.03
542.72	1873.32
543.08	1885.09
543.44	1897.37
543.79	1908.65
544.15	1919.66
544.51	1931.26
544.87	1942.18
545.22	1953.17
545.58	1963.42
545.94	1973.11
546.29	1983.11
546.65	1993.13
547.01	2002.59
547.36	2011.38
547.72	2020.02
548.07	2027.98
548.43	2036.38
548.79	2044.44
549.14	2052.27
549.50	2059.76
549.86	2067.40
550.21	2074.85
550.57	2082.15
550.92	2088.86
551.28	2096.20
551.64	2103.35
551.99	2109.93
552.35	2116.33
552.70	2122.51
553.06	2128.68
553.41	2135.41
553.77	2141.53
554.13	2147.78
554.48	2153.87
554.84	2159.68
555.19	2165.07
555.55	2170.49
555.90	2175.09
556.26	2180.40
556.61	2185.33
556.97	2190.00
557.32	2194.38
557.68	2198.92
558.03	2203.36
558.39	2207.22
558.74	2211.93
559.10	2216.17
559.45	2220.15
559.81	2224.62
560.16	2228.59
560.52	2232.14
560.87	2235.69
561.23	2238.57
561.58	2241.55
561.94	2244.54
562.29	2247.03
562.64	2250.23
563.00	2253.13
563.35	2256.93
563.71	2260.28
564.06	2263.61
564.42	2266.92
564.77	2270.00
565.12	2272.68
565.48	2275.12
565.83	2277.47
566.19	2279.34
566.54	2280.42
566.89	2281.74
567.25	2282.74
567.60	2284.50
567.96	2286.59
568.31	2287.72
568.66	2289.28
569.02	2290.33
569.37	2290.88
569.72	2292.19
570.08	2292.71
570.43	2293.07
570.78	2293.03
571.14	2291.75
571.49	2290.74
571.84	2290.51
572.20	2289.69
572.55	2288.82
572.90	2287.31
573.26	2286.30
573.61	2284.66
573.96	2283.38
574.31	2280.87
574.67	2278.22
575.02	2274.90
575.37	2271.68
575.72	2268.34
576.08	2265.05
576.43	2262.03
576.78	2258.84
577.13	2255.73
577.49	2252.62
577.84	2249.41
578.19	2245.92
578.54	2242.86
578.90	2239.18
579.25	2234.00
579.60	2229.25
579.95	2224.58
580.30	2219.94
580.66	2215.00
581.01	2210.24
581.36	2205.48
581.71	2201.54
582.06	2197.43
582.42	2193.30
582.77	2188.41
583.12	2184.12
583.47	2180.05
583.82	2175.37
584.17	2170.23
584.53	2165.14
584.88	2159.92
585.23	2154.52
585.58	2149.22
585.93	2143.76
586.28	2139.07
586.63	2134.32
586.98	2129.49
587.34	2124.88
587.69	2120.03
588.04	2114.94
588.39	2109.57
588.74	2103.37
589.09	2097.40
589.44	2090.87
589.79	2084.90
590.14	2079.37
590.49	2072.92
590.84	2066.36
591.19	2060.36
591.54	2054.20
591.89	2047.22
592.25	2040.69
592.60	2033.54
592.95	2026.17
593.30	2019.10
593.65	2011.60
594.00	2004.55
594.35	1997.44
594.70	1989.44
595.05	1982.77
595.40	1975.69
595.75	1968.39
596.10	1962.44
596.45	1955.96
596.80	1949.90
597.15	1943.45
597.50	1936.71
597.85	1930.37
598.19	1924.01
598.54	1917.38
598.89	1910.75
599.24	1904.76
599.59	1898.30
599.94	1892.11
600.29	1885.83
600.64	1879.19
600.99	1871.88
601.34	1865.23
601.69	1858.20
602.04	1851.57
602.39	1844.14
602.74	1837.38
603.08	1830.70
603.43	1823.87
603.78	1816.52
604.13	1809.37
604.48	1802.25
604.83	1795.30
605.18	1788.60
605.53	1780.78
605.87	1772.63
606.22	1765.41
606.57	1757.51
606.92	1749.88
607.27	1742.84
607.62	1736.05
607.96	1728.97
608.31	1722.66
608.66	1715.13
609.01	1707.79
609.36	1700.30
609.70	1692.23
610.05	1684.27
610.40	1676.61
610.75	1668.30
611.10	1660.67
611.44	1652.09
611.79	1643.93
612.14	1635.24
612.49	1625.84
612.83	1617.23
613.18	1609.05
613.53	1600.94
613.88	1592.32
614.22	1584.06
614.57	1575.25
614.92	1567.06
615.27	1559.54
615.61	1550.99
615.96	1542.81
616.31	1534.93
616.65	1527.41
617.00	1519.79
617.35	1511.93
617.70	1503.60
618.04	1495.08
618.39	1486.73
618.74	1479.10
619.08	1470.80
619.43	1463.02
619.78	1456.00
620.12	1448.92
620.47	1441.31
620.82	1433.09
621.16	1425.58
621.51	1417.90
621.85	1410.19
622.20	1401.64
622.55	1393.06
622.89	1385.01
623.24	1377.25
623.59	1369.74
623.93	1362.10
624.28	1354.79
624.62	1347.28
624.97	1339.98
625.32	1332.97
625.66	1325.82
626.01	1318.57
626.35	1311.11
626.70	1303.26
627.04	1295.43
627.39	1287.55
627.73	1279.98
628.08	1272.97
628.43	1265.72
628.77	1258.34
629.12	1250.86
629.46	1243.70
629.81	1236.13
630.15	1228.87
630.50	1221.48
630.84	1213.32
631.19	1205.26
631.53	1197.61
631.88	1189.91
632.22	1182.17
632.57	1174.83
632.91	1167.26
633.26	1159.70
633.60	1152.11
633.95	1144.88
634.29	1137.73
634.64	1130.86
634.98	1123.48
635.32	1116.19
635.67	1109.37
636.01	1102.56
636.36	1095.71
636.70	1089.01
637.05	1082.29
637.39	1075.80
637.73	1069.16
638.08	1063.16
638.42	1057.13
638.77	1050.70
639.11	1044.14
639.45	1037.70
639.80	1031.06
640.14	1024.69
640.49	1018.17
640.83	1011.86
641.17	1005.60
641.52	999.32
641.86	992.77
642.20	986.89
642.55	980.43
642.89	973.95
643.23	967.37
643.58	961.46
643.92	955.25
644.26	949.30
644.61	943.11
644.95	937.08
645.29	930.51
645.64	923.74
645.98	917.33
646.32	911.20
646.66	905.17
647.01	899.32
647.35	893.60
647.69	887.71
648.04	882.09
648.38	876.31
648.72	870.29
649.06	864.31
649.41	858.37
649.75	852.55
650.09	846.55
650.43	840.82
650.78	834.70
651.12	828.67
651.46	822.94
651.80	817.32
652.14	811.85
652.49	806.41
652.83	801.32
653.17	795.71
653.51	790.14
653.85	784.67
654.20	778.97
654.54	772.88
654.88	767.02
655.22	761.18
655.56	755.43
655.90	749.89
656.25	744.62
656.59	739.20
656.93	734.04
657.27	728.88
657.61	723.36
657.95	718.19
658.29	713.07
658.64	707.73
658.98	702.30
659.32	696.80
659.66	691.60
660.00	686.26
660.34	681.33
660.68	676.38
661.02	671.27
661.36	666.53
661.70	661.97
662.05	657.68
662.39	653.34
662.73	648.88
663.07	644.50
663.41	640.08
663.75	635.67
664.09	631.04
664.43	626.63
664.77	622.50
665.11	618.24
665.45	614.04
665.79	610.01
666.13	605.88
666.47	601.79
666.81	597.56
667.15	593.32
667.49	589.26
667.83	585.28
668.17	581.35
668.51	577.33
668.85	573.26
669.19	569.34
669.53	565.52
669.87	561.67
670.21	557.99
670.55	554.26
670.89	550.72
671.23	547.32
671.57	543.80
671.91	540.26
672.25	536.68
672.58	533.21
672.92	529.68
673.26	526.47
673.60	523.23
673.94	520.11
674.28	517.23
674.62	514.32
674.96	511.30
675.30	508.40
675.64	505.43
675.97	502.59
676.31	499.67
676.65	496.70
676.99	493.92
677.33	490.94
677.67	488.11
678.01	485.07
678.34	482.09
678.68	479.14
679.02	476.27
679.36	473.48
679.70	470.68
680.04	467.96
680.37	465.11
680.71	462.35
681.05	459.69
681.39	456.88
681.73	454.16
682.06	451.62
682.40	449.03
682.74	446.42
683.08	443.85
683.42	441.23
683.75	438.63
684.09	436.00
684.43	433.53
684.77	431.01
685.10	428.63
685.44	426.27
685.78	423.96
686.12	421.67
686.45	419.37
686.79	417.05
687.13	414.75
687.46	412.51
687.80	410.28
688.14	408.06
688.48	406.02
688.81	403.82
689.15	401.64
689.49	399.46
689.82	397.39
690.16	395.33
690.50	393.33
690.83	391.38
691.17	389.42
691.51	387.49
691.84	385.64
692.18	383.71
692.52	381.72
692.85	379.79
693.19	377.93
693.52	376.08
693.86	374.25
694.20	372.52
694.53	370.71
694.87	368.83
695.21	366.99
695.54	365.12
695.88	363.34
696.21	361.58
696.55	359.90
696.88	358.19
697.22	356.47
697.56	354.83
697.89	353.23
698.23	351.62
698.56	350.02
698.90	348.45
699.23	346.82
699.57	345.22
699.90	343.64
700.24	342.01
700.58	340.51
700.91	339.09
701.25	337.58
701.58	336.24
701.92	334.87
702.25	333.50
702.59	332.14
702.92	330.77
703.26	329.46
703.59	328.14
703.93	326.94
704.26	325.71
704.60	324.41
704.93	323.07
705.26	321.84
705.60	320.63
705.93	319.39
706.27	318.33
706.60	317.32
706.94	316.18
707.27	315.06
707.61	313.90
707.94	312.79
708.27	311.65
708.61	310.54
708.94	309.49
709.28	308.46
709.61	307.47
709.94	306.48
710.28	305.45
710.61	304.44
710.95	303.33
711.28	302.35
711.61	301.41
711.95	300.47
712.28	299.51
712.61	298.50
712.95	297.51
713.28	296.56
713.61	295.61
713.95	294.73
714.28	293.85
714.61	292.99
714.95	292.12
715.28	291.30
715.61	290.36
715.95	289.50
716.28	288.65
716.61	287.78
716.95	286.90
717.28	286.12
717.61	285.32
717.94	284.56
718.28	283.77
718.61	283.00
718.94	282.32
719.27	281.62
719.61	280.95
719.94	280.34
720.27	279.63
720.60	278.94
720.94	278.31
721.27	277.72
721.60	277.14
721.93	276.56
722.27	276.01
722.60	275.48
722.93	274.94
723.26	274.36
723.59	273.81
723.93	273.30
724.26	272.73
724.59	272.15
724.92	271.61
725.25	271.11
725.59	270.57
725.92	270.01
726.25	269.44
726.58	268.94
726.91	268.43
727.24	267.94
727.57	267.43
727.91	266.93
728.24	266.42
728.57	265.92
728.90	265.42
729.23	264.91
729.56	264.46
729.89	263.95
730.22	263.50
730.55	263.05
730.89	262.62
731.22	262.20
731.55	261.83
731.88	261.43
732.21	261.01
732.54	260.59
732.87	260.22
733.20	259.86
733.53	259.50
733.86	259.11
734.19	258.74
734.52	258.39
734.85	258.10
735.18	257.72
735.51	257.38
735.84	256.99
736.17	256.63
736.50	256.26
736.83	256.05
737.16	255.70
737.49	255.35
737.82	254.99
738.15	254.64
738.48	254.25
738.81	253.92
739.14	253.60
739.47	253.28
739.80	252.93
740.13	252.65
740.46	252.30
740.79	251.98
741.12	251.68
741.45	251.38
741.78	250.99
742.11	250.73
742.44	250.38
742.77	250.13
743.10	249.83
743.43	249.50
743.75	249.14
744.08	248.98
744.41	248.71
744.74	248.42
745.07	248.10
745.40	247.88
745.73	247.61
746.06	247.35
746.39	247.08
746.71	246.80
747.04	246.51
747.37	246.30
747.70	246.05
748.03	245.78
748.36	245.57
748.68	245.31
749.01	245.05
749.34	244.84
749.67	244.61
750.00	244.38
750.33	244.22
750.65	243.97
750.98	243.58
751.31	243.36
751.64	243.15
751.97	243.01
752.29	242.73
752.62	242.48
752.95	242.28
753.28	242.06
753.60	241.85
753.93	241.65
754.26	241.43
754.59	241.16
754.91	240.95
755.24	240.72
755.57	240.54
755.90	240.34
756.22	240.13
756.55	239.91
756.88	239.69
757.20	239.47
757.53	239.25
757.86	239.09
758.19	238.90
758.51	238.73
758.84	238.47
759.17	238.36
759.49	238.23
759.82	238.08
760.15	237.91
760.47	237.74
760.80	237.58
761.13	237.43
761.45	237.30
761.78	237.14
762.11	236.94
762.43	236.78
762.76	236.65
763.08	236.52
763.41	236.39
763.74	236.26
764.06	236.08
764.39	235.95
764.71	235.82
765.04	235.71
765.37	235.57
765.69	235.48
766.02	235.33
766.34	235.12
766.67	234.99
767.00	234.92
767.32	234.86
767.65	234.80
767.97	234.68
768.30	234.59
768.62	234.45
768.95	234.37
769.27	234.28
769.60	234.17
769.92	234.05
770.25	233.91
770.57	233.77
770.90	233.70
771.22	233.63
771.55	233.52
771.87	233.43
772.20	233.33
772.52	233.32
772.85	233.35
773.17	233.31
773.50	233.20
773.82	233.05
774.15	232.95
774.47	232.82
774.80	232.73
775.12	232.64
775.45	232.60
775.77	232.49
776.09	232.43
776.42	232.33
776.74	232.29
777.07	232.22
777.39	232.18
777.72	232.11
778.04	232.03
778.36	231.98
778.69	231.89
779.01	231.83
779.33	231.72
779.66	231.54
779.98	231.47
780.31	231.39
780.63	231.40
780.95	231.34
781.28	231.25
781.60	231.18
781.92	231.12
782.25	231.06
782.57	231.02
782.89	230.95
783.22	230.90
783.54	230.79
783.86	230.77
784.19	230.72
784.51	230.70
784.83	230.64
785.16	230.56
785.48	230.54
785.80	230.47
786.12	230.42
786.45	230.36
786.77	230.32
787.09	230.29
787.42	230.20
787.74	230.15
788.06	230.12
788.38	230.06
788.71	230.00
789.03	229.96
789.35	229.91
789.67	229.87
789.99	229.86
790.32	229.80
790.64	229.76
790.96	229.75
791.28	229.66
791.61	229.60
791.93	229.56
792.25	229.49
792.57	229.51
792.89	229.46
793.21	229.42
793.54	229.36
793.86	229.29
794.18	229.26
794.50	229.18
794.82	229.11
795.14	229.10
795.47	229.08
795.79	229.04
796.11	229.00
796.43	228.93
796.75	228.87
797.07	228.84
797.39	228.78
797.71	228.70
798.04	228.65
798.36	228.63
798.68	228.65
799.00	228.63
799.32	228.55
799.64	228.51
799.96	228.49
800.28	228.51
800.60	228.46
800.92	228.42
801.24	228.38
801.56	228.39
801.89	228.37
802.21	228.31
802.53	228.26
802.85	228.23
803.17	228.29
803.49	228.24
803.81	228.18
804.13	228.15
804.45	228.09
804.77	228.09
805.09	228.05
805.41	227.95
805.73	227.94
806.05	227.91
806.37	227.85
806.69	227.79
807.01	227.73
807.33	227.71
807.65	227.66
807.97	227.71
808.28	227.64
808.60	227.60
808.92	227.56
809.24	227.59
809.56	227.56
809.88	227.45
810.20	227.45
810.52	227.50
810.84	227.46
811.16	227.45
811.48	227.44
811.80	227.42
812.12	227.41
812.43	227.36
812.75	227.31
813.07	227.30
813.39	227.29
813.71	227.23
814.03	227.21
814.35	227.15
814.67	227.08
814.98	227.08
815.30	227.05
815.62	227.04
815.94	226.95
816.26	226.96
816.58	226.92
816.89	226.90
817.21	226.85
817.53	226.85
817.85	226.84
818.17	226.78
818.48	226.76
818.80	226.75
819.12	226.75
819.44	226.71
819.76	226.68
820.07	226.66
820.39	226.67
820.71	226.66
821.03	226.68
821.34	226.64
821.66	226.63
821.98	226.62
822.30	226.60
822.61	226.65
822.93	226.56
823.25	226.55
823.57	226.53
823.88	226.52
824.20	226.51
824.52	226.50
824.83	226.49
825.15	226.45
825.47	226.46
825.79	226.43
826.10	226.43
826.42	226.42
826.74	226.40
827.05	226.38
827.37	226.38
827.69	226.36
828.00	226.38
828.32	226.36
828.64	226.33
828.95	226.38
829.27	226.35
829.58	226.37
829.90	226.41
830.22	226.39
830.53	226.37
830.85	226.32
831.17	226.27
831.48	226.22
831.80	226.22
832.11	226.17
832.43	226.14
832.75	226.14
833.06	226.22
833.38	226.19
833.69	226.17
834.01	226.17
834.32	226.14
834.64	226.14
834.96	226.13
835.27	226.13
835.59	226.10
835.90	226.07
836.22	226.06
836.53	226.02
836.85	226.00
837.16	226.09
837.48	226.10
837.79	226.14
838.11	226.16
838.42	226.17
838.74	226.21
839.05	226.20
839.37	226.19
839.68	226.10
840.00	226.10
840.31	226.11
840.63	226.08
840.94	226.09
841.26	226.03
841.57	226.02
841.88	226.00
842.20	225.96
842.51	225.94
842.83	225.94
843.14	226.03
843.46	226.04
843.77	225.97
844.08	225.98
844.40	225.96
844.71	225.95
845.03	225.93
845.34	225.87
845.65	225.88
845.97	225.87
846.28	225.87
846.60	225.84
846.91	225.83
847.22	225.80
847.54	225.80
847.85	225.81
848.16	225.78
848.48	225.75
848.79	225.78
849.10	225.80
849.42	225.77
849.73	225.70
850.04	225.70
850.36	225.65
850.67	225.64
850.98	225.65
851.30	225.62
851.61	225.61
851.92	225.60
852.23	225.61
852.55	225.61
852.86	225.59
853.17	225.64
853.49	225.62
853.80	225.65
854.11	225.67
854.42	225.71
854.74	225.71
855.05	225.72
855.36	225.66
855.67	225.64
855.99	225.65
856.30	225.72
856.61	225.72
856.92	225.71
857.23	225.71
857.55	225.67
857.86	225.68
858.17	225.68
858.48	225.70
858.79	225.68
859.11	225.72
859.42	225.71
859.73	225.67
860.04	225.68
860.35	225.67
860.66	225.61
860.98	225.57
861.29	225.59
861.60	225.59
861.91	225.61
862.22	225.61
862.53	225.56
862.84	225.48
863.16	225.47
863.47	225.45
863.78	225.44
864.09	225.45
864.40	225.48
864.71	225.49
865.02	225.51
865.33	225.51
865.64	225.46
865.95	225.50
866.27	225.57
866.58	225.56
866.89	225.55
867.20	225.58
867.51	225.54
867.82	225.54
868.13	225.57
868.44	225.56
868.75	225.58
869.06	225.60
869.37	225.58
869.68	225.54
869.99	225.54
870.30	225.52
870.61	225.53
870.92	225.52
871.23	225.51
871.54	225.51
871.85	225.52
872.16	225.52
872.47	225.46
872.78	225.42
873.09	225.42
873.40	225.40
873.71	225.38
874.02	225.42
874.33	225.40
874.64	225.39
874.95	225.40
875.26	225.36
875.56	225.37
875.87	225.36
876.18	225.35
876.49	225.45
876.80	225.42
877.11	225.38
877.42	225.36
877.73	225.37
878.04	225.34
878.35	225.33
878.66	225.31
878.96	225.34
879.27	225.30
879.58	225.29
879.89	225.32
880.20	225.35
880.51	225.34
880.82	225.35
881.12	225.33
881.43	225.30
881.74	225.29
882.05	225.30
882.36	225.32
882.67	225.32
882.97	225.22
883.28	225.23
883.59	225.22
883.90	225.26
884.21	225.28
884.51	225.26
884.82	225.23
885.13	225.23
885.44	225.23
885.74	225.22
886.05	225.22
886.36	225.21
886.67	225.17
886.98	225.23
887.28	225.22
887.59	225.20
887.90	225.22
888.20	225.22
888.51	225.23
888.82	225.19
889.13	225.20
889.43	225.28
889.74	225.25
890.05	225.26
890.35	225.24
890.66	225.20
890.97	225.20
891.28	225.22
891.58	225.26
891.89	225.25
892.20	225.25
892.50	225.23
892.81	225.20
893.12	225.22
893.42	225.14
893.73	225.15
894.04	225.16
894.34	225.17
894.65	225.18
894.95	225.15
895.26	225.15
895.57	225.20
895.87	225.13
896.18	225.17
896.48	225.19
896.79	225.18
897.10	225.20
897.40	225.21
897.71	225.23
898.01	225.21
898.32	225.25
898.63	225.23
898.93	225.23
899.24	225.25
899.54	225.25
899.85	225.28
900.15	225.27
900.46	225.28
900.76	225.27
901.07	225.27
901.38	225.29
901.68	225.33
901.99	225.30
902.29	225.32
902.60	225.32
902.90	225.32
903.21	225.31
903.51	225.30
903.82	225.34
904.12	225.33
904.43	225.32
904.73	225.31
905.03	225.35
905.34	225.48
905.64	225.49
905.95	225.52
906.25	225.49
906.56	225.48
906.86	225.48
907.17	225.46
907.47	225.44
907.77	225.45
908.08	225.43
908.38	225.44
908.69	225.41
908.99	225.42
909.30	225.42
909.60	225.45
909.90	225.46
910.21	225.40
910.51	225.38
910.81	225.38
911.12	225.36
911.42	225.36
911.73	225.21
912.03	225.21
912.33	225.20
912.64	225.21
912.94	225.20
913.24	225.19
913.55	225.20
913.85	225.21
914.15	225.20
914.46	225.20
914.76	225.19
915.06	225.18
915.37	225.17
915.67	225.10
915.97	225.09
916.27	225.06
916.58	225.09
916.88	225.08
917.18	225.10
917.49	225.16
917.79	225.14
918.09	225.12
918.39	225.17
918.70	225.15
919.00	225.19
919.30	225.23
919.60	225.22
919.91	225.22
920.21	225.21
920.51	225.20
920.81	225.17
921.12	225.16
921.42	225.16
921.72	225.16
922.02	225.20
922.32	225.20
922.63	225.18
922.93	225.20
923.23	225.22
923.53	225.20
923.83	225.11
924.13	225.11
924.44	225.13
924.74	225.08
925.04	225.11
925.34	225.07
925.64	225.01
925.94	225.01
926.24	225.05
926.55	225.05
926.85	225.06
927.15	225.05
927.45	225.07
927.75	225.09
928.05	225.10
928.35	225.10
928.65	225.13
928.95	225.11
929.26	225.09
929.56	225.06
929.86	225.05
930.16	225.06
930.46	225.03
930.76	225.03
931.06	224.99
931.36	224.98
931.66	225.01
931.96	225.04
932.26	225.04
932.56	225.00
932.86	224.97
933.16	224.97
933.46	224.99
933.76	224.96
934.06	224.99
934.36	225.02
934.66	224.99
934.96	224.97
935.26	225.02
935.56	225.02
935.86	225.04
936.16	225.02
936.46	225.03
936.76	225.05
937.06	225.05
937.36	225.08
937.66	225.08
937.96	225.07
938.26	225.07
938.56	225.08
938.86	225.07
939.16	225.14
939.46	225.13
939.76	225.11
940.06	225.12
940.35	225.07
940.65	225.02
940.95	225.04
941.25	225.04
941.55	225.04
941.85	225.02
942.15	225.03
942.45	225.09
942.75	225.09
943.04	225.10
943.34	225.11
943.64	225.09
943.94	225.06
944.24	225.06
944.54	225.03
944.84	225.00
945.13	224.98
945.43	224.90
945.73	224.93
946.03	224.95
946.33	224.94
946.62	224.95
946.92	224.94
947.22	224.96
947.52	224.94
947.82	224.94
948.11	224.95
948.41	224.95
948.71	224.90
949.01	224.92
949.31	224.90
949.60	224.90
949.90	224.92
950.20	224.91
950.50	224.93
950.79	224.94
951.09	224.95
951.39	224.97
951.69	224.97
951.98	225.00
952.28	224.97
952.58	224.97
952.87	224.98
953.17	224.99
953.47	224.98
953.76	224.98
954.06	224.97
954.36	224.95
954.66	224.91
954.95	224.92
955.25	224.88
955.55	224.88
955.84	224.87
956.14	224.87
956.44	224.88
956.73	224.84
957.03	224.87
957.32	224.86
957.62	224.85
957.92	224.87
958.21	224.85
958.51	224.97
958.81	224.96
959.10	224.96
959.40	224.97
959.69	224.95
959.99	224.95
960.29	224.94
960.58	224.94
960.88	224.98
961.17	224.95
961.47	224.99
961.76	224.99
962.06	225.00
962.36	225.01
962.65	225.02
962.95	225.02
963.24	225.01
963.54	225.03
963.83	225.07
964.13	225.09
964.42	225.05
964.72	224.97
965.01	224.99
965.31	224.99
965.60	224.98
965.90	225.05
966.19	225.05
966.49	225.06
966.78	225.05
967.08	225.05
967.37	225.07
967.67	225.05
967.96	225.08
968.26	225.06
968.55	225.06
968.85	225.04
969.14	225.05
969.43	225.04
969.73	225.05
970.02	224.99
970.32	224.99
970.61	224.98
970.91	224.93
971.20	224.92
971.49	224.90
971.79	224.91
972.08	224.83
972.38	224.85
972.67	224.84
972.96	224.85
973.26	224.84
973.55	224.89
973.85	224.90
974.14	224.89
974.43	224.90
974.73	224.91
975.02	224.93
975.31	224.94
975.61	224.96
975.90	224.94
976.19	224.95
976.49	224.94
976.78	224.96
977.07	224.99
977.37	225.03
977.66	225.03
977.95	225.02
978.24	225.06
978.54	225.07
978.83	225.09
979.12	225.13
979.42	225.11
979.71	225.07
980.00	225.05
980.29	225.04
980.59	225.04
980.88	225.04
981.17	225.03
981.46	225.03
981.76	225.04
982.05	225.09
982.34	225.11
982.63	225.11
982.93	225.09
983.22	225.12
983.51	225.11
983.80	225.14
984.09	225.15
984.39	225.13
984.68	225.10
984.97	225.09
985.26	225.05
985.55	225.08
985.85	225.07
986.14	225.08
986.43	225.12
986.72	225.13
987.01	225.10
987.30	225.13
987.59	225.15
987.89	225.11
988.18	225.06
988.47	225.05
988.76	225.04
989.05	225.04
989.34	225.03
989.63	225.07
989.92	225.06
990.22	225.06
990.51	225.07
990.80	225.08
991.09	225.08
991.38	225.11
991.67	225.11
991.96	225.11
992.25	225.12
992.54	225.06
992.83	225.06
993.12	225.05
993.41	225.03
993.70	225.02
993.99	225.04
994.28	225.07
994.58	225.07
994.87	225.03
995.16	225.02
995.45	225.01
995.74	224.93
996.03	224.94
996.32	224.93
996.61	224.92
996.90	224.90
997.19	224.88
997.48	224.83
997.77	224.82
998.06	224.80
998.34	224.82
998.63	224.82
998.92	224.81
999.21	224.85
999.50	224.85
999.79	224.84
1000.08	224.83
1000.37	224.83
1000.66	224.82
1000.95	224.86
1001.24	224.88
1001.53	224.88
1001.82	224.88
1002.11	224.82
1002.40	224.85
1002.68	224.88
1002.97	224.95
1003.26	224.93
1003.55	224.90
1003.84	224.89
1004.13	224.93
1004.42	224.90
1004.71	224.90
1004.99	224.91
1005.28	224.90
1005.57	224.91
1005.86	224.87
1006.15	224.87
1006.44	224.82
1006.72	224.83
1007.01	224.85
1007.30	224.85
1007.59	224.81
1007.88	224.80
1008.17	224.82
1008.45	224.79
1008.74	224.75
1009.03	224.70
1009.32	224.71
1009.60	224.75
1009.89	224.76
1010.18	224.74
1010.47	224.75
1010.76	224.76
1011.04	224.75
1011.33	224.76
1011.62	224.76
1011.91	224.82
1012.19	224.83
1012.48	224.85
1012.77	224.85
1013.05	224.89
1013.34	224.91
1013.63	224.94
1013.92	224.93
1014.20	224.97
1014.49	224.99
1014.78	225.00
1015.06	224.99
1015.35	225.00
1015.64	225.00
1015.92	225.01
1016.21	225.00
1016.50	225.01
1016.78	225.05
1017.07	225.05
1017.36	225.06
1017.64	225.06
1017.93	225.06
1018.22	225.02
1018.50	225.03
1018.79	225.03
1019.08	224.99
1019.36	224.98
1019.65	225.00
1019.93	225.06
1020.22	225.06
1020.51	225.12
1020.79	225.11
1021.08	224.35
1021.36	224.88
1021.65	225.25
1021.94	225.10
1022.22	224.81
1022.51	225.48
1022.79	225.71
1023.08	225.32
1023.36	226.10
1023.65	224.68
>>>>>End Processed Spectral Data<<<<<
