SpectraSuite Data File
++++++++++++++++++++++++++++++++++++
Date: Fri Feb 01 15:29:23 EST 2013
User: group
Dark Spectrum Present: No
Reference Spectrum Present: No
Number of Sampled Component Spectra: 1
Spectrometers: USB2E7196
Integration Time (usec): 35000 (USB2E7196)
Spectra Averaged: 100 (USB2E7196)
Boxcar Smoothing: 10 (USB2E7196)
Correct for Electrical Dark: No (USB2E7196)
Strobe/Lamp Enabled: No (USB2E7196)
Correct for Detector Non-linearity: No (USB2E7196)
Correct for Stray Light: No (USB2E7196)
Number of Pixels in Processed Spectrum: 2048
>>>>>Begin Processed Spectral Data<<<<<
339.09	0.00
339.48	215.01
339.86	216.27
340.24	218.01
340.63	219.64
341.01	222.06
341.39	221.54
341.78	223.53
342.16	223.98
342.54	224.44
342.93	213.34
343.31	224.14
343.69	224.68
344.07	225.13
344.46	225.54
344.84	225.92
345.22	226.16
345.60	226.46
345.99	226.64
346.37	226.78
346.75	226.92
347.13	226.96
347.52	227.00
347.90	227.07
348.28	227.11
348.66	227.13
349.05	227.11
349.43	227.14
349.81	227.19
350.19	227.24
350.57	227.34
350.96	227.39
351.34	227.46
351.72	227.56
352.10	227.69
352.48	227.79
352.87	227.83
353.25	227.89
353.63	227.94
354.01	228.00
354.39	228.09
354.77	228.14
355.15	228.26
355.54	228.33
355.92	228.40
356.30	228.47
356.68	228.60
357.06	228.68
357.44	228.71
357.82	228.75
358.20	228.82
358.58	228.86
358.97	228.94
359.35	229.03
359.73	229.08
360.11	229.08
360.49	229.09
360.87	229.13
361.25	229.17
361.63	229.24
362.01	229.27
362.39	229.29
362.77	229.34
363.15	229.34
363.53	229.37
363.91	229.36
364.29	229.33
364.67	229.25
365.05	229.27
365.43	229.30
365.81	229.26
366.19	229.28
366.57	229.31
366.95	229.28
367.33	229.21
367.71	229.19
368.09	229.20
368.47	229.18
368.85	229.15
369.23	229.13
369.61	229.06
369.99	229.04
370.37	229.01
370.75	228.99
371.13	228.87
371.51	228.81
371.89	228.77
372.27	228.77
372.65	228.73
373.03	228.68
373.41	228.64
373.78	228.59
374.16	228.49
374.54	228.38
374.92	228.31
375.30	228.26
375.68	228.17
376.06	228.13
376.44	228.05
376.82	227.99
377.19	227.93
377.57	227.85
377.95	227.75
378.33	227.69
378.71	227.57
379.09	227.53
379.47	227.45
379.84	227.38
380.22	227.26
380.60	227.19
380.98	227.09
381.36	227.00
381.73	226.96
382.11	226.91
382.49	226.88
382.87	226.80
383.25	226.74
383.62	226.81
384.00	226.71
384.38	226.64
384.76	226.59
385.13	226.58
385.51	226.53
385.89	226.48
386.27	226.44
386.64	226.41
387.02	226.38
387.40	226.38
387.78	226.33
388.15	226.30
388.53	226.29
388.91	226.27
389.29	226.23
389.66	226.17
390.04	226.14
390.42	226.14
390.79	226.13
391.17	226.11
391.55	226.02
391.92	226.00
392.30	226.04
392.68	226.04
393.05	226.02
393.43	226.06
393.81	226.09
394.18	226.08
394.56	226.11
394.94	226.19
395.31	226.18
395.69	226.26
396.06	226.30
396.44	226.32
396.82	226.37
397.19	226.49
397.57	226.58
397.95	226.68
398.32	226.68
398.70	226.75
399.07	226.85
399.45	226.90
399.82	227.00
400.20	227.08
400.58	227.15
400.95	227.21
401.33	227.30
401.70	227.48
402.08	227.60
402.45	227.69
402.83	227.78
403.20	227.90
403.58	228.02
403.95	228.16
404.33	228.34
404.71	228.49
405.08	228.69
405.46	228.84
405.83	228.99
406.21	229.15
406.58	229.32
406.96	229.47
407.33	229.66
407.70	229.88
408.08	230.16
408.45	230.37
408.83	230.59
409.20	230.80
409.58	230.98
409.95	231.24
410.33	231.48
410.70	231.73
411.08	231.99
411.45	232.26
411.82	232.58
412.20	232.91
412.57	233.31
412.95	233.59
413.32	233.99
413.69	234.36
414.07	234.80
414.44	235.24
414.82	235.71
415.19	236.29
415.56	236.80
415.94	237.32
416.31	237.98
416.68	238.58
417.06	239.29
417.43	239.94
417.81	240.69
418.18	241.53
418.55	242.39
418.93	243.30
419.30	244.21
419.67	245.11
420.04	246.08
420.42	247.08
420.79	248.24
421.16	249.37
421.54	250.59
421.91	251.78
422.28	253.04
422.66	254.37
423.03	255.62
423.40	256.98
423.77	258.39
424.15	259.81
424.52	261.32
424.89	262.92
425.26	264.52
425.64	265.95
426.01	267.50
426.38	269.18
426.75	270.85
427.13	272.56
427.50	274.36
427.87	276.18
428.24	278.01
428.61	279.76
428.99	281.72
429.36	283.82
429.73	285.94
430.10	287.95
430.47	290.03
430.85	292.19
431.22	294.43
431.59	296.80
431.96	299.08
432.33	301.61
432.70	304.00
433.08	306.81
433.45	309.50
433.82	312.11
434.19	315.00
434.56	317.85
434.93	320.52
435.30	323.18
435.68	326.14
436.05	329.02
436.42	331.84
436.79	334.35
437.16	337.09
437.53	339.94
437.90	342.78
438.27	345.54
438.64	348.35
439.01	350.96
439.38	353.22
439.75	355.40
440.13	357.94
440.50	360.29
440.87	362.13
441.24	364.08
441.61	366.28
441.98	367.74
442.35	369.52
442.72	371.38
443.09	373.19
443.46	374.22
443.83	374.83
444.20	375.32
444.57	376.18
444.94	376.41
445.31	376.74
445.68	377.09
446.05	377.17
446.42	376.80
446.79	376.37
447.16	375.94
447.53	375.60
447.90	374.37
448.27	373.22
448.64	371.62
449.01	370.45
449.37	368.43
449.74	366.59
450.11	364.36
450.48	361.87
450.85	359.36
451.22	357.18
451.59	355.13
451.96	353.14
452.33	350.49
452.70	348.16
453.07	345.31
453.43	342.43
453.80	339.63
454.17	336.93
454.54	334.36
454.91	331.61
455.28	328.90
455.65	326.41
456.02	323.94
456.38	321.80
456.75	319.15
457.12	316.94
457.49	314.69
457.86	312.51
458.23	310.70
458.59	308.63
458.96	306.50
459.33	304.63
459.70	302.80
460.07	301.31
460.43	299.58
460.80	297.94
461.17	296.46
461.54	294.95
461.91	293.50
462.27	292.06
462.64	290.80
463.01	289.47
463.38	288.13
463.74	286.73
464.11	285.57
464.48	284.52
464.85	283.41
465.21	282.50
465.58	281.55
465.95	280.43
466.32	279.50
466.68	278.57
467.05	277.63
467.42	276.75
467.78	275.79
468.15	274.92
468.52	274.23
468.88	273.38
469.25	272.57
469.62	271.96
469.98	271.33
470.35	270.70
470.72	270.03
471.08	269.40
471.45	268.86
471.82	268.30
472.18	267.70
472.55	267.24
472.92	266.70
473.28	266.24
473.65	265.81
474.02	265.35
474.38	264.99
474.75	264.68
475.11	264.33
475.48	264.10
475.85	263.82
476.21	263.59
476.58	263.42
476.94	263.28
477.31	263.11
477.67	262.94
478.04	262.83
478.41	262.83
478.77	262.86
479.14	262.83
479.50	262.84
479.87	262.88
480.23	262.95
480.60	263.04
480.96	263.12
481.33	263.29
481.69	263.50
482.06	263.72
482.42	263.91
482.79	264.13
483.15	264.43
483.52	264.83
483.88	265.19
484.25	265.54
484.61	266.03
484.98	266.47
485.34	267.04
485.71	267.62
486.07	268.17
486.44	268.73
486.80	269.44
487.17	270.17
487.53	271.02
487.90	271.86
488.26	272.79
488.62	273.82
488.99	274.83
489.35	275.87
489.72	276.99
490.08	278.23
490.44	279.55
490.81	280.90
491.17	282.25
491.54	283.77
491.90	285.33
492.26	286.97
492.63	288.74
492.99	290.51
493.36	292.40
493.72	294.48
494.08	296.58
494.45	298.80
494.81	301.16
495.17	303.60
495.54	306.19
495.90	308.88
496.26	311.68
496.63	314.65
496.99	317.79
497.35	321.07
497.72	324.46
498.08	327.96
498.44	331.64
498.80	335.61
499.17	339.64
499.53	343.80
499.89	348.19
500.26	352.66
500.62	357.33
500.98	362.29
501.34	367.37
501.71	372.74
502.07	378.21
502.43	383.82
502.79	389.60
503.16	395.64
503.52	401.93
503.88	408.34
504.24	414.93
504.60	421.82
504.97	428.89
505.33	436.18
505.69	443.89
506.05	451.66
506.41	459.48
506.78	467.64
507.14	476.12
507.50	484.82
507.86	493.84
508.22	503.05
508.59	512.25
508.95	521.87
509.31	531.65
509.67	541.75
510.03	552.02
510.39	562.67
510.75	573.52
511.12	584.43
511.48	595.76
511.84	607.22
512.20	618.74
512.56	630.71
512.92	642.92
513.28	655.28
513.64	667.78
514.00	680.57
514.37	693.48
514.73	706.60
515.09	719.64
515.45	732.96
515.81	746.52
516.17	760.55
516.53	774.67
516.89	788.86
517.25	803.08
517.61	817.57
517.97	832.09
518.33	846.54
518.69	861.42
519.05	876.39
519.41	891.67
519.77	907.23
520.13	922.79
520.49	938.27
520.85	953.59
521.21	969.40
521.57	985.76
521.93	1001.60
522.29	1018.01
522.65	1034.35
523.01	1050.58
523.37	1066.65
523.73	1082.85
524.09	1099.07
524.45	1115.45
524.81	1132.14
525.17	1149.11
525.53	1165.91
525.89	1182.76
526.25	1199.56
526.61	1216.01
526.97	1232.68
527.33	1249.27
527.68	1265.94
528.04	1282.37
528.40	1299.31
528.76	1316.34
529.12	1332.82
529.48	1349.83
529.84	1365.89
530.20	1382.57
530.56	1399.75
530.91	1417.23
531.27	1434.07
531.63	1450.54
531.99	1467.25
532.35	1483.18
532.71	1499.00
533.07	1515.44
533.42	1531.50
533.78	1547.53
534.14	1563.75
534.50	1579.12
534.86	1595.06
535.21	1610.25
535.57	1626.36
535.93	1641.77
536.29	1656.64
536.65	1671.90
537.00	1686.72
537.36	1702.18
537.72	1716.76
538.08	1731.24
538.44	1745.22
538.79	1759.16
539.15	1772.94
539.51	1786.81
539.87	1801.31
540.22	1815.07
540.58	1828.86
540.94	1842.30
541.29	1855.31
541.65	1868.17
542.01	1881.53
542.37	1893.90
542.72	1906.46
543.08	1918.30
543.44	1930.81
543.79	1942.20
544.15	1953.14
544.51	1964.77
544.87	1975.73
545.22	1986.62
545.58	1996.70
545.94	2006.41
546.29	2016.32
546.65	2026.23
547.01	2035.44
547.36	2044.23
547.72	2052.76
548.07	2060.60
548.43	2068.81
548.79	2076.90
549.14	2084.53
549.50	2091.99
549.86	2099.73
550.21	2106.94
550.57	2114.00
550.92	2120.58
551.28	2127.62
551.64	2134.77
551.99	2141.36
552.35	2147.47
552.70	2153.60
553.06	2159.74
553.41	2166.26
553.77	2172.29
554.13	2178.21
554.48	2184.25
554.84	2189.59
555.19	2194.88
555.55	2200.16
555.90	2204.67
556.26	2209.70
556.61	2214.36
556.97	2218.61
557.32	2222.75
557.68	2226.93
558.03	2231.29
558.39	2235.03
558.74	2239.51
559.10	2243.29
559.45	2246.85
559.81	2251.16
560.16	2254.85
560.52	2257.95
560.87	2261.18
561.23	2263.82
561.58	2266.88
561.94	2269.31
562.29	2271.87
562.64	2274.63
563.00	2277.20
563.35	2280.63
563.71	2283.63
564.06	2286.81
564.42	2289.54
564.77	2291.92
565.12	2294.15
565.48	2295.90
565.83	2297.61
566.19	2299.01
566.54	2300.12
566.89	2301.21
567.25	2301.71
567.60	2303.24
567.96	2304.93
568.31	2305.63
568.66	2306.76
569.02	2307.32
569.37	2307.83
569.72	2308.56
570.08	2308.55
570.43	2308.48
570.78	2307.72
571.14	2306.23
571.49	2304.89
571.84	2304.54
572.20	2303.33
572.55	2302.28
572.90	2300.75
573.26	2299.35
573.61	2297.68
573.96	2295.76
574.31	2292.70
574.67	2289.61
575.02	2285.84
575.37	2282.36
575.72	2278.62
576.08	2275.13
576.43	2271.65
576.78	2267.85
577.13	2264.62
577.49	2261.47
577.84	2257.90
578.19	2254.15
578.54	2250.33
578.90	2246.20
579.25	2240.63
579.60	2235.61
579.95	2230.56
580.30	2225.43
580.66	2220.14
581.01	2215.03
581.36	2210.01
581.71	2205.90
582.06	2201.52
582.42	2197.02
582.77	2191.82
583.12	2187.11
583.47	2182.40
583.82	2177.44
584.17	2172.00
584.53	2166.27
584.88	2160.54
585.23	2154.71
585.58	2149.24
585.93	2143.69
586.28	2138.67
586.63	2133.54
586.98	2128.47
587.34	2123.71
587.69	2118.81
588.04	2113.51
588.39	2107.75
588.74	2101.14
589.09	2094.92
589.44	2088.02
589.79	2081.89
590.14	2076.22
590.49	2069.68
590.84	2063.15
591.19	2057.02
591.54	2050.67
591.89	2043.38
592.25	2036.44
592.60	2029.22
592.95	2021.45
593.30	2014.12
593.65	2006.45
594.00	1999.41
594.35	1991.99
594.70	1983.82
595.05	1976.57
595.40	1969.35
595.75	1961.77
596.10	1955.53
596.45	1948.54
596.80	1942.41
597.15	1935.60
597.50	1928.39
597.85	1921.98
598.19	1915.41
598.54	1908.37
598.89	1901.67
599.24	1895.70
599.59	1889.14
599.94	1882.84
600.29	1876.64
600.64	1869.94
600.99	1862.39
601.34	1855.46
601.69	1848.53
602.04	1841.62
602.39	1834.16
602.74	1827.24
603.08	1820.48
603.43	1813.65
603.78	1806.41
604.13	1799.05
604.48	1791.75
604.83	1784.86
605.18	1777.79
605.53	1769.64
605.87	1761.44
606.22	1754.17
606.57	1746.20
606.92	1738.91
607.27	1731.58
607.62	1724.59
607.96	1717.28
608.31	1710.67
608.66	1702.91
609.01	1695.27
609.36	1687.69
609.70	1679.67
610.05	1671.43
610.40	1663.71
610.75	1655.37
611.10	1647.74
611.44	1639.40
611.79	1631.41
612.14	1622.68
612.49	1613.54
612.83	1605.22
613.18	1597.15
613.53	1589.06
613.88	1580.49
614.22	1572.08
614.57	1563.59
614.92	1555.53
615.27	1547.95
615.61	1539.59
615.96	1531.65
616.31	1524.07
616.65	1516.64
617.00	1509.07
617.35	1501.52
617.70	1493.10
618.04	1484.60
618.39	1476.29
618.74	1468.76
619.08	1460.46
619.43	1452.96
619.78	1446.01
620.12	1438.82
620.47	1431.35
620.82	1423.07
621.16	1415.71
621.51	1408.17
621.85	1400.61
622.20	1391.96
622.55	1383.67
622.89	1375.85
623.24	1368.19
623.59	1360.89
623.93	1353.40
624.28	1346.20
624.62	1338.65
624.97	1331.45
625.32	1324.77
625.66	1317.78
626.01	1310.42
626.35	1302.90
626.70	1295.11
627.04	1287.32
627.39	1279.44
627.73	1272.00
628.08	1265.16
628.43	1257.74
628.77	1250.27
629.12	1242.68
629.46	1235.57
629.81	1228.06
630.15	1220.83
630.50	1213.42
630.84	1205.21
631.19	1197.25
631.53	1189.79
631.88	1182.16
632.22	1174.62
632.57	1167.33
632.91	1159.78
633.26	1152.33
633.60	1145.02
633.95	1137.90
634.29	1130.78
634.64	1124.13
634.98	1116.67
635.32	1109.46
635.67	1102.95
636.01	1096.35
636.36	1089.49
636.70	1083.02
637.05	1076.47
637.39	1070.01
637.73	1063.49
638.08	1057.54
638.42	1051.65
638.77	1045.10
639.11	1038.57
639.45	1032.18
639.80	1025.44
640.14	1018.99
640.49	1012.49
640.83	1006.20
641.17	1000.00
641.52	993.82
641.86	987.44
642.20	981.63
642.55	975.35
642.89	968.76
643.23	962.21
643.58	956.43
643.92	950.15
644.26	944.13
644.61	938.15
644.95	932.09
645.29	925.49
645.64	918.65
645.98	912.31
646.32	906.40
646.66	900.35
647.01	894.52
647.35	888.83
647.69	883.05
648.04	877.54
648.38	871.70
648.72	865.63
649.06	859.52
649.41	853.61
649.75	847.54
650.09	841.66
650.43	835.89
650.78	829.75
651.12	823.85
651.46	818.22
651.80	812.40
652.14	807.07
652.49	801.69
652.83	796.59
653.17	790.95
653.51	785.27
653.85	779.85
654.20	774.25
654.54	768.20
654.88	762.43
655.22	756.51
655.56	750.83
655.90	745.40
656.25	740.16
656.59	734.81
656.93	729.74
657.27	724.62
657.61	719.12
657.95	714.00
658.29	708.86
658.64	703.49
658.98	698.27
659.32	692.77
659.66	687.56
660.00	682.20
660.34	677.32
660.68	672.41
661.02	667.50
661.36	662.80
661.70	658.33
662.05	653.92
662.39	649.65
662.73	645.21
663.07	640.86
663.41	636.42
663.75	631.87
664.09	627.30
664.43	622.92
664.77	618.88
665.11	614.63
665.45	610.56
665.79	606.49
666.13	602.35
666.47	598.28
666.81	594.12
667.15	589.98
667.49	586.02
667.83	582.21
668.17	578.28
668.51	574.26
668.85	570.22
669.19	566.41
669.53	562.58
669.87	558.74
670.21	554.99
670.55	551.35
670.89	547.95
671.23	544.63
671.57	541.09
671.91	537.50
672.25	534.04
672.58	530.50
672.92	527.10
673.26	523.91
673.60	520.77
673.94	517.67
674.28	514.83
674.62	511.93
674.96	508.84
675.30	505.82
675.64	502.90
675.97	500.16
676.31	497.31
676.65	494.32
676.99	491.63
677.33	488.77
677.67	485.98
678.01	482.97
678.34	479.91
678.68	477.05
679.02	474.26
679.36	471.52
679.70	468.81
680.04	466.06
680.37	463.21
680.71	460.41
681.05	457.85
681.39	455.14
681.73	452.53
682.06	450.00
682.40	447.51
682.74	444.95
683.08	442.39
683.42	439.76
683.75	437.28
684.09	434.66
684.43	432.22
684.77	429.78
685.10	427.43
685.44	425.14
685.78	422.83
686.12	420.58
686.45	418.30
686.79	415.97
687.13	413.77
687.46	411.60
687.80	409.45
688.14	407.21
688.48	405.11
688.81	402.74
689.15	400.59
689.49	398.46
689.82	396.38
690.16	394.31
690.50	392.42
690.83	390.45
691.17	388.46
691.51	386.51
691.84	384.65
692.18	382.72
692.52	380.73
692.85	378.80
693.19	376.92
693.52	375.03
693.86	373.27
694.20	371.46
694.53	369.66
694.87	367.80
695.21	365.99
695.54	364.17
695.88	362.49
696.21	360.77
696.55	359.07
696.88	357.35
697.22	355.68
697.56	354.04
697.89	352.41
698.23	350.82
698.56	349.27
698.90	347.66
699.23	346.03
699.57	344.49
699.90	342.95
700.24	341.44
700.58	339.92
700.91	338.42
701.25	336.98
701.58	335.64
701.92	334.30
702.25	332.95
702.59	331.59
702.92	330.28
703.26	329.03
703.59	327.77
703.93	326.61
704.26	325.37
704.60	324.07
704.93	322.80
705.26	321.58
705.60	320.39
705.93	319.27
706.27	318.23
706.60	317.18
706.94	316.14
707.27	315.01
707.61	313.98
707.94	312.98
708.27	311.89
708.61	310.78
708.94	309.78
709.28	308.80
709.61	307.87
709.94	306.93
710.28	305.88
710.61	304.89
710.95	303.85
711.28	302.92
711.61	302.03
711.95	301.14
712.28	300.21
712.61	299.25
712.95	298.34
713.28	297.50
713.61	296.63
713.95	295.75
714.28	294.92
714.61	294.08
714.95	293.21
715.28	292.39
715.61	291.53
715.95	290.68
716.28	289.81
716.61	288.99
716.95	288.18
717.28	287.45
717.61	286.71
717.94	286.00
718.28	285.21
718.61	284.45
718.94	283.71
719.27	283.06
719.61	282.40
719.94	281.73
720.27	281.00
720.60	280.33
720.94	279.66
721.27	279.07
721.60	278.46
721.93	277.85
722.27	277.32
722.60	276.79
722.93	276.20
723.26	275.69
723.59	275.07
723.93	274.51
724.26	273.95
724.59	273.41
724.92	272.88
725.25	272.35
725.59	271.83
725.92	271.34
726.25	270.79
726.58	270.29
726.91	269.79
727.24	269.31
727.57	268.85
727.91	268.36
728.24	267.88
728.57	267.39
728.90	266.93
729.23	266.38
729.56	265.94
729.89	265.45
730.22	264.96
730.55	264.50
730.89	264.07
731.22	263.58
731.55	263.12
731.88	262.63
732.21	262.22
732.54	261.79
732.87	261.33
733.20	260.93
733.53	260.51
733.86	260.11
734.19	259.71
734.52	259.29
734.85	258.94
735.18	258.54
735.51	258.19
735.84	257.79
736.17	257.45
736.50	257.03
736.83	256.81
737.16	256.45
737.49	256.14
737.82	255.77
738.15	255.44
738.48	255.08
738.81	254.82
739.14	254.46
739.47	254.15
739.80	253.86
740.13	253.57
740.46	253.27
740.79	252.93
741.12	252.60
741.45	252.31
741.78	251.95
742.11	251.65
742.44	251.33
742.77	251.08
743.10	250.82
743.43	250.53
743.75	250.14
744.08	250.03
744.41	249.79
744.74	249.51
745.07	249.25
745.40	249.01
745.73	248.76
746.06	248.52
746.39	248.27
746.71	248.01
747.04	247.74
747.37	247.48
747.70	247.25
748.03	247.03
748.36	246.83
748.68	246.60
749.01	246.38
749.34	246.19
749.67	245.95
750.00	245.71
750.33	245.57
750.65	245.35
750.98	244.99
751.31	244.72
751.64	244.57
751.97	244.42
752.29	244.22
752.62	243.99
752.95	243.81
753.28	243.60
753.60	243.41
753.93	243.29
754.26	243.12
754.59	242.88
754.91	242.66
755.24	242.48
755.57	242.31
755.90	242.12
756.22	241.91
756.55	241.74
756.88	241.55
757.20	241.35
757.53	241.18
757.86	241.05
758.19	240.92
758.51	240.74
758.84	240.53
759.17	240.36
759.49	240.16
759.82	240.04
760.15	239.87
760.47	239.75
760.80	239.52
761.13	239.38
761.45	239.24
761.78	239.08
762.11	238.93
762.43	238.77
762.76	238.65
763.08	238.52
763.41	238.40
763.74	238.26
764.06	238.10
764.39	237.95
764.71	237.80
765.04	237.68
765.37	237.52
765.69	237.38
766.02	237.25
766.34	237.16
766.67	237.01
767.00	236.93
767.32	236.86
767.65	236.79
767.97	236.63
768.30	236.52
768.62	236.43
768.95	236.30
769.27	236.20
769.60	236.05
769.92	235.90
770.25	235.75
770.57	235.60
770.90	235.45
771.22	235.32
771.55	235.21
771.87	235.10
772.20	235.02
772.52	234.96
772.85	234.94
773.17	234.82
773.50	234.66
773.82	234.54
774.15	234.36
774.47	234.24
774.80	234.15
775.12	234.08
775.45	233.98
775.77	233.88
776.09	233.80
776.42	233.70
776.74	233.63
777.07	233.53
777.39	233.48
777.72	233.42
778.04	233.37
778.36	233.28
778.69	233.19
779.01	233.12
779.33	232.99
779.66	232.84
779.98	232.78
780.31	232.72
780.63	232.67
780.95	232.64
781.28	232.54
781.60	232.46
781.92	232.39
782.25	232.34
782.57	232.26
782.89	232.15
783.22	232.11
783.54	232.03
783.86	232.00
784.19	231.93
784.51	231.93
784.83	231.81
785.16	231.77
785.48	231.70
785.80	231.64
786.12	231.58
786.45	231.51
786.77	231.49
787.09	231.41
787.42	231.32
787.74	231.29
788.06	231.27
788.38	231.23
788.71	231.17
789.03	231.15
789.35	231.12
789.67	231.09
789.99	231.03
790.32	230.98
790.64	230.95
790.96	230.99
791.28	230.91
791.61	230.90
791.93	230.88
792.25	230.86
792.57	230.87
792.89	230.84
793.21	230.82
793.54	230.78
793.86	230.78
794.18	230.79
794.50	230.73
794.82	230.70
795.14	230.68
795.47	230.71
795.79	230.67
796.11	230.67
796.43	230.65
796.75	230.67
797.07	230.67
797.39	230.64
797.71	230.55
798.04	230.54
798.36	230.53
798.68	230.49
799.00	230.48
799.32	230.38
799.64	230.39
799.96	230.38
800.28	230.36
800.60	230.32
800.92	230.28
801.24	230.28
801.56	230.27
801.89	230.20
802.21	230.14
802.53	230.08
802.85	230.06
803.17	230.03
803.49	229.96
803.81	229.92
804.13	229.90
804.45	229.88
804.77	229.85
805.09	229.85
805.41	229.83
805.73	229.79
806.05	229.76
806.37	229.72
806.69	229.70
807.01	229.67
807.33	229.65
807.65	229.56
807.97	229.59
808.28	229.54
808.60	229.57
808.92	229.51
809.24	229.54
809.56	229.47
809.88	229.46
810.20	229.46
810.52	229.45
810.84	229.40
811.16	229.34
811.48	229.30
811.80	229.29
812.12	229.24
812.43	229.24
812.75	229.21
813.07	229.19
813.39	229.14
813.71	229.11
814.03	229.07
814.35	229.05
814.67	228.97
814.98	228.94
815.30	228.87
815.62	228.86
815.94	228.78
816.26	228.79
816.58	228.73
816.89	228.70
817.21	228.66
817.53	228.65
817.85	228.66
818.17	228.60
818.48	228.53
818.80	228.52
819.12	228.47
819.44	228.45
819.76	228.40
820.07	228.37
820.39	228.33
820.71	228.34
821.03	228.31
821.34	228.29
821.66	228.24
821.98	228.26
822.30	228.23
822.61	228.29
822.93	228.24
823.25	228.23
823.57	228.22
823.88	228.21
824.20	228.20
824.52	228.19
824.83	228.19
825.15	228.19
825.47	228.18
825.79	228.17
826.10	228.14
826.42	228.14
826.74	228.16
827.05	228.15
827.37	228.16
827.69	228.16
828.00	228.16
828.32	228.18
828.64	228.16
828.95	228.22
829.27	228.19
829.58	228.19
829.90	228.20
830.22	228.19
830.53	228.18
830.85	228.14
831.17	228.08
831.48	228.08
831.80	228.05
832.11	228.03
832.43	228.03
832.75	228.03
833.06	228.09
833.38	228.02
833.69	228.00
834.01	227.99
834.32	228.00
834.64	228.00
834.96	227.99
835.27	227.99
835.59	227.96
835.90	227.93
836.22	227.94
836.53	227.95
836.85	227.92
837.16	228.00
837.48	228.01
837.79	228.07
838.11	228.07
838.42	228.09
838.74	228.12
839.05	228.07
839.37	228.05
839.68	228.00
840.00	228.00
840.31	228.05
840.63	228.02
840.94	227.99
841.26	227.95
841.57	227.93
841.88	227.94
842.20	227.90
842.51	227.86
842.83	227.86
843.14	227.91
843.46	227.95
843.77	227.89
844.08	227.90
844.40	227.84
844.71	227.81
845.03	227.80
845.34	227.78
845.65	227.79
845.97	227.80
846.28	227.79
846.60	227.79
846.91	227.76
847.22	227.72
847.54	227.72
847.85	227.71
848.16	227.71
848.48	227.67
848.79	227.69
849.10	227.71
849.42	227.68
849.73	227.58
850.04	227.53
850.36	227.49
850.67	227.47
850.98	227.47
851.30	227.47
851.61	227.44
851.92	227.46
852.23	227.46
852.55	227.43
852.86	227.43
853.17	227.42
853.49	227.41
853.80	227.45
854.11	227.48
854.42	227.47
854.74	227.47
855.05	227.45
855.36	227.39
855.67	227.38
855.99	227.39
856.30	227.50
856.61	227.49
856.92	227.48
857.23	227.46
857.55	227.48
857.86	227.47
858.17	227.45
858.48	227.38
858.79	227.35
859.11	227.41
859.42	227.40
859.73	227.38
860.04	227.40
860.35	227.37
860.66	227.32
860.98	227.34
861.29	227.33
861.60	227.31
861.91	227.36
862.22	227.35
862.53	227.32
862.84	227.17
863.16	227.19
863.47	227.15
863.78	227.18
864.09	227.18
864.40	227.18
864.71	227.22
865.02	227.24
865.33	227.25
865.64	227.21
865.95	227.23
866.27	227.33
866.58	227.30
866.89	227.31
867.20	227.30
867.51	227.28
867.82	227.28
868.13	227.34
868.44	227.28
868.75	227.28
869.06	227.28
869.37	227.34
869.68	227.32
869.99	227.37
870.30	227.35
870.61	227.35
870.92	227.33
871.23	227.34
871.54	227.36
871.85	227.36
872.16	227.39
872.47	227.38
872.78	227.31
873.09	227.36
873.40	227.35
873.71	227.39
874.02	227.41
874.33	227.40
874.64	227.38
874.95	227.42
875.26	227.41
875.56	227.45
875.87	227.44
876.18	227.43
876.49	227.53
876.80	227.55
877.11	227.52
877.42	227.59
877.73	227.57
878.04	227.57
878.35	227.58
878.66	227.60
878.96	227.59
879.27	227.61
879.58	227.59
879.89	227.59
880.20	227.61
880.51	227.59
880.82	227.62
881.12	227.60
881.43	227.59
881.74	227.59
882.05	227.58
882.36	227.58
882.67	227.59
882.97	227.49
883.28	227.47
883.59	227.50
883.90	227.49
884.21	227.51
884.51	227.49
884.82	227.49
885.13	227.44
885.44	227.45
885.74	227.42
886.05	227.40
886.36	227.39
886.67	227.34
886.98	227.38
887.28	227.37
887.59	227.39
887.90	227.39
888.20	227.37
888.51	227.35
888.82	227.33
889.13	227.34
889.43	227.38
889.74	227.38
890.05	227.36
890.35	227.32
890.66	227.28
890.97	227.26
891.28	227.26
891.58	227.25
891.89	227.25
892.20	227.20
892.50	227.17
892.81	227.17
893.12	227.18
893.42	227.12
893.73	227.12
894.04	227.10
894.34	227.08
894.65	227.10
894.95	227.09
895.26	227.09
895.57	227.12
895.87	227.04
896.18	227.04
896.48	227.04
896.79	227.05
897.10	227.09
897.40	227.09
897.71	227.08
898.01	227.08
898.32	227.06
898.63	227.10
898.93	227.11
899.24	227.10
899.54	227.10
899.85	227.08
900.15	227.06
900.46	227.08
900.76	227.10
901.07	227.10
901.38	227.10
901.68	227.12
901.99	227.08
902.29	227.08
902.60	227.06
902.90	227.06
903.21	227.03
903.51	227.03
903.82	227.08
904.12	227.08
904.43	227.07
904.73	227.09
905.03	227.08
905.34	227.19
905.64	227.22
905.95	227.16
906.25	227.20
906.56	227.20
906.86	227.19
907.17	227.17
907.47	227.15
907.77	227.16
908.08	227.13
908.38	227.16
908.69	227.18
908.99	227.23
909.30	227.26
909.60	227.27
909.90	227.27
910.21	227.23
910.51	227.26
910.81	227.28
911.12	227.28
911.42	227.27
911.73	227.16
912.03	227.16
912.33	227.23
912.64	227.22
912.94	227.21
913.24	227.22
913.55	227.21
913.85	227.26
914.15	227.26
914.46	227.26
914.76	227.22
915.06	227.22
915.37	227.20
915.67	227.15
915.97	227.14
916.27	227.10
916.58	227.12
916.88	227.09
917.18	227.06
917.49	227.14
917.79	227.17
918.09	227.21
918.39	227.20
918.70	227.21
919.00	227.23
919.30	227.29
919.60	227.27
919.91	227.28
920.21	227.25
920.51	227.22
920.81	227.24
921.12	227.26
921.42	227.24
921.72	227.24
922.02	227.25
922.32	227.28
922.63	227.32
922.93	227.36
923.23	227.32
923.53	227.28
923.83	227.19
924.13	227.17
924.44	227.14
924.74	227.20
925.04	227.20
925.34	227.19
925.64	227.13
925.94	227.14
926.24	227.21
926.55	227.20
926.85	227.23
927.15	227.23
927.45	227.22
927.75	227.25
928.05	227.24
928.35	227.23
928.65	227.22
928.95	227.22
929.26	227.15
929.56	227.21
929.86	227.26
930.16	227.26
930.46	227.27
930.76	227.27
931.06	227.23
931.36	227.20
931.66	227.20
931.96	227.24
932.26	227.21
932.56	227.16
932.86	227.18
933.16	227.15
933.46	227.09
933.76	227.11
934.06	227.12
934.36	227.19
934.66	227.17
934.96	227.17
935.26	227.16
935.56	227.18
935.86	227.14
936.16	227.14
936.46	227.15
936.76	227.12
937.06	227.12
937.36	227.14
937.66	227.14
937.96	227.13
938.26	227.12
938.56	227.13
938.86	227.11
939.16	227.11
939.46	227.11
939.76	227.17
940.06	227.11
940.35	227.08
940.65	227.01
940.95	227.04
941.25	227.01
941.55	226.98
941.85	227.00
942.15	227.05
942.45	227.04
942.75	227.01
943.04	227.03
943.34	227.05
943.64	227.03
943.94	227.01
944.24	227.00
944.54	226.98
944.84	226.99
945.13	226.99
945.43	226.97
945.73	226.97
946.03	226.93
946.33	226.95
946.62	226.96
946.92	226.95
947.22	226.95
947.52	226.96
947.82	227.00
948.11	226.94
948.41	226.88
948.71	226.86
949.01	226.85
949.31	226.84
949.60	226.83
949.90	226.83
950.20	226.81
950.50	226.84
950.79	226.81
951.09	226.79
951.39	226.81
951.69	226.80
951.98	226.79
952.28	226.81
952.58	226.78
952.87	226.76
953.17	226.75
953.47	226.72
953.76	226.72
954.06	226.73
954.36	226.74
954.66	226.76
954.95	226.81
955.25	226.87
955.55	226.87
955.84	226.81
956.14	226.81
956.44	226.82
956.73	226.78
957.03	226.79
957.32	226.81
957.62	226.77
957.92	226.79
958.21	226.79
958.51	226.92
958.81	226.92
959.10	226.95
959.40	227.01
959.69	227.00
959.99	227.03
960.29	226.98
960.58	226.98
960.88	227.01
961.17	226.99
961.47	226.96
961.76	226.97
962.06	227.03
962.36	227.00
962.65	227.03
962.95	227.06
963.24	227.07
963.54	227.09
963.83	227.12
964.13	227.11
964.42	227.10
964.72	227.00
965.01	227.03
965.31	226.99
965.60	226.93
965.90	226.99
966.19	226.96
966.49	226.96
966.78	226.97
967.08	226.96
967.37	226.99
967.67	226.97
967.96	226.95
968.26	226.91
968.55	226.95
968.85	226.94
969.14	226.93
969.43	226.89
969.73	226.87
970.02	226.87
970.32	226.89
970.61	226.89
970.91	226.84
971.20	226.81
971.49	226.80
971.79	226.81
972.08	226.75
972.38	226.74
972.67	226.74
972.96	226.75
973.26	226.71
973.55	226.71
973.85	226.70
974.14	226.69
974.43	226.72
974.73	226.67
975.02	226.65
975.31	226.62
975.61	226.62
975.90	226.63
976.19	226.61
976.49	226.58
976.78	226.58
977.07	226.61
977.37	226.64
977.66	226.69
977.95	226.71
978.24	226.71
978.54	226.77
978.83	226.75
979.12	226.73
979.42	226.73
979.71	226.73
980.00	226.76
980.29	226.76
980.59	226.74
980.88	226.77
981.17	226.78
981.46	226.78
981.76	226.79
982.05	226.82
982.34	226.83
982.63	226.85
982.93	226.89
983.22	226.90
983.51	226.89
983.80	226.88
984.09	226.89
984.39	226.90
984.68	226.91
984.97	226.94
985.26	226.95
985.55	226.96
985.85	226.94
986.14	226.94
986.43	226.94
986.72	226.95
987.01	226.93
987.30	226.91
987.59	226.91
987.89	226.92
988.18	226.88
988.47	226.85
988.76	226.85
989.05	226.83
989.34	226.79
989.63	226.84
989.92	226.83
990.22	226.83
990.51	226.83
990.80	226.79
991.09	226.79
991.38	226.78
991.67	226.77
991.96	226.73
992.25	226.72
992.54	226.72
992.83	226.70
993.12	226.73
993.41	226.73
993.70	226.80
993.99	226.83
994.28	226.83
994.58	226.83
994.87	226.78
995.16	226.76
995.45	226.78
995.74	226.74
996.03	226.75
996.32	226.74
996.61	226.75
996.90	226.72
997.19	226.73
997.48	226.77
997.77	226.75
998.06	226.77
998.34	226.75
998.63	226.76
998.92	226.79
999.21	226.77
999.50	226.77
999.79	226.69
1000.08	226.70
1000.37	226.70
1000.66	226.68
1000.95	226.76
1001.24	226.75
1001.53	226.74
1001.82	226.71
1002.11	226.69
1002.40	226.69
1002.68	226.70
1002.97	226.77
1003.26	226.74
1003.55	226.68
1003.84	226.70
1004.13	226.73
1004.42	226.72
1004.71	226.68
1004.99	226.68
1005.28	226.70
1005.57	226.72
1005.86	226.73
1006.15	226.69
1006.44	226.64
1006.72	226.69
1007.01	226.65
1007.30	226.66
1007.59	226.65
1007.88	226.66
1008.17	226.66
1008.45	226.64
1008.74	226.59
1009.03	226.58
1009.32	226.58
1009.60	226.59
1009.89	226.58
1010.18	226.56
1010.47	226.57
1010.76	226.62
1011.04	226.61
1011.33	226.64
1011.62	226.64
1011.91	226.65
1012.19	226.68
1012.48	226.70
1012.77	226.70
1013.05	226.74
1013.34	226.75
1013.63	226.73
1013.92	226.75
1014.20	226.72
1014.49	226.74
1014.78	226.76
1015.06	226.73
1015.35	226.76
1015.64	226.79
1015.92	226.81
1016.21	226.80
1016.50	226.78
1016.78	226.78
1017.07	226.80
1017.36	226.77
1017.64	226.73
1017.93	226.77
1018.22	226.78
1018.50	226.80
1018.79	226.81
1019.08	226.75
1019.36	226.75
1019.65	226.76
1019.93	226.81
1020.22	226.86
1020.51	226.93
1020.79	226.95
1021.08	227.31
1021.36	226.81
1021.65	226.89
1021.94	226.19
1022.22	227.00
1022.51	226.45
1022.79	227.68
1023.08	227.07
1023.36	228.54
1023.65	227.07
>>>>>End Processed Spectral Data<<<<<
