SpectraSuite Data File
++++++++++++++++++++++++++++++++++++
Date: Fri Feb 01 15:35:23 EST 2013
User: group
Dark Spectrum Present: No
Reference Spectrum Present: No
Number of Sampled Component Spectra: 1
Spectrometers: USB2E7196
Integration Time (usec): 35000 (USB2E7196)
Spectra Averaged: 100 (USB2E7196)
Boxcar Smoothing: 10 (USB2E7196)
Correct for Electrical Dark: No (USB2E7196)
Strobe/Lamp Enabled: No (USB2E7196)
Correct for Detector Non-linearity: No (USB2E7196)
Correct for Stray Light: No (USB2E7196)
Number of Pixels in Processed Spectrum: 2048
>>>>>Begin Processed Spectral Data<<<<<
339.09	0.00
339.48	214.90
339.86	216.31
340.24	217.84
340.63	219.02
341.01	222.00
341.39	221.72
341.78	223.51
342.16	224.93
342.54	224.45
342.93	213.38
343.31	224.17
343.69	224.73
344.07	225.24
344.46	225.67
344.84	226.07
345.22	226.30
345.60	226.57
345.99	226.77
346.37	226.88
346.75	227.02
347.13	227.08
347.52	227.14
347.90	227.25
348.28	227.24
348.66	227.28
349.05	227.28
349.43	227.34
349.81	227.35
350.19	227.37
350.57	227.43
350.96	227.51
351.34	227.58
351.72	227.67
352.10	227.72
352.48	227.82
352.87	227.86
353.25	227.97
353.63	228.02
354.01	228.07
354.39	228.13
354.77	228.20
355.15	228.30
355.54	228.37
355.92	228.43
356.30	228.50
356.68	228.62
357.06	228.67
357.44	228.70
357.82	228.75
358.20	228.82
358.58	228.87
358.97	228.94
359.35	229.03
359.73	229.10
360.11	229.17
360.49	229.17
360.87	229.26
361.25	229.28
361.63	229.34
362.01	229.35
362.39	229.37
362.77	229.41
363.15	229.40
363.53	229.42
363.91	229.42
364.29	229.46
364.67	229.38
365.05	229.41
365.43	229.42
365.81	229.41
366.19	229.41
366.57	229.47
366.95	229.47
367.33	229.39
367.71	229.39
368.09	229.36
368.47	229.34
368.85	229.29
369.23	229.28
369.61	229.21
369.99	229.18
370.37	229.16
370.75	229.16
371.13	229.13
371.51	229.04
371.89	228.99
372.27	228.93
372.65	228.88
373.03	228.80
373.41	228.76
373.78	228.72
374.16	228.62
374.54	228.48
374.92	228.37
375.30	228.32
375.68	228.20
376.06	228.15
376.44	228.07
376.82	228.01
377.19	227.93
377.57	227.85
377.95	227.80
378.33	227.72
378.71	227.58
379.09	227.49
379.47	227.44
379.84	227.33
380.22	227.26
380.60	227.17
380.98	227.11
381.36	227.03
381.73	226.94
382.11	226.90
382.49	226.84
382.87	226.78
383.25	226.74
383.62	226.81
384.00	226.71
384.38	226.64
384.76	226.60
385.13	226.56
385.51	226.53
385.89	226.46
386.27	226.42
386.64	226.38
387.02	226.33
387.40	226.28
387.78	226.26
388.15	226.22
388.53	226.18
388.91	226.18
389.29	226.15
389.66	226.13
390.04	226.10
390.42	226.12
390.79	226.13
391.17	226.11
391.55	225.99
391.92	225.99
392.30	226.00
392.68	225.99
393.05	225.98
393.43	225.99
393.81	226.03
394.18	226.02
394.56	226.03
394.94	226.12
395.31	226.13
395.69	226.19
396.06	226.23
396.44	226.28
396.82	226.32
397.19	226.44
397.57	226.49
397.95	226.54
398.32	226.55
398.70	226.62
399.07	226.67
399.45	226.75
399.82	226.82
400.20	226.89
400.58	226.99
400.95	227.04
401.33	227.14
401.70	227.24
402.08	227.36
402.45	227.46
402.83	227.58
403.20	227.69
403.58	227.78
403.95	227.94
404.33	228.07
404.71	228.18
405.08	228.32
405.46	228.45
405.83	228.62
406.21	228.78
406.58	228.92
406.96	229.10
407.33	229.24
407.70	229.47
408.08	229.75
408.45	229.95
408.83	230.21
409.20	230.46
409.58	230.66
409.95	230.93
410.33	231.21
410.70	231.43
411.08	231.77
411.45	232.11
411.82	232.38
412.20	232.75
412.57	233.14
412.95	233.47
413.32	233.90
413.69	234.34
414.07	234.82
414.44	235.29
414.82	235.82
415.19	236.40
415.56	236.90
415.94	237.44
416.31	238.12
416.68	238.73
417.06	239.44
417.43	240.14
417.81	240.88
418.18	241.66
418.55	242.53
418.93	243.40
419.30	244.26
419.67	245.21
420.04	246.16
420.42	247.16
420.79	248.34
421.16	249.47
421.54	250.60
421.91	251.75
422.28	253.03
422.66	254.33
423.03	255.62
423.40	256.96
423.77	258.36
424.15	259.78
424.52	261.24
424.89	262.88
425.26	264.41
425.64	265.89
426.01	267.48
426.38	269.11
426.75	270.80
427.13	272.53
427.50	274.37
427.87	276.24
428.24	278.11
428.61	279.84
428.99	281.78
429.36	283.91
429.73	286.02
430.10	288.03
430.47	290.08
430.85	292.18
431.22	294.42
431.59	296.78
431.96	298.99
432.33	301.48
432.70	303.83
433.08	306.64
433.45	309.28
433.82	311.85
434.19	314.78
434.56	317.57
434.93	320.21
435.30	322.80
435.68	325.67
436.05	328.51
436.42	331.36
436.79	333.90
437.16	336.61
437.53	339.47
437.90	342.30
438.27	345.07
438.64	347.94
439.01	350.54
439.38	352.81
439.75	354.99
440.13	357.50
440.50	359.86
440.87	361.72
441.24	363.68
441.61	365.88
441.98	367.37
442.35	369.19
442.72	371.09
443.09	372.89
443.46	373.90
443.83	374.51
444.20	374.99
444.57	375.83
444.94	376.12
445.31	376.43
445.68	376.76
446.05	376.82
446.42	376.46
446.79	376.08
447.16	375.65
447.53	375.36
447.90	374.18
448.27	372.99
448.64	371.43
449.01	370.33
449.37	368.36
449.74	366.40
450.11	364.15
450.48	361.69
450.85	359.15
451.22	357.06
451.59	355.02
451.96	353.06
452.33	350.44
452.70	348.12
453.07	345.29
453.43	342.40
453.80	339.63
454.17	336.94
454.54	334.35
454.91	331.56
455.28	328.87
455.65	326.38
456.02	323.97
456.38	321.80
456.75	319.05
457.12	316.78
457.49	314.54
457.86	312.37
458.23	310.51
458.59	308.48
458.96	306.35
459.33	304.46
459.70	302.58
460.07	301.07
460.43	299.28
460.80	297.64
461.17	296.20
461.54	294.70
461.91	293.26
462.27	291.84
462.64	290.62
463.01	289.29
463.38	287.99
463.74	286.59
464.11	285.42
464.48	284.42
464.85	283.31
465.21	282.48
465.58	281.59
465.95	280.46
466.32	279.57
466.68	278.67
467.05	277.78
467.42	276.90
467.78	275.99
468.15	275.11
468.52	274.46
468.88	273.60
469.25	272.82
469.62	272.21
469.98	271.53
470.35	270.89
470.72	270.25
471.08	269.58
471.45	269.07
471.82	268.57
472.18	267.96
472.55	267.52
472.92	266.98
473.28	266.48
473.65	266.02
474.02	265.56
474.38	265.17
474.75	264.84
475.11	264.54
475.48	264.26
475.85	264.05
476.21	263.82
476.58	263.62
476.94	263.47
477.31	263.26
477.67	263.07
478.04	262.99
478.41	262.93
478.77	262.99
479.14	262.89
479.50	262.86
479.87	262.92
480.23	262.99
480.60	263.06
480.96	263.17
481.33	263.38
481.69	263.60
482.06	263.85
482.42	264.06
482.79	264.25
483.15	264.57
483.52	264.94
483.88	265.29
484.25	265.69
484.61	266.11
484.98	266.51
485.34	267.09
485.71	267.67
486.07	268.24
486.44	268.80
486.80	269.50
487.17	270.27
487.53	271.09
487.90	271.95
488.26	272.90
488.62	273.87
488.99	274.85
489.35	275.84
489.72	276.92
490.08	278.13
490.44	279.39
490.81	280.68
491.17	282.06
491.54	283.57
491.90	285.11
492.26	286.77
492.63	288.56
492.99	290.37
493.36	292.28
493.72	294.39
494.08	296.49
494.45	298.74
494.81	301.04
495.17	303.52
495.54	306.10
495.90	308.79
496.26	311.61
496.63	314.58
496.99	317.76
497.35	321.03
497.72	324.44
498.08	327.93
498.44	331.63
498.80	335.50
499.17	339.51
499.53	343.62
499.89	348.02
500.26	352.51
500.62	357.18
500.98	362.09
501.34	367.12
501.71	372.43
502.07	377.90
502.43	383.57
502.79	389.32
503.16	395.35
503.52	401.61
503.88	407.99
504.24	414.60
504.60	421.44
504.97	428.60
505.33	435.94
505.69	443.67
506.05	451.44
506.41	459.30
506.78	467.45
507.14	475.98
507.50	484.73
507.86	493.73
508.22	502.92
508.59	512.15
508.95	521.76
509.31	531.60
509.67	541.66
510.03	551.95
510.39	562.55
510.75	573.38
511.12	584.31
511.48	595.68
511.84	607.14
512.20	618.64
512.56	630.60
512.92	642.82
513.28	655.15
513.64	667.61
514.00	680.33
514.37	693.22
514.73	706.20
515.09	719.19
515.45	732.56
515.81	746.13
516.17	760.21
516.53	774.25
516.89	788.43
517.25	802.65
517.61	817.02
517.97	831.44
518.33	845.96
518.69	860.77
519.05	875.75
519.41	890.93
519.77	906.50
520.13	921.92
520.49	937.24
520.85	952.67
521.21	968.44
521.57	984.75
521.93	1000.59
522.29	1017.02
522.65	1033.32
523.01	1049.56
523.37	1065.66
523.73	1081.77
524.09	1097.96
524.45	1114.27
524.81	1130.99
525.17	1147.92
525.53	1164.87
525.89	1181.70
526.25	1198.54
526.61	1214.87
526.97	1231.76
527.33	1248.20
527.68	1264.89
528.04	1281.42
528.40	1298.08
528.76	1315.18
529.12	1331.80
529.48	1348.79
529.84	1364.91
530.20	1381.55
530.56	1398.54
530.91	1416.14
531.27	1432.96
531.63	1449.54
531.99	1466.21
532.35	1482.19
532.71	1498.05
533.07	1514.44
533.42	1530.33
533.78	1546.42
534.14	1562.80
534.50	1578.04
534.86	1594.15
535.21	1609.28
535.57	1625.37
535.93	1640.81
536.29	1655.59
536.65	1670.70
537.00	1685.47
537.36	1700.71
537.72	1715.31
538.08	1729.74
538.44	1743.40
538.79	1757.27
539.15	1770.97
539.51	1784.82
539.87	1799.08
540.22	1812.85
540.58	1826.69
540.94	1840.04
541.29	1853.00
541.65	1865.67
542.01	1879.08
542.37	1891.31
542.72	1903.86
543.08	1915.62
543.44	1928.17
543.79	1939.40
544.15	1950.40
544.51	1961.96
544.87	1973.05
545.22	1983.85
545.58	1994.16
545.94	2003.94
546.29	2013.83
546.65	2023.66
547.01	2032.74
547.36	2041.64
547.72	2050.07
548.07	2057.78
548.43	2066.02
548.79	2074.11
549.14	2081.75
549.50	2088.97
549.86	2096.62
550.21	2103.92
550.57	2110.96
550.92	2117.44
551.28	2124.63
551.64	2131.76
551.99	2138.30
552.35	2144.42
552.70	2150.58
553.06	2156.53
553.41	2163.01
553.77	2169.06
554.13	2175.00
554.48	2181.20
554.84	2186.48
555.19	2191.86
555.55	2197.02
555.90	2201.60
556.26	2206.38
556.61	2211.10
556.97	2215.40
557.32	2219.62
557.68	2223.72
558.03	2228.09
558.39	2231.93
558.74	2236.43
559.10	2240.21
559.45	2243.86
559.81	2248.13
560.16	2251.91
560.52	2255.15
560.87	2258.46
561.23	2261.04
561.58	2264.28
561.94	2266.81
562.29	2269.34
562.64	2272.01
563.00	2274.62
563.35	2277.98
563.71	2281.02
564.06	2284.17
564.42	2287.02
564.77	2289.49
565.12	2291.60
565.48	2293.39
565.83	2295.12
566.19	2296.45
566.54	2297.41
566.89	2298.60
567.25	2299.22
567.60	2300.54
567.96	2302.21
568.31	2303.02
568.66	2304.11
569.02	2304.49
569.37	2304.83
569.72	2305.67
570.08	2305.67
570.43	2305.75
570.78	2305.17
571.14	2303.68
571.49	2302.40
571.84	2302.09
572.20	2300.81
572.55	2299.95
572.90	2298.44
573.26	2297.06
573.61	2295.33
573.96	2293.52
574.31	2290.44
574.67	2287.39
575.02	2283.86
575.37	2280.29
575.72	2276.45
576.08	2273.22
576.43	2269.96
576.78	2266.24
577.13	2263.05
577.49	2260.01
577.84	2256.33
578.19	2252.57
578.54	2248.92
578.90	2244.58
579.25	2239.03
579.60	2233.98
579.95	2228.84
580.30	2223.77
580.66	2218.53
581.01	2213.52
581.36	2208.51
581.71	2204.28
582.06	2199.89
582.42	2195.18
582.77	2189.96
583.12	2185.23
583.47	2180.42
583.82	2175.22
584.17	2169.91
584.53	2164.25
584.88	2158.62
585.23	2152.78
585.58	2147.17
585.93	2141.69
586.28	2136.90
586.63	2131.75
586.98	2126.74
587.34	2122.05
587.69	2117.10
588.04	2111.79
588.39	2106.20
588.74	2099.84
589.09	2093.75
589.44	2086.70
589.79	2080.68
590.14	2075.10
590.49	2068.55
590.84	2062.12
591.19	2056.16
591.54	2049.71
591.89	2042.22
592.25	2035.32
592.60	2028.21
592.95	2020.62
593.30	2013.11
593.65	2005.45
594.00	1998.20
594.35	1990.84
594.70	1982.74
595.05	1975.44
595.40	1968.12
595.75	1960.49
596.10	1953.98
596.45	1947.07
596.80	1941.01
597.15	1934.30
597.50	1927.09
597.85	1920.66
598.19	1913.78
598.54	1906.55
598.89	1899.82
599.24	1894.03
599.59	1887.14
599.94	1880.82
600.29	1874.54
600.64	1868.03
600.99	1860.50
601.34	1853.64
601.69	1846.70
602.04	1839.68
602.39	1832.28
602.74	1825.42
603.08	1818.61
603.43	1811.91
603.78	1804.64
604.13	1797.36
604.48	1790.06
604.83	1783.23
605.18	1776.19
605.53	1768.25
605.87	1760.11
606.22	1752.92
606.57	1744.88
606.92	1737.70
607.27	1730.49
607.62	1723.56
607.96	1716.20
608.31	1709.61
608.66	1701.98
609.01	1694.45
609.36	1686.98
609.70	1678.98
610.05	1670.93
610.40	1663.21
610.75	1654.98
611.10	1647.26
611.44	1638.83
611.79	1630.88
612.14	1622.11
612.49	1612.95
612.83	1604.65
613.18	1596.60
613.53	1588.37
613.88	1579.73
614.22	1571.38
614.57	1562.93
614.92	1554.77
615.27	1547.18
615.61	1538.75
615.96	1530.84
616.31	1523.24
616.65	1515.82
617.00	1508.37
617.35	1500.77
617.70	1492.31
618.04	1483.64
618.39	1475.41
618.74	1467.82
619.08	1459.47
619.43	1451.94
619.78	1444.99
620.12	1437.70
620.47	1430.17
620.82	1422.04
621.16	1414.76
621.51	1407.11
621.85	1399.40
622.20	1390.87
622.55	1382.47
622.89	1374.68
623.24	1367.02
623.59	1359.62
623.93	1352.07
624.28	1344.71
624.62	1337.01
624.97	1329.98
625.32	1323.29
625.66	1316.21
626.01	1308.95
626.35	1301.49
626.70	1293.74
627.04	1286.00
627.39	1278.25
627.73	1270.86
628.08	1263.96
628.43	1256.54
628.77	1249.28
629.12	1241.67
629.46	1234.52
629.81	1227.09
630.15	1219.88
630.50	1212.41
630.84	1204.19
631.19	1196.42
631.53	1188.84
631.88	1181.39
632.22	1173.79
632.57	1166.54
632.91	1159.09
633.26	1151.73
633.60	1144.44
633.95	1137.37
634.29	1130.41
634.64	1123.79
634.98	1116.42
635.32	1109.26
635.67	1102.84
636.01	1096.12
636.36	1089.38
636.70	1082.87
637.05	1076.44
637.39	1069.95
637.73	1063.53
638.08	1057.70
638.42	1051.66
638.77	1045.36
639.11	1038.80
639.45	1032.45
639.80	1025.72
640.14	1019.25
640.49	1012.70
640.83	1006.31
641.17	999.99
641.52	993.71
641.86	987.34
642.20	981.51
642.55	975.29
642.89	968.70
643.23	962.22
643.58	956.46
643.92	950.30
644.26	944.12
644.61	938.06
644.95	932.03
645.29	925.38
645.64	918.57
645.98	912.19
646.32	906.36
646.66	900.29
647.01	894.54
647.35	888.83
647.69	882.96
648.04	877.50
648.38	871.78
648.72	865.70
649.06	859.52
649.41	853.66
649.75	847.54
650.09	841.65
650.43	835.82
650.78	829.63
651.12	823.65
651.46	817.94
651.80	812.22
652.14	806.82
652.49	801.49
652.83	796.35
653.17	790.66
653.51	784.79
653.85	779.43
654.20	773.78
654.54	767.77
654.88	762.07
655.22	756.15
655.56	750.51
655.90	745.08
656.25	739.88
656.59	734.58
656.93	729.58
657.27	724.36
657.61	718.97
657.95	713.86
658.29	708.82
658.64	703.58
658.98	698.32
659.32	692.87
659.66	687.67
660.00	682.33
660.34	677.37
660.68	672.63
661.02	667.59
661.36	662.82
661.70	658.33
662.05	653.97
662.39	649.66
662.73	645.20
663.07	640.82
663.41	636.38
663.75	631.84
664.09	627.26
664.43	622.95
664.77	618.83
665.11	614.55
665.45	610.39
665.79	606.41
666.13	602.27
666.47	598.19
666.81	593.97
667.15	589.87
667.49	586.07
667.83	582.18
668.17	578.23
668.51	574.23
668.85	570.25
669.19	566.44
669.53	562.57
669.87	558.66
670.21	555.00
670.55	551.41
670.89	548.03
671.23	544.65
671.57	541.13
671.91	537.61
672.25	534.17
672.58	530.65
672.92	527.22
673.26	524.02
673.60	520.86
673.94	517.74
674.28	514.87
674.62	511.88
674.96	508.83
675.30	505.94
675.64	503.01
675.97	500.25
676.31	497.39
676.65	494.50
676.99	491.83
677.33	489.00
677.67	486.14
678.01	483.08
678.34	480.07
678.68	477.18
679.02	474.34
679.36	471.61
679.70	468.92
680.04	466.15
680.37	463.31
680.71	460.51
681.05	457.89
681.39	455.13
681.73	452.49
682.06	449.95
682.40	447.43
682.74	444.89
683.08	442.34
683.42	439.78
683.75	437.27
684.09	434.68
684.43	432.18
684.77	429.75
685.10	427.37
685.44	425.11
685.78	422.82
686.12	420.56
686.45	418.21
686.79	415.88
687.13	413.75
687.46	411.59
687.80	409.48
688.14	407.31
688.48	405.30
688.81	403.02
689.15	400.89
689.49	398.70
689.82	396.64
690.16	394.56
690.50	392.54
690.83	390.59
691.17	388.58
691.51	386.61
691.84	384.74
692.18	382.82
692.52	380.83
692.85	378.95
693.19	377.07
693.52	375.26
693.86	373.45
694.20	371.65
694.53	369.81
694.87	367.97
695.21	366.19
695.54	364.36
695.88	362.67
696.21	360.90
696.55	359.23
696.88	357.57
697.22	355.92
697.56	354.33
697.89	352.69
698.23	351.13
698.56	349.58
698.90	348.03
699.23	346.37
699.57	344.77
699.90	343.21
700.24	341.70
700.58	340.22
700.91	338.73
701.25	337.29
701.58	335.94
701.92	334.54
702.25	333.13
702.59	331.73
702.92	330.38
703.26	329.09
703.59	327.77
703.93	326.57
704.26	325.27
704.60	323.95
704.93	322.69
705.26	321.45
705.60	320.25
705.93	319.06
706.27	318.04
706.60	317.01
706.94	315.91
707.27	314.79
707.61	313.69
707.94	312.69
708.27	311.56
708.61	310.52
708.94	309.53
709.28	308.56
709.61	307.63
709.94	306.69
710.28	305.68
710.61	304.75
710.95	303.69
711.28	302.77
711.61	301.83
711.95	300.91
712.28	299.98
712.61	299.00
712.95	298.06
713.28	297.18
713.61	296.30
713.95	295.41
714.28	294.55
714.61	293.69
714.95	292.80
715.28	291.97
715.61	291.07
715.95	290.26
716.28	289.44
716.61	288.60
716.95	287.76
717.28	287.03
717.61	286.24
717.94	285.49
718.28	284.75
718.61	284.00
718.94	283.30
719.27	282.64
719.61	282.00
719.94	281.35
720.27	280.63
720.60	279.98
720.94	279.36
721.27	278.77
721.60	278.20
721.93	277.61
722.27	277.09
722.60	276.51
722.93	275.94
723.26	275.39
723.59	274.83
723.93	274.33
724.26	273.75
724.59	273.22
724.92	272.72
725.25	272.23
725.59	271.78
725.92	271.32
726.25	270.80
726.58	270.33
726.91	269.90
727.24	269.43
727.57	268.94
727.91	268.42
728.24	267.96
728.57	267.47
728.90	266.99
729.23	266.49
729.56	266.08
729.89	265.59
730.22	265.10
730.55	264.65
730.89	264.20
731.22	263.78
731.55	263.36
731.88	262.91
732.21	262.45
732.54	262.00
732.87	261.54
733.20	261.12
733.53	260.72
733.86	260.28
734.19	259.88
734.52	259.50
734.85	259.21
735.18	258.81
735.51	258.46
735.84	258.13
736.17	257.79
736.50	257.40
736.83	257.20
737.16	256.87
737.49	256.52
737.82	256.18
738.15	255.85
738.48	255.52
738.81	255.22
739.14	254.89
739.47	254.55
739.80	254.21
740.13	253.88
740.46	253.54
740.79	253.20
741.12	252.90
741.45	252.62
741.78	252.22
742.11	251.93
742.44	251.61
742.77	251.28
743.10	250.97
743.43	250.71
743.75	250.25
744.08	250.10
744.41	249.82
744.74	249.52
745.07	249.21
745.40	248.93
745.73	248.68
746.06	248.41
746.39	248.16
746.71	247.92
747.04	247.66
747.37	247.40
747.70	247.16
748.03	246.90
748.36	246.66
748.68	246.46
749.01	246.15
749.34	245.90
749.67	245.67
750.00	245.43
750.33	245.25
750.65	245.08
750.98	244.70
751.31	244.49
751.64	244.31
751.97	244.15
752.29	243.94
752.62	243.70
752.95	243.51
753.28	243.30
753.60	243.10
753.93	242.94
754.26	242.72
754.59	242.51
754.91	242.29
755.24	242.06
755.57	241.85
755.90	241.69
756.22	241.52
756.55	241.34
756.88	241.17
757.20	240.93
757.53	240.71
757.86	240.56
758.19	240.39
758.51	240.21
758.84	240.00
759.17	239.81
759.49	239.64
759.82	239.54
760.15	239.39
760.47	239.27
760.80	239.10
761.13	239.00
761.45	238.85
761.78	238.72
762.11	238.58
762.43	238.42
762.76	238.31
763.08	238.18
763.41	238.07
763.74	237.93
764.06	237.76
764.39	237.67
764.71	237.58
765.04	237.44
765.37	237.32
765.69	237.23
766.02	237.12
766.34	237.00
766.67	236.80
767.00	236.69
767.32	236.57
767.65	236.49
767.97	236.37
768.30	236.27
768.62	236.17
768.95	236.05
769.27	235.99
769.60	235.89
769.92	235.76
770.25	235.60
770.57	235.48
770.90	235.43
771.22	235.31
771.55	235.18
771.87	235.08
772.20	234.95
772.52	234.88
772.85	234.93
773.17	234.83
773.50	234.74
773.82	234.65
774.15	234.51
774.47	234.41
774.80	234.31
775.12	234.22
775.45	234.10
775.77	234.02
776.09	233.92
776.42	233.85
776.74	233.80
777.07	233.72
777.39	233.62
777.72	233.51
778.04	233.43
778.36	233.36
778.69	233.29
779.01	233.23
779.33	233.10
779.66	232.91
779.98	232.82
780.31	232.76
780.63	232.75
780.95	232.68
781.28	232.60
781.60	232.50
781.92	232.45
782.25	232.42
782.57	232.38
782.89	232.27
783.22	232.18
783.54	232.08
783.86	232.08
784.19	232.04
784.51	232.02
784.83	231.97
785.16	231.95
785.48	231.90
785.80	231.88
786.12	231.85
786.45	231.80
786.77	231.76
787.09	231.70
787.42	231.60
787.74	231.59
788.06	231.52
788.38	231.46
788.71	231.40
789.03	231.35
789.35	231.31
789.67	231.30
789.99	231.26
790.32	231.23
790.64	231.17
790.96	231.22
791.28	231.14
791.61	231.09
791.93	231.05
792.25	231.01
792.57	231.02
792.89	230.97
793.21	230.93
793.54	230.90
793.86	230.83
794.18	230.81
794.50	230.75
794.82	230.73
795.14	230.74
795.47	230.73
795.79	230.69
796.11	230.65
796.43	230.61
796.75	230.58
797.07	230.55
797.39	230.56
797.71	230.47
798.04	230.47
798.36	230.45
798.68	230.39
799.00	230.38
799.32	230.28
799.64	230.27
799.96	230.24
800.28	230.22
800.60	230.21
800.92	230.18
801.24	230.17
801.56	230.18
801.89	230.12
802.21	230.09
802.53	230.04
802.85	230.03
803.17	230.07
803.49	230.03
803.81	229.96
804.13	229.92
804.45	229.86
804.77	229.83
805.09	229.80
805.41	229.77
805.73	229.70
806.05	229.66
806.37	229.60
806.69	229.55
807.01	229.53
807.33	229.52
807.65	229.46
807.97	229.45
808.28	229.41
808.60	229.38
808.92	229.37
809.24	229.42
809.56	229.34
809.88	229.25
810.20	229.24
810.52	229.25
810.84	229.18
811.16	229.10
811.48	229.03
811.80	229.05
812.12	229.03
812.43	229.03
812.75	229.02
813.07	228.98
813.39	228.97
813.71	228.91
814.03	228.87
814.35	228.87
814.67	228.81
814.98	228.75
815.30	228.72
815.62	228.67
815.94	228.58
816.26	228.64
816.58	228.61
816.89	228.60
817.21	228.57
817.53	228.57
817.85	228.60
818.17	228.58
818.48	228.52
818.80	228.53
819.12	228.49
819.44	228.45
819.76	228.44
820.07	228.44
820.39	228.42
820.71	228.40
821.03	228.38
821.34	228.36
821.66	228.37
821.98	228.38
822.30	228.35
822.61	228.38
822.93	228.31
823.25	228.32
823.57	228.32
823.88	228.31
824.20	228.30
824.52	228.29
824.83	228.25
825.15	228.21
825.47	228.20
825.79	228.19
826.10	228.19
826.42	228.17
826.74	228.19
827.05	228.19
827.37	228.19
827.69	228.17
828.00	228.18
828.32	228.16
828.64	228.16
828.95	228.22
829.27	228.16
829.58	228.16
829.90	228.13
830.22	228.12
830.53	228.08
830.85	228.10
831.17	228.05
831.48	228.10
831.80	228.10
832.11	228.06
832.43	228.07
832.75	228.04
833.06	228.11
833.38	228.07
833.69	228.06
834.01	228.04
834.32	228.05
834.64	228.02
834.96	228.01
835.27	227.98
835.59	227.91
835.90	227.90
836.22	227.89
836.53	227.89
836.85	227.85
837.16	227.95
837.48	227.91
837.79	227.95
838.11	227.96
838.42	227.96
838.74	228.01
839.05	228.00
839.37	227.97
839.68	227.90
840.00	227.88
840.31	227.90
840.63	227.90
840.94	227.86
841.26	227.85
841.57	227.82
841.88	227.82
842.20	227.81
842.51	227.81
842.83	227.81
843.14	227.91
843.46	227.90
843.77	227.84
844.08	227.85
844.40	227.81
844.71	227.81
845.03	227.79
845.34	227.76
845.65	227.72
845.97	227.76
846.28	227.75
846.60	227.74
846.91	227.71
847.22	227.68
847.54	227.71
847.85	227.73
848.16	227.75
848.48	227.75
848.79	227.79
849.10	227.78
849.42	227.80
849.73	227.68
850.04	227.67
850.36	227.61
850.67	227.60
850.98	227.60
851.30	227.59
851.61	227.59
851.92	227.59
852.23	227.65
852.55	227.63
852.86	227.65
853.17	227.66
853.49	227.68
853.80	227.70
854.11	227.69
854.42	227.68
854.74	227.66
855.05	227.65
855.36	227.61
855.67	227.58
855.99	227.58
856.30	227.69
856.61	227.70
856.92	227.71
857.23	227.74
857.55	227.73
857.86	227.68
858.17	227.67
858.48	227.62
858.79	227.56
859.11	227.57
859.42	227.53
859.73	227.51
860.04	227.50
860.35	227.46
860.66	227.46
860.98	227.46
861.29	227.48
861.60	227.48
861.91	227.50
862.22	227.51
862.53	227.48
862.84	227.36
863.16	227.38
863.47	227.35
863.78	227.31
864.09	227.34
864.40	227.35
864.71	227.39
865.02	227.37
865.33	227.38
865.64	227.37
865.95	227.39
866.27	227.46
866.58	227.44
866.89	227.46
867.20	227.45
867.51	227.44
867.82	227.39
868.13	227.43
868.44	227.42
868.75	227.45
869.06	227.45
869.37	227.43
869.68	227.41
869.99	227.43
870.30	227.44
870.61	227.42
870.92	227.42
871.23	227.40
871.54	227.44
871.85	227.47
872.16	227.48
872.47	227.48
872.78	227.41
873.09	227.42
873.40	227.41
873.71	227.41
874.02	227.42
874.33	227.45
874.64	227.42
874.95	227.43
875.26	227.40
875.56	227.41
875.87	227.42
876.18	227.42
876.49	227.51
876.80	227.52
877.11	227.49
877.42	227.48
877.73	227.47
878.04	227.47
878.35	227.44
878.66	227.41
878.96	227.43
879.27	227.44
879.58	227.47
879.89	227.45
880.20	227.46
880.51	227.47
880.82	227.45
881.12	227.43
881.43	227.38
881.74	227.35
882.05	227.32
882.36	227.35
882.67	227.34
882.97	227.25
883.28	227.24
883.59	227.28
883.90	227.27
884.21	227.28
884.51	227.26
884.82	227.26
885.13	227.27
885.44	227.25
885.74	227.24
886.05	227.21
886.36	227.23
886.67	227.21
886.98	227.23
887.28	227.23
887.59	227.22
887.90	227.26
888.20	227.25
888.51	227.27
888.82	227.24
889.13	227.26
889.43	227.32
889.74	227.30
890.05	227.26
890.35	227.29
890.66	227.27
890.97	227.25
891.28	227.23
891.58	227.21
891.89	227.19
892.20	227.18
892.50	227.16
892.81	227.13
893.12	227.10
893.42	227.04
893.73	227.03
894.04	227.04
894.34	227.01
894.65	227.03
894.95	227.06
895.26	227.05
895.57	227.09
895.87	226.97
896.18	226.99
896.48	227.00
896.79	226.96
897.10	226.95
897.40	226.95
897.71	226.98
898.01	226.99
898.32	227.01
898.63	227.00
898.93	227.04
899.24	227.04
899.54	227.07
899.85	227.08
900.15	227.12
900.46	227.14
900.76	227.15
901.07	227.15
901.38	227.11
901.68	227.13
901.99	227.06
902.29	227.08
902.60	227.09
902.90	227.08
903.21	227.11
903.51	227.15
903.82	227.20
904.12	227.21
904.43	227.22
904.73	227.23
905.03	227.25
905.34	227.33
905.64	227.36
905.95	227.34
906.25	227.35
906.56	227.36
906.86	227.34
907.17	227.37
907.47	227.36
907.77	227.37
908.08	227.34
908.38	227.40
908.69	227.41
908.99	227.43
909.30	227.45
909.60	227.44
909.90	227.41
910.21	227.40
910.51	227.37
910.81	227.36
911.12	227.39
911.42	227.38
911.73	227.29
912.03	227.33
912.33	227.35
912.64	227.33
912.94	227.31
913.24	227.30
913.55	227.26
913.85	227.29
914.15	227.31
914.46	227.33
914.76	227.30
915.06	227.30
915.37	227.29
915.67	227.26
915.97	227.25
916.27	227.22
916.58	227.20
916.88	227.18
917.18	227.17
917.49	227.23
917.79	227.23
918.09	227.23
918.39	227.23
918.70	227.24
919.00	227.22
919.30	227.25
919.60	227.23
919.91	227.25
920.21	227.21
920.51	227.19
920.81	227.17
921.12	227.20
921.42	227.19
921.72	227.16
922.02	227.16
922.32	227.16
922.63	227.18
922.93	227.22
923.23	227.22
923.53	227.20
923.83	227.11
924.13	227.13
924.44	227.11
924.74	227.10
925.04	227.09
925.34	227.06
925.64	227.03
925.94	227.05
926.24	227.08
926.55	227.08
926.85	227.08
927.15	227.07
927.45	227.02
927.75	227.01
928.05	227.03
928.35	227.05
928.65	227.10
928.95	227.11
929.26	227.07
929.56	227.07
929.86	227.10
930.16	227.12
930.46	227.08
930.76	227.10
931.06	227.05
931.36	227.05
931.66	227.11
931.96	227.11
932.26	227.08
932.56	227.04
932.86	227.04
933.16	227.04
933.46	227.03
933.76	227.03
934.06	227.03
934.36	227.06
934.66	227.03
934.96	226.97
935.26	226.97
935.56	227.00
935.86	226.96
936.16	226.95
936.46	226.92
936.76	226.90
937.06	226.85
937.36	226.87
937.66	226.87
937.96	226.85
938.26	226.82
938.56	226.79
938.86	226.82
939.16	226.86
939.46	226.85
939.76	226.86
940.06	226.90
940.35	226.89
940.65	226.83
940.95	226.84
941.25	226.80
941.55	226.79
941.85	226.79
942.15	226.84
942.45	226.87
942.75	226.86
943.04	226.87
943.34	226.91
943.64	226.89
943.94	226.86
944.24	226.87
944.54	226.86
944.84	226.88
945.13	226.86
945.43	226.81
945.73	226.81
946.03	226.79
946.33	226.73
946.62	226.75
946.92	226.76
947.22	226.78
947.52	226.82
947.82	226.83
948.11	226.78
948.41	226.76
948.71	226.70
949.01	226.71
949.31	226.71
949.60	226.67
949.90	226.70
950.20	226.69
950.50	226.68
950.79	226.71
951.09	226.73
951.39	226.71
951.69	226.68
951.98	226.69
952.28	226.69
952.58	226.73
952.87	226.70
953.17	226.71
953.47	226.69
953.76	226.68
954.06	226.64
954.36	226.63
954.66	226.62
954.95	226.65
955.25	226.68
955.55	226.66
955.84	226.64
956.14	226.62
956.44	226.63
956.73	226.61
957.03	226.61
957.32	226.58
957.62	226.57
957.92	226.63
958.21	226.63
958.51	226.73
958.81	226.71
959.10	226.72
959.40	226.74
959.69	226.74
959.99	226.74
960.29	226.74
960.58	226.78
960.88	226.81
961.17	226.79
961.47	226.78
961.76	226.82
962.06	226.86
962.36	226.85
962.65	226.85
962.95	226.86
963.24	226.85
963.54	226.85
963.83	226.89
964.13	226.89
964.42	226.84
964.72	226.79
965.01	226.81
965.31	226.79
965.60	226.79
965.90	226.86
966.19	226.88
966.49	226.89
966.78	226.88
967.08	226.89
967.37	226.92
967.67	226.89
967.96	226.90
968.26	226.87
968.55	226.91
968.85	226.92
969.14	226.97
969.43	226.98
969.73	227.00
970.02	227.00
970.32	227.00
970.61	227.07
970.91	227.05
971.20	227.03
971.49	227.02
971.79	227.04
972.08	226.98
972.38	226.96
972.67	226.98
972.96	226.97
973.26	226.94
973.55	226.96
973.85	226.98
974.14	226.99
974.43	227.02
974.73	227.00
975.02	226.99
975.31	226.97
975.61	226.98
975.90	226.98
976.19	226.94
976.49	226.93
976.78	226.91
977.07	226.88
977.37	226.90
977.66	226.93
977.95	226.92
978.24	226.91
978.54	226.96
978.83	226.96
979.12	226.97
979.42	227.00
979.71	227.01
980.00	226.97
980.29	226.95
980.59	226.93
980.88	226.95
981.17	226.96
981.46	226.96
981.76	226.94
982.05	226.95
982.34	226.98
982.63	226.99
982.93	226.99
983.22	227.02
983.51	227.01
983.80	227.01
984.09	227.03
984.39	227.03
984.68	227.03
984.97	227.01
985.26	227.00
985.55	226.99
985.85	226.93
986.14	226.96
986.43	226.99
986.72	226.98
987.01	226.93
987.30	226.90
987.59	226.86
987.89	226.85
988.18	226.83
988.47	226.79
988.76	226.78
989.05	226.78
989.34	226.76
989.63	226.77
989.92	226.77
990.22	226.74
990.51	226.74
990.80	226.70
991.09	226.72
991.38	226.69
991.67	226.68
991.96	226.70
992.25	226.70
992.54	226.65
992.83	226.65
993.12	226.66
993.41	226.67
993.70	226.71
993.99	226.73
994.28	226.74
994.58	226.75
994.87	226.74
995.16	226.72
995.45	226.69
995.74	226.66
996.03	226.65
996.32	226.63
996.61	226.61
996.90	226.60
997.19	226.60
997.48	226.62
997.77	226.61
998.06	226.60
998.34	226.58
998.63	226.60
998.92	226.61
999.21	226.62
999.50	226.63
999.79	226.61
1000.08	226.59
1000.37	226.61
1000.66	226.61
1000.95	226.62
1001.24	226.62
1001.53	226.66
1001.82	226.66
1002.11	226.64
1002.40	226.66
1002.68	226.68
1002.97	226.74
1003.26	226.75
1003.55	226.73
1003.84	226.74
1004.13	226.78
1004.42	226.79
1004.71	226.76
1004.99	226.75
1005.28	226.78
1005.57	226.75
1005.86	226.73
1006.15	226.73
1006.44	226.70
1006.72	226.72
1007.01	226.74
1007.30	226.76
1007.59	226.75
1007.88	226.76
1008.17	226.79
1008.45	226.77
1008.74	226.74
1009.03	226.72
1009.32	226.73
1009.60	226.74
1009.89	226.76
1010.18	226.71
1010.47	226.72
1010.76	226.74
1011.04	226.75
1011.33	226.76
1011.62	226.82
1011.91	226.85
1012.19	226.90
1012.48	226.96
1012.77	226.94
1013.05	226.98
1013.34	226.97
1013.63	226.98
1013.92	226.99
1014.20	226.99
1014.49	226.98
1014.78	227.00
1015.06	226.96
1015.35	226.95
1015.64	226.96
1015.92	226.95
1016.21	226.98
1016.50	226.98
1016.78	227.01
1017.07	227.04
1017.36	227.02
1017.64	226.96
1017.93	226.97
1018.22	226.95
1018.50	226.89
1018.79	226.88
1019.08	226.83
1019.36	226.84
1019.65	226.85
1019.93	226.88
1020.22	226.87
1020.51	226.97
1020.79	226.97
1021.08	226.59
1021.36	226.59
1021.65	226.55
1021.94	226.83
1022.22	227.01
1022.51	227.00
1022.79	227.47
1023.08	226.56
1023.36	228.70
1023.65	226.65
>>>>>End Processed Spectral Data<<<<<
