SpectraSuite Data File
++++++++++++++++++++++++++++++++++++
Date: Fri Feb 01 15:02:25 EST 2013
User: group
Dark Spectrum Present: No
Reference Spectrum Present: No
Number of Sampled Component Spectra: 1
Spectrometers: USB2E7196
Integration Time (usec): 35000 (USB2E7196)
Spectra Averaged: 100 (USB2E7196)
Boxcar Smoothing: 10 (USB2E7196)
Correct for Electrical Dark: No (USB2E7196)
Strobe/Lamp Enabled: No (USB2E7196)
Correct for Detector Non-linearity: No (USB2E7196)
Correct for Stray Light: No (USB2E7196)
Number of Pixels in Processed Spectrum: 2048
>>>>>Begin Processed Spectral Data<<<<<
339.09	0.00
339.48	215.43
339.86	216.22
340.24	217.95
340.63	219.43
341.01	222.20
341.39	222.10
341.78	223.63
342.16	224.80
342.54	225.15
342.93	213.50
343.31	224.27
343.69	224.79
344.07	225.27
344.46	225.70
344.84	226.09
345.22	226.30
345.60	226.56
345.99	226.74
346.37	226.85
346.75	226.93
347.13	227.01
347.52	227.08
347.90	227.15
348.28	227.18
348.66	227.22
349.05	227.20
349.43	227.20
349.81	227.25
350.19	227.25
350.57	227.31
350.96	227.40
351.34	227.48
351.72	227.55
352.10	227.64
352.48	227.67
352.87	227.70
353.25	227.79
353.63	227.86
354.01	227.93
354.39	228.01
354.77	228.10
355.15	228.17
355.54	228.21
355.92	228.25
356.30	228.35
356.68	228.47
357.06	228.56
357.44	228.64
357.82	228.66
358.20	228.77
358.58	228.83
358.97	228.89
359.35	228.98
359.73	229.05
360.11	229.11
360.49	229.18
360.87	229.25
361.25	229.31
361.63	229.36
362.01	229.40
362.39	229.41
362.77	229.47
363.15	229.50
363.53	229.50
363.91	229.53
364.29	229.54
364.67	229.48
365.05	229.52
365.43	229.53
365.81	229.56
366.19	229.55
366.57	229.61
366.95	229.60
367.33	229.58
367.71	229.57
368.09	229.60
368.47	229.58
368.85	229.53
369.23	229.53
369.61	229.44
369.99	229.43
370.37	229.42
370.75	229.42
371.13	229.38
371.51	229.36
371.89	229.34
372.27	229.31
372.65	229.23
373.03	229.17
373.41	229.12
373.78	229.03
374.16	228.94
374.54	228.86
374.92	228.76
375.30	228.68
375.68	228.60
376.06	228.54
376.44	228.47
376.82	228.38
377.19	228.28
377.57	228.23
377.95	228.12
378.33	228.06
378.71	227.92
379.09	227.83
379.47	227.76
379.84	227.65
380.22	227.53
380.60	227.45
380.98	227.38
381.36	227.25
381.73	227.19
382.11	227.13
382.49	227.03
382.87	226.97
383.25	226.90
383.62	226.94
384.00	226.80
384.38	226.75
384.76	226.73
385.13	226.70
385.51	226.63
385.89	226.55
386.27	226.48
386.64	226.44
387.02	226.38
387.40	226.31
387.78	226.26
388.15	226.25
388.53	226.22
388.91	226.16
389.29	226.14
389.66	226.15
390.04	226.11
390.42	226.10
390.79	226.09
391.17	226.07
391.55	225.97
391.92	225.98
392.30	225.98
392.68	225.96
393.05	225.96
393.43	225.99
393.81	226.03
394.18	226.04
394.56	226.09
394.94	226.17
395.31	226.20
395.69	226.28
396.06	226.33
396.44	226.38
396.82	226.45
397.19	226.56
397.57	226.58
397.95	226.67
398.32	226.73
398.70	226.80
399.07	226.92
399.45	227.01
399.82	227.10
400.20	227.19
400.58	227.28
400.95	227.35
401.33	227.47
401.70	227.64
402.08	227.80
402.45	227.87
402.83	227.98
403.20	228.11
403.58	228.22
403.95	228.37
404.33	228.51
404.71	228.61
405.08	228.80
405.46	228.98
405.83	229.15
406.21	229.30
406.58	229.45
406.96	229.61
407.33	229.78
407.70	230.01
408.08	230.26
408.45	230.51
408.83	230.75
409.20	230.92
409.58	231.08
409.95	231.32
410.33	231.60
410.70	231.86
411.08	232.18
411.45	232.51
411.82	232.78
412.20	233.13
412.57	233.55
412.95	233.84
413.32	234.22
413.69	234.62
414.07	235.06
414.44	235.53
414.82	236.02
415.19	236.57
415.56	237.10
415.94	237.64
416.31	238.25
416.68	238.87
417.06	239.60
417.43	240.28
417.81	241.09
418.18	241.86
418.55	242.69
418.93	243.53
419.30	244.41
419.67	245.39
420.04	246.34
420.42	247.34
420.79	248.54
421.16	249.69
421.54	250.86
421.91	252.07
422.28	253.34
422.66	254.62
423.03	255.92
423.40	257.25
423.77	258.66
424.15	260.09
424.52	261.59
424.89	263.19
425.26	264.73
425.64	266.14
426.01	267.71
426.38	269.35
426.75	271.01
427.13	272.70
427.50	274.48
427.87	276.33
428.24	278.21
428.61	279.90
428.99	281.82
429.36	283.94
429.73	285.96
430.10	287.99
430.47	290.07
430.85	292.23
431.22	294.44
431.59	296.81
431.96	299.04
432.33	301.52
432.70	303.94
433.08	306.80
433.45	309.45
433.82	312.10
434.19	315.03
434.56	317.88
434.93	320.56
435.30	323.18
435.68	326.10
436.05	328.90
436.42	331.74
436.79	334.28
437.16	336.97
437.53	339.87
437.90	342.69
438.27	345.48
438.64	348.29
439.01	350.94
439.38	353.19
439.75	355.37
440.13	357.89
440.50	360.22
440.87	362.03
441.24	363.99
441.61	366.13
441.98	367.63
442.35	369.46
442.72	371.34
443.09	373.16
443.46	374.18
443.83	374.80
444.20	375.31
444.57	376.16
444.94	376.45
445.31	376.78
445.68	377.20
446.05	377.29
446.42	376.88
446.79	376.45
447.16	375.98
447.53	375.66
447.90	374.51
448.27	373.33
448.64	371.75
449.01	370.59
449.37	368.63
449.74	366.72
450.11	364.39
450.48	361.88
450.85	359.36
451.22	357.21
451.59	355.19
451.96	353.24
452.33	350.61
452.70	348.29
453.07	345.45
453.43	342.55
453.80	339.71
454.17	337.07
454.54	334.53
454.91	331.85
455.28	329.18
455.65	326.67
456.02	324.24
456.38	322.13
456.75	319.46
457.12	317.20
457.49	314.96
457.86	312.87
458.23	311.07
458.59	309.03
458.96	306.95
459.33	305.09
459.70	303.23
460.07	301.76
460.43	300.01
460.80	298.38
461.17	296.88
461.54	295.39
461.91	293.96
462.27	292.51
462.64	291.26
463.01	289.88
463.38	288.57
463.74	287.19
464.11	285.99
464.48	284.99
464.85	283.86
465.21	282.98
465.58	282.01
465.95	280.86
466.32	279.92
466.68	278.99
467.05	278.06
467.42	277.16
467.78	276.21
468.15	275.29
468.52	274.58
468.88	273.72
469.25	272.92
469.62	272.24
469.98	271.56
470.35	270.87
470.72	270.27
471.08	269.57
471.45	268.98
471.82	268.38
472.18	267.75
472.55	267.31
472.92	266.76
473.28	266.28
473.65	265.82
474.02	265.38
474.38	264.97
474.75	264.63
475.11	264.25
475.48	263.94
475.85	263.73
476.21	263.49
476.58	263.29
476.94	263.15
477.31	262.99
477.67	262.81
478.04	262.70
478.41	262.63
478.77	262.69
479.14	262.65
479.50	262.67
479.87	262.71
480.23	262.78
480.60	262.85
480.96	262.89
481.33	263.11
481.69	263.29
482.06	263.48
482.42	263.63
482.79	263.88
483.15	264.21
483.52	264.61
483.88	264.95
484.25	265.32
484.61	265.75
484.98	266.22
485.34	266.76
485.71	267.32
486.07	267.95
486.44	268.52
486.80	269.21
487.17	269.93
487.53	270.81
487.90	271.67
488.26	272.62
488.62	273.63
488.99	274.59
489.35	275.65
489.72	276.77
490.08	278.00
490.44	279.24
490.81	280.59
491.17	281.92
491.54	283.42
491.90	284.95
492.26	286.58
492.63	288.29
492.99	290.09
493.36	291.98
493.72	294.04
494.08	296.12
494.45	298.35
494.81	300.73
495.17	303.11
495.54	305.66
495.90	308.36
496.26	311.18
496.63	314.15
496.99	317.22
497.35	320.50
497.72	323.91
498.08	327.46
498.44	331.09
498.80	334.97
499.17	338.96
499.53	343.08
499.89	347.49
500.26	351.98
500.62	356.66
500.98	361.61
501.34	366.70
501.71	372.04
502.07	377.51
502.43	383.08
502.79	388.88
503.16	394.95
503.52	401.18
503.88	407.51
504.24	414.09
504.60	420.95
504.97	428.02
505.33	435.29
505.69	443.00
506.05	450.74
506.41	458.62
506.78	466.76
507.14	475.22
507.50	483.89
507.86	492.89
508.22	502.04
508.59	511.21
508.95	520.73
509.31	530.51
509.67	540.55
510.03	550.80
510.39	561.30
510.75	572.05
511.12	582.93
511.48	594.20
511.84	605.61
512.20	617.13
512.56	629.07
512.92	641.19
513.28	653.44
513.64	665.99
514.00	678.72
514.37	691.67
514.73	704.64
515.09	717.67
515.45	730.96
515.81	744.55
516.17	758.58
516.53	772.68
516.89	786.83
517.25	801.03
517.61	815.51
517.97	830.01
518.33	844.50
518.69	859.35
519.05	874.49
519.41	889.70
519.77	905.30
520.13	920.83
520.49	936.38
520.85	951.86
521.21	967.59
521.57	983.90
521.93	999.64
522.29	1016.16
522.65	1032.42
523.01	1048.72
523.37	1064.81
523.73	1081.00
524.09	1097.14
524.45	1113.57
524.81	1130.24
525.17	1147.16
525.53	1164.12
525.89	1181.02
526.25	1197.86
526.61	1214.20
526.97	1231.05
527.33	1247.50
527.68	1264.14
528.04	1280.65
528.40	1297.38
528.76	1314.55
529.12	1331.19
529.48	1348.06
529.84	1364.18
530.20	1380.97
530.56	1398.14
530.91	1415.70
531.27	1432.54
531.63	1449.13
531.99	1465.72
532.35	1481.84
532.71	1497.75
533.07	1514.00
533.42	1530.02
533.78	1546.16
534.14	1562.55
534.50	1577.96
534.86	1593.99
535.21	1609.24
535.57	1625.31
535.93	1640.86
536.29	1655.62
536.65	1670.92
537.00	1685.98
537.36	1701.44
537.72	1716.09
538.08	1730.45
538.44	1744.30
538.79	1758.39
539.15	1772.32
539.51	1786.27
539.87	1800.62
540.22	1814.45
540.58	1828.45
540.94	1842.02
541.29	1855.12
541.65	1867.99
542.01	1881.38
542.37	1893.85
542.72	1906.38
543.08	1918.19
543.44	1930.70
543.79	1942.04
544.15	1952.98
544.51	1964.63
544.87	1975.66
545.22	1986.42
545.58	1996.78
545.94	2006.56
546.29	2016.55
546.65	2026.25
547.01	2035.42
547.36	2044.26
547.72	2052.84
548.07	2060.60
548.43	2068.60
548.79	2076.49
549.14	2084.01
549.50	2091.44
549.86	2099.25
550.21	2106.53
550.57	2113.79
550.92	2120.32
551.28	2127.47
551.64	2134.56
551.99	2141.05
552.35	2147.15
552.70	2153.35
553.06	2159.15
553.41	2165.43
553.77	2171.33
554.13	2177.41
554.48	2183.44
554.84	2188.81
555.19	2194.09
555.55	2199.12
555.90	2203.52
556.26	2208.47
556.61	2213.09
556.97	2217.00
557.32	2220.94
557.68	2225.14
558.03	2229.36
558.39	2233.17
558.74	2237.72
559.10	2241.56
559.45	2245.12
559.81	2249.36
560.16	2253.12
560.52	2256.50
560.87	2259.96
561.23	2262.51
561.58	2265.45
561.94	2268.00
562.29	2270.49
562.64	2272.99
563.00	2275.76
563.35	2279.35
563.71	2282.34
564.06	2285.48
564.42	2288.51
564.77	2290.84
565.12	2292.86
565.48	2294.46
565.83	2296.09
566.19	2297.24
566.54	2297.99
566.89	2299.12
567.25	2299.49
567.60	2300.74
567.96	2302.22
568.31	2302.88
568.66	2303.77
569.02	2304.30
569.37	2304.55
569.72	2304.87
570.08	2304.89
570.43	2304.74
570.78	2303.86
571.14	2302.02
571.49	2300.48
571.84	2299.94
572.20	2298.60
572.55	2297.48
572.90	2295.97
573.26	2294.47
573.61	2292.67
573.96	2290.85
574.31	2287.70
574.67	2284.68
575.02	2280.91
575.37	2277.42
575.72	2273.40
576.08	2270.12
576.43	2266.47
576.78	2262.63
577.13	2259.64
577.49	2256.48
577.84	2252.76
578.19	2249.04
578.54	2245.42
578.90	2241.15
579.25	2235.49
579.60	2230.50
579.95	2225.27
580.30	2220.11
580.66	2214.80
581.01	2209.67
581.36	2204.59
581.71	2200.11
582.06	2195.55
582.42	2190.85
582.77	2185.36
583.12	2180.73
583.47	2175.73
583.82	2170.70
584.17	2165.29
584.53	2159.62
584.88	2153.79
585.23	2147.95
585.58	2142.32
585.93	2136.75
586.28	2131.93
586.63	2126.68
586.98	2121.46
587.34	2116.74
587.69	2111.82
588.04	2106.37
588.39	2100.72
588.74	2093.96
589.09	2087.79
589.44	2080.80
589.79	2074.70
590.14	2069.02
590.49	2062.36
590.84	2055.91
591.19	2049.66
591.54	2043.14
591.89	2035.59
592.25	2028.69
592.60	2021.46
592.95	2013.63
593.30	2006.22
593.65	1998.43
594.00	1991.28
594.35	1984.09
594.70	1975.99
595.05	1968.59
595.40	1961.33
595.75	1953.57
596.10	1947.35
596.45	1940.57
596.80	1934.35
597.15	1927.51
597.50	1920.32
597.85	1913.83
598.19	1907.14
598.54	1900.05
598.89	1893.34
599.24	1887.38
599.59	1880.65
599.94	1874.33
600.29	1868.01
600.64	1861.46
600.99	1853.96
601.34	1847.07
601.69	1839.98
602.04	1832.94
602.39	1825.48
602.74	1818.50
603.08	1811.82
603.43	1805.16
603.78	1797.81
604.13	1790.54
604.48	1783.25
604.83	1776.48
605.18	1769.34
605.53	1761.27
605.87	1753.26
606.22	1746.05
606.57	1738.30
606.92	1730.97
607.27	1723.60
607.62	1716.71
607.96	1709.19
608.31	1702.48
608.66	1694.88
609.01	1687.32
609.36	1679.94
609.70	1671.93
610.05	1663.86
610.40	1656.20
610.75	1647.74
611.10	1640.04
611.44	1631.77
611.79	1623.84
612.14	1615.10
612.49	1606.00
612.83	1597.60
613.18	1589.45
613.53	1581.31
613.88	1572.71
614.22	1564.42
614.57	1556.01
614.92	1547.97
615.27	1540.50
615.61	1532.22
615.96	1524.28
616.31	1516.63
616.65	1509.34
617.00	1501.89
617.35	1494.35
617.70	1485.87
618.04	1477.33
618.39	1469.22
618.74	1461.58
619.08	1453.42
619.43	1445.96
619.78	1439.13
620.12	1431.98
620.47	1424.53
620.82	1416.31
621.16	1408.95
621.51	1401.32
621.85	1393.72
622.20	1385.29
622.55	1376.99
622.89	1369.28
623.24	1361.68
623.59	1354.43
623.93	1346.80
624.28	1339.58
624.62	1332.05
624.97	1324.98
625.32	1318.36
625.66	1311.44
626.01	1304.31
626.35	1296.78
626.70	1289.04
627.04	1281.38
627.39	1273.67
627.73	1266.30
628.08	1259.52
628.43	1252.15
628.77	1244.84
629.12	1237.37
629.46	1230.20
629.81	1222.95
630.15	1215.74
630.50	1208.36
630.84	1200.16
631.19	1192.28
631.53	1184.86
631.88	1177.45
632.22	1169.99
632.57	1162.75
632.91	1155.09
633.26	1147.66
633.60	1140.42
633.95	1133.40
634.29	1126.40
634.64	1119.86
634.98	1112.52
635.32	1105.41
635.67	1099.00
636.01	1092.40
636.36	1085.60
636.70	1079.20
637.05	1072.63
637.39	1066.21
637.73	1059.79
638.08	1053.98
638.42	1048.17
638.77	1041.66
639.11	1034.99
639.45	1028.63
639.80	1021.96
640.14	1015.71
640.49	1009.23
640.83	1003.02
641.17	996.79
641.52	990.49
641.86	984.08
642.20	978.34
642.55	972.13
642.89	965.47
643.23	958.99
643.58	953.31
643.92	947.09
644.26	940.98
644.61	935.01
644.95	928.86
645.29	922.27
645.64	915.46
645.98	909.16
646.32	903.44
646.66	897.38
647.01	891.66
647.35	885.96
647.69	880.17
648.04	874.64
648.38	868.88
648.72	862.83
649.06	856.73
649.41	850.75
649.75	844.66
650.09	838.85
650.43	833.12
650.78	826.91
651.12	820.88
651.46	815.21
651.80	809.38
652.14	804.10
652.49	798.69
652.83	793.51
653.17	787.80
653.51	781.97
653.85	776.58
654.20	770.92
654.54	764.94
654.88	759.18
655.22	753.32
655.56	747.55
655.90	742.18
656.25	736.95
656.59	731.78
656.93	726.78
657.27	721.64
657.61	716.09
657.95	711.03
658.29	706.07
658.64	700.91
658.98	695.72
659.32	690.21
659.66	685.12
660.00	679.82
660.34	674.97
660.68	670.17
661.02	665.17
661.36	660.44
661.70	655.92
662.05	651.59
662.39	647.18
662.73	642.77
663.07	638.40
663.41	633.96
663.75	629.34
664.09	624.88
664.43	620.49
664.77	616.43
665.11	612.22
665.45	608.09
665.79	603.97
666.13	599.83
666.47	595.77
666.81	591.60
667.15	587.49
667.49	583.64
667.83	579.82
668.17	575.86
668.51	571.93
668.85	567.93
669.19	564.13
669.53	560.38
669.87	556.55
670.21	552.86
670.55	549.34
670.89	545.95
671.23	542.49
671.57	539.01
671.91	535.58
672.25	532.12
672.58	528.67
672.92	525.34
673.26	522.23
673.60	519.16
673.94	516.10
674.28	513.27
674.62	510.30
674.96	507.22
675.30	504.38
675.64	501.47
675.97	498.75
676.31	495.93
676.65	493.09
676.99	490.44
677.33	487.62
677.67	484.78
678.01	481.79
678.34	478.84
678.68	476.00
679.02	473.16
679.36	470.41
679.70	467.69
680.04	464.92
680.37	462.06
680.71	459.29
681.05	456.69
681.39	454.01
681.73	451.44
682.06	448.91
682.40	446.33
682.74	443.83
683.08	441.32
683.42	438.73
683.75	436.19
684.09	433.61
684.43	431.17
684.77	428.72
685.10	426.39
685.44	424.13
685.78	421.88
686.12	419.68
686.45	417.44
686.79	415.17
687.13	412.99
687.46	410.85
687.80	408.77
688.14	406.58
688.48	404.53
688.81	402.23
689.15	400.12
689.49	398.06
689.82	395.97
690.16	393.86
690.50	391.93
690.83	390.04
691.17	388.12
691.51	386.23
691.84	384.39
692.18	382.48
692.52	380.49
692.85	378.56
693.19	376.70
693.52	374.88
693.86	373.06
694.20	371.30
694.53	369.47
694.87	367.56
695.21	365.76
695.54	363.92
695.88	362.27
696.21	360.57
696.55	358.87
696.88	357.17
697.22	355.53
697.56	353.88
697.89	352.18
698.23	350.56
698.56	348.93
698.90	347.30
699.23	345.64
699.57	344.06
699.90	342.50
700.24	340.95
700.58	339.34
700.91	337.83
701.25	336.39
701.58	335.05
701.92	333.70
702.25	332.30
702.59	330.94
702.92	329.62
703.26	328.30
703.59	327.02
703.93	325.82
704.26	324.59
704.60	323.28
704.93	322.04
705.26	320.81
705.60	319.65
705.93	318.57
706.27	317.59
706.60	316.58
706.94	315.52
707.27	314.40
707.61	313.41
707.94	312.41
708.27	311.32
708.61	310.26
708.94	309.28
709.28	308.31
709.61	307.36
709.94	306.41
710.28	305.44
710.61	304.51
710.95	303.45
711.28	302.53
711.61	301.66
711.95	300.75
712.28	299.81
712.61	298.81
712.95	297.88
713.28	296.99
713.61	296.08
713.95	295.24
714.28	294.45
714.61	293.61
714.95	292.82
715.28	291.98
715.61	291.11
715.95	290.27
716.28	289.46
716.61	288.65
716.95	287.84
717.28	287.08
717.61	286.32
717.94	285.62
718.28	284.84
718.61	284.14
718.94	283.47
719.27	282.82
719.61	282.24
719.94	281.58
720.27	280.90
720.60	280.28
720.94	279.67
721.27	279.12
721.60	278.53
721.93	277.93
722.27	277.38
722.60	276.85
722.93	276.35
723.26	275.82
723.59	275.32
723.93	274.78
724.26	274.24
724.59	273.67
724.92	273.17
725.25	272.73
725.59	272.20
725.92	271.69
726.25	271.19
726.58	270.67
726.91	270.18
727.24	269.69
727.57	269.22
727.91	268.72
728.24	268.21
728.57	267.73
728.90	267.26
729.23	266.73
729.56	266.32
729.89	265.82
730.22	265.34
730.55	264.83
730.89	264.35
731.22	263.89
731.55	263.47
731.88	263.02
732.21	262.58
732.54	262.13
732.87	261.71
733.20	261.32
733.53	260.95
733.86	260.58
734.19	260.20
734.52	259.80
734.85	259.49
735.18	259.08
735.51	258.72
735.84	258.32
736.17	257.99
736.50	257.57
736.83	257.29
737.16	256.96
737.49	256.65
737.82	256.31
738.15	256.03
738.48	255.66
738.81	255.31
739.14	254.95
739.47	254.63
739.80	254.29
740.13	253.97
740.46	253.60
740.79	253.25
741.12	252.92
741.45	252.57
741.78	252.16
742.11	251.88
742.44	251.51
742.77	251.25
743.10	250.94
743.43	250.63
743.75	250.24
744.08	250.02
744.41	249.72
744.74	249.43
745.07	249.06
745.40	248.80
745.73	248.57
746.06	248.27
746.39	247.99
746.71	247.71
747.04	247.41
747.37	247.15
747.70	246.89
748.03	246.65
748.36	246.42
748.68	246.19
749.01	245.94
749.34	245.76
749.67	245.53
750.00	245.34
750.33	245.19
750.65	244.94
750.98	244.63
751.31	244.40
751.64	244.21
751.97	244.06
752.29	243.86
752.62	243.63
752.95	243.43
753.28	243.24
753.60	243.04
753.93	242.90
754.26	242.70
754.59	242.54
754.91	242.33
755.24	242.14
755.57	241.97
755.90	241.75
756.22	241.55
756.55	241.35
756.88	241.15
757.20	240.95
757.53	240.81
757.86	240.65
758.19	240.56
758.51	240.42
758.84	240.23
759.17	240.08
759.49	239.94
759.82	239.84
760.15	239.68
760.47	239.57
760.80	239.39
761.13	239.31
761.45	239.10
761.78	238.97
762.11	238.86
762.43	238.71
762.76	238.61
763.08	238.51
763.41	238.37
763.74	238.24
764.06	238.08
764.39	237.93
764.71	237.81
765.04	237.62
765.37	237.47
765.69	237.35
766.02	237.21
766.34	237.07
766.67	236.92
767.00	236.85
767.32	236.78
767.65	236.73
767.97	236.60
768.30	236.54
768.62	236.42
768.95	236.29
769.27	236.18
769.60	236.08
769.92	235.92
770.25	235.81
770.57	235.69
770.90	235.59
771.22	235.51
771.55	235.42
771.87	235.36
772.20	235.28
772.52	235.27
772.85	235.30
773.17	235.22
773.50	235.14
773.82	235.02
774.15	234.88
774.47	234.73
774.80	234.61
775.12	234.50
775.45	234.42
775.77	234.35
776.09	234.29
776.42	234.22
776.74	234.17
777.07	234.09
777.39	234.02
777.72	233.94
778.04	233.87
778.36	233.78
778.69	233.69
779.01	233.62
779.33	233.48
779.66	233.31
779.98	233.23
780.31	233.15
780.63	233.10
780.95	233.03
781.28	232.94
781.60	232.85
781.92	232.79
782.25	232.73
782.57	232.65
782.89	232.56
783.22	232.45
783.54	232.38
783.86	232.33
784.19	232.24
784.51	232.24
784.83	232.15
785.16	232.09
785.48	232.02
785.80	231.93
786.12	231.85
786.45	231.78
786.77	231.75
787.09	231.69
787.42	231.62
787.74	231.54
788.06	231.54
788.38	231.52
788.71	231.46
789.03	231.42
789.35	231.42
789.67	231.40
789.99	231.36
790.32	231.32
790.64	231.29
790.96	231.35
791.28	231.27
791.61	231.22
791.93	231.19
792.25	231.16
792.57	231.22
792.89	231.18
793.21	231.13
793.54	231.04
793.86	231.02
794.18	230.99
794.50	230.97
794.82	230.93
795.14	230.91
795.47	230.91
795.79	230.82
796.11	230.75
796.43	230.71
796.75	230.69
797.07	230.64
797.39	230.61
797.71	230.51
798.04	230.47
798.36	230.44
798.68	230.39
799.00	230.39
799.32	230.31
799.64	230.28
799.96	230.28
800.28	230.30
800.60	230.26
800.92	230.25
801.24	230.20
801.56	230.19
801.89	230.17
802.21	230.12
802.53	230.11
802.85	230.11
803.17	230.11
803.49	230.10
803.81	230.08
804.13	230.06
804.45	230.03
804.77	230.04
805.09	230.02
805.41	230.00
805.73	229.98
806.05	229.92
806.37	229.92
806.69	229.93
807.01	229.86
807.33	229.87
807.65	229.80
807.97	229.83
808.28	229.79
808.60	229.76
808.92	229.73
809.24	229.79
809.56	229.76
809.88	229.72
810.20	229.67
810.52	229.67
810.84	229.64
811.16	229.62
811.48	229.59
811.80	229.57
812.12	229.59
812.43	229.57
812.75	229.58
813.07	229.54
813.39	229.50
813.71	229.48
814.03	229.46
814.35	229.43
814.67	229.41
814.98	229.39
815.30	229.39
815.62	229.37
815.94	229.30
816.26	229.31
816.58	229.29
816.89	229.29
817.21	229.24
817.53	229.22
817.85	229.20
818.17	229.19
818.48	229.15
818.80	229.13
819.12	229.10
819.44	229.05
819.76	229.01
820.07	228.99
820.39	229.01
820.71	228.98
821.03	228.97
821.34	228.93
821.66	228.92
821.98	228.91
822.30	228.91
822.61	228.92
822.93	228.87
823.25	228.80
823.57	228.80
823.88	228.81
824.20	228.79
824.52	228.77
824.83	228.74
825.15	228.76
825.47	228.71
825.79	228.69
826.10	228.65
826.42	228.63
826.74	228.61
827.05	228.57
827.37	228.54
827.69	228.50
828.00	228.46
828.32	228.47
828.64	228.42
828.95	228.41
829.27	228.39
829.58	228.37
829.90	228.41
830.22	228.37
830.53	228.31
830.85	228.29
831.17	228.23
831.48	228.22
831.80	228.19
832.11	228.19
832.43	228.15
832.75	228.19
833.06	228.27
833.38	228.23
833.69	228.20
834.01	228.19
834.32	228.20
834.64	228.20
834.96	228.14
835.27	228.15
835.59	228.11
835.90	228.07
836.22	228.04
836.53	227.99
836.85	227.99
837.16	228.09
837.48	228.10
837.79	228.14
838.11	228.12
838.42	228.11
838.74	228.10
839.05	228.11
839.37	228.06
839.68	227.98
840.00	227.92
840.31	227.95
840.63	227.94
840.94	227.94
841.26	227.92
841.57	227.94
841.88	227.94
842.20	227.91
842.51	227.92
842.83	227.91
843.14	228.02
843.46	228.01
843.77	227.96
844.08	227.95
844.40	227.93
844.71	227.92
845.03	227.93
845.34	227.92
845.65	227.92
845.97	227.95
846.28	227.96
846.60	228.00
846.91	228.00
847.22	228.01
847.54	228.01
847.85	228.04
848.16	228.02
848.48	227.99
848.79	228.04
849.10	228.03
849.42	228.06
849.73	227.96
850.04	227.98
850.36	227.93
850.67	227.97
850.98	227.97
851.30	227.99
851.61	227.96
851.92	227.96
852.23	227.94
852.55	227.93
852.86	227.95
853.17	227.97
853.49	227.97
853.80	227.98
854.11	228.01
854.42	228.02
854.74	228.01
855.05	228.01
855.36	227.98
855.67	227.95
855.99	227.93
856.30	228.03
856.61	228.00
856.92	228.01
857.23	227.98
857.55	227.98
857.86	227.96
858.17	227.97
858.48	227.98
858.79	227.97
859.11	227.97
859.42	227.94
859.73	227.90
860.04	227.84
860.35	227.81
860.66	227.76
860.98	227.75
861.29	227.77
861.60	227.75
861.91	227.76
862.22	227.78
862.53	227.78
862.84	227.66
863.16	227.64
863.47	227.65
863.78	227.63
864.09	227.61
864.40	227.60
864.71	227.59
865.02	227.55
865.33	227.59
865.64	227.54
865.95	227.52
866.27	227.60
866.58	227.62
866.89	227.63
867.20	227.62
867.51	227.61
867.82	227.56
868.13	227.59
868.44	227.56
868.75	227.57
869.06	227.52
869.37	227.53
869.68	227.52
869.99	227.49
870.30	227.49
870.61	227.50
870.92	227.49
871.23	227.50
871.54	227.53
871.85	227.49
872.16	227.53
872.47	227.54
872.78	227.46
873.09	227.49
873.40	227.47
873.71	227.45
874.02	227.46
874.33	227.48
874.64	227.45
874.95	227.46
875.26	227.43
875.56	227.45
875.87	227.46
876.18	227.46
876.49	227.56
876.80	227.54
877.11	227.51
877.42	227.51
877.73	227.51
878.04	227.51
878.35	227.54
878.66	227.52
878.96	227.55
879.27	227.56
879.58	227.53
879.89	227.52
880.20	227.57
880.51	227.54
880.82	227.52
881.12	227.52
881.43	227.49
881.74	227.49
882.05	227.49
882.36	227.46
882.67	227.44
882.97	227.34
883.28	227.33
883.59	227.34
883.90	227.34
884.21	227.35
884.51	227.35
884.82	227.30
885.13	227.28
885.44	227.21
885.74	227.22
886.05	227.18
886.36	227.18
886.67	227.13
886.98	227.18
887.28	227.20
887.59	227.19
887.90	227.24
888.20	227.19
888.51	227.17
888.82	227.16
889.13	227.19
889.43	227.25
889.74	227.27
890.05	227.28
890.35	227.28
890.66	227.26
890.97	227.21
891.28	227.20
891.58	227.22
891.89	227.28
892.20	227.24
892.50	227.28
892.81	227.25
893.12	227.24
893.42	227.20
893.73	227.22
894.04	227.23
894.34	227.24
894.65	227.28
894.95	227.29
895.26	227.32
895.57	227.37
895.87	227.29
896.18	227.29
896.48	227.27
896.79	227.25
897.10	227.25
897.40	227.30
897.71	227.31
898.01	227.27
898.32	227.25
898.63	227.28
898.93	227.29
899.24	227.31
899.54	227.35
899.85	227.32
900.15	227.29
900.46	227.31
900.76	227.27
901.07	227.27
901.38	227.30
901.68	227.29
901.99	227.24
902.29	227.25
902.60	227.27
902.90	227.31
903.21	227.33
903.51	227.32
903.82	227.31
904.12	227.34
904.43	227.38
904.73	227.38
905.03	227.40
905.34	227.48
905.64	227.48
905.95	227.44
906.25	227.48
906.56	227.48
906.86	227.46
907.17	227.48
907.47	227.47
907.77	227.45
908.08	227.44
908.38	227.44
908.69	227.45
908.99	227.48
909.30	227.46
909.60	227.45
909.90	227.48
910.21	227.44
910.51	227.41
910.81	227.44
911.12	227.46
911.42	227.44
911.73	227.34
912.03	227.32
912.33	227.33
912.64	227.33
912.94	227.34
913.24	227.31
913.55	227.30
913.85	227.28
914.15	227.29
914.46	227.30
914.76	227.30
915.06	227.30
915.37	227.27
915.67	227.26
915.97	227.26
916.27	227.22
916.58	227.25
916.88	227.24
917.18	227.19
917.49	227.24
917.79	227.24
918.09	227.27
918.39	227.30
918.70	227.33
919.00	227.32
919.30	227.35
919.60	227.36
919.91	227.36
920.21	227.37
920.51	227.34
920.81	227.35
921.12	227.37
921.42	227.34
921.72	227.31
922.02	227.29
922.32	227.28
922.63	227.28
922.93	227.31
923.23	227.32
923.53	227.32
923.83	227.26
924.13	227.25
924.44	227.24
924.74	227.26
925.04	227.27
925.34	227.26
925.64	227.23
925.94	227.21
926.24	227.25
926.55	227.25
926.85	227.28
927.15	227.27
927.45	227.28
927.75	227.28
928.05	227.29
928.35	227.30
928.65	227.33
928.95	227.35
929.26	227.34
929.56	227.36
929.86	227.35
930.16	227.34
930.46	227.33
930.76	227.35
931.06	227.31
931.36	227.29
931.66	227.34
931.96	227.36
932.26	227.42
932.56	227.39
932.86	227.43
933.16	227.41
933.46	227.39
933.76	227.35
934.06	227.37
934.36	227.40
934.66	227.40
934.96	227.42
935.26	227.41
935.56	227.42
935.86	227.40
936.16	227.40
936.46	227.40
936.76	227.39
937.06	227.38
937.36	227.38
937.66	227.40
937.96	227.37
938.26	227.32
938.56	227.28
938.86	227.27
939.16	227.25
939.46	227.26
939.76	227.31
940.06	227.30
940.35	227.31
940.65	227.32
940.95	227.31
941.25	227.27
941.55	227.27
941.85	227.25
942.15	227.25
942.45	227.29
942.75	227.28
943.04	227.30
943.34	227.33
943.64	227.31
943.94	227.28
944.24	227.30
944.54	227.30
944.84	227.34
945.13	227.31
945.43	227.32
945.73	227.29
946.03	227.29
946.33	227.29
946.62	227.24
946.92	227.20
947.22	227.22
947.52	227.22
947.82	227.24
948.11	227.22
948.41	227.23
948.71	227.19
949.01	227.18
949.31	227.17
949.60	227.14
949.90	227.14
950.20	227.16
950.50	227.12
950.79	227.10
951.09	227.07
951.39	227.11
951.69	227.06
951.98	227.06
952.28	227.04
952.58	227.05
952.87	227.02
953.17	227.06
953.47	227.02
953.76	227.00
954.06	226.97
954.36	226.94
954.66	226.95
954.95	226.97
955.25	226.99
955.55	226.96
955.84	226.94
956.14	226.93
956.44	226.92
956.73	226.90
957.03	226.91
957.32	226.88
957.62	226.84
957.92	226.84
958.21	226.84
958.51	226.93
958.81	226.92
959.10	226.96
959.40	226.97
959.69	226.98
959.99	226.97
960.29	227.00
960.58	226.96
960.88	226.99
961.17	226.95
961.47	226.97
961.76	226.98
962.06	226.99
962.36	226.98
962.65	226.98
962.95	227.01
963.24	227.00
963.54	227.04
963.83	227.05
964.13	227.07
964.42	227.09
964.72	227.02
965.01	227.05
965.31	227.01
965.60	227.01
965.90	227.09
966.19	227.08
966.49	227.09
966.78	227.12
967.08	227.12
967.37	227.14
967.67	227.13
967.96	227.16
968.26	227.18
968.55	227.26
968.85	227.25
969.14	227.24
969.43	227.24
969.73	227.27
970.02	227.28
970.32	227.29
970.61	227.28
970.91	227.28
971.20	227.26
971.49	227.28
971.79	227.26
972.08	227.19
972.38	227.19
972.67	227.17
972.96	227.19
973.26	227.20
973.55	227.28
973.85	227.26
974.14	227.26
974.43	227.22
974.73	227.20
975.02	227.22
975.31	227.23
975.61	227.24
975.90	227.23
976.19	227.23
976.49	227.22
976.78	227.22
977.07	227.21
977.37	227.20
977.66	227.24
977.95	227.26
978.24	227.29
978.54	227.34
978.83	227.36
979.12	227.36
979.42	227.33
979.71	227.27
980.00	227.28
980.29	227.26
980.59	227.26
980.88	227.28
981.17	227.27
981.46	227.29
981.76	227.29
982.05	227.29
982.34	227.30
982.63	227.29
982.93	227.32
983.22	227.35
983.51	227.36
983.80	227.39
984.09	227.38
984.39	227.34
984.68	227.30
984.97	227.29
985.26	227.27
985.55	227.28
985.85	227.22
986.14	227.23
986.43	227.25
986.72	227.25
987.01	227.21
987.30	227.18
987.59	227.18
987.89	227.15
988.18	227.13
988.47	227.11
988.76	227.10
989.05	227.07
989.34	227.04
989.63	227.05
989.92	226.98
990.22	226.98
990.51	226.96
990.80	226.93
991.09	226.96
991.38	226.95
991.67	226.91
991.96	226.94
992.25	226.90
992.54	226.88
992.83	226.87
993.12	226.87
993.41	226.86
993.70	226.86
993.99	226.85
994.28	226.84
994.58	226.84
994.87	226.81
995.16	226.77
995.45	226.75
995.74	226.75
996.03	226.77
996.32	226.74
996.61	226.76
996.90	226.77
997.19	226.77
997.48	226.79
997.77	226.76
998.06	226.75
998.34	226.77
998.63	226.77
998.92	226.78
999.21	226.79
999.50	226.83
999.79	226.82
1000.08	226.86
1000.37	226.87
1000.66	226.88
1000.95	226.92
1001.24	226.96
1001.53	226.98
1001.82	226.97
1002.11	226.96
1002.40	226.99
1002.68	227.02
1002.97	227.09
1003.26	227.05
1003.55	227.04
1003.84	227.08
1004.13	227.14
1004.42	227.13
1004.71	227.15
1004.99	227.17
1005.28	227.16
1005.57	227.12
1005.86	227.12
1006.15	227.09
1006.44	227.12
1006.72	227.14
1007.01	227.09
1007.30	227.09
1007.59	227.08
1007.88	227.06
1008.17	227.06
1008.45	227.05
1008.74	227.04
1009.03	227.00
1009.32	227.02
1009.60	227.03
1009.89	227.02
1010.18	226.99
1010.47	227.00
1010.76	226.97
1011.04	226.98
1011.33	227.02
1011.62	227.06
1011.91	227.07
1012.19	227.05
1012.48	227.05
1012.77	227.03
1013.05	227.11
1013.34	227.15
1013.63	227.15
1013.92	227.17
1014.20	227.19
1014.49	227.21
1014.78	227.22
1015.06	227.22
1015.35	227.22
1015.64	227.24
1015.92	227.26
1016.21	227.26
1016.50	227.31
1016.78	227.30
1017.07	227.30
1017.36	227.27
1017.64	227.28
1017.93	227.29
1018.22	227.32
1018.50	227.28
1018.79	227.26
1019.08	227.22
1019.36	227.21
1019.65	227.19
1019.93	227.22
1020.22	227.22
1020.51	227.27
1020.79	227.24
1021.08	227.12
1021.36	226.46
1021.65	226.60
1021.94	227.23
1022.22	227.15
1022.51	226.76
1022.79	227.64
1023.08	227.30
1023.36	228.51
1023.65	226.65
>>>>>End Processed Spectral Data<<<<<
