SpectraSuite Data File
++++++++++++++++++++++++++++++++++++
Date: Fri Feb 01 16:41:15 EST 2013
User: group
Dark Spectrum Present: No
Reference Spectrum Present: No
Number of Sampled Component Spectra: 1
Spectrometers: USB2E7196
Integration Time (usec): 35000 (USB2E7196)
Spectra Averaged: 100 (USB2E7196)
Boxcar Smoothing: 10 (USB2E7196)
Correct for Electrical Dark: No (USB2E7196)
Strobe/Lamp Enabled: No (USB2E7196)
Correct for Detector Non-linearity: No (USB2E7196)
Correct for Stray Light: No (USB2E7196)
Number of Pixels in Processed Spectrum: 2048
>>>>>Begin Processed Spectral Data<<<<<
339.09	0.00
339.48	213.44
339.86	215.66
340.24	216.14
340.63	217.47
341.01	220.72
341.39	219.98
341.78	221.92
342.16	222.47
342.54	223.59
342.93	211.87
343.31	222.59
343.69	223.15
344.07	223.61
344.46	224.05
344.84	224.44
345.22	224.68
345.60	224.94
345.99	225.11
346.37	225.27
346.75	225.39
347.13	225.51
347.52	225.59
347.90	225.70
348.28	225.71
348.66	225.75
349.05	225.75
349.43	225.84
349.81	225.90
350.19	225.96
350.57	226.02
350.96	226.08
351.34	226.16
351.72	226.25
352.10	226.36
352.48	226.42
352.87	226.49
353.25	226.56
353.63	226.68
354.01	226.77
354.39	226.85
354.77	226.92
355.15	227.03
355.54	227.11
355.92	227.13
356.30	227.20
356.68	227.38
357.06	227.45
357.44	227.49
357.82	227.57
358.20	227.66
358.58	227.71
358.97	227.80
359.35	227.91
359.73	227.97
360.11	228.00
360.49	228.06
360.87	228.10
361.25	228.15
361.63	228.23
362.01	228.26
362.39	228.26
362.77	228.29
363.15	228.27
363.53	228.30
363.91	228.34
364.29	228.37
364.67	228.28
365.05	228.31
365.43	228.34
365.81	228.36
366.19	228.38
366.57	228.44
366.95	228.41
367.33	228.34
367.71	228.31
368.09	228.31
368.47	228.31
368.85	228.31
369.23	228.33
369.61	228.28
369.99	228.29
370.37	228.30
370.75	228.34
371.13	228.34
371.51	228.30
371.89	228.28
372.27	228.24
372.65	228.21
373.03	228.13
373.41	228.07
373.78	228.03
374.16	227.95
374.54	227.86
374.92	227.80
375.30	227.76
375.68	227.70
376.06	227.62
376.44	227.55
376.82	227.44
377.19	227.36
377.57	227.25
377.95	227.14
378.33	227.06
378.71	226.90
379.09	226.82
379.47	226.76
379.84	226.65
380.22	226.56
380.60	226.44
380.98	226.37
381.36	226.29
381.73	226.19
382.11	226.13
382.49	226.06
382.87	225.99
383.25	225.91
383.62	225.97
384.00	225.88
384.38	225.83
384.76	225.83
385.13	225.79
385.51	225.74
385.89	225.73
386.27	225.69
386.64	225.66
387.02	225.59
387.40	225.52
387.78	225.51
388.15	225.48
388.53	225.46
388.91	225.43
389.29	225.41
389.66	225.38
390.04	225.36
390.42	225.36
390.79	225.33
391.17	225.33
391.55	225.21
391.92	225.23
392.30	225.25
392.68	225.20
393.05	225.19
393.43	225.19
393.81	225.17
394.18	225.15
394.56	225.19
394.94	225.22
395.31	225.25
395.69	225.30
396.06	225.37
396.44	225.39
396.82	225.40
397.19	225.50
397.57	225.54
397.95	225.60
398.32	225.63
398.70	225.69
399.07	225.80
399.45	225.85
399.82	225.90
400.20	225.94
400.58	226.05
400.95	226.09
401.33	226.23
401.70	226.37
402.08	226.47
402.45	226.56
402.83	226.67
403.20	226.77
403.58	226.87
403.95	226.95
404.33	227.10
404.71	227.23
405.08	227.37
405.46	227.52
405.83	227.65
406.21	227.78
406.58	227.95
406.96	228.08
407.33	228.24
407.70	228.47
408.08	228.75
408.45	229.00
408.83	229.26
409.20	229.46
409.58	229.64
409.95	229.88
410.33	230.16
410.70	230.40
411.08	230.70
411.45	230.99
411.82	231.31
412.20	231.66
412.57	232.12
412.95	232.39
413.32	232.77
413.69	233.15
414.07	233.60
414.44	234.05
414.82	234.54
415.19	235.11
415.56	235.59
415.94	236.06
416.31	236.67
416.68	237.26
417.06	237.93
417.43	238.59
417.81	239.39
418.18	240.15
418.55	240.97
418.93	241.84
419.30	242.76
419.67	243.67
420.04	244.60
420.42	245.55
420.79	246.75
421.16	247.92
421.54	249.12
421.91	250.34
422.28	251.61
422.66	252.89
423.03	254.15
423.40	255.51
423.77	256.93
424.15	258.31
424.52	259.78
424.89	261.42
425.26	262.99
425.64	264.39
426.01	265.96
426.38	267.66
426.75	269.30
427.13	270.97
427.50	272.80
427.87	274.62
428.24	276.45
428.61	278.19
428.99	280.09
429.36	282.17
429.73	284.19
430.10	286.13
430.47	288.17
430.85	290.27
431.22	292.50
431.59	294.82
431.96	297.05
432.33	299.52
432.70	301.85
433.08	304.59
433.45	307.21
433.82	309.78
434.19	312.60
434.56	315.37
434.93	318.02
435.30	320.55
435.68	323.44
436.05	326.27
436.42	329.01
436.79	331.52
437.16	334.12
437.53	336.92
437.90	339.76
438.27	342.53
438.64	345.34
439.01	347.91
439.38	350.11
439.75	352.24
440.13	354.68
440.50	356.95
440.87	358.82
441.24	360.72
441.61	362.82
441.98	364.32
442.35	366.10
442.72	367.89
443.09	369.70
443.46	370.69
443.83	371.25
444.20	371.80
444.57	372.60
444.94	372.91
445.31	373.25
445.68	373.55
446.05	373.61
446.42	373.23
446.79	372.85
447.16	372.46
447.53	372.14
447.90	371.03
448.27	369.93
448.64	368.35
449.01	367.25
449.37	365.32
449.74	363.42
450.11	361.21
450.48	358.79
450.85	356.30
451.22	354.22
451.59	352.25
451.96	350.26
452.33	347.73
452.70	345.45
453.07	342.66
453.43	339.82
453.80	337.06
454.17	334.40
454.54	331.83
454.91	329.15
455.28	326.54
455.65	324.09
456.02	321.66
456.38	319.55
456.75	316.94
457.12	314.77
457.49	312.57
457.86	310.42
458.23	308.60
458.59	306.57
458.96	304.47
459.33	302.61
459.70	300.76
460.07	299.25
460.43	297.55
460.80	295.94
461.17	294.53
461.54	293.06
461.91	291.64
462.27	290.25
462.64	289.02
463.01	287.65
463.38	286.34
463.74	284.96
464.11	283.79
464.48	282.79
464.85	281.63
465.21	280.75
465.58	279.85
465.95	278.72
466.32	277.83
466.68	276.93
467.05	276.04
467.42	275.18
467.78	274.28
468.15	273.40
468.52	272.74
468.88	271.89
469.25	271.11
469.62	270.52
469.98	269.85
470.35	269.22
470.72	268.67
471.08	268.06
471.45	267.55
471.82	267.01
472.18	266.38
472.55	265.96
472.92	265.49
473.28	265.01
473.65	264.60
474.02	264.15
474.38	263.82
474.75	263.52
475.11	263.17
475.48	262.91
475.85	262.67
476.21	262.45
476.58	262.28
476.94	262.16
477.31	261.95
477.67	261.83
478.04	261.71
478.41	261.65
478.77	261.69
479.14	261.65
479.50	261.68
479.87	261.81
480.23	261.92
480.60	261.98
480.96	262.07
481.33	262.29
481.69	262.51
482.06	262.69
482.42	262.92
482.79	263.21
483.15	263.52
483.52	263.90
483.88	264.27
484.25	264.64
484.61	265.06
484.98	265.54
485.34	266.07
485.71	266.67
486.07	267.27
486.44	267.84
486.80	268.53
487.17	269.24
487.53	270.04
487.90	270.89
488.26	271.85
488.62	272.86
488.99	273.85
489.35	274.88
489.72	276.06
490.08	277.23
490.44	278.47
490.81	279.86
491.17	281.24
491.54	282.70
491.90	284.26
492.26	285.97
492.63	287.72
492.99	289.50
493.36	291.42
493.72	293.47
494.08	295.56
494.45	297.84
494.81	300.23
495.17	302.69
495.54	305.26
495.90	308.00
496.26	310.83
496.63	313.80
496.99	316.94
497.35	320.20
497.72	323.62
498.08	327.15
498.44	330.82
498.80	334.73
499.17	338.80
499.53	342.98
499.89	347.29
500.26	351.85
500.62	356.56
500.98	361.51
501.34	366.59
501.71	371.93
502.07	377.35
502.43	383.01
502.79	388.78
503.16	394.86
503.52	401.10
503.88	407.46
504.24	414.10
504.60	420.94
504.97	427.98
505.33	435.30
505.69	442.99
506.05	450.73
506.41	458.67
506.78	466.79
507.14	475.22
507.50	483.92
507.86	492.89
508.22	502.07
508.59	511.23
508.95	520.80
509.31	530.58
509.67	540.67
510.03	550.83
510.39	561.35
510.75	572.04
511.12	582.92
511.48	594.19
511.84	605.60
512.20	617.08
512.56	629.10
512.92	641.26
513.28	653.54
513.64	665.88
514.00	678.51
514.37	691.48
514.73	704.43
515.09	717.47
515.45	730.61
515.81	744.12
516.17	758.03
516.53	772.02
516.89	786.06
517.25	800.09
517.61	814.56
517.97	828.98
518.33	843.38
518.69	858.09
519.05	872.92
519.41	888.00
519.77	903.42
520.13	918.73
520.49	933.99
520.85	949.30
521.21	964.88
521.57	980.96
521.93	996.54
522.29	1012.79
522.65	1028.93
523.01	1045.07
523.37	1061.02
523.73	1077.10
524.09	1093.21
524.45	1109.45
524.81	1126.05
525.17	1142.62
525.53	1159.29
525.89	1176.10
526.25	1192.84
526.61	1209.13
526.97	1225.63
527.33	1242.04
527.68	1258.38
528.04	1274.71
528.40	1291.13
528.76	1308.24
529.12	1324.75
529.48	1341.49
529.84	1357.45
530.20	1373.79
530.56	1390.64
530.91	1407.90
531.27	1424.45
531.63	1440.69
531.99	1457.15
532.35	1473.08
532.71	1488.88
533.07	1505.05
533.42	1520.78
533.78	1536.75
534.14	1552.78
534.50	1568.04
534.86	1583.80
535.21	1598.98
535.57	1614.65
535.93	1629.95
536.29	1644.57
536.65	1659.46
537.00	1674.02
537.36	1689.15
537.72	1703.68
538.08	1717.95
538.44	1731.41
538.79	1745.24
539.15	1758.62
539.51	1772.15
539.87	1786.25
540.22	1799.75
540.58	1813.39
540.94	1826.40
541.29	1838.94
541.65	1851.59
542.01	1864.66
542.37	1876.88
542.72	1889.15
543.08	1900.87
543.44	1913.22
543.79	1924.22
544.15	1934.97
544.51	1946.43
544.87	1957.22
545.22	1968.02
545.58	1978.13
545.94	1987.95
546.29	1997.62
546.65	2007.48
547.01	2016.72
547.36	2025.22
547.72	2033.60
548.07	2041.42
548.43	2049.63
548.79	2057.47
549.14	2065.00
549.50	2072.31
549.86	2079.79
550.21	2087.00
550.57	2094.28
550.92	2100.77
551.28	2107.82
551.64	2114.94
551.99	2121.47
552.35	2127.74
552.70	2133.67
553.06	2139.71
553.41	2145.96
553.77	2152.03
554.13	2158.11
554.48	2164.19
554.84	2169.76
555.19	2174.97
555.55	2180.12
555.90	2184.64
556.26	2189.81
556.61	2194.44
556.97	2198.78
557.32	2202.92
557.68	2207.07
558.03	2211.09
558.39	2214.69
558.74	2219.35
559.10	2223.12
559.45	2226.72
559.81	2230.86
560.16	2234.72
560.52	2237.88
560.87	2241.25
561.23	2243.86
561.58	2246.78
561.94	2249.27
562.29	2251.38
562.64	2254.33
563.00	2256.96
563.35	2260.35
563.71	2263.35
564.06	2266.49
564.42	2269.46
564.77	2272.17
565.12	2274.61
565.48	2276.67
565.83	2278.74
566.19	2280.12
566.54	2281.10
566.89	2282.34
567.25	2283.09
567.60	2284.28
567.96	2286.10
568.31	2286.91
568.66	2288.10
569.02	2288.67
569.37	2289.16
569.72	2290.36
570.08	2290.53
570.43	2290.44
570.78	2290.03
571.14	2288.57
571.49	2287.27
571.84	2286.78
572.20	2285.59
572.55	2284.55
572.90	2282.82
573.26	2281.50
573.61	2279.60
573.96	2278.01
574.31	2275.19
574.67	2272.26
575.02	2268.70
575.37	2265.20
575.72	2261.69
576.08	2258.41
576.43	2255.03
576.78	2251.53
577.13	2248.10
577.49	2244.83
577.84	2241.55
578.19	2237.76
578.54	2234.21
578.90	2230.22
579.25	2224.91
579.60	2220.20
579.95	2215.32
580.30	2210.54
580.66	2205.43
581.01	2200.61
581.36	2195.65
581.71	2191.71
582.06	2187.51
582.42	2183.29
582.77	2178.37
583.12	2173.86
583.47	2169.39
583.82	2164.68
584.17	2159.44
584.53	2154.22
584.88	2148.93
585.23	2143.40
585.58	2138.07
585.93	2132.77
586.28	2127.89
586.63	2122.91
586.98	2117.69
587.34	2112.88
587.69	2108.11
588.04	2103.08
588.39	2097.71
588.74	2091.28
589.09	2084.91
589.44	2078.14
589.79	2072.09
590.14	2066.37
590.49	2059.78
590.84	2053.24
591.19	2047.25
591.54	2040.88
591.89	2033.80
592.25	2027.11
592.60	2019.75
592.95	2012.36
593.30	2005.09
593.65	1997.60
594.00	1990.60
594.35	1983.45
594.70	1975.43
595.05	1968.49
595.40	1961.21
595.75	1953.68
596.10	1947.74
596.45	1941.15
596.80	1935.03
597.15	1928.54
597.50	1921.76
597.85	1915.41
598.19	1908.92
598.54	1902.12
598.89	1895.54
599.24	1889.58
599.59	1882.99
599.94	1876.85
600.29	1870.44
600.64	1863.85
600.99	1856.65
601.34	1849.93
601.69	1842.95
602.04	1836.36
602.39	1828.94
602.74	1822.13
603.08	1815.55
603.43	1808.77
603.78	1801.53
604.13	1794.44
604.48	1787.35
604.83	1780.43
605.18	1773.71
605.53	1765.85
605.87	1757.73
606.22	1750.45
606.57	1742.57
606.92	1735.12
607.27	1728.09
607.62	1721.40
607.96	1714.22
608.31	1707.81
608.66	1700.36
609.01	1693.08
609.36	1685.61
609.70	1677.67
610.05	1669.72
610.40	1662.06
610.75	1653.91
611.10	1646.40
611.44	1637.90
611.79	1629.75
612.14	1621.19
612.49	1612.00
612.83	1603.53
613.18	1595.42
613.53	1587.32
613.88	1578.88
614.22	1570.70
614.57	1562.02
614.92	1553.95
615.27	1546.52
615.61	1538.21
615.96	1530.05
616.31	1522.30
616.65	1514.89
617.00	1507.30
617.35	1499.58
617.70	1491.38
618.04	1482.83
618.39	1474.49
618.74	1466.93
619.08	1458.74
619.43	1451.07
619.78	1444.14
620.12	1437.06
620.47	1429.68
620.82	1421.58
621.16	1414.00
621.51	1406.37
621.85	1398.77
622.20	1390.27
622.55	1381.83
622.89	1373.84
623.24	1366.18
623.59	1358.67
623.93	1351.09
624.28	1343.89
624.62	1336.51
624.97	1329.21
625.32	1322.36
625.66	1315.39
626.01	1308.23
626.35	1300.92
626.70	1293.17
627.04	1285.38
627.39	1277.56
627.73	1270.03
628.08	1263.11
628.43	1256.06
628.77	1248.75
629.12	1241.39
629.46	1234.23
629.81	1226.71
630.15	1219.48
630.50	1212.11
630.84	1204.04
631.19	1196.12
631.53	1188.62
631.88	1180.97
632.22	1173.40
632.57	1166.05
632.91	1158.53
633.26	1151.14
633.60	1143.61
633.95	1136.46
634.29	1129.46
634.64	1122.80
634.98	1115.50
635.32	1108.44
635.67	1101.67
636.01	1094.95
636.36	1088.09
636.70	1081.50
637.05	1075.07
637.39	1068.61
637.73	1062.14
638.08	1056.28
638.42	1050.34
638.77	1043.91
639.11	1037.46
639.45	1031.16
639.80	1024.58
640.14	1018.27
640.49	1011.79
640.83	1005.60
641.17	999.47
641.52	993.25
641.86	986.76
642.20	980.95
642.55	974.54
642.89	968.19
643.23	961.59
643.58	955.90
643.92	949.74
644.26	943.77
644.61	937.72
644.95	931.78
645.29	925.34
645.64	918.63
645.98	912.26
646.32	906.19
646.66	900.10
647.01	894.38
647.35	888.66
647.69	882.77
648.04	877.16
648.38	871.32
648.72	865.34
649.06	859.31
649.41	853.32
649.75	847.46
650.09	841.52
650.43	835.90
650.78	829.68
651.12	823.77
651.46	818.00
651.80	812.39
652.14	806.93
652.49	801.46
652.83	796.21
653.17	790.58
653.51	785.10
653.85	779.67
654.20	774.11
654.54	768.08
654.88	762.34
655.22	756.42
655.56	750.75
655.90	745.22
656.25	740.06
656.59	734.68
656.93	729.50
657.27	724.33
657.61	718.81
657.95	713.72
658.29	708.66
658.64	703.25
658.98	697.86
659.32	692.45
659.66	687.25
660.00	682.08
660.34	677.11
660.68	672.03
661.02	667.01
661.36	662.20
661.70	657.70
662.05	653.37
662.39	649.12
662.73	644.67
663.07	640.34
663.41	635.88
663.75	631.47
664.09	626.92
664.43	622.52
664.77	618.50
665.11	614.30
665.45	610.12
665.79	606.11
666.13	602.03
666.47	597.85
666.81	593.75
667.15	589.49
667.49	585.57
667.83	581.78
668.17	577.91
668.51	573.85
668.85	569.82
669.19	565.97
669.53	562.08
669.87	558.26
670.21	554.51
670.55	550.87
670.89	547.46
671.23	544.00
671.57	540.42
671.91	536.86
672.25	533.32
672.58	529.84
672.92	526.49
673.26	523.32
673.60	520.17
673.94	517.06
674.28	514.22
674.62	511.29
674.96	508.20
675.30	505.25
675.64	502.35
675.97	499.54
676.31	496.69
676.65	493.83
676.99	491.11
677.33	488.29
677.67	485.48
678.01	482.46
678.34	479.50
678.68	476.68
679.02	473.86
679.36	471.01
679.70	468.26
680.04	465.57
680.37	462.72
680.71	459.91
681.05	457.26
681.39	454.58
681.73	451.95
682.06	449.42
682.40	446.90
682.74	444.38
683.08	441.86
683.42	439.24
683.75	436.73
684.09	434.14
684.43	431.64
684.77	429.16
685.10	426.80
685.44	424.55
685.78	422.26
686.12	419.97
686.45	417.73
686.79	415.45
687.13	413.18
687.46	410.99
687.80	408.83
688.14	406.60
688.48	404.54
688.81	402.32
689.15	400.19
689.49	398.02
689.82	395.86
690.16	393.74
690.50	391.81
690.83	389.81
691.17	387.84
691.51	385.89
691.84	384.04
692.18	382.14
692.52	380.15
692.85	378.18
693.19	376.34
693.52	374.50
693.86	372.73
694.20	370.96
694.53	369.19
694.87	367.32
695.21	365.50
695.54	363.59
695.88	361.82
696.21	360.08
696.55	358.40
696.88	356.73
697.22	355.00
697.56	353.30
697.89	351.66
698.23	350.03
698.56	348.48
698.90	346.86
699.23	345.22
699.57	343.65
699.90	342.10
700.24	340.51
700.58	338.97
700.91	337.42
701.25	335.95
701.58	334.52
701.92	333.17
702.25	331.84
702.59	330.51
702.92	329.22
703.26	327.87
703.59	326.61
703.93	325.43
704.26	324.26
704.60	323.00
704.93	321.75
705.26	320.50
705.60	319.30
705.93	318.13
706.27	317.07
706.60	316.00
706.94	314.97
707.27	313.82
707.61	312.74
707.94	311.73
708.27	310.60
708.61	309.55
708.94	308.54
709.28	307.53
709.61	306.57
709.94	305.60
710.28	304.57
710.61	303.56
710.95	302.46
711.28	301.55
711.61	300.61
711.95	299.69
712.28	298.78
712.61	297.82
712.95	296.89
713.28	295.99
713.61	295.10
713.95	294.18
714.28	293.37
714.61	292.55
714.95	291.70
715.28	290.89
715.61	290.06
715.95	289.20
716.28	288.41
716.61	287.54
716.95	286.73
717.28	286.03
717.61	285.29
717.94	284.60
718.28	283.79
718.61	283.04
718.94	282.35
719.27	281.71
719.61	281.04
719.94	280.42
720.27	279.73
720.60	279.11
720.94	278.53
721.27	277.94
721.60	277.34
721.93	276.75
722.27	276.21
722.60	275.61
722.93	275.06
723.26	274.50
723.59	273.97
723.93	273.40
724.26	272.83
724.59	272.25
724.92	271.71
725.25	271.25
725.59	270.75
725.92	270.25
726.25	269.72
726.58	269.27
726.91	268.76
727.24	268.32
727.57	267.83
727.91	267.29
728.24	266.82
728.57	266.35
728.90	265.91
729.23	265.39
729.56	264.99
729.89	264.52
730.22	264.01
730.55	263.53
730.89	263.13
731.22	262.69
731.55	262.25
731.88	261.81
732.21	261.36
732.54	260.89
732.87	260.46
733.20	260.06
733.53	259.63
733.86	259.23
734.19	258.79
734.52	258.40
734.85	258.12
735.18	257.69
735.51	257.27
735.84	256.89
736.17	256.53
736.50	256.09
736.83	255.84
737.16	255.49
737.49	255.15
737.82	254.76
738.15	254.41
738.48	254.07
738.81	253.79
739.14	253.47
739.47	253.16
739.80	252.85
740.13	252.54
740.46	252.18
740.79	251.83
741.12	251.50
741.45	251.18
741.78	250.82
742.11	250.52
742.44	250.21
742.77	249.90
743.10	249.63
743.43	249.32
743.75	248.92
744.08	248.78
744.41	248.49
744.74	248.24
745.07	247.94
745.40	247.69
745.73	247.40
746.06	247.09
746.39	246.80
746.71	246.52
747.04	246.24
747.37	246.02
747.70	245.79
748.03	245.52
748.36	245.30
748.68	245.04
749.01	244.82
749.34	244.62
749.67	244.39
750.00	244.12
750.33	243.94
750.65	243.79
750.98	243.44
751.31	243.25
751.64	243.05
751.97	242.91
752.29	242.67
752.62	242.43
752.95	242.21
753.28	242.02
753.60	241.82
753.93	241.65
754.26	241.42
754.59	241.19
754.91	241.05
755.24	240.83
755.57	240.65
755.90	240.46
756.22	240.28
756.55	240.10
756.88	239.92
757.20	239.72
757.53	239.52
757.86	239.38
758.19	239.21
758.51	239.02
758.84	238.82
759.17	238.68
759.49	238.51
759.82	238.43
760.15	238.33
760.47	238.20
760.80	238.03
761.13	237.90
761.45	237.75
761.78	237.61
762.11	237.48
762.43	237.32
762.76	237.17
763.08	237.01
763.41	236.90
763.74	236.78
764.06	236.63
764.39	236.49
764.71	236.34
765.04	236.21
765.37	236.08
765.69	235.95
766.02	235.84
766.34	235.73
766.67	235.58
767.00	235.45
767.32	235.37
767.65	235.31
767.97	235.20
768.30	235.12
768.62	234.99
768.95	234.88
769.27	234.77
769.60	234.70
769.92	234.61
770.25	234.50
770.57	234.40
770.90	234.36
771.22	234.26
771.55	234.18
771.87	234.08
772.20	233.97
772.52	233.96
772.85	234.00
773.17	233.91
773.50	233.79
773.82	233.69
774.15	233.56
774.47	233.41
774.80	233.31
775.12	233.24
775.45	233.12
775.77	233.06
776.09	232.99
776.42	232.91
776.74	232.83
777.07	232.75
777.39	232.63
777.72	232.50
778.04	232.43
778.36	232.32
778.69	232.27
779.01	232.20
779.33	232.03
779.66	231.84
779.98	231.75
780.31	231.70
780.63	231.68
780.95	231.59
781.28	231.52
781.60	231.45
781.92	231.36
782.25	231.33
782.57	231.25
782.89	231.16
783.22	231.09
783.54	231.00
783.86	230.94
784.19	230.89
784.51	230.87
784.83	230.81
785.16	230.76
785.48	230.68
785.80	230.61
786.12	230.56
786.45	230.50
786.77	230.47
787.09	230.40
787.42	230.32
787.74	230.30
788.06	230.25
788.38	230.19
788.71	230.15
789.03	230.12
789.35	230.06
789.67	230.00
789.99	229.96
790.32	229.93
790.64	229.88
790.96	229.93
791.28	229.86
791.61	229.75
791.93	229.72
792.25	229.68
792.57	229.72
792.89	229.71
793.21	229.66
793.54	229.61
793.86	229.55
794.18	229.51
794.50	229.44
794.82	229.42
795.14	229.40
795.47	229.39
795.79	229.36
796.11	229.31
796.43	229.28
796.75	229.24
797.07	229.21
797.39	229.18
797.71	229.08
798.04	229.06
798.36	229.06
798.68	229.03
799.00	229.03
799.32	228.94
799.64	228.92
799.96	228.88
800.28	228.87
800.60	228.88
800.92	228.83
801.24	228.80
801.56	228.78
801.89	228.75
802.21	228.70
802.53	228.65
802.85	228.65
803.17	228.69
803.49	228.66
803.81	228.62
804.13	228.61
804.45	228.59
804.77	228.57
805.09	228.57
805.41	228.53
805.73	228.51
806.05	228.47
806.37	228.41
806.69	228.39
807.01	228.35
807.33	228.32
807.65	228.28
807.97	228.31
808.28	228.27
808.60	228.24
808.92	228.23
809.24	228.31
809.56	228.27
809.88	228.22
810.20	228.18
810.52	228.18
810.84	228.12
811.16	228.06
811.48	228.05
811.80	228.06
812.12	228.04
812.43	228.01
812.75	228.00
813.07	227.97
813.39	227.93
813.71	227.91
814.03	227.90
814.35	227.90
814.67	227.83
814.98	227.80
815.30	227.78
815.62	227.73
815.94	227.63
816.26	227.66
816.58	227.64
816.89	227.62
817.21	227.59
817.53	227.60
817.85	227.58
818.17	227.57
818.48	227.51
818.80	227.50
819.12	227.47
819.44	227.45
819.76	227.44
820.07	227.44
820.39	227.44
820.71	227.40
821.03	227.39
821.34	227.35
821.66	227.36
821.98	227.33
822.30	227.33
822.61	227.34
822.93	227.25
823.25	227.26
823.57	227.22
823.88	227.24
824.20	227.20
824.52	227.20
824.83	227.14
825.15	227.12
825.47	227.11
825.79	227.12
826.10	227.09
826.42	227.08
826.74	227.06
827.05	227.01
827.37	227.03
827.69	227.01
828.00	227.03
828.32	227.02
828.64	227.02
828.95	227.04
829.27	227.02
829.58	227.03
829.90	226.98
830.22	226.98
830.53	226.91
830.85	226.91
831.17	226.88
831.48	226.87
831.80	226.83
832.11	226.82
832.43	226.80
832.75	226.78
833.06	226.82
833.38	226.77
833.69	226.78
834.01	226.76
834.32	226.74
834.64	226.70
834.96	226.69
835.27	226.66
835.59	226.63
835.90	226.59
836.22	226.60
836.53	226.61
836.85	226.61
837.16	226.72
837.48	226.71
837.79	226.74
838.11	226.76
838.42	226.78
838.74	226.77
839.05	226.75
839.37	226.72
839.68	226.68
840.00	226.69
840.31	226.73
840.63	226.72
840.94	226.72
841.26	226.76
841.57	226.76
841.88	226.79
842.20	226.76
842.51	226.78
842.83	226.77
843.14	226.84
843.46	226.83
843.77	226.79
844.08	226.77
844.40	226.75
844.71	226.74
845.03	226.73
845.34	226.75
845.65	226.74
845.97	226.78
846.28	226.80
846.60	226.82
846.91	226.78
847.22	226.79
847.54	226.77
847.85	226.74
848.16	226.70
848.48	226.67
848.79	226.72
849.10	226.72
849.42	226.70
849.73	226.60
850.04	226.59
850.36	226.54
850.67	226.55
850.98	226.55
851.30	226.55
851.61	226.53
851.92	226.48
852.23	226.51
852.55	226.50
852.86	226.49
853.17	226.48
853.49	226.50
853.80	226.48
854.11	226.50
854.42	226.51
854.74	226.50
855.05	226.50
855.36	226.45
855.67	226.42
855.99	226.44
856.30	226.51
856.61	226.49
856.92	226.45
857.23	226.45
857.55	226.42
857.86	226.41
858.17	226.41
858.48	226.43
858.79	226.38
859.11	226.38
859.42	226.33
859.73	226.31
860.04	226.25
860.35	226.23
860.66	226.19
860.98	226.14
861.29	226.13
861.60	226.13
861.91	226.12
862.22	226.08
862.53	226.03
862.84	225.93
863.16	225.95
863.47	225.95
863.78	225.93
864.09	225.94
864.40	225.91
864.71	225.93
865.02	225.89
865.33	225.86
865.64	225.84
865.95	225.85
866.27	225.89
866.58	225.92
866.89	225.94
867.20	225.92
867.51	225.94
867.82	225.93
868.13	225.93
868.44	225.90
868.75	225.94
869.06	225.96
869.37	225.96
869.68	225.93
869.99	225.94
870.30	225.94
870.61	225.95
870.92	225.95
871.23	225.96
871.54	225.97
871.85	226.01
872.16	226.01
872.47	226.03
872.78	226.01
873.09	225.98
873.40	225.96
873.71	225.98
874.02	225.99
874.33	226.00
874.64	226.01
874.95	226.03
875.26	226.00
875.56	225.98
875.87	226.02
876.18	226.02
876.49	226.11
876.80	226.10
877.11	226.07
877.42	226.10
877.73	226.09
878.04	226.10
878.35	226.10
878.66	226.11
878.96	226.12
879.27	226.09
879.58	226.10
879.89	226.11
880.20	226.17
880.51	226.15
880.82	226.15
881.12	226.16
881.43	226.15
881.74	226.18
882.05	226.18
882.36	226.16
882.67	226.18
882.97	226.08
883.28	226.08
883.59	226.11
883.90	226.11
884.21	226.14
884.51	226.15
884.82	226.15
885.13	226.16
885.44	226.17
885.74	226.16
886.05	226.17
886.36	226.17
886.67	226.13
886.98	226.19
887.28	226.20
887.59	226.17
887.90	226.18
888.20	226.15
888.51	226.18
888.82	226.16
889.13	226.12
889.43	226.21
889.74	226.21
890.05	226.21
890.35	226.17
890.66	226.14
890.97	226.12
891.28	226.09
891.58	226.05
891.89	226.04
892.20	226.03
892.50	226.01
892.81	225.98
893.12	225.93
893.42	225.89
893.73	225.86
894.04	225.87
894.34	225.86
894.65	225.89
894.95	225.88
895.26	225.86
895.57	225.94
895.87	225.80
896.18	225.78
896.48	225.76
896.79	225.77
897.10	225.77
897.40	225.78
897.71	225.76
898.01	225.77
898.32	225.75
898.63	225.75
898.93	225.79
899.24	225.79
899.54	225.79
899.85	225.78
900.15	225.79
900.46	225.78
900.76	225.76
901.07	225.72
901.38	225.70
901.68	225.72
901.99	225.63
902.29	225.64
902.60	225.65
902.90	225.63
903.21	225.61
903.51	225.61
903.82	225.59
904.12	225.58
904.43	225.60
904.73	225.59
905.03	225.64
905.34	225.71
905.64	225.69
905.95	225.71
906.25	225.69
906.56	225.67
906.86	225.69
907.17	225.67
907.47	225.70
907.77	225.72
908.08	225.72
908.38	225.73
908.69	225.73
908.99	225.75
909.30	225.75
909.60	225.77
909.90	225.77
910.21	225.74
910.51	225.77
910.81	225.76
911.12	225.79
911.42	225.75
911.73	225.65
912.03	225.68
912.33	225.70
912.64	225.75
912.94	225.74
913.24	225.71
913.55	225.72
913.85	225.71
914.15	225.73
914.46	225.76
914.76	225.76
915.06	225.79
915.37	225.78
915.67	225.79
915.97	225.81
916.27	225.81
916.58	225.86
916.88	225.83
917.18	225.82
917.49	225.87
917.79	225.88
918.09	225.88
918.39	225.93
918.70	225.94
919.00	225.95
919.30	226.02
919.60	226.05
919.91	226.05
920.21	226.05
920.51	226.00
920.81	226.03
921.12	226.07
921.42	226.08
921.72	226.11
922.02	226.12
922.32	226.13
922.63	226.13
922.93	226.14
923.23	226.17
923.53	226.16
923.83	226.10
924.13	226.14
924.44	226.16
924.74	226.16
925.04	226.17
925.34	226.15
925.64	226.10
925.94	226.06
926.24	226.15
926.55	226.16
926.85	226.19
927.15	226.16
927.45	226.16
927.75	226.12
928.05	226.12
928.35	226.06
928.65	226.07
928.95	226.07
929.26	226.07
929.56	226.07
929.86	226.08
930.16	226.05
930.46	225.98
930.76	225.96
931.06	225.89
931.36	225.83
931.66	225.81
931.96	225.82
932.26	225.81
932.56	225.72
932.86	225.70
933.16	225.69
933.46	225.66
933.76	225.63
934.06	225.65
934.36	225.68
934.66	225.68
934.96	225.65
935.26	225.64
935.56	225.63
935.86	225.62
936.16	225.61
936.46	225.61
936.76	225.64
937.06	225.60
937.36	225.62
937.66	225.65
937.96	225.66
938.26	225.64
938.56	225.63
938.86	225.63
939.16	225.64
939.46	225.64
939.76	225.65
940.06	225.62
940.35	225.59
940.65	225.53
940.95	225.54
941.25	225.52
941.55	225.47
941.85	225.47
942.15	225.47
942.45	225.50
942.75	225.49
943.04	225.48
943.34	225.51
943.64	225.47
943.94	225.43
944.24	225.42
944.54	225.40
944.84	225.40
945.13	225.43
945.43	225.42
945.73	225.41
946.03	225.41
946.33	225.41
946.62	225.40
946.92	225.43
947.22	225.44
947.52	225.42
947.82	225.47
948.11	225.48
948.41	225.45
948.71	225.43
949.01	225.43
949.31	225.44
949.60	225.46
949.90	225.51
950.20	225.54
950.50	225.57
950.79	225.60
951.09	225.63
951.39	225.65
951.69	225.66
951.98	225.68
952.28	225.71
952.58	225.72
952.87	225.76
953.17	225.76
953.47	225.77
953.76	225.79
954.06	225.79
954.36	225.76
954.66	225.76
954.95	225.76
955.25	225.76
955.55	225.80
955.84	225.75
956.14	225.78
956.44	225.78
956.73	225.75
957.03	225.76
957.32	225.71
957.62	225.70
957.92	225.73
958.21	225.71
958.51	225.78
958.81	225.80
959.10	225.79
959.40	225.80
959.69	225.81
959.99	225.84
960.29	225.83
960.58	225.83
960.88	225.88
961.17	225.87
961.47	225.89
961.76	225.84
962.06	225.88
962.36	225.86
962.65	225.83
962.95	225.88
963.24	225.85
963.54	225.89
963.83	225.88
964.13	225.84
964.42	225.83
964.72	225.80
965.01	225.79
965.31	225.76
965.60	225.73
965.90	225.79
966.19	225.75
966.49	225.75
966.78	225.75
967.08	225.73
967.37	225.73
967.67	225.74
967.96	225.74
968.26	225.73
968.55	225.72
968.85	225.71
969.14	225.67
969.43	225.65
969.73	225.64
970.02	225.63
970.32	225.63
970.61	225.65
970.91	225.56
971.20	225.51
971.49	225.53
971.79	225.52
972.08	225.46
972.38	225.47
972.67	225.42
972.96	225.40
973.26	225.36
973.55	225.39
973.85	225.34
974.14	225.32
974.43	225.31
974.73	225.27
975.02	225.25
975.31	225.21
975.61	225.26
975.90	225.20
976.19	225.18
976.49	225.17
976.78	225.16
977.07	225.20
977.37	225.22
977.66	225.21
977.95	225.19
978.24	225.20
978.54	225.20
978.83	225.25
979.12	225.23
979.42	225.24
979.71	225.21
980.00	225.23
980.29	225.24
980.59	225.23
980.88	225.25
981.17	225.25
981.46	225.26
981.76	225.22
982.05	225.27
982.34	225.29
982.63	225.32
982.93	225.29
983.22	225.29
983.51	225.30
983.80	225.33
984.09	225.37
984.39	225.34
984.68	225.37
984.97	225.36
985.26	225.40
985.55	225.43
985.85	225.41
986.14	225.43
986.43	225.44
986.72	225.47
987.01	225.47
987.30	225.49
987.59	225.52
987.89	225.54
988.18	225.53
988.47	225.54
988.76	225.51
989.05	225.56
989.34	225.55
989.63	225.60
989.92	225.60
990.22	225.60
990.51	225.64
990.80	225.61
991.09	225.67
991.38	225.72
991.67	225.69
991.96	225.74
992.25	225.77
992.54	225.79
992.83	225.83
993.12	225.85
993.41	225.87
993.70	225.95
993.99	226.00
994.28	226.03
994.58	226.06
994.87	226.08
995.16	226.09
995.45	226.11
995.74	226.08
996.03	226.08
996.32	226.10
996.61	226.09
996.90	226.12
997.19	226.10
997.48	226.09
997.77	226.09
998.06	226.09
998.34	226.08
998.63	226.07
998.92	226.03
999.21	226.03
999.50	226.05
999.79	225.98
1000.08	225.95
1000.37	225.93
1000.66	225.93
1000.95	225.94
1001.24	225.92
1001.53	225.91
1001.82	225.90
1002.11	225.85
1002.40	225.86
1002.68	225.85
1002.97	225.88
1003.26	225.83
1003.55	225.76
1003.84	225.75
1004.13	225.75
1004.42	225.73
1004.71	225.70
1004.99	225.65
1005.28	225.67
1005.57	225.66
1005.86	225.64
1006.15	225.60
1006.44	225.57
1006.72	225.49
1007.01	225.47
1007.30	225.48
1007.59	225.49
1007.88	225.45
1008.17	225.42
1008.45	225.37
1008.74	225.36
1009.03	225.30
1009.32	225.32
1009.60	225.32
1009.89	225.31
1010.18	225.28
1010.47	225.24
1010.76	225.27
1011.04	225.29
1011.33	225.28
1011.62	225.26
1011.91	225.28
1012.19	225.31
1012.48	225.34
1012.77	225.38
1013.05	225.42
1013.34	225.41
1013.63	225.40
1013.92	225.42
1014.20	225.46
1014.49	225.46
1014.78	225.48
1015.06	225.44
1015.35	225.43
1015.64	225.46
1015.92	225.46
1016.21	225.48
1016.50	225.50
1016.78	225.50
1017.07	225.52
1017.36	225.50
1017.64	225.51
1017.93	225.49
1018.22	225.46
1018.50	225.45
1018.79	225.44
1019.08	225.39
1019.36	225.38
1019.65	225.37
1019.93	225.40
1020.22	225.39
1020.51	225.43
1020.79	225.42
1021.08	225.24
1021.36	225.27
1021.65	225.15
1021.94	225.46
1022.22	225.52
1022.51	225.01
1022.79	225.87
1023.08	225.25
1023.36	226.24
1023.65	225.55
>>>>>End Processed Spectral Data<<<<<
