SpectraSuite Data File
++++++++++++++++++++++++++++++++++++
Date: Fri Feb 01 17:48:12 EST 2013
User: group
Dark Spectrum Present: No
Reference Spectrum Present: No
Number of Sampled Component Spectra: 1
Spectrometers: USB2E7196
Integration Time (usec): 35000 (USB2E7196)
Spectra Averaged: 100 (USB2E7196)
Boxcar Smoothing: 10 (USB2E7196)
Correct for Electrical Dark: No (USB2E7196)
Strobe/Lamp Enabled: No (USB2E7196)
Correct for Detector Non-linearity: No (USB2E7196)
Correct for Stray Light: No (USB2E7196)
Number of Pixels in Processed Spectrum: 2048
>>>>>Begin Processed Spectral Data<<<<<
339.09	0.00
339.48	212.71
339.86	213.74
340.24	214.99
340.63	216.84
341.01	220.02
341.39	219.16
341.78	220.89
342.16	221.88
342.54	222.81
342.93	210.89
343.31	221.53
343.69	222.06
344.07	222.53
344.46	222.97
344.84	223.34
345.22	223.56
345.60	223.81
345.99	223.97
346.37	224.09
346.75	224.18
347.13	224.25
347.52	224.29
347.90	224.35
348.28	224.38
348.66	224.45
349.05	224.46
349.43	224.52
349.81	224.57
350.19	224.64
350.57	224.69
350.96	224.76
351.34	224.86
351.72	224.95
352.10	225.04
352.48	225.09
352.87	225.15
353.25	225.20
353.63	225.27
354.01	225.35
354.39	225.46
354.77	225.54
355.15	225.62
355.54	225.72
355.92	225.76
356.30	225.81
356.68	225.95
357.06	226.03
357.44	226.10
357.82	226.16
358.20	226.25
358.58	226.29
358.97	226.40
359.35	226.52
359.73	226.60
360.11	226.67
360.49	226.77
360.87	226.82
361.25	226.87
361.63	226.98
362.01	227.05
362.39	227.08
362.77	227.13
363.15	227.18
363.53	227.21
363.91	227.25
364.29	227.35
364.67	227.26
365.05	227.31
365.43	227.32
365.81	227.35
366.19	227.43
366.57	227.51
366.95	227.50
367.33	227.47
367.71	227.47
368.09	227.51
368.47	227.50
368.85	227.50
369.23	227.52
369.61	227.46
369.99	227.45
370.37	227.47
370.75	227.49
371.13	227.44
371.51	227.43
371.89	227.39
372.27	227.32
372.65	227.30
373.03	227.23
373.41	227.17
373.78	227.12
374.16	227.01
374.54	226.92
374.92	226.89
375.30	226.84
375.68	226.74
376.06	226.68
376.44	226.61
376.82	226.56
377.19	226.47
377.57	226.40
377.95	226.31
378.33	226.22
378.71	226.08
379.09	226.01
379.47	225.95
379.84	225.88
380.22	225.82
380.60	225.74
380.98	225.70
381.36	225.65
381.73	225.58
382.11	225.50
382.49	225.45
382.87	225.32
383.25	225.23
383.62	225.30
384.00	225.23
384.38	225.18
384.76	225.14
385.13	225.14
385.51	225.11
385.89	225.04
386.27	224.97
386.64	224.93
387.02	224.88
387.40	224.81
387.78	224.79
388.15	224.75
388.53	224.72
388.91	224.66
389.29	224.64
389.66	224.63
390.04	224.58
390.42	224.57
390.79	224.59
391.17	224.59
391.55	224.42
391.92	224.39
392.30	224.40
392.68	224.36
393.05	224.35
393.43	224.35
393.81	224.38
394.18	224.39
394.56	224.41
394.94	224.46
395.31	224.46
395.69	224.50
396.06	224.54
396.44	224.58
396.82	224.62
397.19	224.69
397.57	224.71
397.95	224.81
398.32	224.83
398.70	224.87
399.07	224.92
399.45	225.00
399.82	225.10
400.20	225.17
400.58	225.25
400.95	225.31
401.33	225.43
401.70	225.58
402.08	225.70
402.45	225.81
402.83	225.94
403.20	226.05
403.58	226.14
403.95	226.29
404.33	226.42
404.71	226.55
405.08	226.74
405.46	226.88
405.83	227.02
406.21	227.20
406.58	227.43
406.96	227.64
407.33	227.82
407.70	228.05
408.08	228.35
408.45	228.63
408.83	228.95
409.20	229.16
409.58	229.37
409.95	229.68
410.33	230.00
410.70	230.27
411.08	230.63
411.45	231.05
411.82	231.42
412.20	231.83
412.57	232.35
412.95	232.72
413.32	233.29
413.69	233.81
414.07	234.39
414.44	234.98
414.82	235.60
415.19	236.32
415.56	237.00
415.94	237.72
416.31	238.49
416.68	239.24
417.06	240.17
417.43	241.07
417.81	242.02
418.18	243.04
418.55	244.14
418.93	245.25
419.30	246.36
419.67	247.55
420.04	248.79
420.42	250.05
420.79	251.55
421.16	253.00
421.54	254.52
421.91	256.05
422.28	257.64
422.66	259.32
423.03	261.01
423.40	262.74
423.77	264.48
424.15	266.34
424.52	268.24
424.89	270.29
425.26	272.28
425.64	274.13
426.01	276.16
426.38	278.31
426.75	280.45
427.13	282.72
427.50	285.09
427.87	287.56
428.24	289.96
428.61	292.22
428.99	294.72
429.36	297.43
429.73	300.09
430.10	302.69
430.47	305.34
430.85	308.08
431.22	310.97
431.59	314.05
431.96	316.96
432.33	320.22
432.70	323.26
433.08	326.90
433.45	330.33
433.82	333.72
434.19	337.41
434.56	341.01
434.93	344.41
435.30	347.76
435.68	351.45
436.05	355.15
436.42	358.76
436.79	361.98
437.16	365.43
437.53	369.10
437.90	372.71
438.27	376.28
438.64	379.94
439.01	383.26
439.38	386.18
439.75	388.98
440.13	392.20
440.50	395.27
440.87	397.67
441.24	400.22
441.61	403.01
441.98	404.98
442.35	407.39
442.72	409.78
443.09	412.13
443.46	413.44
443.83	414.17
444.20	414.83
444.57	415.96
444.94	416.39
445.31	416.88
445.68	417.36
446.05	417.48
446.42	416.98
446.79	416.46
447.16	415.95
447.53	415.57
447.90	414.06
448.27	412.56
448.64	410.51
449.01	409.04
449.37	406.51
449.74	404.07
450.11	401.15
450.48	398.04
450.85	394.79
451.22	392.05
451.59	389.47
451.96	386.95
452.33	383.62
452.70	380.56
453.07	376.87
453.43	373.16
453.80	369.60
454.17	366.13
454.54	362.86
454.91	359.31
455.28	355.82
455.65	352.63
456.02	349.44
456.38	346.64
456.75	343.13
457.12	340.20
457.49	337.35
457.86	334.53
458.23	332.06
458.59	329.42
458.96	326.64
459.33	324.20
459.70	321.81
460.07	319.87
460.43	317.66
460.80	315.54
461.17	313.67
461.54	311.70
461.91	309.88
462.27	308.01
462.64	306.40
463.01	304.69
463.38	302.96
463.74	301.25
464.11	299.78
464.48	298.50
464.85	297.07
465.21	295.91
465.58	294.70
465.95	293.30
466.32	292.12
466.68	290.98
467.05	289.84
467.42	288.66
467.78	287.42
468.15	286.21
468.52	285.35
468.88	284.25
469.25	283.26
469.62	282.43
469.98	281.54
470.35	280.72
470.72	279.91
471.08	279.05
471.45	278.29
471.82	277.52
472.18	276.74
472.55	276.17
472.92	275.50
473.28	274.87
473.65	274.27
474.02	273.67
474.38	273.14
474.75	272.69
475.11	272.21
475.48	271.86
475.85	271.55
476.21	271.17
476.58	270.88
476.94	270.66
477.31	270.37
477.67	270.12
478.04	269.88
478.41	269.71
478.77	269.70
479.14	269.58
479.50	269.54
479.87	269.55
480.23	269.55
480.60	269.55
480.96	269.58
481.33	269.74
481.69	269.88
482.06	270.04
482.42	270.17
482.79	270.44
483.15	270.69
483.52	271.03
483.88	271.38
484.25	271.75
484.61	272.14
484.98	272.59
485.34	273.11
485.71	273.74
486.07	274.35
486.44	274.88
486.80	275.58
487.17	276.32
487.53	277.13
487.90	277.97
488.26	278.93
488.62	279.97
488.99	280.95
489.35	282.01
489.72	283.16
490.08	284.44
490.44	285.69
490.81	287.04
491.17	288.48
491.54	290.04
491.90	291.63
492.26	293.34
492.63	295.10
492.99	296.98
493.36	298.97
493.72	301.08
494.08	303.28
494.45	305.65
494.81	308.10
495.17	310.64
495.54	313.34
495.90	316.13
496.26	319.07
496.63	322.16
496.99	325.45
497.35	328.86
497.72	332.42
498.08	336.10
498.44	340.00
498.80	344.07
499.17	348.30
499.53	352.67
499.89	357.18
500.26	361.93
500.62	366.82
500.98	372.00
501.34	377.34
501.71	382.90
502.07	388.64
502.43	394.56
502.79	400.71
503.16	407.03
503.52	413.65
503.88	420.36
504.24	427.30
504.60	434.50
504.97	442.02
505.33	449.70
505.69	457.81
506.05	466.03
506.41	474.38
506.78	482.92
507.14	491.75
507.50	500.97
507.86	510.48
508.22	520.13
508.59	529.78
508.95	539.86
509.31	550.27
509.67	560.84
510.03	571.66
510.39	582.72
510.75	594.10
511.12	605.58
511.48	617.53
511.84	629.67
512.20	641.86
512.56	654.47
512.92	667.31
513.28	680.41
513.64	693.50
514.00	706.92
514.37	720.69
514.73	734.58
515.09	748.31
515.45	762.47
515.81	776.96
516.17	791.82
516.53	806.80
516.89	821.92
517.25	837.16
517.61	852.54
517.97	868.05
518.33	883.51
518.69	899.22
519.05	915.23
519.41	931.37
519.77	948.02
520.13	964.58
520.49	981.13
520.85	997.51
521.21	1014.24
521.57	1031.67
521.93	1048.46
522.29	1066.12
522.65	1083.64
523.01	1100.98
523.37	1118.30
523.73	1135.75
524.09	1153.12
524.45	1170.62
524.81	1188.48
525.17	1206.48
525.53	1224.65
525.89	1242.87
526.25	1261.15
526.61	1278.82
526.97	1296.97
527.33	1314.81
527.68	1332.77
528.04	1350.66
528.40	1368.60
528.76	1387.31
529.12	1405.29
529.48	1423.80
529.84	1441.26
530.20	1459.53
530.56	1478.05
530.91	1497.06
531.27	1515.46
531.63	1533.51
531.99	1551.64
532.35	1569.23
532.71	1586.95
533.07	1604.81
533.42	1622.44
533.78	1640.30
534.14	1658.30
534.50	1675.50
534.86	1693.11
535.21	1709.98
535.57	1727.71
535.93	1745.10
536.29	1761.55
536.65	1778.47
537.00	1794.90
537.36	1812.01
537.72	1828.13
538.08	1844.49
538.44	1859.94
538.79	1875.59
539.15	1891.06
539.51	1906.74
539.87	1922.90
540.22	1938.29
540.58	1953.98
540.94	1969.12
541.29	1983.68
541.65	1998.18
542.01	2013.24
542.37	2027.43
542.72	2041.76
543.08	2055.33
543.44	2069.68
543.79	2082.90
544.15	2095.66
544.51	2109.19
544.87	2122.07
545.22	2135.00
545.58	2147.02
545.94	2158.65
546.29	2170.33
546.65	2182.09
547.01	2193.15
547.36	2203.66
547.72	2213.88
548.07	2223.48
548.43	2233.27
548.79	2242.98
549.14	2252.36
549.50	2261.26
549.86	2270.58
550.21	2279.60
550.57	2288.53
550.92	2296.83
551.28	2305.50
551.64	2314.32
551.99	2322.44
552.35	2330.15
552.70	2337.82
553.06	2345.42
553.41	2353.44
553.77	2360.93
554.13	2368.65
554.48	2376.41
554.84	2383.58
555.19	2390.33
555.55	2397.01
555.90	2403.03
556.26	2409.61
556.61	2415.87
556.97	2421.67
557.32	2427.35
557.68	2432.84
558.03	2438.46
558.39	2443.41
558.74	2449.43
559.10	2454.63
559.45	2459.61
559.81	2465.03
560.16	2470.25
560.52	2474.77
560.87	2479.29
561.23	2483.25
561.58	2487.26
561.94	2490.95
562.29	2494.21
562.64	2498.52
563.00	2502.17
563.35	2506.92
563.71	2510.99
564.06	2515.25
564.42	2519.28
564.77	2522.86
565.12	2526.33
565.48	2529.39
565.83	2532.25
566.19	2534.76
566.54	2536.48
566.89	2538.64
567.25	2540.31
567.60	2542.39
567.96	2545.07
568.31	2546.93
568.66	2549.07
569.02	2550.49
569.37	2551.61
569.72	2553.26
570.08	2554.00
570.43	2554.74
570.78	2554.82
571.14	2553.97
571.49	2553.16
571.84	2553.41
572.20	2552.84
572.55	2552.35
572.90	2551.20
573.26	2550.40
573.61	2548.97
573.96	2547.92
574.31	2545.20
574.67	2542.59
575.02	2539.14
575.37	2535.92
575.72	2532.14
576.08	2528.74
576.43	2525.54
576.78	2521.98
577.13	2518.88
577.49	2515.66
577.84	2512.37
578.19	2508.57
578.54	2505.14
578.90	2500.95
579.25	2495.20
579.60	2490.11
579.95	2484.80
580.30	2479.47
580.66	2474.09
581.01	2468.77
581.36	2463.50
581.71	2459.23
582.06	2454.55
582.42	2449.97
582.77	2444.42
583.12	2439.65
583.47	2434.73
583.82	2429.55
584.17	2423.97
584.53	2418.27
584.88	2412.36
585.23	2406.14
585.58	2400.27
585.93	2394.28
586.28	2388.91
586.63	2383.60
586.98	2378.14
587.34	2373.09
587.69	2367.89
588.04	2362.25
588.39	2356.29
588.74	2349.22
589.09	2342.61
589.44	2335.23
589.79	2328.57
590.14	2322.38
590.49	2315.22
590.84	2308.33
591.19	2301.65
591.54	2294.58
591.89	2286.64
592.25	2279.22
592.60	2271.35
592.95	2263.12
593.30	2255.06
593.65	2246.74
594.00	2238.93
594.35	2230.81
594.70	2221.85
595.05	2213.97
595.40	2205.80
595.75	2197.39
596.10	2190.53
596.45	2183.08
596.80	2176.17
597.15	2168.86
597.50	2161.06
597.85	2153.80
598.19	2146.36
598.54	2138.52
598.89	2131.12
599.24	2124.45
599.59	2117.13
599.94	2110.15
600.29	2103.08
600.64	2095.60
600.99	2087.40
601.34	2079.57
601.69	2071.66
602.04	2064.02
602.39	2055.54
602.74	2047.80
603.08	2040.29
603.43	2032.58
603.78	2024.23
604.13	2016.15
604.48	2007.99
604.83	2000.19
605.18	1992.58
605.53	1983.47
605.87	1974.36
606.22	1966.08
606.57	1956.93
606.92	1948.28
607.27	1940.06
607.62	1932.05
607.96	1923.78
608.31	1916.26
608.66	1907.63
609.01	1899.12
609.36	1890.39
609.70	1881.46
610.05	1872.32
610.40	1863.49
610.75	1854.11
611.10	1845.43
611.44	1835.61
611.79	1826.28
612.14	1816.34
612.49	1805.57
612.83	1795.97
613.18	1786.54
613.53	1777.21
613.88	1767.47
614.22	1758.04
614.57	1748.11
614.92	1739.05
615.27	1730.46
615.61	1720.95
615.96	1711.83
616.31	1703.02
616.65	1694.58
617.00	1685.82
617.35	1677.00
617.70	1667.39
618.04	1657.55
618.39	1648.02
618.74	1639.39
619.08	1629.89
619.43	1621.14
619.78	1613.22
620.12	1604.97
620.47	1596.40
620.82	1586.96
621.16	1578.37
621.51	1569.54
621.85	1560.80
622.20	1551.00
622.55	1541.32
622.89	1532.28
623.24	1523.35
623.59	1514.82
623.93	1506.23
624.28	1497.91
624.62	1489.32
624.97	1480.99
625.32	1473.11
625.66	1464.93
626.01	1456.75
626.35	1448.41
626.70	1439.51
627.04	1430.72
627.39	1421.77
627.73	1413.21
628.08	1405.31
628.43	1397.08
628.77	1388.81
629.12	1380.18
629.46	1371.86
629.81	1363.15
630.15	1354.70
630.50	1346.26
630.84	1336.87
631.19	1327.71
631.53	1319.04
631.88	1310.27
632.22	1301.75
632.57	1293.39
632.91	1284.75
633.26	1276.33
633.60	1267.67
633.95	1259.49
634.29	1251.38
634.64	1243.67
634.98	1235.35
635.32	1227.20
635.67	1219.48
636.01	1211.81
636.36	1204.09
636.70	1196.55
637.05	1189.17
637.39	1181.81
637.73	1174.44
638.08	1167.72
638.42	1160.96
638.77	1153.61
639.11	1146.20
639.45	1138.82
639.80	1131.28
640.14	1124.02
640.49	1116.54
640.83	1109.38
641.17	1102.28
641.52	1095.00
641.86	1087.68
642.20	1080.97
642.55	1073.70
642.89	1066.48
643.23	1058.94
643.58	1052.26
643.92	1045.34
644.26	1038.54
644.61	1031.59
644.95	1024.82
645.29	1017.42
645.64	1009.70
645.98	1002.47
646.32	995.68
646.66	988.83
647.01	982.25
647.35	975.73
647.69	969.03
648.04	962.81
648.38	956.27
648.72	949.55
649.06	942.70
649.41	936.01
649.75	929.32
650.09	922.55
650.43	915.98
650.78	909.07
651.12	902.30
651.46	895.76
651.80	889.31
652.14	883.06
652.49	876.95
652.83	871.17
653.17	864.84
653.51	858.44
653.85	852.29
654.20	845.94
654.54	839.16
654.88	832.57
655.22	825.86
655.56	819.46
655.90	813.25
656.25	807.34
656.59	801.23
656.93	795.42
657.27	789.56
657.61	783.49
657.95	777.69
658.29	771.95
658.64	765.97
658.98	759.94
659.32	753.80
659.66	747.90
660.00	741.85
660.34	736.18
660.68	730.54
661.02	724.84
661.36	719.48
661.70	714.38
662.05	709.47
662.39	704.54
662.73	699.41
663.07	694.44
663.41	689.40
663.75	684.38
664.09	679.25
664.43	674.25
664.77	669.57
665.11	664.78
665.45	660.09
665.79	655.54
666.13	650.90
666.47	646.25
666.81	641.51
667.15	636.81
667.49	632.36
667.83	628.08
668.17	623.69
668.51	619.12
668.85	614.52
669.19	610.10
669.53	605.83
669.87	601.47
670.21	597.27
670.55	593.13
670.89	589.15
671.23	585.30
671.57	581.31
671.91	577.36
672.25	573.36
672.58	569.31
672.92	565.40
673.26	561.82
673.60	558.29
673.94	554.80
674.28	551.53
674.62	548.29
674.96	544.82
675.30	541.50
675.64	538.20
675.97	535.06
676.31	531.88
676.65	528.57
676.99	525.53
677.33	522.32
677.67	519.16
678.01	515.79
678.34	512.43
678.68	509.18
679.02	506.00
679.36	502.88
679.70	499.87
680.04	496.81
680.37	493.57
680.71	490.42
681.05	487.44
681.39	484.32
681.73	481.23
682.06	478.38
682.40	475.57
682.74	472.70
683.08	469.83
683.42	466.93
683.75	464.10
684.09	461.19
684.43	458.36
684.77	455.57
685.10	452.87
685.44	450.24
685.78	447.60
686.12	445.00
686.45	442.43
686.79	439.82
687.13	437.31
687.46	434.89
687.80	432.40
688.14	429.87
688.48	427.58
688.81	425.14
689.15	422.68
689.49	420.16
689.82	417.80
690.16	415.42
690.50	413.17
690.83	410.98
691.17	408.72
691.51	406.57
691.84	404.45
692.18	402.31
692.52	400.10
692.85	397.95
693.19	395.82
693.52	393.71
693.86	391.62
694.20	389.54
694.53	387.49
694.87	385.38
695.21	383.38
695.54	381.29
695.88	379.22
696.21	377.26
696.55	375.34
696.88	373.41
697.22	371.52
697.56	369.67
697.89	367.81
698.23	366.01
698.56	364.19
698.90	362.46
699.23	360.61
699.57	358.83
699.90	357.07
700.24	355.33
700.58	353.62
700.91	351.99
701.25	350.41
701.58	348.84
701.92	347.32
702.25	345.76
702.59	344.22
702.92	342.76
703.26	341.31
703.59	339.88
703.93	338.50
704.26	337.16
704.60	335.69
704.93	334.28
705.26	332.89
705.60	331.51
705.93	330.13
706.27	328.92
706.60	327.71
706.94	326.48
707.27	325.17
707.61	323.94
707.94	322.74
708.27	321.42
708.61	320.21
708.94	319.05
709.28	317.94
709.61	316.84
709.94	315.74
710.28	314.56
710.61	313.41
710.95	312.20
711.28	311.12
711.61	310.08
711.95	308.99
712.28	307.90
712.61	306.82
712.95	305.77
713.28	304.78
713.61	303.78
713.95	302.80
714.28	301.88
714.61	300.93
714.95	299.95
715.28	299.03
715.61	298.02
715.95	297.04
716.28	296.05
716.61	295.10
716.95	294.16
717.28	293.29
717.61	292.45
717.94	291.62
718.28	290.67
718.61	289.79
718.94	289.00
719.27	288.22
719.61	287.50
719.94	286.78
720.27	285.99
720.60	285.23
720.94	284.50
721.27	283.84
721.60	283.14
721.93	282.45
722.27	281.82
722.60	281.19
722.93	280.55
723.26	279.96
723.59	279.35
723.93	278.72
724.26	278.09
724.59	277.43
724.92	276.84
725.25	276.30
725.59	275.70
725.92	275.11
726.25	274.58
726.58	273.99
726.91	273.38
727.24	272.79
727.57	272.27
727.91	271.66
728.24	271.13
728.57	270.57
728.90	270.08
729.23	269.51
729.56	269.04
729.89	268.46
730.22	267.92
730.55	267.38
730.89	266.87
731.22	266.39
731.55	265.92
731.88	265.40
732.21	264.92
732.54	264.43
732.87	263.93
733.20	263.43
733.53	262.99
733.86	262.58
734.19	262.12
734.52	261.67
734.85	261.34
735.18	260.84
735.51	260.44
735.84	259.99
736.17	259.60
736.50	259.13
736.83	258.88
737.16	258.49
737.49	258.08
737.82	257.73
738.15	257.34
738.48	256.96
738.81	256.59
739.14	256.20
739.47	255.84
739.80	255.49
740.13	255.15
740.46	254.76
740.79	254.36
741.12	254.00
741.45	253.65
741.78	253.25
742.11	252.94
742.44	252.54
742.77	252.20
743.10	251.81
743.43	251.47
743.75	251.04
744.08	250.82
744.41	250.53
744.74	250.20
745.07	249.90
745.40	249.62
745.73	249.34
746.06	249.04
746.39	248.76
746.71	248.46
747.04	248.13
747.37	247.84
747.70	247.59
748.03	247.31
748.36	247.07
748.68	246.80
749.01	246.52
749.34	246.25
749.67	246.02
750.00	245.76
750.33	245.57
750.65	245.33
750.98	244.99
751.31	244.74
751.64	244.47
751.97	244.28
752.29	244.00
752.62	243.70
752.95	243.47
753.28	243.24
753.60	243.00
753.93	242.81
754.26	242.60
754.59	242.33
754.91	242.10
755.24	241.86
755.57	241.65
755.90	241.42
756.22	241.27
756.55	241.05
756.88	240.83
757.20	240.60
757.53	240.39
757.86	240.18
758.19	239.97
758.51	239.80
758.84	239.57
759.17	239.39
759.49	239.23
759.82	239.06
760.15	238.86
760.47	238.69
760.80	238.51
761.13	238.33
761.45	238.17
761.78	238.04
762.11	237.88
762.43	237.69
762.76	237.52
763.08	237.38
763.41	237.21
763.74	237.08
764.06	236.87
764.39	236.70
764.71	236.57
765.04	236.42
765.37	236.27
765.69	236.15
766.02	236.00
766.34	235.90
766.67	235.74
767.00	235.63
767.32	235.59
767.65	235.51
767.97	235.41
768.30	235.29
768.62	235.12
768.95	234.96
769.27	234.86
769.60	234.75
769.92	234.58
770.25	234.44
770.57	234.31
770.90	234.21
771.22	234.11
771.55	234.02
771.87	233.89
772.20	233.79
772.52	233.76
772.85	233.78
773.17	233.64
773.50	233.54
773.82	233.43
774.15	233.25
774.47	233.09
774.80	232.97
775.12	232.90
775.45	232.85
775.77	232.77
776.09	232.68
776.42	232.59
776.74	232.56
777.07	232.49
777.39	232.38
777.72	232.28
778.04	232.22
778.36	232.11
778.69	232.03
779.01	231.95
779.33	231.78
779.66	231.59
779.98	231.50
780.31	231.43
780.63	231.36
780.95	231.31
781.28	231.23
781.60	231.16
781.92	231.07
782.25	231.00
782.57	230.92
782.89	230.81
783.22	230.76
783.54	230.65
783.86	230.56
784.19	230.50
784.51	230.48
784.83	230.40
785.16	230.31
785.48	230.28
785.80	230.21
786.12	230.12
786.45	230.04
786.77	230.01
787.09	229.94
787.42	229.85
787.74	229.80
788.06	229.76
788.38	229.69
788.71	229.64
789.03	229.56
789.35	229.54
789.67	229.51
789.99	229.42
790.32	229.38
790.64	229.36
790.96	229.39
791.28	229.36
791.61	229.30
791.93	229.31
792.25	229.22
792.57	229.24
792.89	229.19
793.21	229.19
793.54	229.12
793.86	229.08
794.18	229.09
794.50	229.02
794.82	228.96
795.14	228.94
795.47	228.93
795.79	228.88
796.11	228.83
796.43	228.78
796.75	228.79
797.07	228.75
797.39	228.71
797.71	228.61
798.04	228.56
798.36	228.53
798.68	228.46
799.00	228.44
799.32	228.39
799.64	228.40
799.96	228.33
800.28	228.33
800.60	228.29
800.92	228.25
801.24	228.21
801.56	228.18
801.89	228.17
802.21	228.12
802.53	228.08
802.85	228.08
803.17	228.12
803.49	228.08
803.81	228.04
804.13	228.02
804.45	228.00
804.77	227.97
805.09	227.97
805.41	227.93
805.73	227.92
806.05	227.89
806.37	227.87
806.69	227.85
807.01	227.85
807.33	227.79
807.65	227.70
807.97	227.73
808.28	227.73
808.60	227.69
808.92	227.68
809.24	227.73
809.56	227.68
809.88	227.61
810.20	227.58
810.52	227.59
810.84	227.53
811.16	227.49
811.48	227.47
811.80	227.45
812.12	227.44
812.43	227.42
812.75	227.38
813.07	227.36
813.39	227.34
813.71	227.29
814.03	227.27
814.35	227.28
814.67	227.24
814.98	227.19
815.30	227.18
815.62	227.13
815.94	227.05
816.26	227.07
816.58	227.00
816.89	226.98
817.21	226.93
817.53	226.93
817.85	226.91
818.17	226.91
818.48	226.84
818.80	226.84
819.12	226.79
819.44	226.73
819.76	226.65
820.07	226.66
820.39	226.64
820.71	226.66
821.03	226.62
821.34	226.58
821.66	226.60
821.98	226.58
822.30	226.56
822.61	226.58
822.93	226.50
823.25	226.47
823.57	226.45
823.88	226.46
824.20	226.43
824.52	226.41
824.83	226.36
825.15	226.32
825.47	226.28
825.79	226.29
826.10	226.31
826.42	226.29
826.74	226.23
827.05	226.22
827.37	226.18
827.69	226.16
828.00	226.14
828.32	226.09
828.64	226.05
828.95	226.11
829.27	226.07
829.58	226.07
829.90	226.05
830.22	226.06
830.53	226.02
830.85	225.99
831.17	225.99
831.48	225.99
831.80	226.02
832.11	226.03
832.43	226.03
832.75	226.00
833.06	226.05
833.38	226.02
833.69	226.04
834.01	226.05
834.32	226.06
834.64	226.05
834.96	226.05
835.27	226.03
835.59	225.98
835.90	226.00
836.22	226.00
836.53	225.99
836.85	225.96
837.16	226.04
837.48	226.05
837.79	226.06
838.11	226.03
838.42	226.03
838.74	226.00
839.05	225.99
839.37	225.98
839.68	225.91
840.00	225.92
840.31	225.90
840.63	225.86
840.94	225.84
841.26	225.82
841.57	225.82
841.88	225.82
842.20	225.82
842.51	225.79
842.83	225.80
843.14	225.89
843.46	225.88
843.77	225.82
844.08	225.79
844.40	225.76
844.71	225.79
845.03	225.77
845.34	225.78
845.65	225.74
845.97	225.75
846.28	225.76
846.60	225.75
846.91	225.73
847.22	225.73
847.54	225.74
847.85	225.72
848.16	225.69
848.48	225.68
848.79	225.71
849.10	225.70
849.42	225.66
849.73	225.56
850.04	225.55
850.36	225.51
850.67	225.55
850.98	225.56
851.30	225.53
851.61	225.52
851.92	225.48
852.23	225.51
852.55	225.49
852.86	225.49
853.17	225.48
853.49	225.50
853.80	225.52
854.11	225.51
854.42	225.54
854.74	225.51
855.05	225.50
855.36	225.42
855.67	225.43
855.99	225.43
856.30	225.58
856.61	225.57
856.92	225.59
857.23	225.57
857.55	225.55
857.86	225.52
858.17	225.54
858.48	225.53
858.79	225.51
859.11	225.53
859.42	225.52
859.73	225.50
860.04	225.47
860.35	225.44
860.66	225.43
860.98	225.42
861.29	225.41
861.60	225.41
861.91	225.45
862.22	225.40
862.53	225.37
862.84	225.19
863.16	225.22
863.47	225.19
863.78	225.16
864.09	225.15
864.40	225.16
864.71	225.15
865.02	225.17
865.33	225.18
865.64	225.14
865.95	225.13
866.27	225.20
866.58	225.19
866.89	225.18
867.20	225.15
867.51	225.11
867.82	225.13
868.13	225.16
868.44	225.13
868.75	225.16
869.06	225.16
869.37	225.19
869.68	225.15
869.99	225.16
870.30	225.16
870.61	225.17
870.92	225.14
871.23	225.14
871.54	225.16
871.85	225.15
872.16	225.16
872.47	225.14
872.78	225.08
873.09	225.10
873.40	225.10
873.71	225.12
874.02	225.14
874.33	225.10
874.64	225.06
874.95	225.06
875.26	225.06
875.56	225.09
875.87	225.08
876.18	225.05
876.49	225.13
876.80	225.14
877.11	225.15
877.42	225.15
877.73	225.12
878.04	225.06
878.35	225.05
878.66	225.07
878.96	225.07
879.27	225.07
879.58	225.07
879.89	225.07
880.20	225.13
880.51	225.15
880.82	225.20
881.12	225.20
881.43	225.18
881.74	225.16
882.05	225.13
882.36	225.14
882.67	225.17
882.97	225.06
883.28	225.05
883.59	225.04
883.90	225.08
884.21	225.13
884.51	225.16
884.82	225.15
885.13	225.12
885.44	225.12
885.74	225.11
886.05	225.09
886.36	225.09
886.67	225.03
886.98	225.05
887.28	225.03
887.59	225.03
887.90	225.04
888.20	225.04
888.51	225.09
888.82	225.07
889.13	225.06
889.43	225.13
889.74	225.12
890.05	225.09
890.35	225.05
890.66	225.01
890.97	225.00
891.28	224.97
891.58	224.96
891.89	224.96
892.20	224.95
892.50	224.94
892.81	224.92
893.12	224.93
893.42	224.88
893.73	224.89
894.04	224.87
894.34	224.87
894.65	224.85
894.95	224.79
895.26	224.80
895.57	224.87
895.87	224.79
896.18	224.84
896.48	224.84
896.79	224.83
897.10	224.83
897.40	224.84
897.71	224.86
898.01	224.84
898.32	224.85
898.63	224.86
898.93	224.86
899.24	224.87
899.54	224.86
899.85	224.84
900.15	224.83
900.46	224.84
900.76	224.82
901.07	224.81
901.38	224.85
901.68	224.87
901.99	224.80
902.29	224.78
902.60	224.72
902.90	224.70
903.21	224.71
903.51	224.69
903.82	224.71
904.12	224.71
904.43	224.72
904.73	224.67
905.03	224.66
905.34	224.76
905.64	224.76
905.95	224.75
906.25	224.76
906.56	224.76
906.86	224.80
907.17	224.82
907.47	224.83
907.77	224.79
908.08	224.75
908.38	224.75
908.69	224.75
908.99	224.76
909.30	224.79
909.60	224.78
909.90	224.79
910.21	224.76
910.51	224.75
910.81	224.74
911.12	224.77
911.42	224.76
911.73	224.64
912.03	224.63
912.33	224.68
912.64	224.68
912.94	224.66
913.24	224.61
913.55	224.58
913.85	224.60
914.15	224.62
914.46	224.62
914.76	224.63
915.06	224.64
915.37	224.65
915.67	224.63
915.97	224.63
916.27	224.61
916.58	224.62
916.88	224.62
917.18	224.62
917.49	224.69
917.79	224.67
918.09	224.73
918.39	224.75
918.70	224.71
919.00	224.70
919.30	224.75
919.60	224.76
919.91	224.76
920.21	224.74
920.51	224.74
920.81	224.73
921.12	224.74
921.42	224.75
921.72	224.77
922.02	224.80
922.32	224.76
922.63	224.77
922.93	224.81
923.23	224.83
923.53	224.80
923.83	224.77
924.13	224.80
924.44	224.77
924.74	224.75
925.04	224.77
925.34	224.78
925.64	224.73
925.94	224.72
926.24	224.78
926.55	224.77
926.85	224.78
927.15	224.80
927.45	224.78
927.75	224.76
928.05	224.74
928.35	224.74
928.65	224.80
928.95	224.83
929.26	224.78
929.56	224.79
929.86	224.85
930.16	224.80
930.46	224.80
930.76	224.81
931.06	224.77
931.36	224.79
931.66	224.78
931.96	224.78
932.26	224.82
932.56	224.80
932.86	224.79
933.16	224.76
933.46	224.76
933.76	224.78
934.06	224.80
934.36	224.84
934.66	224.86
934.96	224.83
935.26	224.81
935.56	224.83
935.86	224.79
936.16	224.76
936.46	224.78
936.76	224.79
937.06	224.77
937.36	224.80
937.66	224.78
937.96	224.80
938.26	224.77
938.56	224.72
938.86	224.71
939.16	224.72
939.46	224.76
939.76	224.74
940.06	224.74
940.35	224.71
940.65	224.63
940.95	224.63
941.25	224.60
941.55	224.58
941.85	224.58
942.15	224.61
942.45	224.63
942.75	224.59
943.04	224.57
943.34	224.59
943.64	224.56
943.94	224.52
944.24	224.51
944.54	224.49
944.84	224.51
945.13	224.47
945.43	224.46
945.73	224.44
946.03	224.42
946.33	224.41
946.62	224.40
946.92	224.36
947.22	224.36
947.52	224.36
947.82	224.39
948.11	224.38
948.41	224.34
948.71	224.30
949.01	224.29
949.31	224.27
949.60	224.26
949.90	224.26
950.20	224.28
950.50	224.32
950.79	224.34
951.09	224.34
951.39	224.35
951.69	224.36
951.98	224.39
952.28	224.40
952.58	224.38
952.87	224.39
953.17	224.47
953.47	224.45
953.76	224.45
954.06	224.42
954.36	224.41
954.66	224.40
954.95	224.44
955.25	224.48
955.55	224.51
955.84	224.50
956.14	224.50
956.44	224.52
956.73	224.48
957.03	224.51
957.32	224.51
957.62	224.53
957.92	224.54
958.21	224.52
958.51	224.65
958.81	224.68
959.10	224.72
959.40	224.73
959.69	224.74
959.99	224.76
960.29	224.76
960.58	224.78
960.88	224.83
961.17	224.81
961.47	224.83
961.76	224.84
962.06	224.90
962.36	224.90
962.65	224.94
962.95	224.96
963.24	224.94
963.54	224.96
963.83	224.98
964.13	224.97
964.42	224.93
964.72	224.87
965.01	224.89
965.31	224.85
965.60	224.84
965.90	224.92
966.19	224.93
966.49	224.97
966.78	224.98
967.08	225.00
967.37	225.04
967.67	225.00
967.96	225.00
968.26	224.96
968.55	224.98
968.85	224.96
969.14	224.94
969.43	224.94
969.73	224.94
970.02	224.93
970.32	224.95
970.61	225.01
970.91	224.97
971.20	224.91
971.49	224.94
971.79	224.93
972.08	224.86
972.38	224.87
972.67	224.83
972.96	224.82
973.26	224.79
973.55	224.81
973.85	224.82
974.14	224.83
974.43	224.85
974.73	224.83
975.02	224.79
975.31	224.79
975.61	224.74
975.90	224.72
976.19	224.73
976.49	224.72
976.78	224.68
977.07	224.68
977.37	224.73
977.66	224.73
977.95	224.73
978.24	224.72
978.54	224.72
978.83	224.72
979.12	224.71
979.42	224.71
979.71	224.66
980.00	224.64
980.29	224.62
980.59	224.59
980.88	224.58
981.17	224.59
981.46	224.60
981.76	224.63
982.05	224.64
982.34	224.59
982.63	224.63
982.93	224.65
983.22	224.69
983.51	224.68
983.80	224.70
984.09	224.70
984.39	224.68
984.68	224.68
984.97	224.66
985.26	224.67
985.55	224.68
985.85	224.67
986.14	224.68
986.43	224.69
986.72	224.71
987.01	224.74
987.30	224.77
987.59	224.77
987.89	224.77
988.18	224.73
988.47	224.76
988.76	224.72
989.05	224.69
989.34	224.66
989.63	224.66
989.92	224.64
990.22	224.62
990.51	224.61
990.80	224.61
991.09	224.62
991.38	224.61
991.67	224.58
991.96	224.58
992.25	224.61
992.54	224.59
992.83	224.54
993.12	224.51
993.41	224.50
993.70	224.55
993.99	224.57
994.28	224.62
994.58	224.63
994.87	224.59
995.16	224.61
995.45	224.59
995.74	224.58
996.03	224.59
996.32	224.60
996.61	224.63
996.90	224.61
997.19	224.61
997.48	224.62
997.77	224.61
998.06	224.60
998.34	224.59
998.63	224.59
998.92	224.63
999.21	224.66
999.50	224.64
999.79	224.59
1000.08	224.59
1000.37	224.57
1000.66	224.58
1000.95	224.60
1001.24	224.63
1001.53	224.65
1001.82	224.64
1002.11	224.63
1002.40	224.64
1002.68	224.64
1002.97	224.72
1003.26	224.71
1003.55	224.69
1003.84	224.69
1004.13	224.76
1004.42	224.75
1004.71	224.75
1004.99	224.70
1005.28	224.73
1005.57	224.75
1005.86	224.76
1006.15	224.74
1006.44	224.72
1006.72	224.70
1007.01	224.68
1007.30	224.68
1007.59	224.70
1007.88	224.69
1008.17	224.67
1008.45	224.66
1008.74	224.65
1009.03	224.60
1009.32	224.62
1009.60	224.65
1009.89	224.65
1010.18	224.59
1010.47	224.58
1010.76	224.57
1011.04	224.61
1011.33	224.61
1011.62	224.61
1011.91	224.60
1012.19	224.60
1012.48	224.62
1012.77	224.65
1013.05	224.71
1013.34	224.67
1013.63	224.67
1013.92	224.67
1014.20	224.65
1014.49	224.67
1014.78	224.67
1015.06	224.64
1015.35	224.63
1015.64	224.60
1015.92	224.63
1016.21	224.64
1016.50	224.61
1016.78	224.63
1017.07	224.65
1017.36	224.60
1017.64	224.60
1017.93	224.59
1018.22	224.59
1018.50	224.58
1018.79	224.53
1019.08	224.47
1019.36	224.50
1019.65	224.46
1019.93	224.49
1020.22	224.52
1020.51	224.53
1020.79	224.52
1021.08	224.37
1021.36	224.31
1021.65	224.21
1021.94	224.35
1022.22	224.77
1022.51	224.14
1022.79	225.09
1023.08	224.52
1023.36	225.47
1023.65	224.51
>>>>>End Processed Spectral Data<<<<<
