SpectraSuite Data File
++++++++++++++++++++++++++++++++++++
Date: Fri Feb 01 15:08:51 EST 2013
User: group
Dark Spectrum Present: No
Reference Spectrum Present: No
Number of Sampled Component Spectra: 1
Spectrometers: USB2E7196
Integration Time (usec): 35000 (USB2E7196)
Spectra Averaged: 100 (USB2E7196)
Boxcar Smoothing: 10 (USB2E7196)
Correct for Electrical Dark: No (USB2E7196)
Strobe/Lamp Enabled: No (USB2E7196)
Correct for Detector Non-linearity: No (USB2E7196)
Correct for Stray Light: No (USB2E7196)
Number of Pixels in Processed Spectrum: 2048
>>>>>Begin Processed Spectral Data<<<<<
339.09	0.00
339.48	215.29
339.86	217.10
340.24	218.19
340.63	219.52
341.01	222.57
341.39	222.42
341.78	223.44
342.16	225.31
342.54	225.33
342.93	213.69
343.31	224.49
343.69	225.04
344.07	225.51
344.46	225.93
344.84	226.30
345.22	226.53
345.60	226.76
345.99	226.95
346.37	227.08
346.75	227.18
347.13	227.25
347.52	227.31
347.90	227.40
348.28	227.39
348.66	227.50
349.05	227.51
349.43	227.55
349.81	227.58
350.19	227.63
350.57	227.70
350.96	227.78
351.34	227.88
351.72	227.95
352.10	228.02
352.48	228.13
352.87	228.22
353.25	228.26
353.63	228.34
354.01	228.41
354.39	228.45
354.77	228.55
355.15	228.66
355.54	228.70
355.92	228.72
356.30	228.78
356.68	228.90
357.06	228.97
357.44	228.98
357.82	229.04
358.20	229.11
358.58	229.16
358.97	229.21
359.35	229.29
359.73	229.37
360.11	229.40
360.49	229.42
360.87	229.45
361.25	229.49
361.63	229.54
362.01	229.57
362.39	229.62
362.77	229.65
363.15	229.67
363.53	229.73
363.91	229.74
364.29	229.77
364.67	229.68
365.05	229.68
365.43	229.68
365.81	229.68
366.19	229.70
366.57	229.71
366.95	229.70
367.33	229.65
367.71	229.60
368.09	229.60
368.47	229.58
368.85	229.54
369.23	229.52
369.61	229.44
369.99	229.46
370.37	229.39
370.75	229.37
371.13	229.29
371.51	229.22
371.89	229.18
372.27	229.10
372.65	229.03
373.03	228.96
373.41	228.91
373.78	228.84
374.16	228.73
374.54	228.63
374.92	228.54
375.30	228.44
375.68	228.37
376.06	228.32
376.44	228.26
376.82	228.18
377.19	228.12
377.57	228.07
377.95	227.94
378.33	227.86
378.71	227.71
379.09	227.60
379.47	227.50
379.84	227.39
380.22	227.31
380.60	227.22
380.98	227.15
381.36	227.08
381.73	226.98
382.11	226.95
382.49	226.89
382.87	226.81
383.25	226.76
383.62	226.79
384.00	226.68
384.38	226.59
384.76	226.57
385.13	226.53
385.51	226.47
385.89	226.41
386.27	226.39
386.64	226.38
387.02	226.36
387.40	226.33
387.78	226.33
388.15	226.30
388.53	226.26
388.91	226.22
389.29	226.22
389.66	226.23
390.04	226.20
390.42	226.19
390.79	226.20
391.17	226.19
391.55	226.09
391.92	226.12
392.30	226.14
392.68	226.09
393.05	226.12
393.43	226.15
393.81	226.19
394.18	226.17
394.56	226.19
394.94	226.26
395.31	226.28
395.69	226.35
396.06	226.43
396.44	226.51
396.82	226.57
397.19	226.68
397.57	226.74
397.95	226.80
398.32	226.84
398.70	226.93
399.07	227.02
399.45	227.09
399.82	227.16
400.20	227.25
400.58	227.37
400.95	227.43
401.33	227.55
401.70	227.71
402.08	227.83
402.45	227.94
402.83	228.05
403.20	228.21
403.58	228.34
403.95	228.48
404.33	228.61
404.71	228.73
405.08	228.94
405.46	229.07
405.83	229.26
406.21	229.43
406.58	229.61
406.96	229.80
407.33	230.00
407.70	230.19
408.08	230.46
408.45	230.66
408.83	230.92
409.20	231.11
409.58	231.28
409.95	231.54
410.33	231.85
410.70	232.12
411.08	232.41
411.45	232.68
411.82	232.99
412.20	233.35
412.57	233.75
412.95	234.05
413.32	234.46
413.69	234.84
414.07	235.27
414.44	235.73
414.82	236.18
415.19	236.70
415.56	237.24
415.94	237.76
416.31	238.41
416.68	238.99
417.06	239.70
417.43	240.39
417.81	241.19
418.18	241.94
418.55	242.75
418.93	243.61
419.30	244.52
419.67	245.46
420.04	246.40
420.42	247.38
420.79	248.53
421.16	249.68
421.54	250.89
421.91	252.10
422.28	253.32
422.66	254.64
423.03	255.97
423.40	257.34
423.77	258.75
424.15	260.17
424.52	261.67
424.89	263.28
425.26	264.82
425.64	266.24
426.01	267.81
426.38	269.47
426.75	271.14
427.13	272.85
427.50	274.67
427.87	276.57
428.24	278.46
428.61	280.18
428.99	282.14
429.36	284.22
429.73	286.27
430.10	288.32
430.47	290.39
430.85	292.48
431.22	294.68
431.59	297.09
431.96	299.37
432.33	301.86
432.70	304.24
433.08	307.05
433.45	309.65
433.82	312.30
434.19	315.16
434.56	317.98
434.93	320.66
435.30	323.27
435.68	326.14
436.05	329.04
436.42	331.84
436.79	334.34
437.16	337.09
437.53	339.94
437.90	342.75
438.27	345.49
438.64	348.36
439.01	350.97
439.38	353.20
439.75	355.35
440.13	357.86
440.50	360.22
440.87	362.09
441.24	364.09
441.61	366.27
441.98	367.78
442.35	369.59
442.72	371.47
443.09	373.24
443.46	374.31
443.83	374.86
444.20	375.36
444.57	376.26
444.94	376.53
445.31	376.85
445.68	377.19
446.05	377.24
446.42	376.86
446.79	376.48
447.16	375.99
447.53	375.64
447.90	374.48
448.27	373.27
448.64	371.67
449.01	370.52
449.37	368.50
449.74	366.62
450.11	364.35
450.48	361.86
450.85	359.37
451.22	357.16
451.59	355.11
451.96	353.19
452.33	350.54
452.70	348.14
453.07	345.31
453.43	342.47
453.80	339.77
454.17	337.09
454.54	334.51
454.91	331.84
455.28	329.23
455.65	326.72
456.02	324.33
456.38	322.22
456.75	319.52
457.12	317.30
457.49	315.08
457.86	312.93
458.23	311.09
458.59	309.04
458.96	306.98
459.33	305.13
459.70	303.26
460.07	301.77
460.43	300.08
460.80	298.49
461.17	297.00
461.54	295.52
461.91	294.09
462.27	292.65
462.64	291.40
463.01	289.99
463.38	288.70
463.74	287.30
464.11	286.13
464.48	285.14
464.85	284.01
465.21	283.14
465.58	282.23
465.95	281.09
466.32	280.15
466.68	279.21
467.05	278.32
467.42	277.42
467.78	276.45
468.15	275.56
468.52	274.85
468.88	273.97
469.25	273.14
469.62	272.50
469.98	271.81
470.35	271.17
470.72	270.54
471.08	269.87
471.45	269.32
471.82	268.71
472.18	268.08
472.55	267.61
472.92	267.06
473.28	266.56
473.65	266.10
474.02	265.67
474.38	265.31
474.75	264.96
475.11	264.59
475.48	264.32
475.85	264.11
476.21	263.84
476.58	263.65
476.94	263.48
477.31	263.27
477.67	263.14
478.04	263.00
478.41	262.96
478.77	262.97
479.14	262.90
479.50	262.92
479.87	262.96
480.23	263.04
480.60	263.09
480.96	263.19
481.33	263.41
481.69	263.57
482.06	263.73
482.42	263.94
482.79	264.17
483.15	264.45
483.52	264.77
483.88	265.14
484.25	265.51
484.61	265.97
484.98	266.43
485.34	266.94
485.71	267.53
486.07	268.12
486.44	268.72
486.80	269.41
487.17	270.12
487.53	270.94
487.90	271.74
488.26	272.70
488.62	273.65
488.99	274.58
489.35	275.61
489.72	276.74
490.08	277.94
490.44	279.21
490.81	280.56
491.17	281.94
491.54	283.41
491.90	284.99
492.26	286.60
492.63	288.37
492.99	290.16
493.36	292.06
493.72	294.08
494.08	296.15
494.45	298.43
494.81	300.80
495.17	303.22
495.54	305.83
495.90	308.51
496.26	311.36
496.63	314.35
496.99	317.44
497.35	320.69
497.72	324.12
498.08	327.63
498.44	331.30
498.80	335.21
499.17	339.26
499.53	343.41
499.89	347.75
500.26	352.23
500.62	356.90
500.98	361.81
501.34	366.91
501.71	372.26
502.07	377.68
502.43	383.30
502.79	389.14
503.16	395.19
503.52	401.39
503.88	407.80
504.24	414.44
504.60	421.36
504.97	428.48
505.33	435.77
505.69	443.45
506.05	451.26
506.41	459.16
506.78	467.32
507.14	475.75
507.50	484.45
507.86	493.42
508.22	502.62
508.59	511.84
508.95	521.36
509.31	531.12
509.67	541.24
510.03	551.52
510.39	562.10
510.75	572.93
511.12	583.92
511.48	595.16
511.84	606.58
512.20	618.13
512.56	630.12
512.92	642.28
513.28	654.62
513.64	667.10
514.00	679.68
514.37	692.57
514.73	705.66
515.09	718.76
515.45	732.07
515.81	745.55
516.17	759.59
516.53	773.66
516.89	787.87
517.25	802.04
517.61	816.52
517.97	830.91
518.33	845.32
518.69	860.14
519.05	875.16
519.41	890.38
519.77	905.97
520.13	921.40
520.49	936.79
520.85	952.24
521.21	968.01
521.57	984.31
521.93	1000.16
522.29	1016.53
522.65	1032.87
523.01	1049.08
523.37	1065.24
523.73	1081.37
524.09	1097.56
524.45	1113.93
524.81	1130.48
525.17	1147.34
525.53	1164.30
525.89	1181.23
526.25	1198.09
526.61	1214.51
526.97	1231.25
527.33	1247.70
527.68	1264.38
528.04	1280.90
528.40	1297.61
528.76	1314.68
529.12	1331.25
529.48	1348.23
529.84	1364.32
530.20	1381.01
530.56	1398.21
530.91	1415.68
531.27	1432.61
531.63	1449.16
531.99	1465.74
532.35	1481.87
532.71	1497.84
533.07	1514.14
533.42	1530.06
533.78	1546.18
534.14	1562.53
534.50	1577.94
534.86	1593.93
535.21	1609.07
535.57	1625.07
535.93	1640.65
536.29	1655.55
536.65	1670.85
537.00	1685.64
537.36	1701.13
537.72	1715.67
538.08	1730.18
538.44	1744.16
538.79	1758.12
539.15	1771.92
539.51	1785.84
539.87	1800.35
540.22	1814.14
540.58	1828.25
540.94	1841.74
541.29	1854.82
541.65	1867.63
542.01	1880.96
542.37	1893.30
542.72	1905.90
543.08	1917.68
543.44	1930.18
543.79	1941.50
544.15	1952.63
544.51	1964.22
544.87	1975.20
545.22	1986.10
545.58	1996.28
545.94	2006.02
546.29	2015.76
546.65	2025.61
547.01	2034.85
547.36	2043.66
547.72	2052.16
548.07	2059.84
548.43	2068.04
548.79	2076.05
549.14	2083.58
549.50	2091.14
549.86	2098.96
550.21	2106.31
550.57	2113.62
550.92	2120.20
551.28	2127.31
551.64	2134.32
551.99	2141.01
552.35	2147.19
552.70	2153.27
553.06	2159.26
553.41	2165.63
553.77	2171.79
554.13	2177.91
554.48	2184.03
554.84	2189.38
555.19	2194.77
555.55	2199.87
555.90	2204.18
556.26	2208.93
556.61	2213.66
556.97	2217.66
557.32	2221.79
557.68	2225.84
558.03	2230.18
558.39	2233.86
558.74	2238.29
559.10	2242.12
559.45	2245.61
559.81	2249.88
560.16	2253.65
560.52	2256.78
560.87	2260.11
561.23	2262.76
561.58	2265.73
561.94	2268.18
562.29	2270.55
562.64	2272.91
563.00	2275.52
563.35	2279.06
563.71	2282.11
564.06	2285.31
564.42	2288.06
564.77	2290.43
565.12	2292.59
565.48	2294.24
565.83	2295.98
566.19	2297.31
566.54	2298.21
566.89	2299.30
567.25	2299.74
567.60	2301.15
567.96	2302.73
568.31	2303.41
568.66	2304.35
569.02	2304.85
569.37	2305.06
569.72	2305.69
570.08	2305.78
570.43	2305.61
570.78	2304.89
571.14	2303.24
571.49	2301.78
571.84	2301.46
572.20	2300.09
572.55	2298.96
572.90	2297.41
573.26	2295.82
573.61	2293.88
573.96	2291.83
574.31	2288.67
574.67	2285.56
575.02	2281.72
575.37	2278.10
575.72	2274.26
576.08	2270.88
576.43	2267.35
576.78	2263.60
577.13	2260.36
577.49	2257.22
577.84	2253.71
578.19	2249.91
578.54	2246.07
578.90	2241.71
579.25	2236.07
579.60	2231.08
579.95	2225.97
580.30	2220.76
580.66	2215.60
581.01	2210.57
581.36	2205.64
581.71	2201.41
582.06	2196.85
582.42	2192.29
582.77	2187.13
583.12	2182.29
583.47	2177.34
583.82	2172.19
584.17	2166.94
584.53	2161.36
584.88	2155.58
585.23	2149.57
585.58	2144.10
585.93	2138.67
586.28	2133.81
586.63	2128.62
586.98	2123.46
587.34	2118.73
587.69	2113.88
588.04	2108.49
588.39	2102.65
588.74	2096.04
589.09	2089.76
589.44	2082.84
589.79	2076.79
590.14	2071.08
590.49	2064.49
590.84	2058.07
591.19	2051.99
591.54	2045.35
591.89	2037.78
592.25	2030.93
592.60	2023.70
592.95	2015.89
593.30	2008.52
593.65	2000.85
594.00	1993.73
594.35	1986.39
594.70	1978.23
595.05	1970.87
595.40	1963.60
595.75	1956.31
596.10	1950.00
596.45	1943.20
596.80	1936.92
597.15	1930.17
597.50	1922.91
597.85	1916.45
598.19	1909.65
598.54	1902.58
598.89	1895.90
599.24	1890.03
599.59	1883.27
599.94	1877.09
600.29	1870.82
600.64	1864.12
600.99	1856.49
601.34	1849.60
601.69	1842.54
602.04	1835.60
602.39	1828.12
602.74	1821.06
603.08	1814.16
603.43	1807.37
603.78	1800.07
604.13	1792.85
604.48	1785.40
604.83	1778.71
605.18	1771.75
605.53	1763.68
605.87	1755.51
606.22	1748.33
606.57	1740.46
606.92	1733.18
607.27	1725.90
607.62	1718.81
607.96	1711.50
608.31	1704.75
608.66	1697.10
609.01	1689.56
609.36	1681.78
609.70	1673.90
610.05	1665.83
610.40	1658.10
610.75	1649.80
611.10	1642.11
611.44	1633.81
611.79	1625.94
612.14	1617.12
612.49	1607.98
612.83	1599.70
613.18	1591.63
613.53	1583.46
613.88	1574.76
614.22	1566.37
614.57	1557.81
614.92	1549.87
615.27	1542.28
615.61	1534.16
615.96	1526.13
616.31	1518.48
616.65	1511.29
617.00	1503.75
617.35	1496.19
617.70	1487.83
618.04	1479.25
618.39	1471.02
618.74	1463.44
619.08	1455.07
619.43	1447.58
619.78	1440.68
620.12	1433.68
620.47	1426.19
620.82	1418.01
621.16	1410.67
621.51	1403.22
621.85	1395.73
622.20	1387.22
622.55	1379.01
622.89	1371.18
623.24	1363.69
623.59	1356.42
623.93	1348.95
624.28	1341.77
624.62	1334.26
624.97	1327.10
625.32	1320.49
625.66	1313.48
626.01	1306.22
626.35	1298.89
626.70	1291.22
627.04	1283.50
627.39	1275.65
627.73	1268.27
628.08	1261.30
628.43	1254.03
628.77	1246.68
629.12	1239.02
629.46	1231.92
629.81	1224.47
630.15	1217.17
630.50	1209.80
630.84	1201.65
631.19	1193.73
631.53	1186.18
631.88	1178.68
632.22	1171.22
632.57	1163.98
632.91	1156.51
633.26	1149.16
633.60	1141.82
633.95	1134.76
634.29	1127.75
634.64	1121.11
634.98	1113.76
635.32	1106.80
635.67	1100.33
636.01	1093.73
636.36	1086.98
636.70	1080.54
637.05	1073.96
637.39	1067.63
637.73	1061.03
638.08	1055.15
638.42	1049.23
638.77	1042.76
639.11	1036.10
639.45	1029.69
639.80	1023.03
640.14	1016.55
640.49	1010.07
640.83	1003.80
641.17	997.49
641.52	991.17
641.86	984.87
642.20	979.10
642.55	972.79
642.89	966.24
643.23	959.66
643.58	953.88
643.92	947.55
644.26	941.57
644.61	935.57
644.95	929.53
645.29	922.88
645.64	916.11
645.98	909.88
646.32	904.19
646.66	898.17
647.01	892.34
647.35	886.74
647.69	880.96
648.04	875.40
648.38	869.61
648.72	863.59
649.06	857.45
649.41	851.52
649.75	845.45
650.09	839.52
650.43	833.67
650.78	827.62
651.12	821.79
651.46	816.03
651.80	810.24
652.14	804.88
652.49	799.64
652.83	794.56
653.17	788.77
653.51	783.00
653.85	777.62
654.20	772.07
654.54	766.02
654.88	760.32
655.22	754.46
655.56	748.82
655.90	743.41
656.25	738.13
656.59	732.91
656.93	727.93
657.27	722.89
657.61	717.52
657.95	712.35
658.29	707.25
658.64	702.10
658.98	696.84
659.32	691.46
659.66	686.19
660.00	680.84
660.34	675.97
660.68	671.04
661.02	666.02
661.36	661.33
661.70	656.89
662.05	652.46
662.39	648.17
662.73	643.74
663.07	639.39
663.41	634.98
663.75	630.36
664.09	625.78
664.43	621.37
664.77	617.25
665.11	613.07
665.45	609.05
665.79	604.96
666.13	600.88
666.47	596.80
666.81	592.66
667.15	588.56
667.49	584.73
667.83	580.99
668.17	577.11
668.51	573.06
668.85	569.06
669.19	565.33
669.53	561.44
669.87	557.61
670.21	553.92
670.55	550.32
670.89	546.91
671.23	543.47
671.57	540.00
671.91	536.52
672.25	533.06
672.58	529.45
672.92	526.08
673.26	523.02
673.60	519.90
673.94	516.78
674.28	513.91
674.62	510.94
674.96	507.85
675.30	504.88
675.64	501.93
675.97	499.14
676.31	496.21
676.65	493.30
676.99	490.57
677.33	487.74
677.67	484.92
678.01	481.97
678.34	479.07
678.68	476.15
679.02	473.31
679.36	470.53
679.70	467.89
680.04	465.17
680.37	462.24
680.71	459.45
681.05	456.94
681.39	454.22
681.73	451.61
682.06	449.12
682.40	446.63
682.74	444.13
683.08	441.64
683.42	439.09
683.75	436.66
684.09	434.21
684.43	431.78
684.77	429.34
685.10	427.01
685.44	424.69
685.78	422.49
686.12	420.33
686.45	418.05
686.79	415.74
687.13	413.55
687.46	411.42
687.80	409.31
688.14	407.14
688.48	405.11
688.81	402.86
689.15	400.64
689.49	398.53
689.82	396.48
690.16	394.36
690.50	392.42
690.83	390.51
691.17	388.48
691.51	386.61
691.84	384.81
692.18	382.86
692.52	380.95
692.85	378.97
693.19	377.09
693.52	375.30
693.86	373.53
694.20	371.72
694.53	369.89
694.87	368.07
695.21	366.25
695.54	364.46
695.88	362.80
696.21	361.12
696.55	359.43
696.88	357.73
697.22	356.11
697.56	354.55
697.89	352.90
698.23	351.26
698.56	349.58
698.90	347.92
699.23	346.26
699.57	344.65
699.90	343.14
700.24	341.60
700.58	340.01
700.91	338.47
701.25	337.01
701.58	335.68
701.92	334.25
702.25	332.87
702.59	331.48
702.92	330.12
703.26	328.87
703.59	327.55
703.93	326.39
704.26	325.12
704.60	323.79
704.93	322.49
705.26	321.25
705.60	320.09
705.93	318.98
706.27	317.98
706.60	316.90
706.94	315.86
707.27	314.73
707.61	313.70
707.94	312.70
708.27	311.66
708.61	310.59
708.94	309.62
709.28	308.65
709.61	307.65
709.94	306.68
710.28	305.62
710.61	304.67
710.95	303.60
711.28	302.74
711.61	301.81
711.95	300.91
712.28	299.99
712.61	299.01
712.95	298.08
713.28	297.23
713.61	296.37
713.95	295.46
714.28	294.62
714.61	293.79
714.95	292.93
715.28	292.08
715.61	291.22
715.95	290.37
716.28	289.53
716.61	288.75
716.95	287.91
717.28	287.19
717.61	286.42
717.94	285.66
718.28	284.82
718.61	284.05
718.94	283.40
719.27	282.74
719.61	282.13
719.94	281.46
720.27	280.71
720.60	280.08
720.94	279.46
721.27	278.90
721.60	278.31
721.93	277.77
722.27	277.23
722.60	276.66
722.93	276.11
723.26	275.57
723.59	275.04
723.93	274.52
724.26	273.98
724.59	273.43
724.92	272.94
725.25	272.45
725.59	271.98
725.92	271.44
726.25	270.92
726.58	270.41
726.91	269.93
727.24	269.48
727.57	269.03
727.91	268.53
728.24	268.06
728.57	267.58
728.90	267.09
729.23	266.63
729.56	266.19
729.89	265.72
730.22	265.21
730.55	264.72
730.89	264.29
731.22	263.85
731.55	263.43
731.88	262.99
732.21	262.57
732.54	262.14
732.87	261.73
733.20	261.38
733.53	260.95
733.86	260.57
734.19	260.17
734.52	259.75
734.85	259.44
735.18	259.00
735.51	258.66
735.84	258.26
736.17	257.87
736.50	257.48
736.83	257.22
737.16	256.90
737.49	256.60
737.82	256.26
738.15	255.95
738.48	255.61
738.81	255.29
739.14	254.97
739.47	254.63
739.80	254.29
740.13	253.97
740.46	253.70
740.79	253.35
741.12	253.03
741.45	252.75
741.78	252.40
742.11	252.11
742.44	251.77
742.77	251.53
743.10	251.26
743.43	250.95
743.75	250.61
744.08	250.46
744.41	250.16
744.74	249.86
745.07	249.57
745.40	249.30
745.73	249.09
746.06	248.82
746.39	248.54
746.71	248.28
747.04	247.97
747.37	247.69
747.70	247.45
748.03	247.20
748.36	246.94
748.68	246.69
749.01	246.46
749.34	246.22
749.67	245.95
750.00	245.72
750.33	245.56
750.65	245.32
750.98	244.94
751.31	244.75
751.64	244.56
751.97	244.40
752.29	244.18
752.62	243.90
752.95	243.68
753.28	243.47
753.60	243.25
753.93	243.12
754.26	242.90
754.59	242.70
754.91	242.50
755.24	242.30
755.57	242.13
755.90	241.91
756.22	241.70
756.55	241.55
756.88	241.33
757.20	241.12
757.53	240.93
757.86	240.82
758.19	240.63
758.51	240.45
758.84	240.21
759.17	240.07
759.49	239.91
759.82	239.82
760.15	239.71
760.47	239.61
760.80	239.43
761.13	239.31
761.45	239.13
761.78	239.00
762.11	238.85
762.43	238.71
762.76	238.56
763.08	238.46
763.41	238.34
763.74	238.26
764.06	238.09
764.39	237.96
764.71	237.82
765.04	237.69
765.37	237.56
765.69	237.47
766.02	237.34
766.34	237.21
766.67	237.03
767.00	236.90
767.32	236.81
767.65	236.77
767.97	236.68
768.30	236.59
768.62	236.47
768.95	236.36
769.27	236.26
769.60	236.20
769.92	236.07
770.25	235.95
770.57	235.82
770.90	235.74
771.22	235.63
771.55	235.52
771.87	235.43
772.20	235.32
772.52	235.30
772.85	235.36
773.17	235.29
773.50	235.19
773.82	235.09
774.15	234.95
774.47	234.79
774.80	234.67
775.12	234.61
775.45	234.53
775.77	234.45
776.09	234.37
776.42	234.27
776.74	234.23
777.07	234.13
777.39	234.07
777.72	233.97
778.04	233.93
778.36	233.85
778.69	233.78
779.01	233.75
779.33	233.59
779.66	233.39
779.98	233.30
780.31	233.26
780.63	233.25
780.95	233.21
781.28	233.16
781.60	233.10
781.92	233.05
782.25	232.98
782.57	232.90
782.89	232.84
783.22	232.78
783.54	232.69
783.86	232.67
784.19	232.58
784.51	232.56
784.83	232.50
785.16	232.46
785.48	232.44
785.80	232.37
786.12	232.31
786.45	232.27
786.77	232.24
787.09	232.18
787.42	232.09
787.74	232.06
788.06	232.01
788.38	231.96
788.71	231.89
789.03	231.85
789.35	231.85
789.67	231.78
789.99	231.77
790.32	231.72
790.64	231.68
790.96	231.75
791.28	231.66
791.61	231.63
791.93	231.60
792.25	231.54
792.57	231.55
792.89	231.49
793.21	231.46
793.54	231.41
793.86	231.36
794.18	231.32
794.50	231.23
794.82	231.16
795.14	231.15
795.47	231.13
795.79	231.08
796.11	231.03
796.43	230.99
796.75	230.94
797.07	230.89
797.39	230.80
797.71	230.69
798.04	230.67
798.36	230.63
798.68	230.57
799.00	230.55
799.32	230.47
799.64	230.45
799.96	230.42
800.28	230.39
800.60	230.36
800.92	230.31
801.24	230.30
801.56	230.28
801.89	230.22
802.21	230.17
802.53	230.12
802.85	230.09
803.17	230.12
803.49	230.06
803.81	230.05
804.13	230.01
804.45	229.98
804.77	229.97
805.09	229.92
805.41	229.89
805.73	229.78
806.05	229.71
806.37	229.69
806.69	229.64
807.01	229.62
807.33	229.62
807.65	229.56
807.97	229.56
808.28	229.53
808.60	229.50
808.92	229.48
809.24	229.51
809.56	229.47
809.88	229.40
810.20	229.40
810.52	229.38
810.84	229.36
811.16	229.31
811.48	229.28
811.80	229.29
812.12	229.25
812.43	229.28
812.75	229.29
813.07	229.25
813.39	229.22
813.71	229.16
814.03	229.10
814.35	229.09
814.67	229.07
814.98	229.03
815.30	229.02
815.62	228.99
815.94	228.92
816.26	228.95
816.58	228.93
816.89	228.91
817.21	228.85
817.53	228.84
817.85	228.84
818.17	228.81
818.48	228.75
818.80	228.76
819.12	228.72
819.44	228.69
819.76	228.65
820.07	228.65
820.39	228.62
820.71	228.66
821.03	228.64
821.34	228.59
821.66	228.60
821.98	228.59
822.30	228.56
822.61	228.61
822.93	228.54
823.25	228.51
823.57	228.48
823.88	228.49
824.20	228.48
824.52	228.49
824.83	228.47
825.15	228.48
825.47	228.48
825.79	228.51
826.10	228.49
826.42	228.47
826.74	228.49
827.05	228.47
827.37	228.43
827.69	228.43
828.00	228.42
828.32	228.40
828.64	228.37
828.95	228.42
829.27	228.39
829.58	228.40
829.90	228.40
830.22	228.42
830.53	228.38
830.85	228.36
831.17	228.31
831.48	228.31
831.80	228.32
832.11	228.28
832.43	228.23
832.75	228.24
833.06	228.29
833.38	228.22
833.69	228.21
834.01	228.20
834.32	228.20
834.64	228.17
834.96	228.16
835.27	228.18
835.59	228.13
835.90	228.11
836.22	228.09
836.53	228.08
836.85	228.06
837.16	228.16
837.48	228.17
837.79	228.22
838.11	228.22
838.42	228.23
838.74	228.27
839.05	228.26
839.37	228.25
839.68	228.19
840.00	228.21
840.31	228.25
840.63	228.27
840.94	228.23
841.26	228.24
841.57	228.26
841.88	228.22
842.20	228.20
842.51	228.15
842.83	228.13
843.14	228.21
843.46	228.19
843.77	228.15
844.08	228.10
844.40	228.06
844.71	228.06
845.03	228.00
845.34	227.96
845.65	227.95
845.97	227.93
846.28	227.91
846.60	227.89
846.91	227.82
847.22	227.81
847.54	227.81
847.85	227.79
848.16	227.74
848.48	227.72
848.79	227.78
849.10	227.78
849.42	227.77
849.73	227.71
850.04	227.73
850.36	227.70
850.67	227.72
850.98	227.70
851.30	227.69
851.61	227.69
851.92	227.67
852.23	227.71
852.55	227.74
852.86	227.75
853.17	227.76
853.49	227.77
853.80	227.80
854.11	227.83
854.42	227.87
854.74	227.85
855.05	227.85
855.36	227.80
855.67	227.80
855.99	227.82
856.30	227.91
856.61	227.89
856.92	227.87
857.23	227.86
857.55	227.84
857.86	227.84
858.17	227.82
858.48	227.82
858.79	227.77
859.11	227.76
859.42	227.79
859.73	227.78
860.04	227.82
860.35	227.78
860.66	227.75
860.98	227.70
861.29	227.76
861.60	227.75
861.91	227.76
862.22	227.80
862.53	227.77
862.84	227.63
863.16	227.65
863.47	227.64
863.78	227.63
864.09	227.65
864.40	227.66
864.71	227.68
865.02	227.67
865.33	227.66
865.64	227.67
865.95	227.63
866.27	227.69
866.58	227.67
866.89	227.67
867.20	227.64
867.51	227.65
867.82	227.61
868.13	227.65
868.44	227.65
868.75	227.63
869.06	227.65
869.37	227.64
869.68	227.61
869.99	227.61
870.30	227.64
870.61	227.64
870.92	227.63
871.23	227.61
871.54	227.64
871.85	227.69
872.16	227.70
872.47	227.68
872.78	227.60
873.09	227.59
873.40	227.60
873.71	227.60
874.02	227.60
874.33	227.58
874.64	227.53
874.95	227.51
875.26	227.47
875.56	227.42
875.87	227.45
876.18	227.43
876.49	227.55
876.80	227.51
877.11	227.49
877.42	227.45
877.73	227.42
878.04	227.38
878.35	227.37
878.66	227.34
878.96	227.34
879.27	227.35
879.58	227.33
879.89	227.31
880.20	227.38
880.51	227.39
880.82	227.40
881.12	227.42
881.43	227.42
881.74	227.40
882.05	227.40
882.36	227.39
882.67	227.43
882.97	227.30
883.28	227.30
883.59	227.29
883.90	227.31
884.21	227.37
884.51	227.40
884.82	227.36
885.13	227.38
885.44	227.38
885.74	227.38
886.05	227.40
886.36	227.42
886.67	227.36
886.98	227.39
887.28	227.39
887.59	227.39
887.90	227.37
888.20	227.39
888.51	227.44
888.82	227.46
889.13	227.43
889.43	227.48
889.74	227.49
890.05	227.52
890.35	227.48
890.66	227.43
890.97	227.41
891.28	227.42
891.58	227.40
891.89	227.43
892.20	227.44
892.50	227.43
892.81	227.42
893.12	227.39
893.42	227.34
893.73	227.38
894.04	227.40
894.34	227.42
894.65	227.40
894.95	227.37
895.26	227.35
895.57	227.40
895.87	227.34
896.18	227.35
896.48	227.36
896.79	227.38
897.10	227.43
897.40	227.45
897.71	227.47
898.01	227.47
898.32	227.49
898.63	227.47
898.93	227.49
899.24	227.50
899.54	227.53
899.85	227.53
900.15	227.49
900.46	227.46
900.76	227.47
901.07	227.49
901.38	227.51
901.68	227.55
901.99	227.52
902.29	227.54
902.60	227.55
902.90	227.54
903.21	227.54
903.51	227.49
903.82	227.49
904.12	227.47
904.43	227.49
904.73	227.48
905.03	227.49
905.34	227.61
905.64	227.58
905.95	227.58
906.25	227.58
906.56	227.58
906.86	227.60
907.17	227.63
907.47	227.63
907.77	227.61
908.08	227.55
908.38	227.54
908.69	227.52
908.99	227.52
909.30	227.54
909.60	227.50
909.90	227.52
910.21	227.49
910.51	227.48
910.81	227.46
911.12	227.46
911.42	227.45
911.73	227.29
912.03	227.32
912.33	227.35
912.64	227.33
912.94	227.30
913.24	227.25
913.55	227.20
913.85	227.18
914.15	227.19
914.46	227.23
914.76	227.20
915.06	227.22
915.37	227.18
915.67	227.13
915.97	227.18
916.27	227.17
916.58	227.18
916.88	227.15
917.18	227.12
917.49	227.19
917.79	227.19
918.09	227.22
918.39	227.24
918.70	227.21
919.00	227.25
919.30	227.30
919.60	227.31
919.91	227.32
920.21	227.31
920.51	227.28
920.81	227.25
921.12	227.26
921.42	227.23
921.72	227.24
922.02	227.26
922.32	227.24
922.63	227.23
922.93	227.27
923.23	227.29
923.53	227.33
923.83	227.27
924.13	227.30
924.44	227.30
924.74	227.30
925.04	227.29
925.34	227.25
925.64	227.20
925.94	227.21
926.24	227.25
926.55	227.25
926.85	227.27
927.15	227.28
927.45	227.28
927.75	227.30
928.05	227.34
928.35	227.33
928.65	227.34
928.95	227.34
929.26	227.29
929.56	227.28
929.86	227.27
930.16	227.22
930.46	227.18
930.76	227.19
931.06	227.12
931.36	227.09
931.66	227.13
931.96	227.15
932.26	227.18
932.56	227.14
932.86	227.11
933.16	227.07
933.46	227.07
933.76	227.07
934.06	227.08
934.36	227.08
934.66	227.08
934.96	227.07
935.26	227.08
935.56	227.12
935.86	227.15
936.16	227.15
936.46	227.17
936.76	227.19
937.06	227.18
937.36	227.18
937.66	227.20
937.96	227.19
938.26	227.19
938.56	227.18
938.86	227.17
939.16	227.22
939.46	227.26
939.76	227.25
940.06	227.27
940.35	227.25
940.65	227.25
940.95	227.32
941.25	227.29
941.55	227.30
941.85	227.29
942.15	227.29
942.45	227.33
942.75	227.31
943.04	227.29
943.34	227.31
943.64	227.32
943.94	227.34
944.24	227.33
944.54	227.33
944.84	227.33
945.13	227.31
945.43	227.30
945.73	227.31
946.03	227.31
946.33	227.27
946.62	227.25
946.92	227.18
947.22	227.16
947.52	227.18
947.82	227.19
948.11	227.19
948.41	227.19
948.71	227.15
949.01	227.19
949.31	227.18
949.60	227.14
949.90	227.15
950.20	227.12
950.50	227.12
950.79	227.11
951.09	227.12
951.39	227.15
951.69	227.15
951.98	227.15
952.28	227.16
952.58	227.20
952.87	227.25
953.17	227.29
953.47	227.25
953.76	227.22
954.06	227.18
954.36	227.15
954.66	227.13
954.95	227.15
955.25	227.13
955.55	227.17
955.84	227.17
956.14	227.16
956.44	227.15
956.73	227.14
957.03	227.17
957.32	227.16
957.62	227.16
957.92	227.14
958.21	227.15
958.51	227.25
958.81	227.26
959.10	227.19
959.40	227.21
959.69	227.22
959.99	227.25
960.29	227.26
960.58	227.27
960.88	227.29
961.17	227.28
961.47	227.30
961.76	227.27
962.06	227.29
962.36	227.28
962.65	227.31
962.95	227.30
963.24	227.26
963.54	227.23
963.83	227.22
964.13	227.22
964.42	227.18
964.72	227.11
965.01	227.09
965.31	227.12
965.60	227.06
965.90	227.12
966.19	227.06
966.49	227.07
966.78	227.06
967.08	227.05
967.37	227.01
967.67	226.98
967.96	226.96
968.26	226.93
968.55	226.94
968.85	226.91
969.14	226.90
969.43	226.92
969.73	226.92
970.02	226.92
970.32	226.92
970.61	226.94
970.91	226.89
971.20	226.85
971.49	226.82
971.79	226.87
972.08	226.80
972.38	226.84
972.67	226.81
972.96	226.82
973.26	226.79
973.55	226.84
973.85	226.86
974.14	226.84
974.43	226.89
974.73	226.87
975.02	226.89
975.31	226.92
975.61	226.92
975.90	226.91
976.19	226.93
976.49	226.95
976.78	226.96
977.07	226.97
977.37	226.98
977.66	226.99
977.95	226.98
978.24	226.96
978.54	226.98
978.83	227.00
979.12	227.00
979.42	227.01
979.71	227.01
980.00	226.98
980.29	227.05
980.59	227.01
980.88	227.05
981.17	227.05
981.46	227.05
981.76	227.06
982.05	227.10
982.34	227.09
982.63	227.09
982.93	227.12
983.22	227.17
983.51	227.18
983.80	227.20
984.09	227.23
984.39	227.27
984.68	227.27
984.97	227.31
985.26	227.28
985.55	227.30
985.85	227.29
986.14	227.33
986.43	227.30
986.72	227.30
987.01	227.25
987.30	227.24
987.59	227.21
987.89	227.22
988.18	227.20
988.47	227.21
988.76	227.20
989.05	227.12
989.34	227.09
989.63	227.14
989.92	227.13
990.22	227.10
990.51	227.07
990.80	227.05
991.09	227.01
991.38	227.03
991.67	227.02
991.96	226.99
992.25	226.96
992.54	226.94
992.83	226.94
993.12	226.96
993.41	226.98
993.70	227.07
993.99	227.07
994.28	227.08
994.58	227.09
994.87	227.04
995.16	227.09
995.45	227.08
995.74	227.03
996.03	227.04
996.32	227.05
996.61	227.09
996.90	227.04
997.19	227.04
997.48	227.04
997.77	227.02
998.06	227.02
998.34	227.01
998.63	227.04
998.92	227.01
999.21	227.02
999.50	227.02
999.79	226.93
1000.08	226.92
1000.37	226.89
1000.66	226.87
1000.95	226.90
1001.24	226.90
1001.53	226.91
1001.82	226.89
1002.11	226.86
1002.40	226.84
1002.68	226.85
1002.97	226.95
1003.26	226.91
1003.55	226.89
1003.84	226.93
1004.13	226.94
1004.42	226.95
1004.71	226.92
1004.99	226.93
1005.28	226.93
1005.57	226.91
1005.86	226.91
1006.15	226.90
1006.44	226.90
1006.72	226.91
1007.01	226.89
1007.30	226.89
1007.59	226.87
1007.88	226.88
1008.17	226.90
1008.45	226.89
1008.74	226.85
1009.03	226.79
1009.32	226.83
1009.60	226.86
1009.89	226.84
1010.18	226.82
1010.47	226.82
1010.76	226.85
1011.04	226.85
1011.33	226.84
1011.62	226.84
1011.91	226.85
1012.19	226.85
1012.48	226.87
1012.77	226.86
1013.05	226.93
1013.34	226.95
1013.63	226.95
1013.92	226.96
1014.20	226.99
1014.49	227.01
1014.78	227.03
1015.06	227.01
1015.35	227.02
1015.64	227.04
1015.92	227.09
1016.21	227.09
1016.50	227.08
1016.78	227.13
1017.07	227.17
1017.36	227.16
1017.64	227.15
1017.93	227.17
1018.22	227.19
1018.50	227.19
1018.79	227.22
1019.08	227.17
1019.36	227.16
1019.65	227.19
1019.93	227.22
1020.22	227.22
1020.51	227.28
1020.79	227.29
1021.08	227.15
1021.36	227.07
1021.65	227.52
1021.94	227.18
1022.22	227.27
1022.51	227.23
1022.79	227.78
1023.08	227.32
1023.36	228.77
1023.65	226.97
>>>>>End Processed Spectral Data<<<<<
