SpectraSuite Data File
++++++++++++++++++++++++++++++++++++
Date: Fri Feb 01 16:31:10 EST 2013
User: group
Dark Spectrum Present: No
Reference Spectrum Present: No
Number of Sampled Component Spectra: 1
Spectrometers: USB2E7196
Integration Time (usec): 35000 (USB2E7196)
Spectra Averaged: 100 (USB2E7196)
Boxcar Smoothing: 10 (USB2E7196)
Correct for Electrical Dark: No (USB2E7196)
Strobe/Lamp Enabled: No (USB2E7196)
Correct for Detector Non-linearity: No (USB2E7196)
Correct for Stray Light: No (USB2E7196)
Number of Pixels in Processed Spectrum: 2048
>>>>>Begin Processed Spectral Data<<<<<
339.09	0.00
339.48	214.57
339.86	215.64
340.24	217.04
340.63	218.43
341.01	221.87
341.39	221.35
341.78	222.38
342.16	223.19
342.54	224.31
342.93	212.62
343.31	223.39
343.69	223.92
344.07	224.40
344.46	224.82
344.84	225.20
345.22	225.43
345.60	225.65
345.99	225.85
346.37	225.99
346.75	226.10
347.13	226.19
347.52	226.27
347.90	226.35
348.28	226.36
348.66	226.39
349.05	226.39
349.43	226.44
349.81	226.47
350.19	226.52
350.57	226.59
350.96	226.63
351.34	226.67
351.72	226.73
352.10	226.81
352.48	226.84
352.87	226.89
353.25	226.93
353.63	226.99
354.01	227.06
354.39	227.12
354.77	227.18
355.15	227.26
355.54	227.28
355.92	227.29
356.30	227.37
356.68	227.52
357.06	227.58
357.44	227.62
357.82	227.68
358.20	227.73
358.58	227.79
358.97	227.84
359.35	227.92
359.73	227.99
360.11	228.02
360.49	228.11
360.87	228.13
361.25	228.18
361.63	228.25
362.01	228.31
362.39	228.35
362.77	228.38
363.15	228.39
363.53	228.41
363.91	228.41
364.29	228.42
364.67	228.36
365.05	228.37
365.43	228.39
365.81	228.41
366.19	228.46
366.57	228.44
366.95	228.48
367.33	228.48
367.71	228.47
368.09	228.49
368.47	228.47
368.85	228.48
369.23	228.49
369.61	228.46
369.99	228.45
370.37	228.43
370.75	228.43
371.13	228.38
371.51	228.33
371.89	228.31
372.27	228.27
372.65	228.19
373.03	228.14
373.41	228.09
373.78	228.01
374.16	227.91
374.54	227.85
374.92	227.75
375.30	227.67
375.68	227.58
376.06	227.54
376.44	227.47
376.82	227.40
377.19	227.31
377.57	227.25
377.95	227.14
378.33	227.04
378.71	226.92
379.09	226.88
379.47	226.83
379.84	226.77
380.22	226.72
380.60	226.65
380.98	226.56
381.36	226.50
381.73	226.44
382.11	226.41
382.49	226.33
382.87	226.26
383.25	226.22
383.62	226.28
384.00	226.21
384.38	226.17
384.76	226.12
385.13	226.12
385.51	226.05
385.89	226.01
386.27	225.99
386.64	225.97
387.02	225.92
387.40	225.88
387.78	225.83
388.15	225.79
388.53	225.77
388.91	225.78
389.29	225.74
389.66	225.71
390.04	225.66
390.42	225.69
390.79	225.67
391.17	225.64
391.55	225.48
391.92	225.46
392.30	225.45
392.68	225.44
393.05	225.40
393.43	225.41
393.81	225.39
394.18	225.40
394.56	225.40
394.94	225.43
395.31	225.45
395.69	225.52
396.06	225.53
396.44	225.56
396.82	225.59
397.19	225.65
397.57	225.72
397.95	225.77
398.32	225.81
398.70	225.87
399.07	225.92
399.45	226.02
399.82	226.07
400.20	226.14
400.58	226.17
400.95	226.22
401.33	226.33
401.70	226.48
402.08	226.57
402.45	226.70
402.83	226.79
403.20	226.88
403.58	226.95
403.95	227.10
404.33	227.23
404.71	227.33
405.08	227.50
405.46	227.59
405.83	227.74
406.21	227.86
406.58	228.02
406.96	228.21
407.33	228.37
407.70	228.58
408.08	228.83
408.45	229.07
408.83	229.27
409.20	229.46
409.58	229.66
409.95	229.92
410.33	230.16
410.70	230.40
411.08	230.70
411.45	231.02
411.82	231.31
412.20	231.64
412.57	232.04
412.95	232.34
413.32	232.79
413.69	233.21
414.07	233.66
414.44	234.14
414.82	234.58
415.19	235.16
415.56	235.71
415.94	236.25
416.31	236.89
416.68	237.53
417.06	238.26
417.43	238.95
417.81	239.70
418.18	240.47
418.55	241.33
418.93	242.23
419.30	243.12
419.67	244.06
420.04	245.02
420.42	246.01
420.79	247.20
421.16	248.35
421.54	249.52
421.91	250.71
422.28	251.97
422.66	253.32
423.03	254.57
423.40	255.88
423.77	257.30
424.15	258.74
424.52	260.23
424.89	261.84
425.26	263.35
425.64	264.82
426.01	266.42
426.38	268.06
426.75	269.70
427.13	271.39
427.50	273.19
427.87	275.08
428.24	276.97
428.61	278.68
428.99	280.61
429.36	282.70
429.73	284.77
430.10	286.77
430.47	288.80
430.85	290.95
431.22	293.23
431.59	295.60
431.96	297.79
432.33	300.25
432.70	302.55
433.08	305.36
433.45	307.98
433.82	310.56
434.19	313.41
434.56	316.21
434.93	318.88
435.30	321.49
435.68	324.33
436.05	327.12
436.42	329.93
436.79	332.45
437.16	335.15
437.53	337.97
437.90	340.80
438.27	343.53
438.64	346.37
439.01	348.90
439.38	351.11
439.75	353.27
440.13	355.76
440.50	358.14
440.87	360.04
441.24	361.95
441.61	364.06
441.98	365.53
442.35	367.35
442.72	369.20
443.09	370.97
443.46	371.96
443.83	372.55
444.20	373.01
444.57	373.82
444.94	374.10
445.31	374.44
445.68	374.78
446.05	374.84
446.42	374.43
446.79	374.02
447.16	373.59
447.53	373.32
447.90	372.14
448.27	371.01
448.64	369.37
449.01	368.23
449.37	366.32
449.74	364.43
450.11	362.15
450.48	359.60
450.85	357.06
451.22	354.94
451.59	352.92
451.96	351.01
452.33	348.39
452.70	346.06
453.07	343.26
453.43	340.34
453.80	337.58
454.17	334.91
454.54	332.40
454.91	329.67
455.28	327.01
455.65	324.55
456.02	322.08
456.38	319.96
456.75	317.32
457.12	315.09
457.49	312.89
457.86	310.74
458.23	308.99
458.59	306.98
458.96	304.92
459.33	303.07
459.70	301.23
460.07	299.73
460.43	298.02
460.80	296.40
461.17	294.95
461.54	293.48
461.91	292.07
462.27	290.62
462.64	289.36
463.01	287.99
463.38	286.70
463.74	285.35
464.11	284.17
464.48	283.16
464.85	282.08
465.21	281.25
465.58	280.35
465.95	279.24
466.32	278.34
466.68	277.45
467.05	276.58
467.42	275.72
467.78	274.82
468.15	273.95
468.52	273.26
468.88	272.42
469.25	271.66
469.62	271.05
469.98	270.40
470.35	269.80
470.72	269.20
471.08	268.59
471.45	268.07
471.82	267.57
472.18	266.94
472.55	266.48
472.92	265.94
473.28	265.52
473.65	265.10
474.02	264.69
474.38	264.36
474.75	264.05
475.11	263.67
475.48	263.43
475.85	263.21
476.21	263.00
476.58	262.85
476.94	262.72
477.31	262.58
477.67	262.45
478.04	262.35
478.41	262.31
478.77	262.33
479.14	262.29
479.50	262.29
479.87	262.37
480.23	262.45
480.60	262.54
480.96	262.60
481.33	262.86
481.69	263.02
482.06	263.21
482.42	263.39
482.79	263.68
483.15	264.00
483.52	264.37
483.88	264.75
484.25	265.14
484.61	265.57
484.98	266.01
485.34	266.56
485.71	267.15
486.07	267.74
486.44	268.29
486.80	269.01
487.17	269.74
487.53	270.56
487.90	271.42
488.26	272.36
488.62	273.34
488.99	274.24
489.35	275.31
489.72	276.48
490.08	277.67
490.44	278.93
490.81	280.22
491.17	281.59
491.54	283.09
491.90	284.62
492.26	286.28
492.63	288.03
492.99	289.79
493.36	291.69
493.72	293.70
494.08	295.85
494.45	298.09
494.81	300.50
495.17	302.94
495.54	305.56
495.90	308.21
496.26	311.02
496.63	314.05
496.99	317.15
497.35	320.37
497.72	323.80
498.08	327.32
498.44	331.04
498.80	334.94
499.17	338.92
499.53	343.10
499.89	347.49
500.26	351.98
500.62	356.70
500.98	361.69
501.34	366.79
501.71	372.10
502.07	377.55
502.43	383.08
502.79	388.92
503.16	394.96
503.52	401.25
503.88	407.66
504.24	414.30
504.60	421.24
504.97	428.35
505.33	435.68
505.69	443.39
506.05	451.19
506.41	459.08
506.78	467.23
507.14	475.78
507.50	484.45
507.86	493.48
508.22	502.72
508.59	511.91
508.95	521.52
509.31	531.36
509.67	541.45
510.03	551.84
510.39	562.42
510.75	573.15
511.12	584.12
511.48	595.42
511.84	606.79
512.20	618.29
512.56	630.31
512.92	642.49
513.28	654.81
513.64	667.27
514.00	679.99
514.37	692.93
514.73	705.93
515.09	718.95
515.45	732.21
515.81	745.70
516.17	759.74
516.53	773.87
516.89	787.99
517.25	802.14
517.61	816.45
517.97	830.80
518.33	845.32
518.69	860.00
519.05	874.86
519.41	890.03
519.77	905.43
520.13	920.75
520.49	935.97
520.85	951.34
521.21	967.06
521.57	983.33
521.93	999.01
522.29	1015.29
522.65	1031.51
523.01	1047.71
523.37	1063.65
523.73	1079.62
524.09	1095.55
524.45	1111.87
524.81	1128.38
525.17	1145.16
525.53	1162.09
525.89	1178.85
526.25	1195.66
526.61	1212.07
526.97	1228.75
527.33	1245.24
527.68	1261.81
528.04	1278.38
528.40	1294.89
528.76	1311.80
529.12	1328.24
529.48	1345.12
529.84	1361.04
530.20	1377.60
530.56	1394.57
530.91	1411.98
531.27	1428.66
531.63	1445.16
531.99	1461.54
532.35	1477.45
532.71	1493.26
533.07	1509.32
533.42	1525.11
533.78	1541.02
534.14	1557.21
534.50	1572.46
534.86	1588.13
535.21	1603.26
535.57	1619.08
535.93	1634.54
536.29	1649.22
536.65	1664.17
537.00	1678.84
537.36	1694.08
537.72	1708.58
538.08	1722.84
538.44	1736.47
538.79	1750.19
539.15	1763.68
539.51	1777.42
539.87	1791.62
540.22	1805.19
540.58	1818.86
540.94	1832.04
541.29	1845.00
541.65	1857.62
542.01	1870.64
542.37	1882.93
542.72	1895.23
543.08	1906.91
543.44	1919.04
543.79	1930.24
544.15	1940.99
544.51	1952.33
544.87	1963.22
545.22	1973.68
545.58	1983.81
545.94	1993.43
546.29	2003.31
546.65	2013.06
547.01	2022.25
547.36	2030.98
547.72	2039.43
548.07	2047.11
548.43	2055.20
548.79	2063.02
549.14	2070.49
549.50	2077.82
549.86	2085.44
550.21	2092.62
550.57	2099.58
550.92	2106.11
551.28	2113.06
551.64	2120.20
551.99	2126.78
552.35	2132.90
552.70	2139.20
553.06	2145.08
553.41	2151.41
553.77	2157.30
554.13	2163.41
554.48	2169.53
554.84	2175.03
555.19	2180.39
555.55	2185.67
555.90	2190.06
556.26	2194.85
556.61	2199.41
556.97	2203.54
557.32	2207.72
557.68	2211.91
558.03	2216.29
558.39	2220.03
558.74	2224.51
559.10	2228.33
559.45	2231.98
559.81	2236.21
560.16	2240.04
560.52	2243.37
560.87	2246.75
561.23	2249.52
561.58	2252.49
561.94	2254.87
562.29	2257.22
562.64	2259.89
563.00	2262.46
563.35	2266.13
563.71	2269.43
564.06	2272.78
564.42	2275.76
564.77	2278.33
565.12	2280.58
565.48	2282.58
565.83	2284.57
566.19	2286.07
566.54	2287.04
566.89	2288.25
567.25	2288.94
567.60	2290.21
567.96	2291.80
568.31	2292.66
568.66	2293.91
569.02	2294.45
569.37	2294.83
569.72	2295.88
570.08	2295.91
570.43	2296.09
570.78	2295.59
571.14	2293.89
571.49	2292.50
571.84	2292.42
572.20	2291.48
572.55	2290.49
572.90	2288.92
573.26	2287.59
573.61	2285.96
573.96	2284.38
574.31	2281.49
574.67	2278.47
575.02	2274.85
575.37	2271.52
575.72	2267.96
576.08	2264.56
576.43	2261.36
576.78	2257.83
577.13	2254.64
577.49	2251.65
577.84	2248.14
578.19	2244.52
578.54	2241.23
578.90	2237.20
579.25	2231.60
579.60	2226.48
579.95	2221.65
580.30	2216.67
580.66	2211.53
581.01	2206.58
581.36	2201.64
581.71	2197.61
582.06	2193.37
582.42	2189.21
582.77	2184.16
583.12	2179.69
583.47	2175.13
583.82	2170.21
584.17	2164.97
584.53	2159.43
584.88	2153.95
585.23	2148.17
585.58	2142.69
585.93	2137.20
586.28	2132.47
586.63	2127.46
586.98	2122.58
587.34	2117.80
587.69	2113.06
588.04	2107.95
588.39	2102.40
588.74	2095.92
589.09	2089.60
589.44	2082.72
589.79	2076.66
590.14	2071.19
590.49	2064.65
590.84	2058.36
591.19	2052.35
591.54	2045.99
591.89	2038.77
592.25	2032.03
592.60	2025.00
592.95	2017.51
593.30	2010.18
593.65	2002.62
594.00	1995.68
594.35	1988.48
594.70	1980.71
595.05	1973.57
595.40	1966.21
595.75	1958.81
596.10	1952.68
596.45	1946.07
596.80	1940.04
597.15	1933.48
597.50	1926.35
597.85	1919.93
598.19	1913.16
598.54	1906.02
598.89	1899.49
599.24	1893.58
599.59	1886.86
599.94	1880.62
600.29	1874.25
600.64	1867.73
600.99	1860.38
601.34	1853.60
601.69	1846.64
602.04	1839.58
602.39	1832.17
602.74	1825.34
603.08	1818.55
603.43	1811.91
603.78	1804.65
604.13	1797.49
604.48	1790.19
604.83	1783.27
605.18	1776.27
605.53	1768.41
605.87	1760.62
606.22	1753.30
606.57	1745.33
606.92	1738.13
607.27	1731.10
607.62	1724.16
607.96	1716.92
608.31	1710.37
608.66	1702.72
609.01	1695.17
609.36	1687.78
609.70	1679.87
610.05	1671.93
610.40	1664.34
610.75	1655.98
611.10	1648.38
611.44	1640.01
611.79	1631.99
612.14	1623.43
612.49	1614.29
612.83	1605.99
613.18	1597.78
613.53	1589.74
613.88	1581.23
614.22	1572.95
614.57	1564.21
614.92	1556.19
615.27	1548.58
615.61	1540.17
615.96	1532.20
616.31	1524.51
616.65	1517.05
617.00	1509.37
617.35	1501.75
617.70	1493.34
618.04	1484.85
618.39	1476.58
618.74	1468.94
619.08	1460.78
619.43	1453.17
619.78	1446.27
620.12	1438.99
620.47	1431.52
620.82	1423.42
621.16	1416.03
621.51	1408.41
621.85	1400.80
622.20	1392.42
622.55	1384.00
622.89	1376.13
623.24	1368.39
623.59	1361.10
623.93	1353.58
624.28	1346.45
624.62	1338.83
624.97	1331.75
625.32	1325.05
625.66	1318.09
626.01	1310.98
626.35	1303.46
626.70	1295.75
627.04	1288.00
627.39	1280.16
627.73	1272.77
628.08	1265.74
628.43	1258.42
628.77	1251.01
629.12	1243.58
629.46	1236.33
629.81	1228.92
630.15	1221.73
630.50	1214.41
630.84	1206.21
631.19	1198.33
631.53	1190.84
631.88	1183.33
632.22	1175.63
632.57	1168.28
632.91	1160.67
633.26	1153.18
633.60	1145.79
633.95	1138.60
634.29	1131.65
634.64	1125.06
634.98	1117.63
635.32	1110.50
635.67	1103.93
636.01	1097.39
636.36	1090.58
636.70	1083.98
637.05	1077.54
637.39	1071.06
637.73	1064.54
638.08	1058.58
638.42	1052.49
638.77	1046.01
639.11	1039.37
639.45	1033.05
639.80	1026.40
640.14	1020.06
640.49	1013.55
640.83	1007.20
641.17	1000.97
641.52	994.58
641.86	988.07
642.20	982.22
642.55	975.86
642.89	969.33
643.23	962.69
643.58	956.89
643.92	950.75
644.26	944.65
644.61	938.62
644.95	932.59
645.29	925.92
645.64	919.24
645.98	912.83
646.32	907.09
646.66	901.05
647.01	895.24
647.35	889.42
647.69	883.52
648.04	878.13
648.38	872.28
648.72	866.26
649.06	860.23
649.41	854.34
649.75	848.47
650.09	842.49
650.43	836.77
650.78	830.54
651.12	824.55
651.46	818.78
651.80	813.06
652.14	807.67
652.49	802.36
652.83	797.21
653.17	791.54
653.51	785.72
653.85	780.35
654.20	774.73
654.54	768.75
654.88	762.96
655.22	756.96
655.56	751.30
655.90	745.88
656.25	740.66
656.59	735.28
656.93	730.22
657.27	725.08
657.61	719.52
657.95	714.41
658.29	709.34
658.64	704.13
658.98	698.81
659.32	693.37
659.66	688.23
660.00	682.87
660.34	677.95
660.68	673.01
661.02	667.88
661.36	663.07
661.70	658.54
662.05	654.22
662.39	649.88
662.73	645.46
663.07	641.06
663.41	636.57
663.75	632.15
664.09	627.58
664.43	623.18
664.77	619.07
665.11	614.87
665.45	610.72
665.79	606.60
666.13	602.51
666.47	598.38
666.81	594.19
667.15	590.04
667.49	586.12
667.83	582.40
668.17	578.49
668.51	574.43
668.85	570.42
669.19	566.68
669.53	562.84
669.87	558.93
670.21	555.20
670.55	551.54
670.89	548.07
671.23	544.58
671.57	541.15
671.91	537.68
672.25	534.18
672.58	530.69
672.92	527.25
673.26	524.05
673.60	520.85
673.94	517.78
674.28	514.97
674.62	512.05
674.96	508.91
675.30	505.98
675.64	503.10
675.97	500.29
676.31	497.37
676.65	494.44
676.99	491.72
677.33	488.94
677.67	486.15
678.01	483.11
678.34	480.14
678.68	477.22
679.02	474.38
679.36	471.58
679.70	468.88
680.04	466.15
680.37	463.25
680.71	460.53
681.05	457.86
681.39	455.08
681.73	452.36
682.06	449.79
682.40	447.28
682.74	444.74
683.08	442.24
683.42	439.61
683.75	437.08
684.09	434.51
684.43	432.00
684.77	429.50
685.10	427.07
685.44	424.78
685.78	422.45
686.12	420.19
686.45	417.90
686.79	415.54
687.13	413.33
687.46	411.15
687.80	408.93
688.14	406.69
688.48	404.62
688.81	402.41
689.15	400.29
689.49	398.13
689.82	396.02
690.16	393.92
690.50	392.00
690.83	390.05
691.17	388.07
691.51	386.16
691.84	384.29
692.18	382.45
692.52	380.45
692.85	378.45
693.19	376.54
693.52	374.71
693.86	372.92
694.20	371.17
694.53	369.41
694.87	367.53
695.21	365.73
695.54	363.92
695.88	362.16
696.21	360.41
696.55	358.69
696.88	357.00
697.22	355.29
697.56	353.61
697.89	351.96
698.23	350.37
698.56	348.74
698.90	347.18
699.23	345.45
699.57	343.90
699.90	342.43
700.24	340.93
700.58	339.39
700.91	337.86
701.25	336.39
701.58	334.97
701.92	333.61
702.25	332.27
702.59	330.89
702.92	329.57
703.26	328.27
703.59	327.01
703.93	325.80
704.26	324.56
704.60	323.25
704.93	321.98
705.26	320.76
705.60	319.59
705.93	318.38
706.27	317.41
706.60	316.36
706.94	315.26
707.27	314.09
707.61	313.03
707.94	312.00
708.27	310.88
708.61	309.81
708.94	308.82
709.28	307.84
709.61	306.88
709.94	305.95
710.28	304.94
710.61	303.97
710.95	302.94
711.28	302.06
711.61	301.16
711.95	300.27
712.28	299.29
712.61	298.27
712.95	297.39
713.28	296.52
713.61	295.64
713.95	294.77
714.28	293.92
714.61	293.08
714.95	292.26
715.28	291.44
715.61	290.58
715.95	289.71
716.28	288.85
716.61	288.00
716.95	287.16
717.28	286.42
717.61	285.63
717.94	284.87
718.28	284.09
718.61	283.36
718.94	282.68
719.27	282.03
719.61	281.43
719.94	280.74
720.27	279.96
720.60	279.27
720.94	278.63
721.27	278.03
721.60	277.46
721.93	276.88
722.27	276.34
722.60	275.79
722.93	275.25
723.26	274.71
723.59	274.17
723.93	273.63
724.26	273.10
724.59	272.54
724.92	272.02
725.25	271.50
725.59	270.97
725.92	270.44
726.25	269.91
726.58	269.44
726.91	268.98
727.24	268.53
727.57	268.07
727.91	267.56
728.24	267.13
728.57	266.63
728.90	266.19
729.23	265.68
729.56	265.23
729.89	264.75
730.22	264.28
730.55	263.81
730.89	263.34
731.22	262.86
731.55	262.43
731.88	261.99
732.21	261.56
732.54	261.13
732.87	260.69
733.20	260.31
733.53	259.89
733.86	259.47
734.19	259.08
734.52	258.68
734.85	258.38
735.18	257.90
735.51	257.53
735.84	257.09
736.17	256.75
736.50	256.32
736.83	256.09
737.16	255.72
737.49	255.36
737.82	255.01
738.15	254.68
738.48	254.35
738.81	254.03
739.14	253.69
739.47	253.39
739.80	253.09
740.13	252.79
740.46	252.45
740.79	252.14
741.12	251.80
741.45	251.46
741.78	251.15
742.11	250.89
742.44	250.55
742.77	250.30
743.10	249.98
743.43	249.71
743.75	249.31
744.08	249.20
744.41	248.94
744.74	248.68
745.07	248.39
745.40	248.14
745.73	247.90
746.06	247.62
746.39	247.35
746.71	247.11
747.04	246.80
747.37	246.53
747.70	246.30
748.03	246.06
748.36	245.83
748.68	245.54
749.01	245.32
749.34	245.08
749.67	244.83
750.00	244.61
750.33	244.46
750.65	244.25
750.98	243.88
751.31	243.66
751.64	243.49
751.97	243.32
752.29	243.12
752.62	242.86
752.95	242.65
753.28	242.42
753.60	242.20
753.93	242.05
754.26	241.89
754.59	241.64
754.91	241.42
755.24	241.24
755.57	241.05
755.90	240.86
756.22	240.65
756.55	240.45
756.88	240.23
757.20	240.00
757.53	239.79
757.86	239.61
758.19	239.45
758.51	239.27
758.84	239.06
759.17	238.86
759.49	238.71
759.82	238.58
760.15	238.46
760.47	238.27
760.80	238.09
761.13	237.93
761.45	237.76
761.78	237.63
762.11	237.47
762.43	237.34
762.76	237.19
763.08	237.12
763.41	237.00
763.74	236.88
764.06	236.74
764.39	236.63
764.71	236.52
765.04	236.36
765.37	236.20
765.69	236.03
766.02	235.90
766.34	235.77
766.67	235.62
767.00	235.50
767.32	235.46
767.65	235.42
767.97	235.30
768.30	235.23
768.62	235.12
768.95	235.01
769.27	234.88
769.60	234.81
769.92	234.67
770.25	234.53
770.57	234.42
770.90	234.28
771.22	234.17
771.55	234.03
771.87	233.96
772.20	233.88
772.52	233.88
772.85	233.92
773.17	233.85
773.50	233.76
773.82	233.65
774.15	233.51
774.47	233.36
774.80	233.27
775.12	233.20
775.45	233.11
775.77	233.03
776.09	232.98
776.42	232.88
776.74	232.83
777.07	232.79
777.39	232.73
777.72	232.67
778.04	232.60
778.36	232.54
778.69	232.49
779.01	232.41
779.33	232.26
779.66	232.09
779.98	232.01
780.31	231.94
780.63	231.91
780.95	231.84
781.28	231.79
781.60	231.72
781.92	231.65
782.25	231.60
782.57	231.54
782.89	231.49
783.22	231.43
783.54	231.37
783.86	231.33
784.19	231.27
784.51	231.26
784.83	231.18
785.16	231.14
785.48	231.08
785.80	231.06
786.12	231.04
786.45	230.98
786.77	230.92
787.09	230.87
787.42	230.79
787.74	230.80
788.06	230.73
788.38	230.69
788.71	230.60
789.03	230.56
789.35	230.52
789.67	230.45
789.99	230.43
790.32	230.37
790.64	230.33
790.96	230.37
791.28	230.30
791.61	230.28
791.93	230.23
792.25	230.15
792.57	230.16
792.89	230.12
793.21	230.08
793.54	230.06
793.86	230.01
794.18	230.00
794.50	229.93
794.82	229.91
795.14	229.92
795.47	229.91
795.79	229.87
796.11	229.84
796.43	229.81
796.75	229.76
797.07	229.74
797.39	229.72
797.71	229.59
798.04	229.55
798.36	229.51
798.68	229.47
799.00	229.50
799.32	229.44
799.64	229.42
799.96	229.41
800.28	229.36
800.60	229.36
800.92	229.31
801.24	229.26
801.56	229.23
801.89	229.16
802.21	229.11
802.53	229.10
802.85	229.07
803.17	229.10
803.49	229.05
803.81	228.99
804.13	228.91
804.45	228.92
804.77	228.92
805.09	228.90
805.41	228.86
805.73	228.78
806.05	228.72
806.37	228.69
806.69	228.67
807.01	228.65
807.33	228.59
807.65	228.55
807.97	228.60
808.28	228.54
808.60	228.52
808.92	228.52
809.24	228.53
809.56	228.55
809.88	228.44
810.20	228.44
810.52	228.47
810.84	228.42
811.16	228.39
811.48	228.34
811.80	228.37
812.12	228.39
812.43	228.39
812.75	228.38
813.07	228.35
813.39	228.31
813.71	228.29
814.03	228.30
814.35	228.29
814.67	228.23
814.98	228.23
815.30	228.21
815.62	228.18
815.94	228.10
816.26	228.10
816.58	228.10
816.89	228.08
817.21	228.03
817.53	228.03
817.85	228.02
818.17	227.98
818.48	227.92
818.80	227.93
819.12	227.95
819.44	227.90
819.76	227.88
820.07	227.84
820.39	227.83
820.71	227.82
821.03	227.86
821.34	227.82
821.66	227.81
821.98	227.82
822.30	227.77
822.61	227.81
822.93	227.77
823.25	227.76
823.57	227.72
823.88	227.73
824.20	227.73
824.52	227.72
824.83	227.73
825.15	227.69
825.47	227.63
825.79	227.61
826.10	227.60
826.42	227.57
826.74	227.59
827.05	227.57
827.37	227.55
827.69	227.44
828.00	227.44
828.32	227.45
828.64	227.45
828.95	227.46
829.27	227.44
829.58	227.39
829.90	227.38
830.22	227.41
830.53	227.36
830.85	227.35
831.17	227.31
831.48	227.30
831.80	227.31
832.11	227.30
832.43	227.26
832.75	227.24
833.06	227.33
833.38	227.33
833.69	227.32
834.01	227.34
834.32	227.39
834.64	227.37
834.96	227.36
835.27	227.36
835.59	227.38
835.90	227.36
836.22	227.38
836.53	227.35
836.85	227.32
837.16	227.45
837.48	227.45
837.79	227.47
838.11	227.48
838.42	227.47
838.74	227.50
839.05	227.48
839.37	227.49
839.68	227.41
840.00	227.35
840.31	227.36
840.63	227.32
840.94	227.29
841.26	227.28
841.57	227.28
841.88	227.24
842.20	227.20
842.51	227.18
842.83	227.16
843.14	227.24
843.46	227.25
843.77	227.15
844.08	227.15
844.40	227.09
844.71	227.05
845.03	227.03
845.34	227.01
845.65	227.01
845.97	227.01
846.28	226.96
846.60	227.01
846.91	226.94
847.22	226.94
847.54	226.95
847.85	226.94
848.16	226.88
848.48	226.85
848.79	226.87
849.10	226.88
849.42	226.89
849.73	226.78
850.04	226.75
850.36	226.70
850.67	226.72
850.98	226.71
851.30	226.72
851.61	226.72
851.92	226.73
852.23	226.73
852.55	226.72
852.86	226.74
853.17	226.70
853.49	226.73
853.80	226.74
854.11	226.73
854.42	226.72
854.74	226.76
855.05	226.77
855.36	226.71
855.67	226.67
855.99	226.63
856.30	226.77
856.61	226.79
856.92	226.78
857.23	226.76
857.55	226.73
857.86	226.70
858.17	226.70
858.48	226.67
858.79	226.67
859.11	226.69
859.42	226.67
859.73	226.65
860.04	226.64
860.35	226.61
860.66	226.61
860.98	226.59
861.29	226.59
861.60	226.58
861.91	226.60
862.22	226.60
862.53	226.57
862.84	226.45
863.16	226.44
863.47	226.42
863.78	226.43
864.09	226.44
864.40	226.49
864.71	226.49
865.02	226.49
865.33	226.48
865.64	226.47
865.95	226.48
866.27	226.58
866.58	226.57
866.89	226.58
867.20	226.57
867.51	226.57
867.82	226.56
868.13	226.56
868.44	226.54
868.75	226.54
869.06	226.56
869.37	226.56
869.68	226.54
869.99	226.57
870.30	226.56
870.61	226.61
870.92	226.57
871.23	226.55
871.54	226.57
871.85	226.58
872.16	226.56
872.47	226.57
872.78	226.49
873.09	226.51
873.40	226.51
873.71	226.51
874.02	226.52
874.33	226.52
874.64	226.49
874.95	226.53
875.26	226.53
875.56	226.56
875.87	226.55
876.18	226.53
876.49	226.63
876.80	226.62
877.11	226.61
877.42	226.60
877.73	226.62
878.04	226.59
878.35	226.59
878.66	226.60
878.96	226.59
879.27	226.57
879.58	226.53
879.89	226.53
880.20	226.56
880.51	226.53
880.82	226.55
881.12	226.61
881.43	226.57
881.74	226.54
882.05	226.55
882.36	226.56
882.67	226.59
882.97	226.47
883.28	226.45
883.59	226.42
883.90	226.43
884.21	226.44
884.51	226.43
884.82	226.40
885.13	226.38
885.44	226.38
885.74	226.38
886.05	226.39
886.36	226.36
886.67	226.28
886.98	226.35
887.28	226.33
887.59	226.31
887.90	226.32
888.20	226.34
888.51	226.35
888.82	226.34
889.13	226.34
889.43	226.39
889.74	226.42
890.05	226.44
890.35	226.42
890.66	226.40
890.97	226.41
891.28	226.41
891.58	226.39
891.89	226.38
892.20	226.37
892.50	226.33
892.81	226.32
893.12	226.36
893.42	226.29
893.73	226.30
894.04	226.27
894.34	226.26
894.65	226.22
894.95	226.21
895.26	226.18
895.57	226.21
895.87	226.13
896.18	226.11
896.48	226.09
896.79	226.11
897.10	226.13
897.40	226.12
897.71	226.11
898.01	226.14
898.32	226.16
898.63	226.17
898.93	226.20
899.24	226.23
899.54	226.24
899.85	226.21
900.15	226.17
900.46	226.18
900.76	226.20
901.07	226.21
901.38	226.18
901.68	226.23
901.99	226.21
902.29	226.20
902.60	226.21
902.90	226.20
903.21	226.19
903.51	226.18
903.82	226.20
904.12	226.24
904.43	226.22
904.73	226.21
905.03	226.21
905.34	226.29
905.64	226.26
905.95	226.24
906.25	226.24
906.56	226.27
906.86	226.28
907.17	226.25
907.47	226.28
907.77	226.29
908.08	226.27
908.38	226.24
908.69	226.28
908.99	226.31
909.30	226.33
909.60	226.33
909.90	226.31
910.21	226.30
910.51	226.27
910.81	226.30
911.12	226.30
911.42	226.29
911.73	226.19
912.03	226.22
912.33	226.29
912.64	226.33
912.94	226.33
913.24	226.31
913.55	226.33
913.85	226.33
914.15	226.33
914.46	226.33
914.76	226.35
915.06	226.32
915.37	226.26
915.67	226.25
915.97	226.23
916.27	226.24
916.58	226.23
916.88	226.22
917.18	226.21
917.49	226.25
917.79	226.26
918.09	226.26
918.39	226.28
918.70	226.24
919.00	226.22
919.30	226.26
919.60	226.28
919.91	226.25
920.21	226.25
920.51	226.24
920.81	226.21
921.12	226.23
921.42	226.25
921.72	226.28
922.02	226.28
922.32	226.32
922.63	226.29
922.93	226.35
923.23	226.32
923.53	226.30
923.83	226.24
924.13	226.22
924.44	226.23
924.74	226.21
925.04	226.20
925.34	226.20
925.64	226.14
925.94	226.14
926.24	226.22
926.55	226.22
926.85	226.23
927.15	226.26
927.45	226.22
927.75	226.23
928.05	226.23
928.35	226.21
928.65	226.18
928.95	226.21
929.26	226.12
929.56	226.17
929.86	226.15
930.16	226.13
930.46	226.14
930.76	226.16
931.06	226.14
931.36	226.12
931.66	226.15
931.96	226.13
932.26	226.14
932.56	226.06
932.86	226.04
933.16	226.04
933.46	226.03
933.76	225.99
934.06	226.00
934.36	226.01
934.66	225.99
934.96	225.99
935.26	225.96
935.56	225.99
935.86	225.97
936.16	225.98
936.46	225.99
936.76	225.99
937.06	225.97
937.36	225.96
937.66	225.97
937.96	225.93
938.26	225.89
938.56	225.86
938.86	225.86
939.16	225.87
939.46	225.92
939.76	225.91
940.06	225.92
940.35	225.89
940.65	225.86
940.95	225.88
941.25	225.86
941.55	225.85
941.85	225.89
942.15	225.88
942.45	225.91
942.75	225.89
943.04	225.89
943.34	225.91
943.64	225.89
943.94	225.90
944.24	225.92
944.54	225.95
944.84	225.98
945.13	225.97
945.43	225.96
945.73	225.92
946.03	225.90
946.33	225.94
946.62	225.92
946.92	225.93
947.22	225.92
947.52	225.93
947.82	225.97
948.11	225.95
948.41	225.98
948.71	225.96
949.01	225.98
949.31	225.97
949.60	225.97
949.90	226.00
950.20	225.99
950.50	225.98
950.79	226.01
951.09	226.01
951.39	226.01
951.69	226.03
951.98	226.06
952.28	226.08
952.58	226.07
952.87	226.08
953.17	226.10
953.47	226.10
953.76	226.08
954.06	226.07
954.36	226.05
954.66	226.03
954.95	226.05
955.25	226.07
955.55	226.09
955.84	226.06
956.14	226.10
956.44	226.11
956.73	226.10
957.03	226.08
957.32	226.09
957.62	226.09
957.92	226.11
958.21	226.09
958.51	226.17
958.81	226.16
959.10	226.18
959.40	226.21
959.69	226.23
959.99	226.26
960.29	226.26
960.58	226.25
960.88	226.28
961.17	226.25
961.47	226.26
961.76	226.22
962.06	226.27
962.36	226.24
962.65	226.26
962.95	226.26
963.24	226.25
963.54	226.25
963.83	226.26
964.13	226.24
964.42	226.20
964.72	226.13
965.01	226.15
965.31	226.10
965.60	226.07
965.90	226.12
966.19	226.10
966.49	226.11
966.78	226.11
967.08	226.10
967.37	226.12
967.67	226.09
967.96	226.10
968.26	226.08
968.55	226.05
968.85	226.03
969.14	226.03
969.43	226.03
969.73	226.01
970.02	225.99
970.32	225.97
970.61	225.98
970.91	225.94
971.20	225.93
971.49	225.91
971.79	225.90
972.08	225.83
972.38	225.82
972.67	225.80
972.96	225.80
973.26	225.77
973.55	225.78
973.85	225.74
974.14	225.74
974.43	225.70
974.73	225.70
975.02	225.71
975.31	225.70
975.61	225.70
975.90	225.69
976.19	225.70
976.49	225.68
976.78	225.67
977.07	225.64
977.37	225.66
977.66	225.71
977.95	225.71
978.24	225.67
978.54	225.69
978.83	225.70
979.12	225.68
979.42	225.69
979.71	225.65
980.00	225.64
980.29	225.63
980.59	225.63
980.88	225.64
981.17	225.63
981.46	225.62
981.76	225.60
982.05	225.61
982.34	225.60
982.63	225.60
982.93	225.62
983.22	225.66
983.51	225.66
983.80	225.65
984.09	225.69
984.39	225.71
984.68	225.68
984.97	225.66
985.26	225.69
985.55	225.70
985.85	225.70
986.14	225.77
986.43	225.78
986.72	225.79
987.01	225.80
987.30	225.81
987.59	225.83
987.89	225.87
988.18	225.83
988.47	225.86
988.76	225.87
989.05	225.84
989.34	225.83
989.63	225.84
989.92	225.83
990.22	225.80
990.51	225.80
990.80	225.80
991.09	225.80
991.38	225.80
991.67	225.81
991.96	225.82
992.25	225.81
992.54	225.81
992.83	225.84
993.12	225.80
993.41	225.82
993.70	225.86
993.99	225.87
994.28	225.91
994.58	225.93
994.87	225.91
995.16	225.95
995.45	225.94
995.74	225.91
996.03	225.91
996.32	225.95
996.61	225.96
996.90	225.99
997.19	225.99
997.48	226.02
997.77	226.00
998.06	225.98
998.34	225.95
998.63	225.95
998.92	225.94
999.21	225.99
999.50	225.99
999.79	225.97
1000.08	225.98
1000.37	225.99
1000.66	225.96
1000.95	226.01
1001.24	226.00
1001.53	226.05
1001.82	226.06
1002.11	226.03
1002.40	226.02
1002.68	226.08
1002.97	226.13
1003.26	226.14
1003.55	226.11
1003.84	226.13
1004.13	226.15
1004.42	226.15
1004.71	226.13
1004.99	226.11
1005.28	226.14
1005.57	226.14
1005.86	226.10
1006.15	226.09
1006.44	226.05
1006.72	226.06
1007.01	226.03
1007.30	226.01
1007.59	225.96
1007.88	225.95
1008.17	225.96
1008.45	225.94
1008.74	225.87
1009.03	225.82
1009.32	225.81
1009.60	225.78
1009.89	225.75
1010.18	225.73
1010.47	225.70
1010.76	225.69
1011.04	225.68
1011.33	225.66
1011.62	225.64
1011.91	225.67
1012.19	225.68
1012.48	225.71
1012.77	225.71
1013.05	225.76
1013.34	225.79
1013.63	225.80
1013.92	225.83
1014.20	225.84
1014.49	225.84
1014.78	225.85
1015.06	225.82
1015.35	225.83
1015.64	225.85
1015.92	225.87
1016.21	225.87
1016.50	225.91
1016.78	225.94
1017.07	225.95
1017.36	225.95
1017.64	225.91
1017.93	225.93
1018.22	225.91
1018.50	225.90
1018.79	225.86
1019.08	225.79
1019.36	225.81
1019.65	225.79
1019.93	225.83
1020.22	225.86
1020.51	225.91
1020.79	225.89
1021.08	225.85
1021.36	225.78
1021.65	225.14
1021.94	225.67
1022.22	226.26
1022.51	225.42
1022.79	226.98
1023.08	226.31
1023.36	227.20
1023.65	225.19
>>>>>End Processed Spectral Data<<<<<
