SpectraSuite Data File
++++++++++++++++++++++++++++++++++++
Date: Fri Feb 01 16:10:09 EST 2013
User: group
Dark Spectrum Present: No
Reference Spectrum Present: No
Number of Sampled Component Spectra: 1
Spectrometers: USB2E7196
Integration Time (usec): 35000 (USB2E7196)
Spectra Averaged: 100 (USB2E7196)
Boxcar Smoothing: 10 (USB2E7196)
Correct for Electrical Dark: No (USB2E7196)
Strobe/Lamp Enabled: No (USB2E7196)
Correct for Detector Non-linearity: No (USB2E7196)
Correct for Stray Light: No (USB2E7196)
Number of Pixels in Processed Spectrum: 2048
>>>>>Begin Processed Spectral Data<<<<<
339.09	0.00
339.48	215.11
339.86	216.29
340.24	217.56
340.63	218.73
341.01	221.55
341.39	221.82
341.78	222.32
342.16	223.87
342.54	224.62
342.93	212.95
343.31	223.73
343.69	224.23
344.07	224.70
344.46	225.12
344.84	225.49
345.22	225.73
345.60	225.96
345.99	226.16
346.37	226.28
346.75	226.37
347.13	226.40
347.52	226.45
347.90	226.51
348.28	226.50
348.66	226.56
349.05	226.55
349.43	226.58
349.81	226.64
350.19	226.62
350.57	226.70
350.96	226.81
351.34	226.86
351.72	226.94
352.10	227.02
352.48	227.09
352.87	227.17
353.25	227.26
353.63	227.30
354.01	227.38
354.39	227.44
354.77	227.52
355.15	227.60
355.54	227.66
355.92	227.68
356.30	227.77
356.68	227.86
357.06	227.92
357.44	227.97
357.82	228.01
358.20	228.12
358.58	228.17
358.97	228.17
359.35	228.27
359.73	228.37
360.11	228.39
360.49	228.44
360.87	228.48
361.25	228.50
361.63	228.57
362.01	228.59
362.39	228.62
362.77	228.64
363.15	228.68
363.53	228.70
363.91	228.72
364.29	228.75
364.67	228.67
365.05	228.70
365.43	228.75
365.81	228.75
366.19	228.74
366.57	228.82
366.95	228.82
367.33	228.76
367.71	228.72
368.09	228.74
368.47	228.70
368.85	228.66
369.23	228.65
369.61	228.59
369.99	228.63
370.37	228.63
370.75	228.65
371.13	228.62
371.51	228.54
371.89	228.54
372.27	228.50
372.65	228.47
373.03	228.44
373.41	228.37
373.78	228.33
374.16	228.28
374.54	228.15
374.92	228.08
375.30	228.05
375.68	227.99
376.06	227.92
376.44	227.87
376.82	227.84
377.19	227.75
377.57	227.67
377.95	227.55
378.33	227.47
378.71	227.34
379.09	227.27
379.47	227.24
379.84	227.13
380.22	227.06
380.60	226.98
380.98	226.88
381.36	226.79
381.73	226.72
382.11	226.65
382.49	226.60
382.87	226.53
383.25	226.47
383.62	226.48
384.00	226.43
384.38	226.38
384.76	226.31
385.13	226.30
385.51	226.24
385.89	226.22
386.27	226.16
386.64	226.13
387.02	226.09
387.40	226.04
387.78	226.03
388.15	226.01
388.53	225.98
388.91	225.97
389.29	225.98
389.66	225.98
390.04	225.96
390.42	225.97
390.79	225.95
391.17	225.96
391.55	225.86
391.92	225.82
392.30	225.84
392.68	225.84
393.05	225.87
393.43	225.90
393.81	225.91
394.18	225.91
394.56	225.94
394.94	225.95
395.31	225.97
395.69	226.01
396.06	226.01
396.44	226.06
396.82	226.11
397.19	226.17
397.57	226.21
397.95	226.28
398.32	226.31
398.70	226.40
399.07	226.46
399.45	226.53
399.82	226.64
400.20	226.66
400.58	226.74
400.95	226.74
401.33	226.86
401.70	226.99
402.08	227.09
402.45	227.20
402.83	227.34
403.20	227.46
403.58	227.56
403.95	227.72
404.33	227.83
404.71	227.97
405.08	228.15
405.46	228.30
405.83	228.46
406.21	228.59
406.58	228.77
406.96	228.94
407.33	229.12
407.70	229.29
408.08	229.59
408.45	229.83
408.83	230.10
409.20	230.30
409.58	230.46
409.95	230.74
410.33	230.99
410.70	231.23
411.08	231.53
411.45	231.83
411.82	232.13
412.20	232.48
412.57	232.85
412.95	233.11
413.32	233.50
413.69	233.89
414.07	234.34
414.44	234.80
414.82	235.28
415.19	235.84
415.56	236.37
415.94	236.89
416.31	237.49
416.68	238.11
417.06	238.83
417.43	239.54
417.81	240.33
418.18	241.12
418.55	241.91
418.93	242.77
419.30	243.67
419.67	244.60
420.04	245.53
420.42	246.56
420.79	247.73
421.16	248.87
421.54	250.05
421.91	251.24
422.28	252.46
422.66	253.76
423.03	255.06
423.40	256.38
423.77	257.79
424.15	259.24
424.52	260.72
424.89	262.32
425.26	263.89
425.64	265.31
426.01	266.88
426.38	268.55
426.75	270.19
427.13	271.91
427.50	273.68
427.87	275.54
428.24	277.40
428.61	279.18
428.99	281.10
429.36	283.19
429.73	285.25
430.10	287.26
430.47	289.32
430.85	291.43
431.22	293.68
431.59	296.07
431.96	298.31
432.33	300.78
432.70	303.14
433.08	305.90
433.45	308.54
433.82	311.17
434.19	314.04
434.56	316.86
434.93	319.52
435.30	322.17
435.68	325.11
436.05	327.91
436.42	330.69
436.79	333.24
437.16	335.94
437.53	338.75
437.90	341.57
438.27	344.28
438.64	347.09
439.01	349.68
439.38	351.92
439.75	354.07
440.13	356.51
440.50	358.85
440.87	360.74
441.24	362.67
441.61	364.77
441.98	366.24
442.35	368.01
442.72	369.87
443.09	371.66
443.46	372.61
443.83	373.15
444.20	373.64
444.57	374.47
444.94	374.74
445.31	375.05
445.68	375.41
446.05	375.48
446.42	375.09
446.79	374.66
447.16	374.19
447.53	373.87
447.90	372.71
448.27	371.54
448.64	369.92
449.01	368.78
449.37	366.87
449.74	364.98
450.11	362.78
450.48	360.27
450.85	357.78
451.22	355.64
451.59	353.65
451.96	351.73
452.33	349.15
452.70	346.81
453.07	344.02
453.43	341.11
453.80	338.33
454.17	335.71
454.54	333.18
454.91	330.46
455.28	327.81
455.65	325.37
456.02	322.90
456.38	320.77
456.75	318.14
457.12	315.87
457.49	313.68
457.86	311.52
458.23	309.68
458.59	307.59
458.96	305.52
459.33	303.70
459.70	301.83
460.07	300.28
460.43	298.59
460.80	297.00
461.17	295.61
461.54	294.15
461.91	292.69
462.27	291.26
462.64	290.03
463.01	288.63
463.38	287.31
463.74	285.99
464.11	284.82
464.48	283.77
464.85	282.63
465.21	281.78
465.58	280.85
465.95	279.77
466.32	278.87
466.68	277.97
467.05	277.05
467.42	276.16
467.78	275.24
468.15	274.34
468.52	273.66
468.88	272.78
469.25	272.02
469.62	271.43
469.98	270.75
470.35	270.13
470.72	269.58
471.08	268.96
471.45	268.41
471.82	267.85
472.18	267.27
472.55	266.90
472.92	266.36
473.28	265.90
473.65	265.45
474.02	265.02
474.38	264.65
474.75	264.32
475.11	264.03
475.48	263.76
475.85	263.57
476.21	263.35
476.58	263.17
476.94	263.03
477.31	262.84
477.67	262.68
478.04	262.58
478.41	262.51
478.77	262.56
479.14	262.51
479.50	262.57
479.87	262.65
480.23	262.71
480.60	262.78
480.96	262.86
481.33	263.06
481.69	263.31
482.06	263.51
482.42	263.71
482.79	263.91
483.15	264.26
483.52	264.65
483.88	264.97
484.25	265.35
484.61	265.78
484.98	266.27
485.34	266.84
485.71	267.36
486.07	267.94
486.44	268.50
486.80	269.22
487.17	269.93
487.53	270.75
487.90	271.59
488.26	272.54
488.62	273.53
488.99	274.53
489.35	275.54
489.72	276.69
490.08	277.91
490.44	279.17
490.81	280.45
491.17	281.79
491.54	283.30
491.90	284.85
492.26	286.49
492.63	288.18
492.99	290.01
493.36	291.97
493.72	294.04
494.08	296.16
494.45	298.39
494.81	300.75
495.17	303.20
495.54	305.78
495.90	308.43
496.26	311.27
496.63	314.22
496.99	317.38
497.35	320.65
497.72	324.10
498.08	327.62
498.44	331.30
498.80	335.19
499.17	339.25
499.53	343.42
499.89	347.75
500.26	352.28
500.62	356.93
500.98	361.90
501.34	367.06
501.71	372.40
502.07	377.83
502.43	383.45
502.79	389.30
503.16	395.40
503.52	401.67
503.88	408.07
504.24	414.72
504.60	421.62
504.97	428.78
505.33	436.08
505.69	443.79
506.05	451.65
506.41	459.59
506.78	467.75
507.14	476.21
507.50	485.02
507.86	494.09
508.22	503.36
508.59	512.59
508.95	522.10
509.31	531.86
509.67	541.98
510.03	552.23
510.39	562.75
510.75	573.55
511.12	584.55
511.48	595.88
511.84	607.30
512.20	618.74
512.56	630.65
512.92	642.86
513.28	655.22
513.64	667.64
514.00	680.33
514.37	693.32
514.73	706.38
515.09	719.36
515.45	732.58
515.81	746.10
516.17	760.02
516.53	774.10
516.89	788.28
517.25	802.48
517.61	816.99
517.97	831.49
518.33	845.99
518.69	860.73
519.05	875.63
519.41	890.78
519.77	906.38
520.13	921.80
520.49	937.12
520.85	952.57
521.21	968.31
521.57	984.50
521.93	1000.09
522.29	1016.49
522.65	1032.75
523.01	1048.90
523.37	1064.87
523.73	1080.98
524.09	1097.14
524.45	1113.39
524.81	1130.00
525.17	1146.77
525.53	1163.65
525.89	1180.41
526.25	1197.32
526.61	1213.80
526.97	1230.63
527.33	1247.05
527.68	1263.58
528.04	1280.09
528.40	1296.58
528.76	1313.64
529.12	1330.15
529.48	1347.09
529.84	1363.01
530.20	1379.57
530.56	1396.61
530.91	1414.11
531.27	1430.86
531.63	1447.15
531.99	1463.87
532.35	1479.68
532.71	1495.37
533.07	1511.58
533.42	1527.46
533.78	1543.43
534.14	1559.65
534.50	1574.92
534.86	1590.69
535.21	1605.74
535.57	1621.58
535.93	1636.95
536.29	1651.61
536.65	1666.50
537.00	1681.20
537.36	1696.38
537.72	1710.86
538.08	1725.17
538.44	1738.83
538.79	1752.69
539.15	1766.30
539.51	1779.87
539.87	1794.27
540.22	1807.97
540.58	1821.51
540.94	1834.61
541.29	1847.38
541.65	1859.99
542.01	1873.04
542.37	1885.31
542.72	1897.85
543.08	1909.57
543.44	1921.93
543.79	1933.18
544.15	1944.15
544.51	1955.71
544.87	1966.71
545.22	1977.52
545.58	1987.77
545.94	1997.28
546.29	2006.93
546.65	2016.92
547.01	2026.21
547.36	2034.96
547.72	2043.39
548.07	2051.34
548.43	2059.64
548.79	2067.55
549.14	2074.96
549.50	2082.32
549.86	2089.97
550.21	2097.19
550.57	2104.22
550.92	2110.77
551.28	2117.79
551.64	2124.89
551.99	2131.27
552.35	2137.46
552.70	2143.55
553.06	2149.55
553.41	2156.05
553.77	2162.22
554.13	2168.22
554.48	2174.21
554.84	2179.69
555.19	2185.03
555.55	2190.25
555.90	2194.53
556.26	2199.42
556.61	2204.17
556.97	2208.46
557.32	2212.62
557.68	2216.83
558.03	2221.16
558.39	2224.85
558.74	2229.43
559.10	2233.34
559.45	2237.04
559.81	2241.20
560.16	2245.04
560.52	2248.16
560.87	2251.57
561.23	2254.21
561.58	2256.95
561.94	2259.54
562.29	2261.77
562.64	2264.48
563.00	2266.93
563.35	2270.50
563.71	2273.66
564.06	2276.74
564.42	2279.57
564.77	2282.09
565.12	2284.26
565.48	2286.25
565.83	2288.26
566.19	2289.71
566.54	2290.57
566.89	2291.76
567.25	2292.45
567.60	2293.73
567.96	2295.55
568.31	2296.43
568.66	2297.56
569.02	2298.30
569.37	2298.63
569.72	2299.62
570.08	2299.72
570.43	2299.86
570.78	2299.40
571.14	2297.76
571.49	2296.66
571.84	2296.31
572.20	2295.25
572.55	2294.25
572.90	2292.60
573.26	2291.23
573.61	2289.47
573.96	2287.87
574.31	2284.87
574.67	2281.91
575.02	2278.30
575.37	2274.77
575.72	2270.96
576.08	2267.49
576.43	2264.21
576.78	2260.65
577.13	2257.19
577.49	2254.19
577.84	2250.70
578.19	2246.95
578.54	2243.57
578.90	2239.25
579.25	2233.71
579.60	2228.82
579.95	2223.79
580.30	2218.89
580.66	2213.68
581.01	2208.73
581.36	2203.76
581.71	2199.68
582.06	2195.36
582.42	2190.99
582.77	2185.97
583.12	2181.57
583.47	2177.05
583.82	2172.22
584.17	2166.93
584.53	2161.62
584.88	2156.00
585.23	2150.25
585.58	2144.76
585.93	2139.32
586.28	2134.67
586.63	2129.87
586.98	2124.74
587.34	2120.12
587.69	2115.27
588.04	2110.02
588.39	2104.39
588.74	2097.89
589.09	2091.76
589.44	2084.95
589.79	2078.84
590.14	2073.21
590.49	2066.48
590.84	2059.95
591.19	2053.78
591.54	2047.31
591.89	2039.92
592.25	2033.17
592.60	2026.02
592.95	2018.55
593.30	2011.16
593.65	2003.49
594.00	1996.46
594.35	1989.17
594.70	1981.23
595.05	1974.13
595.40	1966.93
595.75	1959.52
596.10	1953.49
596.45	1946.80
596.80	1940.60
597.15	1934.05
597.50	1926.94
597.85	1920.58
598.19	1914.12
598.54	1907.13
598.89	1900.47
599.24	1894.71
599.59	1888.08
599.94	1881.81
600.29	1875.56
600.64	1868.93
600.99	1861.56
601.34	1854.68
601.69	1847.81
602.04	1840.98
602.39	1833.50
602.74	1826.68
603.08	1819.82
603.43	1813.02
603.78	1805.68
604.13	1798.44
604.48	1791.15
604.83	1784.30
605.18	1777.40
605.53	1769.42
605.87	1761.29
606.22	1754.19
606.57	1746.22
606.92	1738.93
607.27	1731.82
607.62	1724.85
607.96	1717.66
608.31	1711.10
608.66	1703.45
609.01	1695.92
609.36	1688.33
609.70	1680.36
610.05	1672.39
610.40	1664.75
610.75	1656.41
611.10	1648.85
611.44	1640.57
611.79	1632.56
612.14	1623.92
612.49	1614.66
612.83	1606.24
613.18	1598.10
613.53	1589.79
613.88	1581.27
614.22	1572.91
614.57	1564.16
614.92	1556.03
615.27	1548.61
615.61	1540.10
615.96	1531.96
616.31	1524.39
616.65	1516.99
617.00	1509.43
617.35	1501.59
617.70	1493.20
618.04	1484.76
618.39	1476.44
618.74	1468.80
619.08	1460.44
619.43	1452.82
619.78	1446.01
620.12	1438.83
620.47	1431.47
620.82	1423.41
621.16	1416.03
621.51	1408.36
621.85	1400.91
622.20	1392.48
622.55	1383.97
622.89	1376.25
623.24	1368.68
623.59	1361.15
623.93	1353.63
624.28	1346.47
624.62	1338.95
624.97	1331.97
625.32	1325.18
625.66	1318.17
626.01	1310.93
626.35	1303.58
626.70	1295.71
627.04	1287.97
627.39	1280.18
627.73	1272.71
628.08	1265.83
628.43	1258.51
628.77	1251.11
629.12	1243.59
629.46	1236.41
629.81	1228.96
630.15	1221.72
630.50	1214.30
630.84	1206.07
631.19	1198.08
631.53	1190.47
631.88	1183.03
632.22	1175.32
632.57	1168.05
632.91	1160.52
633.26	1153.13
633.60	1145.76
633.95	1138.77
634.29	1131.71
634.64	1125.02
634.98	1117.66
635.32	1110.47
635.67	1103.79
636.01	1097.25
636.36	1090.40
636.70	1083.86
637.05	1077.30
637.39	1070.76
637.73	1064.27
638.08	1058.45
638.42	1052.46
638.77	1046.07
639.11	1039.44
639.45	1033.09
639.80	1026.29
640.14	1019.95
640.49	1013.42
640.83	1007.19
641.17	1000.89
641.52	994.50
641.86	988.08
642.20	982.24
642.55	976.02
642.89	969.57
643.23	962.87
643.58	957.11
643.92	950.92
644.26	944.93
644.61	938.94
644.95	932.90
645.29	926.25
645.64	919.56
645.98	913.19
646.32	907.38
646.66	901.30
647.01	895.62
647.35	889.82
647.69	883.94
648.04	878.29
648.38	872.47
648.72	866.54
649.06	860.37
649.41	854.37
649.75	848.38
650.09	842.53
650.43	836.86
650.78	830.63
651.12	824.66
651.46	818.86
651.80	813.14
652.14	807.81
652.49	802.50
652.83	797.33
653.17	791.63
653.51	785.82
653.85	780.43
654.20	774.75
654.54	768.77
654.88	763.07
655.22	757.20
655.56	751.53
655.90	746.10
656.25	740.93
656.59	735.59
656.93	730.43
657.27	725.23
657.61	719.80
657.95	714.71
658.29	709.61
658.64	704.30
658.98	698.95
659.32	693.44
659.66	688.27
660.00	682.92
660.34	677.98
660.68	673.08
661.02	668.02
661.36	663.35
661.70	658.85
662.05	654.48
662.39	650.14
662.73	645.73
663.07	641.29
663.41	636.83
663.75	632.42
664.09	627.88
664.43	623.44
664.77	619.31
665.11	615.09
665.45	610.98
665.79	606.94
666.13	602.90
666.47	598.80
666.81	594.62
667.15	590.50
667.49	586.57
667.83	582.70
668.17	578.73
668.51	574.65
668.85	570.55
669.19	566.66
669.53	562.85
669.87	558.97
670.21	555.19
670.55	551.62
670.89	548.13
671.23	544.68
671.57	541.18
671.91	537.62
672.25	534.11
672.58	530.59
672.92	527.15
673.26	523.90
673.60	520.76
673.94	517.62
674.28	514.66
674.62	511.74
674.96	508.62
675.30	505.78
675.64	502.84
675.97	500.09
676.31	497.21
676.65	494.25
676.99	491.56
677.33	488.75
677.67	485.83
678.01	482.81
678.34	479.90
678.68	477.04
679.02	474.23
679.36	471.42
679.70	468.77
680.04	466.05
680.37	463.23
680.71	460.43
681.05	457.78
681.39	455.10
681.73	452.45
682.06	449.99
682.40	447.38
682.74	444.86
683.08	442.28
683.42	439.71
683.75	437.22
684.09	434.62
684.43	432.19
684.77	429.77
685.10	427.43
685.44	425.12
685.78	422.82
686.12	420.53
686.45	418.28
686.79	415.96
687.13	413.75
687.46	411.54
687.80	409.39
688.14	407.24
688.48	405.22
688.81	402.97
689.15	400.76
689.49	398.59
689.82	396.51
690.16	394.46
690.50	392.51
690.83	390.53
691.17	388.60
691.51	386.67
691.84	384.85
692.18	382.97
692.52	380.97
692.85	379.02
693.19	377.18
693.52	375.30
693.86	373.46
694.20	371.66
694.53	369.93
694.87	368.05
695.21	366.24
695.54	364.35
695.88	362.65
696.21	360.95
696.55	359.29
696.88	357.59
697.22	355.91
697.56	354.28
697.89	352.65
698.23	351.05
698.56	349.43
698.90	347.80
699.23	346.09
699.57	344.52
699.90	342.96
700.24	341.43
700.58	339.92
700.91	338.40
701.25	336.94
701.58	335.50
701.92	334.14
702.25	332.74
702.59	331.37
702.92	330.02
703.26	328.75
703.59	327.44
703.93	326.22
704.26	324.98
704.60	323.68
704.93	322.41
705.26	321.12
705.60	319.94
705.93	318.80
706.27	317.81
706.60	316.76
706.94	315.70
707.27	314.55
707.61	313.51
707.94	312.51
708.27	311.46
708.61	310.38
708.94	309.39
709.28	308.42
709.61	307.48
709.94	306.55
710.28	305.52
710.61	304.59
710.95	303.53
711.28	302.63
711.61	301.68
711.95	300.80
712.28	299.89
712.61	298.93
712.95	297.99
713.28	297.10
713.61	296.19
713.95	295.28
714.28	294.44
714.61	293.55
714.95	292.69
715.28	291.85
715.61	290.98
715.95	290.11
716.28	289.24
716.61	288.40
716.95	287.55
717.28	286.79
717.61	285.98
717.94	285.26
718.28	284.42
718.61	283.71
718.94	283.01
719.27	282.32
719.61	281.68
719.94	281.01
720.27	280.29
720.60	279.64
720.94	279.04
721.27	278.45
721.60	277.89
721.93	277.29
722.27	276.74
722.60	276.20
722.93	275.63
723.26	275.11
723.59	274.55
723.93	274.05
724.26	273.51
724.59	272.96
724.92	272.43
725.25	271.95
725.59	271.40
725.92	270.88
726.25	270.36
726.58	269.85
726.91	269.35
727.24	268.88
727.57	268.40
727.91	267.90
728.24	267.44
728.57	266.93
728.90	266.46
729.23	265.93
729.56	265.51
729.89	265.02
730.22	264.53
730.55	264.09
730.89	263.61
731.22	263.17
731.55	262.72
731.88	262.28
732.21	261.86
732.54	261.44
732.87	261.04
733.20	260.63
733.53	260.22
733.86	259.84
734.19	259.43
734.52	259.03
734.85	258.73
735.18	258.27
735.51	257.92
735.84	257.55
736.17	257.17
736.50	256.77
736.83	256.55
737.16	256.20
737.49	255.84
737.82	255.48
738.15	255.13
738.48	254.78
738.81	254.45
739.14	254.12
739.47	253.79
739.80	253.42
740.13	253.13
740.46	252.80
740.79	252.49
741.12	252.21
741.45	251.89
741.78	251.53
742.11	251.21
742.44	250.90
742.77	250.60
743.10	250.33
743.43	250.02
743.75	249.62
744.08	249.51
744.41	249.23
744.74	248.97
745.07	248.70
745.40	248.46
745.73	248.24
746.06	247.97
746.39	247.72
746.71	247.45
747.04	247.18
747.37	246.90
747.70	246.63
748.03	246.36
748.36	246.15
748.68	245.90
749.01	245.69
749.34	245.44
749.67	245.23
750.00	245.00
750.33	244.84
750.65	244.65
750.98	244.26
751.31	244.09
751.64	243.90
751.97	243.73
752.29	243.52
752.62	243.24
752.95	243.05
753.28	242.87
753.60	242.66
753.93	242.50
754.26	242.36
754.59	242.16
754.91	241.97
755.24	241.77
755.57	241.56
755.90	241.42
756.22	241.25
756.55	241.04
756.88	240.87
757.20	240.63
757.53	240.44
757.86	240.26
758.19	240.06
758.51	239.90
758.84	239.70
759.17	239.57
759.49	239.44
759.82	239.31
760.15	239.17
760.47	239.07
760.80	238.87
761.13	238.71
761.45	238.57
761.78	238.39
762.11	238.28
762.43	238.16
762.76	237.96
763.08	237.82
763.41	237.70
763.74	237.53
764.06	237.41
764.39	237.28
764.71	237.16
765.04	237.04
765.37	236.89
765.69	236.73
766.02	236.57
766.34	236.44
766.67	236.28
767.00	236.13
767.32	236.04
767.65	236.01
767.97	235.89
768.30	235.78
768.62	235.69
768.95	235.54
769.27	235.44
769.60	235.38
769.92	235.29
770.25	235.19
770.57	235.11
770.90	235.01
771.22	234.89
771.55	234.79
771.87	234.70
772.20	234.58
772.52	234.57
772.85	234.57
773.17	234.48
773.50	234.35
773.82	234.24
774.15	234.06
774.47	233.87
774.80	233.75
775.12	233.65
775.45	233.58
775.77	233.51
776.09	233.44
776.42	233.35
776.74	233.28
777.07	233.18
777.39	233.09
777.72	232.99
778.04	232.94
778.36	232.90
778.69	232.79
779.01	232.76
779.33	232.63
779.66	232.47
779.98	232.41
780.31	232.36
780.63	232.34
780.95	232.30
781.28	232.24
781.60	232.18
781.92	232.14
782.25	232.03
782.57	231.97
782.89	231.88
783.22	231.79
783.54	231.70
783.86	231.64
784.19	231.58
784.51	231.56
784.83	231.48
785.16	231.37
785.48	231.34
785.80	231.28
786.12	231.21
786.45	231.15
786.77	231.08
787.09	231.00
787.42	230.95
787.74	230.95
788.06	230.90
788.38	230.88
788.71	230.81
789.03	230.83
789.35	230.78
789.67	230.78
789.99	230.75
790.32	230.72
790.64	230.70
790.96	230.71
791.28	230.64
791.61	230.62
791.93	230.61
792.25	230.59
792.57	230.62
792.89	230.56
793.21	230.53
793.54	230.50
793.86	230.47
794.18	230.43
794.50	230.36
794.82	230.33
795.14	230.30
795.47	230.30
795.79	230.23
796.11	230.17
796.43	230.12
796.75	230.09
797.07	230.06
797.39	230.00
797.71	229.92
798.04	229.89
798.36	229.85
798.68	229.84
799.00	229.80
799.32	229.70
799.64	229.69
799.96	229.69
800.28	229.70
800.60	229.69
800.92	229.71
801.24	229.66
801.56	229.64
801.89	229.60
802.21	229.57
802.53	229.53
802.85	229.54
803.17	229.55
803.49	229.52
803.81	229.47
804.13	229.45
804.45	229.40
804.77	229.38
805.09	229.36
805.41	229.31
805.73	229.26
806.05	229.21
806.37	229.22
806.69	229.16
807.01	229.10
807.33	229.07
807.65	228.98
807.97	229.00
808.28	228.99
808.60	228.97
808.92	228.93
809.24	228.93
809.56	228.90
809.88	228.83
810.20	228.82
810.52	228.82
810.84	228.79
811.16	228.75
811.48	228.73
811.80	228.72
812.12	228.69
812.43	228.69
812.75	228.67
813.07	228.64
813.39	228.64
813.71	228.58
814.03	228.56
814.35	228.55
814.67	228.50
814.98	228.46
815.30	228.45
815.62	228.41
815.94	228.35
816.26	228.37
816.58	228.32
816.89	228.30
817.21	228.26
817.53	228.23
817.85	228.25
818.17	228.21
818.48	228.15
818.80	228.12
819.12	228.09
819.44	228.11
819.76	228.06
820.07	228.04
820.39	228.03
820.71	228.01
821.03	227.94
821.34	227.91
821.66	227.89
821.98	227.85
822.30	227.83
822.61	227.88
822.93	227.81
823.25	227.80
823.57	227.76
823.88	227.78
824.20	227.76
824.52	227.72
824.83	227.73
825.15	227.73
825.47	227.73
825.79	227.71
826.10	227.65
826.42	227.64
826.74	227.59
827.05	227.59
827.37	227.58
827.69	227.57
828.00	227.56
828.32	227.58
828.64	227.58
828.95	227.60
829.27	227.54
829.58	227.54
829.90	227.54
830.22	227.53
830.53	227.49
830.85	227.50
831.17	227.49
831.48	227.48
831.80	227.45
832.11	227.45
832.43	227.44
832.75	227.44
833.06	227.47
833.38	227.47
833.69	227.44
834.01	227.46
834.32	227.47
834.64	227.48
834.96	227.45
835.27	227.44
835.59	227.45
835.90	227.44
836.22	227.43
836.53	227.41
836.85	227.39
837.16	227.51
837.48	227.49
837.79	227.50
838.11	227.52
838.42	227.55
838.74	227.56
839.05	227.57
839.37	227.56
839.68	227.53
840.00	227.53
840.31	227.55
840.63	227.52
840.94	227.53
841.26	227.49
841.57	227.52
841.88	227.49
842.20	227.48
842.51	227.46
842.83	227.45
843.14	227.55
843.46	227.54
843.77	227.46
844.08	227.47
844.40	227.47
844.71	227.46
845.03	227.46
845.34	227.43
845.65	227.41
845.97	227.43
846.28	227.45
846.60	227.46
846.91	227.44
847.22	227.43
847.54	227.46
847.85	227.48
848.16	227.45
848.48	227.45
848.79	227.46
849.10	227.48
849.42	227.50
849.73	227.41
850.04	227.44
850.36	227.39
850.67	227.40
850.98	227.35
851.30	227.34
851.61	227.29
851.92	227.28
852.23	227.27
852.55	227.26
852.86	227.25
853.17	227.23
853.49	227.24
853.80	227.24
854.11	227.22
854.42	227.21
854.74	227.19
855.05	227.18
855.36	227.13
855.67	227.10
855.99	227.08
856.30	227.16
856.61	227.13
856.92	227.17
857.23	227.15
857.55	227.11
857.86	227.10
858.17	227.09
858.48	227.09
858.79	227.07
859.11	227.09
859.42	227.07
859.73	227.03
860.04	227.04
860.35	227.02
860.66	226.99
860.98	226.99
861.29	226.98
861.60	226.96
861.91	227.00
862.22	227.00
862.53	226.98
862.84	226.88
863.16	226.90
863.47	226.86
863.78	226.82
864.09	226.87
864.40	226.84
864.71	226.85
865.02	226.84
865.33	226.83
865.64	226.78
865.95	226.78
866.27	226.87
866.58	226.84
866.89	226.83
867.20	226.84
867.51	226.80
867.82	226.79
868.13	226.83
868.44	226.75
868.75	226.77
869.06	226.76
869.37	226.76
869.68	226.72
869.99	226.72
870.30	226.73
870.61	226.75
870.92	226.77
871.23	226.79
871.54	226.80
871.85	226.85
872.16	226.87
872.47	226.85
872.78	226.79
873.09	226.81
873.40	226.81
873.71	226.81
874.02	226.85
874.33	226.87
874.64	226.87
874.95	226.91
875.26	226.87
875.56	226.88
875.87	226.88
876.18	226.89
876.49	227.00
876.80	227.01
877.11	226.95
877.42	226.94
877.73	226.95
878.04	226.93
878.35	226.91
878.66	226.90
878.96	226.91
879.27	226.93
879.58	226.94
879.89	226.95
880.20	227.00
880.51	226.98
880.82	226.99
881.12	226.97
881.43	226.95
881.74	226.94
882.05	226.96
882.36	226.93
882.67	226.94
882.97	226.84
883.28	226.83
883.59	226.88
883.90	226.89
884.21	226.93
884.51	226.91
884.82	226.94
885.13	226.99
885.44	226.98
885.74	226.99
886.05	226.97
886.36	226.95
886.67	226.91
886.98	226.98
887.28	226.98
887.59	226.98
887.90	226.98
888.20	226.97
888.51	226.97
888.82	226.97
889.13	226.97
889.43	227.06
889.74	227.05
890.05	227.03
890.35	227.01
890.66	226.95
890.97	226.95
891.28	226.88
891.58	226.85
891.89	226.86
892.20	226.81
892.50	226.79
892.81	226.80
893.12	226.80
893.42	226.72
893.73	226.73
894.04	226.72
894.34	226.74
894.65	226.76
894.95	226.73
895.26	226.73
895.57	226.77
895.87	226.66
896.18	226.66
896.48	226.64
896.79	226.63
897.10	226.64
897.40	226.60
897.71	226.61
898.01	226.59
898.32	226.57
898.63	226.59
898.93	226.56
899.24	226.54
899.54	226.51
899.85	226.48
900.15	226.46
900.46	226.45
900.76	226.43
901.07	226.39
901.38	226.38
901.68	226.37
901.99	226.29
902.29	226.28
902.60	226.28
902.90	226.30
903.21	226.29
903.51	226.28
903.82	226.33
904.12	226.34
904.43	226.37
904.73	226.37
905.03	226.37
905.34	226.49
905.64	226.48
905.95	226.50
906.25	226.51
906.56	226.49
906.86	226.51
907.17	226.51
907.47	226.52
907.77	226.52
908.08	226.48
908.38	226.51
908.69	226.53
908.99	226.54
909.30	226.53
909.60	226.53
909.90	226.52
910.21	226.48
910.51	226.47
910.81	226.44
911.12	226.44
911.42	226.43
911.73	226.35
912.03	226.36
912.33	226.35
912.64	226.37
912.94	226.37
913.24	226.34
913.55	226.34
913.85	226.35
914.15	226.37
914.46	226.41
914.76	226.38
915.06	226.40
915.37	226.40
915.67	226.38
915.97	226.41
916.27	226.41
916.58	226.45
916.88	226.46
917.18	226.44
917.49	226.52
917.79	226.52
918.09	226.52
918.39	226.54
918.70	226.55
919.00	226.56
919.30	226.62
919.60	226.62
919.91	226.59
920.21	226.62
920.51	226.60
920.81	226.58
921.12	226.63
921.42	226.62
921.72	226.64
922.02	226.68
922.32	226.68
922.63	226.71
922.93	226.74
923.23	226.73
923.53	226.74
923.83	226.68
924.13	226.68
924.44	226.68
924.74	226.71
925.04	226.74
925.34	226.71
925.64	226.64
925.94	226.65
926.24	226.73
926.55	226.70
926.85	226.73
927.15	226.73
927.45	226.71
927.75	226.67
928.05	226.67
928.35	226.65
928.65	226.65
928.95	226.64
929.26	226.61
929.56	226.61
929.86	226.63
930.16	226.60
930.46	226.62
930.76	226.61
931.06	226.55
931.36	226.52
931.66	226.53
931.96	226.55
932.26	226.57
932.56	226.53
932.86	226.56
933.16	226.51
933.46	226.49
933.76	226.50
934.06	226.55
934.36	226.56
934.66	226.52
934.96	226.50
935.26	226.48
935.56	226.46
935.86	226.42
936.16	226.42
936.46	226.42
936.76	226.40
937.06	226.39
937.36	226.41
937.66	226.38
937.96	226.38
938.26	226.36
938.56	226.33
938.86	226.32
939.16	226.32
939.46	226.37
939.76	226.37
940.06	226.34
940.35	226.32
940.65	226.28
940.95	226.32
941.25	226.31
941.55	226.31
941.85	226.32
942.15	226.38
942.45	226.38
942.75	226.38
943.04	226.37
943.34	226.40
943.64	226.39
943.94	226.38
944.24	226.39
944.54	226.41
944.84	226.42
945.13	226.39
945.43	226.37
945.73	226.35
946.03	226.33
946.33	226.31
946.62	226.31
946.92	226.30
947.22	226.27
947.52	226.26
947.82	226.29
948.11	226.30
948.41	226.26
948.71	226.21
949.01	226.23
949.31	226.25
949.60	226.19
949.90	226.21
950.20	226.20
950.50	226.17
950.79	226.17
951.09	226.18
951.39	226.23
951.69	226.24
951.98	226.29
952.28	226.32
952.58	226.31
952.87	226.32
953.17	226.34
953.47	226.34
953.76	226.36
954.06	226.35
954.36	226.36
954.66	226.34
954.95	226.38
955.25	226.41
955.55	226.38
955.84	226.40
956.14	226.45
956.44	226.49
956.73	226.53
957.03	226.57
957.32	226.58
957.62	226.52
957.92	226.53
958.21	226.50
958.51	226.61
958.81	226.68
959.10	226.73
959.40	226.77
959.69	226.78
959.99	226.79
960.29	226.77
960.58	226.76
960.88	226.79
961.17	226.78
961.47	226.77
961.76	226.78
962.06	226.75
962.36	226.70
962.65	226.72
962.95	226.65
963.24	226.61
963.54	226.62
963.83	226.64
964.13	226.64
964.42	226.62
964.72	226.56
965.01	226.52
965.31	226.49
965.60	226.47
965.90	226.49
966.19	226.46
966.49	226.47
966.78	226.46
967.08	226.47
967.37	226.48
967.67	226.47
967.96	226.49
968.26	226.53
968.55	226.55
968.85	226.53
969.14	226.56
969.43	226.55
969.73	226.54
970.02	226.56
970.32	226.51
970.61	226.49
970.91	226.44
971.20	226.43
971.49	226.42
971.79	226.40
972.08	226.35
972.38	226.38
972.67	226.35
972.96	226.36
973.26	226.36
973.55	226.37
973.85	226.37
974.14	226.37
974.43	226.35
974.73	226.35
975.02	226.31
975.31	226.31
975.61	226.32
975.90	226.31
976.19	226.28
976.49	226.32
976.78	226.32
977.07	226.30
977.37	226.30
977.66	226.33
977.95	226.30
978.24	226.33
978.54	226.33
978.83	226.34
979.12	226.33
979.42	226.32
979.71	226.29
980.00	226.26
980.29	226.27
980.59	226.25
980.88	226.29
981.17	226.32
981.46	226.33
981.76	226.32
982.05	226.35
982.34	226.36
982.63	226.36
982.93	226.37
983.22	226.42
983.51	226.43
983.80	226.44
984.09	226.49
984.39	226.47
984.68	226.48
984.97	226.47
985.26	226.47
985.55	226.50
985.85	226.51
986.14	226.55
986.43	226.56
986.72	226.58
987.01	226.53
987.30	226.55
987.59	226.53
987.89	226.56
988.18	226.51
988.47	226.54
988.76	226.51
989.05	226.53
989.34	226.53
989.63	226.57
989.92	226.53
990.22	226.52
990.51	226.53
990.80	226.51
991.09	226.52
991.38	226.52
991.67	226.50
991.96	226.49
992.25	226.48
992.54	226.46
992.83	226.45
993.12	226.45
993.41	226.45
993.70	226.47
993.99	226.48
994.28	226.49
994.58	226.51
994.87	226.54
995.16	226.51
995.45	226.51
995.74	226.46
996.03	226.46
996.32	226.47
996.61	226.47
996.90	226.47
997.19	226.47
997.48	226.47
997.77	226.45
998.06	226.48
998.34	226.46
998.63	226.45
998.92	226.44
999.21	226.47
999.50	226.45
999.79	226.47
1000.08	226.44
1000.37	226.44
1000.66	226.39
1000.95	226.38
1001.24	226.41
1001.53	226.39
1001.82	226.36
1002.11	226.33
1002.40	226.32
1002.68	226.35
1002.97	226.42
1003.26	226.41
1003.55	226.42
1003.84	226.40
1004.13	226.37
1004.42	226.38
1004.71	226.37
1004.99	226.38
1005.28	226.35
1005.57	226.33
1005.86	226.30
1006.15	226.31
1006.44	226.27
1006.72	226.29
1007.01	226.27
1007.30	226.26
1007.59	226.27
1007.88	226.29
1008.17	226.33
1008.45	226.32
1008.74	226.29
1009.03	226.21
1009.32	226.19
1009.60	226.18
1009.89	226.20
1010.18	226.18
1010.47	226.16
1010.76	226.16
1011.04	226.14
1011.33	226.15
1011.62	226.17
1011.91	226.14
1012.19	226.14
1012.48	226.17
1012.77	226.15
1013.05	226.20
1013.34	226.18
1013.63	226.17
1013.92	226.19
1014.20	226.17
1014.49	226.16
1014.78	226.18
1015.06	226.17
1015.35	226.16
1015.64	226.18
1015.92	226.20
1016.21	226.26
1016.50	226.28
1016.78	226.28
1017.07	226.29
1017.36	226.29
1017.64	226.26
1017.93	226.31
1018.22	226.28
1018.50	226.27
1018.79	226.28
1019.08	226.23
1019.36	226.24
1019.65	226.24
1019.93	226.25
1020.22	226.27
1020.51	226.32
1020.79	226.29
1021.08	225.83
1021.36	225.98
1021.65	226.31
1021.94	225.74
1022.22	226.36
1022.51	226.12
1022.79	226.89
1023.08	226.46
1023.36	227.22
1023.65	225.94
>>>>>End Processed Spectral Data<<<<<
