SpectraSuite Data File
++++++++++++++++++++++++++++++++++++
Date: Fri Feb 01 15:42:21 EST 2013
User: group
Dark Spectrum Present: No
Reference Spectrum Present: No
Number of Sampled Component Spectra: 1
Spectrometers: USB2E7196
Integration Time (usec): 35000 (USB2E7196)
Spectra Averaged: 100 (USB2E7196)
Boxcar Smoothing: 10 (USB2E7196)
Correct for Electrical Dark: No (USB2E7196)
Strobe/Lamp Enabled: No (USB2E7196)
Correct for Detector Non-linearity: No (USB2E7196)
Correct for Stray Light: No (USB2E7196)
Number of Pixels in Processed Spectrum: 2048
>>>>>Begin Processed Spectral Data<<<<<
339.09	0.00
339.48	215.16
339.86	216.02
340.24	217.73
340.63	219.40
341.01	221.88
341.39	221.66
341.78	223.35
342.16	224.90
342.54	224.70
342.93	213.26
343.31	224.03
343.69	224.55
344.07	225.04
344.46	225.42
344.84	225.78
345.22	226.02
345.60	226.25
345.99	226.41
346.37	226.50
346.75	226.62
347.13	226.68
347.52	226.69
347.90	226.76
348.28	226.82
348.66	226.85
349.05	226.84
349.43	226.87
349.81	226.92
350.19	226.97
350.57	227.02
350.96	227.04
351.34	227.11
351.72	227.20
352.10	227.28
352.48	227.37
352.87	227.41
353.25	227.46
353.63	227.51
354.01	227.59
354.39	227.66
354.77	227.71
355.15	227.82
355.54	227.89
355.92	227.93
356.30	228.01
356.68	228.12
357.06	228.19
357.44	228.26
357.82	228.30
358.20	228.37
358.58	228.42
358.97	228.51
359.35	228.62
359.73	228.67
360.11	228.72
360.49	228.79
360.87	228.84
361.25	228.88
361.63	228.97
362.01	229.01
362.39	229.02
362.77	229.05
363.15	229.07
363.53	229.10
363.91	229.12
364.29	229.13
364.67	229.08
365.05	229.13
365.43	229.10
365.81	229.13
366.19	229.18
366.57	229.25
366.95	229.22
367.33	229.17
367.71	229.13
368.09	229.15
368.47	229.12
368.85	229.11
369.23	229.13
369.61	229.09
369.99	229.11
370.37	229.11
370.75	229.18
371.13	229.13
371.51	229.07
371.89	229.04
372.27	228.96
372.65	228.93
373.03	228.85
373.41	228.84
373.78	228.76
374.16	228.65
374.54	228.52
374.92	228.48
375.30	228.45
375.68	228.43
376.06	228.35
376.44	228.31
376.82	228.24
377.19	228.16
377.57	228.11
377.95	227.99
378.33	227.93
378.71	227.76
379.09	227.70
379.47	227.66
379.84	227.57
380.22	227.51
380.60	227.43
380.98	227.37
381.36	227.25
381.73	227.17
382.11	227.14
382.49	227.10
382.87	227.02
383.25	226.94
383.62	226.98
384.00	226.91
384.38	226.85
384.76	226.81
385.13	226.79
385.51	226.74
385.89	226.68
386.27	226.63
386.64	226.61
387.02	226.53
387.40	226.51
387.78	226.48
388.15	226.48
388.53	226.44
388.91	226.44
389.29	226.41
389.66	226.40
390.04	226.36
390.42	226.36
390.79	226.34
391.17	226.30
391.55	226.18
391.92	226.19
392.30	226.20
392.68	226.19
393.05	226.16
393.43	226.17
393.81	226.20
394.18	226.20
394.56	226.21
394.94	226.30
395.31	226.30
395.69	226.34
396.06	226.34
396.44	226.37
396.82	226.40
397.19	226.51
397.57	226.55
397.95	226.60
398.32	226.61
398.70	226.66
399.07	226.76
399.45	226.85
399.82	226.91
400.20	226.97
400.58	227.05
400.95	227.12
401.33	227.18
401.70	227.33
402.08	227.40
402.45	227.51
402.83	227.61
403.20	227.75
403.58	227.86
403.95	228.00
404.33	228.14
404.71	228.29
405.08	228.44
405.46	228.60
405.83	228.76
406.21	228.94
406.58	229.14
406.96	229.30
407.33	229.47
407.70	229.66
408.08	229.95
408.45	230.20
408.83	230.48
409.20	230.70
409.58	230.90
409.95	231.15
410.33	231.44
410.70	231.71
411.08	231.99
411.45	232.32
411.82	232.63
412.20	232.99
412.57	233.41
412.95	233.73
413.32	234.13
413.69	234.55
414.07	234.96
414.44	235.41
414.82	235.87
415.19	236.45
415.56	237.01
415.94	237.52
416.31	238.13
416.68	238.71
417.06	239.49
417.43	240.20
417.81	241.00
418.18	241.78
418.55	242.58
418.93	243.46
419.30	244.35
419.67	245.31
420.04	246.27
420.42	247.25
420.79	248.45
421.16	249.61
421.54	250.81
421.91	252.05
422.28	253.34
422.66	254.71
423.03	256.04
423.40	257.37
423.77	258.84
424.15	260.23
424.52	261.73
424.89	263.31
425.26	264.84
425.64	266.25
426.01	267.88
426.38	269.55
426.75	271.19
427.13	272.90
427.50	274.71
427.87	276.55
428.24	278.41
428.61	280.13
428.99	282.04
429.36	284.12
429.73	286.18
430.10	288.19
430.47	290.25
430.85	292.32
431.22	294.54
431.59	296.88
431.96	299.16
432.33	301.63
432.70	303.97
433.08	306.74
433.45	309.40
433.82	311.96
434.19	314.83
434.56	317.65
434.93	320.35
435.30	322.95
435.68	325.88
436.05	328.71
436.42	331.51
436.79	334.02
437.16	336.72
437.53	339.55
437.90	342.30
438.27	345.02
438.64	347.85
439.01	350.42
439.38	352.65
439.75	354.82
440.13	357.30
440.50	359.68
440.87	361.54
441.24	363.52
441.61	365.72
441.98	367.20
442.35	369.03
442.72	370.88
443.09	372.68
443.46	373.66
443.83	374.26
444.20	374.78
444.57	375.66
444.94	375.94
445.31	376.29
445.68	376.64
446.05	376.71
446.42	376.32
446.79	375.95
447.16	375.47
447.53	375.12
447.90	373.97
448.27	372.74
448.64	371.15
449.01	369.96
449.37	367.97
449.74	366.09
450.11	363.81
450.48	361.33
450.85	358.82
451.22	356.68
451.59	354.64
451.96	352.71
452.33	350.06
452.70	347.70
453.07	344.86
453.43	342.00
453.80	339.27
454.17	336.59
454.54	334.02
454.91	331.35
455.28	328.69
455.65	326.21
456.02	323.81
456.38	321.68
456.75	319.01
457.12	316.76
457.49	314.54
457.86	312.37
458.23	310.51
458.59	308.47
458.96	306.41
459.33	304.54
459.70	302.65
460.07	301.12
460.43	299.41
460.80	297.76
461.17	296.34
461.54	294.81
461.91	293.34
462.27	291.89
462.64	290.63
463.01	289.26
463.38	287.95
463.74	286.60
464.11	285.44
464.48	284.41
464.85	283.28
465.21	282.43
465.58	281.53
465.95	280.42
466.32	279.49
466.68	278.59
467.05	277.71
467.42	276.82
467.78	275.92
468.15	275.05
468.52	274.41
468.88	273.54
469.25	272.75
469.62	272.15
469.98	271.48
470.35	270.85
470.72	270.26
471.08	269.60
471.45	268.99
471.82	268.46
472.18	267.89
472.55	267.50
472.92	266.92
473.28	266.41
473.65	265.93
474.02	265.49
474.38	265.08
474.75	264.78
475.11	264.45
475.48	264.18
475.85	263.93
476.21	263.67
476.58	263.51
476.94	263.41
477.31	263.23
477.67	263.08
478.04	262.98
478.41	262.93
478.77	263.00
479.14	263.01
479.50	263.02
479.87	263.08
480.23	263.12
480.60	263.24
480.96	263.35
481.33	263.55
481.69	263.72
482.06	263.94
482.42	264.08
482.79	264.34
483.15	264.68
483.52	265.05
483.88	265.43
484.25	265.81
484.61	266.20
484.98	266.65
485.34	267.20
485.71	267.77
486.07	268.35
486.44	268.89
486.80	269.58
487.17	270.28
487.53	271.12
487.90	271.99
488.26	272.89
488.62	273.86
488.99	274.83
489.35	275.89
489.72	277.05
490.08	278.27
490.44	279.50
490.81	280.77
491.17	282.16
491.54	283.63
491.90	285.15
492.26	286.83
492.63	288.65
492.99	290.45
493.36	292.33
493.72	294.39
494.08	296.52
494.45	298.72
494.81	301.11
495.17	303.53
495.54	306.08
495.90	308.78
496.26	311.62
496.63	314.65
496.99	317.79
497.35	320.99
497.72	324.38
498.08	327.89
498.44	331.63
498.80	335.53
499.17	339.52
499.53	343.74
499.89	348.08
500.26	352.54
500.62	357.17
500.98	362.10
501.34	367.21
501.71	372.58
502.07	378.03
502.43	383.63
502.79	389.43
503.16	395.47
503.52	401.75
503.88	408.14
504.24	414.68
504.60	421.55
504.97	428.71
505.33	436.09
505.69	443.81
506.05	451.57
506.41	459.45
506.78	467.63
507.14	476.00
507.50	484.72
507.86	493.72
508.22	502.93
508.59	512.19
508.95	521.75
509.31	531.58
509.67	541.71
510.03	551.99
510.39	562.58
510.75	573.41
511.12	584.33
511.48	595.59
511.84	607.11
512.20	618.64
512.56	630.58
512.92	642.75
513.28	655.07
513.64	667.55
514.00	680.30
514.37	693.22
514.73	706.31
515.09	719.34
515.45	732.64
515.81	746.25
516.17	760.22
516.53	774.32
516.89	788.41
517.25	802.58
517.61	817.03
517.97	831.48
518.33	845.96
518.69	860.80
519.05	875.87
519.41	891.02
519.77	906.61
520.13	922.06
520.49	937.35
520.85	952.72
521.21	968.42
521.57	984.58
521.93	1000.46
522.29	1016.93
522.65	1033.14
523.01	1049.35
523.37	1065.44
523.73	1081.64
524.09	1097.75
524.45	1114.05
524.81	1130.61
525.17	1147.39
525.53	1164.24
525.89	1181.11
526.25	1197.91
526.61	1214.38
526.97	1231.18
527.33	1247.55
527.68	1264.13
528.04	1280.67
528.40	1297.28
528.76	1314.37
529.12	1330.97
529.48	1347.72
529.84	1363.72
530.20	1380.38
530.56	1397.45
530.91	1414.88
531.27	1431.67
531.63	1448.12
531.99	1464.77
532.35	1480.83
532.71	1496.72
533.07	1512.99
533.42	1528.78
533.78	1544.76
534.14	1560.89
534.50	1576.18
534.86	1592.16
535.21	1607.36
535.57	1623.39
535.93	1638.97
536.29	1653.68
536.65	1668.89
537.00	1683.79
537.36	1699.00
537.72	1713.60
538.08	1727.92
538.44	1741.68
538.79	1755.47
539.15	1769.18
539.51	1782.91
539.87	1797.21
540.22	1811.12
540.58	1824.91
540.94	1838.37
541.29	1851.38
541.65	1864.21
542.01	1877.41
542.37	1889.61
542.72	1902.13
543.08	1913.86
543.44	1926.21
543.79	1937.55
544.15	1948.55
544.51	1960.17
544.87	1971.37
545.22	1982.13
545.58	1992.32
545.94	2002.14
546.29	2012.08
546.65	2021.95
547.01	2031.20
547.36	2040.05
547.72	2048.38
548.07	2056.23
548.43	2064.28
548.79	2072.35
549.14	2079.70
549.50	2087.03
549.86	2094.69
550.21	2101.87
550.57	2108.95
550.92	2115.63
551.28	2122.67
551.64	2129.71
551.99	2136.05
552.35	2141.98
552.70	2148.26
553.06	2154.32
553.41	2160.65
553.77	2166.69
554.13	2172.83
554.48	2178.95
554.84	2184.21
555.19	2189.60
555.55	2194.86
555.90	2199.34
556.26	2204.06
556.61	2208.94
556.97	2213.19
557.32	2217.38
557.68	2221.68
558.03	2225.96
558.39	2229.68
558.74	2234.21
559.10	2237.93
559.45	2241.55
559.81	2245.96
560.16	2249.69
560.52	2252.91
560.87	2256.28
561.23	2258.92
561.58	2261.75
561.94	2264.19
562.29	2266.74
562.64	2269.21
563.00	2271.75
563.35	2275.30
563.71	2278.43
564.06	2281.60
564.42	2284.45
564.77	2286.87
565.12	2288.95
565.48	2290.92
565.83	2292.67
566.19	2294.07
566.54	2295.09
566.89	2296.40
567.25	2296.94
567.60	2298.18
567.96	2299.85
568.31	2300.71
568.66	2301.84
569.02	2302.34
569.37	2302.78
569.72	2303.56
570.08	2303.84
570.43	2303.79
570.78	2303.19
571.14	2301.60
571.49	2300.14
571.84	2299.87
572.20	2298.66
572.55	2297.75
572.90	2296.07
573.26	2294.79
573.61	2293.16
573.96	2291.35
574.31	2288.35
574.67	2285.31
575.02	2281.69
575.37	2278.30
575.72	2274.36
576.08	2270.96
576.43	2267.70
576.78	2264.02
577.13	2260.76
577.49	2257.58
577.84	2254.15
578.19	2250.45
578.54	2246.85
578.90	2242.81
579.25	2237.22
579.60	2232.34
579.95	2227.22
580.30	2222.27
580.66	2216.97
581.01	2211.94
581.36	2206.97
581.71	2202.69
582.06	2198.18
582.42	2193.65
582.77	2188.36
583.12	2183.71
583.47	2178.90
583.82	2173.84
584.17	2168.53
584.53	2163.03
584.88	2157.32
585.23	2151.30
585.58	2145.74
585.93	2140.19
586.28	2135.28
586.63	2130.27
586.98	2125.31
587.34	2120.68
587.69	2115.73
588.04	2110.38
588.39	2104.63
588.74	2098.08
589.09	2091.98
589.44	2085.19
589.79	2079.25
590.14	2073.64
590.49	2067.08
590.84	2060.81
591.19	2054.91
591.54	2048.28
591.89	2040.81
592.25	2034.09
592.60	2026.97
592.95	2019.30
593.30	2011.90
593.65	2004.27
594.00	1997.26
594.35	1989.84
594.70	1981.70
595.05	1974.49
595.40	1967.26
595.75	1959.74
596.10	1953.56
596.45	1946.76
596.80	1940.57
597.15	1933.81
597.50	1926.70
597.85	1920.27
598.19	1913.55
598.54	1906.26
598.89	1899.71
599.24	1894.02
599.59	1887.22
599.94	1881.12
600.29	1874.82
600.64	1868.47
600.99	1860.97
601.34	1853.98
601.69	1847.03
602.04	1840.14
602.39	1832.80
602.74	1825.98
603.08	1819.26
603.43	1812.56
603.78	1805.23
604.13	1798.00
604.48	1790.67
604.83	1783.79
605.18	1776.73
605.53	1768.62
605.87	1760.55
606.22	1753.32
606.57	1745.17
606.92	1737.89
607.27	1730.56
607.62	1723.60
607.96	1716.17
608.31	1709.57
608.66	1701.83
609.01	1694.25
609.36	1686.65
609.70	1678.60
610.05	1670.44
610.40	1662.68
610.75	1654.23
611.10	1646.53
611.44	1638.15
611.79	1630.27
612.14	1621.57
612.49	1612.52
612.83	1604.24
613.18	1596.24
613.53	1588.09
613.88	1579.52
614.22	1571.20
614.57	1562.75
614.92	1554.71
615.27	1547.06
615.61	1538.71
615.96	1530.83
616.31	1523.29
616.65	1515.90
617.00	1508.41
617.35	1500.84
617.70	1492.59
618.04	1484.14
618.39	1475.91
618.74	1468.34
619.08	1460.02
619.43	1452.42
619.78	1445.54
620.12	1438.34
620.47	1430.76
620.82	1422.60
621.16	1415.27
621.51	1407.72
621.85	1400.06
622.20	1391.62
622.55	1383.32
622.89	1375.56
623.24	1367.93
623.59	1360.51
623.93	1352.98
624.28	1345.63
624.62	1337.98
624.97	1330.70
625.32	1324.03
625.66	1317.03
626.01	1309.80
626.35	1302.34
626.70	1294.61
627.04	1286.82
627.39	1279.03
627.73	1271.62
628.08	1264.73
628.43	1257.43
628.77	1250.06
629.12	1242.43
629.46	1235.26
629.81	1227.86
630.15	1220.52
630.50	1213.09
630.84	1204.88
631.19	1197.04
631.53	1189.62
631.88	1182.17
632.22	1174.60
632.57	1167.22
632.91	1159.71
633.26	1152.22
633.60	1144.92
633.95	1137.84
634.29	1130.84
634.64	1124.19
634.98	1116.84
635.32	1109.73
635.67	1103.18
636.01	1096.48
636.36	1089.69
636.70	1083.18
637.05	1076.64
637.39	1070.16
637.73	1063.65
638.08	1057.77
638.42	1051.74
638.77	1045.20
639.11	1038.55
639.45	1032.11
639.80	1025.47
640.14	1019.02
640.49	1012.53
640.83	1006.07
641.17	999.82
641.52	993.42
641.86	986.98
642.20	981.21
642.55	974.95
642.89	968.39
643.23	961.89
643.58	956.15
643.92	949.88
644.26	943.82
644.61	937.93
644.95	931.91
645.29	925.32
645.64	918.59
645.98	912.37
646.32	906.61
646.66	900.64
647.01	894.84
647.35	889.17
647.69	883.33
648.04	877.95
648.38	872.10
648.72	866.18
649.06	860.06
649.41	854.15
649.75	848.14
650.09	842.27
650.43	836.48
650.78	830.36
651.12	824.45
651.46	818.66
651.80	812.87
652.14	807.53
652.49	802.19
652.83	796.99
653.17	791.25
653.51	785.43
653.85	780.06
654.20	774.32
654.54	768.30
654.88	762.56
655.22	756.68
655.56	751.05
655.90	745.64
656.25	740.52
656.59	735.09
656.93	729.98
657.27	724.78
657.61	719.34
657.95	714.23
658.29	709.14
658.64	704.00
658.98	698.66
659.32	693.16
659.66	687.94
660.00	682.60
660.34	677.67
660.68	672.84
661.02	667.82
661.36	663.16
661.70	658.65
662.05	654.35
662.39	649.96
662.73	645.55
663.07	641.10
663.41	636.55
663.75	632.13
664.09	627.59
664.43	623.17
664.77	619.11
665.11	614.82
665.45	610.76
665.79	606.64
666.13	602.56
666.47	598.52
666.81	594.38
667.15	590.32
667.49	586.47
667.83	582.67
668.17	578.73
668.51	574.69
668.85	570.70
669.19	566.82
669.53	562.99
669.87	559.06
670.21	555.35
670.55	551.78
670.89	548.32
671.23	544.91
671.57	541.43
671.91	537.83
672.25	534.32
672.58	530.77
672.92	527.37
673.26	524.17
673.60	520.94
673.94	517.79
674.28	514.89
674.62	511.90
674.96	508.82
675.30	505.88
675.64	502.96
675.97	500.13
676.31	497.24
676.65	494.32
676.99	491.62
677.33	488.77
677.67	485.92
678.01	482.87
678.34	479.79
678.68	476.93
679.02	474.11
679.36	471.39
679.70	468.66
680.04	465.88
680.37	463.02
680.71	460.22
681.05	457.66
681.39	454.93
681.73	452.33
682.06	449.72
682.40	447.15
682.74	444.60
683.08	442.10
683.42	439.46
683.75	436.98
684.09	434.43
684.43	431.99
684.77	429.54
685.10	427.20
685.44	424.97
685.78	422.64
686.12	420.42
686.45	418.16
686.79	415.82
687.13	413.64
687.46	411.46
687.80	409.34
688.14	407.09
688.48	405.02
688.81	402.72
689.15	400.60
689.49	398.50
689.82	396.45
690.16	394.39
690.50	392.50
690.83	390.52
691.17	388.56
691.51	386.66
691.84	384.81
692.18	382.90
692.52	380.93
692.85	379.02
693.19	377.18
693.52	375.38
693.86	373.59
694.20	371.78
694.53	369.97
694.87	368.11
695.21	366.35
695.54	364.56
695.88	362.86
696.21	361.12
696.55	359.42
696.88	357.74
697.22	356.07
697.56	354.47
697.89	352.84
698.23	351.22
698.56	349.63
698.90	348.03
699.23	346.38
699.57	344.83
699.90	343.30
700.24	341.70
700.58	340.12
700.91	338.64
701.25	337.24
701.58	335.90
701.92	334.57
702.25	333.17
702.59	331.79
702.92	330.45
703.26	329.20
703.59	327.93
703.93	326.69
704.26	325.47
704.60	324.17
704.93	322.92
705.26	321.67
705.60	320.49
705.93	319.36
706.27	318.30
706.60	317.25
706.94	316.14
707.27	315.00
707.61	313.97
707.94	312.95
708.27	311.84
708.61	310.73
708.94	309.70
709.28	308.74
709.61	307.76
709.94	306.82
710.28	305.74
710.61	304.76
710.95	303.74
711.28	302.83
711.61	301.86
711.95	300.92
712.28	299.99
712.61	298.99
712.95	298.02
713.28	297.17
713.61	296.27
713.95	295.38
714.28	294.63
714.61	293.77
714.95	292.90
715.28	292.03
715.61	291.17
715.95	290.33
716.28	289.48
716.61	288.67
716.95	287.88
717.28	287.19
717.61	286.36
717.94	285.63
718.28	284.80
718.61	284.06
718.94	283.37
719.27	282.69
719.61	282.04
719.94	281.37
720.27	280.66
720.60	279.97
720.94	279.35
721.27	278.69
721.60	278.09
721.93	277.48
722.27	276.96
722.60	276.42
722.93	275.84
723.26	275.32
723.59	274.72
723.93	274.15
724.26	273.57
724.59	273.07
724.92	272.51
725.25	272.03
725.59	271.53
725.92	271.03
726.25	270.50
726.58	270.05
726.91	269.58
727.24	269.08
727.57	268.65
727.91	268.14
728.24	267.69
728.57	267.19
728.90	266.79
729.23	266.29
729.56	265.86
729.89	265.40
730.22	264.90
730.55	264.45
730.89	264.01
731.22	263.56
731.55	263.13
731.88	262.72
732.21	262.28
732.54	261.86
732.87	261.43
733.20	261.02
733.53	260.61
733.86	260.25
734.19	259.85
734.52	259.47
734.85	259.19
735.18	258.81
735.51	258.46
735.84	258.06
736.17	257.69
736.50	257.28
736.83	257.06
737.16	256.70
737.49	256.38
737.82	256.05
738.15	255.72
738.48	255.37
738.81	255.05
739.14	254.74
739.47	254.42
739.80	254.12
740.13	253.85
740.46	253.51
740.79	253.16
741.12	252.87
741.45	252.57
741.78	252.17
742.11	251.85
742.44	251.53
742.77	251.25
743.10	250.95
743.43	250.68
743.75	250.30
744.08	250.14
744.41	249.86
744.74	249.57
745.07	249.31
745.40	249.06
745.73	248.78
746.06	248.47
746.39	248.16
746.71	247.90
747.04	247.62
747.37	247.36
747.70	247.16
748.03	246.90
748.36	246.66
748.68	246.44
749.01	246.17
749.34	245.94
749.67	245.70
750.00	245.50
750.33	245.35
750.65	245.14
750.98	244.83
751.31	244.61
751.64	244.44
751.97	244.25
752.29	244.04
752.62	243.82
752.95	243.63
753.28	243.46
753.60	243.24
753.93	243.06
754.26	242.86
754.59	242.60
754.91	242.38
755.24	242.16
755.57	241.97
755.90	241.81
756.22	241.63
756.55	241.42
756.88	241.21
757.20	240.94
757.53	240.70
757.86	240.54
758.19	240.35
758.51	240.13
758.84	239.92
759.17	239.73
759.49	239.62
759.82	239.49
760.15	239.34
760.47	239.19
760.80	238.99
761.13	238.87
761.45	238.73
761.78	238.62
762.11	238.49
762.43	238.33
762.76	238.15
763.08	238.03
763.41	237.93
763.74	237.80
764.06	237.69
764.39	237.61
764.71	237.49
765.04	237.37
765.37	237.24
765.69	237.12
766.02	237.02
766.34	236.89
766.67	236.77
767.00	236.66
767.32	236.59
767.65	236.57
767.97	236.46
768.30	236.37
768.62	236.24
768.95	236.13
769.27	236.07
769.60	236.00
769.92	235.89
770.25	235.75
770.57	235.64
770.90	235.50
771.22	235.38
771.55	235.27
771.87	235.17
772.20	235.09
772.52	235.08
772.85	235.09
773.17	234.98
773.50	234.87
773.82	234.75
774.15	234.61
774.47	234.47
774.80	234.33
775.12	234.23
775.45	234.12
775.77	234.07
776.09	233.94
776.42	233.85
776.74	233.80
777.07	233.73
777.39	233.64
777.72	233.56
778.04	233.50
778.36	233.38
778.69	233.30
779.01	233.24
779.33	233.07
779.66	232.89
779.98	232.81
780.31	232.71
780.63	232.72
780.95	232.66
781.28	232.61
781.60	232.57
781.92	232.53
782.25	232.47
782.57	232.37
782.89	232.34
783.22	232.25
783.54	232.17
783.86	232.09
784.19	232.03
784.51	232.01
784.83	231.97
785.16	231.93
785.48	231.87
785.80	231.81
786.12	231.77
786.45	231.71
786.77	231.65
787.09	231.61
787.42	231.53
787.74	231.47
788.06	231.41
788.38	231.35
788.71	231.31
789.03	231.28
789.35	231.26
789.67	231.18
789.99	231.20
790.32	231.18
790.64	231.17
790.96	231.20
791.28	231.14
791.61	231.08
791.93	231.06
792.25	231.02
792.57	231.05
792.89	231.01
793.21	231.00
793.54	230.99
793.86	230.95
794.18	230.90
794.50	230.86
794.82	230.84
795.14	230.80
795.47	230.74
795.79	230.71
796.11	230.66
796.43	230.66
796.75	230.59
797.07	230.55
797.39	230.50
797.71	230.42
798.04	230.39
798.36	230.37
798.68	230.34
799.00	230.35
799.32	230.26
799.64	230.25
799.96	230.25
800.28	230.21
800.60	230.18
800.92	230.17
801.24	230.16
801.56	230.13
801.89	230.11
802.21	230.09
802.53	230.06
802.85	230.04
803.17	230.07
803.49	230.04
803.81	229.99
804.13	230.01
804.45	229.98
804.77	229.97
805.09	229.96
805.41	229.90
805.73	229.84
806.05	229.83
806.37	229.81
806.69	229.74
807.01	229.73
807.33	229.73
807.65	229.64
807.97	229.67
808.28	229.60
808.60	229.59
808.92	229.53
809.24	229.55
809.56	229.50
809.88	229.41
810.20	229.37
810.52	229.37
810.84	229.30
811.16	229.26
811.48	229.20
811.80	229.18
812.12	229.17
812.43	229.14
812.75	229.08
813.07	229.04
813.39	229.01
813.71	228.94
814.03	228.90
814.35	228.88
814.67	228.80
814.98	228.79
815.30	228.73
815.62	228.68
815.94	228.57
816.26	228.61
816.58	228.57
816.89	228.55
817.21	228.46
817.53	228.44
817.85	228.42
818.17	228.39
818.48	228.32
818.80	228.32
819.12	228.30
819.44	228.29
819.76	228.25
820.07	228.23
820.39	228.21
820.71	228.15
821.03	228.15
821.34	228.12
821.66	228.08
821.98	228.07
822.30	228.08
822.61	228.13
822.93	228.06
823.25	228.05
823.57	228.00
823.88	228.07
824.20	228.04
824.52	228.03
824.83	228.04
825.15	228.01
825.47	228.00
825.79	228.00
826.10	227.95
826.42	227.94
826.74	227.91
827.05	227.90
827.37	227.92
827.69	227.90
828.00	227.87
828.32	227.87
828.64	227.88
828.95	227.94
829.27	227.91
829.58	227.90
829.90	227.88
830.22	227.89
830.53	227.82
830.85	227.83
831.17	227.80
831.48	227.78
831.80	227.82
832.11	227.81
832.43	227.78
832.75	227.78
833.06	227.85
833.38	227.88
833.69	227.86
834.01	227.88
834.32	227.89
834.64	227.90
834.96	227.92
835.27	227.92
835.59	227.88
835.90	227.88
836.22	227.92
836.53	227.91
836.85	227.89
837.16	228.05
837.48	228.05
837.79	228.08
838.11	228.09
838.42	228.08
838.74	228.10
839.05	228.14
839.37	228.12
839.68	228.03
840.00	228.01
840.31	228.05
840.63	228.02
840.94	228.00
841.26	227.99
841.57	227.95
841.88	227.92
842.20	227.90
842.51	227.89
842.83	227.83
843.14	227.94
843.46	227.95
843.77	227.85
844.08	227.83
844.40	227.80
844.71	227.79
845.03	227.78
845.34	227.77
845.65	227.73
845.97	227.74
846.28	227.73
846.60	227.73
846.91	227.69
847.22	227.66
847.54	227.67
847.85	227.70
848.16	227.71
848.48	227.71
848.79	227.75
849.10	227.72
849.42	227.76
849.73	227.63
850.04	227.64
850.36	227.58
850.67	227.61
850.98	227.63
851.30	227.63
851.61	227.61
851.92	227.55
852.23	227.55
852.55	227.56
852.86	227.58
853.17	227.60
853.49	227.61
853.80	227.65
854.11	227.62
854.42	227.58
854.74	227.52
855.05	227.51
855.36	227.44
855.67	227.43
855.99	227.39
856.30	227.54
856.61	227.51
856.92	227.50
857.23	227.47
857.55	227.42
857.86	227.37
858.17	227.39
858.48	227.35
858.79	227.35
859.11	227.34
859.42	227.33
859.73	227.28
860.04	227.26
860.35	227.21
860.66	227.18
860.98	227.19
861.29	227.23
861.60	227.22
861.91	227.27
862.22	227.24
862.53	227.24
862.84	227.09
863.16	227.10
863.47	227.06
863.78	227.05
864.09	227.05
864.40	227.11
864.71	227.07
865.02	227.13
865.33	227.10
865.64	227.09
865.95	227.05
866.27	227.15
866.58	227.13
866.89	227.15
867.20	227.16
867.51	227.16
867.82	227.16
868.13	227.17
868.44	227.15
868.75	227.20
869.06	227.20
869.37	227.24
869.68	227.24
869.99	227.31
870.30	227.29
870.61	227.35
870.92	227.32
871.23	227.34
871.54	227.35
871.85	227.37
872.16	227.41
872.47	227.41
872.78	227.34
873.09	227.39
873.40	227.39
873.71	227.41
874.02	227.43
874.33	227.43
874.64	227.45
874.95	227.45
875.26	227.44
875.56	227.45
875.87	227.42
876.18	227.44
876.49	227.51
876.80	227.52
877.11	227.47
877.42	227.50
877.73	227.52
878.04	227.52
878.35	227.53
878.66	227.51
878.96	227.52
879.27	227.55
879.58	227.56
879.89	227.56
880.20	227.58
880.51	227.59
880.82	227.58
881.12	227.57
881.43	227.56
881.74	227.57
882.05	227.55
882.36	227.57
882.67	227.57
882.97	227.48
883.28	227.47
883.59	227.49
883.90	227.49
884.21	227.48
884.51	227.44
884.82	227.42
885.13	227.43
885.44	227.41
885.74	227.42
886.05	227.40
886.36	227.39
886.67	227.34
886.98	227.37
887.28	227.39
887.59	227.37
887.90	227.38
888.20	227.33
888.51	227.37
888.82	227.33
889.13	227.32
889.43	227.41
889.74	227.40
890.05	227.38
890.35	227.35
890.66	227.33
890.97	227.31
891.28	227.28
891.58	227.24
891.89	227.23
892.20	227.17
892.50	227.16
892.81	227.17
893.12	227.15
893.42	227.07
893.73	227.04
894.04	227.02
894.34	227.00
894.65	227.00
894.95	226.96
895.26	226.98
895.57	226.99
895.87	226.89
896.18	226.89
896.48	226.90
896.79	226.89
897.10	226.90
897.40	226.92
897.71	226.93
898.01	226.95
898.32	227.00
898.63	227.01
898.93	227.00
899.24	226.97
899.54	226.98
899.85	227.02
900.15	227.00
900.46	227.00
900.76	227.01
901.07	226.98
901.38	226.99
901.68	226.98
901.99	226.96
902.29	226.93
902.60	226.91
902.90	226.87
903.21	226.85
903.51	226.85
903.82	226.87
904.12	226.87
904.43	226.88
904.73	226.86
905.03	226.88
905.34	226.98
905.64	226.99
905.95	227.02
906.25	226.99
906.56	227.03
906.86	227.02
907.17	227.02
907.47	227.06
907.77	227.05
908.08	227.08
908.38	227.09
908.69	227.13
908.99	227.18
909.30	227.21
909.60	227.25
909.90	227.27
910.21	227.26
910.51	227.25
910.81	227.25
911.12	227.24
911.42	227.25
911.73	227.15
912.03	227.18
912.33	227.21
912.64	227.23
912.94	227.22
913.24	227.23
913.55	227.25
913.85	227.24
914.15	227.27
914.46	227.28
914.76	227.25
915.06	227.29
915.37	227.28
915.67	227.27
915.97	227.25
916.27	227.24
916.58	227.23
916.88	227.24
917.18	227.22
917.49	227.32
917.79	227.31
918.09	227.30
918.39	227.30
918.70	227.24
919.00	227.22
919.30	227.27
919.60	227.26
919.91	227.23
920.21	227.24
920.51	227.20
920.81	227.18
921.12	227.21
921.42	227.19
921.72	227.19
922.02	227.19
922.32	227.19
922.63	227.21
922.93	227.25
923.23	227.26
923.53	227.23
923.83	227.13
924.13	227.14
924.44	227.14
924.74	227.18
925.04	227.23
925.34	227.20
925.64	227.16
925.94	227.17
926.24	227.25
926.55	227.24
926.85	227.22
927.15	227.22
927.45	227.20
927.75	227.16
928.05	227.14
928.35	227.15
928.65	227.18
928.95	227.14
929.26	227.10
929.56	227.06
929.86	227.10
930.16	227.11
930.46	227.11
930.76	227.10
931.06	227.01
931.36	226.96
931.66	226.95
931.96	226.94
932.26	226.93
932.56	226.85
932.86	226.81
933.16	226.83
933.46	226.81
933.76	226.81
934.06	226.83
934.36	226.85
934.66	226.80
934.96	226.78
935.26	226.79
935.56	226.82
935.86	226.79
936.16	226.78
936.46	226.73
936.76	226.70
937.06	226.69
937.36	226.68
937.66	226.70
937.96	226.73
938.26	226.69
938.56	226.68
938.86	226.69
939.16	226.73
939.46	226.70
939.76	226.71
940.06	226.67
940.35	226.65
940.65	226.60
940.95	226.59
941.25	226.57
941.55	226.56
941.85	226.52
942.15	226.58
942.45	226.61
942.75	226.62
943.04	226.61
943.34	226.64
943.64	226.64
943.94	226.61
944.24	226.61
944.54	226.68
944.84	226.68
945.13	226.69
945.43	226.70
945.73	226.73
946.03	226.72
946.33	226.72
946.62	226.72
946.92	226.74
947.22	226.78
947.52	226.78
947.82	226.81
948.11	226.81
948.41	226.76
948.71	226.74
949.01	226.77
949.31	226.78
949.60	226.80
949.90	226.84
950.20	226.87
950.50	226.90
950.79	226.85
951.09	226.92
951.39	226.92
951.69	226.86
951.98	226.87
952.28	226.94
952.58	226.94
952.87	226.93
953.17	226.93
953.47	226.95
953.76	226.96
954.06	226.93
954.36	226.94
954.66	226.96
954.95	227.01
955.25	227.02
955.55	227.05
955.84	227.01
956.14	227.04
956.44	227.06
956.73	227.01
957.03	227.03
957.32	227.00
957.62	227.01
957.92	227.08
958.21	227.08
958.51	227.14
958.81	227.17
959.10	227.20
959.40	227.26
959.69	227.25
959.99	227.26
960.29	227.26
960.58	227.23
960.88	227.28
961.17	227.23
961.47	227.20
961.76	227.18
962.06	227.19
962.36	227.16
962.65	227.13
962.95	227.14
963.24	227.13
963.54	227.11
963.83	227.08
964.13	227.07
964.42	227.02
964.72	226.94
965.01	226.91
965.31	226.91
965.60	226.83
965.90	226.89
966.19	226.87
966.49	226.89
966.78	226.89
967.08	226.87
967.37	226.91
967.67	226.89
967.96	226.88
968.26	226.88
968.55	226.86
968.85	226.86
969.14	226.85
969.43	226.87
969.73	226.90
970.02	226.88
970.32	226.83
970.61	226.85
970.91	226.82
971.20	226.79
971.49	226.74
971.79	226.77
972.08	226.71
972.38	226.72
972.67	226.70
972.96	226.69
973.26	226.65
973.55	226.64
973.85	226.63
974.14	226.63
974.43	226.64
974.73	226.63
975.02	226.63
975.31	226.61
975.61	226.60
975.90	226.54
976.19	226.54
976.49	226.55
976.78	226.58
977.07	226.58
977.37	226.61
977.66	226.65
977.95	226.63
978.24	226.61
978.54	226.60
978.83	226.59
979.12	226.61
979.42	226.62
979.71	226.61
980.00	226.61
980.29	226.61
980.59	226.55
980.88	226.57
981.17	226.58
981.46	226.60
981.76	226.56
982.05	226.61
982.34	226.61
982.63	226.65
982.93	226.64
983.22	226.66
983.51	226.66
983.80	226.69
984.09	226.71
984.39	226.73
984.68	226.72
984.97	226.74
985.26	226.73
985.55	226.73
985.85	226.71
986.14	226.76
986.43	226.77
986.72	226.79
987.01	226.76
987.30	226.78
987.59	226.80
987.89	226.83
988.18	226.79
988.47	226.80
988.76	226.77
989.05	226.75
989.34	226.74
989.63	226.74
989.92	226.74
990.22	226.71
990.51	226.72
990.80	226.76
991.09	226.77
991.38	226.78
991.67	226.78
991.96	226.77
992.25	226.78
992.54	226.74
992.83	226.78
993.12	226.79
993.41	226.80
993.70	226.82
993.99	226.83
994.28	226.90
994.58	226.90
994.87	226.91
995.16	226.92
995.45	226.91
995.74	226.87
996.03	226.85
996.32	226.90
996.61	226.88
996.90	226.84
997.19	226.85
997.48	226.86
997.77	226.86
998.06	226.88
998.34	226.83
998.63	226.86
998.92	226.81
999.21	226.85
999.50	226.85
999.79	226.82
1000.08	226.83
1000.37	226.80
1000.66	226.79
1000.95	226.78
1001.24	226.79
1001.53	226.81
1001.82	226.84
1002.11	226.81
1002.40	226.83
1002.68	226.86
1002.97	226.94
1003.26	226.91
1003.55	226.85
1003.84	226.85
1004.13	226.87
1004.42	226.88
1004.71	226.86
1004.99	226.87
1005.28	226.89
1005.57	226.87
1005.86	226.85
1006.15	226.83
1006.44	226.81
1006.72	226.82
1007.01	226.81
1007.30	226.82
1007.59	226.81
1007.88	226.79
1008.17	226.82
1008.45	226.78
1008.74	226.74
1009.03	226.68
1009.32	226.68
1009.60	226.69
1009.89	226.68
1010.18	226.66
1010.47	226.66
1010.76	226.69
1011.04	226.71
1011.33	226.71
1011.62	226.71
1011.91	226.73
1012.19	226.75
1012.48	226.72
1012.77	226.70
1013.05	226.74
1013.34	226.72
1013.63	226.71
1013.92	226.70
1014.20	226.68
1014.49	226.69
1014.78	226.71
1015.06	226.69
1015.35	226.71
1015.64	226.74
1015.92	226.75
1016.21	226.73
1016.50	226.73
1016.78	226.71
1017.07	226.73
1017.36	226.69
1017.64	226.68
1017.93	226.68
1018.22	226.65
1018.50	226.69
1018.79	226.70
1019.08	226.63
1019.36	226.65
1019.65	226.67
1019.93	226.72
1020.22	226.76
1020.51	226.78
1020.79	226.75
1021.08	226.67
1021.36	226.75
1021.65	226.75
1021.94	226.02
1022.22	226.79
1022.51	226.95
1022.79	227.25
1023.08	227.25
1023.36	227.50
1023.65	226.32
>>>>>End Processed Spectral Data<<<<<
