SpectraSuite Data File
++++++++++++++++++++++++++++++++++++
Date: Fri Feb 01 17:37:13 EST 2013
User: group
Dark Spectrum Present: No
Reference Spectrum Present: No
Number of Sampled Component Spectra: 1
Spectrometers: USB2E7196
Integration Time (usec): 35000 (USB2E7196)
Spectra Averaged: 100 (USB2E7196)
Boxcar Smoothing: 10 (USB2E7196)
Correct for Electrical Dark: No (USB2E7196)
Strobe/Lamp Enabled: No (USB2E7196)
Correct for Detector Non-linearity: No (USB2E7196)
Correct for Stray Light: No (USB2E7196)
Number of Pixels in Processed Spectrum: 2048
>>>>>Begin Processed Spectral Data<<<<<
339.09	0.00
339.48	213.02
339.86	214.23
340.24	216.07
340.63	216.72
341.01	220.24
341.39	219.81
341.78	221.24
342.16	222.02
342.54	223.59
342.93	211.38
343.31	222.04
343.69	222.57
344.07	223.03
344.46	223.44
344.84	223.86
345.22	224.07
345.60	224.31
345.99	224.49
346.37	224.63
346.75	224.69
347.13	224.76
347.52	224.84
347.90	224.93
348.28	224.94
348.66	224.99
349.05	224.99
349.43	225.03
349.81	225.05
350.19	225.08
350.57	225.13
350.96	225.22
351.34	225.32
351.72	225.41
352.10	225.51
352.48	225.56
352.87	225.58
353.25	225.65
353.63	225.72
354.01	225.81
354.39	225.87
354.77	225.93
355.15	225.99
355.54	226.05
355.92	226.09
356.30	226.15
356.68	226.27
357.06	226.37
357.44	226.44
357.82	226.48
358.20	226.58
358.58	226.63
358.97	226.71
359.35	226.79
359.73	226.84
360.11	226.88
360.49	226.95
360.87	227.01
361.25	227.07
361.63	227.13
362.01	227.14
362.39	227.15
362.77	227.23
363.15	227.28
363.53	227.29
363.91	227.29
364.29	227.30
364.67	227.22
365.05	227.24
365.43	227.24
365.81	227.25
366.19	227.27
366.57	227.31
366.95	227.32
367.33	227.29
367.71	227.31
368.09	227.34
368.47	227.34
368.85	227.35
369.23	227.35
369.61	227.33
369.99	227.36
370.37	227.36
370.75	227.39
371.13	227.31
371.51	227.29
371.89	227.30
372.27	227.27
372.65	227.27
373.03	227.21
373.41	227.14
373.78	227.12
374.16	227.03
374.54	226.94
374.92	226.83
375.30	226.78
375.68	226.69
376.06	226.63
376.44	226.58
376.82	226.51
377.19	226.47
377.57	226.39
377.95	226.28
378.33	226.21
378.71	226.08
379.09	226.07
379.47	226.01
379.84	225.91
380.22	225.82
380.60	225.73
380.98	225.66
381.36	225.61
381.73	225.51
382.11	225.44
382.49	225.40
382.87	225.37
383.25	225.32
383.62	225.37
384.00	225.28
384.38	225.20
384.76	225.11
385.13	225.09
385.51	225.05
385.89	225.00
386.27	224.97
386.64	224.94
387.02	224.88
387.40	224.84
387.78	224.83
388.15	224.83
388.53	224.80
388.91	224.76
389.29	224.70
389.66	224.68
390.04	224.64
390.42	224.64
390.79	224.62
391.17	224.59
391.55	224.47
391.92	224.47
392.30	224.51
392.68	224.53
393.05	224.52
393.43	224.52
393.81	224.52
394.18	224.50
394.56	224.50
394.94	224.53
395.31	224.49
395.69	224.52
396.06	224.56
396.44	224.58
396.82	224.62
397.19	224.75
397.57	224.79
397.95	224.87
398.32	224.90
398.70	224.93
399.07	225.02
399.45	225.06
399.82	225.12
400.20	225.13
400.58	225.17
400.95	225.19
401.33	225.26
401.70	225.38
402.08	225.49
402.45	225.55
402.83	225.66
403.20	225.79
403.58	225.92
403.95	226.00
404.33	226.13
404.71	226.21
405.08	226.39
405.46	226.50
405.83	226.62
406.21	226.73
406.58	226.86
406.96	227.01
407.33	227.20
407.70	227.39
408.08	227.66
408.45	227.86
408.83	228.10
409.20	228.32
409.58	228.51
409.95	228.76
410.33	229.06
410.70	229.31
411.08	229.61
411.45	229.90
411.82	230.19
412.20	230.53
412.57	230.96
412.95	231.24
413.32	231.69
413.69	232.14
414.07	232.62
414.44	233.10
414.82	233.60
415.19	234.16
415.56	234.71
415.94	235.29
416.31	236.00
416.68	236.65
417.06	237.40
417.43	238.09
417.81	238.89
418.18	239.69
418.55	240.60
418.93	241.51
419.30	242.42
419.67	243.42
420.04	244.44
420.42	245.49
420.79	246.73
421.16	247.92
421.54	249.14
421.91	250.39
422.28	251.74
422.66	253.16
423.03	254.55
423.40	255.95
423.77	257.43
424.15	258.91
424.52	260.45
424.89	262.12
425.26	263.76
425.64	265.26
426.01	266.95
426.38	268.63
426.75	270.39
427.13	272.19
427.50	274.11
427.87	276.09
428.24	278.03
428.61	279.85
428.99	281.88
429.36	284.12
429.73	286.31
430.10	288.39
430.47	290.55
430.85	292.73
431.22	295.07
431.59	297.59
431.96	299.95
432.33	302.60
432.70	305.09
433.08	308.02
433.45	310.82
433.82	313.50
434.19	316.56
434.56	319.49
434.93	322.29
435.30	325.00
435.68	328.01
436.05	330.96
436.42	333.88
436.79	336.53
437.16	339.31
437.53	342.27
437.90	345.20
438.27	348.04
438.64	351.02
439.01	353.74
439.38	356.09
439.75	358.35
440.13	360.93
440.50	363.35
440.87	365.29
441.24	367.33
441.61	369.59
441.98	371.16
442.35	373.01
442.72	374.91
443.09	376.84
443.46	377.88
443.83	378.51
444.20	379.02
444.57	379.90
444.94	380.23
445.31	380.57
445.68	380.97
446.05	381.08
446.42	380.71
446.79	380.25
447.16	379.77
447.53	379.44
447.90	378.23
448.27	377.02
448.64	375.41
449.01	374.18
449.37	372.14
449.74	370.13
450.11	367.82
450.48	365.27
450.85	362.67
451.22	360.44
451.59	358.32
451.96	356.32
452.33	353.60
452.70	351.11
453.07	348.18
453.43	345.12
453.80	342.19
454.17	339.37
454.54	336.73
454.91	333.87
455.28	331.09
455.65	328.47
456.02	325.90
456.38	323.65
456.75	320.88
457.12	318.55
457.49	316.22
457.86	313.97
458.23	312.03
458.59	309.84
458.96	307.62
459.33	305.66
459.70	303.68
460.07	302.11
460.43	300.31
460.80	298.57
461.17	297.12
461.54	295.56
461.91	294.08
462.27	292.58
462.64	291.28
463.01	289.86
463.38	288.51
463.74	287.12
464.11	285.87
464.48	284.85
464.85	283.70
465.21	282.85
465.58	281.86
465.95	280.71
466.32	279.80
466.68	278.90
467.05	278.00
467.42	277.13
467.78	276.17
468.15	275.28
468.52	274.63
468.88	273.74
469.25	272.95
469.62	272.30
469.98	271.61
470.35	270.98
470.72	270.36
471.08	269.72
471.45	269.16
471.82	268.60
472.18	267.96
472.55	267.47
472.92	266.92
473.28	266.46
473.65	266.05
474.02	265.58
474.38	265.21
474.75	264.85
475.11	264.47
475.48	264.21
475.85	263.97
476.21	263.73
476.58	263.54
476.94	263.36
477.31	263.18
477.67	263.03
478.04	262.91
478.41	262.88
478.77	262.93
479.14	262.88
479.50	262.91
479.87	262.99
480.23	263.09
480.60	263.13
480.96	263.19
481.33	263.34
481.69	263.54
482.06	263.72
482.42	263.94
482.79	264.22
483.15	264.56
483.52	264.93
483.88	265.28
484.25	265.68
484.61	266.12
484.98	266.60
485.34	267.20
485.71	267.77
486.07	268.32
486.44	268.85
486.80	269.58
487.17	270.30
487.53	271.07
487.90	271.92
488.26	272.88
488.62	273.88
488.99	274.89
489.35	275.92
489.72	277.05
490.08	278.20
490.44	279.39
490.81	280.70
491.17	282.03
491.54	283.50
491.90	285.00
492.26	286.61
492.63	288.32
492.99	290.03
493.36	291.88
493.72	293.94
494.08	296.04
494.45	298.27
494.81	300.60
495.17	303.07
495.54	305.63
495.90	308.26
496.26	311.02
496.63	313.94
496.99	317.01
497.35	320.23
497.72	323.63
498.08	327.14
498.44	330.76
498.80	334.65
499.17	338.67
499.53	342.83
499.89	347.21
500.26	351.64
500.62	356.23
500.98	361.14
501.34	366.13
501.71	371.33
502.07	376.62
502.43	382.16
502.79	387.88
503.16	393.82
503.52	400.02
503.88	406.32
504.24	412.84
504.60	419.57
504.97	426.58
505.33	433.76
505.69	441.34
506.05	448.98
506.41	456.65
506.78	464.62
507.14	472.87
507.50	481.32
507.86	490.15
508.22	499.16
508.59	508.16
508.95	517.51
509.31	527.17
509.67	537.08
510.03	547.16
510.39	557.48
510.75	567.96
511.12	578.55
511.48	589.53
511.84	600.64
512.20	611.86
512.56	623.46
512.92	635.30
513.28	647.31
513.64	659.38
514.00	671.79
514.37	684.36
514.73	697.01
515.09	709.58
515.45	722.46
515.81	735.55
516.17	749.10
516.53	762.80
516.89	776.46
517.25	790.21
517.61	804.16
517.97	818.12
518.33	832.16
518.69	846.50
519.05	861.01
519.41	875.74
519.77	890.89
520.13	905.88
520.49	920.83
520.85	935.67
521.21	950.88
521.57	966.58
521.93	981.78
522.29	997.60
522.65	1013.44
523.01	1029.07
523.37	1044.69
523.73	1060.32
524.09	1075.87
524.45	1091.67
524.81	1107.70
525.17	1123.81
525.53	1140.19
525.89	1156.48
526.25	1172.80
526.61	1188.59
526.97	1204.78
527.33	1220.64
527.68	1236.58
528.04	1252.54
528.40	1268.46
528.76	1284.99
529.12	1300.99
529.48	1317.50
529.84	1332.98
530.20	1349.08
530.56	1365.59
530.91	1382.38
531.27	1398.76
531.63	1414.85
531.99	1430.98
532.35	1446.52
532.71	1462.13
533.07	1477.90
533.42	1493.47
533.78	1509.07
534.14	1524.90
534.50	1539.90
534.86	1555.43
535.21	1570.40
535.57	1585.93
535.93	1601.09
536.29	1615.56
536.65	1630.34
537.00	1644.60
537.36	1659.72
537.72	1673.97
538.08	1688.23
538.44	1701.94
538.79	1715.52
539.15	1728.73
539.51	1742.15
539.87	1756.23
540.22	1769.75
540.58	1783.21
540.94	1796.04
541.29	1808.56
541.65	1821.21
542.01	1834.12
542.37	1846.35
542.72	1858.47
543.08	1870.17
543.44	1882.60
543.79	1893.75
544.15	1904.75
544.51	1916.32
544.87	1927.13
545.22	1937.98
545.58	1948.11
545.94	1957.74
546.29	1967.53
546.65	1977.69
547.01	1987.19
547.36	1996.02
547.72	2004.56
548.07	2012.71
548.43	2021.13
548.79	2029.24
549.14	2036.95
549.50	2044.40
549.86	2052.08
550.21	2059.56
550.57	2066.89
550.92	2073.73
551.28	2080.98
551.64	2088.14
551.99	2094.84
552.35	2101.17
552.70	2107.60
553.06	2113.94
553.41	2120.56
553.77	2126.85
554.13	2132.97
554.48	2139.12
554.84	2145.00
555.19	2150.37
555.55	2155.75
555.90	2160.63
556.26	2166.06
556.61	2171.10
556.97	2175.97
557.32	2180.61
557.68	2185.28
558.03	2189.85
558.39	2193.60
558.74	2198.50
559.10	2202.71
559.45	2206.80
559.81	2211.40
560.16	2215.48
560.52	2219.07
560.87	2222.84
561.23	2225.88
561.58	2229.06
561.94	2232.10
562.29	2234.71
562.64	2238.14
563.00	2241.06
563.35	2244.88
563.71	2248.40
564.06	2251.86
564.42	2255.19
564.77	2258.18
565.12	2261.01
565.48	2263.50
565.83	2266.11
566.19	2268.17
566.54	2269.35
566.89	2271.08
567.25	2272.52
567.60	2274.11
567.96	2276.23
568.31	2277.55
568.66	2279.28
569.02	2280.42
569.37	2281.28
569.72	2282.76
570.08	2283.24
570.43	2283.75
570.78	2283.84
571.14	2282.85
571.49	2281.97
571.84	2281.77
572.20	2281.06
572.55	2280.23
572.90	2278.85
573.26	2277.85
573.61	2276.23
573.96	2275.25
574.31	2272.62
574.67	2269.86
575.02	2266.75
575.37	2263.62
575.72	2260.44
576.08	2257.34
576.43	2254.27
576.78	2251.15
577.13	2248.10
577.49	2245.18
577.84	2242.17
578.19	2238.70
578.54	2235.42
578.90	2231.86
579.25	2226.90
579.60	2222.37
579.95	2218.08
580.30	2213.52
580.66	2208.72
581.01	2204.21
581.36	2199.53
581.71	2195.84
582.06	2191.90
582.42	2187.89
582.77	2183.18
583.12	2178.87
583.47	2174.72
583.82	2170.41
584.17	2165.34
584.53	2160.37
584.88	2155.15
585.23	2149.88
585.58	2144.62
585.93	2139.58
586.28	2134.70
586.63	2129.92
586.98	2125.01
587.34	2120.24
587.69	2115.49
588.04	2110.61
588.39	2105.32
588.74	2098.96
589.09	2093.01
589.44	2086.45
589.79	2080.60
590.14	2075.18
590.49	2068.74
590.84	2062.36
591.19	2056.51
591.54	2050.27
591.89	2043.25
592.25	2036.91
592.60	2029.88
592.95	2022.79
593.30	2015.50
593.65	2008.28
594.00	2001.43
594.35	1994.45
594.70	1986.59
595.05	1979.89
595.40	1972.67
595.75	1965.25
596.10	1959.49
596.45	1953.05
596.80	1947.09
597.15	1940.68
597.50	1933.91
597.85	1927.68
598.19	1921.29
598.54	1914.61
598.89	1908.18
599.24	1902.31
599.59	1895.99
599.94	1889.72
600.29	1883.27
600.64	1876.79
600.99	1869.54
601.34	1862.93
601.69	1855.95
602.04	1849.27
602.39	1841.90
602.74	1835.20
603.08	1828.70
603.43	1821.82
603.78	1814.56
604.13	1807.34
604.48	1800.27
604.83	1793.37
605.18	1786.72
605.53	1778.83
605.87	1770.74
606.22	1763.43
606.57	1755.56
606.92	1747.86
607.27	1740.92
607.62	1734.28
607.96	1727.24
608.31	1720.85
608.66	1713.35
609.01	1705.93
609.36	1698.49
609.70	1690.50
610.05	1682.60
610.40	1674.88
610.75	1666.71
611.10	1658.99
611.44	1650.48
611.79	1642.25
612.14	1633.56
612.49	1624.21
612.83	1615.66
613.18	1607.37
613.53	1599.29
613.88	1590.69
614.22	1582.40
614.57	1573.49
614.92	1565.27
615.27	1557.69
615.61	1549.28
615.96	1541.19
616.31	1533.28
616.65	1525.78
617.00	1518.17
617.35	1510.32
617.70	1502.03
618.04	1493.55
618.39	1485.15
618.74	1477.71
619.08	1469.31
619.43	1461.63
619.78	1454.59
620.12	1447.55
620.47	1440.01
620.82	1431.62
621.16	1424.06
621.51	1416.40
621.85	1408.72
622.20	1400.09
622.55	1391.44
622.89	1383.41
623.24	1375.49
623.59	1368.05
623.93	1360.43
624.28	1353.11
624.62	1345.53
624.97	1338.21
625.32	1331.25
625.66	1324.08
626.01	1316.67
626.35	1309.45
626.70	1301.54
627.04	1293.84
627.39	1285.86
627.73	1278.29
628.08	1271.42
628.43	1264.19
628.77	1256.86
629.12	1249.36
629.46	1242.26
629.81	1234.71
630.15	1227.38
630.50	1220.00
630.84	1211.84
631.19	1203.81
631.53	1196.09
631.88	1188.43
632.22	1180.77
632.57	1173.44
632.91	1165.80
633.26	1158.46
633.60	1150.86
633.95	1143.62
634.29	1136.36
634.64	1129.65
634.98	1122.26
635.32	1115.12
635.67	1108.36
636.01	1101.52
636.36	1094.69
636.70	1087.94
637.05	1081.42
637.39	1074.89
637.73	1068.37
638.08	1062.46
638.42	1056.46
638.77	1050.13
639.11	1043.55
639.45	1037.05
639.80	1030.33
640.14	1023.99
640.49	1017.33
640.83	1010.97
641.17	1004.83
641.52	998.60
641.86	992.02
642.20	986.13
642.55	979.61
642.89	973.08
643.23	966.43
643.58	960.61
643.92	954.46
644.26	948.48
644.61	942.28
644.95	936.18
645.29	929.62
645.64	922.82
645.98	916.43
646.32	910.35
646.66	904.33
647.01	898.54
647.35	892.89
647.69	886.95
648.04	881.39
648.38	875.54
648.72	869.48
649.06	863.52
649.41	857.55
649.75	851.67
650.09	845.72
650.43	839.95
650.78	833.81
651.12	827.83
651.46	821.97
651.80	816.40
652.14	810.92
652.49	805.50
652.83	800.30
653.17	794.79
653.51	789.27
653.85	783.84
654.20	778.18
654.54	772.14
654.88	766.39
655.22	760.52
655.56	754.84
655.90	749.31
656.25	743.99
656.59	738.74
656.93	733.63
657.27	728.50
657.61	723.09
657.95	717.97
658.29	712.85
658.64	707.53
658.98	702.12
659.32	696.76
659.66	691.50
660.00	686.27
660.34	681.18
660.68	676.08
661.02	671.05
661.36	666.28
661.70	661.80
662.05	657.43
662.39	653.08
662.73	648.57
663.07	644.17
663.41	639.70
663.75	635.17
664.09	630.59
664.43	626.22
664.77	622.13
665.11	617.88
665.45	613.70
665.79	609.66
666.13	605.56
666.47	601.42
666.81	597.25
667.15	593.06
667.49	589.08
667.83	585.29
668.17	581.32
668.51	577.32
668.85	573.19
669.19	569.26
669.53	565.47
669.87	561.63
670.21	557.89
670.55	554.17
670.89	550.67
671.23	547.18
671.57	543.63
671.91	540.08
672.25	536.45
672.58	532.98
672.92	529.44
673.26	526.22
673.60	522.98
673.94	519.94
674.28	516.96
674.62	514.03
674.96	510.96
675.30	508.04
675.64	505.05
675.97	502.29
676.31	499.45
676.65	496.47
676.99	493.69
677.33	490.85
677.67	488.06
678.01	485.05
678.34	482.12
678.68	479.23
679.02	476.40
679.36	473.64
679.70	470.84
680.04	468.20
680.37	465.38
680.71	462.55
681.05	459.84
681.39	457.10
681.73	454.42
682.06	451.86
682.40	449.32
682.74	446.75
683.08	444.14
683.42	441.52
683.75	438.99
684.09	436.41
684.43	433.89
684.77	431.40
685.10	429.00
685.44	426.64
685.78	424.27
686.12	421.96
686.45	419.64
686.79	417.36
687.13	415.07
687.46	412.86
687.80	410.70
688.14	408.43
688.48	406.37
688.81	404.16
689.15	402.01
689.49	399.81
689.82	397.69
690.16	395.57
690.50	393.62
690.83	391.63
691.17	389.63
691.51	387.75
691.84	385.91
692.18	384.06
692.52	382.11
692.85	380.19
693.19	378.28
693.52	376.42
693.86	374.56
694.20	372.76
694.53	370.92
694.87	369.03
695.21	367.25
695.54	365.38
695.88	363.59
696.21	361.85
696.55	360.12
696.88	358.44
697.22	356.74
697.56	355.03
697.89	353.36
698.23	351.79
698.56	350.12
698.90	348.53
699.23	346.84
699.57	345.27
699.90	343.70
700.24	342.13
700.58	340.62
700.91	339.18
701.25	337.73
701.58	336.38
701.92	335.03
702.25	333.64
702.59	332.28
702.92	330.94
703.26	329.60
703.59	328.32
703.93	327.10
704.26	325.88
704.60	324.57
704.93	323.32
705.26	322.05
705.60	320.80
705.93	319.57
706.27	318.45
706.60	317.35
706.94	316.27
707.27	315.15
707.61	314.02
707.94	312.93
708.27	311.82
708.61	310.71
708.94	309.69
709.28	308.65
709.61	307.64
709.94	306.66
710.28	305.62
710.61	304.61
710.95	303.54
711.28	302.58
711.61	301.61
711.95	300.62
712.28	299.65
712.61	298.72
712.95	297.80
713.28	296.90
713.61	296.01
713.95	295.09
714.28	294.24
714.61	293.38
714.95	292.52
715.28	291.66
715.61	290.73
715.95	289.89
716.28	289.03
716.61	288.22
716.95	287.32
717.28	286.56
717.61	285.83
717.94	285.04
718.28	284.18
718.61	283.44
718.94	282.78
719.27	282.11
719.61	281.46
719.94	280.80
720.27	280.07
720.60	279.36
720.94	278.72
721.27	278.06
721.60	277.46
721.93	276.83
722.27	276.26
722.60	275.70
722.93	275.06
723.26	274.50
723.59	273.91
723.93	273.35
724.26	272.76
724.59	272.15
724.92	271.60
725.25	271.07
725.59	270.57
725.92	270.01
726.25	269.50
726.58	268.91
726.91	268.35
727.24	267.89
727.57	267.41
727.91	266.86
728.24	266.41
728.57	265.92
728.90	265.46
729.23	264.95
729.56	264.50
729.89	264.05
730.22	263.57
730.55	263.10
730.89	262.69
731.22	262.27
731.55	261.82
731.88	261.43
732.21	261.03
732.54	260.59
732.87	260.16
733.20	259.72
733.53	259.36
733.86	259.04
734.19	258.63
734.52	258.25
734.85	257.98
735.18	257.54
735.51	257.14
735.84	256.78
736.17	256.44
736.50	256.04
736.83	255.81
737.16	255.52
737.49	255.17
737.82	254.83
738.15	254.48
738.48	254.17
738.81	253.84
739.14	253.54
739.47	253.24
739.80	252.93
740.13	252.62
740.46	252.30
740.79	251.98
741.12	251.71
741.45	251.40
741.78	251.04
742.11	250.76
742.44	250.47
742.77	250.18
743.10	249.90
743.43	249.63
743.75	249.22
744.08	249.05
744.41	248.76
744.74	248.48
745.07	248.22
745.40	247.93
745.73	247.67
746.06	247.40
746.39	247.12
746.71	246.88
747.04	246.64
747.37	246.36
747.70	246.09
748.03	245.80
748.36	245.55
748.68	245.32
749.01	245.07
749.34	244.86
749.67	244.61
750.00	244.38
750.33	244.23
750.65	244.00
750.98	243.62
751.31	243.44
751.64	243.19
751.97	243.02
752.29	242.83
752.62	242.56
752.95	242.33
753.28	242.13
753.60	241.87
753.93	241.68
754.26	241.51
754.59	241.27
754.91	241.08
755.24	240.89
755.57	240.67
755.90	240.49
756.22	240.30
756.55	240.08
756.88	239.84
757.20	239.59
757.53	239.40
757.86	239.20
758.19	239.00
758.51	238.83
758.84	238.60
759.17	238.40
759.49	238.24
759.82	238.11
760.15	237.92
760.47	237.78
760.80	237.60
761.13	237.42
761.45	237.27
761.78	237.10
762.11	236.92
762.43	236.76
762.76	236.59
763.08	236.45
763.41	236.32
763.74	236.21
764.06	236.04
764.39	235.89
764.71	235.76
765.04	235.59
765.37	235.45
765.69	235.32
766.02	235.18
766.34	235.04
766.67	234.87
767.00	234.80
767.32	234.69
767.65	234.61
767.97	234.50
768.30	234.39
768.62	234.25
768.95	234.12
769.27	233.97
769.60	233.91
769.92	233.76
770.25	233.62
770.57	233.49
770.90	233.41
771.22	233.29
771.55	233.19
771.87	233.11
772.20	233.05
772.52	233.01
772.85	233.05
773.17	232.93
773.50	232.86
773.82	232.71
774.15	232.57
774.47	232.43
774.80	232.34
775.12	232.25
775.45	232.20
775.77	232.16
776.09	232.11
776.42	232.01
776.74	231.95
777.07	231.87
777.39	231.80
777.72	231.70
778.04	231.64
778.36	231.58
778.69	231.52
779.01	231.46
779.33	231.33
779.66	231.16
779.98	231.12
780.31	231.03
780.63	231.02
780.95	231.01
781.28	230.99
781.60	230.92
781.92	230.84
782.25	230.80
782.57	230.71
782.89	230.64
783.22	230.60
783.54	230.56
783.86	230.52
784.19	230.49
784.51	230.49
784.83	230.42
785.16	230.36
785.48	230.32
785.80	230.27
786.12	230.21
786.45	230.16
786.77	230.12
787.09	230.07
787.42	229.98
787.74	229.95
788.06	229.88
788.38	229.83
788.71	229.81
789.03	229.74
789.35	229.72
789.67	229.67
789.99	229.59
790.32	229.53
790.64	229.50
790.96	229.52
791.28	229.42
791.61	229.39
791.93	229.36
792.25	229.29
792.57	229.29
792.89	229.21
793.21	229.17
793.54	229.12
793.86	229.11
794.18	229.09
794.50	229.00
794.82	228.95
795.14	228.94
795.47	228.90
795.79	228.87
796.11	228.82
796.43	228.79
796.75	228.74
797.07	228.69
797.39	228.64
797.71	228.51
798.04	228.51
798.36	228.46
798.68	228.42
799.00	228.44
799.32	228.35
799.64	228.37
799.96	228.34
800.28	228.29
800.60	228.24
800.92	228.20
801.24	228.18
801.56	228.16
801.89	228.09
802.21	228.05
802.53	227.97
802.85	227.96
803.17	227.96
803.49	227.97
803.81	227.93
804.13	227.88
804.45	227.83
804.77	227.78
805.09	227.75
805.41	227.69
805.73	227.62
806.05	227.57
806.37	227.51
806.69	227.46
807.01	227.43
807.33	227.39
807.65	227.32
807.97	227.34
808.28	227.26
808.60	227.25
808.92	227.22
809.24	227.26
809.56	227.22
809.88	227.17
810.20	227.12
810.52	227.09
810.84	227.07
811.16	227.04
811.48	226.99
811.80	227.03
812.12	227.01
812.43	227.00
812.75	227.00
813.07	226.98
813.39	226.97
813.71	226.97
814.03	226.93
814.35	226.92
814.67	226.88
814.98	226.88
815.30	226.87
815.62	226.83
815.94	226.75
816.26	226.78
816.58	226.71
816.89	226.69
817.21	226.68
817.53	226.69
817.85	226.69
818.17	226.69
818.48	226.61
818.80	226.64
819.12	226.62
819.44	226.61
819.76	226.63
820.07	226.61
820.39	226.59
820.71	226.62
821.03	226.63
821.34	226.62
821.66	226.62
821.98	226.60
822.30	226.57
822.61	226.62
822.93	226.56
823.25	226.58
823.57	226.57
823.88	226.58
824.20	226.58
824.52	226.58
824.83	226.58
825.15	226.58
825.47	226.55
825.79	226.53
826.10	226.50
826.42	226.45
826.74	226.44
827.05	226.45
827.37	226.44
827.69	226.41
828.00	226.38
828.32	226.37
828.64	226.37
828.95	226.45
829.27	226.43
829.58	226.40
829.90	226.41
830.22	226.40
830.53	226.36
830.85	226.33
831.17	226.30
831.48	226.28
831.80	226.27
832.11	226.26
832.43	226.26
832.75	226.23
833.06	226.28
833.38	226.24
833.69	226.21
834.01	226.21
834.32	226.18
834.64	226.15
834.96	226.13
835.27	226.12
835.59	226.08
835.90	226.04
836.22	226.05
836.53	226.01
836.85	225.98
837.16	226.07
837.48	226.06
837.79	226.08
838.11	226.09
838.42	226.09
838.74	226.09
839.05	226.06
839.37	226.05
839.68	225.95
840.00	225.95
840.31	225.93
840.63	225.91
840.94	225.88
841.26	225.88
841.57	225.88
841.88	225.87
842.20	225.81
842.51	225.76
842.83	225.75
843.14	225.82
843.46	225.81
843.77	225.73
844.08	225.71
844.40	225.65
844.71	225.62
845.03	225.60
845.34	225.59
845.65	225.56
845.97	225.53
846.28	225.54
846.60	225.51
846.91	225.48
847.22	225.44
847.54	225.49
847.85	225.45
848.16	225.43
848.48	225.38
848.79	225.43
849.10	225.44
849.42	225.45
849.73	225.36
850.04	225.32
850.36	225.29
850.67	225.32
850.98	225.29
851.30	225.26
851.61	225.25
851.92	225.20
852.23	225.24
852.55	225.29
852.86	225.31
853.17	225.32
853.49	225.33
853.80	225.36
854.11	225.34
854.42	225.37
854.74	225.35
855.05	225.34
855.36	225.30
855.67	225.30
855.99	225.25
856.30	225.38
856.61	225.43
856.92	225.45
857.23	225.42
857.55	225.46
857.86	225.46
858.17	225.44
858.48	225.44
858.79	225.42
859.11	225.40
859.42	225.40
859.73	225.41
860.04	225.39
860.35	225.40
860.66	225.37
860.98	225.39
861.29	225.42
861.60	225.44
861.91	225.47
862.22	225.47
862.53	225.47
862.84	225.39
863.16	225.43
863.47	225.41
863.78	225.43
864.09	225.41
864.40	225.47
864.71	225.52
865.02	225.54
865.33	225.56
865.64	225.54
865.95	225.53
866.27	225.61
866.58	225.64
866.89	225.64
867.20	225.65
867.51	225.65
867.82	225.65
868.13	225.71
868.44	225.69
868.75	225.73
869.06	225.74
869.37	225.74
869.68	225.72
869.99	225.71
870.30	225.72
870.61	225.74
870.92	225.70
871.23	225.66
871.54	225.64
871.85	225.66
872.16	225.68
872.47	225.68
872.78	225.58
873.09	225.59
873.40	225.57
873.71	225.58
874.02	225.53
874.33	225.52
874.64	225.45
874.95	225.45
875.26	225.43
875.56	225.42
875.87	225.38
876.18	225.35
876.49	225.43
876.80	225.39
877.11	225.39
877.42	225.38
877.73	225.37
878.04	225.36
878.35	225.35
878.66	225.35
878.96	225.32
879.27	225.33
879.58	225.31
879.89	225.28
880.20	225.31
880.51	225.31
880.82	225.29
881.12	225.30
881.43	225.24
881.74	225.18
882.05	225.18
882.36	225.19
882.67	225.17
882.97	225.07
883.28	225.08
883.59	225.05
883.90	225.06
884.21	225.08
884.51	225.11
884.82	225.09
885.13	225.07
885.44	225.05
885.74	225.02
886.05	225.02
886.36	225.04
886.67	224.98
886.98	225.06
887.28	225.03
887.59	225.03
887.90	225.09
888.20	225.10
888.51	225.15
888.82	225.13
889.13	225.13
889.43	225.25
889.74	225.22
890.05	225.22
890.35	225.18
890.66	225.17
890.97	225.12
891.28	225.10
891.58	225.11
891.89	225.13
892.20	225.15
892.50	225.13
892.81	225.10
893.12	225.08
893.42	225.02
893.73	225.05
894.04	225.05
894.34	225.01
894.65	225.03
894.95	224.97
895.26	224.96
895.57	224.99
895.87	224.88
896.18	224.93
896.48	224.93
896.79	224.96
897.10	224.97
897.40	225.02
897.71	225.03
898.01	225.03
898.32	225.03
898.63	225.04
898.93	225.04
899.24	225.08
899.54	225.10
899.85	225.11
900.15	225.12
900.46	225.12
900.76	225.15
901.07	225.17
901.38	225.18
901.68	225.20
901.99	225.17
902.29	225.20
902.60	225.15
902.90	225.16
903.21	225.15
903.51	225.15
903.82	225.16
904.12	225.16
904.43	225.17
904.73	225.20
905.03	225.23
905.34	225.36
905.64	225.33
905.95	225.33
906.25	225.33
906.56	225.32
906.86	225.33
907.17	225.32
907.47	225.30
907.77	225.33
908.08	225.31
908.38	225.31
908.69	225.29
908.99	225.32
909.30	225.34
909.60	225.36
909.90	225.37
910.21	225.33
910.51	225.35
910.81	225.35
911.12	225.33
911.42	225.34
911.73	225.21
912.03	225.22
912.33	225.26
912.64	225.23
912.94	225.23
913.24	225.23
913.55	225.24
913.85	225.25
914.15	225.24
914.46	225.26
914.76	225.28
915.06	225.28
915.37	225.29
915.67	225.27
915.97	225.28
916.27	225.25
916.58	225.27
916.88	225.25
917.18	225.24
917.49	225.30
917.79	225.24
918.09	225.26
918.39	225.29
918.70	225.29
919.00	225.32
919.30	225.34
919.60	225.33
919.91	225.33
920.21	225.34
920.51	225.31
920.81	225.34
921.12	225.31
921.42	225.32
921.72	225.30
922.02	225.31
922.32	225.34
922.63	225.32
922.93	225.34
923.23	225.37
923.53	225.35
923.83	225.30
924.13	225.30
924.44	225.28
924.74	225.30
925.04	225.29
925.34	225.28
925.64	225.25
925.94	225.23
926.24	225.25
926.55	225.23
926.85	225.23
927.15	225.19
927.45	225.19
927.75	225.15
928.05	225.13
928.35	225.15
928.65	225.10
928.95	225.09
929.26	225.07
929.56	225.06
929.86	225.09
930.16	225.07
930.46	225.08
930.76	225.09
931.06	225.03
931.36	224.99
931.66	225.00
931.96	225.01
932.26	225.02
932.56	224.95
932.86	224.94
933.16	224.95
933.46	224.95
933.76	224.94
934.06	224.95
934.36	224.99
934.66	224.94
934.96	224.95
935.26	224.99
935.56	224.98
935.86	224.94
936.16	224.89
936.46	224.89
936.76	224.87
937.06	224.85
937.36	224.85
937.66	224.85
937.96	224.85
938.26	224.84
938.56	224.83
938.86	224.86
939.16	224.89
939.46	224.93
939.76	224.89
940.06	224.90
940.35	224.89
940.65	224.84
940.95	224.87
941.25	224.84
941.55	224.82
941.85	224.80
942.15	224.82
942.45	224.86
942.75	224.84
943.04	224.87
943.34	224.89
943.64	224.91
943.94	224.91
944.24	224.89
944.54	224.90
944.84	224.90
945.13	224.90
945.43	224.90
945.73	224.83
946.03	224.87
946.33	224.85
946.62	224.86
946.92	224.87
947.22	224.87
947.52	224.90
947.82	224.94
948.11	224.94
948.41	224.91
948.71	224.91
949.01	224.90
949.31	224.89
949.60	224.87
949.90	224.87
950.20	224.88
950.50	224.87
950.79	224.88
951.09	224.88
951.39	224.88
951.69	224.86
951.98	224.90
952.28	224.89
952.58	224.89
952.87	224.91
953.17	224.93
953.47	224.91
953.76	224.89
954.06	224.86
954.36	224.83
954.66	224.85
954.95	224.88
955.25	224.93
955.55	224.93
955.84	224.93
956.14	224.94
956.44	224.93
956.73	224.91
957.03	224.92
957.32	224.93
957.62	224.97
957.92	225.02
958.21	225.02
958.51	225.15
958.81	225.19
959.10	225.20
959.40	225.24
959.69	225.24
959.99	225.27
960.29	225.28
960.58	225.30
960.88	225.33
961.17	225.32
961.47	225.32
961.76	225.29
962.06	225.32
962.36	225.30
962.65	225.31
962.95	225.33
963.24	225.31
963.54	225.33
963.83	225.28
964.13	225.21
964.42	225.19
964.72	225.08
965.01	225.09
965.31	225.05
965.60	225.00
965.90	225.07
966.19	225.02
966.49	225.04
966.78	225.03
967.08	225.01
967.37	224.97
967.67	224.97
967.96	225.00
968.26	224.97
968.55	224.97
968.85	224.95
969.14	224.92
969.43	224.91
969.73	224.90
970.02	224.89
970.32	224.90
970.61	224.89
970.91	224.87
971.20	224.86
971.49	224.86
971.79	224.86
972.08	224.79
972.38	224.81
972.67	224.78
972.96	224.80
973.26	224.77
973.55	224.82
973.85	224.79
974.14	224.80
974.43	224.83
974.73	224.84
975.02	224.84
975.31	224.87
975.61	224.87
975.90	224.85
976.19	224.86
976.49	224.88
976.78	224.89
977.07	224.89
977.37	224.88
977.66	224.87
977.95	224.85
978.24	224.85
978.54	224.88
978.83	224.86
979.12	224.84
979.42	224.86
979.71	224.84
980.00	224.86
980.29	224.85
980.59	224.81
980.88	224.81
981.17	224.82
981.46	224.80
981.76	224.81
982.05	224.83
982.34	224.84
982.63	224.84
982.93	224.84
983.22	224.84
983.51	224.84
983.80	224.88
984.09	224.91
984.39	224.91
984.68	224.87
984.97	224.88
985.26	224.88
985.55	224.88
985.85	224.84
986.14	224.82
986.43	224.81
986.72	224.81
987.01	224.80
987.30	224.81
987.59	224.81
987.89	224.80
988.18	224.75
988.47	224.75
988.76	224.72
989.05	224.68
989.34	224.69
989.63	224.71
989.92	224.66
990.22	224.62
990.51	224.63
990.80	224.62
991.09	224.62
991.38	224.62
991.67	224.62
991.96	224.64
992.25	224.64
992.54	224.65
992.83	224.66
993.12	224.63
993.41	224.64
993.70	224.68
993.99	224.73
994.28	224.75
994.58	224.76
994.87	224.76
995.16	224.80
995.45	224.77
995.74	224.73
996.03	224.75
996.32	224.79
996.61	224.80
996.90	224.82
997.19	224.84
997.48	224.87
997.77	224.86
998.06	224.83
998.34	224.83
998.63	224.75
998.92	224.74
999.21	224.80
999.50	224.77
999.79	224.74
1000.08	224.72
1000.37	224.73
1000.66	224.71
1000.95	224.72
1001.24	224.72
1001.53	224.75
1001.82	224.73
1002.11	224.72
1002.40	224.72
1002.68	224.72
1002.97	224.80
1003.26	224.79
1003.55	224.78
1003.84	224.77
1004.13	224.84
1004.42	224.84
1004.71	224.90
1004.99	224.93
1005.28	224.95
1005.57	224.94
1005.86	224.89
1006.15	224.88
1006.44	224.86
1006.72	224.92
1007.01	224.91
1007.30	224.93
1007.59	224.93
1007.88	224.93
1008.17	224.94
1008.45	224.90
1008.74	224.94
1009.03	224.89
1009.32	224.91
1009.60	224.92
1009.89	224.95
1010.18	224.90
1010.47	224.90
1010.76	224.89
1011.04	224.87
1011.33	224.82
1011.62	224.86
1011.91	224.90
1012.19	224.89
1012.48	224.87
1012.77	224.85
1013.05	224.86
1013.34	224.86
1013.63	224.86
1013.92	224.87
1014.20	224.85
1014.49	224.87
1014.78	224.81
1015.06	224.75
1015.35	224.74
1015.64	224.75
1015.92	224.75
1016.21	224.74
1016.50	224.74
1016.78	224.75
1017.07	224.77
1017.36	224.77
1017.64	224.75
1017.93	224.75
1018.22	224.76
1018.50	224.77
1018.79	224.76
1019.08	224.75
1019.36	224.74
1019.65	224.70
1019.93	224.73
1020.22	224.75
1020.51	224.78
1020.79	224.77
1021.08	224.61
1021.36	224.49
1021.65	224.95
1021.94	224.81
1022.22	224.93
1022.51	224.02
1022.79	225.15
1023.08	224.74
1023.36	225.75
1023.65	224.39
>>>>>End Processed Spectral Data<<<<<
