SpectraSuite Data File
++++++++++++++++++++++++++++++++++++
Date: Fri Feb 01 17:16:11 EST 2013
User: group
Dark Spectrum Present: No
Reference Spectrum Present: No
Number of Sampled Component Spectra: 1
Spectrometers: USB2E7196
Integration Time (usec): 35000 (USB2E7196)
Spectra Averaged: 100 (USB2E7196)
Boxcar Smoothing: 10 (USB2E7196)
Correct for Electrical Dark: No (USB2E7196)
Strobe/Lamp Enabled: No (USB2E7196)
Correct for Detector Non-linearity: No (USB2E7196)
Correct for Stray Light: No (USB2E7196)
Number of Pixels in Processed Spectrum: 2048
>>>>>Begin Processed Spectral Data<<<<<
339.09	0.00
339.48	212.68
339.86	214.31
340.24	215.52
340.63	217.46
341.01	219.47
341.39	219.99
341.78	220.95
342.16	222.55
342.54	222.17
342.93	211.24
343.31	221.91
343.69	222.47
344.07	222.93
344.46	223.38
344.84	223.75
345.22	224.00
345.60	224.24
345.99	224.45
346.37	224.56
346.75	224.70
347.13	224.76
347.52	224.83
347.90	224.89
348.28	224.92
348.66	224.98
349.05	224.97
349.43	225.04
349.81	225.13
350.19	225.18
350.57	225.22
350.96	225.30
351.34	225.42
351.72	225.52
352.10	225.62
352.48	225.68
352.87	225.74
353.25	225.82
353.63	225.89
354.01	225.97
354.39	226.08
354.77	226.17
355.15	226.30
355.54	226.40
355.92	226.45
356.30	226.54
356.68	226.70
357.06	226.78
357.44	226.83
357.82	226.89
358.20	226.96
358.58	227.08
358.97	227.14
359.35	227.21
359.73	227.27
360.11	227.32
360.49	227.38
360.87	227.46
361.25	227.53
361.63	227.59
362.01	227.65
362.39	227.67
362.77	227.70
363.15	227.74
363.53	227.74
363.91	227.82
364.29	227.83
364.67	227.77
365.05	227.76
365.43	227.81
365.81	227.81
366.19	227.88
366.57	227.87
366.95	227.90
367.33	227.89
367.71	227.88
368.09	227.91
368.47	227.92
368.85	227.90
369.23	227.88
369.61	227.84
369.99	227.83
370.37	227.81
370.75	227.82
371.13	227.76
371.51	227.72
371.89	227.68
372.27	227.66
372.65	227.61
373.03	227.59
373.41	227.53
373.78	227.52
374.16	227.41
374.54	227.32
374.92	227.23
375.30	227.13
375.68	227.05
376.06	226.97
376.44	226.90
376.82	226.86
377.19	226.78
377.57	226.71
377.95	226.64
378.33	226.57
378.71	226.46
379.09	226.38
379.47	226.35
379.84	226.27
380.22	226.19
380.60	226.08
380.98	226.01
381.36	225.93
381.73	225.81
382.11	225.77
382.49	225.71
382.87	225.64
383.25	225.61
383.62	225.68
384.00	225.63
384.38	225.58
384.76	225.53
385.13	225.52
385.51	225.48
385.89	225.37
386.27	225.35
386.64	225.31
387.02	225.28
387.40	225.19
387.78	225.14
388.15	225.08
388.53	225.07
388.91	225.03
389.29	225.00
389.66	224.98
390.04	224.93
390.42	224.94
390.79	224.94
391.17	224.89
391.55	224.75
391.92	224.68
392.30	224.69
392.68	224.64
393.05	224.60
393.43	224.61
393.81	224.61
394.18	224.57
394.56	224.58
394.94	224.61
395.31	224.61
395.69	224.64
396.06	224.72
396.44	224.74
396.82	224.76
397.19	224.87
397.57	224.93
397.95	224.99
398.32	225.01
398.70	225.09
399.07	225.16
399.45	225.24
399.82	225.35
400.20	225.38
400.58	225.46
400.95	225.54
401.33	225.63
401.70	225.82
402.08	225.90
402.45	225.99
402.83	226.09
403.20	226.19
403.58	226.27
403.95	226.35
404.33	226.47
404.71	226.58
405.08	226.74
405.46	226.83
405.83	226.97
406.21	227.09
406.58	227.20
406.96	227.37
407.33	227.54
407.70	227.71
408.08	228.02
408.45	228.24
408.83	228.46
409.20	228.63
409.58	228.79
409.95	229.08
410.33	229.38
410.70	229.62
411.08	229.93
411.45	230.26
411.82	230.59
412.20	230.94
412.57	231.36
412.95	231.64
413.32	232.06
413.69	232.50
414.07	232.96
414.44	233.44
414.82	233.92
415.19	234.49
415.56	235.04
415.94	235.56
416.31	236.20
416.68	236.84
417.06	237.59
417.43	238.29
417.81	239.04
418.18	239.82
418.55	240.68
418.93	241.59
419.30	242.48
419.67	243.43
420.04	244.41
420.42	245.42
420.79	246.65
421.16	247.83
421.54	249.03
421.91	250.29
422.28	251.55
422.66	252.91
423.03	254.18
423.40	255.52
423.77	256.96
424.15	258.40
424.52	259.91
424.89	261.58
425.26	263.15
425.64	264.65
426.01	266.31
426.38	267.99
426.75	269.71
427.13	271.52
427.50	273.34
427.87	275.27
428.24	277.15
428.61	278.91
428.99	280.86
429.36	283.01
429.73	285.11
430.10	287.21
430.47	289.33
430.85	291.55
431.22	293.88
431.59	296.32
431.96	298.61
432.33	301.15
432.70	303.57
433.08	306.46
433.45	309.15
433.82	311.78
434.19	314.73
434.56	317.59
434.93	320.32
435.30	323.03
435.68	325.97
436.05	328.94
436.42	331.82
436.79	334.46
437.16	337.27
437.53	340.14
437.90	343.00
438.27	345.77
438.64	348.69
439.01	351.35
439.38	353.63
439.75	355.89
440.13	358.43
440.50	360.80
440.87	362.69
441.24	364.70
441.61	366.95
441.98	368.49
442.35	370.32
442.72	372.21
443.09	374.09
443.46	375.16
443.83	375.79
444.20	376.27
444.57	377.15
444.94	377.42
445.31	377.78
445.68	378.22
446.05	378.30
446.42	377.91
446.79	377.45
447.16	377.02
447.53	376.71
447.90	375.55
448.27	374.40
448.64	372.82
449.01	371.64
449.37	369.63
449.74	367.74
450.11	365.45
450.48	362.90
450.85	360.29
451.22	358.04
451.59	355.93
451.96	354.00
452.33	351.33
452.70	348.90
453.07	346.04
453.43	343.04
453.80	340.25
454.17	337.53
454.54	334.93
454.91	332.16
455.28	329.42
455.65	326.88
456.02	324.37
456.38	322.13
456.75	319.44
457.12	317.13
457.49	314.83
457.86	312.64
458.23	310.75
458.59	308.68
458.96	306.59
459.33	304.71
459.70	302.79
460.07	301.23
460.43	299.50
460.80	297.85
461.17	296.40
461.54	294.85
461.91	293.35
462.27	291.91
462.64	290.63
463.01	289.21
463.38	287.86
463.74	286.48
464.11	285.30
464.48	284.22
464.85	283.05
465.21	282.14
465.58	281.20
465.95	280.09
466.32	279.14
466.68	278.19
467.05	277.24
467.42	276.37
467.78	275.42
468.15	274.53
468.52	273.84
468.88	272.95
469.25	272.17
469.62	271.54
469.98	270.85
470.35	270.16
470.72	269.59
471.08	268.97
471.45	268.40
471.82	267.89
472.18	267.31
472.55	266.90
472.92	266.37
473.28	265.91
473.65	265.45
474.02	265.03
474.38	264.67
474.75	264.34
475.11	264.00
475.48	263.75
475.85	263.50
476.21	263.29
476.58	263.12
476.94	263.01
477.31	262.82
477.67	262.66
478.04	262.60
478.41	262.51
478.77	262.52
479.14	262.46
479.50	262.45
479.87	262.50
480.23	262.56
480.60	262.62
480.96	262.68
481.33	262.93
481.69	263.10
482.06	263.31
482.42	263.56
482.79	263.80
483.15	264.11
483.52	264.49
483.88	264.80
484.25	265.16
484.61	265.56
484.98	266.06
485.34	266.62
485.71	267.19
486.07	267.79
486.44	268.36
486.80	269.06
487.17	269.79
487.53	270.58
487.90	271.45
488.26	272.38
488.62	273.37
488.99	274.31
489.35	275.32
489.72	276.44
490.08	277.60
490.44	278.82
490.81	280.13
491.17	281.49
491.54	282.96
491.90	284.51
492.26	286.14
492.63	287.86
492.99	289.63
493.36	291.55
493.72	293.62
494.08	295.72
494.45	297.95
494.81	300.32
495.17	302.75
495.54	305.33
495.90	308.06
496.26	310.88
496.63	313.84
496.99	317.00
497.35	320.23
497.72	323.67
498.08	327.22
498.44	330.89
498.80	334.77
499.17	338.81
499.53	342.97
499.89	347.32
500.26	351.79
500.62	356.44
500.98	361.36
501.34	366.38
501.71	371.72
502.07	377.11
502.43	382.68
502.79	388.48
503.16	394.52
503.52	400.72
503.88	407.05
504.24	413.57
504.60	420.36
504.97	427.45
505.33	434.65
505.69	442.31
506.05	450.02
506.41	457.86
506.78	465.93
507.14	474.29
507.50	482.92
507.86	491.87
508.22	500.97
508.59	510.05
508.95	519.49
509.31	529.16
509.67	539.14
510.03	549.31
510.39	559.73
510.75	570.39
511.12	581.15
511.48	592.30
511.84	603.62
512.20	615.06
512.56	626.79
512.92	638.82
513.28	650.98
513.64	663.18
514.00	675.68
514.37	688.43
514.73	701.33
515.09	714.17
515.45	727.18
515.81	740.53
516.17	754.29
516.53	768.21
516.89	782.21
517.25	796.16
517.61	810.31
517.97	824.57
518.33	838.64
518.69	853.11
519.05	867.83
519.41	882.70
519.77	897.91
520.13	913.05
520.49	928.16
520.85	943.19
521.21	958.57
521.57	974.58
521.93	989.96
522.29	1005.93
522.65	1021.85
523.01	1037.68
523.37	1053.44
523.73	1069.23
524.09	1084.94
524.45	1100.87
524.81	1117.18
525.17	1133.54
525.53	1150.03
525.89	1166.56
526.25	1183.18
526.61	1199.13
526.97	1215.60
527.33	1231.73
527.68	1247.98
528.04	1264.10
528.40	1280.36
528.76	1297.17
529.12	1313.43
529.48	1330.06
529.84	1345.76
530.20	1362.10
530.56	1378.87
530.91	1395.77
531.27	1412.36
531.63	1428.55
531.99	1444.68
532.35	1460.44
532.71	1476.17
533.07	1492.10
533.42	1507.83
533.78	1523.60
534.14	1539.66
534.50	1554.69
534.86	1570.30
535.21	1585.35
535.57	1600.92
535.93	1616.15
536.29	1630.66
536.65	1645.48
537.00	1659.86
537.36	1674.95
537.72	1689.16
538.08	1703.35
538.44	1717.14
538.79	1730.87
539.15	1744.31
539.51	1757.93
539.87	1771.95
540.22	1785.42
540.58	1798.95
540.94	1811.97
541.29	1824.57
541.65	1837.12
542.01	1850.29
542.37	1862.46
542.72	1874.77
543.08	1886.64
543.44	1898.95
543.79	1910.17
544.15	1920.86
544.51	1932.59
544.87	1943.52
545.22	1954.52
545.58	1964.81
545.94	1974.48
546.29	1984.37
546.65	1994.29
547.01	2003.65
547.36	2012.51
547.72	2021.14
548.07	2029.37
548.43	2037.69
548.79	2045.53
549.14	2053.45
549.50	2060.61
549.86	2068.27
550.21	2075.71
550.57	2082.97
550.92	2089.79
551.28	2097.02
551.64	2104.45
551.99	2111.02
552.35	2117.43
552.70	2123.63
553.06	2129.75
553.41	2136.18
553.77	2142.14
554.13	2148.44
554.48	2154.76
554.84	2160.64
555.19	2165.97
555.55	2171.24
555.90	2175.95
556.26	2181.38
556.61	2185.99
556.97	2190.84
557.32	2195.34
557.68	2199.66
558.03	2204.12
558.39	2207.98
558.74	2212.82
559.10	2217.02
559.45	2220.97
559.81	2225.43
560.16	2229.39
560.52	2232.84
560.87	2236.58
561.23	2239.66
561.58	2242.71
561.94	2245.55
562.29	2247.87
562.64	2251.05
563.00	2253.67
563.35	2257.40
563.71	2260.82
564.06	2264.26
564.42	2267.30
564.77	2270.28
565.12	2272.97
565.48	2275.28
565.83	2277.62
566.19	2279.26
566.54	2280.19
566.89	2281.69
567.25	2282.71
567.60	2284.43
567.96	2286.53
568.31	2287.73
568.66	2289.01
569.02	2289.91
569.37	2290.47
569.72	2291.73
570.08	2292.27
570.43	2292.74
570.78	2292.54
571.14	2291.26
571.49	2290.16
571.84	2289.95
572.20	2289.04
572.55	2288.23
572.90	2286.69
573.26	2285.49
573.61	2283.84
573.96	2282.72
574.31	2280.12
574.67	2277.33
575.02	2273.90
575.37	2270.63
575.72	2267.17
576.08	2264.09
576.43	2261.00
576.78	2257.83
577.13	2254.82
577.49	2251.54
577.84	2248.46
578.19	2244.87
578.54	2241.74
578.90	2238.01
579.25	2232.94
579.60	2228.40
579.95	2223.53
580.30	2218.87
580.66	2213.96
581.01	2209.36
581.36	2204.46
581.71	2200.50
582.06	2196.35
582.42	2192.32
582.77	2187.50
583.12	2183.11
583.47	2178.96
583.82	2174.41
584.17	2169.28
584.53	2164.10
584.88	2158.95
585.23	2153.47
585.58	2148.20
585.93	2142.72
586.28	2138.03
586.63	2133.20
586.98	2128.20
587.34	2123.71
587.69	2119.05
588.04	2114.06
588.39	2108.66
588.74	2102.44
589.09	2096.36
589.44	2089.78
589.79	2083.63
590.14	2078.00
590.49	2071.63
590.84	2065.12
591.19	2059.22
591.54	2052.75
591.89	2045.70
592.25	2039.24
592.60	2032.09
592.95	2024.90
593.30	2017.75
593.65	2010.24
594.00	2003.24
594.35	1996.18
594.70	1988.15
595.05	1981.26
595.40	1973.97
595.75	1966.65
596.10	1960.56
596.45	1954.10
596.80	1948.10
597.15	1941.71
597.50	1935.01
597.85	1928.58
598.19	1922.04
598.54	1915.20
598.89	1908.93
599.24	1902.94
599.59	1896.39
599.94	1890.19
600.29	1883.80
600.64	1877.20
600.99	1870.03
601.34	1863.43
601.69	1856.45
602.04	1849.84
602.39	1842.42
602.74	1835.75
603.08	1829.28
603.43	1822.63
603.78	1815.28
604.13	1808.04
604.48	1801.02
604.83	1794.20
605.18	1787.63
605.53	1779.88
605.87	1771.80
606.22	1764.42
606.57	1756.59
606.92	1748.99
607.27	1741.91
607.62	1735.06
607.96	1727.99
608.31	1721.58
608.66	1714.02
609.01	1706.47
609.36	1698.99
609.70	1691.08
610.05	1683.12
610.40	1675.21
610.75	1666.97
611.10	1659.31
611.44	1650.81
611.79	1642.68
612.14	1633.94
612.49	1624.41
612.83	1615.77
613.18	1607.56
613.53	1599.51
613.88	1590.90
614.22	1582.62
614.57	1573.89
614.92	1565.77
615.27	1558.26
615.61	1549.79
615.96	1541.58
616.31	1533.85
616.65	1526.28
617.00	1518.62
617.35	1510.80
617.70	1502.52
618.04	1493.95
618.39	1485.56
618.74	1478.01
619.08	1469.58
619.43	1461.87
619.78	1454.97
620.12	1447.88
620.47	1440.37
620.82	1431.97
621.16	1424.40
621.51	1416.78
621.85	1409.05
622.20	1400.61
622.55	1392.06
622.89	1384.09
623.24	1376.33
623.59	1368.88
623.93	1361.32
624.28	1353.92
624.62	1346.39
624.97	1339.00
625.32	1331.96
625.66	1324.95
626.01	1317.70
626.35	1310.31
626.70	1302.38
627.04	1294.68
627.39	1286.77
627.73	1279.21
628.08	1272.26
628.43	1265.07
628.77	1257.77
629.12	1250.21
629.46	1242.91
629.81	1235.32
630.15	1227.99
630.50	1220.63
630.84	1212.41
631.19	1204.34
631.53	1196.75
631.88	1189.00
632.22	1181.42
632.57	1174.06
632.91	1166.41
633.26	1158.96
633.60	1151.40
633.95	1144.16
634.29	1136.88
634.64	1129.89
634.98	1122.52
635.32	1115.36
635.67	1108.52
636.01	1101.75
636.36	1095.04
636.70	1088.48
637.05	1081.88
637.39	1075.39
637.73	1068.80
638.08	1062.79
638.42	1056.76
638.77	1050.35
639.11	1043.86
639.45	1037.35
639.80	1030.71
640.14	1024.34
640.49	1017.76
640.83	1011.47
641.17	1005.38
641.52	999.08
641.86	992.80
642.20	986.84
642.55	980.39
642.89	973.98
643.23	967.29
643.58	961.39
643.92	955.19
644.26	949.28
644.61	943.11
644.95	937.10
645.29	930.57
645.64	923.93
645.98	917.52
646.32	911.44
646.66	905.38
647.01	899.52
647.35	893.73
647.69	887.79
648.04	882.14
648.38	876.33
648.72	870.41
649.06	864.36
649.41	858.46
649.75	852.60
650.09	846.61
650.43	840.85
650.78	834.67
651.12	828.60
651.46	822.71
651.80	817.03
652.14	811.54
652.49	806.09
652.83	800.82
653.17	795.19
653.51	789.59
653.85	784.09
654.20	778.45
654.54	772.47
654.88	766.70
655.22	760.76
655.56	755.02
655.90	749.48
656.25	744.19
656.59	738.82
656.93	733.73
657.27	728.53
657.61	723.02
657.95	717.85
658.29	712.77
658.64	707.49
658.98	702.07
659.32	696.58
659.66	691.38
660.00	686.11
660.34	681.07
660.68	676.02
661.02	670.98
661.36	666.25
661.70	661.69
662.05	657.35
662.39	653.12
662.73	648.61
663.07	644.20
663.41	639.75
663.75	635.28
664.09	630.58
664.43	626.14
664.77	622.04
665.11	617.78
665.45	613.59
665.79	609.46
666.13	605.37
666.47	601.30
666.81	597.12
667.15	592.89
667.49	588.96
667.83	585.07
668.17	581.16
668.51	577.09
668.85	573.03
669.19	569.13
669.53	565.25
669.87	561.37
670.21	557.58
670.55	553.94
670.89	550.48
671.23	547.10
671.57	543.51
671.91	540.00
672.25	536.48
672.58	532.89
672.92	529.46
673.26	526.20
673.60	522.99
673.94	519.92
674.28	517.00
674.62	514.06
674.96	511.07
675.30	508.16
675.64	505.21
675.97	502.40
676.31	499.48
676.65	496.46
676.99	493.69
677.33	490.86
677.67	487.97
678.01	484.90
678.34	481.88
678.68	479.05
679.02	476.22
679.36	473.42
679.70	470.67
680.04	467.93
680.37	465.12
680.71	462.21
681.05	459.49
681.39	456.76
681.73	454.06
682.06	451.47
682.40	448.89
682.74	446.40
683.08	443.81
683.42	441.16
683.75	438.70
684.09	436.11
684.43	433.61
684.77	431.11
685.10	428.69
685.44	426.36
685.78	424.01
686.12	421.72
686.45	419.39
686.79	417.15
687.13	414.91
687.46	412.71
687.80	410.60
688.14	408.38
688.48	406.30
688.81	404.06
689.15	401.88
689.49	399.70
689.82	397.54
690.16	395.46
690.50	393.53
690.83	391.56
691.17	389.58
691.51	387.65
691.84	385.84
692.18	383.94
692.52	381.96
692.85	380.00
693.19	378.07
693.52	376.17
693.86	374.27
694.20	372.46
694.53	370.65
694.87	368.76
695.21	366.90
695.54	365.04
695.88	363.28
696.21	361.52
696.55	359.80
696.88	358.09
697.22	356.37
697.56	354.65
697.89	352.97
698.23	351.36
698.56	349.73
698.90	348.10
699.23	346.47
699.57	344.86
699.90	343.30
700.24	341.73
700.58	340.25
700.91	338.77
701.25	337.29
701.58	335.93
701.92	334.53
702.25	333.17
702.59	331.75
702.92	330.40
703.26	329.06
703.59	327.77
703.93	326.58
704.26	325.34
704.60	324.08
704.93	322.82
705.26	321.56
705.60	320.35
705.93	319.15
706.27	318.08
706.60	317.03
706.94	315.93
707.27	314.78
707.61	313.64
707.94	312.56
708.27	311.44
708.61	310.26
708.94	309.25
709.28	308.26
709.61	307.30
709.94	306.35
710.28	305.32
710.61	304.34
710.95	303.22
711.28	302.31
711.61	301.33
711.95	300.38
712.28	299.39
712.61	298.41
712.95	297.48
713.28	296.57
713.61	295.63
713.95	294.76
714.28	293.93
714.61	293.09
714.95	292.23
715.28	291.35
715.61	290.50
715.95	289.67
716.28	288.80
716.61	287.93
716.95	287.06
717.28	286.30
717.61	285.52
717.94	284.76
718.28	283.92
718.61	283.19
718.94	282.46
719.27	281.77
719.61	281.09
719.94	280.38
720.27	279.63
720.60	279.01
720.94	278.35
721.27	277.75
721.60	277.15
721.93	276.57
722.27	276.03
722.60	275.46
722.93	274.85
723.26	274.32
723.59	273.80
723.93	273.27
724.26	272.67
724.59	272.06
724.92	271.53
725.25	271.02
725.59	270.51
725.92	269.98
726.25	269.42
726.58	268.92
726.91	268.43
727.24	267.97
727.57	267.46
727.91	266.96
728.24	266.48
728.57	265.99
728.90	265.54
729.23	265.04
729.56	264.60
729.89	264.11
730.22	263.63
730.55	263.13
730.89	262.68
731.22	262.28
731.55	261.87
731.88	261.43
732.21	260.97
732.54	260.51
732.87	260.07
733.20	259.70
733.53	259.31
733.86	258.92
734.19	258.52
734.52	258.14
734.85	257.81
735.18	257.35
735.51	257.00
735.84	256.61
736.17	256.26
736.50	255.86
736.83	255.66
737.16	255.31
737.49	254.96
737.82	254.60
738.15	254.28
738.48	253.92
738.81	253.56
739.14	253.26
739.47	252.95
739.80	252.65
740.13	252.35
740.46	252.03
740.79	251.75
741.12	251.45
741.45	251.13
741.78	250.80
742.11	250.56
742.44	250.19
742.77	249.88
743.10	249.56
743.43	249.26
743.75	248.88
744.08	248.74
744.41	248.44
744.74	248.16
745.07	247.81
745.40	247.54
745.73	247.33
746.06	247.06
746.39	246.84
746.71	246.60
747.04	246.27
747.37	245.98
747.70	245.68
748.03	245.42
748.36	245.18
748.68	244.91
749.01	244.64
749.34	244.42
749.67	244.20
750.00	243.97
750.33	243.83
750.65	243.58
750.98	243.22
751.31	243.01
751.64	242.79
751.97	242.63
752.29	242.41
752.62	242.14
752.95	241.90
753.28	241.63
753.60	241.40
753.93	241.25
754.26	241.06
754.59	240.82
754.91	240.61
755.24	240.40
755.57	240.23
755.90	240.04
756.22	239.84
756.55	239.64
756.88	239.47
757.20	239.22
757.53	239.01
757.86	238.86
758.19	238.74
758.51	238.60
758.84	238.44
759.17	238.28
759.49	238.18
759.82	238.06
760.15	237.92
760.47	237.75
760.80	237.58
761.13	237.49
761.45	237.31
761.78	237.19
762.11	237.07
762.43	236.89
762.76	236.76
763.08	236.64
763.41	236.51
763.74	236.34
764.06	236.20
764.39	236.08
764.71	235.93
765.04	235.73
765.37	235.58
765.69	235.43
766.02	235.30
766.34	235.16
766.67	234.99
767.00	234.90
767.32	234.85
767.65	234.83
767.97	234.69
768.30	234.62
768.62	234.47
768.95	234.34
769.27	234.26
769.60	234.17
769.92	234.05
770.25	233.94
770.57	233.85
770.90	233.75
771.22	233.64
771.55	233.57
771.87	233.52
772.20	233.42
772.52	233.43
772.85	233.47
773.17	233.37
773.50	233.33
773.82	233.22
774.15	233.10
774.47	232.96
774.80	232.87
775.12	232.78
775.45	232.73
775.77	232.69
776.09	232.63
776.42	232.58
776.74	232.51
777.07	232.42
777.39	232.35
777.72	232.28
778.04	232.23
778.36	232.15
778.69	232.11
779.01	232.10
779.33	231.95
779.66	231.77
779.98	231.69
780.31	231.59
780.63	231.59
780.95	231.53
781.28	231.45
781.60	231.37
781.92	231.31
782.25	231.24
782.57	231.17
782.89	231.05
783.22	230.96
783.54	230.89
783.86	230.82
784.19	230.74
784.51	230.75
784.83	230.66
785.16	230.58
785.48	230.52
785.80	230.44
786.12	230.37
786.45	230.33
786.77	230.30
787.09	230.24
787.42	230.14
787.74	230.07
788.06	230.03
788.38	229.97
788.71	229.93
789.03	229.87
789.35	229.83
789.67	229.82
789.99	229.80
790.32	229.76
790.64	229.71
790.96	229.75
791.28	229.63
791.61	229.59
791.93	229.55
792.25	229.46
792.57	229.48
792.89	229.45
793.21	229.38
793.54	229.33
793.86	229.29
794.18	229.26
794.50	229.18
794.82	229.13
795.14	229.15
795.47	229.15
795.79	229.11
796.11	229.01
796.43	228.96
796.75	228.92
797.07	228.89
797.39	228.88
797.71	228.80
798.04	228.76
798.36	228.73
798.68	228.72
799.00	228.72
799.32	228.64
799.64	228.58
799.96	228.57
800.28	228.54
800.60	228.50
800.92	228.45
801.24	228.45
801.56	228.43
801.89	228.35
802.21	228.31
802.53	228.27
802.85	228.25
803.17	228.26
803.49	228.19
803.81	228.14
804.13	228.08
804.45	228.01
804.77	228.01
805.09	228.00
805.41	227.94
805.73	227.89
806.05	227.83
806.37	227.81
806.69	227.79
807.01	227.74
807.33	227.66
807.65	227.63
807.97	227.63
808.28	227.58
808.60	227.60
808.92	227.55
809.24	227.55
809.56	227.53
809.88	227.49
810.20	227.51
810.52	227.51
810.84	227.46
811.16	227.45
811.48	227.41
811.80	227.42
812.12	227.41
812.43	227.38
812.75	227.37
813.07	227.32
813.39	227.29
813.71	227.30
814.03	227.32
814.35	227.31
814.67	227.25
814.98	227.23
815.30	227.19
815.62	227.15
815.94	227.08
816.26	227.10
816.58	227.04
816.89	227.03
817.21	227.01
817.53	227.02
817.85	227.01
818.17	226.99
818.48	226.94
818.80	226.95
819.12	226.93
819.44	226.90
819.76	226.90
820.07	226.93
820.39	226.89
820.71	226.89
821.03	226.89
821.34	226.89
821.66	226.91
821.98	226.89
822.30	226.89
822.61	226.97
822.93	226.91
823.25	226.95
823.57	226.90
823.88	226.90
824.20	226.90
824.52	226.91
824.83	226.90
825.15	226.86
825.47	226.84
825.79	226.85
826.10	226.85
826.42	226.87
826.74	226.82
827.05	226.79
827.37	226.79
827.69	226.74
828.00	226.70
828.32	226.67
828.64	226.64
828.95	226.68
829.27	226.63
829.58	226.63
829.90	226.62
830.22	226.64
830.53	226.62
830.85	226.59
831.17	226.57
831.48	226.59
831.80	226.57
832.11	226.54
832.43	226.54
832.75	226.49
833.06	226.50
833.38	226.47
833.69	226.46
834.01	226.48
834.32	226.48
834.64	226.48
834.96	226.46
835.27	226.43
835.59	226.38
835.90	226.37
836.22	226.34
836.53	226.28
836.85	226.24
837.16	226.30
837.48	226.30
837.79	226.31
838.11	226.27
838.42	226.27
838.74	226.26
839.05	226.19
839.37	226.18
839.68	226.11
840.00	226.09
840.31	226.13
840.63	226.10
840.94	226.10
841.26	226.06
841.57	226.07
841.88	226.11
842.20	226.09
842.51	226.04
842.83	226.04
843.14	226.13
843.46	226.12
843.77	226.08
844.08	226.03
844.40	226.00
844.71	225.98
845.03	225.97
845.34	225.93
845.65	225.96
845.97	225.95
846.28	225.91
846.60	225.91
846.91	225.86
847.22	225.79
847.54	225.79
847.85	225.79
848.16	225.75
848.48	225.67
848.79	225.70
849.10	225.72
849.42	225.71
849.73	225.62
850.04	225.62
850.36	225.57
850.67	225.59
850.98	225.56
851.30	225.56
851.61	225.55
851.92	225.56
852.23	225.58
852.55	225.57
852.86	225.59
853.17	225.59
853.49	225.61
853.80	225.63
854.11	225.65
854.42	225.69
854.74	225.70
855.05	225.74
855.36	225.66
855.67	225.66
855.99	225.69
856.30	225.81
856.61	225.78
856.92	225.77
857.23	225.77
857.55	225.78
857.86	225.76
858.17	225.77
858.48	225.75
858.79	225.71
859.11	225.72
859.42	225.71
859.73	225.69
860.04	225.67
860.35	225.66
860.66	225.63
860.98	225.62
861.29	225.63
861.60	225.64
861.91	225.68
862.22	225.64
862.53	225.63
862.84	225.49
863.16	225.51
863.47	225.48
863.78	225.48
864.09	225.48
864.40	225.51
864.71	225.52
865.02	225.55
865.33	225.55
865.64	225.55
865.95	225.56
866.27	225.59
866.58	225.61
866.89	225.62
867.20	225.62
867.51	225.59
867.82	225.59
868.13	225.61
868.44	225.58
868.75	225.62
869.06	225.59
869.37	225.62
869.68	225.61
869.99	225.63
870.30	225.64
870.61	225.62
870.92	225.60
871.23	225.58
871.54	225.61
871.85	225.63
872.16	225.62
872.47	225.59
872.78	225.59
873.09	225.62
873.40	225.60
873.71	225.59
874.02	225.60
874.33	225.57
874.64	225.53
874.95	225.56
875.26	225.51
875.56	225.53
875.87	225.52
876.18	225.53
876.49	225.63
876.80	225.62
877.11	225.63
877.42	225.61
877.73	225.62
878.04	225.61
878.35	225.59
878.66	225.59
878.96	225.60
879.27	225.58
879.58	225.54
879.89	225.50
880.20	225.54
880.51	225.52
880.82	225.53
881.12	225.59
881.43	225.54
881.74	225.55
882.05	225.54
882.36	225.53
882.67	225.50
882.97	225.40
883.28	225.38
883.59	225.35
883.90	225.37
884.21	225.35
884.51	225.30
884.82	225.29
885.13	225.27
885.44	225.28
885.74	225.28
886.05	225.27
886.36	225.27
886.67	225.22
886.98	225.27
887.28	225.28
887.59	225.23
887.90	225.23
888.20	225.18
888.51	225.17
888.82	225.18
889.13	225.18
889.43	225.25
889.74	225.23
890.05	225.24
890.35	225.26
890.66	225.26
890.97	225.27
891.28	225.25
891.58	225.25
891.89	225.27
892.20	225.23
892.50	225.21
892.81	225.23
893.12	225.22
893.42	225.17
893.73	225.17
894.04	225.18
894.34	225.21
894.65	225.24
894.95	225.25
895.26	225.21
895.57	225.27
895.87	225.18
896.18	225.23
896.48	225.24
896.79	225.22
897.10	225.24
897.40	225.25
897.71	225.26
898.01	225.24
898.32	225.22
898.63	225.21
898.93	225.22
899.24	225.23
899.54	225.23
899.85	225.24
900.15	225.24
900.46	225.21
900.76	225.21
901.07	225.18
901.38	225.13
901.68	225.18
901.99	225.10
902.29	225.10
902.60	225.11
902.90	225.11
903.21	225.09
903.51	225.03
903.82	225.06
904.12	225.06
904.43	225.07
904.73	225.07
905.03	225.07
905.34	225.17
905.64	225.16
905.95	225.16
906.25	225.12
906.56	225.13
906.86	225.14
907.17	225.12
907.47	225.15
907.77	225.18
908.08	225.15
908.38	225.16
908.69	225.20
908.99	225.17
909.30	225.20
909.60	225.22
909.90	225.29
910.21	225.22
910.51	225.22
910.81	225.23
911.12	225.23
911.42	225.23
911.73	225.13
912.03	225.16
912.33	225.21
912.64	225.22
912.94	225.20
913.24	225.20
913.55	225.21
913.85	225.21
914.15	225.24
914.46	225.28
914.76	225.26
915.06	225.23
915.37	225.23
915.67	225.18
915.97	225.18
916.27	225.12
916.58	225.18
916.88	225.20
917.18	225.17
917.49	225.26
917.79	225.26
918.09	225.27
918.39	225.24
918.70	225.21
919.00	225.21
919.30	225.25
919.60	225.23
919.91	225.18
920.21	225.22
920.51	225.18
920.81	225.14
921.12	225.15
921.42	225.12
921.72	225.12
922.02	225.12
922.32	225.11
922.63	225.12
922.93	225.16
923.23	225.13
923.53	225.11
923.83	225.04
924.13	225.02
924.44	225.00
924.74	225.03
925.04	225.05
925.34	225.07
925.64	225.04
925.94	225.02
926.24	225.09
926.55	225.07
926.85	225.11
927.15	225.11
927.45	225.14
927.75	225.16
928.05	225.14
928.35	225.13
928.65	225.15
928.95	225.14
929.26	225.08
929.56	225.10
929.86	225.13
930.16	225.12
930.46	225.15
930.76	225.17
931.06	225.12
931.36	225.09
931.66	225.07
931.96	225.08
932.26	225.08
932.56	225.04
932.86	225.01
933.16	224.99
933.46	224.98
933.76	224.91
934.06	224.96
934.36	224.99
934.66	224.99
934.96	224.98
935.26	225.01
935.56	225.00
935.86	224.97
936.16	224.97
936.46	224.96
936.76	224.96
937.06	224.94
937.36	224.95
937.66	224.96
937.96	224.96
938.26	224.96
938.56	224.96
938.86	224.99
939.16	225.02
939.46	225.06
939.76	225.08
940.06	225.13
940.35	225.08
940.65	225.07
940.95	225.10
941.25	225.11
941.55	225.11
941.85	225.13
942.15	225.16
942.45	225.20
942.75	225.20
943.04	225.20
943.34	225.25
943.64	225.25
943.94	225.24
944.24	225.22
944.54	225.23
944.84	225.20
945.13	225.17
945.43	225.18
945.73	225.18
946.03	225.18
946.33	225.16
946.62	225.15
946.92	225.13
947.22	225.13
947.52	225.16
947.82	225.18
948.11	225.18
948.41	225.17
948.71	225.15
949.01	225.16
949.31	225.17
949.60	225.14
949.90	225.15
950.20	225.16
950.50	225.17
950.79	225.15
951.09	225.20
951.39	225.21
951.69	225.21
951.98	225.23
952.28	225.26
952.58	225.28
952.87	225.29
953.17	225.32
953.47	225.32
953.76	225.28
954.06	225.26
954.36	225.21
954.66	225.19
954.95	225.24
955.25	225.20
955.55	225.17
955.84	225.19
956.14	225.22
956.44	225.19
956.73	225.18
957.03	225.18
957.32	225.16
957.62	225.12
957.92	225.11
958.21	225.07
958.51	225.13
958.81	225.14
959.10	225.16
959.40	225.18
959.69	225.16
959.99	225.18
960.29	225.16
960.58	225.14
960.88	225.19
961.17	225.15
961.47	225.18
961.76	225.20
962.06	225.17
962.36	225.10
962.65	225.12
962.95	225.12
963.24	225.09
963.54	225.11
963.83	225.15
964.13	225.12
964.42	225.08
964.72	224.99
965.01	224.95
965.31	224.90
965.60	224.84
965.90	224.91
966.19	224.87
966.49	224.86
966.78	224.90
967.08	224.85
967.37	224.85
967.67	224.82
967.96	224.82
968.26	224.85
968.55	224.87
968.85	224.89
969.14	224.88
969.43	224.89
969.73	224.87
970.02	224.84
970.32	224.84
970.61	224.83
970.91	224.81
971.20	224.81
971.49	224.81
971.79	224.86
972.08	224.75
972.38	224.76
972.67	224.75
972.96	224.75
973.26	224.74
973.55	224.77
973.85	224.79
974.14	224.77
974.43	224.74
974.73	224.74
975.02	224.72
975.31	224.73
975.61	224.74
975.90	224.74
976.19	224.76
976.49	224.80
976.78	224.84
977.07	224.84
977.37	224.86
977.66	224.90
977.95	224.87
978.24	224.90
978.54	224.94
978.83	224.94
979.12	224.92
979.42	224.94
979.71	224.93
980.00	224.93
980.29	224.93
980.59	224.93
980.88	224.96
981.17	224.97
981.46	224.99
981.76	225.01
982.05	225.04
982.34	225.09
982.63	225.09
982.93	225.09
983.22	225.14
983.51	225.17
983.80	225.18
984.09	225.22
984.39	225.20
984.68	225.20
984.97	225.25
985.26	225.25
985.55	225.25
985.85	225.24
986.14	225.28
986.43	225.31
986.72	225.30
987.01	225.27
987.30	225.23
987.59	225.22
987.89	225.23
988.18	225.20
988.47	225.16
988.76	225.14
989.05	225.15
989.34	225.13
989.63	225.12
989.92	225.11
990.22	225.09
990.51	225.12
990.80	225.10
991.09	225.08
991.38	225.10
991.67	225.11
991.96	225.07
992.25	225.07
992.54	225.05
992.83	225.06
993.12	225.07
993.41	225.15
993.70	225.18
993.99	225.22
994.28	225.25
994.58	225.25
994.87	225.24
995.16	225.19
995.45	225.18
995.74	225.15
996.03	225.12
996.32	225.13
996.61	225.15
996.90	225.17
997.19	225.15
997.48	225.15
997.77	225.15
998.06	225.16
998.34	225.09
998.63	225.10
998.92	225.08
999.21	225.09
999.50	225.07
999.79	225.01
1000.08	224.94
1000.37	224.88
1000.66	224.85
1000.95	224.88
1001.24	224.90
1001.53	224.90
1001.82	224.89
1002.11	224.89
1002.40	224.85
1002.68	224.85
1002.97	224.92
1003.26	224.89
1003.55	224.89
1003.84	224.83
1004.13	224.87
1004.42	224.87
1004.71	224.87
1004.99	224.87
1005.28	224.86
1005.57	224.83
1005.86	224.83
1006.15	224.85
1006.44	224.87
1006.72	224.89
1007.01	224.87
1007.30	224.87
1007.59	224.89
1007.88	224.88
1008.17	224.89
1008.45	224.86
1008.74	224.82
1009.03	224.74
1009.32	224.77
1009.60	224.76
1009.89	224.77
1010.18	224.74
1010.47	224.75
1010.76	224.76
1011.04	224.75
1011.33	224.77
1011.62	224.81
1011.91	224.84
1012.19	224.83
1012.48	224.83
1012.77	224.81
1013.05	224.88
1013.34	224.89
1013.63	224.86
1013.92	224.87
1014.20	224.89
1014.49	224.93
1014.78	224.95
1015.06	224.93
1015.35	224.91
1015.64	224.92
1015.92	224.94
1016.21	224.93
1016.50	224.95
1016.78	224.96
1017.07	224.98
1017.36	224.97
1017.64	224.96
1017.93	224.93
1018.22	224.94
1018.50	224.95
1018.79	225.00
1019.08	224.92
1019.36	224.92
1019.65	224.92
1019.93	224.94
1020.22	224.93
1020.51	224.99
1020.79	225.00
1021.08	224.89
1021.36	224.84
1021.65	225.56
1021.94	224.81
1022.22	224.99
1022.51	224.69
1022.79	225.20
1023.08	224.93
1023.36	226.16
1023.65	225.23
>>>>>End Processed Spectral Data<<<<<
