SpectraSuite Data File
++++++++++++++++++++++++++++++++++++
Date: Fri Feb 01 17:51:54 EST 2013
User: group
Dark Spectrum Present: No
Reference Spectrum Present: No
Number of Sampled Component Spectra: 1
Spectrometers: USB2E7196
Integration Time (usec): 35000 (USB2E7196)
Spectra Averaged: 100 (USB2E7196)
Boxcar Smoothing: 10 (USB2E7196)
Correct for Electrical Dark: No (USB2E7196)
Strobe/Lamp Enabled: No (USB2E7196)
Correct for Detector Non-linearity: No (USB2E7196)
Correct for Stray Light: No (USB2E7196)
Number of Pixels in Processed Spectrum: 2048
>>>>>Begin Processed Spectral Data<<<<<
339.09	0.00
339.48	212.45
339.86	214.05
340.24	215.58
340.63	216.78
341.01	219.56
341.39	219.38
341.78	220.77
342.16	222.04
342.54	222.64
342.93	211.14
343.31	221.82
343.69	222.38
344.07	222.89
344.46	223.30
344.84	223.72
345.22	223.97
345.60	224.25
345.99	224.45
346.37	224.62
346.75	224.74
347.13	224.80
347.52	224.90
347.90	225.01
348.28	225.06
348.66	225.12
349.05	225.12
349.43	225.20
349.81	225.25
350.19	225.29
350.57	225.36
350.96	225.45
351.34	225.57
351.72	225.67
352.10	225.75
352.48	225.85
352.87	225.89
353.25	225.96
353.63	226.03
354.01	226.13
354.39	226.19
354.77	226.27
355.15	226.42
355.54	226.44
355.92	226.48
356.30	226.56
356.68	226.71
357.06	226.78
357.44	226.80
357.82	226.89
358.20	226.99
358.58	227.08
358.97	227.12
359.35	227.18
359.73	227.25
360.11	227.30
360.49	227.36
360.87	227.42
361.25	227.43
361.63	227.51
362.01	227.53
362.39	227.58
362.77	227.63
363.15	227.62
363.53	227.68
363.91	227.71
364.29	227.74
364.67	227.64
365.05	227.63
365.43	227.65
365.81	227.65
366.19	227.67
366.57	227.65
366.95	227.67
367.33	227.65
367.71	227.61
368.09	227.61
368.47	227.59
368.85	227.58
369.23	227.60
369.61	227.54
369.99	227.54
370.37	227.52
370.75	227.51
371.13	227.46
371.51	227.40
371.89	227.34
372.27	227.30
372.65	227.28
373.03	227.26
373.41	227.21
373.78	227.13
374.16	227.01
374.54	226.94
374.92	226.85
375.30	226.80
375.68	226.74
376.06	226.67
376.44	226.58
376.82	226.51
377.19	226.46
377.57	226.38
377.95	226.28
378.33	226.23
378.71	226.11
379.09	226.05
379.47	226.00
379.84	225.94
380.22	225.87
380.60	225.78
380.98	225.70
381.36	225.63
381.73	225.55
382.11	225.50
382.49	225.46
382.87	225.40
383.25	225.31
383.62	225.40
384.00	225.31
384.38	225.28
384.76	225.23
385.13	225.22
385.51	225.15
385.89	225.07
386.27	224.98
386.64	224.96
387.02	224.92
387.40	224.86
387.78	224.81
388.15	224.75
388.53	224.73
388.91	224.69
389.29	224.65
389.66	224.63
390.04	224.58
390.42	224.59
390.79	224.59
391.17	224.55
391.55	224.41
391.92	224.42
392.30	224.39
392.68	224.36
393.05	224.36
393.43	224.41
393.81	224.44
394.18	224.43
394.56	224.42
394.94	224.46
395.31	224.51
395.69	224.57
396.06	224.64
396.44	224.70
396.82	224.76
397.19	224.86
397.57	224.91
397.95	224.98
398.32	224.98
398.70	225.03
399.07	225.15
399.45	225.20
399.82	225.24
400.20	225.34
400.58	225.45
400.95	225.47
401.33	225.56
401.70	225.72
402.08	225.83
402.45	225.94
402.83	226.04
403.20	226.14
403.58	226.23
403.95	226.36
404.33	226.46
404.71	226.58
405.08	226.79
405.46	226.94
405.83	227.09
406.21	227.28
406.58	227.48
406.96	227.65
407.33	227.85
407.70	228.12
408.08	228.40
408.45	228.64
408.83	228.91
409.20	229.15
409.58	229.39
409.95	229.71
410.33	230.05
410.70	230.35
411.08	230.73
411.45	231.10
411.82	231.46
412.20	231.94
412.57	232.47
412.95	232.87
413.32	233.39
413.69	233.94
414.07	234.49
414.44	235.09
414.82	235.71
415.19	236.44
415.56	237.12
415.94	237.87
416.31	238.69
416.68	239.54
417.06	240.50
417.43	241.38
417.81	242.38
418.18	243.38
418.55	244.49
418.93	245.57
419.30	246.79
419.67	248.04
420.04	249.25
420.42	250.55
420.79	252.07
421.16	253.59
421.54	255.16
421.91	256.74
422.28	258.38
422.66	260.12
423.03	261.81
423.40	263.55
423.77	265.38
424.15	267.24
424.52	269.22
424.89	271.33
425.26	273.39
425.64	275.33
426.01	277.42
426.38	279.58
426.75	281.81
427.13	284.06
427.50	286.45
427.87	288.96
428.24	291.39
428.61	293.68
428.99	296.17
429.36	298.89
429.73	301.63
430.10	304.30
430.47	307.02
430.85	309.79
431.22	312.76
431.59	315.89
431.96	318.87
432.33	322.10
432.70	325.22
433.08	328.94
433.45	332.42
433.82	335.87
434.19	339.71
434.56	343.42
434.93	346.90
435.30	350.30
435.68	354.07
436.05	357.83
436.42	361.55
436.79	364.95
437.16	368.54
437.53	372.26
437.90	375.98
438.27	379.60
438.64	383.34
439.01	386.73
439.38	389.68
439.75	392.53
440.13	395.83
440.50	398.91
440.87	401.32
441.24	403.86
441.61	406.74
441.98	408.72
442.35	411.09
442.72	413.60
443.09	416.02
443.46	417.36
443.83	418.12
444.20	418.81
444.57	419.89
444.94	420.31
445.31	420.76
445.68	421.21
446.05	421.38
446.42	420.86
446.79	420.35
447.16	419.80
447.53	419.42
447.90	417.93
448.27	416.39
448.64	414.29
449.01	412.84
449.37	410.23
449.74	407.74
450.11	404.76
450.48	401.52
450.85	398.18
451.22	395.38
451.59	392.75
451.96	390.16
452.33	386.72
452.70	383.59
453.07	379.86
453.43	376.04
453.80	372.35
454.17	368.89
454.54	365.55
454.91	361.97
455.28	358.41
455.65	355.13
456.02	351.91
456.38	349.10
456.75	345.58
457.12	342.63
457.49	339.69
457.86	336.87
458.23	334.38
458.59	331.69
458.96	328.92
459.33	326.44
459.70	323.98
460.07	321.99
460.43	319.69
460.80	317.56
461.17	315.64
461.54	313.62
461.91	311.68
462.27	309.80
462.64	308.16
463.01	306.36
463.38	304.62
463.74	302.84
464.11	301.28
464.48	299.89
464.85	298.41
465.21	297.24
465.58	296.02
465.95	294.58
466.32	293.37
466.68	292.14
467.05	290.96
467.42	289.76
467.78	288.53
468.15	287.37
468.52	286.47
468.88	285.33
469.25	284.33
469.62	283.52
469.98	282.53
470.35	281.66
470.72	280.84
471.08	279.93
471.45	279.17
471.82	278.43
472.18	277.62
472.55	277.01
472.92	276.26
473.28	275.57
473.65	274.95
474.02	274.34
474.38	273.82
474.75	273.36
475.11	272.87
475.48	272.50
475.85	272.14
476.21	271.80
476.58	271.48
476.94	271.25
477.31	270.97
477.67	270.73
478.04	270.51
478.41	270.37
478.77	270.37
479.14	270.22
479.50	270.15
479.87	270.14
480.23	270.14
480.60	270.15
480.96	270.21
481.33	270.34
481.69	270.49
482.06	270.63
482.42	270.78
482.79	270.99
483.15	271.25
483.52	271.62
483.88	271.95
484.25	272.33
484.61	272.76
484.98	273.21
485.34	273.78
485.71	274.39
486.07	274.97
486.44	275.51
486.80	276.20
487.17	276.98
487.53	277.82
487.90	278.67
488.26	279.67
488.62	280.68
488.99	281.73
489.35	282.82
489.72	283.98
490.08	285.27
490.44	286.52
490.81	287.91
491.17	289.31
491.54	290.83
491.90	292.42
492.26	294.10
492.63	295.90
492.99	297.75
493.36	299.75
493.72	301.85
494.08	304.05
494.45	306.44
494.81	308.89
495.17	311.43
495.54	314.10
495.90	316.92
496.26	319.84
496.63	322.95
496.99	326.22
497.35	329.67
497.72	333.22
498.08	336.98
498.44	340.85
498.80	344.97
499.17	349.23
499.53	353.64
499.89	358.22
500.26	362.94
500.62	367.90
500.98	373.10
501.34	378.49
501.71	384.15
502.07	389.90
502.43	395.79
502.79	401.94
503.16	408.40
503.52	415.06
503.88	421.82
504.24	428.85
504.60	436.10
504.97	443.58
505.33	451.30
505.69	459.45
506.05	467.72
506.41	476.05
506.78	484.75
507.14	493.69
507.50	502.95
507.86	512.50
508.22	522.21
508.59	531.92
508.95	542.08
509.31	552.40
509.67	563.08
510.03	573.99
510.39	585.22
510.75	596.63
511.12	608.20
511.48	620.18
511.84	632.31
512.20	644.59
512.56	657.31
512.92	670.25
513.28	683.43
513.64	696.69
514.00	710.29
514.37	724.11
514.73	738.07
515.09	751.99
515.45	766.21
515.81	780.78
516.17	795.75
516.53	810.92
516.89	826.27
517.25	841.51
517.61	857.11
517.97	872.64
518.33	888.13
518.69	904.04
519.05	920.21
519.41	936.51
519.77	953.28
520.13	969.93
520.49	986.62
520.85	1003.12
521.21	1020.04
521.57	1037.59
521.93	1054.52
522.29	1072.26
522.65	1089.96
523.01	1107.46
523.37	1124.89
523.73	1142.49
524.09	1160.02
524.45	1177.57
524.81	1195.76
525.17	1214.02
525.53	1232.50
525.89	1251.02
526.25	1269.45
526.61	1287.39
526.97	1305.83
527.33	1323.90
527.68	1342.21
528.04	1360.33
528.40	1378.66
528.76	1397.48
529.12	1415.68
529.48	1434.40
529.84	1451.94
530.20	1470.26
530.56	1488.99
530.91	1508.25
531.27	1526.83
531.63	1544.93
531.99	1563.39
532.35	1581.19
532.71	1598.91
533.07	1616.91
533.42	1634.61
533.78	1652.52
534.14	1670.75
534.50	1687.93
534.86	1705.64
535.21	1722.64
535.57	1740.48
535.93	1757.81
536.29	1774.57
536.65	1791.63
537.00	1808.33
537.36	1825.81
537.72	1842.16
538.08	1858.78
538.44	1874.55
538.79	1890.41
539.15	1905.95
539.51	1921.61
539.87	1937.97
540.22	1953.66
540.58	1969.51
540.94	1984.81
541.29	1999.68
541.65	2014.27
542.01	2029.55
542.37	2043.93
542.72	2058.36
543.08	2072.35
543.44	2086.96
543.79	2100.21
544.15	2113.11
544.51	2126.69
544.87	2139.69
545.22	2152.68
545.58	2164.81
545.94	2176.49
546.29	2188.42
546.65	2200.48
547.01	2211.85
547.36	2222.46
547.72	2232.93
548.07	2242.63
548.43	2252.68
548.79	2262.42
549.14	2272.05
549.50	2281.13
549.86	2290.53
550.21	2299.66
550.57	2308.61
550.92	2317.10
551.28	2325.93
551.64	2334.88
551.99	2343.20
552.35	2351.04
552.70	2358.91
553.06	2366.52
553.41	2374.70
553.77	2382.28
554.13	2390.07
554.48	2397.91
554.84	2405.28
555.19	2412.09
555.55	2418.97
555.90	2425.13
556.26	2431.89
556.61	2437.94
556.97	2443.92
557.32	2449.66
557.68	2455.43
558.03	2460.99
558.39	2466.03
558.74	2472.31
559.10	2477.72
559.45	2482.79
559.81	2488.61
560.16	2493.86
560.52	2498.77
560.87	2503.41
561.23	2507.25
561.58	2511.39
561.94	2515.12
562.29	2518.37
562.64	2522.43
563.00	2526.06
563.35	2530.81
563.71	2535.14
564.06	2539.53
564.42	2543.65
564.77	2547.48
565.12	2550.96
565.48	2554.09
565.83	2557.16
566.19	2559.46
566.54	2561.15
566.89	2563.40
567.25	2564.92
567.60	2567.20
567.96	2569.91
568.31	2571.76
568.66	2574.10
569.02	2575.58
569.37	2576.73
569.72	2578.60
570.08	2579.51
570.43	2580.37
570.78	2580.64
571.14	2579.58
571.49	2578.87
571.84	2579.03
572.20	2578.52
572.55	2578.10
572.90	2576.86
573.26	2575.82
573.61	2574.32
573.96	2573.23
574.31	2570.55
574.67	2567.69
575.02	2564.25
575.37	2560.81
575.72	2557.08
576.08	2553.67
576.43	2550.38
576.78	2547.07
577.13	2543.95
577.49	2540.75
577.84	2537.38
578.19	2533.42
578.54	2529.97
578.90	2525.75
579.25	2519.91
579.60	2514.74
579.95	2509.46
580.30	2504.33
580.66	2498.92
581.01	2493.76
581.36	2488.35
581.71	2484.03
582.06	2479.44
582.42	2474.75
582.77	2469.21
583.12	2464.50
583.47	2459.70
583.82	2454.58
584.17	2448.67
584.53	2442.68
584.88	2436.77
585.23	2430.72
585.58	2424.74
585.93	2418.52
586.28	2413.26
586.63	2407.94
586.98	2402.35
587.34	2397.12
587.69	2391.68
588.04	2386.06
588.39	2379.82
588.74	2372.81
589.09	2365.92
589.44	2358.62
589.79	2351.70
590.14	2345.39
590.49	2338.00
590.84	2330.74
591.19	2324.02
591.54	2317.00
591.89	2309.04
592.25	2301.58
592.60	2293.32
592.95	2285.06
593.30	2277.08
593.65	2268.57
594.00	2260.64
594.35	2252.46
594.70	2243.33
595.05	2235.45
595.40	2227.15
595.75	2218.88
596.10	2211.97
596.45	2204.42
596.80	2197.28
597.15	2190.15
597.50	2182.40
597.85	2174.98
598.19	2167.61
598.54	2159.70
598.89	2152.17
599.24	2145.44
599.59	2137.98
599.94	2130.98
600.29	2123.78
600.64	2116.22
600.99	2107.93
601.34	2100.11
601.69	2092.11
602.04	2084.39
602.39	2076.03
602.74	2068.35
603.08	2060.63
603.43	2052.87
603.78	2044.56
604.13	2036.28
604.48	2027.96
604.83	2020.03
605.18	2012.22
605.53	2003.17
605.87	1993.93
606.22	1985.59
606.57	1976.31
606.92	1967.52
607.27	1959.35
607.62	1951.32
607.96	1943.04
608.31	1935.48
608.66	1926.75
609.01	1918.32
609.36	1909.66
609.70	1900.26
610.05	1890.96
610.40	1882.03
610.75	1872.45
611.10	1863.61
611.44	1853.82
611.79	1844.38
612.14	1834.30
612.49	1823.63
612.83	1813.71
613.18	1804.22
613.53	1794.84
613.88	1785.03
614.22	1775.55
614.57	1765.41
614.92	1756.17
615.27	1747.37
615.61	1737.70
615.96	1728.36
616.31	1719.31
616.65	1710.78
617.00	1702.19
617.35	1693.18
617.70	1683.65
618.04	1673.76
618.39	1663.95
618.74	1655.24
619.08	1645.62
619.43	1636.69
619.78	1628.70
620.12	1620.45
620.47	1611.77
620.82	1602.17
621.16	1593.36
621.51	1584.45
621.85	1575.69
622.20	1565.82
622.55	1556.06
622.89	1547.01
623.24	1538.07
623.59	1529.37
623.93	1520.54
624.28	1512.04
624.62	1503.38
624.97	1494.84
625.32	1486.87
625.66	1478.89
626.01	1470.60
626.35	1462.20
626.70	1453.21
627.04	1444.23
627.39	1435.08
627.73	1426.36
628.08	1418.23
628.43	1409.93
628.77	1401.54
629.12	1392.80
629.46	1384.35
629.81	1375.63
630.15	1367.07
630.50	1358.50
630.84	1349.15
631.19	1339.88
631.53	1331.03
631.88	1322.16
632.22	1313.41
632.57	1304.84
632.91	1296.02
633.26	1287.44
633.60	1278.61
633.95	1270.34
634.29	1262.08
634.64	1254.30
634.98	1245.86
635.32	1237.76
635.67	1229.98
636.01	1222.16
636.36	1214.26
636.70	1206.65
637.05	1199.17
637.39	1191.70
637.73	1184.20
638.08	1177.31
638.42	1170.40
638.77	1163.01
639.11	1155.44
639.45	1148.01
639.80	1140.38
640.14	1133.06
640.49	1125.53
640.83	1118.34
641.17	1111.27
641.52	1103.97
641.86	1096.51
642.20	1089.71
642.55	1082.39
642.89	1075.08
643.23	1067.49
643.58	1060.86
643.92	1053.79
644.26	1046.80
644.61	1039.75
644.95	1032.81
645.29	1025.31
645.64	1017.55
645.98	1010.26
646.32	1003.42
646.66	996.52
647.01	989.94
647.35	983.36
647.69	976.61
648.04	970.20
648.38	963.52
648.72	956.72
649.06	949.86
649.41	943.07
649.75	936.24
650.09	929.30
650.43	922.79
650.78	915.61
651.12	908.84
651.46	902.25
651.80	895.79
652.14	889.60
652.49	883.45
652.83	877.62
653.17	871.26
653.51	864.80
653.85	858.59
654.20	852.19
654.54	845.30
654.88	838.62
655.22	831.86
655.56	825.32
655.90	819.05
656.25	813.07
656.59	806.99
656.93	801.13
657.27	795.32
657.61	789.11
657.95	783.35
658.29	777.50
658.64	771.48
658.98	765.32
659.32	759.10
659.66	753.20
660.00	747.09
660.34	741.36
660.68	735.80
661.02	730.15
661.36	724.73
661.70	719.62
662.05	714.68
662.39	709.79
662.73	704.71
663.07	699.70
663.41	694.63
663.75	689.51
664.09	684.29
664.43	679.31
664.77	674.64
665.11	669.83
665.45	665.03
665.79	660.40
666.13	655.72
666.47	651.08
666.81	646.33
667.15	641.62
667.49	637.14
667.83	632.73
668.17	628.17
668.51	623.52
668.85	618.90
669.19	614.48
669.53	610.13
669.87	605.73
670.21	601.48
670.55	597.24
670.89	593.27
671.23	589.36
671.57	585.24
671.91	581.15
672.25	577.15
672.58	573.21
672.92	569.24
673.26	565.59
673.60	561.95
673.94	558.36
674.28	554.95
674.62	551.64
674.96	548.09
675.30	544.81
675.64	541.44
675.97	538.26
676.31	535.03
676.65	531.69
676.99	528.60
677.33	525.31
677.67	522.14
678.01	518.74
678.34	515.36
678.68	512.09
679.02	508.91
679.36	505.72
679.70	502.65
680.04	499.62
680.37	496.42
680.71	493.15
681.05	490.12
681.39	487.10
681.73	484.01
682.06	481.13
682.40	478.21
682.74	475.34
683.08	472.40
683.42	469.44
683.75	466.60
684.09	463.64
684.43	460.83
684.77	457.98
685.10	455.25
685.44	452.53
685.78	449.88
686.12	447.24
686.45	444.66
686.79	441.92
687.13	439.36
687.46	436.81
687.80	434.36
688.14	431.81
688.48	429.42
688.81	426.89
689.15	424.39
689.49	421.85
689.82	419.43
690.16	417.04
690.50	414.74
690.83	412.50
691.17	410.24
691.51	408.07
691.84	405.98
692.18	403.82
692.52	401.65
692.85	399.45
693.19	397.30
693.52	395.12
693.86	393.11
694.20	391.05
694.53	389.03
694.87	386.97
695.21	384.97
695.54	382.86
695.88	380.84
696.21	378.87
696.55	377.02
696.88	375.09
697.22	373.15
697.56	371.31
697.89	369.41
698.23	367.59
698.56	365.76
698.90	363.91
699.23	362.05
699.57	360.24
699.90	358.51
700.24	356.75
700.58	355.06
700.91	353.34
701.25	351.67
701.58	350.09
701.92	348.52
702.25	346.93
702.59	345.39
702.92	343.89
703.26	342.41
703.59	340.94
703.93	339.58
704.26	338.24
704.60	336.79
704.93	335.30
705.26	333.88
705.60	332.48
705.93	331.17
706.27	329.96
706.60	328.75
706.94	327.44
707.27	326.13
707.61	324.85
707.94	323.69
708.27	322.45
708.61	321.20
708.94	320.06
709.28	318.91
709.61	317.79
709.94	316.67
710.28	315.51
710.61	314.36
710.95	313.13
711.28	311.99
711.61	310.88
711.95	309.82
712.28	308.74
712.61	307.62
712.95	306.51
713.28	305.47
713.61	304.42
713.95	303.48
714.28	302.52
714.61	301.52
714.95	300.53
715.28	299.56
715.61	298.58
715.95	297.56
716.28	296.58
716.61	295.60
716.95	294.63
717.28	293.74
717.61	292.87
717.94	292.04
718.28	291.13
718.61	290.29
718.94	289.47
719.27	288.70
719.61	287.94
719.94	287.19
720.27	286.36
720.60	285.59
720.94	284.81
721.27	284.13
721.60	283.45
721.93	282.73
722.27	282.08
722.60	281.39
722.93	280.74
723.26	280.14
723.59	279.48
723.93	278.83
724.26	278.19
724.59	277.51
724.92	276.87
725.25	276.30
725.59	275.68
725.92	275.10
726.25	274.49
726.58	273.93
726.91	273.38
727.24	272.84
727.57	272.32
727.91	271.75
728.24	271.18
728.57	270.61
728.90	270.08
729.23	269.47
729.56	269.00
729.89	268.47
730.22	267.91
730.55	267.37
730.89	266.88
731.22	266.36
731.55	265.86
731.88	265.37
732.21	264.88
732.54	264.41
732.87	263.94
733.20	263.49
733.53	263.04
733.86	262.59
734.19	262.14
734.52	261.68
734.85	261.30
735.18	260.84
735.51	260.46
735.84	260.03
736.17	259.67
736.50	259.22
736.83	258.93
737.16	258.55
737.49	258.16
737.82	257.79
738.15	257.48
738.48	257.09
738.81	256.73
739.14	256.38
739.47	256.05
739.80	255.71
740.13	255.37
740.46	254.99
740.79	254.62
741.12	254.27
741.45	253.91
741.78	253.52
742.11	253.22
742.44	252.88
742.77	252.57
743.10	252.23
743.43	251.90
743.75	251.52
744.08	251.37
744.41	251.11
744.74	250.80
745.07	250.42
745.40	250.16
745.73	249.87
746.06	249.54
746.39	249.23
746.71	248.91
747.04	248.61
747.37	248.33
747.70	248.09
748.03	247.81
748.36	247.57
748.68	247.34
749.01	247.03
749.34	246.74
749.67	246.49
750.00	246.27
750.33	246.06
750.65	245.81
750.98	245.39
751.31	245.11
751.64	244.87
751.97	244.73
752.29	244.49
752.62	244.21
752.95	243.98
753.28	243.72
753.60	243.50
753.93	243.32
754.26	243.12
754.59	242.85
754.91	242.61
755.24	242.39
755.57	242.15
755.90	241.95
756.22	241.74
756.55	241.56
756.88	241.27
757.20	241.03
757.53	240.80
757.86	240.60
758.19	240.42
758.51	240.20
758.84	239.94
759.17	239.75
759.49	239.57
759.82	239.41
760.15	239.24
760.47	239.07
760.80	238.83
761.13	238.65
761.45	238.49
761.78	238.28
762.11	238.09
762.43	237.94
762.76	237.75
763.08	237.59
763.41	237.39
763.74	237.25
764.06	237.07
764.39	236.87
764.71	236.71
765.04	236.57
765.37	236.42
765.69	236.24
766.02	236.09
766.34	235.95
766.67	235.79
767.00	235.65
767.32	235.55
767.65	235.48
767.97	235.32
768.30	235.16
768.62	235.08
768.95	234.93
769.27	234.81
769.60	234.69
769.92	234.55
770.25	234.41
770.57	234.30
770.90	234.16
771.22	234.06
771.55	233.96
771.87	233.82
772.20	233.71
772.52	233.68
772.85	233.68
773.17	233.55
773.50	233.44
773.82	233.31
774.15	233.13
774.47	232.97
774.80	232.84
775.12	232.76
775.45	232.67
775.77	232.57
776.09	232.44
776.42	232.31
776.74	232.25
777.07	232.18
777.39	232.08
777.72	231.98
778.04	231.89
778.36	231.82
778.69	231.74
779.01	231.69
779.33	231.53
779.66	231.33
779.98	231.27
780.31	231.21
780.63	231.18
780.95	231.13
781.28	231.05
781.60	231.01
781.92	230.95
782.25	230.87
782.57	230.81
782.89	230.76
783.22	230.70
783.54	230.59
783.86	230.50
784.19	230.42
784.51	230.42
784.83	230.36
785.16	230.32
785.48	230.27
785.80	230.19
786.12	230.19
786.45	230.16
786.77	230.12
787.09	230.05
787.42	230.00
787.74	229.97
788.06	229.91
788.38	229.87
788.71	229.83
789.03	229.76
789.35	229.74
789.67	229.65
789.99	229.63
790.32	229.62
790.64	229.61
790.96	229.67
791.28	229.56
791.61	229.52
791.93	229.43
792.25	229.40
792.57	229.41
792.89	229.33
793.21	229.28
793.54	229.22
793.86	229.18
794.18	229.13
794.50	229.05
794.82	229.04
795.14	228.99
795.47	228.94
795.79	228.94
796.11	228.89
796.43	228.86
796.75	228.85
797.07	228.82
797.39	228.78
797.71	228.65
798.04	228.64
798.36	228.61
798.68	228.56
799.00	228.55
799.32	228.46
799.64	228.46
799.96	228.44
800.28	228.43
800.60	228.40
800.92	228.38
801.24	228.34
801.56	228.30
801.89	228.26
802.21	228.22
802.53	228.15
802.85	228.15
803.17	228.17
803.49	228.07
803.81	227.98
804.13	227.92
804.45	227.89
804.77	227.86
805.09	227.81
805.41	227.81
805.73	227.74
806.05	227.68
806.37	227.60
806.69	227.52
807.01	227.48
807.33	227.42
807.65	227.34
807.97	227.37
808.28	227.35
808.60	227.31
808.92	227.26
809.24	227.29
809.56	227.24
809.88	227.19
810.20	227.19
810.52	227.19
810.84	227.17
811.16	227.10
811.48	227.04
811.80	227.03
812.12	226.98
812.43	226.94
812.75	226.93
813.07	226.88
813.39	226.88
813.71	226.81
814.03	226.76
814.35	226.73
814.67	226.67
814.98	226.64
815.30	226.61
815.62	226.58
815.94	226.48
816.26	226.50
816.58	226.46
816.89	226.44
817.21	226.41
817.53	226.42
817.85	226.45
818.17	226.46
818.48	226.42
818.80	226.46
819.12	226.48
819.44	226.47
819.76	226.47
820.07	226.48
820.39	226.47
820.71	226.49
821.03	226.48
821.34	226.46
821.66	226.43
821.98	226.42
822.30	226.45
822.61	226.50
822.93	226.46
823.25	226.43
823.57	226.43
823.88	226.44
824.20	226.42
824.52	226.40
824.83	226.36
825.15	226.35
825.47	226.31
825.79	226.27
826.10	226.25
826.42	226.25
826.74	226.22
827.05	226.24
827.37	226.24
827.69	226.22
828.00	226.25
828.32	226.26
828.64	226.23
828.95	226.24
829.27	226.23
829.58	226.18
829.90	226.19
830.22	226.16
830.53	226.14
830.85	226.09
831.17	226.09
831.48	226.12
831.80	226.12
832.11	226.13
832.43	226.10
832.75	226.11
833.06	226.15
833.38	226.13
833.69	226.10
834.01	226.11
834.32	226.10
834.64	226.05
834.96	226.02
835.27	226.04
835.59	226.00
835.90	225.96
836.22	225.97
836.53	225.94
836.85	225.93
837.16	226.01
837.48	226.01
837.79	225.98
838.11	225.95
838.42	225.94
838.74	225.94
839.05	225.90
839.37	225.89
839.68	225.82
840.00	225.81
840.31	225.83
840.63	225.79
840.94	225.78
841.26	225.75
841.57	225.75
841.88	225.74
842.20	225.71
842.51	225.68
842.83	225.70
843.14	225.76
843.46	225.74
843.77	225.66
844.08	225.68
844.40	225.65
844.71	225.64
845.03	225.62
845.34	225.57
845.65	225.59
845.97	225.58
846.28	225.59
846.60	225.58
846.91	225.52
847.22	225.53
847.54	225.51
847.85	225.53
848.16	225.52
848.48	225.51
848.79	225.53
849.10	225.56
849.42	225.52
849.73	225.46
850.04	225.47
850.36	225.42
850.67	225.44
850.98	225.44
851.30	225.43
851.61	225.40
851.92	225.37
852.23	225.40
852.55	225.40
852.86	225.40
853.17	225.39
853.49	225.41
853.80	225.41
854.11	225.40
854.42	225.40
854.74	225.34
855.05	225.33
855.36	225.27
855.67	225.26
855.99	225.23
856.30	225.33
856.61	225.36
856.92	225.37
857.23	225.34
857.55	225.34
857.86	225.32
858.17	225.35
858.48	225.38
858.79	225.34
859.11	225.33
859.42	225.32
859.73	225.30
860.04	225.31
860.35	225.29
860.66	225.28
860.98	225.29
861.29	225.34
861.60	225.35
861.91	225.39
862.22	225.39
862.53	225.40
862.84	225.27
863.16	225.27
863.47	225.25
863.78	225.23
864.09	225.26
864.40	225.26
864.71	225.27
865.02	225.28
865.33	225.28
865.64	225.27
865.95	225.26
866.27	225.32
866.58	225.28
866.89	225.32
867.20	225.34
867.51	225.31
867.82	225.29
868.13	225.31
868.44	225.31
868.75	225.33
869.06	225.36
869.37	225.37
869.68	225.35
869.99	225.37
870.30	225.39
870.61	225.40
870.92	225.41
871.23	225.41
871.54	225.41
871.85	225.44
872.16	225.47
872.47	225.46
872.78	225.43
873.09	225.44
873.40	225.41
873.71	225.44
874.02	225.49
874.33	225.46
874.64	225.44
874.95	225.42
875.26	225.40
875.56	225.38
875.87	225.39
876.18	225.38
876.49	225.45
876.80	225.46
877.11	225.41
877.42	225.40
877.73	225.39
878.04	225.34
878.35	225.31
878.66	225.28
878.96	225.29
879.27	225.24
879.58	225.25
879.89	225.23
880.20	225.21
880.51	225.14
880.82	225.15
881.12	225.18
881.43	225.17
881.74	225.12
882.05	225.10
882.36	225.09
882.67	225.09
882.97	225.00
883.28	224.95
883.59	224.95
883.90	224.96
884.21	224.95
884.51	224.96
884.82	224.94
885.13	224.91
885.44	224.93
885.74	224.92
886.05	224.89
886.36	224.86
886.67	224.87
886.98	224.92
887.28	224.94
887.59	224.92
887.90	224.85
888.20	224.84
888.51	224.87
888.82	224.83
889.13	224.81
889.43	224.86
889.74	224.85
890.05	224.81
890.35	224.76
890.66	224.75
890.97	224.74
891.28	224.74
891.58	224.74
891.89	224.70
892.20	224.69
892.50	224.71
892.81	224.73
893.12	224.71
893.42	224.66
893.73	224.65
894.04	224.65
894.34	224.72
894.65	224.71
894.95	224.68
895.26	224.72
895.57	224.78
895.87	224.71
896.18	224.71
896.48	224.74
896.79	224.76
897.10	224.79
897.40	224.82
897.71	224.80
898.01	224.81
898.32	224.86
898.63	224.86
898.93	224.84
899.24	224.83
899.54	224.84
899.85	224.84
900.15	224.84
900.46	224.85
900.76	224.86
901.07	224.88
901.38	224.89
901.68	224.87
901.99	224.80
902.29	224.81
902.60	224.85
902.90	224.86
903.21	224.89
903.51	224.88
903.82	224.89
904.12	224.94
904.43	224.93
904.73	224.92
905.03	224.96
905.34	225.07
905.64	225.09
905.95	225.07
906.25	225.08
906.56	225.09
906.86	225.11
907.17	225.11
907.47	225.11
907.77	225.12
908.08	225.08
908.38	225.12
908.69	225.11
908.99	225.12
909.30	225.13
909.60	225.14
909.90	225.15
910.21	225.15
910.51	225.12
910.81	225.11
911.12	225.10
911.42	225.11
911.73	225.03
912.03	225.00
912.33	225.03
912.64	225.02
912.94	224.98
913.24	224.94
913.55	224.97
913.85	224.95
914.15	224.98
914.46	225.00
914.76	224.99
915.06	224.98
915.37	224.95
915.67	224.93
915.97	224.91
916.27	224.87
916.58	224.85
916.88	224.81
917.18	224.84
917.49	224.92
917.79	224.90
918.09	224.90
918.39	224.96
918.70	224.94
919.00	224.92
919.30	224.97
919.60	224.96
919.91	224.88
920.21	224.88
920.51	224.83
920.81	224.82
921.12	224.81
921.42	224.80
921.72	224.82
922.02	224.79
922.32	224.80
922.63	224.80
922.93	224.83
923.23	224.83
923.53	224.79
923.83	224.71
924.13	224.71
924.44	224.69
924.74	224.67
925.04	224.70
925.34	224.70
925.64	224.68
925.94	224.66
926.24	224.70
926.55	224.70
926.85	224.74
927.15	224.76
927.45	224.76
927.75	224.75
928.05	224.73
928.35	224.77
928.65	224.79
928.95	224.82
929.26	224.80
929.56	224.84
929.86	224.86
930.16	224.85
930.46	224.82
930.76	224.83
931.06	224.78
931.36	224.74
931.66	224.77
931.96	224.74
932.26	224.76
932.56	224.75
932.86	224.75
933.16	224.75
933.46	224.73
933.76	224.73
934.06	224.76
934.36	224.81
934.66	224.79
934.96	224.79
935.26	224.77
935.56	224.78
935.86	224.75
936.16	224.74
936.46	224.76
936.76	224.74
937.06	224.76
937.36	224.77
937.66	224.78
937.96	224.77
938.26	224.76
938.56	224.79
938.86	224.78
939.16	224.86
939.46	224.87
939.76	224.89
940.06	224.90
940.35	224.90
940.65	224.85
940.95	224.88
941.25	224.82
941.55	224.83
941.85	224.81
942.15	224.84
942.45	224.85
942.75	224.86
943.04	224.87
943.34	224.85
943.64	224.84
943.94	224.83
944.24	224.83
944.54	224.87
944.84	224.85
945.13	224.84
945.43	224.77
945.73	224.74
946.03	224.71
946.33	224.66
946.62	224.66
946.92	224.65
947.22	224.64
947.52	224.65
947.82	224.65
948.11	224.66
948.41	224.63
948.71	224.64
949.01	224.62
949.31	224.62
949.60	224.62
949.90	224.64
950.20	224.62
950.50	224.62
950.79	224.58
951.09	224.59
951.39	224.55
951.69	224.56
951.98	224.56
952.28	224.57
952.58	224.58
952.87	224.58
953.17	224.60
953.47	224.60
953.76	224.60
954.06	224.56
954.36	224.55
954.66	224.56
954.95	224.54
955.25	224.56
955.55	224.59
955.84	224.59
956.14	224.59
956.44	224.60
956.73	224.57
957.03	224.58
957.32	224.57
957.62	224.60
957.92	224.64
958.21	224.65
958.51	224.76
958.81	224.77
959.10	224.75
959.40	224.74
959.69	224.70
959.99	224.70
960.29	224.71
960.58	224.72
960.88	224.74
961.17	224.71
961.47	224.68
961.76	224.65
962.06	224.65
962.36	224.64
962.65	224.64
962.95	224.64
963.24	224.63
963.54	224.61
963.83	224.60
964.13	224.57
964.42	224.52
964.72	224.43
965.01	224.40
965.31	224.40
965.60	224.42
965.90	224.52
966.19	224.49
966.49	224.51
966.78	224.49
967.08	224.45
967.37	224.49
967.67	224.48
967.96	224.50
968.26	224.50
968.55	224.51
968.85	224.52
969.14	224.53
969.43	224.55
969.73	224.61
970.02	224.58
970.32	224.58
970.61	224.63
970.91	224.63
971.20	224.63
971.49	224.62
971.79	224.65
972.08	224.53
972.38	224.56
972.67	224.53
972.96	224.57
973.26	224.59
973.55	224.62
973.85	224.61
974.14	224.63
974.43	224.65
974.73	224.63
975.02	224.63
975.31	224.63
975.61	224.63
975.90	224.59
976.19	224.60
976.49	224.62
976.78	224.58
977.07	224.57
977.37	224.59
977.66	224.63
977.95	224.59
978.24	224.64
978.54	224.67
978.83	224.70
979.12	224.66
979.42	224.65
979.71	224.67
980.00	224.69
980.29	224.71
980.59	224.70
980.88	224.74
981.17	224.75
981.46	224.74
981.76	224.72
982.05	224.74
982.34	224.78
982.63	224.75
982.93	224.75
983.22	224.79
983.51	224.78
983.80	224.77
984.09	224.79
984.39	224.82
984.68	224.79
984.97	224.77
985.26	224.80
985.55	224.82
985.85	224.76
986.14	224.74
986.43	224.74
986.72	224.74
987.01	224.69
987.30	224.70
987.59	224.70
987.89	224.71
988.18	224.68
988.47	224.64
988.76	224.64
989.05	224.68
989.34	224.66
989.63	224.67
989.92	224.65
990.22	224.63
990.51	224.60
990.80	224.59
991.09	224.57
991.38	224.58
991.67	224.57
991.96	224.56
992.25	224.57
992.54	224.56
992.83	224.53
993.12	224.55
993.41	224.53
993.70	224.57
993.99	224.62
994.28	224.63
994.58	224.64
994.87	224.63
995.16	224.58
995.45	224.57
995.74	224.57
996.03	224.58
996.32	224.59
996.61	224.59
996.90	224.59
997.19	224.60
997.48	224.61
997.77	224.61
998.06	224.61
998.34	224.58
998.63	224.58
998.92	224.59
999.21	224.58
999.50	224.56
999.79	224.55
1000.08	224.46
1000.37	224.46
1000.66	224.45
1000.95	224.48
1001.24	224.50
1001.53	224.50
1001.82	224.48
1002.11	224.44
1002.40	224.42
1002.68	224.44
1002.97	224.50
1003.26	224.50
1003.55	224.44
1003.84	224.41
1004.13	224.44
1004.42	224.47
1004.71	224.44
1004.99	224.43
1005.28	224.45
1005.57	224.48
1005.86	224.43
1006.15	224.45
1006.44	224.44
1006.72	224.48
1007.01	224.48
1007.30	224.49
1007.59	224.52
1007.88	224.53
1008.17	224.57
1008.45	224.59
1008.74	224.57
1009.03	224.55
1009.32	224.56
1009.60	224.60
1009.89	224.62
1010.18	224.59
1010.47	224.56
1010.76	224.59
1011.04	224.61
1011.33	224.63
1011.62	224.62
1011.91	224.67
1012.19	224.70
1012.48	224.66
1012.77	224.64
1013.05	224.67
1013.34	224.67
1013.63	224.66
1013.92	224.66
1014.20	224.63
1014.49	224.60
1014.78	224.60
1015.06	224.56
1015.35	224.54
1015.64	224.55
1015.92	224.57
1016.21	224.57
1016.50	224.61
1016.78	224.60
1017.07	224.59
1017.36	224.55
1017.64	224.50
1017.93	224.50
1018.22	224.47
1018.50	224.48
1018.79	224.49
1019.08	224.44
1019.36	224.44
1019.65	224.44
1019.93	224.43
1020.22	224.44
1020.51	224.48
1020.79	224.47
1021.08	223.97
1021.36	223.82
1021.65	224.71
1021.94	224.67
1022.22	224.57
1022.51	224.96
1022.79	224.32
1023.08	224.33
1023.36	225.02
1023.65	224.47
>>>>>End Processed Spectral Data<<<<<
