SpectraSuite Data File
++++++++++++++++++++++++++++++++++++
Date: Fri Feb 01 16:02:04 EST 2013
User: group
Dark Spectrum Present: No
Reference Spectrum Present: No
Number of Sampled Component Spectra: 1
Spectrometers: USB2E7196
Integration Time (usec): 35000 (USB2E7196)
Spectra Averaged: 100 (USB2E7196)
Boxcar Smoothing: 10 (USB2E7196)
Correct for Electrical Dark: No (USB2E7196)
Strobe/Lamp Enabled: No (USB2E7196)
Correct for Detector Non-linearity: No (USB2E7196)
Correct for Stray Light: No (USB2E7196)
Number of Pixels in Processed Spectrum: 2048
>>>>>Begin Processed Spectral Data<<<<<
339.09	0.00
339.48	215.08
339.86	216.67
340.24	217.94
340.63	218.53
341.01	222.17
341.39	221.59
341.78	222.77
342.16	225.02
342.54	224.69
342.93	213.09
343.31	223.86
343.69	224.37
344.07	224.83
344.46	225.26
344.84	225.62
345.22	225.86
345.60	226.12
345.99	226.31
346.37	226.40
346.75	226.52
347.13	226.60
347.52	226.65
347.90	226.71
348.28	226.76
348.66	226.81
349.05	226.81
349.43	226.86
349.81	226.91
350.19	226.92
350.57	226.99
350.96	227.04
351.34	227.12
351.72	227.23
352.10	227.31
352.48	227.34
352.87	227.43
353.25	227.49
353.63	227.56
354.01	227.66
354.39	227.73
354.77	227.79
355.15	227.93
355.54	228.02
355.92	228.07
356.30	228.13
356.68	228.26
357.06	228.34
357.44	228.41
357.82	228.51
358.20	228.59
358.58	228.63
358.97	228.75
359.35	228.84
359.73	228.94
360.11	229.01
360.49	229.09
360.87	229.14
361.25	229.17
361.63	229.25
362.01	229.29
362.39	229.32
362.77	229.36
363.15	229.34
363.53	229.34
363.91	229.35
364.29	229.36
364.67	229.28
365.05	229.33
365.43	229.37
365.81	229.38
366.19	229.44
366.57	229.49
366.95	229.47
367.33	229.40
367.71	229.35
368.09	229.33
368.47	229.30
368.85	229.29
369.23	229.31
369.61	229.22
369.99	229.18
370.37	229.17
370.75	229.18
371.13	229.11
371.51	229.06
371.89	229.04
372.27	229.01
372.65	228.95
373.03	228.85
373.41	228.77
373.78	228.73
374.16	228.61
374.54	228.49
374.92	228.41
375.30	228.38
375.68	228.28
376.06	228.20
376.44	228.13
376.82	228.05
377.19	227.95
377.57	227.85
377.95	227.79
378.33	227.70
378.71	227.55
379.09	227.50
379.47	227.45
379.84	227.34
380.22	227.29
380.60	227.21
380.98	227.14
381.36	227.07
381.73	226.92
382.11	226.86
382.49	226.82
382.87	226.74
383.25	226.68
383.62	226.76
384.00	226.71
384.38	226.65
384.76	226.61
385.13	226.57
385.51	226.55
385.89	226.48
386.27	226.43
386.64	226.42
387.02	226.34
387.40	226.27
387.78	226.25
388.15	226.20
388.53	226.15
388.91	226.09
389.29	226.03
389.66	226.05
390.04	226.01
390.42	225.98
390.79	225.97
391.17	225.92
391.55	225.79
391.92	225.76
392.30	225.77
392.68	225.74
393.05	225.75
393.43	225.75
393.81	225.74
394.18	225.74
394.56	225.75
394.94	225.82
395.31	225.83
395.69	225.85
396.06	225.88
396.44	225.94
396.82	226.00
397.19	226.10
397.57	226.15
397.95	226.22
398.32	226.25
398.70	226.31
399.07	226.42
399.45	226.48
399.82	226.57
400.20	226.62
400.58	226.72
400.95	226.76
401.33	226.85
401.70	227.02
402.08	227.15
402.45	227.25
402.83	227.35
403.20	227.47
403.58	227.60
403.95	227.75
404.33	227.89
404.71	227.99
405.08	228.15
405.46	228.29
405.83	228.45
406.21	228.61
406.58	228.78
406.96	228.96
407.33	229.13
407.70	229.29
408.08	229.56
408.45	229.76
408.83	230.02
409.20	230.24
409.58	230.42
409.95	230.66
410.33	230.96
410.70	231.22
411.08	231.54
411.45	231.89
411.82	232.21
412.20	232.51
412.57	232.96
412.95	233.27
413.32	233.66
413.69	234.07
414.07	234.51
414.44	234.99
414.82	235.44
415.19	236.01
415.56	236.59
415.94	237.14
416.31	237.81
416.68	238.45
417.06	239.18
417.43	239.86
417.81	240.61
418.18	241.34
418.55	242.20
418.93	243.06
419.30	243.92
419.67	244.86
420.04	245.87
420.42	246.84
420.79	248.05
421.16	249.18
421.54	250.37
421.91	251.55
422.28	252.83
422.66	254.15
423.03	255.40
423.40	256.71
423.77	258.10
424.15	259.53
424.52	260.99
424.89	262.55
425.26	264.12
425.64	265.56
426.01	267.12
426.38	268.72
426.75	270.37
427.13	272.07
427.50	273.86
427.87	275.69
428.24	277.54
428.61	279.22
428.99	281.18
429.36	283.27
429.73	285.36
430.10	287.36
430.47	289.43
430.85	291.59
431.22	293.85
431.59	296.25
431.96	298.45
432.33	300.90
432.70	303.32
433.08	306.11
433.45	308.78
433.82	311.41
434.19	314.29
434.56	317.12
434.93	319.79
435.30	322.38
435.68	325.27
436.05	328.10
436.42	330.92
436.79	333.44
437.16	336.13
437.53	338.96
437.90	341.77
438.27	344.52
438.64	347.35
439.01	349.90
439.38	352.09
439.75	354.27
440.13	356.77
440.50	359.09
440.87	360.90
441.24	362.80
441.61	364.95
441.98	366.44
442.35	368.22
442.72	370.08
443.09	371.92
443.46	372.88
443.83	373.48
444.20	373.97
444.57	374.79
444.94	375.05
445.31	375.38
445.68	375.72
446.05	375.73
446.42	375.31
446.79	374.93
447.16	374.52
447.53	374.19
447.90	373.06
448.27	371.92
448.64	370.34
449.01	369.20
449.37	367.27
449.74	365.42
450.11	363.21
450.48	360.74
450.85	358.20
451.22	356.08
451.59	354.06
451.96	352.13
452.33	349.56
452.70	347.21
453.07	344.37
453.43	341.47
453.80	338.72
454.17	336.09
454.54	333.53
454.91	330.82
455.28	328.17
455.65	325.68
456.02	323.21
456.38	321.08
456.75	318.48
457.12	316.21
457.49	313.95
457.86	311.78
458.23	309.90
458.59	307.88
458.96	305.82
459.33	303.98
459.70	302.10
460.07	300.60
460.43	298.91
460.80	297.30
461.17	295.86
461.54	294.37
461.91	292.91
462.27	291.45
462.64	290.16
463.01	288.82
463.38	287.53
463.74	286.15
464.11	284.98
464.48	283.95
464.85	282.86
465.21	282.01
465.58	281.08
465.95	280.00
466.32	279.11
466.68	278.23
467.05	277.31
467.42	276.46
467.78	275.52
468.15	274.64
468.52	274.00
468.88	273.15
469.25	272.41
469.62	271.81
469.98	271.15
470.35	270.53
470.72	269.94
471.08	269.26
471.45	268.75
471.82	268.20
472.18	267.57
472.55	267.14
472.92	266.63
473.28	266.16
473.65	265.69
474.02	265.23
474.38	264.83
474.75	264.55
475.11	264.20
475.48	263.95
475.85	263.71
476.21	263.45
476.58	263.30
476.94	263.18
477.31	262.99
477.67	262.84
478.04	262.77
478.41	262.71
478.77	262.79
479.14	262.72
479.50	262.75
479.87	262.81
480.23	262.88
480.60	262.94
480.96	263.04
481.33	263.29
481.69	263.47
482.06	263.68
482.42	263.85
482.79	264.07
483.15	264.39
483.52	264.76
483.88	265.12
484.25	265.48
484.61	265.87
484.98	266.32
485.34	266.91
485.71	267.51
486.07	268.14
486.44	268.66
486.80	269.38
487.17	270.09
487.53	270.93
487.90	271.80
488.26	272.76
488.62	273.76
488.99	274.76
489.35	275.80
489.72	276.92
490.08	278.11
490.44	279.44
490.81	280.76
491.17	282.12
491.54	283.62
491.90	285.17
492.26	286.87
492.63	288.63
492.99	290.43
493.36	292.33
493.72	294.36
494.08	296.51
494.45	298.74
494.81	301.12
495.17	303.56
495.54	306.09
495.90	308.73
496.26	311.55
496.63	314.49
496.99	317.61
497.35	320.89
497.72	324.34
498.08	327.84
498.44	331.51
498.80	335.47
499.17	339.52
499.53	343.70
499.89	348.07
500.26	352.54
500.62	357.25
500.98	362.22
501.34	367.28
501.71	372.61
502.07	378.10
502.43	383.72
502.79	389.49
503.16	395.62
503.52	401.92
503.88	408.34
504.24	414.96
504.60	421.89
504.97	429.08
505.33	436.41
505.69	444.12
506.05	451.87
506.41	459.74
506.78	467.91
507.14	476.38
507.50	485.10
507.86	494.17
508.22	503.32
508.59	512.54
508.95	522.10
509.31	531.95
509.67	542.04
510.03	552.35
510.39	563.02
510.75	573.79
511.12	584.74
511.48	595.99
511.84	607.45
512.20	618.97
512.56	630.90
512.92	643.10
513.28	655.38
513.64	667.91
514.00	680.58
514.37	693.47
514.73	706.61
515.09	719.62
515.45	732.95
515.81	746.46
516.17	760.39
516.53	774.46
516.89	788.64
517.25	802.74
517.61	817.10
517.97	831.54
518.33	845.97
518.69	860.79
519.05	875.85
519.41	891.02
519.77	906.57
520.13	921.93
520.49	937.27
520.85	952.77
521.21	968.51
521.57	984.75
521.93	1000.55
522.29	1016.79
522.65	1033.09
523.01	1049.18
523.37	1065.27
523.73	1081.47
524.09	1097.55
524.45	1113.85
524.81	1130.56
525.17	1147.43
525.53	1164.28
525.89	1181.18
526.25	1198.01
526.61	1214.35
526.97	1231.11
527.33	1247.58
527.68	1264.12
528.04	1280.51
528.40	1297.04
528.76	1313.96
529.12	1330.63
529.48	1347.35
529.84	1363.41
530.20	1379.99
530.56	1397.13
530.91	1414.42
531.27	1431.07
531.63	1447.49
531.99	1464.05
532.35	1479.93
532.71	1495.72
533.07	1511.84
533.42	1527.61
533.78	1543.63
534.14	1559.86
534.50	1575.16
534.86	1590.94
535.21	1606.10
535.57	1622.08
535.93	1637.60
536.29	1652.35
536.65	1667.25
537.00	1682.05
537.36	1697.14
537.72	1711.67
538.08	1726.00
538.44	1739.83
538.79	1753.72
539.15	1767.41
539.51	1781.13
539.87	1795.49
540.22	1809.20
540.58	1822.99
540.94	1836.20
541.29	1848.92
541.65	1861.56
542.01	1874.85
542.37	1887.06
542.72	1899.54
543.08	1911.30
543.44	1923.58
543.79	1934.77
544.15	1945.74
544.51	1957.30
544.87	1968.37
545.22	1978.99
545.58	1989.10
545.94	1998.81
546.29	2008.57
546.65	2018.37
547.01	2027.48
547.36	2036.10
547.72	2044.43
548.07	2052.22
548.43	2060.60
548.79	2068.64
549.14	2076.04
549.50	2083.27
549.86	2090.87
550.21	2098.14
550.57	2105.25
550.92	2111.69
551.28	2118.80
551.64	2125.91
551.99	2132.30
552.35	2138.41
552.70	2144.69
553.06	2150.78
553.41	2157.12
553.77	2163.20
554.13	2169.38
554.48	2175.61
554.84	2181.07
555.19	2186.57
555.55	2191.75
555.90	2196.16
556.26	2201.00
556.61	2205.87
556.97	2210.15
557.32	2214.48
557.68	2218.60
558.03	2222.87
558.39	2226.67
558.74	2231.27
559.10	2235.09
559.45	2238.86
559.81	2243.28
560.16	2247.11
560.52	2250.20
560.87	2253.62
561.23	2256.36
561.58	2259.31
561.94	2261.69
562.29	2264.15
562.64	2266.58
563.00	2269.21
563.35	2272.59
563.71	2275.75
564.06	2278.90
564.42	2281.69
564.77	2284.06
565.12	2286.33
565.48	2288.40
565.83	2290.35
566.19	2291.65
566.54	2292.52
566.89	2293.63
567.25	2294.07
567.60	2295.27
567.96	2297.03
568.31	2297.97
568.66	2298.98
569.02	2299.53
569.37	2299.96
569.72	2300.81
570.08	2301.07
570.43	2301.10
570.78	2300.63
571.14	2298.99
571.49	2297.81
571.84	2297.59
572.20	2296.52
572.55	2295.63
572.90	2294.04
573.26	2292.52
573.61	2291.02
573.96	2289.27
574.31	2286.33
574.67	2283.53
575.02	2279.88
575.37	2276.59
575.72	2272.64
576.08	2269.34
576.43	2265.92
576.78	2262.30
577.13	2259.05
577.49	2256.07
577.84	2252.62
578.19	2248.93
578.54	2245.49
578.90	2241.17
579.25	2235.60
579.60	2230.76
579.95	2225.68
580.30	2220.58
580.66	2215.48
581.01	2210.42
581.36	2205.62
581.71	2201.46
582.06	2196.84
582.42	2192.53
582.77	2187.15
583.12	2182.72
583.47	2178.14
583.82	2173.19
584.17	2167.86
584.53	2162.46
584.88	2156.81
585.23	2150.97
585.58	2145.47
585.93	2140.11
586.28	2135.36
586.63	2130.38
586.98	2125.20
587.34	2120.47
587.69	2115.53
588.04	2110.24
588.39	2104.56
588.74	2098.16
589.09	2092.08
589.44	2085.29
589.79	2079.28
590.14	2073.77
590.49	2067.15
590.84	2060.70
591.19	2054.77
591.54	2048.40
591.89	2040.95
592.25	2034.08
592.60	2026.91
592.95	2019.31
593.30	2011.88
593.65	2004.30
594.00	1997.24
594.35	1990.10
594.70	1982.08
595.05	1974.91
595.40	1967.67
595.75	1960.22
596.10	1953.90
596.45	1947.18
596.80	1941.15
597.15	1934.51
597.50	1927.40
597.85	1921.03
598.19	1914.38
598.54	1907.10
598.89	1900.51
599.24	1894.71
599.59	1888.08
599.94	1881.95
600.29	1875.63
600.64	1869.01
600.99	1861.51
601.34	1854.72
601.69	1847.76
602.04	1840.98
602.39	1833.68
602.74	1826.88
603.08	1820.05
603.43	1813.33
603.78	1805.92
604.13	1798.71
604.48	1791.28
604.83	1784.42
605.18	1777.39
605.53	1769.28
605.87	1761.40
606.22	1754.05
606.57	1746.02
606.92	1738.69
607.27	1731.48
607.62	1724.50
607.96	1717.21
608.31	1710.64
608.66	1702.89
609.01	1695.34
609.36	1687.61
609.70	1679.54
610.05	1671.48
610.40	1663.82
610.75	1655.38
611.10	1647.72
611.44	1639.28
611.79	1631.37
612.14	1622.53
612.49	1613.38
612.83	1605.10
613.18	1596.96
613.53	1588.94
613.88	1580.46
614.22	1572.19
614.57	1563.60
614.92	1555.61
615.27	1547.93
615.61	1539.59
615.96	1531.58
616.31	1523.86
616.65	1516.50
617.00	1509.03
617.35	1501.35
617.70	1493.01
618.04	1484.60
618.39	1476.45
618.74	1468.80
619.08	1460.48
619.43	1453.09
619.78	1446.22
620.12	1438.98
620.47	1431.41
620.82	1423.23
621.16	1415.92
621.51	1408.29
621.85	1400.72
622.20	1392.08
622.55	1383.76
622.89	1375.97
623.24	1368.38
623.59	1361.06
623.93	1353.47
624.28	1346.11
624.62	1338.60
624.97	1331.31
625.32	1324.59
625.66	1317.55
626.01	1310.38
626.35	1302.92
626.70	1295.14
627.04	1287.31
627.39	1279.61
627.73	1272.26
628.08	1265.31
628.43	1257.93
628.77	1250.53
629.12	1242.92
629.46	1235.82
629.81	1228.47
630.15	1221.14
630.50	1213.75
630.84	1205.37
631.19	1197.60
631.53	1190.15
631.88	1182.54
632.22	1174.96
632.57	1167.62
632.91	1160.04
633.26	1152.65
633.60	1145.33
633.95	1138.22
634.29	1131.18
634.64	1124.45
634.98	1117.12
635.32	1109.88
635.67	1103.24
636.01	1096.67
636.36	1089.82
636.70	1083.33
637.05	1076.67
637.39	1070.31
637.73	1063.80
638.08	1058.07
638.42	1051.96
638.77	1045.62
639.11	1039.03
639.45	1032.71
639.80	1026.05
640.14	1019.66
640.49	1013.13
640.83	1006.89
641.17	1000.63
641.52	994.31
641.86	987.82
642.20	981.97
642.55	975.82
642.89	969.40
643.23	962.87
643.58	957.18
643.92	951.00
644.26	945.02
644.61	938.89
644.95	932.83
645.29	926.28
645.64	919.63
645.98	913.14
646.32	907.36
646.66	901.34
647.01	895.62
647.35	889.98
647.69	884.15
648.04	878.62
648.38	872.89
648.72	866.88
649.06	860.86
649.41	854.98
649.75	848.97
650.09	842.96
650.43	837.08
650.78	830.89
651.12	824.91
651.46	819.17
651.80	813.47
652.14	808.12
652.49	802.74
652.83	797.61
653.17	791.97
653.51	786.17
653.85	780.85
654.20	775.18
654.54	769.09
654.88	763.39
655.22	757.42
655.56	751.69
655.90	746.28
656.25	741.04
656.59	735.60
656.93	730.47
657.27	725.33
657.61	719.98
657.95	714.90
658.29	709.84
658.64	704.63
658.98	699.34
659.32	693.82
659.66	688.51
660.00	683.13
660.34	678.20
660.68	673.36
661.02	668.20
661.36	663.45
661.70	658.93
662.05	654.53
662.39	650.29
662.73	645.81
663.07	641.41
663.41	636.92
663.75	632.50
664.09	627.96
664.43	623.56
664.77	619.38
665.11	615.10
665.45	610.97
665.79	606.85
666.13	602.64
666.47	598.52
666.81	594.39
667.15	590.29
667.49	586.33
667.83	582.54
668.17	578.64
668.51	574.51
668.85	570.51
669.19	566.65
669.53	562.70
669.87	558.80
670.21	555.10
670.55	551.50
670.89	548.05
671.23	544.55
671.57	541.01
671.91	537.44
672.25	533.97
672.58	530.40
672.92	526.97
673.26	523.87
673.60	520.72
673.94	517.59
674.28	514.69
674.62	511.77
674.96	508.60
675.30	505.71
675.64	502.83
675.97	500.11
676.31	497.25
676.65	494.37
676.99	491.67
677.33	488.82
677.67	486.01
678.01	482.93
678.34	480.04
678.68	477.17
679.02	474.38
679.36	471.58
679.70	468.95
680.04	466.20
680.37	463.34
680.71	460.59
681.05	457.99
681.39	455.23
681.73	452.60
682.06	450.12
682.40	447.58
682.74	445.06
683.08	442.48
683.42	439.88
683.75	437.36
684.09	434.84
684.43	432.35
684.77	429.87
685.10	427.54
685.44	425.21
685.78	422.96
686.12	420.71
686.45	418.47
686.79	416.14
687.13	413.97
687.46	411.79
687.80	409.63
688.14	407.47
688.48	405.47
688.81	403.23
689.15	401.07
689.49	398.93
689.82	396.86
690.16	394.75
690.50	392.82
690.83	390.89
691.17	388.90
691.51	387.03
691.84	385.22
692.18	383.27
692.52	381.28
692.85	379.34
693.19	377.48
693.52	375.65
693.86	373.86
694.20	372.10
694.53	370.33
694.87	368.47
695.21	366.61
695.54	364.74
695.88	363.02
696.21	361.26
696.55	359.52
696.88	357.82
697.22	356.19
697.56	354.52
697.89	352.86
698.23	351.23
698.56	349.56
698.90	347.95
699.23	346.37
699.57	344.81
699.90	343.25
700.24	341.68
700.58	340.15
700.91	338.66
701.25	337.17
701.58	335.78
701.92	334.45
702.25	333.07
702.59	331.72
702.92	330.37
703.26	329.11
703.59	327.86
703.93	326.69
704.26	325.47
704.60	324.20
704.93	322.96
705.26	321.73
705.60	320.56
705.93	319.40
706.27	318.32
706.60	317.26
706.94	316.16
707.27	315.01
707.61	313.94
707.94	312.87
708.27	311.79
708.61	310.69
708.94	309.65
709.28	308.71
709.61	307.76
709.94	306.78
710.28	305.71
710.61	304.73
710.95	303.63
711.28	302.67
711.61	301.73
711.95	300.75
712.28	299.80
712.61	298.83
712.95	297.84
713.28	296.97
713.61	296.09
713.95	295.20
714.28	294.39
714.61	293.54
714.95	292.69
715.28	291.81
715.61	290.92
715.95	290.09
716.28	289.26
716.61	288.39
716.95	287.58
717.28	286.85
717.61	286.06
717.94	285.33
718.28	284.52
718.61	283.81
718.94	283.12
719.27	282.43
719.61	281.77
719.94	281.16
720.27	280.45
720.60	279.77
720.94	279.13
721.27	278.51
721.60	277.92
721.93	277.36
722.27	276.82
722.60	276.26
722.93	275.66
723.26	275.08
723.59	274.56
723.93	274.02
724.26	273.50
724.59	272.95
724.92	272.44
725.25	271.94
725.59	271.42
725.92	270.92
726.25	270.44
726.58	269.96
726.91	269.43
727.24	268.93
727.57	268.49
727.91	268.00
728.24	267.56
728.57	267.11
728.90	266.64
729.23	266.15
729.56	265.72
729.89	265.25
730.22	264.78
730.55	264.29
730.89	263.85
731.22	263.39
731.55	262.98
731.88	262.57
732.21	262.11
732.54	261.67
732.87	261.28
733.20	260.87
733.53	260.48
733.86	260.10
734.19	259.75
734.52	259.37
734.85	259.07
735.18	258.66
735.51	258.25
735.84	257.86
736.17	257.50
736.50	257.09
736.83	256.90
737.16	256.55
737.49	256.22
737.82	255.87
738.15	255.55
738.48	255.21
738.81	254.87
739.14	254.56
739.47	254.24
739.80	253.93
740.13	253.63
740.46	253.31
740.79	253.02
741.12	252.69
741.45	252.36
741.78	251.99
742.11	251.68
742.44	251.36
742.77	251.07
743.10	250.78
743.43	250.52
743.75	250.13
744.08	250.00
744.41	249.69
744.74	249.43
745.07	249.17
745.40	248.91
745.73	248.67
746.06	248.40
746.39	248.11
746.71	247.83
747.04	247.57
747.37	247.32
747.70	247.04
748.03	246.82
748.36	246.59
748.68	246.34
749.01	246.09
749.34	245.86
749.67	245.61
750.00	245.41
750.33	245.22
750.65	244.99
750.98	244.63
751.31	244.41
751.64	244.20
751.97	244.00
752.29	243.77
752.62	243.54
752.95	243.32
753.28	243.14
753.60	242.92
753.93	242.74
754.26	242.54
754.59	242.33
754.91	242.09
755.24	241.90
755.57	241.73
755.90	241.54
756.22	241.35
756.55	241.18
756.88	240.93
757.20	240.72
757.53	240.51
757.86	240.35
758.19	240.18
758.51	240.00
758.84	239.81
759.17	239.63
759.49	239.42
759.82	239.26
760.15	239.11
760.47	238.97
760.80	238.75
761.13	238.60
761.45	238.45
761.78	238.30
762.11	238.17
762.43	237.99
762.76	237.85
763.08	237.72
763.41	237.54
763.74	237.44
764.06	237.31
764.39	237.14
764.71	236.96
765.04	236.85
765.37	236.69
765.69	236.55
766.02	236.42
766.34	236.35
766.67	236.24
767.00	236.12
767.32	236.02
767.65	236.00
767.97	235.90
768.30	235.77
768.62	235.68
768.95	235.58
769.27	235.47
769.60	235.35
769.92	235.23
770.25	235.15
770.57	235.01
770.90	234.91
771.22	234.85
771.55	234.80
771.87	234.70
772.20	234.63
772.52	234.62
772.85	234.63
773.17	234.52
773.50	234.44
773.82	234.36
774.15	234.25
774.47	234.11
774.80	234.00
775.12	233.95
775.45	233.89
775.77	233.78
776.09	233.78
776.42	233.67
776.74	233.65
777.07	233.60
777.39	233.54
777.72	233.45
778.04	233.38
778.36	233.31
778.69	233.26
779.01	233.21
779.33	233.08
779.66	232.91
779.98	232.86
780.31	232.77
780.63	232.72
780.95	232.66
781.28	232.62
781.60	232.59
781.92	232.55
782.25	232.48
782.57	232.44
782.89	232.33
783.22	232.35
783.54	232.29
783.86	232.22
784.19	232.20
784.51	232.20
784.83	232.14
785.16	232.11
785.48	232.07
785.80	232.03
786.12	232.00
786.45	231.96
786.77	231.93
787.09	231.90
787.42	231.83
787.74	231.79
788.06	231.72
788.38	231.64
788.71	231.59
789.03	231.53
789.35	231.52
789.67	231.48
789.99	231.41
790.32	231.35
790.64	231.33
790.96	231.36
791.28	231.27
791.61	231.20
791.93	231.13
792.25	231.06
792.57	231.09
792.89	231.01
793.21	230.96
793.54	230.90
793.86	230.87
794.18	230.85
794.50	230.79
794.82	230.77
795.14	230.75
795.47	230.69
795.79	230.66
796.11	230.58
796.43	230.55
796.75	230.49
797.07	230.43
797.39	230.39
797.71	230.27
798.04	230.20
798.36	230.16
798.68	230.13
799.00	230.10
799.32	229.98
799.64	230.00
799.96	229.96
800.28	229.95
800.60	229.92
800.92	229.87
801.24	229.82
801.56	229.77
801.89	229.73
802.21	229.67
802.53	229.64
802.85	229.62
803.17	229.60
803.49	229.54
803.81	229.51
804.13	229.43
804.45	229.37
804.77	229.35
805.09	229.36
805.41	229.33
805.73	229.30
806.05	229.21
806.37	229.15
806.69	229.12
807.01	229.06
807.33	229.02
807.65	228.99
807.97	229.04
808.28	228.98
808.60	228.94
808.92	228.91
809.24	228.93
809.56	228.90
809.88	228.85
810.20	228.81
810.52	228.83
810.84	228.85
811.16	228.85
811.48	228.84
811.80	228.82
812.12	228.82
812.43	228.78
812.75	228.79
813.07	228.76
813.39	228.72
813.71	228.69
814.03	228.64
814.35	228.61
814.67	228.55
814.98	228.52
815.30	228.54
815.62	228.53
815.94	228.45
816.26	228.50
816.58	228.48
816.89	228.48
817.21	228.43
817.53	228.42
817.85	228.40
818.17	228.38
818.48	228.32
818.80	228.32
819.12	228.31
819.44	228.31
819.76	228.30
820.07	228.32
820.39	228.32
820.71	228.35
821.03	228.34
821.34	228.33
821.66	228.35
821.98	228.33
822.30	228.29
822.61	228.34
822.93	228.27
823.25	228.24
823.57	228.25
823.88	228.26
824.20	228.21
824.52	228.20
824.83	228.19
825.15	228.22
825.47	228.23
825.79	228.21
826.10	228.20
826.42	228.20
826.74	228.20
827.05	228.17
827.37	228.16
827.69	228.13
828.00	228.11
828.32	228.06
828.64	228.00
828.95	228.06
829.27	227.98
829.58	227.97
829.90	227.99
830.22	227.98
830.53	227.95
830.85	227.96
831.17	227.91
831.48	227.91
831.80	227.88
832.11	227.87
832.43	227.88
832.75	227.86
833.06	227.89
833.38	227.85
833.69	227.85
834.01	227.84
834.32	227.83
834.64	227.80
834.96	227.84
835.27	227.87
835.59	227.82
835.90	227.80
836.22	227.80
836.53	227.76
836.85	227.75
837.16	227.85
837.48	227.81
837.79	227.86
838.11	227.81
838.42	227.79
838.74	227.77
839.05	227.73
839.37	227.72
839.68	227.60
840.00	227.62
840.31	227.61
840.63	227.58
840.94	227.59
841.26	227.59
841.57	227.59
841.88	227.61
842.20	227.60
842.51	227.60
842.83	227.58
843.14	227.66
843.46	227.67
843.77	227.59
844.08	227.60
844.40	227.57
844.71	227.58
845.03	227.56
845.34	227.53
845.65	227.53
845.97	227.52
846.28	227.53
846.60	227.49
846.91	227.46
847.22	227.49
847.54	227.49
847.85	227.47
848.16	227.44
848.48	227.39
848.79	227.43
849.10	227.47
849.42	227.44
849.73	227.34
850.04	227.30
850.36	227.22
850.67	227.21
850.98	227.21
851.30	227.20
851.61	227.22
851.92	227.23
852.23	227.27
852.55	227.28
852.86	227.27
853.17	227.33
853.49	227.34
853.80	227.36
854.11	227.38
854.42	227.40
854.74	227.38
855.05	227.35
855.36	227.28
855.67	227.26
855.99	227.28
856.30	227.41
856.61	227.38
856.92	227.41
857.23	227.43
857.55	227.42
857.86	227.44
858.17	227.43
858.48	227.41
858.79	227.40
859.11	227.39
859.42	227.37
859.73	227.32
860.04	227.30
860.35	227.25
860.66	227.18
860.98	227.15
861.29	227.19
861.60	227.21
861.91	227.20
862.22	227.17
862.53	227.14
862.84	227.00
863.16	227.05
863.47	227.05
863.78	227.02
864.09	226.99
864.40	226.98
864.71	226.99
865.02	226.99
865.33	226.95
865.64	226.92
865.95	226.91
866.27	226.96
866.58	226.96
866.89	226.97
867.20	227.00
867.51	227.01
867.82	226.97
868.13	226.99
868.44	226.99
868.75	227.00
869.06	227.05
869.37	227.09
869.68	227.05
869.99	227.06
870.30	227.07
870.61	227.07
870.92	227.04
871.23	227.03
871.54	227.05
871.85	227.09
872.16	227.08
872.47	227.09
872.78	227.01
873.09	227.01
873.40	227.02
873.71	227.03
874.02	227.00
874.33	227.00
874.64	227.01
874.95	227.01
875.26	227.00
875.56	226.95
875.87	226.93
876.18	226.94
876.49	227.02
876.80	227.00
877.11	227.03
877.42	227.03
877.73	227.04
878.04	227.01
878.35	227.01
878.66	227.01
878.96	227.05
879.27	227.12
879.58	227.13
879.89	227.10
880.20	227.13
880.51	227.13
880.82	227.11
881.12	227.11
881.43	227.10
881.74	227.11
882.05	227.14
882.36	227.17
882.67	227.16
882.97	227.05
883.28	227.08
883.59	227.07
883.90	227.10
884.21	227.13
884.51	227.13
884.82	227.11
885.13	227.17
885.44	227.15
885.74	227.14
886.05	227.13
886.36	227.18
886.67	227.11
886.98	227.19
887.28	227.19
887.59	227.19
887.90	227.20
888.20	227.21
888.51	227.24
888.82	227.22
889.13	227.26
889.43	227.35
889.74	227.36
890.05	227.37
890.35	227.37
890.66	227.33
890.97	227.33
891.28	227.31
891.58	227.29
891.89	227.28
892.20	227.26
892.50	227.24
892.81	227.22
893.12	227.25
893.42	227.18
893.73	227.21
894.04	227.18
894.34	227.14
894.65	227.11
894.95	227.05
895.26	227.06
895.57	227.07
895.87	226.99
896.18	226.96
896.48	226.94
896.79	226.90
897.10	226.91
897.40	226.89
897.71	226.91
898.01	226.90
898.32	226.91
898.63	226.90
898.93	226.92
899.24	226.92
899.54	226.90
899.85	226.87
900.15	226.83
900.46	226.84
900.76	226.88
901.07	226.88
901.38	226.90
901.68	226.87
901.99	226.82
902.29	226.80
902.60	226.81
902.90	226.79
903.21	226.80
903.51	226.79
903.82	226.84
904.12	226.80
904.43	226.82
904.73	226.79
905.03	226.79
905.34	226.89
905.64	226.88
905.95	226.84
906.25	226.87
906.56	226.88
906.86	226.89
907.17	226.91
907.47	226.89
907.77	226.87
908.08	226.83
908.38	226.86
908.69	226.89
908.99	226.88
909.30	226.90
909.60	226.89
909.90	226.89
910.21	226.87
910.51	226.87
910.81	226.84
911.12	226.87
911.42	226.87
911.73	226.74
912.03	226.73
912.33	226.78
912.64	226.78
912.94	226.77
913.24	226.78
913.55	226.73
913.85	226.74
914.15	226.76
914.46	226.83
914.76	226.81
915.06	226.80
915.37	226.80
915.67	226.81
915.97	226.80
916.27	226.77
916.58	226.76
916.88	226.77
917.18	226.77
917.49	226.81
917.79	226.79
918.09	226.81
918.39	226.84
918.70	226.84
919.00	226.85
919.30	226.91
919.60	226.91
919.91	226.90
920.21	226.90
920.51	226.89
920.81	226.84
921.12	226.86
921.42	226.87
921.72	226.90
922.02	226.88
922.32	226.91
922.63	226.92
922.93	226.94
923.23	226.96
923.53	226.96
923.83	226.90
924.13	226.93
924.44	226.93
924.74	226.95
925.04	226.97
925.34	226.96
925.64	226.91
925.94	226.89
926.24	226.96
926.55	226.98
926.85	226.98
927.15	227.00
927.45	226.96
927.75	226.93
928.05	226.90
928.35	226.93
928.65	226.94
928.95	226.95
929.26	226.90
929.56	226.92
929.86	226.94
930.16	226.94
930.46	226.95
930.76	226.98
931.06	226.94
931.36	226.90
931.66	226.91
931.96	226.92
932.26	226.90
932.56	226.89
932.86	226.89
933.16	226.90
933.46	226.88
933.76	226.91
934.06	226.92
934.36	226.95
934.66	226.90
934.96	226.88
935.26	226.87
935.56	226.89
935.86	226.85
936.16	226.84
936.46	226.84
936.76	226.82
937.06	226.78
937.36	226.77
937.66	226.78
937.96	226.74
938.26	226.73
938.56	226.74
938.86	226.72
939.16	226.74
939.46	226.74
939.76	226.75
940.06	226.72
940.35	226.74
940.65	226.67
940.95	226.70
941.25	226.66
941.55	226.67
941.85	226.68
942.15	226.70
942.45	226.73
942.75	226.74
943.04	226.73
943.34	226.74
943.64	226.72
943.94	226.71
944.24	226.74
944.54	226.76
944.84	226.75
945.13	226.76
945.43	226.70
945.73	226.71
946.03	226.69
946.33	226.69
946.62	226.67
946.92	226.71
947.22	226.72
947.52	226.72
947.82	226.72
948.11	226.71
948.41	226.68
948.71	226.66
949.01	226.66
949.31	226.68
949.60	226.69
949.90	226.74
950.20	226.70
950.50	226.68
950.79	226.68
951.09	226.73
951.39	226.72
951.69	226.73
951.98	226.72
952.28	226.74
952.58	226.72
952.87	226.73
953.17	226.73
953.47	226.73
953.76	226.77
954.06	226.75
954.36	226.74
954.66	226.73
954.95	226.72
955.25	226.71
955.55	226.71
955.84	226.64
956.14	226.64
956.44	226.67
956.73	226.70
957.03	226.70
957.32	226.65
957.62	226.65
957.92	226.65
958.21	226.67
958.51	226.77
958.81	226.81
959.10	226.84
959.40	226.84
959.69	226.82
959.99	226.80
960.29	226.79
960.58	226.81
960.88	226.88
961.17	226.92
961.47	226.93
961.76	226.92
962.06	226.96
962.36	226.92
962.65	226.91
962.95	226.90
963.24	226.87
963.54	226.88
963.83	226.91
964.13	226.92
964.42	226.89
964.72	226.82
965.01	226.82
965.31	226.79
965.60	226.78
965.90	226.84
966.19	226.83
966.49	226.85
966.78	226.83
967.08	226.78
967.37	226.76
967.67	226.74
967.96	226.74
968.26	226.76
968.55	226.76
968.85	226.78
969.14	226.79
969.43	226.80
969.73	226.79
970.02	226.79
970.32	226.75
970.61	226.74
970.91	226.70
971.20	226.68
971.49	226.64
971.79	226.68
972.08	226.59
972.38	226.61
972.67	226.59
972.96	226.60
973.26	226.59
973.55	226.63
973.85	226.63
974.14	226.64
974.43	226.63
974.73	226.65
975.02	226.66
975.31	226.63
975.61	226.65
975.90	226.62
976.19	226.61
976.49	226.65
976.78	226.65
977.07	226.66
977.37	226.62
977.66	226.66
977.95	226.63
978.24	226.69
978.54	226.67
978.83	226.65
979.12	226.64
979.42	226.62
979.71	226.59
980.00	226.58
980.29	226.56
980.59	226.55
980.88	226.54
981.17	226.52
981.46	226.56
981.76	226.56
982.05	226.60
982.34	226.62
982.63	226.61
982.93	226.60
983.22	226.61
983.51	226.64
983.80	226.66
984.09	226.65
984.39	226.65
984.68	226.67
984.97	226.70
985.26	226.72
985.55	226.76
985.85	226.74
986.14	226.78
986.43	226.82
986.72	226.81
987.01	226.79
987.30	226.80
987.59	226.78
987.89	226.79
988.18	226.76
988.47	226.73
988.76	226.76
989.05	226.77
989.34	226.79
989.63	226.81
989.92	226.80
990.22	226.81
990.51	226.78
990.80	226.76
991.09	226.79
991.38	226.79
991.67	226.76
991.96	226.77
992.25	226.77
992.54	226.73
992.83	226.73
993.12	226.74
993.41	226.74
993.70	226.76
993.99	226.76
994.28	226.78
994.58	226.82
994.87	226.79
995.16	226.81
995.45	226.78
995.74	226.75
996.03	226.75
996.32	226.77
996.61	226.78
996.90	226.76
997.19	226.73
997.48	226.71
997.77	226.70
998.06	226.67
998.34	226.66
998.63	226.66
998.92	226.66
999.21	226.66
999.50	226.66
999.79	226.61
1000.08	226.59
1000.37	226.58
1000.66	226.56
1000.95	226.54
1001.24	226.52
1001.53	226.54
1001.82	226.52
1002.11	226.50
1002.40	226.48
1002.68	226.50
1002.97	226.58
1003.26	226.56
1003.55	226.53
1003.84	226.54
1004.13	226.60
1004.42	226.57
1004.71	226.55
1004.99	226.55
1005.28	226.55
1005.57	226.53
1005.86	226.53
1006.15	226.51
1006.44	226.50
1006.72	226.49
1007.01	226.49
1007.30	226.47
1007.59	226.44
1007.88	226.43
1008.17	226.40
1008.45	226.36
1008.74	226.33
1009.03	226.26
1009.32	226.25
1009.60	226.27
1009.89	226.24
1010.18	226.17
1010.47	226.20
1010.76	226.21
1011.04	226.20
1011.33	226.19
1011.62	226.20
1011.91	226.21
1012.19	226.20
1012.48	226.20
1012.77	226.19
1013.05	226.24
1013.34	226.25
1013.63	226.24
1013.92	226.29
1014.20	226.31
1014.49	226.31
1014.78	226.31
1015.06	226.30
1015.35	226.31
1015.64	226.32
1015.92	226.32
1016.21	226.31
1016.50	226.28
1016.78	226.29
1017.07	226.28
1017.36	226.28
1017.64	226.28
1017.93	226.29
1018.22	226.27
1018.50	226.27
1018.79	226.29
1019.08	226.25
1019.36	226.26
1019.65	226.24
1019.93	226.27
1020.22	226.26
1020.51	226.36
1020.79	226.36
1021.08	225.96
1021.36	226.12
1021.65	226.81
1021.94	226.54
1022.22	226.39
1022.51	225.97
1022.79	227.11
1023.08	226.29
1023.36	228.13
1023.65	226.19
>>>>>End Processed Spectral Data<<<<<
