SpectraSuite Data File
++++++++++++++++++++++++++++++++++++
Date: Fri Feb 01 17:21:20 EST 2013
User: group
Dark Spectrum Present: No
Reference Spectrum Present: No
Number of Sampled Component Spectra: 1
Spectrometers: USB2E7196
Integration Time (usec): 35000 (USB2E7196)
Spectra Averaged: 100 (USB2E7196)
Boxcar Smoothing: 10 (USB2E7196)
Correct for Electrical Dark: No (USB2E7196)
Strobe/Lamp Enabled: No (USB2E7196)
Correct for Detector Non-linearity: No (USB2E7196)
Correct for Stray Light: No (USB2E7196)
Number of Pixels in Processed Spectrum: 2048
>>>>>Begin Processed Spectral Data<<<<<
339.09	0.00
339.48	213.76
339.86	214.71
340.24	215.47
340.63	217.83
341.01	219.98
341.39	220.77
341.78	221.06
342.16	223.04
342.54	223.09
342.93	211.64
343.31	222.34
343.69	222.83
344.07	223.28
344.46	223.71
344.84	224.07
345.22	224.29
345.60	224.48
345.99	224.69
346.37	224.81
346.75	224.92
347.13	224.97
347.52	224.97
347.90	225.03
348.28	225.03
348.66	225.05
349.05	225.00
349.43	225.03
349.81	225.06
350.19	225.08
350.57	225.14
350.96	225.20
351.34	225.24
351.72	225.35
352.10	225.44
352.48	225.52
352.87	225.55
353.25	225.61
353.63	225.67
354.01	225.71
354.39	225.76
354.77	225.81
355.15	225.93
355.54	226.01
355.92	226.02
356.30	226.09
356.68	226.24
357.06	226.31
357.44	226.33
357.82	226.38
358.20	226.45
358.58	226.50
358.97	226.55
359.35	226.63
359.73	226.69
360.11	226.73
360.49	226.78
360.87	226.83
361.25	226.87
361.63	226.91
362.01	226.95
362.39	226.97
362.77	227.03
363.15	227.03
363.53	227.07
363.91	227.10
364.29	227.12
364.67	227.06
365.05	227.08
365.43	227.14
365.81	227.16
366.19	227.22
366.57	227.23
366.95	227.25
367.33	227.23
367.71	227.20
368.09	227.24
368.47	227.22
368.85	227.22
369.23	227.23
369.61	227.22
369.99	227.23
370.37	227.23
370.75	227.23
371.13	227.20
371.51	227.15
371.89	227.10
372.27	227.09
372.65	227.05
373.03	227.04
373.41	226.99
373.78	226.94
374.16	226.82
374.54	226.75
374.92	226.69
375.30	226.67
375.68	226.62
376.06	226.55
376.44	226.47
376.82	226.42
377.19	226.37
377.57	226.30
377.95	226.25
378.33	226.19
378.71	226.08
379.09	226.02
379.47	225.98
379.84	225.95
380.22	225.89
380.60	225.81
380.98	225.70
381.36	225.62
381.73	225.58
382.11	225.57
382.49	225.54
382.87	225.48
383.25	225.40
383.62	225.46
384.00	225.36
384.38	225.34
384.76	225.30
385.13	225.31
385.51	225.28
385.89	225.20
386.27	225.16
386.64	225.12
387.02	225.06
387.40	224.97
387.78	224.95
388.15	224.87
388.53	224.87
388.91	224.84
389.29	224.82
389.66	224.79
390.04	224.73
390.42	224.70
390.79	224.70
391.17	224.69
391.55	224.54
391.92	224.52
392.30	224.53
392.68	224.49
393.05	224.46
393.43	224.46
393.81	224.48
394.18	224.45
394.56	224.44
394.94	224.47
395.31	224.48
395.69	224.51
396.06	224.54
396.44	224.53
396.82	224.57
397.19	224.65
397.57	224.66
397.95	224.71
398.32	224.75
398.70	224.78
399.07	224.82
399.45	224.87
399.82	224.96
400.20	224.97
400.58	225.03
400.95	225.03
401.33	225.09
401.70	225.21
402.08	225.30
402.45	225.40
402.83	225.50
403.20	225.63
403.58	225.68
403.95	225.78
404.33	225.90
404.71	226.00
405.08	226.14
405.46	226.27
405.83	226.41
406.21	226.51
406.58	226.66
406.96	226.81
407.33	226.97
407.70	227.14
408.08	227.42
408.45	227.62
408.83	227.88
409.20	228.10
409.58	228.25
409.95	228.52
410.33	228.80
410.70	229.04
411.08	229.30
411.45	229.65
411.82	230.01
412.20	230.38
412.57	230.82
412.95	231.11
413.32	231.54
413.69	231.97
414.07	232.43
414.44	232.91
414.82	233.45
415.19	234.00
415.56	234.59
415.94	235.14
416.31	235.83
416.68	236.46
417.06	237.19
417.43	237.93
417.81	238.73
418.18	239.55
418.55	240.46
418.93	241.39
419.30	242.31
419.67	243.24
420.04	244.24
420.42	245.27
420.79	246.50
421.16	247.71
421.54	248.97
421.91	250.22
422.28	251.56
422.66	252.91
423.03	254.33
423.40	255.73
423.77	257.22
424.15	258.67
424.52	260.26
424.89	261.93
425.26	263.56
425.64	265.05
426.01	266.71
426.38	268.42
426.75	270.19
427.13	272.02
427.50	273.90
427.87	275.85
428.24	277.76
428.61	279.60
428.99	281.58
429.36	283.74
429.73	285.88
430.10	287.95
430.47	290.10
430.85	292.25
431.22	294.55
431.59	297.05
431.96	299.37
432.33	301.93
432.70	304.37
433.08	307.27
433.45	310.03
433.82	312.72
434.19	315.68
434.56	318.52
434.93	321.23
435.30	323.92
435.68	326.91
436.05	329.85
436.42	332.74
436.79	335.35
437.16	338.11
437.53	341.07
437.90	344.00
438.27	346.85
438.64	349.77
439.01	352.44
439.38	354.72
439.75	357.00
440.13	359.57
440.50	361.98
440.87	363.85
441.24	365.86
441.61	368.09
441.98	369.62
442.35	371.51
442.72	373.38
443.09	375.29
443.46	376.33
443.83	376.93
444.20	377.47
444.57	378.36
444.94	378.73
445.31	379.10
445.68	379.42
446.05	379.51
446.42	379.12
446.79	378.70
447.16	378.27
447.53	377.93
447.90	376.74
448.27	375.56
448.64	373.93
449.01	372.75
449.37	370.70
449.74	368.77
450.11	366.47
450.48	363.99
450.85	361.36
451.22	359.12
451.59	357.00
451.96	355.00
452.33	352.28
452.70	349.83
453.07	346.89
453.43	343.89
453.80	341.00
454.17	338.23
454.54	335.56
454.91	332.73
455.28	329.99
455.65	327.41
456.02	324.89
456.38	322.66
456.75	319.87
457.12	317.55
457.49	315.26
457.86	312.99
458.23	311.06
458.59	308.93
458.96	306.78
459.33	304.91
459.70	302.96
460.07	301.39
460.43	299.57
460.80	297.87
461.17	296.40
461.54	294.89
461.91	293.38
462.27	291.98
462.64	290.70
463.01	289.25
463.38	287.91
463.74	286.53
464.11	285.33
464.48	284.30
464.85	283.16
465.21	282.32
465.58	281.40
465.95	280.25
466.32	279.38
466.68	278.43
467.05	277.49
467.42	276.57
467.78	275.65
468.15	274.80
468.52	274.14
468.88	273.27
469.25	272.48
469.62	271.90
469.98	271.12
470.35	270.51
470.72	269.92
471.08	269.27
471.45	268.68
471.82	268.16
472.18	267.58
472.55	267.14
472.92	266.56
473.28	266.10
473.65	265.66
474.02	265.20
474.38	264.87
474.75	264.55
475.11	264.22
475.48	263.98
475.85	263.76
476.21	263.56
476.58	263.40
476.94	263.25
477.31	263.09
477.67	262.99
478.04	262.86
478.41	262.79
478.77	262.85
479.14	262.80
479.50	262.81
479.87	262.87
480.23	263.00
480.60	263.11
480.96	263.19
481.33	263.42
481.69	263.61
482.06	263.81
482.42	264.02
482.79	264.30
483.15	264.59
483.52	264.97
483.88	265.31
484.25	265.67
484.61	266.12
484.98	266.60
485.34	267.15
485.71	267.73
486.07	268.34
486.44	268.89
486.80	269.59
487.17	270.32
487.53	271.13
487.90	271.96
488.26	272.86
488.62	273.84
488.99	274.80
489.35	275.83
489.72	276.94
490.08	278.18
490.44	279.41
490.81	280.74
491.17	282.05
491.54	283.51
491.90	285.05
492.26	286.63
492.63	288.32
492.99	290.08
493.36	291.96
493.72	293.97
494.08	296.06
494.45	298.29
494.81	300.61
495.17	303.02
495.54	305.51
495.90	308.18
496.26	310.97
496.63	313.88
496.99	316.99
497.35	320.19
497.72	323.54
498.08	326.98
498.44	330.62
498.80	334.54
499.17	338.55
499.53	342.64
499.89	346.98
500.26	351.38
500.62	355.98
500.98	360.86
501.34	365.92
501.71	371.14
502.07	376.54
502.43	382.06
502.79	387.77
503.16	393.82
503.52	399.96
503.88	406.23
504.24	412.82
504.60	419.57
504.97	426.61
505.33	433.83
505.69	441.48
506.05	449.17
506.41	456.92
506.78	464.91
507.14	473.22
507.50	481.80
507.86	490.74
508.22	499.85
508.59	508.94
508.95	518.26
509.31	527.95
509.67	537.93
510.03	548.10
510.39	558.45
510.75	569.04
511.12	579.83
511.48	591.01
511.84	602.27
512.20	613.64
512.56	625.32
512.92	637.26
513.28	649.41
513.64	661.57
514.00	674.06
514.37	686.79
514.73	699.65
515.09	712.42
515.45	725.41
515.81	738.69
516.17	752.36
516.53	766.34
516.89	780.27
517.25	794.12
517.61	808.20
517.97	822.43
518.33	836.58
518.69	851.09
519.05	865.70
519.41	880.51
519.77	895.73
520.13	910.84
520.49	925.85
520.85	940.81
521.21	956.22
521.57	972.11
521.93	987.46
522.29	1003.45
522.65	1019.34
523.01	1035.16
523.37	1050.81
523.73	1066.66
524.09	1082.37
524.45	1098.20
524.81	1114.50
525.17	1130.98
525.53	1147.46
525.89	1163.97
526.25	1180.39
526.61	1196.35
526.97	1212.71
527.33	1228.78
527.68	1244.96
528.04	1261.07
528.40	1277.32
528.76	1293.97
529.12	1310.03
529.48	1326.64
529.84	1342.20
530.20	1358.51
530.56	1375.04
530.91	1392.04
531.27	1408.40
531.63	1424.53
531.99	1440.76
532.35	1456.40
532.71	1472.01
533.07	1487.88
533.42	1503.40
533.78	1519.02
534.14	1535.00
534.50	1549.99
534.86	1565.43
535.21	1580.38
535.57	1596.00
535.93	1611.16
536.29	1625.68
536.65	1640.47
537.00	1654.76
537.36	1669.94
537.72	1684.25
538.08	1698.57
538.44	1712.22
538.79	1725.95
539.15	1739.29
539.51	1752.93
539.87	1766.90
540.22	1780.36
540.58	1793.92
540.94	1807.01
541.29	1819.74
541.65	1832.32
542.01	1845.43
542.37	1857.76
542.72	1870.17
543.08	1881.96
543.44	1894.27
543.79	1905.51
544.15	1916.49
544.51	1928.20
544.87	1939.11
545.22	1949.92
545.58	1960.18
545.94	1970.07
546.29	1979.84
546.65	1989.80
547.01	1999.21
547.36	2008.20
547.72	2016.78
548.07	2024.84
548.43	2033.14
548.79	2041.23
549.14	2049.12
549.50	2056.46
549.86	2064.27
550.21	2071.67
550.57	2078.97
550.92	2085.78
551.28	2092.98
551.64	2100.28
551.99	2106.93
552.35	2113.36
552.70	2119.66
553.06	2125.80
553.41	2132.35
553.77	2138.53
554.13	2144.77
554.48	2150.99
554.84	2156.75
555.19	2162.27
555.55	2167.70
555.90	2172.58
556.26	2178.04
556.61	2182.87
556.97	2187.72
557.32	2192.15
557.68	2196.49
558.03	2201.07
558.39	2205.10
558.74	2209.89
559.10	2213.95
559.45	2217.95
559.81	2222.33
560.16	2226.54
560.52	2230.28
560.87	2233.86
561.23	2237.07
561.58	2240.24
561.94	2243.17
562.29	2245.70
562.64	2248.93
563.00	2251.77
563.35	2255.41
563.71	2258.71
564.06	2262.14
564.42	2265.27
564.77	2268.12
565.12	2271.01
565.48	2273.35
565.83	2275.52
566.19	2277.50
566.54	2278.77
566.89	2280.29
567.25	2281.41
567.60	2283.02
567.96	2285.13
568.31	2286.27
568.66	2287.82
569.02	2288.85
569.37	2289.56
569.72	2290.90
570.08	2291.45
570.43	2291.81
570.78	2291.75
571.14	2290.51
571.49	2289.54
571.84	2289.46
572.20	2288.87
572.55	2287.95
572.90	2286.53
573.26	2285.74
573.61	2284.07
573.96	2282.96
574.31	2280.36
574.67	2277.81
575.02	2274.59
575.37	2271.24
575.72	2268.09
576.08	2264.82
576.43	2261.63
576.78	2258.34
577.13	2255.36
577.49	2252.21
577.84	2249.20
578.19	2245.68
578.54	2242.52
578.90	2238.69
579.25	2233.61
579.60	2228.83
579.95	2224.29
580.30	2219.71
580.66	2214.75
581.01	2210.18
581.36	2205.36
581.71	2201.57
582.06	2197.58
582.42	2193.38
582.77	2188.67
583.12	2184.30
583.47	2180.00
583.82	2175.58
584.17	2170.68
584.53	2165.50
584.88	2160.44
585.23	2155.07
585.58	2149.76
585.93	2144.51
586.28	2139.82
586.63	2134.99
586.98	2130.16
587.34	2125.61
587.69	2120.77
588.04	2115.82
588.39	2110.36
588.74	2104.14
589.09	2098.15
589.44	2091.42
589.79	2085.36
590.14	2079.70
590.49	2073.21
590.84	2066.85
591.19	2061.01
591.54	2054.60
591.89	2047.52
592.25	2040.87
592.60	2033.72
592.95	2026.47
593.30	2019.30
593.65	2011.88
594.00	2004.93
594.35	1997.77
594.70	1989.68
595.05	1982.84
595.40	1975.55
595.75	1968.11
596.10	1962.17
596.45	1955.59
596.80	1949.62
597.15	1943.39
597.50	1936.75
597.85	1930.35
598.19	1923.94
598.54	1917.06
598.89	1910.59
599.24	1904.65
599.59	1898.14
599.94	1892.01
600.29	1885.77
600.64	1879.27
600.99	1872.03
601.34	1865.30
601.69	1858.32
602.04	1851.77
602.39	1844.55
602.74	1837.70
603.08	1831.07
603.43	1824.32
603.78	1816.99
604.13	1809.75
604.48	1802.60
604.83	1795.64
605.18	1789.02
605.53	1781.15
605.87	1773.08
606.22	1765.76
606.57	1757.85
606.92	1750.29
607.27	1743.23
607.62	1736.47
607.96	1729.25
608.31	1722.87
608.66	1715.38
609.01	1708.07
609.36	1700.55
609.70	1692.51
610.05	1684.69
610.40	1677.12
610.75	1668.81
611.10	1661.22
611.44	1652.70
611.79	1644.52
612.14	1635.82
612.49	1626.36
612.83	1617.78
613.18	1609.57
613.53	1601.47
613.88	1592.86
614.22	1584.59
614.57	1575.71
614.92	1567.46
615.27	1559.99
615.61	1551.52
615.96	1543.35
616.31	1535.36
616.65	1527.79
617.00	1520.12
617.35	1512.14
617.70	1503.83
618.04	1495.22
618.39	1486.84
618.74	1479.28
619.08	1470.92
619.43	1463.21
619.78	1456.28
620.12	1449.15
620.47	1441.56
620.82	1433.25
621.16	1425.67
621.51	1417.91
621.85	1410.19
622.20	1401.54
622.55	1392.89
622.89	1384.83
623.24	1377.03
623.59	1369.64
623.93	1362.09
624.28	1354.76
624.62	1347.25
624.97	1339.84
625.32	1332.86
625.66	1325.67
626.01	1318.27
626.35	1310.85
626.70	1303.05
627.04	1295.26
627.39	1287.42
627.73	1279.85
628.08	1272.89
628.43	1265.69
628.77	1258.37
629.12	1250.81
629.46	1243.73
629.81	1236.17
630.15	1228.83
630.50	1221.43
630.84	1213.17
631.19	1205.00
631.53	1197.40
631.88	1189.72
632.22	1182.10
632.57	1174.71
632.91	1167.19
633.26	1159.80
633.60	1152.23
633.95	1144.89
634.29	1137.69
634.64	1130.83
634.98	1123.53
635.32	1116.28
635.67	1109.51
636.01	1102.68
636.36	1095.90
636.70	1089.23
637.05	1082.64
637.39	1076.17
637.73	1069.67
638.08	1063.71
638.42	1057.80
638.77	1051.30
639.11	1044.74
639.45	1038.27
639.80	1031.64
640.14	1025.21
640.49	1018.59
640.83	1012.26
641.17	1006.05
641.52	999.72
641.86	993.17
642.20	987.18
642.55	980.69
642.89	974.23
643.23	967.63
643.58	961.80
643.92	955.60
644.26	949.53
644.61	943.34
644.95	937.17
645.29	930.56
645.64	923.77
645.98	917.34
646.32	911.37
646.66	905.29
647.01	899.44
647.35	893.68
647.69	887.72
648.04	882.09
648.38	876.30
648.72	870.38
649.06	864.38
649.41	858.37
649.75	852.55
650.09	846.58
650.43	840.79
650.78	834.58
651.12	828.56
651.46	822.74
651.80	817.18
652.14	811.82
652.49	806.44
652.83	801.18
653.17	795.59
653.51	789.91
653.85	784.45
654.20	778.89
654.54	772.82
654.88	767.08
655.22	761.16
655.56	755.42
655.90	749.83
656.25	744.63
656.59	739.36
656.93	734.18
657.27	729.04
657.61	723.58
657.95	718.41
658.29	713.28
658.64	707.98
658.98	702.51
659.32	696.94
659.66	691.75
660.00	686.49
660.34	681.51
660.68	676.51
661.02	671.44
661.36	666.65
661.70	662.17
662.05	657.78
662.39	653.47
662.73	649.01
663.07	644.58
663.41	640.09
663.75	635.55
664.09	630.98
664.43	626.50
664.77	622.40
665.11	618.16
665.45	613.97
665.79	609.91
666.13	605.80
666.47	601.64
666.81	597.49
667.15	593.30
667.49	589.26
667.83	585.43
668.17	581.50
668.51	577.49
668.85	573.38
669.19	569.48
669.53	565.64
669.87	561.73
670.21	558.00
670.55	554.28
670.89	550.85
671.23	547.46
671.57	543.90
671.91	540.38
672.25	536.87
672.58	533.41
672.92	529.95
673.26	526.68
673.60	523.56
673.94	520.43
674.28	517.47
674.62	514.52
674.96	511.42
675.30	508.51
675.64	505.47
675.97	502.64
676.31	499.73
676.65	496.75
676.99	493.97
677.33	491.06
677.67	488.23
678.01	485.20
678.34	482.21
678.68	479.31
679.02	476.43
679.36	473.57
679.70	470.82
680.04	468.06
680.37	465.22
680.71	462.37
681.05	459.67
681.39	456.94
681.73	454.29
682.06	451.75
682.40	449.18
682.74	446.59
683.08	443.99
683.42	441.37
683.75	438.84
684.09	436.27
684.43	433.81
684.77	431.31
685.10	428.86
685.44	426.43
685.78	424.11
686.12	421.75
686.45	419.46
686.79	417.11
687.13	414.89
687.46	412.69
687.80	410.47
688.14	408.20
688.48	406.09
688.81	403.85
689.15	401.64
689.49	399.42
689.82	397.30
690.16	395.23
690.50	393.27
690.83	391.29
691.17	389.27
691.51	387.33
691.84	385.45
692.18	383.56
692.52	381.60
692.85	379.64
693.19	377.81
693.52	375.94
693.86	374.05
694.20	372.24
694.53	370.49
694.87	368.66
695.21	366.84
695.54	365.01
695.88	363.22
696.21	361.49
696.55	359.78
696.88	358.11
697.22	356.39
697.56	354.73
697.89	353.11
698.23	351.56
698.56	349.94
698.90	348.37
699.23	346.72
699.57	345.20
699.90	343.64
700.24	342.08
700.58	340.55
700.91	339.10
701.25	337.62
701.58	336.22
701.92	334.87
702.25	333.49
702.59	332.15
702.92	330.85
703.26	329.53
703.59	328.25
703.93	327.04
704.26	325.82
704.60	324.54
704.93	323.23
705.26	321.94
705.60	320.69
705.93	319.48
706.27	318.43
706.60	317.32
706.94	316.22
707.27	315.08
707.61	314.02
707.94	312.93
708.27	311.82
708.61	310.67
708.94	309.60
709.28	308.63
709.61	307.64
709.94	306.65
710.28	305.61
710.61	304.58
710.95	303.51
711.28	302.57
711.61	301.61
711.95	300.69
712.28	299.75
712.61	298.80
712.95	297.84
713.28	296.94
713.61	296.06
713.95	295.16
714.28	294.27
714.61	293.35
714.95	292.47
715.28	291.62
715.61	290.73
715.95	289.83
716.28	288.93
716.61	288.06
716.95	287.19
717.28	286.38
717.61	285.61
717.94	284.81
718.28	283.97
718.61	283.20
718.94	282.49
719.27	281.79
719.61	281.14
719.94	280.48
720.27	279.71
720.60	279.01
720.94	278.37
721.27	277.79
721.60	277.20
721.93	276.58
722.27	276.02
722.60	275.44
722.93	274.87
723.26	274.32
723.59	273.76
723.93	273.21
724.26	272.65
724.59	272.03
724.92	271.49
725.25	271.06
725.59	270.51
725.92	269.99
726.25	269.46
726.58	268.95
726.91	268.46
727.24	267.93
727.57	267.41
727.91	266.86
728.24	266.37
728.57	265.87
728.90	265.44
729.23	264.92
729.56	264.49
729.89	264.01
730.22	263.53
730.55	263.03
730.89	262.58
731.22	262.17
731.55	261.76
731.88	261.32
732.21	260.83
732.54	260.42
732.87	259.95
733.20	259.56
733.53	259.10
733.86	258.71
734.19	258.32
734.52	257.97
734.85	257.65
735.18	257.25
735.51	256.90
735.84	256.50
736.17	256.17
736.50	255.75
736.83	255.55
737.16	255.21
737.49	254.90
737.82	254.57
738.15	254.23
738.48	253.90
738.81	253.61
739.14	253.27
739.47	252.95
739.80	252.68
740.13	252.36
740.46	252.07
740.79	251.73
741.12	251.43
741.45	251.10
741.78	250.77
742.11	250.52
742.44	250.18
742.77	249.88
743.10	249.54
743.43	249.28
743.75	248.89
744.08	248.75
744.41	248.43
744.74	248.15
745.07	247.86
745.40	247.65
745.73	247.41
746.06	247.12
746.39	246.88
746.71	246.57
747.04	246.28
747.37	246.00
747.70	245.77
748.03	245.52
748.36	245.28
748.68	245.02
749.01	244.74
749.34	244.51
749.67	244.28
750.00	244.04
750.33	243.88
750.65	243.64
750.98	243.29
751.31	243.11
751.64	242.89
751.97	242.74
752.29	242.46
752.62	242.20
752.95	241.98
753.28	241.72
753.60	241.53
753.93	241.36
754.26	241.11
754.59	240.88
754.91	240.65
755.24	240.47
755.57	240.26
755.90	240.07
756.22	239.89
756.55	239.69
756.88	239.52
757.20	239.25
757.53	239.06
757.86	238.90
758.19	238.71
758.51	238.51
758.84	238.25
759.17	238.08
759.49	237.92
759.82	237.82
760.15	237.67
760.47	237.51
760.80	237.32
761.13	237.25
761.45	237.09
761.78	236.97
762.11	236.80
762.43	236.69
762.76	236.48
763.08	236.34
763.41	236.19
763.74	236.06
764.06	235.95
764.39	235.82
764.71	235.63
765.04	235.51
765.37	235.38
765.69	235.26
766.02	235.13
766.34	234.99
766.67	234.84
767.00	234.74
767.32	234.67
767.65	234.63
767.97	234.49
768.30	234.37
768.62	234.25
768.95	234.11
769.27	234.02
769.60	233.95
769.92	233.80
770.25	233.67
770.57	233.54
770.90	233.42
771.22	233.29
771.55	233.22
771.87	233.13
772.20	233.05
772.52	233.04
772.85	233.05
773.17	232.94
773.50	232.85
773.82	232.73
774.15	232.60
774.47	232.44
774.80	232.35
775.12	232.27
775.45	232.20
775.77	232.10
776.09	232.02
776.42	231.94
776.74	231.93
777.07	231.88
777.39	231.82
777.72	231.76
778.04	231.71
778.36	231.66
778.69	231.58
779.01	231.50
779.33	231.32
779.66	231.18
779.98	231.14
780.31	231.08
780.63	231.08
780.95	231.04
781.28	230.97
781.60	230.90
781.92	230.85
782.25	230.77
782.57	230.72
782.89	230.66
783.22	230.60
783.54	230.53
783.86	230.48
784.19	230.42
784.51	230.38
784.83	230.29
785.16	230.22
785.48	230.16
785.80	230.14
786.12	230.15
786.45	230.10
786.77	230.02
787.09	229.96
787.42	229.90
787.74	229.85
788.06	229.81
788.38	229.76
788.71	229.68
789.03	229.69
789.35	229.68
789.67	229.62
789.99	229.60
790.32	229.52
790.64	229.48
790.96	229.49
791.28	229.43
791.61	229.38
791.93	229.35
792.25	229.31
792.57	229.34
792.89	229.27
793.21	229.20
793.54	229.16
793.86	229.10
794.18	229.06
794.50	229.03
794.82	229.01
795.14	228.97
795.47	228.95
795.79	228.85
796.11	228.78
796.43	228.72
796.75	228.68
797.07	228.65
797.39	228.60
797.71	228.50
798.04	228.48
798.36	228.47
798.68	228.41
799.00	228.38
799.32	228.28
799.64	228.24
799.96	228.20
800.28	228.20
800.60	228.18
800.92	228.13
801.24	228.05
801.56	228.05
801.89	228.01
802.21	227.98
802.53	227.97
802.85	227.95
803.17	227.92
803.49	227.83
803.81	227.81
804.13	227.75
804.45	227.71
804.77	227.64
805.09	227.60
805.41	227.55
805.73	227.47
806.05	227.43
806.37	227.42
806.69	227.38
807.01	227.33
807.33	227.28
807.65	227.20
807.97	227.23
808.28	227.17
808.60	227.13
808.92	227.09
809.24	227.13
809.56	227.08
809.88	227.04
810.20	227.06
810.52	227.07
810.84	227.05
811.16	227.01
811.48	227.01
811.80	226.98
812.12	226.95
812.43	226.96
812.75	226.92
813.07	226.85
813.39	226.85
813.71	226.82
814.03	226.79
814.35	226.76
814.67	226.68
814.98	226.64
815.30	226.62
815.62	226.59
815.94	226.48
816.26	226.53
816.58	226.51
816.89	226.49
817.21	226.37
817.53	226.39
817.85	226.40
818.17	226.38
818.48	226.36
818.80	226.37
819.12	226.33
819.44	226.33
819.76	226.29
820.07	226.26
820.39	226.25
820.71	226.28
821.03	226.30
821.34	226.30
821.66	226.30
821.98	226.31
822.30	226.31
822.61	226.36
822.93	226.28
823.25	226.29
823.57	226.27
823.88	226.33
824.20	226.31
824.52	226.29
824.83	226.28
825.15	226.25
825.47	226.26
825.79	226.28
826.10	226.25
826.42	226.26
826.74	226.27
827.05	226.25
827.37	226.25
827.69	226.19
828.00	226.18
828.32	226.20
828.64	226.17
828.95	226.20
829.27	226.18
829.58	226.19
829.90	226.21
830.22	226.20
830.53	226.19
830.85	226.16
831.17	226.12
831.48	226.11
831.80	226.13
832.11	226.12
832.43	226.09
832.75	226.11
833.06	226.19
833.38	226.14
833.69	226.14
834.01	226.13
834.32	226.17
834.64	226.18
834.96	226.16
835.27	226.14
835.59	226.11
835.90	226.09
836.22	226.07
836.53	226.04
836.85	226.03
837.16	226.10
837.48	226.07
837.79	226.11
838.11	226.15
838.42	226.14
838.74	226.14
839.05	226.14
839.37	226.10
839.68	226.03
840.00	226.05
840.31	226.06
840.63	226.04
840.94	226.02
841.26	225.99
841.57	225.97
841.88	225.97
842.20	225.94
842.51	225.91
842.83	225.92
843.14	226.01
843.46	225.98
843.77	225.93
844.08	225.95
844.40	225.91
844.71	225.86
845.03	225.80
845.34	225.76
845.65	225.76
845.97	225.76
846.28	225.77
846.60	225.77
846.91	225.75
847.22	225.76
847.54	225.75
847.85	225.75
848.16	225.76
848.48	225.75
848.79	225.78
849.10	225.79
849.42	225.75
849.73	225.65
850.04	225.65
850.36	225.59
850.67	225.59
850.98	225.56
851.30	225.57
851.61	225.55
851.92	225.56
852.23	225.58
852.55	225.56
852.86	225.52
853.17	225.50
853.49	225.52
853.80	225.54
854.11	225.53
854.42	225.52
854.74	225.47
855.05	225.45
855.36	225.38
855.67	225.40
855.99	225.38
856.30	225.46
856.61	225.46
856.92	225.47
857.23	225.48
857.55	225.48
857.86	225.45
858.17	225.49
858.48	225.45
858.79	225.38
859.11	225.37
859.42	225.36
859.73	225.35
860.04	225.31
860.35	225.25
860.66	225.23
860.98	225.20
861.29	225.21
861.60	225.23
861.91	225.24
862.22	225.20
862.53	225.22
862.84	225.10
863.16	225.11
863.47	225.08
863.78	225.05
864.09	225.04
864.40	225.03
864.71	225.01
865.02	225.06
865.33	225.04
865.64	225.04
865.95	225.04
866.27	225.14
866.58	225.11
866.89	225.13
867.20	225.14
867.51	225.16
867.82	225.12
868.13	225.17
868.44	225.16
868.75	225.20
869.06	225.15
869.37	225.15
869.68	225.10
869.99	225.12
870.30	225.14
870.61	225.17
870.92	225.16
871.23	225.19
871.54	225.20
871.85	225.24
872.16	225.27
872.47	225.26
872.78	225.19
873.09	225.19
873.40	225.18
873.71	225.16
874.02	225.18
874.33	225.20
874.64	225.18
874.95	225.22
875.26	225.17
875.56	225.21
875.87	225.23
876.18	225.29
876.49	225.38
876.80	225.36
877.11	225.33
877.42	225.38
877.73	225.39
878.04	225.33
878.35	225.36
878.66	225.38
878.96	225.41
879.27	225.40
879.58	225.40
879.89	225.42
880.20	225.48
880.51	225.47
880.82	225.46
881.12	225.47
881.43	225.44
881.74	225.43
882.05	225.42
882.36	225.43
882.67	225.41
882.97	225.33
883.28	225.33
883.59	225.35
883.90	225.33
884.21	225.33
884.51	225.34
884.82	225.30
885.13	225.29
885.44	225.27
885.74	225.23
886.05	225.26
886.36	225.27
886.67	225.24
886.98	225.30
887.28	225.33
887.59	225.32
887.90	225.29
888.20	225.34
888.51	225.35
888.82	225.31
889.13	225.31
889.43	225.39
889.74	225.37
890.05	225.39
890.35	225.39
890.66	225.38
890.97	225.36
891.28	225.39
891.58	225.38
891.89	225.37
892.20	225.40
892.50	225.36
892.81	225.31
893.12	225.28
893.42	225.23
893.73	225.20
894.04	225.20
894.34	225.23
894.65	225.16
894.95	225.13
895.26	225.12
895.57	225.16
895.87	225.06
896.18	225.06
896.48	225.06
896.79	225.04
897.10	225.04
897.40	225.03
897.71	225.04
898.01	225.00
898.32	225.02
898.63	225.02
898.93	225.04
899.24	225.04
899.54	225.02
899.85	224.97
900.15	224.98
900.46	224.97
900.76	224.98
901.07	225.02
901.38	225.03
901.68	225.08
901.99	225.06
902.29	225.07
902.60	225.06
902.90	225.01
903.21	225.00
903.51	225.02
903.82	225.07
904.12	225.06
904.43	225.05
904.73	225.06
905.03	225.05
905.34	225.12
905.64	225.09
905.95	225.11
906.25	225.12
906.56	225.14
906.86	225.12
907.17	225.10
907.47	225.08
907.77	225.07
908.08	225.02
908.38	225.00
908.69	225.01
908.99	225.02
909.30	225.07
909.60	225.07
909.90	225.04
910.21	224.98
910.51	224.96
910.81	224.99
911.12	224.97
911.42	224.96
911.73	224.88
912.03	224.94
912.33	225.00
912.64	225.01
912.94	224.96
913.24	224.96
913.55	224.96
913.85	224.95
914.15	224.98
914.46	225.00
914.76	225.00
915.06	225.01
915.37	225.01
915.67	225.01
915.97	225.00
916.27	224.97
916.58	224.97
916.88	224.93
917.18	224.92
917.49	224.99
917.79	224.96
918.09	224.95
918.39	224.92
918.70	224.89
919.00	224.88
919.30	224.93
919.60	224.94
919.91	224.90
920.21	224.92
920.51	224.86
920.81	224.85
921.12	224.84
921.42	224.81
921.72	224.81
922.02	224.78
922.32	224.79
922.63	224.83
922.93	224.90
923.23	224.95
923.53	224.92
923.83	224.84
924.13	224.86
924.44	224.84
924.74	224.86
925.04	224.85
925.34	224.87
925.64	224.80
925.94	224.78
926.24	224.86
926.55	224.85
926.85	224.92
927.15	224.91
927.45	224.90
927.75	224.91
928.05	224.92
928.35	224.91
928.65	224.92
928.95	224.90
929.26	224.86
929.56	224.84
929.86	224.90
930.16	224.92
930.46	224.94
930.76	224.99
931.06	224.93
931.36	224.91
931.66	224.89
931.96	224.91
932.26	224.93
932.56	224.86
932.86	224.85
933.16	224.83
933.46	224.82
933.76	224.80
934.06	224.82
934.36	224.81
934.66	224.81
934.96	224.80
935.26	224.81
935.56	224.80
935.86	224.79
936.16	224.75
936.46	224.73
936.76	224.71
937.06	224.66
937.36	224.68
937.66	224.67
937.96	224.71
938.26	224.70
938.56	224.68
938.86	224.72
939.16	224.74
939.46	224.74
939.76	224.73
940.06	224.75
940.35	224.71
940.65	224.70
940.95	224.73
941.25	224.70
941.55	224.73
941.85	224.70
942.15	224.73
942.45	224.76
942.75	224.77
943.04	224.79
943.34	224.83
943.64	224.82
943.94	224.84
944.24	224.83
944.54	224.82
944.84	224.83
945.13	224.79
945.43	224.78
945.73	224.77
946.03	224.80
946.33	224.81
946.62	224.82
946.92	224.82
947.22	224.82
947.52	224.86
947.82	224.84
948.11	224.86
948.41	224.86
948.71	224.83
949.01	224.81
949.31	224.77
949.60	224.78
949.90	224.82
950.20	224.83
950.50	224.81
950.79	224.84
951.09	224.87
951.39	224.88
951.69	224.87
951.98	224.87
952.28	224.88
952.58	224.87
952.87	224.83
953.17	224.84
953.47	224.86
953.76	224.83
954.06	224.85
954.36	224.84
954.66	224.83
954.95	224.85
955.25	224.87
955.55	224.92
955.84	224.84
956.14	224.83
956.44	224.82
956.73	224.82
957.03	224.78
957.32	224.76
957.62	224.77
957.92	224.80
958.21	224.83
958.51	224.91
958.81	224.92
959.10	224.93
959.40	224.97
959.69	224.96
959.99	224.96
960.29	224.93
960.58	224.93
960.88	224.95
961.17	224.92
961.47	224.93
961.76	224.87
962.06	224.91
962.36	224.91
962.65	224.90
962.95	224.88
963.24	224.91
963.54	224.89
963.83	224.89
964.13	224.86
964.42	224.81
964.72	224.74
965.01	224.74
965.31	224.78
965.60	224.73
965.90	224.79
966.19	224.76
966.49	224.75
966.78	224.73
967.08	224.71
967.37	224.72
967.67	224.70
967.96	224.74
968.26	224.72
968.55	224.74
968.85	224.73
969.14	224.71
969.43	224.70
969.73	224.69
970.02	224.66
970.32	224.66
970.61	224.64
970.91	224.60
971.20	224.59
971.49	224.56
971.79	224.56
972.08	224.47
972.38	224.47
972.67	224.46
972.96	224.50
973.26	224.46
973.55	224.51
973.85	224.49
974.14	224.47
974.43	224.47
974.73	224.46
975.02	224.49
975.31	224.55
975.61	224.53
975.90	224.54
976.19	224.57
976.49	224.61
976.78	224.63
977.07	224.65
977.37	224.68
977.66	224.70
977.95	224.68
978.24	224.70
978.54	224.74
978.83	224.75
979.12	224.73
979.42	224.76
979.71	224.75
980.00	224.76
980.29	224.80
980.59	224.81
980.88	224.83
981.17	224.81
981.46	224.81
981.76	224.82
982.05	224.87
982.34	224.90
982.63	224.89
982.93	224.89
983.22	224.94
983.51	224.93
983.80	224.97
984.09	225.00
984.39	225.01
984.68	225.02
984.97	225.05
985.26	225.06
985.55	225.08
985.85	225.05
986.14	225.05
986.43	225.06
986.72	225.10
987.01	225.07
987.30	225.09
987.59	225.08
987.89	225.07
988.18	225.06
988.47	225.01
988.76	224.99
989.05	225.00
989.34	224.97
989.63	225.00
989.92	224.96
990.22	224.97
990.51	224.96
990.80	224.95
991.09	224.97
991.38	224.95
991.67	224.95
991.96	224.93
992.25	224.97
992.54	224.92
992.83	224.88
993.12	224.87
993.41	224.89
993.70	224.91
993.99	224.95
994.28	224.94
994.58	224.99
994.87	224.98
995.16	224.94
995.45	224.91
995.74	224.86
996.03	224.88
996.32	224.86
996.61	224.84
996.90	224.82
997.19	224.78
997.48	224.77
997.77	224.75
998.06	224.75
998.34	224.74
998.63	224.75
998.92	224.76
999.21	224.81
999.50	224.81
999.79	224.77
1000.08	224.76
1000.37	224.77
1000.66	224.71
1000.95	224.73
1001.24	224.76
1001.53	224.75
1001.82	224.76
1002.11	224.73
1002.40	224.76
1002.68	224.83
1002.97	224.90
1003.26	224.92
1003.55	224.91
1003.84	224.93
1004.13	224.95
1004.42	224.92
1004.71	224.93
1004.99	224.91
1005.28	224.90
1005.57	224.86
1005.86	224.86
1006.15	224.84
1006.44	224.81
1006.72	224.84
1007.01	224.81
1007.30	224.82
1007.59	224.80
1007.88	224.78
1008.17	224.79
1008.45	224.76
1008.74	224.71
1009.03	224.64
1009.32	224.60
1009.60	224.64
1009.89	224.63
1010.18	224.59
1010.47	224.60
1010.76	224.58
1011.04	224.58
1011.33	224.61
1011.62	224.62
1011.91	224.62
1012.19	224.63
1012.48	224.62
1012.77	224.61
1013.05	224.66
1013.34	224.65
1013.63	224.68
1013.92	224.72
1014.20	224.72
1014.49	224.71
1014.78	224.69
1015.06	224.67
1015.35	224.68
1015.64	224.65
1015.92	224.65
1016.21	224.68
1016.50	224.68
1016.78	224.70
1017.07	224.71
1017.36	224.65
1017.64	224.66
1017.93	224.70
1018.22	224.73
1018.50	224.76
1018.79	224.77
1019.08	224.74
1019.36	224.76
1019.65	224.75
1019.93	224.77
1020.22	224.77
1020.51	224.84
1020.79	224.86
1021.08	225.32
1021.36	225.01
1021.65	224.55
1021.94	225.05
1022.22	225.08
1022.51	224.55
1022.79	225.31
1023.08	224.57
1023.36	226.03
1023.65	224.92
>>>>>End Processed Spectral Data<<<<<
