SpectraSuite Data File
++++++++++++++++++++++++++++++++++++
Date: Fri Feb 01 16:15:16 EST 2013
User: group
Dark Spectrum Present: No
Reference Spectrum Present: No
Number of Sampled Component Spectra: 1
Spectrometers: USB2E7196
Integration Time (usec): 35000 (USB2E7196)
Spectra Averaged: 100 (USB2E7196)
Boxcar Smoothing: 10 (USB2E7196)
Correct for Electrical Dark: No (USB2E7196)
Strobe/Lamp Enabled: No (USB2E7196)
Correct for Detector Non-linearity: No (USB2E7196)
Correct for Stray Light: No (USB2E7196)
Number of Pixels in Processed Spectrum: 2048
>>>>>Begin Processed Spectral Data<<<<<
339.09	0.00
339.48	214.24
339.86	215.26
340.24	216.88
340.63	218.38
341.01	221.80
341.39	221.52
341.78	222.28
342.16	224.13
342.54	224.06
342.93	212.71
343.31	223.46
343.69	223.99
344.07	224.49
344.46	224.92
344.84	225.29
345.22	225.51
345.60	225.74
345.99	225.93
346.37	226.04
346.75	226.15
347.13	226.19
347.52	226.25
347.90	226.36
348.28	226.37
348.66	226.40
349.05	226.39
349.43	226.41
349.81	226.48
350.19	226.54
350.57	226.61
350.96	226.69
351.34	226.74
351.72	226.81
352.10	226.88
352.48	226.97
352.87	227.03
353.25	227.09
353.63	227.17
354.01	227.23
354.39	227.30
354.77	227.39
355.15	227.48
355.54	227.54
355.92	227.57
356.30	227.63
356.68	227.83
357.06	227.90
357.44	227.97
357.82	228.02
358.20	228.10
358.58	228.16
358.97	228.19
359.35	228.28
359.73	228.37
360.11	228.44
360.49	228.46
360.87	228.52
361.25	228.58
361.63	228.67
362.01	228.73
362.39	228.77
362.77	228.80
363.15	228.79
363.53	228.82
363.91	228.80
364.29	228.81
364.67	228.71
365.05	228.72
365.43	228.74
365.81	228.73
366.19	228.75
366.57	228.79
366.95	228.79
367.33	228.80
367.71	228.76
368.09	228.79
368.47	228.80
368.85	228.79
369.23	228.77
369.61	228.67
369.99	228.67
370.37	228.64
370.75	228.63
371.13	228.61
371.51	228.58
371.89	228.54
372.27	228.49
372.65	228.45
373.03	228.39
373.41	228.30
373.78	228.22
374.16	228.13
374.54	228.06
374.92	228.01
375.30	227.92
375.68	227.88
376.06	227.78
376.44	227.72
376.82	227.62
377.19	227.56
377.57	227.51
377.95	227.41
378.33	227.37
378.71	227.26
379.09	227.22
379.47	227.15
379.84	227.10
380.22	227.00
380.60	226.93
380.98	226.90
381.36	226.87
381.73	226.83
382.11	226.78
382.49	226.70
382.87	226.62
383.25	226.57
383.62	226.60
384.00	226.54
384.38	226.44
384.76	226.44
385.13	226.45
385.51	226.40
385.89	226.37
386.27	226.31
386.64	226.28
387.02	226.23
387.40	226.17
387.78	226.12
388.15	226.12
388.53	226.08
388.91	226.02
389.29	226.02
389.66	225.98
390.04	225.94
390.42	225.92
390.79	225.92
391.17	225.89
391.55	225.77
391.92	225.76
392.30	225.80
392.68	225.75
393.05	225.69
393.43	225.70
393.81	225.70
394.18	225.67
394.56	225.71
394.94	225.74
395.31	225.74
395.69	225.82
396.06	225.84
396.44	225.85
396.82	225.86
397.19	225.90
397.57	225.94
397.95	226.01
398.32	226.02
398.70	226.07
399.07	226.16
399.45	226.23
399.82	226.28
400.20	226.34
400.58	226.41
400.95	226.49
401.33	226.59
401.70	226.72
402.08	226.83
402.45	226.90
402.83	227.00
403.20	227.13
403.58	227.22
403.95	227.34
404.33	227.49
404.71	227.63
405.08	227.78
405.46	227.92
405.83	228.05
406.21	228.20
406.58	228.34
406.96	228.50
407.33	228.65
407.70	228.85
408.08	229.10
408.45	229.32
408.83	229.53
409.20	229.72
409.58	229.92
409.95	230.17
410.33	230.46
410.70	230.69
411.08	231.00
411.45	231.28
411.82	231.59
412.20	231.94
412.57	232.37
412.95	232.68
413.32	233.09
413.69	233.50
414.07	233.95
414.44	234.40
414.82	234.88
415.19	235.47
415.56	236.02
415.94	236.57
416.31	237.20
416.68	237.82
417.06	238.54
417.43	239.19
417.81	239.92
418.18	240.67
418.55	241.52
418.93	242.36
419.30	243.28
419.67	244.24
420.04	245.21
420.42	246.21
420.79	247.39
421.16	248.52
421.54	249.74
421.91	250.92
422.28	252.19
422.66	253.54
423.03	254.83
423.40	256.14
423.77	257.56
424.15	258.97
424.52	260.49
424.89	262.08
425.26	263.65
425.64	265.14
426.01	266.74
426.38	268.42
426.75	270.11
427.13	271.84
427.50	273.62
427.87	275.48
428.24	277.29
428.61	279.03
428.99	280.98
429.36	283.04
429.73	285.17
430.10	287.17
430.47	289.21
430.85	291.33
431.22	293.55
431.59	295.89
431.96	298.16
432.33	300.66
432.70	303.07
433.08	305.87
433.45	308.52
433.82	311.12
434.19	313.94
434.56	316.73
434.93	319.37
435.30	322.00
435.68	324.87
436.05	327.67
436.42	330.47
436.79	332.94
437.16	335.61
437.53	338.42
437.90	341.24
438.27	343.96
438.64	346.79
439.01	349.43
439.38	351.68
439.75	353.86
440.13	356.27
440.50	358.53
440.87	360.33
441.24	362.23
441.61	364.37
441.98	365.87
442.35	367.65
442.72	369.48
443.09	371.26
443.46	372.21
443.83	372.81
444.20	373.30
444.57	374.21
444.94	374.51
445.31	374.86
445.68	375.17
446.05	375.26
446.42	374.86
446.79	374.43
447.16	373.97
447.53	373.66
447.90	372.49
448.27	371.35
448.64	369.79
449.01	368.66
449.37	366.71
449.74	364.84
450.11	362.62
450.48	360.16
450.85	357.65
451.22	355.54
451.59	353.53
451.96	351.61
452.33	348.97
452.70	346.63
453.07	343.77
453.43	340.94
453.80	338.17
454.17	335.49
454.54	332.88
454.91	330.18
455.28	327.49
455.65	325.03
456.02	322.65
456.38	320.54
456.75	317.91
457.12	315.65
457.49	313.41
457.86	311.25
458.23	309.39
458.59	307.38
458.96	305.31
459.33	303.47
459.70	301.59
460.07	300.11
460.43	298.38
460.80	296.78
461.17	295.31
461.54	293.81
461.91	292.42
462.27	291.03
462.64	289.77
463.01	288.42
463.38	287.13
463.74	285.74
464.11	284.53
464.48	283.45
464.85	282.35
465.21	281.49
465.58	280.56
465.95	279.50
466.32	278.56
466.68	277.65
467.05	276.74
467.42	275.83
467.78	274.89
468.15	274.00
468.52	273.34
468.88	272.49
469.25	271.75
469.62	271.13
469.98	270.45
470.35	269.81
470.72	269.22
471.08	268.55
471.45	268.00
471.82	267.50
472.18	266.96
472.55	266.50
472.92	265.97
473.28	265.51
473.65	265.08
474.02	264.70
474.38	264.35
474.75	264.03
475.11	263.73
475.48	263.48
475.85	263.29
476.21	263.08
476.58	262.91
476.94	262.78
477.31	262.58
477.67	262.46
478.04	262.40
478.41	262.38
478.77	262.45
479.14	262.42
479.50	262.42
479.87	262.48
480.23	262.58
480.60	262.68
480.96	262.79
481.33	263.01
481.69	263.20
482.06	263.40
482.42	263.60
482.79	263.87
483.15	264.17
483.52	264.53
483.88	264.91
484.25	265.27
484.61	265.68
484.98	266.15
485.34	266.68
485.71	267.24
486.07	267.81
486.44	268.42
486.80	269.11
487.17	269.81
487.53	270.65
487.90	271.52
488.26	272.42
488.62	273.44
488.99	274.38
489.35	275.40
489.72	276.53
490.08	277.75
490.44	279.00
490.81	280.36
491.17	281.75
491.54	283.23
491.90	284.79
492.26	286.45
492.63	288.18
492.99	289.97
493.36	291.91
493.72	293.96
494.08	296.01
494.45	298.27
494.81	300.66
495.17	303.08
495.54	305.61
495.90	308.31
496.26	311.05
496.63	314.02
496.99	317.16
497.35	320.41
497.72	323.85
498.08	327.38
498.44	331.04
498.80	334.93
499.17	338.89
499.53	343.06
499.89	347.50
500.26	352.02
500.62	356.71
500.98	361.66
501.34	366.74
501.71	372.09
502.07	377.53
502.43	383.14
502.79	389.03
503.16	395.07
503.52	401.41
503.88	407.86
504.24	414.52
504.60	421.41
504.97	428.52
505.33	435.80
505.69	443.49
506.05	451.21
506.41	459.12
506.78	467.38
507.14	475.90
507.50	484.54
507.86	493.54
508.22	502.72
508.59	511.94
508.95	521.55
509.31	531.37
509.67	541.47
510.03	551.76
510.39	562.20
510.75	573.08
511.12	583.95
511.48	595.26
511.84	606.71
512.20	618.17
512.56	630.15
512.92	642.36
513.28	654.75
513.64	667.25
514.00	679.93
514.37	692.82
514.73	705.83
515.09	718.91
515.45	732.17
515.81	745.77
516.17	759.75
516.53	773.87
516.89	788.03
517.25	802.16
517.61	816.55
517.97	831.08
518.33	845.44
518.69	860.17
519.05	875.09
519.41	890.26
519.77	905.77
520.13	921.15
520.49	936.48
520.85	951.85
521.21	967.53
521.57	983.72
521.93	999.44
522.29	1015.84
522.65	1031.92
523.01	1048.14
523.37	1064.10
523.73	1080.14
524.09	1096.10
524.45	1112.42
524.81	1129.08
525.17	1145.88
525.53	1162.67
525.89	1179.49
526.25	1196.32
526.61	1212.67
526.97	1229.44
527.33	1245.88
527.68	1262.42
528.04	1278.85
528.40	1295.30
528.76	1312.36
529.12	1328.85
529.48	1345.68
529.84	1361.57
530.20	1378.34
530.56	1395.23
530.91	1412.59
531.27	1429.40
531.63	1445.80
531.99	1462.25
532.35	1478.08
532.71	1493.89
533.07	1510.06
533.42	1525.95
533.78	1541.93
534.14	1558.10
534.50	1573.19
534.86	1588.99
535.21	1604.17
535.57	1619.98
535.93	1635.55
536.29	1650.24
536.65	1665.23
537.00	1679.89
537.36	1695.22
537.72	1709.55
538.08	1723.87
538.44	1737.67
538.79	1751.39
539.15	1764.98
539.51	1778.79
539.87	1793.15
540.22	1806.93
540.58	1820.56
540.94	1833.71
541.29	1846.49
541.65	1859.11
542.01	1872.30
542.37	1884.62
542.72	1896.87
543.08	1908.63
543.44	1920.98
543.79	1932.10
544.15	1943.04
544.51	1954.65
544.87	1965.49
545.22	1976.25
545.58	1986.50
545.94	1996.07
546.29	2005.81
546.65	2015.74
547.01	2024.85
547.36	2033.44
547.72	2041.83
548.07	2049.72
548.43	2057.87
548.79	2065.83
549.14	2073.34
549.50	2080.54
549.86	2088.10
550.21	2095.49
550.57	2102.55
550.92	2108.96
551.28	2115.99
551.64	2122.91
551.99	2129.23
552.35	2135.32
552.70	2141.39
553.06	2147.40
553.41	2153.73
553.77	2159.87
554.13	2165.81
554.48	2171.95
554.84	2177.48
555.19	2182.64
555.55	2187.79
555.90	2192.36
556.26	2197.24
556.61	2202.01
556.97	2206.48
557.32	2210.58
557.68	2214.75
558.03	2219.10
558.39	2222.80
558.74	2227.48
559.10	2231.52
559.45	2235.31
559.81	2239.65
560.16	2243.53
560.52	2246.73
560.87	2250.24
561.23	2252.78
561.58	2255.81
561.94	2258.29
562.29	2260.62
562.64	2263.40
563.00	2266.12
563.35	2269.58
563.71	2272.69
564.06	2275.96
564.42	2278.75
564.77	2281.31
565.12	2283.44
565.48	2285.40
565.83	2287.36
566.19	2288.79
566.54	2289.70
566.89	2290.76
567.25	2291.38
567.60	2292.75
567.96	2294.44
568.31	2295.23
568.66	2296.42
569.02	2296.97
569.37	2297.36
569.72	2298.30
570.08	2298.48
570.43	2298.44
570.78	2297.89
571.14	2296.45
571.49	2295.05
571.84	2294.73
572.20	2293.76
572.55	2292.82
572.90	2291.11
573.26	2289.79
573.61	2288.09
573.96	2286.45
574.31	2283.73
574.67	2280.71
575.02	2277.02
575.37	2273.62
575.72	2269.91
576.08	2266.59
576.43	2263.32
576.78	2259.71
577.13	2256.45
577.49	2253.32
577.84	2249.93
578.19	2246.29
578.54	2242.71
578.90	2238.50
579.25	2233.02
579.60	2228.20
579.95	2223.16
580.30	2218.32
580.66	2213.17
581.01	2208.09
581.36	2203.23
581.71	2198.99
582.06	2194.71
582.42	2190.41
582.77	2185.35
583.12	2180.95
583.47	2176.34
583.82	2171.35
584.17	2166.16
584.53	2160.74
584.88	2155.10
585.23	2149.30
585.58	2143.82
585.93	2138.36
586.28	2133.69
586.63	2128.76
586.98	2123.63
587.34	2118.94
587.69	2113.97
588.04	2108.73
588.39	2103.19
588.74	2096.64
589.09	2090.55
589.44	2083.75
589.79	2077.62
590.14	2071.99
590.49	2065.26
590.84	2058.90
591.19	2053.00
591.54	2046.45
591.89	2039.16
592.25	2032.39
592.60	2025.17
592.95	2017.64
593.30	2010.32
593.65	2002.78
594.00	1995.58
594.35	1988.18
594.70	1980.23
595.05	1973.19
595.40	1965.91
595.75	1958.45
596.10	1952.39
596.45	1945.66
596.80	1939.60
597.15	1933.11
597.50	1925.93
597.85	1919.52
598.19	1912.90
598.54	1905.71
598.89	1899.28
599.24	1893.40
599.59	1886.81
599.94	1880.72
600.29	1874.37
600.64	1867.91
600.99	1860.45
601.34	1853.75
601.69	1846.84
602.04	1840.00
602.39	1832.56
602.74	1825.73
603.08	1819.03
603.43	1812.35
603.78	1805.09
604.13	1797.82
604.48	1790.50
604.83	1783.66
605.18	1776.87
605.53	1768.95
605.87	1760.97
606.22	1753.54
606.57	1745.55
606.92	1738.18
607.27	1731.08
607.62	1724.24
607.96	1716.96
608.31	1710.45
608.66	1702.87
609.01	1695.40
609.36	1687.90
609.70	1679.99
610.05	1672.04
610.40	1664.40
610.75	1655.84
611.10	1648.13
611.44	1639.66
611.79	1631.61
612.14	1622.98
612.49	1613.73
612.83	1605.31
613.18	1597.19
613.53	1589.13
613.88	1580.57
614.22	1572.40
614.57	1563.61
614.92	1555.65
615.27	1548.04
615.61	1539.64
615.96	1531.55
616.31	1523.89
616.65	1516.48
617.00	1508.84
617.35	1501.05
617.70	1492.65
618.04	1484.38
618.39	1476.21
618.74	1468.71
619.08	1460.42
619.43	1452.92
619.78	1445.92
620.12	1438.74
620.47	1431.28
620.82	1423.18
621.16	1415.75
621.51	1408.10
621.85	1400.61
622.20	1392.01
622.55	1383.58
622.89	1375.83
623.24	1368.28
623.59	1360.89
623.93	1353.39
624.28	1346.31
624.62	1338.84
624.97	1331.67
625.32	1324.71
625.66	1317.62
626.01	1310.40
626.35	1303.04
626.70	1295.27
627.04	1287.58
627.39	1279.79
627.73	1272.41
628.08	1265.43
628.43	1258.30
628.77	1250.95
629.12	1243.38
629.46	1236.19
629.81	1228.77
630.15	1221.45
630.50	1213.95
630.84	1205.78
631.19	1197.96
631.53	1190.37
631.88	1182.86
632.22	1175.13
632.57	1167.88
632.91	1160.36
633.26	1152.83
633.60	1145.41
633.95	1138.26
634.29	1131.18
634.64	1124.45
634.98	1117.07
635.32	1109.95
635.67	1103.24
636.01	1096.52
636.36	1089.71
636.70	1083.15
637.05	1076.55
637.39	1070.10
637.73	1063.63
638.08	1057.70
638.42	1051.61
638.77	1045.18
639.11	1038.55
639.45	1032.37
639.80	1025.70
640.14	1019.28
640.49	1012.85
640.83	1006.54
641.17	1000.37
641.52	994.05
641.86	987.60
642.20	981.73
642.55	975.46
642.89	969.01
643.23	962.42
643.58	956.64
643.92	950.51
644.26	944.57
644.61	938.54
644.95	932.56
645.29	925.99
645.64	919.27
645.98	912.90
646.32	907.04
646.66	900.86
647.01	895.13
647.35	889.42
647.69	883.57
648.04	878.04
648.38	872.26
648.72	866.29
649.06	860.26
649.41	854.43
649.75	848.42
650.09	842.51
650.43	836.80
650.78	830.68
651.12	824.71
651.46	818.91
651.80	813.12
652.14	807.71
652.49	802.37
652.83	797.22
653.17	791.55
653.51	785.87
653.85	780.53
654.20	774.83
654.54	768.79
654.88	763.08
655.22	757.16
655.56	751.44
655.90	745.94
656.25	740.75
656.59	735.33
656.93	730.26
657.27	725.07
657.61	719.70
657.95	714.64
658.29	709.53
658.64	704.25
658.98	698.96
659.32	693.45
659.66	688.30
660.00	682.95
660.34	678.05
660.68	673.13
661.02	668.09
661.36	663.40
661.70	658.95
662.05	654.55
662.39	650.27
662.73	645.78
663.07	641.45
663.41	636.92
663.75	632.44
664.09	627.97
664.43	623.55
664.77	619.42
665.11	615.13
665.45	611.02
665.79	606.98
666.13	602.88
666.47	598.86
666.81	594.64
667.15	590.51
667.49	586.53
667.83	582.66
668.17	578.69
668.51	574.63
668.85	570.61
669.19	566.71
669.53	562.85
669.87	559.01
670.21	555.31
670.55	551.73
670.89	548.30
671.23	544.73
671.57	541.21
671.91	537.60
672.25	534.07
672.58	530.56
672.92	527.13
673.26	523.91
673.60	520.77
673.94	517.60
674.28	514.69
674.62	511.73
674.96	508.70
675.30	505.78
675.64	502.80
675.97	499.95
676.31	497.13
676.65	494.21
676.99	491.47
677.33	488.59
677.67	485.71
678.01	482.64
678.34	479.71
678.68	476.85
679.02	474.06
679.36	471.29
679.70	468.56
680.04	465.81
680.37	462.94
680.71	460.07
681.05	457.45
681.39	454.75
681.73	452.13
682.06	449.57
682.40	447.03
682.74	444.55
683.08	442.03
683.42	439.40
683.75	436.87
684.09	434.31
684.43	431.85
684.77	429.39
685.10	427.03
685.44	424.72
685.78	422.38
686.12	420.08
686.45	417.73
686.79	415.40
687.13	413.22
687.46	411.01
687.80	408.90
688.14	406.69
688.48	404.60
688.81	402.30
689.15	400.17
689.49	398.04
689.82	395.93
690.16	393.79
690.50	391.83
690.83	389.93
691.17	387.94
691.51	386.04
691.84	384.22
692.18	382.30
692.52	380.30
692.85	378.37
693.19	376.50
693.52	374.67
693.86	372.86
694.20	371.05
694.53	369.28
694.87	367.39
695.21	365.63
695.54	363.82
695.88	362.15
696.21	360.43
696.55	358.70
696.88	357.01
697.22	355.38
697.56	353.82
697.89	352.14
698.23	350.55
698.56	348.90
698.90	347.30
699.23	345.68
699.57	344.14
699.90	342.64
700.24	341.08
700.58	339.54
700.91	338.06
701.25	336.64
701.58	335.29
701.92	333.98
702.25	332.59
702.59	331.23
702.92	329.88
703.26	328.55
703.59	327.31
703.93	326.16
704.26	324.90
704.60	323.59
704.93	322.32
705.26	321.08
705.60	319.88
705.93	318.74
706.27	317.71
706.60	316.68
706.94	315.60
707.27	314.49
707.61	313.45
707.94	312.43
708.27	311.30
708.61	310.22
708.94	309.16
709.28	308.17
709.61	307.20
709.94	306.24
710.28	305.20
710.61	304.21
710.95	303.10
711.28	302.21
711.61	301.23
711.95	300.32
712.28	299.37
712.61	298.42
712.95	297.47
713.28	296.61
713.61	295.66
713.95	294.79
714.28	293.98
714.61	293.14
714.95	292.28
715.28	291.46
715.61	290.59
715.95	289.74
716.28	288.88
716.61	288.08
716.95	287.27
717.28	286.53
717.61	285.74
717.94	285.00
718.28	284.20
718.61	283.50
718.94	282.80
719.27	282.16
719.61	281.56
719.94	280.88
720.27	280.14
720.60	279.49
720.94	278.83
721.27	278.20
721.60	277.59
721.93	277.00
722.27	276.44
722.60	275.91
722.93	275.36
723.26	274.82
723.59	274.22
723.93	273.66
724.26	273.10
724.59	272.58
724.92	272.09
725.25	271.59
725.59	271.02
725.92	270.55
726.25	270.03
726.58	269.50
726.91	269.01
727.24	268.52
727.57	268.02
727.91	267.54
728.24	267.07
728.57	266.58
728.90	266.14
729.23	265.65
729.56	265.18
729.89	264.71
730.22	264.23
730.55	263.76
730.89	263.32
731.22	262.89
731.55	262.45
731.88	262.00
732.21	261.58
732.54	261.19
732.87	260.74
733.20	260.34
733.53	259.97
733.86	259.61
734.19	259.21
734.52	258.85
734.85	258.53
735.18	258.14
735.51	257.80
735.84	257.40
736.17	257.07
736.50	256.66
736.83	256.46
737.16	256.08
737.49	255.78
737.82	255.43
738.15	255.11
738.48	254.76
738.81	254.43
739.14	254.07
739.47	253.75
739.80	253.42
740.13	253.09
740.46	252.72
740.79	252.36
741.12	252.05
741.45	251.73
741.78	251.36
742.11	251.03
742.44	250.65
742.77	250.38
743.10	250.03
743.43	249.76
743.75	249.34
744.08	249.24
744.41	248.95
744.74	248.67
745.07	248.38
745.40	248.17
745.73	247.92
746.06	247.64
746.39	247.34
746.71	247.08
747.04	246.84
747.37	246.60
747.70	246.36
748.03	246.08
748.36	245.84
748.68	245.63
749.01	245.38
749.34	245.18
749.67	244.95
750.00	244.72
750.33	244.56
750.65	244.31
750.98	243.95
751.31	243.70
751.64	243.48
751.97	243.33
752.29	243.06
752.62	242.79
752.95	242.61
753.28	242.42
753.60	242.19
753.93	241.99
754.26	241.80
754.59	241.58
754.91	241.41
755.24	241.23
755.57	241.07
755.90	240.88
756.22	240.68
756.55	240.47
756.88	240.27
757.20	240.04
757.53	239.89
757.86	239.73
758.19	239.60
758.51	239.44
758.84	239.22
759.17	239.06
759.49	238.92
759.82	238.78
760.15	238.63
760.47	238.53
760.80	238.34
761.13	238.20
761.45	238.05
761.78	237.89
762.11	237.73
762.43	237.56
762.76	237.45
763.08	237.36
763.41	237.22
763.74	237.12
764.06	236.96
764.39	236.80
764.71	236.67
765.04	236.52
765.37	236.38
765.69	236.23
766.02	236.15
766.34	236.04
766.67	235.88
767.00	235.80
767.32	235.71
767.65	235.73
767.97	235.62
768.30	235.54
768.62	235.43
768.95	235.31
769.27	235.19
769.60	235.10
769.92	234.97
770.25	234.88
770.57	234.77
770.90	234.70
771.22	234.60
771.55	234.52
771.87	234.46
772.20	234.40
772.52	234.42
772.85	234.42
773.17	234.33
773.50	234.26
773.82	234.16
774.15	234.01
774.47	233.83
774.80	233.75
775.12	233.65
775.45	233.60
775.77	233.54
776.09	233.49
776.42	233.41
776.74	233.35
777.07	233.27
777.39	233.17
777.72	233.10
778.04	233.05
778.36	232.97
778.69	232.91
779.01	232.82
779.33	232.64
779.66	232.44
779.98	232.37
780.31	232.29
780.63	232.28
780.95	232.27
781.28	232.20
781.60	232.10
781.92	232.03
782.25	231.94
782.57	231.87
782.89	231.81
783.22	231.75
783.54	231.70
783.86	231.64
784.19	231.62
784.51	231.56
784.83	231.51
785.16	231.44
785.48	231.38
785.80	231.35
786.12	231.32
786.45	231.34
786.77	231.28
787.09	231.23
787.42	231.14
787.74	231.07
788.06	231.02
788.38	231.00
788.71	230.96
789.03	230.93
789.35	230.91
789.67	230.81
789.99	230.76
790.32	230.68
790.64	230.65
790.96	230.66
791.28	230.60
791.61	230.54
791.93	230.50
792.25	230.46
792.57	230.50
792.89	230.41
793.21	230.33
793.54	230.28
793.86	230.26
794.18	230.20
794.50	230.15
794.82	230.10
795.14	230.05
795.47	230.04
795.79	230.01
796.11	229.94
796.43	229.93
796.75	229.91
797.07	229.89
797.39	229.83
797.71	229.73
798.04	229.69
798.36	229.65
798.68	229.60
799.00	229.54
799.32	229.43
799.64	229.43
799.96	229.41
800.28	229.43
800.60	229.37
800.92	229.35
801.24	229.30
801.56	229.28
801.89	229.24
802.21	229.23
802.53	229.16
802.85	229.15
803.17	229.16
803.49	229.08
803.81	229.04
804.13	229.01
804.45	228.95
804.77	228.92
805.09	228.89
805.41	228.85
805.73	228.79
806.05	228.75
806.37	228.72
806.69	228.66
807.01	228.60
807.33	228.58
807.65	228.54
807.97	228.55
808.28	228.51
808.60	228.48
808.92	228.40
809.24	228.44
809.56	228.38
809.88	228.31
810.20	228.28
810.52	228.30
810.84	228.26
811.16	228.26
811.48	228.23
811.80	228.27
812.12	228.23
812.43	228.27
812.75	228.22
813.07	228.19
813.39	228.16
813.71	228.15
814.03	228.13
814.35	228.08
814.67	228.00
814.98	228.00
815.30	227.96
815.62	227.95
815.94	227.87
816.26	227.94
816.58	227.90
816.89	227.91
817.21	227.83
817.53	227.84
817.85	227.80
818.17	227.78
818.48	227.73
818.80	227.76
819.12	227.70
819.44	227.70
819.76	227.67
820.07	227.68
820.39	227.65
820.71	227.66
821.03	227.66
821.34	227.66
821.66	227.67
821.98	227.67
822.30	227.65
822.61	227.70
822.93	227.60
823.25	227.61
823.57	227.57
823.88	227.61
824.20	227.57
824.52	227.59
824.83	227.56
825.15	227.50
825.47	227.48
825.79	227.48
826.10	227.47
826.42	227.46
826.74	227.46
827.05	227.46
827.37	227.47
827.69	227.47
828.00	227.46
828.32	227.45
828.64	227.46
828.95	227.49
829.27	227.46
829.58	227.46
829.90	227.49
830.22	227.50
830.53	227.45
830.85	227.44
831.17	227.40
831.48	227.41
831.80	227.43
832.11	227.42
832.43	227.41
832.75	227.38
833.06	227.44
833.38	227.38
833.69	227.36
834.01	227.32
834.32	227.29
834.64	227.28
834.96	227.25
835.27	227.22
835.59	227.19
835.90	227.17
836.22	227.18
836.53	227.12
836.85	227.11
837.16	227.24
837.48	227.23
837.79	227.28
838.11	227.25
838.42	227.27
838.74	227.26
839.05	227.25
839.37	227.24
839.68	227.16
840.00	227.20
840.31	227.23
840.63	227.22
840.94	227.19
841.26	227.21
841.57	227.20
841.88	227.20
842.20	227.15
842.51	227.15
842.83	227.15
843.14	227.20
843.46	227.20
843.77	227.13
844.08	227.13
844.40	227.08
844.71	227.07
845.03	227.03
845.34	227.01
845.65	226.99
845.97	227.00
846.28	227.03
846.60	227.00
846.91	226.96
847.22	226.96
847.54	226.97
847.85	226.94
848.16	226.93
848.48	226.90
848.79	226.97
849.10	226.94
849.42	226.90
849.73	226.83
850.04	226.81
850.36	226.76
850.67	226.76
850.98	226.76
851.30	226.79
851.61	226.79
851.92	226.78
852.23	226.80
852.55	226.79
852.86	226.77
853.17	226.77
853.49	226.77
853.80	226.79
854.11	226.83
854.42	226.86
854.74	226.85
855.05	226.86
855.36	226.80
855.67	226.80
855.99	226.83
856.30	226.95
856.61	226.97
856.92	226.97
857.23	226.95
857.55	226.95
857.86	226.90
858.17	226.92
858.48	226.91
858.79	226.90
859.11	226.94
859.42	226.94
859.73	226.94
860.04	226.95
860.35	226.88
860.66	226.84
860.98	226.83
861.29	226.83
861.60	226.84
861.91	226.85
862.22	226.86
862.53	226.83
862.84	226.70
863.16	226.68
863.47	226.68
863.78	226.70
864.09	226.71
864.40	226.75
864.71	226.73
865.02	226.74
865.33	226.72
865.64	226.67
865.95	226.67
866.27	226.74
866.58	226.72
866.89	226.76
867.20	226.77
867.51	226.72
867.82	226.72
868.13	226.75
868.44	226.74
868.75	226.75
869.06	226.76
869.37	226.79
869.68	226.75
869.99	226.77
870.30	226.78
870.61	226.78
870.92	226.78
871.23	226.76
871.54	226.75
871.85	226.79
872.16	226.80
872.47	226.78
872.78	226.72
873.09	226.71
873.40	226.73
873.71	226.69
874.02	226.71
874.33	226.68
874.64	226.64
874.95	226.63
875.26	226.59
875.56	226.59
875.87	226.56
876.18	226.59
876.49	226.66
876.80	226.61
877.11	226.58
877.42	226.58
877.73	226.57
878.04	226.58
878.35	226.57
878.66	226.57
878.96	226.54
879.27	226.51
879.58	226.49
879.89	226.47
880.20	226.53
880.51	226.51
880.82	226.51
881.12	226.52
881.43	226.50
881.74	226.50
882.05	226.46
882.36	226.49
882.67	226.48
882.97	226.40
883.28	226.42
883.59	226.40
883.90	226.38
884.21	226.39
884.51	226.34
884.82	226.30
885.13	226.30
885.44	226.29
885.74	226.26
886.05	226.30
886.36	226.29
886.67	226.25
886.98	226.29
887.28	226.31
887.59	226.33
887.90	226.32
888.20	226.32
888.51	226.34
888.82	226.29
889.13	226.29
889.43	226.34
889.74	226.34
890.05	226.34
890.35	226.35
890.66	226.35
890.97	226.40
891.28	226.42
891.58	226.39
891.89	226.39
892.20	226.42
892.50	226.41
892.81	226.41
893.12	226.38
893.42	226.33
893.73	226.32
894.04	226.28
894.34	226.30
894.65	226.32
894.95	226.30
895.26	226.35
895.57	226.38
895.87	226.33
896.18	226.36
896.48	226.39
896.79	226.39
897.10	226.41
897.40	226.40
897.71	226.38
898.01	226.40
898.32	226.45
898.63	226.44
898.93	226.43
899.24	226.45
899.54	226.47
899.85	226.49
900.15	226.55
900.46	226.55
900.76	226.56
901.07	226.54
901.38	226.57
901.68	226.56
901.99	226.54
902.29	226.51
902.60	226.53
902.90	226.54
903.21	226.56
903.51	226.57
903.82	226.59
904.12	226.62
904.43	226.64
904.73	226.63
905.03	226.65
905.34	226.78
905.64	226.78
905.95	226.78
906.25	226.79
906.56	226.74
906.86	226.75
907.17	226.75
907.47	226.81
907.77	226.78
908.08	226.77
908.38	226.75
908.69	226.78
908.99	226.78
909.30	226.73
909.60	226.72
909.90	226.72
910.21	226.68
910.51	226.66
910.81	226.68
911.12	226.66
911.42	226.67
911.73	226.54
912.03	226.53
912.33	226.55
912.64	226.56
912.94	226.56
913.24	226.54
913.55	226.52
913.85	226.47
914.15	226.50
914.46	226.49
914.76	226.49
915.06	226.50
915.37	226.47
915.67	226.47
915.97	226.46
916.27	226.44
916.58	226.44
916.88	226.43
917.18	226.40
917.49	226.45
917.79	226.42
918.09	226.42
918.39	226.46
918.70	226.42
919.00	226.40
919.30	226.39
919.60	226.37
919.91	226.33
920.21	226.37
920.51	226.32
920.81	226.34
921.12	226.33
921.42	226.29
921.72	226.26
922.02	226.28
922.32	226.28
922.63	226.24
922.93	226.28
923.23	226.26
923.53	226.22
923.83	226.16
924.13	226.16
924.44	226.16
924.74	226.13
925.04	226.16
925.34	226.11
925.64	226.07
925.94	226.12
926.24	226.18
926.55	226.11
926.85	226.12
927.15	226.10
927.45	226.08
927.75	226.09
928.05	226.12
928.35	226.09
928.65	226.09
928.95	226.12
929.26	226.07
929.56	226.12
929.86	226.16
930.16	226.15
930.46	226.14
930.76	226.16
931.06	226.10
931.36	226.08
931.66	226.15
931.96	226.17
932.26	226.15
932.56	226.11
932.86	226.16
933.16	226.13
933.46	226.11
933.76	226.10
934.06	226.11
934.36	226.14
934.66	226.15
934.96	226.15
935.26	226.14
935.56	226.16
935.86	226.14
936.16	226.14
936.46	226.17
936.76	226.20
937.06	226.19
937.36	226.22
937.66	226.23
937.96	226.22
938.26	226.22
938.56	226.21
938.86	226.23
939.16	226.23
939.46	226.25
939.76	226.27
940.06	226.30
940.35	226.29
940.65	226.22
940.95	226.22
941.25	226.20
941.55	226.21
941.85	226.21
942.15	226.22
942.45	226.22
942.75	226.21
943.04	226.20
943.34	226.21
943.64	226.24
943.94	226.22
944.24	226.20
944.54	226.22
944.84	226.24
945.13	226.22
945.43	226.19
945.73	226.21
946.03	226.22
946.33	226.19
946.62	226.19
946.92	226.20
947.22	226.18
947.52	226.21
947.82	226.24
948.11	226.24
948.41	226.22
948.71	226.23
949.01	226.25
949.31	226.24
949.60	226.23
949.90	226.22
950.20	226.24
950.50	226.27
950.79	226.25
951.09	226.24
951.39	226.26
951.69	226.29
951.98	226.29
952.28	226.30
952.58	226.32
952.87	226.31
953.17	226.35
953.47	226.34
953.76	226.33
954.06	226.29
954.36	226.27
954.66	226.24
954.95	226.21
955.25	226.18
955.55	226.21
955.84	226.19
956.14	226.18
956.44	226.18
956.73	226.15
957.03	226.18
957.32	226.18
957.62	226.17
957.92	226.21
958.21	226.22
958.51	226.32
958.81	226.35
959.10	226.35
959.40	226.36
959.69	226.38
959.99	226.40
960.29	226.39
960.58	226.40
960.88	226.46
961.17	226.48
961.47	226.50
961.76	226.49
962.06	226.53
962.36	226.52
962.65	226.53
962.95	226.52
963.24	226.50
963.54	226.52
963.83	226.49
964.13	226.45
964.42	226.41
964.72	226.32
965.01	226.30
965.31	226.31
965.60	226.25
965.90	226.33
966.19	226.28
966.49	226.29
966.78	226.27
967.08	226.25
967.37	226.27
967.67	226.23
967.96	226.22
968.26	226.20
968.55	226.22
968.85	226.18
969.14	226.19
969.43	226.18
969.73	226.15
970.02	226.14
970.32	226.15
970.61	226.19
970.91	226.18
971.20	226.15
971.49	226.16
971.79	226.20
972.08	226.13
972.38	226.14
972.67	226.16
972.96	226.15
973.26	226.12
973.55	226.14
973.85	226.15
974.14	226.15
974.43	226.16
974.73	226.15
975.02	226.14
975.31	226.14
975.61	226.18
975.90	226.18
976.19	226.21
976.49	226.20
976.78	226.15
977.07	226.14
977.37	226.16
977.66	226.15
977.95	226.12
978.24	226.09
978.54	226.11
978.83	226.05
979.12	226.06
979.42	226.08
979.71	226.06
980.00	226.06
980.29	226.07
980.59	226.05
980.88	226.06
981.17	226.08
981.46	226.09
981.76	226.07
982.05	226.12
982.34	226.11
982.63	226.12
982.93	226.15
983.22	226.19
983.51	226.19
983.80	226.21
984.09	226.23
984.39	226.28
984.68	226.28
984.97	226.34
985.26	226.33
985.55	226.33
985.85	226.33
986.14	226.32
986.43	226.28
986.72	226.26
987.01	226.23
987.30	226.24
987.59	226.20
987.89	226.19
988.18	226.14
988.47	226.13
988.76	226.12
989.05	226.10
989.34	226.07
989.63	226.10
989.92	226.06
990.22	226.05
990.51	226.01
990.80	226.00
991.09	225.94
991.38	225.95
991.67	225.94
991.96	225.90
992.25	225.92
992.54	225.91
992.83	225.92
993.12	225.92
993.41	225.91
993.70	225.94
993.99	225.99
994.28	226.00
994.58	226.01
994.87	225.98
995.16	225.97
995.45	225.97
995.74	225.94
996.03	225.94
996.32	225.94
996.61	225.98
996.90	225.96
997.19	225.98
997.48	225.97
997.77	225.96
998.06	225.97
998.34	225.94
998.63	225.96
998.92	225.96
999.21	225.97
999.50	225.98
999.79	225.97
1000.08	225.95
1000.37	225.96
1000.66	225.95
1000.95	226.01
1001.24	226.01
1001.53	226.02
1001.82	226.00
1002.11	226.01
1002.40	226.03
1002.68	226.01
1002.97	226.10
1003.26	226.09
1003.55	226.10
1003.84	226.09
1004.13	226.14
1004.42	226.16
1004.71	226.14
1004.99	226.12
1005.28	226.12
1005.57	226.10
1005.86	226.08
1006.15	226.07
1006.44	226.01
1006.72	226.01
1007.01	225.98
1007.30	225.98
1007.59	225.95
1007.88	225.93
1008.17	225.93
1008.45	225.90
1008.74	225.89
1009.03	225.84
1009.32	225.87
1009.60	225.84
1009.89	225.86
1010.18	225.79
1010.47	225.77
1010.76	225.78
1011.04	225.79
1011.33	225.79
1011.62	225.80
1011.91	225.81
1012.19	225.78
1012.48	225.79
1012.77	225.80
1013.05	225.85
1013.34	225.84
1013.63	225.84
1013.92	225.88
1014.20	225.86
1014.49	225.86
1014.78	225.85
1015.06	225.80
1015.35	225.79
1015.64	225.82
1015.92	225.86
1016.21	225.89
1016.50	225.89
1016.78	225.92
1017.07	225.95
1017.36	225.95
1017.64	225.93
1017.93	225.93
1018.22	225.95
1018.50	225.97
1018.79	225.94
1019.08	225.90
1019.36	225.93
1019.65	225.92
1019.93	225.96
1020.22	225.99
1020.51	226.04
1020.79	226.04
1021.08	226.10
1021.36	225.98
1021.65	225.55
1021.94	225.98
1022.22	226.39
1022.51	225.59
1022.79	226.79
1023.08	226.18
1023.36	226.82
1023.65	225.65
>>>>>End Processed Spectral Data<<<<<
