SpectraSuite Data File
++++++++++++++++++++++++++++++++++++
Date: Fri Feb 01 16:24:45 EST 2013
User: group
Dark Spectrum Present: No
Reference Spectrum Present: No
Number of Sampled Component Spectra: 1
Spectrometers: USB2E7196
Integration Time (usec): 35000 (USB2E7196)
Spectra Averaged: 100 (USB2E7196)
Boxcar Smoothing: 10 (USB2E7196)
Correct for Electrical Dark: No (USB2E7196)
Strobe/Lamp Enabled: No (USB2E7196)
Correct for Detector Non-linearity: No (USB2E7196)
Correct for Stray Light: No (USB2E7196)
Number of Pixels in Processed Spectrum: 2048
>>>>>Begin Processed Spectral Data<<<<<
339.09	0.00
339.48	214.25
339.86	215.83
340.24	216.76
340.63	218.36
341.01	220.68
341.39	221.02
341.78	221.88
342.16	224.10
342.54	223.90
342.93	212.49
343.31	223.24
343.69	223.77
344.07	224.20
344.46	224.64
344.84	225.06
345.22	225.30
345.60	225.55
345.99	225.75
346.37	225.82
346.75	225.91
347.13	225.97
347.52	226.01
347.90	226.08
348.28	226.10
348.66	226.16
349.05	226.16
349.43	226.21
349.81	226.25
350.19	226.32
350.57	226.35
350.96	226.41
351.34	226.47
351.72	226.55
352.10	226.66
352.48	226.71
352.87	226.71
353.25	226.78
353.63	226.82
354.01	226.88
354.39	226.97
354.77	227.05
355.15	227.12
355.54	227.15
355.92	227.18
356.30	227.25
356.68	227.34
357.06	227.40
357.44	227.45
357.82	227.52
358.20	227.60
358.58	227.66
358.97	227.70
359.35	227.78
359.73	227.86
360.11	227.94
360.49	227.98
360.87	228.05
361.25	228.11
361.63	228.19
362.01	228.26
362.39	228.29
362.77	228.35
363.15	228.41
363.53	228.45
363.91	228.48
364.29	228.54
364.67	228.49
365.05	228.54
365.43	228.56
365.81	228.56
366.19	228.59
366.57	228.65
366.95	228.68
367.33	228.65
367.71	228.67
368.09	228.64
368.47	228.65
368.85	228.65
369.23	228.65
369.61	228.60
369.99	228.60
370.37	228.60
370.75	228.62
371.13	228.57
371.51	228.49
371.89	228.46
372.27	228.38
372.65	228.33
373.03	228.26
373.41	228.20
373.78	228.13
374.16	228.04
374.54	227.96
374.92	227.86
375.30	227.78
375.68	227.67
376.06	227.63
376.44	227.56
376.82	227.47
377.19	227.38
377.57	227.32
377.95	227.22
378.33	227.13
378.71	227.01
379.09	226.97
379.47	226.96
379.84	226.93
380.22	226.88
380.60	226.82
380.98	226.74
381.36	226.66
381.73	226.62
382.11	226.53
382.49	226.45
382.87	226.39
383.25	226.33
383.62	226.40
384.00	226.33
384.38	226.27
384.76	226.22
385.13	226.23
385.51	226.19
385.89	226.14
386.27	226.10
386.64	226.04
387.02	225.98
387.40	225.90
387.78	225.82
388.15	225.77
388.53	225.71
388.91	225.72
389.29	225.70
389.66	225.70
390.04	225.66
390.42	225.66
390.79	225.66
391.17	225.69
391.55	225.55
391.92	225.51
392.30	225.53
392.68	225.52
393.05	225.47
393.43	225.47
393.81	225.47
394.18	225.46
394.56	225.49
394.94	225.56
395.31	225.58
395.69	225.67
396.06	225.73
396.44	225.80
396.82	225.84
397.19	225.95
397.57	225.97
397.95	226.04
398.32	226.07
398.70	226.11
399.07	226.18
399.45	226.27
399.82	226.34
400.20	226.39
400.58	226.49
400.95	226.56
401.33	226.66
401.70	226.79
402.08	226.88
402.45	226.98
402.83	227.03
403.20	227.15
403.58	227.22
403.95	227.33
404.33	227.43
404.71	227.52
405.08	227.67
405.46	227.77
405.83	227.95
406.21	228.10
406.58	228.26
406.96	228.37
407.33	228.53
407.70	228.72
408.08	228.96
408.45	229.14
408.83	229.37
409.20	229.57
409.58	229.78
409.95	229.99
410.33	230.25
410.70	230.52
411.08	230.82
411.45	231.13
411.82	231.41
412.20	231.77
412.57	232.18
412.95	232.45
413.32	232.88
413.69	233.25
414.07	233.67
414.44	234.13
414.82	234.58
415.19	235.14
415.56	235.72
415.94	236.28
416.31	236.91
416.68	237.54
417.06	238.22
417.43	238.91
417.81	239.72
418.18	240.50
418.55	241.33
418.93	242.16
419.30	243.03
419.67	243.96
420.04	244.91
420.42	245.89
420.79	247.09
421.16	248.20
421.54	249.39
421.91	250.62
422.28	251.89
422.66	253.23
423.03	254.53
423.40	255.84
423.77	257.23
424.15	258.68
424.52	260.16
424.89	261.78
425.26	263.27
425.64	264.69
426.01	266.28
426.38	267.94
426.75	269.59
427.13	271.31
427.50	273.14
427.87	275.01
428.24	276.86
428.61	278.56
428.99	280.54
429.36	282.62
429.73	284.66
430.10	286.67
430.47	288.77
430.85	290.88
431.22	293.10
431.59	295.46
431.96	297.70
432.33	300.16
432.70	302.55
433.08	305.40
433.45	308.04
433.82	310.62
434.19	313.52
434.56	316.33
434.93	318.99
435.30	321.57
435.68	324.45
436.05	327.22
436.42	330.04
436.79	332.57
437.16	335.30
437.53	338.14
437.90	340.94
438.27	343.66
438.64	346.48
439.01	349.07
439.38	351.31
439.75	353.46
440.13	355.96
440.50	358.30
440.87	360.12
441.24	362.06
441.61	364.20
441.98	365.65
442.35	367.49
442.72	369.37
443.09	371.19
443.46	372.18
443.83	372.85
444.20	373.39
444.57	374.18
444.94	374.42
445.31	374.78
445.68	375.14
446.05	375.20
446.42	374.84
446.79	374.39
447.16	373.95
447.53	373.60
447.90	372.43
448.27	371.27
448.64	369.66
449.01	368.54
449.37	366.63
449.74	364.74
450.11	362.47
450.48	359.98
450.85	357.45
451.22	355.34
451.59	353.28
451.96	351.30
452.33	348.70
452.70	346.36
453.07	343.51
453.43	340.57
453.80	337.83
454.17	335.13
454.54	332.60
454.91	329.88
455.28	327.25
455.65	324.77
456.02	322.29
456.38	320.16
456.75	317.50
457.12	315.24
457.49	313.00
457.86	310.82
458.23	308.96
458.59	306.91
458.96	304.83
459.33	302.95
459.70	301.12
460.07	299.66
460.43	297.97
460.80	296.36
461.17	294.95
461.54	293.42
461.91	292.00
462.27	290.57
462.64	289.35
463.01	288.00
463.38	286.69
463.74	285.36
464.11	284.20
464.48	283.17
464.85	282.05
465.21	281.21
465.58	280.31
465.95	279.23
466.32	278.34
466.68	277.41
467.05	276.56
467.42	275.65
467.78	274.68
468.15	273.80
468.52	273.13
468.88	272.27
469.25	271.57
469.62	270.93
469.98	270.25
470.35	269.58
470.72	269.00
471.08	268.39
471.45	267.88
471.82	267.38
472.18	266.80
472.55	266.38
472.92	265.88
473.28	265.45
473.65	265.02
474.02	264.61
474.38	264.27
474.75	263.99
475.11	263.68
475.48	263.42
475.85	263.24
476.21	263.03
476.58	262.89
476.94	262.77
477.31	262.63
477.67	262.50
478.04	262.42
478.41	262.39
478.77	262.44
479.14	262.41
479.50	262.44
479.87	262.52
480.23	262.61
480.60	262.70
480.96	262.77
481.33	263.02
481.69	263.25
482.06	263.47
482.42	263.67
482.79	263.88
483.15	264.23
483.52	264.57
483.88	264.94
484.25	265.32
484.61	265.73
484.98	266.21
485.34	266.81
485.71	267.47
486.07	268.03
486.44	268.57
486.80	269.24
487.17	269.95
487.53	270.77
487.90	271.64
488.26	272.59
488.62	273.61
488.99	274.56
489.35	275.58
489.72	276.72
490.08	277.91
490.44	279.19
490.81	280.54
491.17	281.90
491.54	283.37
491.90	284.91
492.26	286.54
492.63	288.27
492.99	290.05
493.36	291.91
493.72	293.99
494.08	296.13
494.45	298.39
494.81	300.74
495.17	303.17
495.54	305.75
495.90	308.42
496.26	311.23
496.63	314.17
496.99	317.29
497.35	320.55
497.72	323.96
498.08	327.47
498.44	331.16
498.80	335.12
499.17	339.18
499.53	343.35
499.89	347.73
500.26	352.19
500.62	356.86
500.98	361.87
501.34	366.93
501.71	372.29
502.07	377.68
502.43	383.39
502.79	389.20
503.16	395.26
503.52	401.54
503.88	407.96
504.24	414.65
504.60	421.50
504.97	428.67
505.33	435.95
505.69	443.65
506.05	451.39
506.41	459.23
506.78	467.37
507.14	475.81
507.50	484.57
507.86	493.67
508.22	502.86
508.59	512.01
508.95	521.59
509.31	531.41
509.67	541.52
510.03	551.78
510.39	562.33
510.75	573.13
511.12	584.09
511.48	595.36
511.84	606.79
512.20	618.28
512.56	630.16
512.92	642.39
513.28	654.71
513.64	667.17
514.00	679.84
514.37	692.77
514.73	705.81
515.09	718.86
515.45	732.04
515.81	745.61
516.17	759.57
516.53	773.72
516.89	787.90
517.25	802.14
517.61	816.47
517.97	830.96
518.33	845.35
518.69	860.02
519.05	874.93
519.41	890.02
519.77	905.54
520.13	920.91
520.49	936.11
520.85	951.54
521.21	967.26
521.57	983.39
521.93	999.09
522.29	1015.42
522.65	1031.55
523.01	1047.80
523.37	1063.73
523.73	1079.86
524.09	1095.88
524.45	1112.18
524.81	1128.66
525.17	1145.38
525.53	1162.28
525.89	1179.08
526.25	1195.93
526.61	1212.39
526.97	1229.11
527.33	1245.60
527.68	1262.16
528.04	1278.60
528.40	1295.07
528.76	1312.04
529.12	1328.67
529.48	1345.53
529.84	1361.50
530.20	1378.17
530.56	1395.08
530.91	1412.51
531.27	1429.20
531.63	1445.52
531.99	1461.99
532.35	1477.83
532.71	1493.73
533.07	1509.84
533.42	1525.75
533.78	1541.68
534.14	1557.88
534.50	1573.06
534.86	1588.78
535.21	1603.88
535.57	1619.84
535.93	1635.32
536.29	1650.03
536.65	1664.96
537.00	1679.68
537.36	1695.01
537.72	1709.34
538.08	1723.74
538.44	1737.41
538.79	1751.15
539.15	1764.75
539.51	1778.30
539.87	1792.63
540.22	1806.27
540.58	1819.84
540.94	1832.97
541.29	1845.70
541.65	1858.14
542.01	1871.28
542.37	1883.61
542.72	1896.04
543.08	1907.69
543.44	1919.97
543.79	1931.09
544.15	1942.09
544.51	1953.49
544.87	1964.31
545.22	1975.12
545.58	1985.17
545.94	1994.86
546.29	2004.71
546.65	2014.65
547.01	2023.97
547.36	2032.64
547.72	2040.99
548.07	2048.77
548.43	2056.99
548.79	2065.09
549.14	2072.55
549.50	2079.85
549.86	2087.39
550.21	2094.68
550.57	2101.92
550.92	2108.53
551.28	2115.43
551.64	2122.39
551.99	2128.94
552.35	2135.08
552.70	2141.25
553.06	2147.15
553.41	2153.53
553.77	2159.49
554.13	2165.42
554.48	2171.44
554.84	2176.97
555.19	2182.24
555.55	2187.36
555.90	2191.69
556.26	2196.41
556.61	2201.15
556.97	2205.52
557.32	2209.77
557.68	2213.87
558.03	2218.06
558.39	2221.66
558.74	2226.52
559.10	2230.35
559.45	2234.02
559.81	2238.16
560.16	2241.92
560.52	2245.32
560.87	2248.56
561.23	2251.22
561.58	2254.22
561.94	2256.68
562.29	2258.89
562.64	2261.62
563.00	2264.30
563.35	2267.98
563.71	2271.05
564.06	2274.25
564.42	2277.06
564.77	2279.43
565.12	2281.69
565.48	2283.56
565.83	2285.44
566.19	2286.74
566.54	2287.71
566.89	2288.74
567.25	2289.46
567.60	2290.65
567.96	2292.29
568.31	2293.27
568.66	2294.47
569.02	2294.92
569.37	2295.24
569.72	2296.17
570.08	2296.36
570.43	2296.40
570.78	2295.82
571.14	2294.44
571.49	2293.15
571.84	2292.86
572.20	2291.80
572.55	2290.73
572.90	2289.27
573.26	2288.00
573.61	2286.38
573.96	2284.61
574.31	2281.73
574.67	2278.89
575.02	2275.46
575.37	2272.11
575.72	2268.32
576.08	2265.08
576.43	2261.93
576.78	2258.42
577.13	2255.39
577.49	2252.28
577.84	2248.98
578.19	2245.25
578.54	2241.71
578.90	2237.61
579.25	2232.14
579.60	2227.29
579.95	2222.36
580.30	2217.39
580.66	2212.31
581.01	2207.46
581.36	2202.72
581.71	2198.63
582.06	2194.11
582.42	2189.70
582.77	2184.60
583.12	2180.12
583.47	2175.47
583.82	2170.64
584.17	2165.51
584.53	2160.14
584.88	2154.62
585.23	2148.84
585.58	2143.44
585.93	2138.08
586.28	2133.44
586.63	2128.40
586.98	2123.25
587.34	2118.64
587.69	2113.82
588.04	2108.53
588.39	2102.87
588.74	2096.43
589.09	2090.37
589.44	2083.66
589.79	2077.79
590.14	2072.19
590.49	2065.74
590.84	2059.29
591.19	2053.24
591.54	2046.80
591.89	2039.38
592.25	2032.53
592.60	2025.39
592.95	2017.76
593.30	2010.47
593.65	2002.87
594.00	1995.91
594.35	1988.81
594.70	1980.75
595.05	1973.57
595.40	1966.31
595.75	1958.89
596.10	1952.80
596.45	1946.05
596.80	1940.06
597.15	1933.32
597.50	1926.36
597.85	1919.91
598.19	1913.38
598.54	1906.24
598.89	1899.64
599.24	1893.82
599.59	1887.29
599.94	1881.10
600.29	1874.94
600.64	1868.37
600.99	1861.00
601.34	1854.26
601.69	1847.49
602.04	1840.81
602.39	1833.49
602.74	1826.75
603.08	1820.03
603.43	1813.18
603.78	1805.88
604.13	1798.54
604.48	1791.30
604.83	1784.30
605.18	1777.40
605.53	1769.41
605.87	1761.50
606.22	1754.22
606.57	1746.25
606.92	1738.94
607.27	1731.79
607.62	1724.90
607.96	1717.68
608.31	1711.08
608.66	1703.42
609.01	1695.77
609.36	1688.08
609.70	1680.06
610.05	1671.99
610.40	1664.21
610.75	1655.92
611.10	1648.38
611.44	1639.97
611.79	1632.03
612.14	1623.44
612.49	1614.18
612.83	1605.94
613.18	1597.84
613.53	1589.76
613.88	1581.17
614.22	1572.78
614.57	1564.20
614.92	1556.13
615.27	1548.36
615.61	1540.04
615.96	1531.98
616.31	1524.30
616.65	1516.99
617.00	1509.52
617.35	1501.91
617.70	1493.58
618.04	1485.08
618.39	1476.84
618.74	1469.30
619.08	1460.99
619.43	1453.38
619.78	1446.47
620.12	1439.13
620.47	1431.57
620.82	1423.50
621.16	1416.11
621.51	1408.58
621.85	1400.83
622.20	1392.33
622.55	1384.12
622.89	1376.28
623.24	1368.66
623.59	1361.25
623.93	1353.70
624.28	1346.44
624.62	1338.89
624.97	1331.70
625.32	1325.00
625.66	1317.98
626.01	1310.83
626.35	1303.35
626.70	1295.61
627.04	1287.93
627.39	1280.18
627.73	1272.78
628.08	1265.76
628.43	1258.44
628.77	1251.02
629.12	1243.53
629.46	1236.38
629.81	1228.91
630.15	1221.56
630.50	1214.25
630.84	1206.02
631.19	1198.14
631.53	1190.61
631.88	1183.00
632.22	1175.42
632.57	1168.09
632.91	1160.45
633.26	1153.00
633.60	1145.63
633.95	1138.50
634.29	1131.44
634.64	1124.77
634.98	1117.39
635.32	1110.26
635.67	1103.70
636.01	1097.12
636.36	1090.34
636.70	1083.78
637.05	1077.20
637.39	1070.80
637.73	1064.18
638.08	1058.40
638.42	1052.38
638.77	1045.93
639.11	1039.38
639.45	1032.95
639.80	1026.23
640.14	1019.88
640.49	1013.36
640.83	1007.02
641.17	1000.70
641.52	994.35
641.86	987.79
642.20	981.93
642.55	975.59
642.89	969.18
643.23	962.59
643.58	956.77
643.92	950.46
644.26	944.34
644.61	938.37
644.95	932.35
645.29	925.76
645.64	918.99
645.98	912.68
646.32	906.86
646.66	900.83
647.01	895.06
647.35	889.30
647.69	883.38
648.04	877.98
648.38	872.19
648.72	866.15
649.06	860.25
649.41	854.42
649.75	848.47
650.09	842.49
650.43	836.72
650.78	830.58
651.12	824.78
651.46	819.13
651.80	813.33
652.14	807.94
652.49	802.51
652.83	797.33
653.17	791.64
653.51	785.89
653.85	780.52
654.20	774.84
654.54	768.82
654.88	763.03
655.22	757.05
655.56	751.43
655.90	746.03
656.25	740.73
656.59	735.31
656.93	730.24
657.27	724.98
657.61	719.57
657.95	714.50
658.29	709.37
658.64	704.09
658.98	698.76
659.32	693.34
659.66	688.20
660.00	682.84
660.34	677.83
660.68	672.94
661.02	667.89
661.36	663.19
661.70	658.77
662.05	654.50
662.39	650.16
662.73	645.69
663.07	641.31
663.41	636.82
663.75	632.35
664.09	627.87
664.43	623.52
664.77	619.39
665.11	615.09
665.45	610.98
665.79	606.95
666.13	602.87
666.47	598.70
666.81	594.51
667.15	590.38
667.49	586.52
667.83	582.67
668.17	578.76
668.51	574.68
668.85	570.65
669.19	566.76
669.53	562.93
669.87	559.05
670.21	555.30
670.55	551.68
670.89	548.24
671.23	544.74
671.57	541.21
671.91	537.64
672.25	534.20
672.58	530.63
672.92	527.18
673.26	523.89
673.60	520.75
673.94	517.65
674.28	514.72
674.62	511.77
674.96	508.68
675.30	505.76
675.64	502.80
675.97	499.98
676.31	497.09
676.65	494.18
676.99	491.39
677.33	488.55
677.67	485.72
678.01	482.67
678.34	479.64
678.68	476.81
679.02	473.95
679.36	471.15
679.70	468.42
680.04	465.60
680.37	462.76
680.71	460.01
681.05	457.30
681.39	454.61
681.73	451.91
682.06	449.36
682.40	446.81
682.74	444.33
683.08	441.74
683.42	439.20
683.75	436.66
684.09	434.15
684.43	431.69
684.77	429.23
685.10	426.86
685.44	424.55
685.78	422.30
686.12	420.10
686.45	417.81
686.79	415.51
687.13	413.34
687.46	411.15
687.80	408.95
688.14	406.79
688.48	404.74
688.81	402.51
689.15	400.36
689.49	398.19
689.82	396.08
690.16	394.06
690.50	392.11
690.83	390.20
691.17	388.25
691.51	386.32
691.84	384.46
692.18	382.54
692.52	380.61
692.85	378.62
693.19	376.72
693.52	374.91
693.86	373.13
694.20	371.36
694.53	369.61
694.87	367.77
695.21	365.96
695.54	364.12
695.88	362.37
696.21	360.68
696.55	358.97
696.88	357.30
697.22	355.58
697.56	353.93
697.89	352.23
698.23	350.62
698.56	348.96
698.90	347.38
699.23	345.73
699.57	344.15
699.90	342.62
700.24	341.12
700.58	339.58
700.91	338.10
701.25	336.66
701.58	335.28
701.92	333.94
702.25	332.56
702.59	331.23
702.92	329.92
703.26	328.61
703.59	327.31
703.93	326.14
704.26	324.91
704.60	323.54
704.93	322.29
705.26	321.06
705.60	319.94
705.93	318.78
706.27	317.76
706.60	316.67
706.94	315.57
707.27	314.40
707.61	313.31
707.94	312.23
708.27	311.14
708.61	310.11
708.94	309.10
709.28	308.13
709.61	307.11
709.94	306.17
710.28	305.10
710.61	304.16
710.95	303.08
711.28	302.18
711.61	301.26
711.95	300.36
712.28	299.41
712.61	298.46
712.95	297.51
713.28	296.62
713.61	295.78
713.95	294.89
714.28	294.04
714.61	293.22
714.95	292.41
715.28	291.56
715.61	290.66
715.95	289.82
716.28	288.94
716.61	288.13
716.95	287.30
717.28	286.55
717.61	285.75
717.94	285.02
718.28	284.20
718.61	283.49
718.94	282.73
719.27	282.03
719.61	281.34
719.94	280.65
720.27	279.92
720.60	279.25
720.94	278.60
721.27	278.00
721.60	277.38
721.93	276.77
722.27	276.20
722.60	275.63
722.93	275.03
723.26	274.50
723.59	274.00
723.93	273.45
724.26	272.91
724.59	272.36
724.92	271.83
725.25	271.37
725.59	270.85
725.92	270.39
726.25	269.88
726.58	269.39
726.91	268.93
727.24	268.46
727.57	267.96
727.91	267.47
728.24	266.99
728.57	266.51
728.90	266.05
729.23	265.51
729.56	265.08
729.89	264.61
730.22	264.10
730.55	263.58
730.89	263.12
731.22	262.69
731.55	262.25
731.88	261.78
732.21	261.38
732.54	260.95
732.87	260.54
733.20	260.13
733.53	259.75
733.86	259.38
734.19	258.97
734.52	258.64
734.85	258.38
735.18	257.97
735.51	257.63
735.84	257.25
736.17	256.96
736.50	256.58
736.83	256.34
737.16	255.99
737.49	255.69
737.82	255.37
738.15	255.03
738.48	254.72
738.81	254.40
739.14	254.05
739.47	253.75
739.80	253.41
740.13	253.12
740.46	252.79
740.79	252.43
741.12	252.12
741.45	251.76
741.78	251.35
742.11	251.08
742.44	250.75
742.77	250.47
743.10	250.16
743.43	249.87
743.75	249.50
744.08	249.39
744.41	249.12
744.74	248.85
745.07	248.58
745.40	248.34
745.73	248.09
746.06	247.79
746.39	247.50
746.71	247.23
747.04	246.97
747.37	246.69
747.70	246.46
748.03	246.21
748.36	246.02
748.68	245.80
749.01	245.55
749.34	245.32
749.67	245.11
750.00	244.90
750.33	244.73
750.65	244.50
750.98	244.13
751.31	243.92
751.64	243.71
751.97	243.51
752.29	243.26
752.62	243.05
752.95	242.86
753.28	242.64
753.60	242.46
753.93	242.27
754.26	242.05
754.59	241.81
754.91	241.63
755.24	241.39
755.57	241.19
755.90	241.00
756.22	240.79
756.55	240.55
756.88	240.33
757.20	240.09
757.53	239.91
757.86	239.76
758.19	239.60
758.51	239.41
758.84	239.22
759.17	239.04
759.49	238.87
759.82	238.73
760.15	238.60
760.47	238.44
760.80	238.26
761.13	238.16
761.45	238.01
761.78	237.83
762.11	237.71
762.43	237.59
762.76	237.45
763.08	237.35
763.41	237.22
763.74	237.07
764.06	236.94
764.39	236.80
764.71	236.64
765.04	236.48
765.37	236.33
765.69	236.19
766.02	236.08
766.34	235.90
766.67	235.73
767.00	235.62
767.32	235.55
767.65	235.49
767.97	235.36
768.30	235.29
768.62	235.18
768.95	235.04
769.27	234.93
769.60	234.82
769.92	234.69
770.25	234.59
770.57	234.46
770.90	234.36
771.22	234.27
771.55	234.19
771.87	234.07
772.20	233.98
772.52	233.99
772.85	234.01
773.17	233.95
773.50	233.84
773.82	233.71
774.15	233.60
774.47	233.43
774.80	233.32
775.12	233.20
775.45	233.15
775.77	233.09
776.09	233.01
776.42	232.94
776.74	232.91
777.07	232.83
777.39	232.76
777.72	232.68
778.04	232.63
778.36	232.56
778.69	232.52
779.01	232.46
779.33	232.34
779.66	232.15
779.98	232.09
780.31	232.07
780.63	232.07
780.95	231.98
781.28	231.94
781.60	231.94
781.92	231.88
782.25	231.81
782.57	231.76
782.89	231.68
783.22	231.61
783.54	231.53
783.86	231.50
784.19	231.44
784.51	231.43
784.83	231.35
785.16	231.32
785.48	231.30
785.80	231.24
786.12	231.16
786.45	231.10
786.77	231.08
787.09	231.05
787.42	230.99
787.74	230.95
788.06	230.91
788.38	230.85
788.71	230.81
789.03	230.78
789.35	230.76
789.67	230.71
789.99	230.68
790.32	230.60
790.64	230.58
790.96	230.62
791.28	230.52
791.61	230.49
791.93	230.46
792.25	230.39
792.57	230.45
792.89	230.39
793.21	230.38
793.54	230.35
793.86	230.27
794.18	230.24
794.50	230.20
794.82	230.16
795.14	230.12
795.47	230.10
795.79	230.06
796.11	229.98
796.43	229.94
796.75	229.94
797.07	229.95
797.39	229.89
797.71	229.83
798.04	229.82
798.36	229.78
798.68	229.73
799.00	229.72
799.32	229.64
799.64	229.64
799.96	229.63
800.28	229.57
800.60	229.56
800.92	229.51
801.24	229.47
801.56	229.46
801.89	229.43
802.21	229.42
802.53	229.36
802.85	229.36
803.17	229.36
803.49	229.29
803.81	229.24
804.13	229.23
804.45	229.17
804.77	229.15
805.09	229.13
805.41	229.09
805.73	229.02
806.05	228.96
806.37	228.93
806.69	228.85
807.01	228.85
807.33	228.85
807.65	228.79
807.97	228.83
808.28	228.80
808.60	228.76
808.92	228.69
809.24	228.74
809.56	228.68
809.88	228.65
810.20	228.65
810.52	228.63
810.84	228.56
811.16	228.49
811.48	228.48
811.80	228.50
812.12	228.47
812.43	228.46
812.75	228.42
813.07	228.37
813.39	228.40
813.71	228.32
814.03	228.25
814.35	228.26
814.67	228.19
814.98	228.16
815.30	228.14
815.62	228.13
815.94	228.02
816.26	228.06
816.58	228.01
816.89	227.98
817.21	227.91
817.53	227.93
817.85	227.94
818.17	227.88
818.48	227.83
818.80	227.81
819.12	227.77
819.44	227.80
819.76	227.77
820.07	227.70
820.39	227.72
820.71	227.72
821.03	227.70
821.34	227.65
821.66	227.62
821.98	227.64
822.30	227.62
822.61	227.66
822.93	227.57
823.25	227.54
823.57	227.54
823.88	227.57
824.20	227.53
824.52	227.52
824.83	227.51
825.15	227.46
825.47	227.46
825.79	227.44
826.10	227.40
826.42	227.38
826.74	227.38
827.05	227.36
827.37	227.33
827.69	227.32
828.00	227.33
828.32	227.36
828.64	227.32
828.95	227.39
829.27	227.39
829.58	227.42
829.90	227.46
830.22	227.44
830.53	227.42
830.85	227.40
831.17	227.37
831.48	227.36
831.80	227.37
832.11	227.35
832.43	227.39
832.75	227.37
833.06	227.45
833.38	227.43
833.69	227.43
834.01	227.45
834.32	227.42
834.64	227.43
834.96	227.39
835.27	227.36
835.59	227.31
835.90	227.27
836.22	227.23
836.53	227.20
836.85	227.20
837.16	227.29
837.48	227.31
837.79	227.35
838.11	227.34
838.42	227.34
838.74	227.33
839.05	227.28
839.37	227.30
839.68	227.21
840.00	227.21
840.31	227.18
840.63	227.16
840.94	227.13
841.26	227.09
841.57	227.08
841.88	227.11
842.20	227.07
842.51	227.03
842.83	227.04
843.14	227.11
843.46	227.08
843.77	227.02
844.08	226.99
844.40	226.97
844.71	226.97
845.03	226.96
845.34	226.95
845.65	226.95
845.97	226.93
846.28	226.90
846.60	226.91
846.91	226.92
847.22	226.93
847.54	226.95
847.85	226.97
848.16	226.95
848.48	226.92
848.79	226.92
849.10	226.95
849.42	226.94
849.73	226.83
850.04	226.82
850.36	226.76
850.67	226.77
850.98	226.74
851.30	226.74
851.61	226.69
851.92	226.69
852.23	226.71
852.55	226.70
852.86	226.71
853.17	226.71
853.49	226.71
853.80	226.73
854.11	226.74
854.42	226.74
854.74	226.69
855.05	226.69
855.36	226.64
855.67	226.65
855.99	226.64
856.30	226.77
856.61	226.76
856.92	226.76
857.23	226.78
857.55	226.77
857.86	226.77
858.17	226.81
858.48	226.78
858.79	226.74
859.11	226.74
859.42	226.73
859.73	226.71
860.04	226.72
860.35	226.67
860.66	226.63
860.98	226.61
861.29	226.68
861.60	226.71
861.91	226.75
862.22	226.69
862.53	226.68
862.84	226.53
863.16	226.57
863.47	226.54
863.78	226.50
864.09	226.50
864.40	226.48
864.71	226.48
865.02	226.50
865.33	226.52
865.64	226.52
865.95	226.52
866.27	226.57
866.58	226.55
866.89	226.54
867.20	226.57
867.51	226.55
867.82	226.54
868.13	226.53
868.44	226.50
868.75	226.52
869.06	226.55
869.37	226.55
869.68	226.49
869.99	226.50
870.30	226.52
870.61	226.53
870.92	226.54
871.23	226.49
871.54	226.50
871.85	226.50
872.16	226.54
872.47	226.52
872.78	226.47
873.09	226.44
873.40	226.46
873.71	226.45
874.02	226.44
874.33	226.40
874.64	226.37
874.95	226.40
875.26	226.41
875.56	226.37
875.87	226.39
876.18	226.38
876.49	226.49
876.80	226.48
877.11	226.47
877.42	226.48
877.73	226.49
878.04	226.49
878.35	226.48
878.66	226.46
878.96	226.47
879.27	226.50
879.58	226.52
879.89	226.47
880.20	226.48
880.51	226.49
880.82	226.49
881.12	226.50
881.43	226.47
881.74	226.43
882.05	226.41
882.36	226.42
882.67	226.41
882.97	226.32
883.28	226.30
883.59	226.30
883.90	226.28
884.21	226.30
884.51	226.27
884.82	226.26
885.13	226.22
885.44	226.20
885.74	226.17
886.05	226.15
886.36	226.16
886.67	226.12
886.98	226.17
887.28	226.21
887.59	226.22
887.90	226.23
888.20	226.19
888.51	226.23
888.82	226.21
889.13	226.26
889.43	226.31
889.74	226.31
890.05	226.28
890.35	226.26
890.66	226.24
890.97	226.23
891.28	226.23
891.58	226.24
891.89	226.24
892.20	226.23
892.50	226.22
892.81	226.21
893.12	226.20
893.42	226.15
893.73	226.13
894.04	226.11
894.34	226.10
894.65	226.12
894.95	226.11
895.26	226.12
895.57	226.14
895.87	226.08
896.18	226.06
896.48	226.09
896.79	226.10
897.10	226.12
897.40	226.14
897.71	226.16
898.01	226.17
898.32	226.22
898.63	226.20
898.93	226.20
899.24	226.26
899.54	226.27
899.85	226.29
900.15	226.31
900.46	226.34
900.76	226.36
901.07	226.34
901.38	226.36
901.68	226.38
901.99	226.34
902.29	226.35
902.60	226.36
902.90	226.36
903.21	226.37
903.51	226.37
903.82	226.39
904.12	226.38
904.43	226.38
904.73	226.39
905.03	226.41
905.34	226.52
905.64	226.47
905.95	226.48
906.25	226.46
906.56	226.47
906.86	226.48
907.17	226.47
907.47	226.51
907.77	226.49
908.08	226.46
908.38	226.46
908.69	226.44
908.99	226.48
909.30	226.49
909.60	226.50
909.90	226.51
910.21	226.47
910.51	226.46
910.81	226.46
911.12	226.44
911.42	226.43
911.73	226.33
912.03	226.33
912.33	226.35
912.64	226.37
912.94	226.32
913.24	226.29
913.55	226.27
913.85	226.29
914.15	226.32
914.46	226.33
914.76	226.32
915.06	226.34
915.37	226.30
915.67	226.25
915.97	226.26
916.27	226.25
916.58	226.26
916.88	226.26
917.18	226.25
917.49	226.31
917.79	226.30
918.09	226.30
918.39	226.34
918.70	226.31
919.00	226.28
919.30	226.35
919.60	226.34
919.91	226.35
920.21	226.31
920.51	226.27
920.81	226.23
921.12	226.24
921.42	226.22
921.72	226.20
922.02	226.22
922.32	226.21
922.63	226.21
922.93	226.27
923.23	226.28
923.53	226.27
923.83	226.22
924.13	226.21
924.44	226.23
924.74	226.22
925.04	226.25
925.34	226.24
925.64	226.17
925.94	226.18
926.24	226.22
926.55	226.24
926.85	226.28
927.15	226.30
927.45	226.31
927.75	226.31
928.05	226.35
928.35	226.35
928.65	226.36
928.95	226.38
929.26	226.28
929.56	226.27
929.86	226.26
930.16	226.22
930.46	226.26
930.76	226.25
931.06	226.21
931.36	226.18
931.66	226.18
931.96	226.24
932.26	226.22
932.56	226.15
932.86	226.13
933.16	226.10
933.46	226.08
933.76	226.07
934.06	226.09
934.36	226.11
934.66	226.10
934.96	226.10
935.26	226.07
935.56	226.09
935.86	226.07
936.16	226.08
936.46	226.12
936.76	226.06
937.06	226.03
937.36	226.04
937.66	226.05
937.96	226.04
938.26	225.97
938.56	225.98
938.86	225.99
939.16	225.98
939.46	226.01
939.76	226.01
940.06	226.00
940.35	225.97
940.65	225.91
940.95	225.92
941.25	225.89
941.55	225.90
941.85	225.90
942.15	225.94
942.45	225.95
942.75	225.94
943.04	225.96
943.34	225.98
943.64	225.95
943.94	225.93
944.24	225.96
944.54	225.97
944.84	225.97
945.13	225.97
945.43	225.96
945.73	225.94
946.03	225.93
946.33	225.89
946.62	225.89
946.92	225.91
947.22	225.91
947.52	225.93
947.82	225.93
948.11	225.92
948.41	225.88
948.71	225.87
949.01	225.85
949.31	225.87
949.60	225.88
949.90	225.91
950.20	225.95
950.50	225.92
950.79	225.92
951.09	225.92
951.39	225.92
951.69	225.93
951.98	225.93
952.28	225.95
952.58	225.99
952.87	225.97
953.17	225.97
953.47	225.95
953.76	225.92
954.06	225.90
954.36	225.91
954.66	225.92
954.95	225.94
955.25	225.95
955.55	225.96
955.84	225.94
956.14	225.93
956.44	225.93
956.73	225.93
957.03	225.94
957.32	225.95
957.62	225.95
957.92	225.94
958.21	225.93
958.51	226.06
958.81	226.08
959.10	226.10
959.40	226.16
959.69	226.18
959.99	226.20
960.29	226.24
960.58	226.20
960.88	226.27
961.17	226.25
961.47	226.27
961.76	226.24
962.06	226.29
962.36	226.28
962.65	226.26
962.95	226.29
963.24	226.29
963.54	226.30
963.83	226.33
964.13	226.34
964.42	226.34
964.72	226.24
965.01	226.25
965.31	226.27
965.60	226.22
965.90	226.28
966.19	226.28
966.49	226.29
966.78	226.34
967.08	226.28
967.37	226.30
967.67	226.30
967.96	226.30
968.26	226.26
968.55	226.28
968.85	226.30
969.14	226.26
969.43	226.27
969.73	226.26
970.02	226.22
970.32	226.21
970.61	226.21
970.91	226.16
971.20	226.16
971.49	226.17
971.79	226.18
972.08	226.12
972.38	226.08
972.67	226.07
972.96	226.06
973.26	226.05
973.55	226.10
973.85	226.10
974.14	226.13
974.43	226.16
974.73	226.14
975.02	226.14
975.31	226.16
975.61	226.14
975.90	226.17
976.19	226.19
976.49	226.23
976.78	226.23
977.07	226.25
977.37	226.23
977.66	226.19
977.95	226.16
978.24	226.15
978.54	226.20
978.83	226.15
979.12	226.16
979.42	226.15
979.71	226.12
980.00	226.10
980.29	226.06
980.59	226.01
980.88	226.01
981.17	225.99
981.46	225.98
981.76	225.96
982.05	225.96
982.34	225.96
982.63	225.94
982.93	225.96
983.22	225.97
983.51	225.97
983.80	225.99
984.09	225.99
984.39	225.99
984.68	225.99
984.97	226.02
985.26	226.00
985.55	226.02
985.85	225.99
986.14	226.00
986.43	226.05
986.72	226.07
987.01	226.06
987.30	226.04
987.59	226.02
987.89	226.06
988.18	226.01
988.47	226.03
988.76	226.04
989.05	226.01
989.34	225.99
989.63	226.03
989.92	226.00
990.22	226.03
990.51	226.01
990.80	225.97
991.09	225.97
991.38	225.96
991.67	225.91
991.96	225.91
992.25	225.91
992.54	225.85
992.83	225.81
993.12	225.81
993.41	225.87
993.70	225.92
993.99	225.89
994.28	225.87
994.58	225.86
994.87	225.83
995.16	225.83
995.45	225.83
995.74	225.78
996.03	225.82
996.32	225.85
996.61	225.91
996.90	225.90
997.19	225.89
997.48	225.88
997.77	225.90
998.06	225.89
998.34	225.87
998.63	225.88
998.92	225.91
999.21	225.92
999.50	225.90
999.79	225.86
1000.08	225.87
1000.37	225.92
1000.66	225.89
1000.95	225.92
1001.24	225.92
1001.53	225.96
1001.82	225.95
1002.11	225.92
1002.40	225.94
1002.68	225.91
1002.97	226.01
1003.26	226.03
1003.55	226.02
1003.84	226.05
1004.13	226.09
1004.42	226.08
1004.71	226.08
1004.99	226.09
1005.28	226.11
1005.57	226.11
1005.86	226.12
1006.15	226.13
1006.44	226.12
1006.72	226.15
1007.01	226.10
1007.30	226.10
1007.59	226.08
1007.88	226.08
1008.17	226.09
1008.45	226.06
1008.74	226.03
1009.03	225.97
1009.32	225.96
1009.60	225.98
1009.89	225.95
1010.18	225.93
1010.47	225.93
1010.76	225.95
1011.04	225.95
1011.33	225.95
1011.62	225.98
1011.91	225.96
1012.19	225.99
1012.48	225.97
1012.77	225.95
1013.05	226.00
1013.34	226.01
1013.63	226.00
1013.92	226.01
1014.20	225.99
1014.49	225.98
1014.78	225.98
1015.06	225.96
1015.35	225.99
1015.64	225.97
1015.92	225.97
1016.21	225.98
1016.50	225.98
1016.78	226.01
1017.07	226.02
1017.36	225.97
1017.64	225.94
1017.93	225.95
1018.22	225.91
1018.50	225.94
1018.79	225.95
1019.08	225.92
1019.36	225.91
1019.65	225.89
1019.93	225.91
1020.22	225.95
1020.51	225.99
1020.79	226.00
1021.08	225.89
1021.36	226.01
1021.65	225.91
1021.94	226.04
1022.22	225.75
1022.51	225.56
1022.79	226.16
1023.08	226.60
1023.36	226.95
1023.65	225.98
>>>>>End Processed Spectral Data<<<<<
