SpectraSuite Data File
++++++++++++++++++++++++++++++++++++
Date: Fri Feb 01 15:38:58 EST 2013
User: group
Dark Spectrum Present: No
Reference Spectrum Present: No
Number of Sampled Component Spectra: 1
Spectrometers: USB2E7196
Integration Time (usec): 35000 (USB2E7196)
Spectra Averaged: 100 (USB2E7196)
Boxcar Smoothing: 10 (USB2E7196)
Correct for Electrical Dark: No (USB2E7196)
Strobe/Lamp Enabled: No (USB2E7196)
Correct for Detector Non-linearity: No (USB2E7196)
Correct for Stray Light: No (USB2E7196)
Number of Pixels in Processed Spectrum: 2048
>>>>>Begin Processed Spectral Data<<<<<
339.09	0.00
339.48	215.44
339.86	216.17
340.24	218.03
340.63	219.75
341.01	221.82
341.39	222.05
341.78	223.09
342.16	225.10
342.54	224.72
342.93	213.53
343.31	224.30
343.69	224.81
344.07	225.30
344.46	225.73
344.84	226.10
345.22	226.39
345.60	226.64
345.99	226.87
346.37	226.96
346.75	227.10
347.13	227.18
347.52	227.22
347.90	227.25
348.28	227.30
348.66	227.30
349.05	227.27
349.43	227.33
349.81	227.39
350.19	227.41
350.57	227.50
350.96	227.58
351.34	227.67
351.72	227.76
352.10	227.87
352.48	227.93
352.87	227.98
353.25	228.02
353.63	228.09
354.01	228.11
354.39	228.21
354.77	228.25
355.15	228.33
355.54	228.34
355.92	228.39
356.30	228.46
356.68	228.58
357.06	228.61
357.44	228.61
357.82	228.65
358.20	228.73
358.58	228.77
358.97	228.79
359.35	228.86
359.73	228.94
360.11	228.94
360.49	229.01
360.87	229.05
361.25	229.08
361.63	229.11
362.01	229.17
362.39	229.14
362.77	229.17
363.15	229.20
363.53	229.25
363.91	229.26
364.29	229.26
364.67	229.19
365.05	229.23
365.43	229.27
365.81	229.27
366.19	229.30
366.57	229.33
366.95	229.34
367.33	229.30
367.71	229.27
368.09	229.25
368.47	229.19
368.85	229.15
369.23	229.11
369.61	229.07
369.99	229.03
370.37	229.02
370.75	229.03
371.13	228.94
371.51	228.88
371.89	228.84
372.27	228.78
372.65	228.70
373.03	228.66
373.41	228.60
373.78	228.51
374.16	228.37
374.54	228.28
374.92	228.19
375.30	228.13
375.68	228.06
376.06	228.04
376.44	227.97
376.82	227.90
377.19	227.85
377.57	227.80
377.95	227.73
378.33	227.65
378.71	227.53
379.09	227.49
379.47	227.41
379.84	227.33
380.22	227.26
380.60	227.20
380.98	227.12
381.36	227.03
381.73	226.96
382.11	226.96
382.49	226.90
382.87	226.84
383.25	226.76
383.62	226.81
384.00	226.71
384.38	226.66
384.76	226.64
385.13	226.62
385.51	226.55
385.89	226.49
386.27	226.46
386.64	226.42
387.02	226.37
387.40	226.36
387.78	226.35
388.15	226.34
388.53	226.31
388.91	226.28
389.29	226.28
389.66	226.28
390.04	226.21
390.42	226.24
390.79	226.22
391.17	226.21
391.55	226.09
391.92	226.10
392.30	226.09
392.68	226.08
393.05	226.08
393.43	226.09
393.81	226.10
394.18	226.11
394.56	226.15
394.94	226.21
395.31	226.21
395.69	226.25
396.06	226.28
396.44	226.33
396.82	226.35
397.19	226.43
397.57	226.48
397.95	226.54
398.32	226.56
398.70	226.64
399.07	226.72
399.45	226.78
399.82	226.86
400.20	226.95
400.58	227.01
400.95	227.07
401.33	227.18
401.70	227.33
402.08	227.43
402.45	227.56
402.83	227.67
403.20	227.84
403.58	227.93
403.95	228.08
404.33	228.24
404.71	228.38
405.08	228.58
405.46	228.73
405.83	228.90
406.21	229.04
406.58	229.20
406.96	229.35
407.33	229.60
407.70	229.79
408.08	230.04
408.45	230.24
408.83	230.48
409.20	230.69
409.58	230.89
409.95	231.16
410.33	231.41
410.70	231.66
411.08	231.91
411.45	232.24
411.82	232.56
412.20	232.89
412.57	233.31
412.95	233.58
413.32	233.96
413.69	234.34
414.07	234.81
414.44	235.26
414.82	235.77
415.19	236.29
415.56	236.87
415.94	237.43
416.31	238.10
416.68	238.73
417.06	239.44
417.43	240.15
417.81	240.93
418.18	241.74
418.55	242.56
418.93	243.42
419.30	244.30
419.67	245.23
420.04	246.19
420.42	247.17
420.79	248.38
421.16	249.55
421.54	250.76
421.91	251.96
422.28	253.22
422.66	254.55
423.03	255.82
423.40	257.12
423.77	258.54
424.15	259.93
424.52	261.42
424.89	263.01
425.26	264.54
425.64	265.95
426.01	267.49
426.38	269.16
426.75	270.85
427.13	272.59
427.50	274.40
427.87	276.27
428.24	278.15
428.61	279.90
428.99	281.84
429.36	283.96
429.73	286.00
430.10	288.03
430.47	290.09
430.85	292.25
431.22	294.50
431.59	296.87
431.96	299.14
432.33	301.65
432.70	304.07
433.08	306.87
433.45	309.54
433.82	312.12
434.19	315.03
434.56	317.85
434.93	320.51
435.30	323.09
435.68	325.95
436.05	328.77
436.42	331.56
436.79	334.11
437.16	336.81
437.53	339.68
437.90	342.46
438.27	345.21
438.64	347.99
439.01	350.59
439.38	352.80
439.75	354.99
440.13	357.43
440.50	359.73
440.87	361.62
441.24	363.57
441.61	365.77
441.98	367.24
442.35	369.06
442.72	370.93
443.09	372.73
443.46	373.82
443.83	374.44
444.20	374.94
444.57	375.77
444.94	376.03
445.31	376.33
445.68	376.77
446.05	376.83
446.42	376.51
446.79	376.06
447.16	375.62
447.53	375.26
447.90	374.10
448.27	372.93
448.64	371.29
449.01	370.12
449.37	368.18
449.74	366.29
450.11	364.02
450.48	361.53
450.85	359.01
451.22	356.79
451.59	354.80
451.96	352.83
452.33	350.20
452.70	347.87
453.07	345.08
453.43	342.14
453.80	339.39
454.17	336.64
454.54	334.09
454.91	331.38
455.28	328.72
455.65	326.23
456.02	323.78
456.38	321.68
456.75	319.03
457.12	316.75
457.49	314.51
457.86	312.36
458.23	310.51
458.59	308.49
458.96	306.44
459.33	304.51
459.70	302.69
460.07	301.18
460.43	299.43
460.80	297.79
461.17	296.33
461.54	294.81
461.91	293.39
462.27	291.96
462.64	290.73
463.01	289.34
463.38	288.06
463.74	286.68
464.11	285.46
464.48	284.40
464.85	283.31
465.21	282.45
465.58	281.49
465.95	280.38
466.32	279.49
466.68	278.57
467.05	277.69
467.42	276.75
467.78	275.80
468.15	274.93
468.52	274.25
468.88	273.40
469.25	272.62
469.62	272.07
469.98	271.37
470.35	270.73
470.72	270.12
471.08	269.46
471.45	268.94
471.82	268.41
472.18	267.83
472.55	267.38
472.92	266.86
473.28	266.42
473.65	265.95
474.02	265.47
474.38	265.09
474.75	264.79
475.11	264.48
475.48	264.19
475.85	263.94
476.21	263.72
476.58	263.51
476.94	263.36
477.31	263.14
477.67	263.00
478.04	262.86
478.41	262.82
478.77	262.88
479.14	262.82
479.50	262.83
479.87	262.93
480.23	263.00
480.60	263.08
480.96	263.15
481.33	263.36
481.69	263.54
482.06	263.78
482.42	263.94
482.79	264.19
483.15	264.56
483.52	264.93
483.88	265.27
484.25	265.69
484.61	266.13
484.98	266.59
485.34	267.14
485.71	267.74
486.07	268.36
486.44	268.91
486.80	269.62
487.17	270.36
487.53	271.15
487.90	271.98
488.26	272.89
488.62	273.87
488.99	274.86
489.35	275.94
489.72	277.01
490.08	278.22
490.44	279.48
490.81	280.79
491.17	282.19
491.54	283.68
491.90	285.22
492.26	286.88
492.63	288.60
492.99	290.42
493.36	292.33
493.72	294.39
494.08	296.46
494.45	298.70
494.81	301.06
495.17	303.48
495.54	306.05
495.90	308.76
496.26	311.57
496.63	314.52
496.99	317.61
497.35	320.87
497.72	324.27
498.08	327.77
498.44	331.42
498.80	335.30
499.17	339.34
499.53	343.50
499.89	347.86
500.26	352.34
500.62	357.01
500.98	362.01
501.34	367.08
501.71	372.43
502.07	377.86
502.43	383.49
502.79	389.33
503.16	395.42
503.52	401.71
503.88	408.11
504.24	414.75
504.60	421.66
504.97	428.80
505.33	436.11
505.69	443.81
506.05	451.58
506.41	459.49
506.78	467.59
507.14	476.05
507.50	484.80
507.86	493.86
508.22	503.00
508.59	512.13
508.95	521.70
509.31	531.52
509.67	541.62
510.03	551.90
510.39	562.46
510.75	573.22
511.12	584.11
511.48	595.48
511.84	606.95
512.20	618.41
512.56	630.34
512.92	642.55
513.28	654.89
513.64	667.48
514.00	680.24
514.37	693.24
514.73	706.31
515.09	719.24
515.45	732.53
515.81	746.16
516.17	760.28
516.53	774.37
516.89	788.53
517.25	802.71
517.61	817.22
517.97	831.74
518.33	846.23
518.69	861.09
519.05	876.01
519.41	891.22
519.77	906.83
520.13	922.30
520.49	937.66
520.85	953.19
521.21	968.89
521.57	985.09
521.93	1000.85
522.29	1017.23
522.65	1033.58
523.01	1049.85
523.37	1065.93
523.73	1082.09
524.09	1098.31
524.45	1114.62
524.81	1131.28
525.17	1148.04
525.53	1164.88
525.89	1181.84
526.25	1198.62
526.61	1215.03
526.97	1231.82
527.33	1248.27
527.68	1264.96
528.04	1281.55
528.40	1298.12
528.76	1315.13
529.12	1331.79
529.48	1348.66
529.84	1364.65
530.20	1381.26
530.56	1398.28
530.91	1415.74
531.27	1432.39
531.63	1448.90
531.99	1465.58
532.35	1481.53
532.71	1497.46
533.07	1513.71
533.42	1529.42
533.78	1545.52
534.14	1561.77
534.50	1577.07
534.86	1593.07
535.21	1608.17
535.57	1624.03
535.93	1639.55
536.29	1654.36
536.65	1669.37
537.00	1684.29
537.36	1699.63
537.72	1714.16
538.08	1728.43
538.44	1742.14
538.79	1756.11
539.15	1769.84
539.51	1783.62
539.87	1797.98
540.22	1811.80
540.58	1825.60
540.94	1839.17
541.29	1852.05
541.65	1864.82
542.01	1878.08
542.37	1890.38
542.72	1902.94
543.08	1914.69
543.44	1927.00
543.79	1938.20
544.15	1949.24
544.51	1960.71
544.87	1971.76
545.22	1982.67
545.58	1992.98
545.94	2002.70
546.29	2012.56
546.65	2022.15
547.01	2031.30
547.36	2040.03
547.72	2048.45
548.07	2056.26
548.43	2064.29
548.79	2072.38
549.14	2079.95
549.50	2087.24
549.86	2094.98
550.21	2102.28
550.57	2109.45
550.92	2116.06
551.28	2123.20
551.64	2130.31
551.99	2136.82
552.35	2142.99
552.70	2149.12
553.06	2155.11
553.41	2161.61
553.77	2167.66
554.13	2173.96
554.48	2180.27
554.84	2185.73
555.19	2191.12
555.55	2196.34
555.90	2200.85
556.26	2205.72
556.61	2210.54
556.97	2214.70
557.32	2218.74
557.68	2222.74
558.03	2227.07
558.39	2230.82
558.74	2235.53
559.10	2239.37
559.45	2243.10
559.81	2247.32
560.16	2251.10
560.52	2254.41
560.87	2257.80
561.23	2260.40
561.58	2263.26
561.94	2265.51
562.29	2267.90
562.64	2270.39
563.00	2272.96
563.35	2276.54
563.71	2279.53
564.06	2282.62
564.42	2285.51
564.77	2287.97
565.12	2290.34
565.48	2292.29
565.83	2294.09
566.19	2295.34
566.54	2296.32
566.89	2297.37
567.25	2297.99
567.60	2299.36
567.96	2301.07
568.31	2301.98
568.66	2303.11
569.02	2303.68
569.37	2304.14
569.72	2305.02
570.08	2305.21
570.43	2305.24
570.78	2304.50
571.14	2303.00
571.49	2301.63
571.84	2301.35
572.20	2300.23
572.55	2299.19
572.90	2297.57
573.26	2296.14
573.61	2294.31
573.96	2292.40
574.31	2289.32
574.67	2286.21
575.02	2282.49
575.37	2278.97
575.72	2274.98
576.08	2271.61
576.43	2268.16
576.78	2264.44
577.13	2261.17
577.49	2258.09
577.84	2254.46
578.19	2250.81
578.54	2247.09
578.90	2242.76
579.25	2237.09
579.60	2232.11
579.95	2226.99
580.30	2221.95
580.66	2216.81
581.01	2211.90
581.36	2206.92
581.71	2202.84
582.06	2198.41
582.42	2193.94
582.77	2188.65
583.12	2184.14
583.47	2179.26
583.82	2174.21
584.17	2168.92
584.53	2163.49
584.88	2157.80
585.23	2152.05
585.58	2146.47
585.93	2141.11
586.28	2136.45
586.63	2131.51
586.98	2126.37
587.34	2121.77
587.69	2116.91
588.04	2111.47
588.39	2105.68
588.74	2099.25
589.09	2093.07
589.44	2086.15
589.79	2080.22
590.14	2074.71
590.49	2068.11
590.84	2061.87
591.19	2055.91
591.54	2049.50
591.89	2041.89
592.25	2034.97
592.60	2027.66
592.95	2020.10
593.30	2012.63
593.65	2004.78
594.00	1997.73
594.35	1990.45
594.70	1982.24
595.05	1974.82
595.40	1967.55
595.75	1960.12
596.10	1953.77
596.45	1946.94
596.80	1940.75
597.15	1933.94
597.50	1926.67
597.85	1920.22
598.19	1913.50
598.54	1906.31
598.89	1899.52
599.24	1893.69
599.59	1887.02
599.94	1880.88
600.29	1874.48
600.64	1867.88
600.99	1860.50
601.34	1853.60
601.69	1846.69
602.04	1839.75
602.39	1832.40
602.74	1825.56
603.08	1818.88
603.43	1812.17
603.78	1804.91
604.13	1797.91
604.48	1790.55
604.83	1783.66
605.18	1776.57
605.53	1768.51
605.87	1760.54
606.22	1753.48
606.57	1745.50
606.92	1738.18
607.27	1731.01
607.62	1724.01
607.96	1716.72
608.31	1710.17
608.66	1702.46
609.01	1694.85
609.36	1687.29
609.70	1679.34
610.05	1671.23
610.40	1663.37
610.75	1655.00
611.10	1647.24
611.44	1638.62
611.79	1630.72
612.14	1622.01
612.49	1612.85
612.83	1604.47
613.18	1596.33
613.53	1588.04
613.88	1579.50
614.22	1571.09
614.57	1562.38
614.92	1554.35
615.27	1546.77
615.61	1538.41
615.96	1530.43
616.31	1522.85
616.65	1515.48
617.00	1507.87
617.35	1500.37
617.70	1492.08
618.04	1483.57
618.39	1475.35
618.74	1467.78
619.08	1459.41
619.43	1451.83
619.78	1445.00
620.12	1437.69
620.47	1430.05
620.82	1421.95
621.16	1414.59
621.51	1407.20
621.85	1399.69
622.20	1391.18
622.55	1382.81
622.89	1374.96
623.24	1367.33
623.59	1359.82
623.93	1352.28
624.28	1345.10
624.62	1337.50
624.97	1330.35
625.32	1323.67
625.66	1316.79
626.01	1309.62
626.35	1302.21
626.70	1294.50
627.04	1286.72
627.39	1279.08
627.73	1271.70
628.08	1264.77
628.43	1257.42
628.77	1249.87
629.12	1242.32
629.46	1235.23
629.81	1227.88
630.15	1220.64
630.50	1213.34
630.84	1205.08
631.19	1197.24
631.53	1189.68
631.88	1182.14
632.22	1174.46
632.57	1167.18
632.91	1159.51
633.26	1152.12
633.60	1144.76
633.95	1137.63
634.29	1130.59
634.64	1124.01
634.98	1116.71
635.32	1109.60
635.67	1103.05
636.01	1096.51
636.36	1089.60
636.70	1083.02
637.05	1076.36
637.39	1069.91
637.73	1063.28
638.08	1057.59
638.42	1051.60
638.77	1045.16
639.11	1038.58
639.45	1032.28
639.80	1025.57
640.14	1019.20
640.49	1012.57
640.83	1006.29
641.17	1000.11
641.52	993.75
641.86	987.26
642.20	981.41
642.55	975.11
642.89	968.63
643.23	962.09
643.58	956.30
643.92	950.15
644.26	944.09
644.61	938.11
644.95	932.12
645.29	925.42
645.64	918.63
645.98	912.27
646.32	906.39
646.66	900.31
647.01	894.54
647.35	888.87
647.69	883.17
648.04	877.63
648.38	871.81
648.72	865.72
649.06	859.64
649.41	853.77
649.75	847.78
650.09	841.82
650.43	836.06
650.78	829.94
651.12	824.03
651.46	818.33
651.80	812.44
652.14	807.05
652.49	801.76
652.83	796.69
653.17	791.03
653.51	785.29
653.85	779.90
654.20	774.20
654.54	768.20
654.88	762.40
655.22	756.50
655.56	750.82
655.90	745.39
656.25	740.20
656.59	734.83
656.93	729.79
657.27	724.66
657.61	719.19
657.95	714.12
658.29	709.02
658.64	703.78
658.98	698.59
659.32	693.15
659.66	687.81
660.00	682.41
660.34	677.56
660.68	672.65
661.02	667.59
661.36	662.85
661.70	658.28
662.05	653.92
662.39	649.61
662.73	645.14
663.07	640.87
663.41	636.33
663.75	631.82
664.09	627.19
664.43	622.79
664.77	618.67
665.11	614.48
665.45	610.36
665.79	606.29
666.13	602.12
666.47	597.96
666.81	593.91
667.15	589.83
667.49	585.88
667.83	582.13
668.17	578.27
668.51	574.23
668.85	570.27
669.19	566.43
669.53	562.59
669.87	558.70
670.21	555.00
670.55	551.36
670.89	547.94
671.23	544.57
671.57	541.03
671.91	537.54
672.25	533.99
672.58	530.44
672.92	527.07
673.26	523.93
673.60	520.89
673.94	517.71
674.28	514.81
674.62	511.89
674.96	508.75
675.30	505.80
675.64	502.94
675.97	500.15
676.31	497.30
676.65	494.29
676.99	491.67
677.33	488.79
677.67	486.02
678.01	482.99
678.34	480.01
678.68	477.21
679.02	474.35
679.36	471.64
679.70	468.96
680.04	466.19
680.37	463.31
680.71	460.50
681.05	458.00
681.39	455.23
681.73	452.53
682.06	449.99
682.40	447.43
682.74	444.91
683.08	442.38
683.42	439.81
683.75	437.39
684.09	434.84
684.43	432.39
684.77	429.91
685.10	427.52
685.44	425.17
685.78	422.81
686.12	420.58
686.45	418.24
686.79	415.90
687.13	413.69
687.46	411.54
687.80	409.36
688.14	407.10
688.48	405.09
688.81	402.82
689.15	400.70
689.49	398.55
689.82	396.46
690.16	394.37
690.50	392.39
690.83	390.46
691.17	388.47
691.51	386.57
691.84	384.76
692.18	382.85
692.52	380.88
692.85	378.99
693.19	377.07
693.52	375.24
693.86	373.45
694.20	371.71
694.53	369.88
694.87	368.01
695.21	366.21
695.54	364.41
695.88	362.72
696.21	360.99
696.55	359.35
696.88	357.63
697.22	355.99
697.56	354.38
697.89	352.64
698.23	351.01
698.56	349.37
698.90	347.75
699.23	346.13
699.57	344.61
699.90	343.07
700.24	341.55
700.58	340.06
700.91	338.52
701.25	337.04
701.58	335.72
701.92	334.44
702.25	333.04
702.59	331.61
702.92	330.29
703.26	328.97
703.59	327.65
703.93	326.50
704.26	325.25
704.60	323.97
704.93	322.74
705.26	321.48
705.60	320.33
705.93	319.19
706.27	318.21
706.60	317.11
706.94	316.07
707.27	314.91
707.61	313.87
707.94	312.88
708.27	311.79
708.61	310.74
708.94	309.70
709.28	308.75
709.61	307.85
709.94	306.95
710.28	305.95
710.61	305.02
710.95	303.93
711.28	303.02
711.61	302.06
711.95	301.17
712.28	300.22
712.61	299.24
712.95	298.31
713.28	297.42
713.61	296.56
713.95	295.65
714.28	294.91
714.61	294.03
714.95	293.18
715.28	292.39
715.61	291.48
715.95	290.63
716.28	289.78
716.61	288.97
716.95	288.14
717.28	287.41
717.61	286.62
717.94	285.88
718.28	285.07
718.61	284.36
718.94	283.66
719.27	283.03
719.61	282.39
719.94	281.75
720.27	280.98
720.60	280.32
720.94	279.70
721.27	279.04
721.60	278.44
721.93	277.88
722.27	277.29
722.60	276.73
722.93	276.16
723.26	275.59
723.59	274.96
723.93	274.40
724.26	273.84
724.59	273.26
724.92	272.72
725.25	272.20
725.59	271.64
725.92	271.15
726.25	270.64
726.58	270.13
726.91	269.57
727.24	269.15
727.57	268.68
727.91	268.12
728.24	267.68
728.57	267.22
728.90	266.71
729.23	266.21
729.56	265.76
729.89	265.29
730.22	264.80
730.55	264.34
730.89	263.90
731.22	263.48
731.55	263.05
731.88	262.64
732.21	262.20
732.54	261.80
732.87	261.34
733.20	260.91
733.53	260.52
733.86	260.14
734.19	259.70
734.52	259.29
734.85	259.01
735.18	258.58
735.51	258.18
735.84	257.80
736.17	257.42
736.50	256.99
736.83	256.74
737.16	256.41
737.49	256.06
737.82	255.70
738.15	255.35
738.48	255.03
738.81	254.69
739.14	254.34
739.47	254.00
739.80	253.71
740.13	253.42
740.46	253.09
740.79	252.80
741.12	252.51
741.45	252.20
741.78	251.84
742.11	251.52
742.44	251.18
742.77	250.91
743.10	250.64
743.43	250.40
743.75	250.04
744.08	249.91
744.41	249.63
744.74	249.38
745.07	249.13
745.40	248.89
745.73	248.67
746.06	248.41
746.39	248.15
746.71	247.91
747.04	247.63
747.37	247.36
747.70	247.11
748.03	246.85
748.36	246.63
748.68	246.41
749.01	246.15
749.34	245.99
749.67	245.77
750.00	245.57
750.33	245.40
750.65	245.17
750.98	244.82
751.31	244.63
751.64	244.41
751.97	244.21
752.29	243.96
752.62	243.73
752.95	243.57
753.28	243.37
753.60	243.14
753.93	242.99
754.26	242.81
754.59	242.60
754.91	242.42
755.24	242.21
755.57	242.02
755.90	241.88
756.22	241.68
756.55	241.49
756.88	241.29
757.20	241.08
757.53	240.88
757.86	240.71
758.19	240.55
758.51	240.38
758.84	240.19
759.17	240.06
759.49	239.91
759.82	239.77
760.15	239.63
760.47	239.47
760.80	239.29
761.13	239.18
761.45	239.00
761.78	238.81
762.11	238.68
762.43	238.54
762.76	238.41
763.08	238.30
763.41	238.17
763.74	238.02
764.06	237.85
764.39	237.72
764.71	237.59
765.04	237.49
765.37	237.33
765.69	237.21
766.02	237.08
766.34	236.94
766.67	236.79
767.00	236.68
767.32	236.63
767.65	236.56
767.97	236.43
768.30	236.33
768.62	236.24
768.95	236.11
769.27	235.99
769.60	235.86
769.92	235.74
770.25	235.60
770.57	235.49
770.90	235.37
771.22	235.25
771.55	235.18
771.87	235.07
772.20	235.01
772.52	234.94
772.85	234.93
773.17	234.84
773.50	234.76
773.82	234.65
774.15	234.49
774.47	234.37
774.80	234.25
775.12	234.17
775.45	234.09
775.77	234.02
776.09	233.96
776.42	233.87
776.74	233.81
777.07	233.73
777.39	233.66
777.72	233.62
778.04	233.60
778.36	233.49
778.69	233.40
779.01	233.31
779.33	233.19
779.66	233.01
779.98	232.96
780.31	232.86
780.63	232.82
780.95	232.81
781.28	232.73
781.60	232.66
781.92	232.59
782.25	232.53
782.57	232.48
782.89	232.41
783.22	232.36
783.54	232.27
783.86	232.24
784.19	232.19
784.51	232.13
784.83	232.03
785.16	231.96
785.48	231.92
785.80	231.87
786.12	231.86
786.45	231.85
786.77	231.79
787.09	231.78
787.42	231.68
787.74	231.62
788.06	231.60
788.38	231.59
788.71	231.55
789.03	231.52
789.35	231.50
789.67	231.45
789.99	231.39
790.32	231.35
790.64	231.30
790.96	231.36
791.28	231.27
791.61	231.25
791.93	231.26
792.25	231.24
792.57	231.27
792.89	231.16
793.21	231.13
793.54	231.05
793.86	230.97
794.18	230.96
794.50	230.90
794.82	230.85
795.14	230.80
795.47	230.79
795.79	230.74
796.11	230.65
796.43	230.63
796.75	230.62
797.07	230.60
797.39	230.58
797.71	230.45
798.04	230.45
798.36	230.42
798.68	230.37
799.00	230.33
799.32	230.23
799.64	230.25
799.96	230.16
800.28	230.17
800.60	230.14
800.92	230.09
801.24	230.11
801.56	230.06
801.89	230.05
802.21	230.04
802.53	229.99
802.85	230.00
803.17	229.99
803.49	229.95
803.81	229.92
804.13	229.89
804.45	229.87
804.77	229.84
805.09	229.80
805.41	229.77
805.73	229.70
806.05	229.68
806.37	229.66
806.69	229.67
807.01	229.64
807.33	229.63
807.65	229.58
807.97	229.57
808.28	229.54
808.60	229.51
808.92	229.45
809.24	229.51
809.56	229.44
809.88	229.35
810.20	229.30
810.52	229.29
810.84	229.26
811.16	229.23
811.48	229.18
811.80	229.23
812.12	229.19
812.43	229.19
812.75	229.13
813.07	229.07
813.39	229.00
813.71	228.94
814.03	228.87
814.35	228.86
814.67	228.79
814.98	228.77
815.30	228.72
815.62	228.67
815.94	228.57
816.26	228.62
816.58	228.59
816.89	228.59
817.21	228.53
817.53	228.49
817.85	228.47
818.17	228.45
818.48	228.40
818.80	228.40
819.12	228.36
819.44	228.36
819.76	228.36
820.07	228.37
820.39	228.38
820.71	228.39
821.03	228.38
821.34	228.38
821.66	228.33
821.98	228.32
822.30	228.28
822.61	228.33
822.93	228.25
823.25	228.25
823.57	228.23
823.88	228.26
824.20	228.25
824.52	228.25
824.83	228.26
825.15	228.23
825.47	228.20
825.79	228.21
826.10	228.19
826.42	228.17
826.74	228.19
827.05	228.15
827.37	228.14
827.69	228.13
828.00	228.13
828.32	228.14
828.64	228.11
828.95	228.21
829.27	228.18
829.58	228.19
829.90	228.20
830.22	228.20
830.53	228.14
830.85	228.13
831.17	228.05
831.48	228.03
831.80	228.04
832.11	228.03
832.43	227.99
832.75	227.99
833.06	228.02
833.38	227.99
833.69	228.03
834.01	228.05
834.32	228.06
834.64	228.03
834.96	228.04
835.27	228.03
835.59	227.97
835.90	227.93
836.22	227.94
836.53	227.93
836.85	227.91
837.16	228.02
837.48	227.99
837.79	228.02
838.11	228.01
838.42	227.99
838.74	227.98
839.05	228.01
839.37	228.01
839.68	227.95
840.00	227.94
840.31	227.90
840.63	227.86
840.94	227.83
841.26	227.80
841.57	227.81
841.88	227.85
842.20	227.82
842.51	227.85
842.83	227.81
843.14	227.87
843.46	227.88
843.77	227.81
844.08	227.84
844.40	227.80
844.71	227.79
845.03	227.78
845.34	227.80
845.65	227.77
845.97	227.77
846.28	227.74
846.60	227.76
846.91	227.74
847.22	227.77
847.54	227.79
847.85	227.78
848.16	227.76
848.48	227.69
848.79	227.73
849.10	227.72
849.42	227.71
849.73	227.61
850.04	227.63
850.36	227.58
850.67	227.56
850.98	227.60
851.30	227.60
851.61	227.61
851.92	227.57
852.23	227.59
852.55	227.57
852.86	227.58
853.17	227.54
853.49	227.55
853.80	227.53
854.11	227.52
854.42	227.52
854.74	227.50
855.05	227.55
855.36	227.51
855.67	227.49
855.99	227.47
856.30	227.56
856.61	227.53
856.92	227.57
857.23	227.55
857.55	227.55
857.86	227.51
858.17	227.53
858.48	227.55
858.79	227.52
859.11	227.54
859.42	227.52
859.73	227.54
860.04	227.56
860.35	227.53
860.66	227.51
860.98	227.55
861.29	227.57
861.60	227.54
861.91	227.55
862.22	227.56
862.53	227.55
862.84	227.48
863.16	227.45
863.47	227.40
863.78	227.41
864.09	227.43
864.40	227.47
864.71	227.46
865.02	227.45
865.33	227.43
865.64	227.40
865.95	227.41
866.27	227.48
866.58	227.47
866.89	227.50
867.20	227.49
867.51	227.46
867.82	227.44
868.13	227.47
868.44	227.43
868.75	227.43
869.06	227.46
869.37	227.48
869.68	227.48
869.99	227.53
870.30	227.56
870.61	227.52
870.92	227.48
871.23	227.46
871.54	227.48
871.85	227.49
872.16	227.53
872.47	227.53
872.78	227.45
873.09	227.45
873.40	227.43
873.71	227.43
874.02	227.46
874.33	227.48
874.64	227.46
874.95	227.50
875.26	227.51
875.56	227.50
875.87	227.47
876.18	227.46
876.49	227.55
876.80	227.52
877.11	227.48
877.42	227.47
877.73	227.46
878.04	227.44
878.35	227.47
878.66	227.43
878.96	227.43
879.27	227.43
879.58	227.42
879.89	227.43
880.20	227.42
880.51	227.40
880.82	227.40
881.12	227.41
881.43	227.38
881.74	227.33
882.05	227.31
882.36	227.29
882.67	227.28
882.97	227.17
883.28	227.15
883.59	227.16
883.90	227.15
884.21	227.16
884.51	227.14
884.82	227.10
885.13	227.12
885.44	227.08
885.74	227.09
886.05	227.07
886.36	227.03
886.67	227.01
886.98	227.03
887.28	227.00
887.59	227.01
887.90	226.99
888.20	226.99
888.51	227.01
888.82	227.02
889.13	227.04
889.43	227.12
889.74	227.13
890.05	227.15
890.35	227.17
890.66	227.14
890.97	227.17
891.28	227.17
891.58	227.15
891.89	227.15
892.20	227.10
892.50	227.06
892.81	227.05
893.12	227.07
893.42	227.05
893.73	227.04
894.04	227.01
894.34	227.01
894.65	226.97
894.95	226.95
895.26	226.94
895.57	226.96
895.87	226.86
896.18	226.83
896.48	226.82
896.79	226.81
897.10	226.82
897.40	226.78
897.71	226.79
898.01	226.78
898.32	226.78
898.63	226.78
898.93	226.81
899.24	226.81
899.54	226.79
899.85	226.73
900.15	226.71
900.46	226.73
900.76	226.75
901.07	226.79
901.38	226.79
901.68	226.78
901.99	226.72
902.29	226.74
902.60	226.77
902.90	226.74
903.21	226.73
903.51	226.77
903.82	226.81
904.12	226.80
904.43	226.82
904.73	226.83
905.03	226.87
905.34	226.97
905.64	226.98
905.95	226.98
906.25	227.04
906.56	227.03
906.86	227.00
907.17	227.00
907.47	226.99
907.77	226.98
908.08	226.99
908.38	227.02
908.69	227.03
908.99	227.06
909.30	227.10
909.60	227.09
909.90	227.06
910.21	227.05
910.51	227.03
910.81	227.04
911.12	227.05
911.42	227.04
911.73	226.96
912.03	226.97
912.33	226.97
912.64	226.96
912.94	226.96
913.24	226.96
913.55	226.96
913.85	226.98
914.15	227.01
914.46	227.00
914.76	227.03
915.06	227.01
915.37	227.03
915.67	227.00
915.97	227.01
916.27	226.97
916.58	226.98
916.88	226.97
917.18	226.98
917.49	227.06
917.79	227.08
918.09	227.09
918.39	227.14
918.70	227.17
919.00	227.15
919.30	227.23
919.60	227.22
919.91	227.23
920.21	227.23
920.51	227.20
920.81	227.19
921.12	227.17
921.42	227.18
921.72	227.12
922.02	227.18
922.32	227.22
922.63	227.23
922.93	227.28
923.23	227.29
923.53	227.24
923.83	227.17
924.13	227.17
924.44	227.16
924.74	227.15
925.04	227.19
925.34	227.21
925.64	227.14
925.94	227.15
926.24	227.17
926.55	227.13
926.85	227.14
927.15	227.16
927.45	227.13
927.75	227.14
928.05	227.17
928.35	227.12
928.65	227.09
928.95	227.10
929.26	227.04
929.56	227.07
929.86	227.10
930.16	227.09
930.46	227.05
930.76	227.04
931.06	226.98
931.36	226.95
931.66	226.94
931.96	226.93
932.26	226.92
932.56	226.89
932.86	226.91
933.16	226.89
933.46	226.90
933.76	226.91
934.06	226.93
934.36	226.93
934.66	226.91
934.96	226.90
935.26	226.91
935.56	226.92
935.86	226.88
936.16	226.86
936.46	226.83
936.76	226.84
937.06	226.83
937.36	226.86
937.66	226.84
937.96	226.86
938.26	226.86
938.56	226.86
938.86	226.88
939.16	226.89
939.46	226.93
939.76	226.91
940.06	226.93
940.35	226.91
940.65	226.87
940.95	226.91
941.25	226.91
941.55	226.92
941.85	226.94
942.15	226.98
942.45	227.00
942.75	227.02
943.04	227.03
943.34	227.06
943.64	227.05
943.94	227.05
944.24	227.04
944.54	227.06
944.84	227.09
945.13	227.07
945.43	227.10
945.73	227.10
946.03	227.08
946.33	227.06
946.62	227.06
946.92	227.07
947.22	227.06
947.52	227.08
947.82	227.09
948.11	227.04
948.41	227.01
948.71	226.99
949.01	227.02
949.31	227.05
949.60	227.04
949.90	227.06
950.20	227.08
950.50	227.11
950.79	227.10
951.09	227.11
951.39	227.10
951.69	227.07
951.98	227.12
952.28	227.15
952.58	227.15
952.87	227.16
953.17	227.19
953.47	227.18
953.76	227.16
954.06	227.16
954.36	227.19
954.66	227.20
954.95	227.23
955.25	227.20
955.55	227.20
955.84	227.16
956.14	227.17
956.44	227.14
956.73	227.09
957.03	227.09
957.32	227.07
957.62	227.05
957.92	227.07
958.21	227.02
958.51	227.10
958.81	227.13
959.10	227.11
959.40	227.13
959.69	227.15
959.99	227.17
960.29	227.17
960.58	227.16
960.88	227.19
961.17	227.17
961.47	227.18
961.76	227.15
962.06	227.18
962.36	227.14
962.65	227.11
962.95	227.12
963.24	227.11
963.54	227.11
963.83	227.12
964.13	227.09
964.42	227.04
964.72	226.97
965.01	226.93
965.31	226.90
965.60	226.84
965.90	226.88
966.19	226.84
966.49	226.83
966.78	226.82
967.08	226.79
967.37	226.77
967.67	226.74
967.96	226.76
968.26	226.77
968.55	226.78
968.85	226.79
969.14	226.77
969.43	226.77
969.73	226.74
970.02	226.73
970.32	226.71
970.61	226.73
970.91	226.70
971.20	226.72
971.49	226.73
971.79	226.76
972.08	226.67
972.38	226.66
972.67	226.65
972.96	226.67
973.26	226.65
973.55	226.72
973.85	226.72
974.14	226.70
974.43	226.71
974.73	226.69
975.02	226.69
975.31	226.71
975.61	226.72
975.90	226.77
976.19	226.78
976.49	226.83
976.78	226.86
977.07	226.86
977.37	226.89
977.66	226.90
977.95	226.88
978.24	226.92
978.54	226.93
978.83	226.95
979.12	226.93
979.42	226.97
979.71	226.94
980.00	226.96
980.29	226.98
980.59	226.94
980.88	227.00
981.17	226.98
981.46	226.98
981.76	226.97
982.05	226.97
982.34	226.96
982.63	226.94
982.93	226.94
983.22	226.99
983.51	226.97
983.80	226.99
984.09	227.00
984.39	226.97
984.68	226.99
984.97	226.99
985.26	227.01
985.55	226.99
985.85	227.00
986.14	227.04
986.43	227.04
986.72	227.04
987.01	226.99
987.30	227.01
987.59	227.01
987.89	226.99
988.18	226.98
988.47	227.00
988.76	227.02
989.05	227.01
989.34	226.97
989.63	227.02
989.92	227.01
990.22	227.01
990.51	227.04
990.80	227.03
991.09	227.01
991.38	227.01
991.67	227.05
991.96	227.03
992.25	227.01
992.54	226.98
992.83	226.97
993.12	226.97
993.41	227.00
993.70	227.04
993.99	227.05
994.28	227.04
994.58	227.05
994.87	227.01
995.16	227.01
995.45	226.97
995.74	226.93
996.03	226.93
996.32	226.94
996.61	226.92
996.90	226.89
997.19	226.88
997.48	226.85
997.77	226.80
998.06	226.78
998.34	226.77
998.63	226.77
998.92	226.79
999.21	226.77
999.50	226.74
999.79	226.69
1000.08	226.68
1000.37	226.68
1000.66	226.64
1000.95	226.67
1001.24	226.64
1001.53	226.68
1001.82	226.65
1002.11	226.64
1002.40	226.63
1002.68	226.67
1002.97	226.74
1003.26	226.73
1003.55	226.76
1003.84	226.74
1004.13	226.75
1004.42	226.72
1004.71	226.74
1004.99	226.74
1005.28	226.78
1005.57	226.78
1005.86	226.78
1006.15	226.78
1006.44	226.79
1006.72	226.79
1007.01	226.79
1007.30	226.80
1007.59	226.78
1007.88	226.80
1008.17	226.80
1008.45	226.78
1008.74	226.71
1009.03	226.67
1009.32	226.70
1009.60	226.69
1009.89	226.69
1010.18	226.72
1010.47	226.74
1010.76	226.72
1011.04	226.70
1011.33	226.74
1011.62	226.75
1011.91	226.75
1012.19	226.76
1012.48	226.75
1012.77	226.78
1013.05	226.80
1013.34	226.82
1013.63	226.84
1013.92	226.83
1014.20	226.81
1014.49	226.83
1014.78	226.87
1015.06	226.83
1015.35	226.82
1015.64	226.80
1015.92	226.84
1016.21	226.81
1016.50	226.81
1016.78	226.84
1017.07	226.85
1017.36	226.81
1017.64	226.81
1017.93	226.83
1018.22	226.80
1018.50	226.82
1018.79	226.80
1019.08	226.74
1019.36	226.73
1019.65	226.71
1019.93	226.73
1020.22	226.77
1020.51	226.79
1020.79	226.78
1021.08	226.21
1021.36	226.85
1021.65	227.15
1021.94	226.09
1022.22	226.49
1022.51	226.56
1022.79	226.99
1023.08	226.95
1023.36	227.62
1023.65	226.65
>>>>>End Processed Spectral Data<<<<<
