SpectraSuite Data File
++++++++++++++++++++++++++++++++++++
Date: Fri Feb 01 15:14:22 EST 2013
User: group
Dark Spectrum Present: No
Reference Spectrum Present: No
Number of Sampled Component Spectra: 1
Spectrometers: USB2E7196
Integration Time (usec): 35000 (USB2E7196)
Spectra Averaged: 100 (USB2E7196)
Boxcar Smoothing: 10 (USB2E7196)
Correct for Electrical Dark: No (USB2E7196)
Strobe/Lamp Enabled: No (USB2E7196)
Correct for Detector Non-linearity: No (USB2E7196)
Correct for Stray Light: No (USB2E7196)
Number of Pixels in Processed Spectrum: 2048
>>>>>Begin Processed Spectral Data<<<<<
339.09	0.00
339.48	215.20
339.86	216.40
340.24	217.92
340.63	219.92
341.01	222.21
341.39	222.30
341.78	223.64
342.16	224.86
342.54	225.18
342.93	213.51
343.31	224.31
343.69	224.85
344.07	225.34
344.46	225.78
344.84	226.11
345.22	226.33
345.60	226.56
345.99	226.73
346.37	226.84
346.75	226.95
347.13	227.01
347.52	227.06
347.90	227.13
348.28	227.13
348.66	227.18
349.05	227.17
349.43	227.21
349.81	227.26
350.19	227.31
350.57	227.34
350.96	227.39
351.34	227.45
351.72	227.52
352.10	227.59
352.48	227.63
352.87	227.72
353.25	227.78
353.63	227.86
354.01	227.94
354.39	228.04
354.77	228.08
355.15	228.16
355.54	228.23
355.92	228.29
356.30	228.37
356.68	228.52
357.06	228.58
357.44	228.63
357.82	228.64
358.20	228.73
358.58	228.76
358.97	228.84
359.35	228.90
359.73	228.99
360.11	229.03
360.49	229.12
360.87	229.14
361.25	229.22
361.63	229.29
362.01	229.32
362.39	229.33
362.77	229.37
363.15	229.42
363.53	229.42
363.91	229.42
364.29	229.44
364.67	229.37
365.05	229.39
365.43	229.40
365.81	229.47
366.19	229.48
366.57	229.53
366.95	229.52
367.33	229.48
367.71	229.49
368.09	229.49
368.47	229.44
368.85	229.42
369.23	229.41
369.61	229.35
369.99	229.33
370.37	229.33
370.75	229.35
371.13	229.29
371.51	229.24
371.89	229.22
372.27	229.19
372.65	229.12
373.03	229.05
373.41	229.00
373.78	228.94
374.16	228.85
374.54	228.75
374.92	228.68
375.30	228.62
375.68	228.51
376.06	228.44
376.44	228.37
376.82	228.31
377.19	228.24
377.57	228.19
377.95	228.09
378.33	227.99
378.71	227.89
379.09	227.82
379.47	227.77
379.84	227.69
380.22	227.59
380.60	227.51
380.98	227.44
381.36	227.34
381.73	227.26
382.11	227.19
382.49	227.13
382.87	227.04
383.25	226.98
383.62	227.02
384.00	226.92
384.38	226.87
384.76	226.82
385.13	226.78
385.51	226.67
385.89	226.62
386.27	226.58
386.64	226.52
387.02	226.50
387.40	226.44
387.78	226.42
388.15	226.40
388.53	226.37
388.91	226.36
389.29	226.34
389.66	226.34
390.04	226.30
390.42	226.32
390.79	226.33
391.17	226.33
391.55	226.25
391.92	226.29
392.30	226.28
392.68	226.25
393.05	226.25
393.43	226.32
393.81	226.32
394.18	226.34
394.56	226.41
394.94	226.45
395.31	226.43
395.69	226.48
396.06	226.52
396.44	226.59
396.82	226.62
397.19	226.76
397.57	226.80
397.95	226.87
398.32	226.93
398.70	226.99
399.07	227.09
399.45	227.12
399.82	227.20
400.20	227.28
400.58	227.39
400.95	227.45
401.33	227.53
401.70	227.69
402.08	227.76
402.45	227.82
402.83	227.94
403.20	228.11
403.58	228.24
403.95	228.39
404.33	228.54
404.71	228.68
405.08	228.82
405.46	228.97
405.83	229.14
406.21	229.28
406.58	229.45
406.96	229.63
407.33	229.81
407.70	230.05
408.08	230.33
408.45	230.55
408.83	230.78
409.20	231.02
409.58	231.21
409.95	231.50
410.33	231.79
410.70	232.02
411.08	232.34
411.45	232.64
411.82	232.94
412.20	233.26
412.57	233.66
412.95	233.95
413.32	234.32
413.69	234.71
414.07	235.13
414.44	235.62
414.82	236.09
415.19	236.65
415.56	237.16
415.94	237.68
416.31	238.33
416.68	238.98
417.06	239.71
417.43	240.39
417.81	241.16
418.18	241.93
418.55	242.78
418.93	243.63
419.30	244.50
419.67	245.41
420.04	246.35
420.42	247.35
420.79	248.55
421.16	249.71
421.54	250.91
421.91	252.13
422.28	253.35
422.66	254.66
423.03	255.96
423.40	257.28
423.77	258.71
424.15	260.13
424.52	261.60
424.89	263.20
425.26	264.74
425.64	266.19
426.01	267.77
426.38	269.44
426.75	271.14
427.13	272.87
427.50	274.67
427.87	276.58
428.24	278.45
428.61	280.16
428.99	282.13
429.36	284.20
429.73	286.27
430.10	288.32
430.47	290.38
430.85	292.51
431.22	294.76
431.59	297.12
431.96	299.35
432.33	301.88
432.70	304.24
433.08	307.07
433.45	309.71
433.82	312.31
434.19	315.22
434.56	318.01
434.93	320.72
435.30	323.37
435.68	326.27
436.05	329.15
436.42	331.97
436.79	334.48
437.16	337.22
437.53	340.10
437.90	342.91
438.27	345.66
438.64	348.50
439.01	351.13
439.38	353.37
439.75	355.57
440.13	358.02
440.50	360.37
440.87	362.23
441.24	364.19
441.61	366.41
441.98	367.86
442.35	369.61
442.72	371.47
443.09	373.27
443.46	374.25
443.83	374.84
444.20	375.34
444.57	376.19
444.94	376.46
445.31	376.78
445.68	377.12
446.05	377.23
446.42	376.85
446.79	376.43
447.16	375.98
447.53	375.63
447.90	374.45
448.27	373.33
448.64	371.72
449.01	370.55
449.37	368.58
449.74	366.69
450.11	364.49
450.48	361.98
450.85	359.45
451.22	357.31
451.59	355.29
451.96	353.34
452.33	350.76
452.70	348.41
453.07	345.57
453.43	342.64
453.80	339.82
454.17	337.13
454.54	334.63
454.91	331.91
455.28	329.25
455.65	326.75
456.02	324.27
456.38	322.10
456.75	319.45
457.12	317.18
457.49	315.00
457.86	312.81
458.23	310.97
458.59	308.93
458.96	306.82
459.33	304.89
459.70	303.04
460.07	301.48
460.43	299.78
460.80	298.16
461.17	296.72
461.54	295.24
461.91	293.81
462.27	292.29
462.64	291.04
463.01	289.68
463.38	288.41
463.74	287.06
464.11	285.89
464.48	284.84
464.85	283.70
465.21	282.81
465.58	281.88
465.95	280.78
466.32	279.85
466.68	278.96
467.05	278.09
467.42	277.16
467.78	276.23
468.15	275.36
468.52	274.69
468.88	273.85
469.25	273.09
469.62	272.42
469.98	271.74
470.35	271.08
470.72	270.47
471.08	269.81
471.45	269.23
471.82	268.69
472.18	268.09
472.55	267.67
472.92	267.14
473.28	266.64
473.65	266.17
474.02	265.76
474.38	265.37
474.75	265.06
475.11	264.73
475.48	264.45
475.85	264.24
476.21	263.98
476.58	263.80
476.94	263.64
477.31	263.47
477.67	263.33
478.04	263.21
478.41	263.14
478.77	263.18
479.14	263.09
479.50	263.12
479.87	263.23
480.23	263.31
480.60	263.36
480.96	263.46
481.33	263.66
481.69	263.79
482.06	263.98
482.42	264.16
482.79	264.42
483.15	264.73
483.52	265.06
483.88	265.41
484.25	265.81
484.61	266.25
484.98	266.73
485.34	267.28
485.71	267.89
486.07	268.52
486.44	269.11
486.80	269.85
487.17	270.51
487.53	271.31
487.90	272.17
488.26	273.11
488.62	274.12
488.99	275.09
489.35	276.12
489.72	277.25
490.08	278.45
490.44	279.68
490.81	281.01
491.17	282.36
491.54	283.82
491.90	285.33
492.26	286.92
492.63	288.58
492.99	290.36
493.36	292.26
493.72	294.24
494.08	296.32
494.45	298.56
494.81	300.93
495.17	303.32
495.54	305.88
495.90	308.53
496.26	311.31
496.63	314.31
496.99	317.44
497.35	320.69
497.72	324.06
498.08	327.59
498.44	331.24
498.80	335.15
499.17	339.20
499.53	343.35
499.89	347.74
500.26	352.24
500.62	356.92
500.98	361.84
501.34	366.92
501.71	372.22
502.07	377.70
502.43	383.33
502.79	389.17
503.16	395.18
503.52	401.43
503.88	407.87
504.24	414.46
504.60	421.35
504.97	428.51
505.33	435.89
505.69	443.54
506.05	451.28
506.41	459.21
506.78	467.36
507.14	475.78
507.50	484.47
507.86	493.55
508.22	502.72
508.59	511.96
508.95	521.54
509.31	531.35
509.67	541.47
510.03	551.70
510.39	562.20
510.75	573.05
511.12	584.02
511.48	595.30
511.84	606.78
512.20	618.28
512.56	630.23
512.92	642.32
513.28	654.70
513.64	667.19
514.00	679.89
514.37	692.84
514.73	705.89
515.09	718.96
515.45	732.24
515.81	745.88
516.17	759.86
516.53	774.05
516.89	788.21
517.25	802.34
517.61	816.83
517.97	831.26
518.33	845.75
518.69	860.49
519.05	875.62
519.41	890.76
519.77	906.27
520.13	921.64
520.49	937.15
520.85	952.57
521.21	968.40
521.57	984.68
521.93	1000.49
522.29	1016.99
522.65	1033.33
523.01	1049.63
523.37	1065.71
523.73	1081.91
524.09	1097.97
524.45	1114.36
524.81	1131.04
525.17	1148.00
525.53	1165.11
525.89	1181.94
526.25	1198.86
526.61	1215.13
526.97	1232.10
527.33	1248.71
527.68	1265.45
528.04	1281.98
528.40	1298.72
528.76	1315.84
529.12	1332.49
529.48	1349.38
529.84	1365.52
530.20	1382.09
530.56	1399.22
530.91	1416.68
531.27	1433.40
531.63	1450.02
531.99	1466.61
532.35	1482.61
532.71	1498.53
533.07	1514.76
533.42	1530.71
533.78	1546.78
534.14	1563.14
534.50	1578.38
534.86	1594.32
535.21	1609.54
535.57	1625.51
535.93	1640.99
536.29	1655.75
536.65	1670.89
537.00	1685.82
537.36	1701.20
537.72	1715.97
538.08	1730.34
538.44	1744.28
538.79	1758.34
539.15	1772.11
539.51	1786.10
539.87	1800.56
540.22	1814.16
540.58	1828.02
540.94	1841.54
541.29	1854.53
541.65	1867.33
542.01	1880.63
542.37	1892.93
542.72	1905.48
543.08	1917.36
543.44	1929.87
543.79	1941.19
544.15	1952.21
544.51	1963.69
544.87	1974.65
545.22	1985.48
545.58	1995.79
545.94	2005.56
546.29	2015.52
546.65	2025.24
547.01	2034.47
547.36	2043.24
547.72	2051.84
548.07	2059.71
548.43	2067.98
548.79	2076.10
549.14	2083.73
549.50	2091.23
549.86	2098.98
550.21	2106.31
550.57	2113.50
550.92	2119.98
551.28	2127.18
551.64	2134.28
551.99	2140.96
552.35	2147.24
552.70	2153.27
553.06	2159.07
553.41	2165.40
553.77	2171.48
554.13	2177.65
554.48	2183.78
554.84	2189.16
555.19	2194.56
555.55	2199.68
555.90	2204.04
556.26	2208.81
556.61	2213.45
556.97	2217.53
557.32	2221.79
557.68	2225.92
558.03	2230.23
558.39	2234.11
558.74	2238.69
559.10	2242.46
559.45	2246.08
559.81	2250.29
560.16	2254.18
560.52	2257.45
560.87	2260.81
561.23	2263.29
561.58	2266.13
561.94	2268.48
562.29	2270.82
562.64	2273.34
563.00	2276.01
563.35	2279.56
563.71	2282.73
564.06	2285.81
564.42	2288.67
564.77	2290.98
565.12	2293.03
565.48	2294.67
565.83	2296.39
566.19	2297.56
566.54	2298.50
566.89	2299.55
567.25	2299.94
567.60	2301.29
567.96	2302.84
568.31	2303.67
568.66	2304.81
569.02	2305.46
569.37	2305.86
569.72	2306.59
570.08	2306.65
570.43	2306.57
570.78	2305.78
571.14	2304.23
571.49	2302.99
571.84	2302.62
572.20	2301.34
572.55	2300.39
572.90	2298.93
573.26	2297.42
573.61	2295.70
573.96	2293.86
574.31	2290.83
574.67	2287.81
575.02	2284.08
575.37	2280.76
575.72	2276.71
576.08	2273.34
576.43	2269.87
576.78	2266.03
577.13	2262.90
577.49	2259.81
577.84	2256.22
578.19	2252.52
578.54	2248.56
578.90	2243.98
579.25	2238.38
579.60	2233.29
579.95	2228.15
580.30	2223.10
580.66	2217.88
581.01	2212.84
581.36	2207.79
581.71	2203.42
582.06	2198.87
582.42	2194.26
582.77	2188.87
583.12	2184.26
583.47	2179.29
583.82	2174.21
584.17	2168.83
584.53	2163.21
584.88	2157.40
585.23	2151.52
585.58	2145.82
585.93	2140.35
586.28	2135.71
586.63	2130.43
586.98	2125.38
587.34	2120.46
587.69	2115.49
588.04	2110.09
588.39	2104.28
588.74	2097.79
589.09	2091.51
589.44	2084.56
589.79	2078.57
590.14	2072.94
590.49	2066.38
590.84	2059.85
591.19	2053.79
591.54	2047.32
591.89	2039.77
592.25	2032.98
592.60	2025.71
592.95	2018.01
593.30	2010.63
593.65	2002.98
594.00	1995.91
594.35	1988.66
594.70	1980.67
595.05	1973.17
595.40	1965.86
595.75	1958.30
596.10	1951.82
596.45	1944.89
596.80	1938.61
597.15	1931.82
597.50	1924.62
597.85	1918.19
598.19	1911.55
598.54	1904.35
598.89	1897.62
599.24	1891.74
599.59	1884.96
599.94	1878.69
600.29	1872.38
600.64	1865.83
600.99	1858.23
601.34	1851.42
601.69	1844.34
602.04	1837.43
602.39	1830.19
602.74	1823.31
603.08	1816.56
603.43	1809.91
603.78	1802.74
604.13	1795.56
604.48	1788.15
604.83	1781.30
605.18	1774.09
605.53	1766.00
605.87	1757.93
606.22	1750.71
606.57	1742.80
606.92	1735.45
607.27	1728.21
607.62	1721.26
607.96	1713.82
608.31	1707.13
608.66	1699.45
609.01	1691.93
609.36	1684.29
609.70	1676.28
610.05	1668.10
610.40	1660.37
610.75	1652.00
611.10	1644.35
611.44	1636.04
611.79	1628.15
612.14	1619.44
612.49	1610.45
612.83	1602.16
613.18	1594.06
613.53	1585.96
613.88	1577.37
614.22	1569.13
614.57	1560.64
614.92	1552.59
615.27	1545.02
615.61	1536.83
615.96	1528.82
616.31	1521.14
616.65	1513.72
617.00	1506.07
617.35	1498.55
617.70	1490.13
618.04	1481.60
618.39	1473.38
618.74	1465.69
619.08	1457.38
619.43	1449.75
619.78	1442.79
620.12	1435.67
620.47	1428.08
620.82	1419.88
621.16	1412.54
621.51	1404.93
621.85	1397.25
622.20	1388.84
622.55	1380.53
622.89	1372.71
623.24	1365.09
623.59	1357.70
623.93	1350.25
624.28	1343.06
624.62	1335.43
624.97	1328.27
625.32	1321.57
625.66	1314.58
626.01	1307.45
626.35	1299.93
626.70	1292.22
627.04	1284.49
627.39	1276.76
627.73	1269.34
628.08	1262.39
628.43	1255.02
628.77	1247.57
629.12	1239.96
629.46	1232.64
629.81	1225.25
630.15	1218.01
630.50	1210.60
630.84	1202.42
631.19	1194.60
631.53	1187.12
631.88	1179.66
632.22	1172.12
632.57	1164.85
632.91	1157.35
633.26	1149.97
633.60	1142.67
633.95	1135.70
634.29	1128.72
634.64	1121.96
634.98	1114.67
635.32	1107.56
635.67	1101.09
636.01	1094.57
636.36	1087.82
636.70	1081.39
637.05	1074.88
637.39	1068.46
637.73	1061.96
638.08	1056.20
638.42	1050.18
638.77	1043.68
639.11	1037.04
639.45	1030.82
639.80	1024.09
640.14	1017.67
640.49	1011.10
640.83	1004.78
641.17	998.43
641.52	992.08
641.86	985.72
642.20	979.88
642.55	973.63
642.89	967.08
643.23	960.57
643.58	954.81
643.92	948.59
644.26	942.44
644.61	936.39
644.95	930.33
645.29	923.61
645.64	916.85
645.98	910.58
646.32	904.86
646.66	898.69
647.01	892.97
647.35	887.23
647.69	881.45
648.04	876.01
648.38	870.20
648.72	864.23
649.06	858.13
649.41	852.32
649.75	846.36
650.09	840.41
650.43	834.52
650.78	828.33
651.12	822.44
651.46	816.78
651.80	810.95
652.14	805.65
652.49	800.38
652.83	795.16
653.17	789.48
653.51	783.66
653.85	778.40
654.20	772.71
654.54	766.75
654.88	761.06
655.22	755.13
655.56	749.53
655.90	744.03
656.25	738.83
656.59	733.53
656.93	728.46
657.27	723.31
657.61	717.98
657.95	712.98
658.29	707.88
658.64	702.70
658.98	697.48
659.32	692.03
659.66	686.82
660.00	681.58
660.34	676.72
660.68	671.78
661.02	666.69
661.36	662.06
661.70	657.59
662.05	653.19
662.39	648.86
662.73	644.44
663.07	640.10
663.41	635.62
663.75	631.02
664.09	626.44
664.43	622.11
664.77	617.95
665.11	613.62
665.45	609.53
665.79	605.37
666.13	601.23
666.47	597.16
666.81	592.95
667.15	588.87
667.49	584.92
667.83	581.17
668.17	577.28
668.51	573.23
668.85	569.20
669.19	565.37
669.53	561.56
669.87	557.63
670.21	553.99
670.55	550.34
670.89	546.98
671.23	543.63
671.57	540.09
671.91	536.62
672.25	533.19
672.58	529.71
672.92	526.37
673.26	523.23
673.60	520.10
673.94	517.03
674.28	514.05
674.62	511.17
674.96	508.06
675.30	505.08
675.64	502.18
675.97	499.45
676.31	496.57
676.65	493.64
676.99	490.89
677.33	488.03
677.67	485.25
678.01	482.18
678.34	479.14
678.68	476.29
679.02	473.45
679.36	470.70
679.70	467.95
680.04	465.19
680.37	462.34
680.71	459.55
681.05	456.99
681.39	454.37
681.73	451.69
682.06	449.19
682.40	446.67
682.74	444.13
683.08	441.58
683.42	439.01
683.75	436.52
684.09	434.07
684.43	431.56
684.77	429.12
685.10	426.83
685.44	424.61
685.78	422.35
686.12	420.11
686.45	417.83
686.79	415.59
687.13	413.40
687.46	411.22
687.80	409.09
688.14	406.92
688.48	404.87
688.81	402.64
689.15	400.51
689.49	398.39
689.82	396.35
690.16	394.27
690.50	392.33
690.83	390.41
691.17	388.42
691.51	386.56
691.84	384.77
692.18	382.82
692.52	380.81
692.85	378.90
693.19	377.02
693.52	375.20
693.86	373.38
694.20	371.63
694.53	369.83
694.87	367.97
695.21	366.15
695.54	364.31
695.88	362.62
696.21	360.93
696.55	359.29
696.88	357.59
697.22	355.97
697.56	354.41
697.89	352.77
698.23	351.19
698.56	349.61
698.90	347.98
699.23	346.37
699.57	344.87
699.90	343.37
700.24	341.85
700.58	340.36
700.91	338.87
701.25	337.47
701.58	336.13
701.92	334.78
702.25	333.47
702.59	332.15
702.92	330.83
703.26	329.51
703.59	328.26
703.93	327.05
704.26	325.81
704.60	324.48
704.93	323.22
705.26	321.97
705.60	320.78
705.93	319.65
706.27	318.63
706.60	317.50
706.94	316.39
707.27	315.27
707.61	314.23
707.94	313.20
708.27	312.07
708.61	310.97
708.94	309.99
709.28	308.97
709.61	308.00
709.94	307.03
710.28	306.00
710.61	304.97
710.95	303.90
711.28	302.99
711.61	302.03
711.95	301.11
712.28	300.18
712.61	299.19
712.95	298.23
713.28	297.34
713.61	296.46
713.95	295.55
714.28	294.72
714.61	293.79
714.95	292.95
715.28	292.10
715.61	291.25
715.95	290.35
716.28	289.51
716.61	288.61
716.95	287.77
717.28	287.06
717.61	286.31
717.94	285.59
718.28	284.78
718.61	284.10
718.94	283.37
719.27	282.71
719.61	282.07
719.94	281.40
720.27	280.68
720.60	280.04
720.94	279.41
721.27	278.79
721.60	278.25
721.93	277.64
722.27	277.05
722.60	276.48
722.93	275.92
723.26	275.38
723.59	274.84
723.93	274.35
724.26	273.76
724.59	273.22
724.92	272.70
725.25	272.14
725.59	271.60
725.92	271.10
726.25	270.55
726.58	270.04
726.91	269.51
727.24	269.06
727.57	268.56
727.91	268.06
728.24	267.58
728.57	267.09
728.90	266.66
729.23	266.22
729.56	265.80
729.89	265.34
730.22	264.88
730.55	264.46
730.89	263.99
731.22	263.56
731.55	263.10
731.88	262.69
732.21	262.32
732.54	261.92
732.87	261.50
733.20	261.13
733.53	260.76
733.86	260.44
734.19	260.03
734.52	259.69
734.85	259.36
735.18	258.95
735.51	258.56
735.84	258.18
736.17	257.85
736.50	257.45
736.83	257.21
737.16	256.84
737.49	256.50
737.82	256.14
738.15	255.83
738.48	255.53
738.81	255.20
739.14	254.86
739.47	254.52
739.80	254.21
740.13	253.91
740.46	253.58
740.79	253.26
741.12	252.93
741.45	252.61
741.78	252.31
742.11	252.03
742.44	251.74
742.77	251.46
743.10	251.14
743.43	250.86
743.75	250.49
744.08	250.36
744.41	250.04
744.74	249.79
745.07	249.50
745.40	249.23
745.73	248.96
746.06	248.68
746.39	248.42
746.71	248.19
747.04	247.91
747.37	247.66
747.70	247.39
748.03	247.16
748.36	246.93
748.68	246.69
749.01	246.42
749.34	246.21
749.67	245.95
750.00	245.73
750.33	245.57
750.65	245.38
750.98	245.03
751.31	244.85
751.64	244.64
751.97	244.47
752.29	244.25
752.62	244.01
752.95	243.80
753.28	243.60
753.60	243.35
753.93	243.19
754.26	242.99
754.59	242.78
754.91	242.57
755.24	242.39
755.57	242.18
755.90	241.99
756.22	241.81
756.55	241.62
756.88	241.40
757.20	241.10
757.53	240.93
757.86	240.79
758.19	240.61
758.51	240.43
758.84	240.21
759.17	240.04
759.49	239.92
759.82	239.82
760.15	239.67
760.47	239.53
760.80	239.35
761.13	239.21
761.45	239.07
761.78	238.97
762.11	238.82
762.43	238.69
762.76	238.54
763.08	238.39
763.41	238.26
763.74	238.14
764.06	238.02
764.39	237.84
764.71	237.67
765.04	237.51
765.37	237.38
765.69	237.25
766.02	237.10
766.34	236.94
766.67	236.78
767.00	236.66
767.32	236.60
767.65	236.55
767.97	236.44
768.30	236.31
768.62	236.17
768.95	236.04
769.27	235.92
769.60	235.85
769.92	235.69
770.25	235.60
770.57	235.50
770.90	235.42
771.22	235.33
771.55	235.21
771.87	235.12
772.20	235.03
772.52	235.00
772.85	235.04
773.17	234.98
773.50	234.85
773.82	234.73
774.15	234.59
774.47	234.42
774.80	234.31
775.12	234.21
775.45	234.10
775.77	234.02
776.09	233.95
776.42	233.85
776.74	233.79
777.07	233.71
777.39	233.59
777.72	233.52
778.04	233.45
778.36	233.42
778.69	233.37
779.01	233.30
779.33	233.17
779.66	232.99
779.98	232.89
780.31	232.86
780.63	232.84
780.95	232.80
781.28	232.75
781.60	232.69
781.92	232.64
782.25	232.59
782.57	232.54
782.89	232.49
783.22	232.42
783.54	232.38
783.86	232.32
784.19	232.29
784.51	232.25
784.83	232.19
785.16	232.11
785.48	232.07
785.80	232.04
786.12	231.98
786.45	231.95
786.77	231.92
787.09	231.88
787.42	231.82
787.74	231.79
788.06	231.77
788.38	231.70
788.71	231.66
789.03	231.62
789.35	231.60
789.67	231.56
789.99	231.54
790.32	231.51
790.64	231.47
790.96	231.50
791.28	231.43
791.61	231.38
791.93	231.38
792.25	231.34
792.57	231.36
792.89	231.30
793.21	231.24
793.54	231.17
793.86	231.10
794.18	231.04
794.50	230.95
794.82	230.90
795.14	230.90
795.47	230.87
795.79	230.83
796.11	230.78
796.43	230.74
796.75	230.72
797.07	230.67
797.39	230.66
797.71	230.57
798.04	230.55
798.36	230.53
798.68	230.50
799.00	230.46
799.32	230.39
799.64	230.39
799.96	230.39
800.28	230.39
800.60	230.36
800.92	230.36
801.24	230.34
801.56	230.34
801.89	230.31
802.21	230.31
802.53	230.27
802.85	230.26
803.17	230.25
803.49	230.20
803.81	230.18
804.13	230.16
804.45	230.10
804.77	230.08
805.09	230.05
805.41	230.00
805.73	229.96
806.05	229.91
806.37	229.88
806.69	229.83
807.01	229.81
807.33	229.81
807.65	229.74
807.97	229.78
808.28	229.74
808.60	229.70
808.92	229.64
809.24	229.71
809.56	229.67
809.88	229.61
810.20	229.58
810.52	229.57
810.84	229.52
811.16	229.51
811.48	229.49
811.80	229.50
812.12	229.47
812.43	229.46
812.75	229.44
813.07	229.41
813.39	229.39
813.71	229.36
814.03	229.31
814.35	229.29
814.67	229.23
814.98	229.20
815.30	229.20
815.62	229.19
815.94	229.13
816.26	229.13
816.58	229.11
816.89	229.12
817.21	229.06
817.53	229.06
817.85	229.07
818.17	229.05
818.48	229.00
818.80	229.02
819.12	228.99
819.44	228.95
819.76	228.92
820.07	228.94
820.39	228.93
820.71	228.93
821.03	228.93
821.34	228.91
821.66	228.91
821.98	228.90
822.30	228.88
822.61	228.91
822.93	228.88
823.25	228.89
823.57	228.83
823.88	228.88
824.20	228.85
824.52	228.86
824.83	228.83
825.15	228.81
825.47	228.80
825.79	228.79
826.10	228.78
826.42	228.77
826.74	228.77
827.05	228.72
827.37	228.74
827.69	228.72
828.00	228.68
828.32	228.66
828.64	228.64
828.95	228.72
829.27	228.67
829.58	228.64
829.90	228.61
830.22	228.64
830.53	228.59
830.85	228.55
831.17	228.51
831.48	228.50
831.80	228.49
832.11	228.46
832.43	228.47
832.75	228.46
833.06	228.50
833.38	228.48
833.69	228.48
834.01	228.47
834.32	228.47
834.64	228.46
834.96	228.47
835.27	228.45
835.59	228.35
835.90	228.28
836.22	228.29
836.53	228.27
836.85	228.26
837.16	228.34
837.48	228.38
837.79	228.39
838.11	228.42
838.42	228.38
838.74	228.40
839.05	228.39
839.37	228.38
839.68	228.33
840.00	228.31
840.31	228.31
840.63	228.26
840.94	228.23
841.26	228.26
841.57	228.21
841.88	228.21
842.20	228.20
842.51	228.23
842.83	228.26
843.14	228.37
843.46	228.34
843.77	228.27
844.08	228.23
844.40	228.22
844.71	228.19
845.03	228.19
845.34	228.16
845.65	228.12
845.97	228.14
846.28	228.13
846.60	228.16
846.91	228.14
847.22	228.13
847.54	228.12
847.85	228.08
848.16	228.08
848.48	228.03
848.79	228.07
849.10	228.05
849.42	228.01
849.73	227.87
850.04	227.83
850.36	227.81
850.67	227.84
850.98	227.81
851.30	227.79
851.61	227.78
851.92	227.77
852.23	227.76
852.55	227.72
852.86	227.69
853.17	227.64
853.49	227.65
853.80	227.67
854.11	227.71
854.42	227.74
854.74	227.75
855.05	227.73
855.36	227.67
855.67	227.65
855.99	227.66
856.30	227.77
856.61	227.78
856.92	227.77
857.23	227.76
857.55	227.78
857.86	227.77
858.17	227.77
858.48	227.74
858.79	227.77
859.11	227.76
859.42	227.75
859.73	227.75
860.04	227.71
860.35	227.70
860.66	227.69
860.98	227.66
861.29	227.65
861.60	227.66
861.91	227.71
862.22	227.71
862.53	227.65
862.84	227.55
863.16	227.60
863.47	227.56
863.78	227.55
864.09	227.52
864.40	227.53
864.71	227.53
865.02	227.54
865.33	227.51
865.64	227.51
865.95	227.51
866.27	227.60
866.58	227.59
866.89	227.59
867.20	227.55
867.51	227.54
867.82	227.55
868.13	227.59
868.44	227.55
868.75	227.59
869.06	227.62
869.37	227.62
869.68	227.59
869.99	227.61
870.30	227.58
870.61	227.60
870.92	227.58
871.23	227.57
871.54	227.60
871.85	227.64
872.16	227.68
872.47	227.68
872.78	227.60
873.09	227.61
873.40	227.60
873.71	227.61
874.02	227.64
874.33	227.62
874.64	227.61
874.95	227.63
875.26	227.58
875.56	227.56
875.87	227.57
876.18	227.53
876.49	227.62
876.80	227.59
877.11	227.56
877.42	227.53
877.73	227.53
878.04	227.52
878.35	227.50
878.66	227.47
878.96	227.46
879.27	227.44
879.58	227.44
879.89	227.44
880.20	227.46
880.51	227.43
880.82	227.43
881.12	227.39
881.43	227.38
881.74	227.37
882.05	227.36
882.36	227.36
882.67	227.35
882.97	227.28
883.28	227.28
883.59	227.24
883.90	227.29
884.21	227.30
884.51	227.28
884.82	227.23
885.13	227.23
885.44	227.22
885.74	227.21
886.05	227.21
886.36	227.21
886.67	227.19
886.98	227.23
887.28	227.21
887.59	227.21
887.90	227.18
888.20	227.17
888.51	227.20
888.82	227.16
889.13	227.17
889.43	227.23
889.74	227.21
890.05	227.22
890.35	227.22
890.66	227.21
890.97	227.18
891.28	227.20
891.58	227.18
891.89	227.20
892.20	227.20
892.50	227.17
892.81	227.14
893.12	227.13
893.42	227.06
893.73	227.08
894.04	227.08
894.34	227.10
894.65	227.11
894.95	227.09
895.26	227.09
895.57	227.11
895.87	227.03
896.18	227.08
896.48	227.11
896.79	227.07
897.10	227.08
897.40	227.09
897.71	227.10
898.01	227.09
898.32	227.06
898.63	227.06
898.93	227.07
899.24	227.08
899.54	227.08
899.85	227.08
900.15	227.07
900.46	227.08
900.76	227.08
901.07	227.07
901.38	227.09
901.68	227.09
901.99	227.08
902.29	227.06
902.60	227.05
902.90	227.04
903.21	227.06
903.51	227.03
903.82	227.07
904.12	227.07
904.43	227.11
904.73	227.14
905.03	227.16
905.34	227.28
905.64	227.30
905.95	227.34
906.25	227.37
906.56	227.38
906.86	227.37
907.17	227.36
907.47	227.37
907.77	227.38
908.08	227.38
908.38	227.38
908.69	227.41
908.99	227.44
909.30	227.44
909.60	227.45
909.90	227.49
910.21	227.46
910.51	227.46
910.81	227.44
911.12	227.47
911.42	227.48
911.73	227.37
912.03	227.38
912.33	227.36
912.64	227.36
912.94	227.35
913.24	227.35
913.55	227.35
913.85	227.32
914.15	227.34
914.46	227.34
914.76	227.35
915.06	227.31
915.37	227.32
915.67	227.33
915.97	227.33
916.27	227.34
916.58	227.33
916.88	227.27
917.18	227.28
917.49	227.33
917.79	227.32
918.09	227.33
918.39	227.33
918.70	227.35
919.00	227.33
919.30	227.35
919.60	227.34
919.91	227.34
920.21	227.37
920.51	227.36
920.81	227.34
921.12	227.37
921.42	227.40
921.72	227.39
922.02	227.36
922.32	227.37
922.63	227.38
922.93	227.46
923.23	227.49
923.53	227.46
923.83	227.39
924.13	227.38
924.44	227.37
924.74	227.39
925.04	227.41
925.34	227.40
925.64	227.37
925.94	227.41
926.24	227.48
926.55	227.48
926.85	227.47
927.15	227.46
927.45	227.47
927.75	227.46
928.05	227.46
928.35	227.47
928.65	227.48
928.95	227.45
929.26	227.39
929.56	227.43
929.86	227.43
930.16	227.41
930.46	227.43
930.76	227.46
931.06	227.42
931.36	227.39
931.66	227.40
931.96	227.42
932.26	227.41
932.56	227.32
932.86	227.32
933.16	227.31
933.46	227.30
933.76	227.26
934.06	227.27
934.36	227.29
934.66	227.28
934.96	227.27
935.26	227.29
935.56	227.29
935.86	227.26
936.16	227.27
936.46	227.28
936.76	227.27
937.06	227.25
937.36	227.26
937.66	227.23
937.96	227.26
938.26	227.23
938.56	227.24
938.86	227.28
939.16	227.29
939.46	227.29
939.76	227.32
940.06	227.31
940.35	227.30
940.65	227.25
940.95	227.27
941.25	227.25
941.55	227.24
941.85	227.28
942.15	227.28
942.45	227.32
942.75	227.28
943.04	227.29
943.34	227.32
943.64	227.28
943.94	227.28
944.24	227.25
944.54	227.28
944.84	227.27
945.13	227.27
945.43	227.27
945.73	227.27
946.03	227.25
946.33	227.28
946.62	227.28
946.92	227.27
947.22	227.24
947.52	227.25
947.82	227.24
948.11	227.19
948.41	227.21
948.71	227.16
949.01	227.19
949.31	227.16
949.60	227.15
949.90	227.18
950.20	227.19
950.50	227.21
950.79	227.17
951.09	227.14
951.39	227.11
951.69	227.11
951.98	227.14
952.28	227.14
952.58	227.10
952.87	227.10
953.17	227.14
953.47	227.13
953.76	227.12
954.06	227.12
954.36	227.13
954.66	227.09
954.95	227.12
955.25	227.10
955.55	227.12
955.84	227.10
956.14	227.12
956.44	227.13
956.73	227.08
957.03	227.08
957.32	227.10
957.62	227.12
957.92	227.09
958.21	227.10
958.51	227.18
958.81	227.20
959.10	227.19
959.40	227.19
959.69	227.19
959.99	227.21
960.29	227.22
960.58	227.19
960.88	227.22
961.17	227.21
961.47	227.20
961.76	227.17
962.06	227.15
962.36	227.15
962.65	227.13
962.95	227.15
963.24	227.14
963.54	227.13
963.83	227.12
964.13	227.10
964.42	227.05
964.72	227.02
965.01	227.00
965.31	226.99
965.60	226.97
965.90	227.00
966.19	226.94
966.49	226.92
966.78	226.91
967.08	226.90
967.37	226.88
967.67	226.86
967.96	226.92
968.26	226.94
968.55	226.92
968.85	226.92
969.14	226.92
969.43	226.93
969.73	226.92
970.02	226.94
970.32	226.95
970.61	226.92
970.91	226.87
971.20	226.86
971.49	226.85
971.79	226.84
972.08	226.83
972.38	226.86
972.67	226.85
972.96	226.88
973.26	226.87
973.55	226.92
973.85	226.93
974.14	226.90
974.43	226.90
974.73	226.87
975.02	226.88
975.31	226.87
975.61	226.89
975.90	226.89
976.19	226.86
976.49	226.89
976.78	226.92
977.07	226.94
977.37	226.98
977.66	227.02
977.95	227.03
978.24	227.03
978.54	227.04
978.83	227.07
979.12	227.09
979.42	227.09
979.71	227.08
980.00	227.11
980.29	227.09
980.59	227.08
980.88	227.12
981.17	227.11
981.46	227.13
981.76	227.16
982.05	227.19
982.34	227.20
982.63	227.19
982.93	227.22
983.22	227.22
983.51	227.23
983.80	227.24
984.09	227.26
984.39	227.26
984.68	227.28
984.97	227.27
985.26	227.23
985.55	227.24
985.85	227.23
986.14	227.25
986.43	227.27
986.72	227.28
987.01	227.25
987.30	227.24
987.59	227.21
987.89	227.18
988.18	227.15
988.47	227.15
988.76	227.16
989.05	227.12
989.34	227.14
989.63	227.16
989.92	227.11
990.22	227.12
990.51	227.13
990.80	227.08
991.09	227.10
991.38	227.12
991.67	227.12
991.96	227.11
992.25	227.07
992.54	227.07
992.83	227.06
993.12	227.07
993.41	227.10
993.70	227.14
993.99	227.18
994.28	227.20
994.58	227.21
994.87	227.20
995.16	227.18
995.45	227.14
995.74	227.07
996.03	227.09
996.32	227.07
996.61	227.06
996.90	227.05
997.19	227.03
997.48	227.02
997.77	227.00
998.06	226.99
998.34	227.01
998.63	226.98
998.92	226.98
999.21	226.99
999.50	226.99
999.79	226.97
1000.08	226.94
1000.37	226.92
1000.66	226.93
1000.95	226.93
1001.24	226.93
1001.53	226.92
1001.82	226.95
1002.11	226.90
1002.40	226.91
1002.68	226.92
1002.97	227.01
1003.26	227.00
1003.55	226.99
1003.84	226.96
1004.13	226.99
1004.42	226.98
1004.71	226.98
1004.99	226.94
1005.28	226.95
1005.57	226.94
1005.86	226.92
1006.15	226.90
1006.44	226.87
1006.72	226.87
1007.01	226.86
1007.30	226.86
1007.59	226.85
1007.88	226.86
1008.17	226.92
1008.45	226.91
1008.74	226.87
1009.03	226.83
1009.32	226.83
1009.60	226.86
1009.89	226.90
1010.18	226.85
1010.47	226.85
1010.76	226.87
1011.04	226.89
1011.33	226.91
1011.62	226.90
1011.91	226.90
1012.19	226.93
1012.48	226.97
1012.77	226.98
1013.05	227.03
1013.34	227.05
1013.63	227.06
1013.92	227.06
1014.20	227.06
1014.49	227.09
1014.78	227.13
1015.06	227.09
1015.35	227.12
1015.64	227.13
1015.92	227.14
1016.21	227.17
1016.50	227.17
1016.78	227.21
1017.07	227.23
1017.36	227.20
1017.64	227.19
1017.93	227.21
1018.22	227.21
1018.50	227.21
1018.79	227.20
1019.08	227.17
1019.36	227.21
1019.65	227.21
1019.93	227.23
1020.22	227.26
1020.51	227.28
1020.79	227.24
1021.08	227.43
1021.36	227.31
1021.65	227.15
1021.94	227.11
1022.22	227.79
1022.51	227.00
1022.79	227.26
1023.08	228.01
1023.36	227.92
1023.65	226.81
>>>>>End Processed Spectral Data<<<<<
