SpectraSuite Data File
++++++++++++++++++++++++++++++++++++
Date: Fri Feb 01 16:06:20 EST 2013
User: group
Dark Spectrum Present: No
Reference Spectrum Present: No
Number of Sampled Component Spectra: 1
Spectrometers: USB2E7196
Integration Time (usec): 35000 (USB2E7196)
Spectra Averaged: 100 (USB2E7196)
Boxcar Smoothing: 10 (USB2E7196)
Correct for Electrical Dark: No (USB2E7196)
Strobe/Lamp Enabled: No (USB2E7196)
Correct for Detector Non-linearity: No (USB2E7196)
Correct for Stray Light: No (USB2E7196)
Number of Pixels in Processed Spectrum: 2048
>>>>>Begin Processed Spectral Data<<<<<
339.09	0.00
339.48	215.12
339.86	216.20
340.24	217.34
340.63	219.10
341.01	222.00
341.39	221.80
341.78	223.13
342.16	224.43
342.54	224.56
342.93	213.09
343.31	223.86
343.69	224.38
344.07	224.81
344.46	225.24
344.84	225.61
345.22	225.83
345.60	226.09
345.99	226.24
346.37	226.37
346.75	226.50
347.13	226.52
347.52	226.59
347.90	226.64
348.28	226.63
348.66	226.67
349.05	226.65
349.43	226.66
349.81	226.70
350.19	226.78
350.57	226.86
350.96	226.91
351.34	226.97
351.72	227.06
352.10	227.20
352.48	227.26
352.87	227.32
353.25	227.40
353.63	227.45
354.01	227.52
354.39	227.60
354.77	227.66
355.15	227.79
355.54	227.84
355.92	227.86
356.30	227.96
356.68	228.13
357.06	228.21
357.44	228.27
357.82	228.35
358.20	228.38
358.58	228.42
358.97	228.53
359.35	228.63
359.73	228.70
360.11	228.75
360.49	228.82
360.87	228.87
361.25	228.92
361.63	228.98
362.01	229.04
362.39	229.07
362.77	229.10
363.15	229.13
363.53	229.20
363.91	229.24
364.29	229.27
364.67	229.17
365.05	229.22
365.43	229.26
365.81	229.30
366.19	229.35
366.57	229.40
366.95	229.38
367.33	229.34
367.71	229.35
368.09	229.32
368.47	229.31
368.85	229.28
369.23	229.28
369.61	229.24
369.99	229.25
370.37	229.21
370.75	229.23
371.13	229.18
371.51	229.11
371.89	229.11
372.27	229.09
372.65	229.07
373.03	229.05
373.41	228.99
373.78	228.89
374.16	228.79
374.54	228.71
374.92	228.64
375.30	228.58
375.68	228.51
376.06	228.48
376.44	228.43
376.82	228.41
377.19	228.32
377.57	228.27
377.95	228.19
378.33	228.12
378.71	227.98
379.09	227.90
379.47	227.84
379.84	227.73
380.22	227.64
380.60	227.53
380.98	227.42
381.36	227.36
381.73	227.28
382.11	227.26
382.49	227.23
382.87	227.18
383.25	227.10
383.62	227.11
384.00	227.03
384.38	226.94
384.76	226.87
385.13	226.82
385.51	226.76
385.89	226.67
386.27	226.64
386.64	226.62
387.02	226.56
387.40	226.52
387.78	226.48
388.15	226.42
388.53	226.38
388.91	226.39
389.29	226.34
389.66	226.33
390.04	226.27
390.42	226.23
390.79	226.21
391.17	226.23
391.55	226.13
391.92	226.11
392.30	226.11
392.68	226.05
393.05	226.09
393.43	226.08
393.81	226.10
394.18	226.07
394.56	226.06
394.94	226.14
395.31	226.14
395.69	226.19
396.06	226.22
396.44	226.25
396.82	226.24
397.19	226.31
397.57	226.35
397.95	226.40
398.32	226.41
398.70	226.45
399.07	226.51
399.45	226.56
399.82	226.63
400.20	226.71
400.58	226.82
400.95	226.84
401.33	226.95
401.70	227.11
402.08	227.22
402.45	227.33
402.83	227.42
403.20	227.53
403.58	227.61
403.95	227.76
404.33	227.91
404.71	228.05
405.08	228.24
405.46	228.35
405.83	228.51
406.21	228.67
406.58	228.85
406.96	229.00
407.33	229.20
407.70	229.39
408.08	229.68
408.45	229.88
408.83	230.15
409.20	230.35
409.58	230.52
409.95	230.81
410.33	231.09
410.70	231.34
411.08	231.68
411.45	231.97
411.82	232.27
412.20	232.62
412.57	233.03
412.95	233.32
413.32	233.75
413.69	234.16
414.07	234.65
414.44	235.14
414.82	235.64
415.19	236.16
415.56	236.73
415.94	237.26
416.31	237.93
416.68	238.56
417.06	239.27
417.43	239.96
417.81	240.74
418.18	241.52
418.55	242.39
418.93	243.22
419.30	244.17
419.67	245.15
420.04	246.11
420.42	247.14
420.79	248.36
421.16	249.50
421.54	250.69
421.91	251.86
422.28	253.11
422.66	254.43
423.03	255.77
423.40	257.08
423.77	258.48
424.15	259.93
424.52	261.42
424.89	263.08
425.26	264.60
425.64	266.03
426.01	267.63
426.38	269.27
426.75	270.98
427.13	272.68
427.50	274.49
427.87	276.36
428.24	278.21
428.61	279.92
428.99	281.90
429.36	283.99
429.73	286.05
430.10	288.03
430.47	290.09
430.85	292.17
431.22	294.38
431.59	296.75
431.96	298.92
432.33	301.39
432.70	303.75
433.08	306.57
433.45	309.21
433.82	311.80
434.19	314.71
434.56	317.50
434.93	320.17
435.30	322.76
435.68	325.69
436.05	328.51
436.42	331.37
436.79	333.87
437.16	336.57
437.53	339.40
437.90	342.23
438.27	345.00
438.64	347.86
439.01	350.47
439.38	352.74
439.75	354.91
440.13	357.41
440.50	359.75
440.87	361.59
441.24	363.48
441.61	365.58
441.98	367.00
442.35	368.77
442.72	370.55
443.09	372.35
443.46	373.28
443.83	373.84
444.20	374.22
444.57	375.02
444.94	375.30
445.31	375.60
445.68	375.90
446.05	375.96
446.42	375.52
446.79	375.11
447.16	374.60
447.53	374.31
447.90	373.14
448.27	371.85
448.64	370.28
449.01	369.18
449.37	367.22
449.74	365.36
450.11	363.10
450.48	360.69
450.85	358.15
451.22	356.02
451.59	354.00
451.96	352.09
452.33	349.48
452.70	347.09
453.07	344.28
453.43	341.41
453.80	338.62
454.17	335.98
454.54	333.42
454.91	330.73
455.28	328.07
455.65	325.59
456.02	323.26
456.38	321.09
456.75	318.42
457.12	316.18
457.49	313.94
457.86	311.81
458.23	309.97
458.59	307.92
458.96	305.84
459.33	304.00
459.70	302.19
460.07	300.73
460.43	299.10
460.80	297.52
461.17	296.09
461.54	294.62
461.91	293.19
462.27	291.76
462.64	290.54
463.01	289.14
463.38	287.87
463.74	286.51
464.11	285.39
464.48	284.37
464.85	283.31
465.21	282.49
465.58	281.60
465.95	280.49
466.32	279.60
466.68	278.75
467.05	277.89
467.42	276.99
467.78	276.06
468.15	275.20
468.52	274.54
468.88	273.70
469.25	272.93
469.62	272.33
469.98	271.65
470.35	271.02
470.72	270.47
471.08	269.79
471.45	269.23
471.82	268.69
472.18	268.13
472.55	267.70
472.92	267.16
473.28	266.68
473.65	266.24
474.02	265.79
474.38	265.43
474.75	265.09
475.11	264.75
475.48	264.46
475.85	264.20
476.21	263.97
476.58	263.79
476.94	263.62
477.31	263.43
477.67	263.29
478.04	263.18
478.41	263.12
478.77	263.17
479.14	263.13
479.50	263.14
479.87	263.20
480.23	263.26
480.60	263.33
480.96	263.41
481.33	263.63
481.69	263.86
482.06	264.00
482.42	264.19
482.79	264.48
483.15	264.80
483.52	265.16
483.88	265.51
484.25	265.87
484.61	266.35
484.98	266.83
485.34	267.37
485.71	267.93
486.07	268.49
486.44	269.01
486.80	269.68
487.17	270.38
487.53	271.15
487.90	271.99
488.26	272.89
488.62	273.87
488.99	274.80
489.35	275.81
489.72	276.94
490.08	278.13
490.44	279.31
490.81	280.65
491.17	281.99
491.54	283.45
491.90	285.00
492.26	286.59
492.63	288.29
492.99	290.06
493.36	291.98
493.72	294.05
494.08	296.15
494.45	298.39
494.81	300.75
495.17	303.21
495.54	305.77
495.90	308.48
496.26	311.32
496.63	314.29
496.99	317.40
497.35	320.65
497.72	324.08
498.08	327.64
498.44	331.35
498.80	335.28
499.17	339.34
499.53	343.53
499.89	347.90
500.26	352.44
500.62	357.14
500.98	362.08
501.34	367.17
501.71	372.55
502.07	378.05
502.43	383.70
502.79	389.50
503.16	395.54
503.52	401.86
503.88	408.26
504.24	414.95
504.60	421.89
504.97	429.06
505.33	436.37
505.69	444.07
506.05	451.85
506.41	459.76
506.78	467.92
507.14	476.35
507.50	485.10
507.86	494.21
508.22	503.45
508.59	512.75
508.95	522.37
509.31	532.21
509.67	542.33
510.03	552.63
510.39	563.27
510.75	574.10
511.12	585.06
511.48	596.41
511.84	607.84
512.20	619.35
512.56	631.29
512.92	643.54
513.28	655.89
513.64	668.38
514.00	681.12
514.37	694.12
514.73	707.19
515.09	720.22
515.45	733.45
515.81	747.09
516.17	761.05
516.53	775.23
516.89	789.38
517.25	803.51
517.61	817.93
517.97	832.34
518.33	846.77
518.69	861.53
519.05	876.45
519.41	891.71
519.77	907.34
520.13	922.78
520.49	938.07
520.85	953.52
521.21	969.23
521.57	985.38
521.93	1001.09
522.29	1017.48
522.65	1033.76
523.01	1049.91
523.37	1065.91
523.73	1082.02
524.09	1098.05
524.45	1114.35
524.81	1130.99
525.17	1147.81
525.53	1164.68
525.89	1181.58
526.25	1198.28
526.61	1214.56
526.97	1231.22
527.33	1247.62
527.68	1264.25
528.04	1280.78
528.40	1297.29
528.76	1314.31
529.12	1330.90
529.48	1347.72
529.84	1363.72
530.20	1380.31
530.56	1397.21
530.91	1414.52
531.27	1431.21
531.63	1447.54
531.99	1464.02
532.35	1480.00
532.71	1495.70
533.07	1512.01
533.42	1527.82
533.78	1543.88
534.14	1560.16
534.50	1575.44
534.86	1591.19
535.21	1606.20
535.57	1622.02
535.93	1637.48
536.29	1652.21
536.65	1667.15
537.00	1681.88
537.36	1697.09
537.72	1711.52
538.08	1725.95
538.44	1739.71
538.79	1753.49
539.15	1767.18
539.51	1780.90
539.87	1795.10
540.22	1808.82
540.58	1822.35
540.94	1835.59
541.29	1848.43
541.65	1861.06
542.01	1874.21
542.37	1886.49
542.72	1898.94
543.08	1910.54
543.44	1922.74
543.79	1933.96
544.15	1945.01
544.51	1956.59
544.87	1967.46
545.22	1978.27
545.58	1988.42
545.94	1997.96
546.29	2007.88
546.65	2017.75
547.01	2027.02
547.36	2035.66
547.72	2044.11
548.07	2051.92
548.43	2060.08
548.79	2068.18
549.14	2075.77
549.50	2082.93
549.86	2090.68
550.21	2097.91
550.57	2105.16
550.92	2111.93
551.28	2118.91
551.64	2125.86
551.99	2132.26
552.35	2138.42
552.70	2144.54
553.06	2150.54
553.41	2157.01
553.77	2162.93
554.13	2168.89
554.48	2175.09
554.84	2180.62
555.19	2185.91
555.55	2191.20
555.90	2195.65
556.26	2200.45
556.61	2205.26
556.97	2209.64
557.32	2213.59
557.68	2217.79
558.03	2222.19
558.39	2225.75
558.74	2230.46
559.10	2234.40
559.45	2238.09
559.81	2242.41
560.16	2246.33
560.52	2249.54
560.87	2252.98
561.23	2255.75
561.58	2258.71
561.94	2261.10
562.29	2263.55
562.64	2266.27
563.00	2268.76
563.35	2272.28
563.71	2275.50
564.06	2278.74
564.42	2281.59
564.77	2284.23
565.12	2286.52
565.48	2288.26
565.83	2290.19
566.19	2291.41
566.54	2292.35
566.89	2293.58
567.25	2294.18
567.60	2295.36
567.96	2297.07
568.31	2298.02
568.66	2299.01
569.02	2299.64
569.37	2300.06
569.72	2300.89
570.08	2301.12
570.43	2301.22
570.78	2300.71
571.14	2298.99
571.49	2297.53
571.84	2297.32
572.20	2296.18
572.55	2295.23
572.90	2293.80
573.26	2292.34
573.61	2290.75
573.96	2288.99
574.31	2285.88
574.67	2283.04
575.02	2279.44
575.37	2276.06
575.72	2272.22
576.08	2268.95
576.43	2265.64
576.78	2261.96
577.13	2258.74
577.49	2255.55
577.84	2252.06
578.19	2248.28
578.54	2244.80
578.90	2240.59
579.25	2235.09
579.60	2230.05
579.95	2224.94
580.30	2219.96
580.66	2214.92
581.01	2209.95
581.36	2205.16
581.71	2201.11
582.06	2196.63
582.42	2192.24
582.77	2187.09
583.12	2182.55
583.47	2177.91
583.82	2172.98
584.17	2167.80
584.53	2162.38
584.88	2156.73
585.23	2151.04
585.58	2145.60
585.93	2140.15
586.28	2135.50
586.63	2130.41
586.98	2125.50
587.34	2120.74
587.69	2115.90
588.04	2110.61
588.39	2104.88
588.74	2098.31
589.09	2092.20
589.44	2085.35
589.79	2079.37
590.14	2073.81
590.49	2067.16
590.84	2060.69
591.19	2054.67
591.54	2048.17
591.89	2040.77
592.25	2033.95
592.60	2026.75
592.95	2019.25
593.30	2011.89
593.65	2004.29
594.00	1997.22
594.35	1990.06
594.70	1982.10
595.05	1974.91
595.40	1967.74
595.75	1960.29
596.10	1954.10
596.45	1947.39
596.80	1941.35
597.15	1934.66
597.50	1927.56
597.85	1921.13
598.19	1914.55
598.54	1907.39
598.89	1900.79
599.24	1895.09
599.59	1888.50
599.94	1882.39
600.29	1876.02
600.64	1869.42
600.99	1861.89
601.34	1855.05
601.69	1848.03
602.04	1841.17
602.39	1833.75
602.74	1826.87
603.08	1820.09
603.43	1813.49
603.78	1806.18
604.13	1798.89
604.48	1791.55
604.83	1784.63
605.18	1777.69
605.53	1769.74
605.87	1761.81
606.22	1754.49
606.57	1746.36
606.92	1739.17
607.27	1731.90
607.62	1724.95
607.96	1717.73
608.31	1711.26
608.66	1703.79
609.01	1696.18
609.36	1688.59
609.70	1680.68
610.05	1672.57
610.40	1665.03
610.75	1656.45
611.10	1648.67
611.44	1640.34
611.79	1632.48
612.14	1623.90
612.49	1614.84
612.83	1606.49
613.18	1598.39
613.53	1590.37
613.88	1581.78
614.22	1573.52
614.57	1564.94
614.92	1557.03
615.27	1549.47
615.61	1541.02
615.96	1532.87
616.31	1525.31
616.65	1518.04
617.00	1510.40
617.35	1502.71
617.70	1494.32
618.04	1485.84
618.39	1477.74
618.74	1470.15
619.08	1461.77
619.43	1454.06
619.78	1447.13
620.12	1439.98
620.47	1432.39
620.82	1424.15
621.16	1416.81
621.51	1409.09
621.85	1401.50
622.20	1392.91
622.55	1384.55
622.89	1376.70
623.24	1369.13
623.59	1361.69
623.93	1354.08
624.28	1346.84
624.62	1339.38
624.97	1332.08
625.32	1325.46
625.66	1318.39
626.01	1311.14
626.35	1303.75
626.70	1296.11
627.04	1288.38
627.39	1280.54
627.73	1273.19
628.08	1266.42
628.43	1259.14
628.77	1251.89
629.12	1244.29
629.46	1237.12
629.81	1229.67
630.15	1222.40
630.50	1214.93
630.84	1206.63
631.19	1198.84
631.53	1191.39
631.88	1183.86
632.22	1176.30
632.57	1168.85
632.91	1161.26
633.26	1153.88
633.60	1146.45
633.95	1139.26
634.29	1132.16
634.64	1125.48
634.98	1118.10
635.32	1110.73
635.67	1104.19
636.01	1097.45
636.36	1090.52
636.70	1084.00
637.05	1077.46
637.39	1071.05
637.73	1064.58
638.08	1058.75
638.42	1052.63
638.77	1046.09
639.11	1039.47
639.45	1033.04
639.80	1026.41
640.14	1020.08
640.49	1013.51
640.83	1007.17
641.17	1000.92
641.52	994.50
641.86	988.02
642.20	982.06
642.55	975.82
642.89	969.26
643.23	962.74
643.58	956.98
643.92	950.83
644.26	944.72
644.61	938.75
644.95	932.71
645.29	926.07
645.64	919.36
645.98	913.13
646.32	907.30
646.66	901.34
647.01	895.59
647.35	889.82
647.69	883.98
648.04	878.48
648.38	872.71
648.72	866.82
649.06	860.76
649.41	854.91
649.75	849.03
650.09	843.10
650.43	837.28
650.78	831.15
651.12	825.19
651.46	819.44
651.80	813.61
652.14	808.14
652.49	802.84
652.83	797.57
653.17	791.91
653.51	786.14
653.85	780.73
654.20	775.07
654.54	769.09
654.88	763.34
655.22	757.46
655.56	751.81
655.90	746.28
656.25	741.04
656.59	735.65
656.93	730.48
657.27	725.28
657.61	719.86
657.95	714.77
658.29	709.65
658.64	704.36
658.98	699.07
659.32	693.68
659.66	688.47
660.00	683.20
660.34	678.18
660.68	673.30
661.02	668.28
661.36	663.54
661.70	658.98
662.05	654.59
662.39	650.24
662.73	645.74
663.07	641.43
663.41	636.98
663.75	632.51
664.09	627.93
664.43	623.53
664.77	619.43
665.11	615.17
665.45	610.99
665.79	606.96
666.13	602.82
666.47	598.69
666.81	594.57
667.15	590.43
667.49	586.50
667.83	582.66
668.17	578.71
668.51	574.66
668.85	570.72
669.19	566.90
669.53	563.02
669.87	559.12
670.21	555.40
670.55	551.79
670.89	548.36
671.23	544.94
671.57	541.45
671.91	537.88
672.25	534.42
672.58	530.97
672.92	527.52
673.26	524.33
673.60	521.19
673.94	518.00
674.28	515.14
674.62	512.22
674.96	509.13
675.30	506.26
675.64	503.33
675.97	500.51
676.31	497.64
676.65	494.71
676.99	492.01
677.33	489.14
677.67	486.36
678.01	483.35
678.34	480.37
678.68	477.50
679.02	474.66
679.36	471.88
679.70	469.12
680.04	466.45
680.37	463.57
680.71	460.71
681.05	458.12
681.39	455.36
681.73	452.68
682.06	450.13
682.40	447.50
682.74	444.96
683.08	442.37
683.42	439.72
683.75	437.29
684.09	434.73
684.43	432.27
684.77	429.77
685.10	427.36
685.44	425.03
685.78	422.70
686.12	420.47
686.45	418.17
686.79	415.88
687.13	413.60
687.46	411.47
687.80	409.33
688.14	407.08
688.48	404.99
688.81	402.74
689.15	400.57
689.49	398.45
689.82	396.39
690.16	394.33
690.50	392.44
690.83	390.50
691.17	388.53
691.51	386.61
691.84	384.76
692.18	382.86
692.52	380.87
692.85	378.94
693.19	377.05
693.52	375.22
693.86	373.41
694.20	371.68
694.53	369.89
694.87	368.05
695.21	366.29
695.54	364.48
695.88	362.80
696.21	361.12
696.55	359.41
696.88	357.71
697.22	356.05
697.56	354.39
697.89	352.70
698.23	351.11
698.56	349.49
698.90	347.89
699.23	346.23
699.57	344.73
699.90	343.19
700.24	341.68
700.58	340.18
700.91	338.65
701.25	337.19
701.58	335.81
701.92	334.47
702.25	333.10
702.59	331.75
702.92	330.41
703.26	329.11
703.59	327.84
703.93	326.66
704.26	325.41
704.60	324.11
704.93	322.85
705.26	321.60
705.60	320.41
705.93	319.23
706.27	318.18
706.60	317.11
706.94	316.02
707.27	314.87
707.61	313.77
707.94	312.77
708.27	311.66
708.61	310.60
708.94	309.57
709.28	308.57
709.61	307.60
709.94	306.62
710.28	305.57
710.61	304.60
710.95	303.54
711.28	302.59
711.61	301.66
711.95	300.75
712.28	299.78
712.61	298.81
712.95	297.89
713.28	297.06
713.61	296.19
713.95	295.29
714.28	294.43
714.61	293.56
714.95	292.70
715.28	291.88
715.61	290.99
715.95	290.15
716.28	289.28
716.61	288.42
716.95	287.62
717.28	286.92
717.61	286.13
717.94	285.39
718.28	284.64
718.61	283.92
718.94	283.23
719.27	282.57
719.61	281.94
719.94	281.30
720.27	280.55
720.60	279.87
720.94	279.26
721.27	278.69
721.60	278.11
721.93	277.50
722.27	276.91
722.60	276.36
722.93	275.80
723.26	275.30
723.59	274.78
723.93	274.20
724.26	273.64
724.59	273.12
724.92	272.63
725.25	272.12
725.59	271.61
725.92	271.08
726.25	270.57
726.58	270.06
726.91	269.55
727.24	269.07
727.57	268.63
727.91	268.12
728.24	267.64
728.57	267.18
728.90	266.73
729.23	266.26
729.56	265.85
729.89	265.37
730.22	264.84
730.55	264.37
730.89	263.97
731.22	263.49
731.55	263.05
731.88	262.61
732.21	262.17
732.54	261.75
732.87	261.31
733.20	260.93
733.53	260.58
733.86	260.22
734.19	259.84
734.52	259.44
734.85	259.15
735.18	258.73
735.51	258.32
735.84	257.98
736.17	257.63
736.50	257.19
736.83	256.94
737.16	256.60
737.49	256.25
737.82	255.88
738.15	255.58
738.48	255.23
738.81	254.90
739.14	254.56
739.47	254.25
739.80	253.95
740.13	253.61
740.46	253.25
740.79	252.89
741.12	252.53
741.45	252.21
741.78	251.85
742.11	251.59
742.44	251.27
742.77	250.96
743.10	250.62
743.43	250.34
743.75	249.95
744.08	249.84
744.41	249.59
744.74	249.31
745.07	248.98
745.40	248.73
745.73	248.51
746.06	248.26
746.39	247.99
746.71	247.71
747.04	247.47
747.37	247.18
747.70	246.96
748.03	246.77
748.36	246.55
748.68	246.30
749.01	246.02
749.34	245.82
749.67	245.59
750.00	245.38
750.33	245.21
750.65	245.01
750.98	244.65
751.31	244.42
751.64	244.22
751.97	244.07
752.29	243.87
752.62	243.58
752.95	243.35
753.28	243.12
753.60	242.93
753.93	242.74
754.26	242.58
754.59	242.33
754.91	242.07
755.24	241.83
755.57	241.65
755.90	241.52
756.22	241.31
756.55	241.10
756.88	240.90
757.20	240.68
757.53	240.47
757.86	240.33
758.19	240.18
758.51	240.03
758.84	239.81
759.17	239.62
759.49	239.47
759.82	239.33
760.15	239.16
760.47	239.04
760.80	238.85
761.13	238.70
761.45	238.56
761.78	238.45
762.11	238.34
762.43	238.18
762.76	238.00
763.08	237.86
763.41	237.76
763.74	237.65
764.06	237.51
764.39	237.39
764.71	237.19
765.04	237.04
765.37	236.87
765.69	236.76
766.02	236.65
766.34	236.51
766.67	236.38
767.00	236.29
767.32	236.18
767.65	236.14
767.97	236.01
768.30	235.91
768.62	235.77
768.95	235.65
769.27	235.53
769.60	235.43
769.92	235.32
770.25	235.16
770.57	235.02
770.90	234.90
771.22	234.79
771.55	234.71
771.87	234.62
772.20	234.53
772.52	234.52
772.85	234.55
773.17	234.46
773.50	234.31
773.82	234.21
774.15	234.12
774.47	234.00
774.80	233.94
775.12	233.84
775.45	233.81
775.77	233.71
776.09	233.64
776.42	233.54
776.74	233.50
777.07	233.44
777.39	233.42
777.72	233.37
778.04	233.31
778.36	233.26
778.69	233.22
779.01	233.17
779.33	233.00
779.66	232.80
779.98	232.72
780.31	232.74
780.63	232.72
780.95	232.66
781.28	232.56
781.60	232.46
781.92	232.40
782.25	232.32
782.57	232.30
782.89	232.25
783.22	232.22
783.54	232.15
783.86	232.09
784.19	232.03
784.51	231.99
784.83	231.93
785.16	231.89
785.48	231.83
785.80	231.80
786.12	231.79
786.45	231.75
786.77	231.72
787.09	231.62
787.42	231.54
787.74	231.48
788.06	231.48
788.38	231.45
788.71	231.40
789.03	231.36
789.35	231.30
789.67	231.26
789.99	231.24
790.32	231.18
790.64	231.17
790.96	231.18
791.28	231.10
791.61	231.05
791.93	231.01
792.25	230.96
792.57	230.98
792.89	230.92
793.21	230.90
793.54	230.82
793.86	230.79
794.18	230.78
794.50	230.75
794.82	230.67
795.14	230.65
795.47	230.62
795.79	230.60
796.11	230.56
796.43	230.52
796.75	230.45
797.07	230.41
797.39	230.33
797.71	230.22
798.04	230.22
798.36	230.20
798.68	230.16
799.00	230.13
799.32	230.03
799.64	230.02
799.96	229.95
800.28	229.98
800.60	229.95
800.92	229.88
801.24	229.83
801.56	229.84
801.89	229.80
802.21	229.79
802.53	229.71
802.85	229.69
803.17	229.68
803.49	229.65
803.81	229.60
804.13	229.61
804.45	229.58
804.77	229.53
805.09	229.53
805.41	229.51
805.73	229.44
806.05	229.39
806.37	229.34
806.69	229.35
807.01	229.29
807.33	229.28
807.65	229.24
807.97	229.28
808.28	229.22
808.60	229.17
808.92	229.14
809.24	229.19
809.56	229.16
809.88	229.11
810.20	229.09
810.52	229.11
810.84	229.05
811.16	229.01
811.48	228.95
811.80	228.94
812.12	228.92
812.43	228.95
812.75	228.95
813.07	228.91
813.39	228.86
813.71	228.85
814.03	228.79
814.35	228.76
814.67	228.68
814.98	228.66
815.30	228.63
815.62	228.60
815.94	228.51
816.26	228.52
816.58	228.48
816.89	228.49
817.21	228.46
817.53	228.43
817.85	228.42
818.17	228.46
818.48	228.40
818.80	228.39
819.12	228.33
819.44	228.29
819.76	228.27
820.07	228.27
820.39	228.24
820.71	228.26
821.03	228.26
821.34	228.23
821.66	228.22
821.98	228.22
822.30	228.24
822.61	228.26
822.93	228.22
823.25	228.21
823.57	228.17
823.88	228.17
824.20	228.18
824.52	228.18
824.83	228.15
825.15	228.13
825.47	228.10
825.79	228.12
826.10	228.10
826.42	228.09
826.74	228.09
827.05	228.11
827.37	228.08
827.69	228.04
828.00	228.04
828.32	228.03
828.64	228.00
828.95	227.98
829.27	227.94
829.58	227.91
829.90	227.93
830.22	227.94
830.53	227.91
830.85	227.90
831.17	227.85
831.48	227.83
831.80	227.79
832.11	227.79
832.43	227.76
832.75	227.75
833.06	227.80
833.38	227.74
833.69	227.74
834.01	227.75
834.32	227.77
834.64	227.78
834.96	227.78
835.27	227.79
835.59	227.78
835.90	227.77
836.22	227.79
836.53	227.76
836.85	227.69
837.16	227.80
837.48	227.80
837.79	227.85
838.11	227.85
838.42	227.89
838.74	227.87
839.05	227.86
839.37	227.86
839.68	227.81
840.00	227.81
840.31	227.78
840.63	227.72
840.94	227.73
841.26	227.70
841.57	227.68
841.88	227.69
842.20	227.65
842.51	227.64
842.83	227.62
843.14	227.69
843.46	227.69
843.77	227.60
844.08	227.58
844.40	227.55
844.71	227.55
845.03	227.51
845.34	227.52
845.65	227.49
845.97	227.50
846.28	227.49
846.60	227.50
846.91	227.48
847.22	227.47
847.54	227.47
847.85	227.45
848.16	227.42
848.48	227.39
848.79	227.42
849.10	227.40
849.42	227.43
849.73	227.34
850.04	227.36
850.36	227.32
850.67	227.32
850.98	227.33
851.30	227.32
851.61	227.33
851.92	227.31
852.23	227.34
852.55	227.33
852.86	227.32
853.17	227.32
853.49	227.34
853.80	227.40
854.11	227.43
854.42	227.47
854.74	227.46
855.05	227.48
855.36	227.44
855.67	227.48
855.99	227.48
856.30	227.57
856.61	227.54
856.92	227.56
857.23	227.54
857.55	227.52
857.86	227.50
858.17	227.54
858.48	227.51
858.79	227.52
859.11	227.53
859.42	227.51
859.73	227.50
860.04	227.47
860.35	227.44
860.66	227.38
860.98	227.35
861.29	227.37
861.60	227.33
861.91	227.35
862.22	227.31
862.53	227.29
862.84	227.21
863.16	227.25
863.47	227.23
863.78	227.22
864.09	227.21
864.40	227.22
864.71	227.18
865.02	227.20
865.33	227.16
865.64	227.12
865.95	227.15
866.27	227.18
866.58	227.18
866.89	227.18
867.20	227.19
867.51	227.17
867.82	227.17
868.13	227.18
868.44	227.16
868.75	227.16
869.06	227.15
869.37	227.13
869.68	227.10
869.99	227.11
870.30	227.13
870.61	227.14
870.92	227.15
871.23	227.12
871.54	227.14
871.85	227.19
872.16	227.21
872.47	227.19
872.78	227.12
873.09	227.12
873.40	227.11
873.71	227.10
874.02	227.09
874.33	227.07
874.64	227.08
874.95	227.10
875.26	227.08
875.56	227.08
875.87	227.12
876.18	227.11
876.49	227.19
876.80	227.19
877.11	227.17
877.42	227.15
877.73	227.17
878.04	227.13
878.35	227.09
878.66	227.13
878.96	227.11
879.27	227.14
879.58	227.15
879.89	227.15
880.20	227.18
880.51	227.22
880.82	227.23
881.12	227.22
881.43	227.16
881.74	227.20
882.05	227.20
882.36	227.18
882.67	227.17
882.97	227.06
883.28	227.03
883.59	227.04
883.90	227.04
884.21	227.02
884.51	227.03
884.82	227.04
885.13	227.03
885.44	227.05
885.74	227.06
886.05	227.04
886.36	227.04
886.67	227.04
886.98	227.05
887.28	227.04
887.59	227.06
887.90	227.05
888.20	227.03
888.51	227.03
888.82	227.02
889.13	227.03
889.43	227.13
889.74	227.11
890.05	227.12
890.35	227.13
890.66	227.15
890.97	227.15
891.28	227.14
891.58	227.15
891.89	227.12
892.20	227.12
892.50	227.11
892.81	227.08
893.12	227.05
893.42	227.01
893.73	227.04
894.04	227.02
894.34	227.04
894.65	227.04
894.95	227.05
895.26	227.03
895.57	227.07
895.87	226.98
896.18	227.01
896.48	227.01
896.79	227.00
897.10	227.01
897.40	226.99
897.71	226.98
898.01	226.96
898.32	226.96
898.63	226.97
898.93	226.95
899.24	226.95
899.54	226.95
899.85	226.96
900.15	226.93
900.46	226.94
900.76	226.95
901.07	226.91
901.38	226.90
901.68	226.91
901.99	226.86
902.29	226.85
902.60	226.85
902.90	226.85
903.21	226.85
903.51	226.80
903.82	226.83
904.12	226.85
904.43	226.83
904.73	226.83
905.03	226.81
905.34	226.94
905.64	226.97
905.95	226.98
906.25	226.97
906.56	226.98
906.86	226.98
907.17	226.99
907.47	227.02
907.77	226.97
908.08	226.97
908.38	226.97
908.69	226.99
908.99	226.98
909.30	226.97
909.60	226.97
909.90	226.98
910.21	226.93
910.51	226.90
910.81	226.90
911.12	226.90
911.42	226.93
911.73	226.84
912.03	226.79
912.33	226.79
912.64	226.79
912.94	226.77
913.24	226.76
913.55	226.75
913.85	226.73
914.15	226.77
914.46	226.77
914.76	226.77
915.06	226.75
915.37	226.74
915.67	226.73
915.97	226.73
916.27	226.74
916.58	226.75
916.88	226.77
917.18	226.73
917.49	226.80
917.79	226.80
918.09	226.80
918.39	226.85
918.70	226.86
919.00	226.85
919.30	226.89
919.60	226.87
919.91	226.83
920.21	226.85
920.51	226.83
920.81	226.84
921.12	226.85
921.42	226.86
921.72	226.87
922.02	226.88
922.32	226.90
922.63	226.89
922.93	226.94
923.23	226.96
923.53	226.98
923.83	226.89
924.13	226.87
924.44	226.86
924.74	226.87
925.04	226.89
925.34	226.92
925.64	226.89
925.94	226.91
926.24	226.97
926.55	226.96
926.85	226.99
927.15	226.98
927.45	226.99
927.75	227.00
928.05	227.05
928.35	227.04
928.65	227.04
928.95	227.07
929.26	227.05
929.56	227.05
929.86	227.09
930.16	227.10
930.46	227.09
930.76	227.08
931.06	227.00
931.36	226.97
931.66	226.97
931.96	226.97
932.26	226.98
932.56	226.96
932.86	226.97
933.16	226.94
933.46	226.93
933.76	226.91
934.06	226.91
934.36	226.92
934.66	226.92
934.96	226.90
935.26	226.88
935.56	226.86
935.86	226.85
936.16	226.81
936.46	226.81
936.76	226.81
937.06	226.81
937.36	226.85
937.66	226.85
937.96	226.83
938.26	226.83
938.56	226.82
938.86	226.82
939.16	226.84
939.46	226.85
939.76	226.87
940.06	226.86
940.35	226.85
940.65	226.76
940.95	226.76
941.25	226.73
941.55	226.72
941.85	226.73
942.15	226.77
942.45	226.78
942.75	226.80
943.04	226.81
943.34	226.81
943.64	226.78
943.94	226.80
944.24	226.81
944.54	226.81
944.84	226.80
945.13	226.79
945.43	226.75
945.73	226.74
946.03	226.72
946.33	226.70
946.62	226.66
946.92	226.68
947.22	226.70
947.52	226.70
947.82	226.74
948.11	226.70
948.41	226.65
948.71	226.63
949.01	226.60
949.31	226.58
949.60	226.58
949.90	226.60
950.20	226.57
950.50	226.55
950.79	226.54
951.09	226.53
951.39	226.52
951.69	226.51
951.98	226.54
952.28	226.52
952.58	226.51
952.87	226.53
953.17	226.55
953.47	226.53
953.76	226.53
954.06	226.51
954.36	226.52
954.66	226.51
954.95	226.54
955.25	226.57
955.55	226.57
955.84	226.58
956.14	226.58
956.44	226.54
956.73	226.53
957.03	226.56
957.32	226.55
957.62	226.53
957.92	226.58
958.21	226.56
958.51	226.66
958.81	226.71
959.10	226.72
959.40	226.73
959.69	226.76
959.99	226.79
960.29	226.80
960.58	226.77
960.88	226.82
961.17	226.79
961.47	226.77
961.76	226.74
962.06	226.74
962.36	226.73
962.65	226.76
962.95	226.79
963.24	226.75
963.54	226.76
963.83	226.75
964.13	226.72
964.42	226.70
964.72	226.63
965.01	226.61
965.31	226.59
965.60	226.57
965.90	226.61
966.19	226.55
966.49	226.54
966.78	226.55
967.08	226.51
967.37	226.53
967.67	226.52
967.96	226.56
968.26	226.56
968.55	226.56
968.85	226.53
969.14	226.50
969.43	226.51
969.73	226.51
970.02	226.51
970.32	226.50
970.61	226.52
970.91	226.47
971.20	226.45
971.49	226.46
971.79	226.46
972.08	226.40
972.38	226.43
972.67	226.44
972.96	226.44
973.26	226.43
973.55	226.44
973.85	226.46
974.14	226.46
974.43	226.48
974.73	226.46
975.02	226.48
975.31	226.50
975.61	226.50
975.90	226.49
976.19	226.52
976.49	226.54
976.78	226.55
977.07	226.57
977.37	226.57
977.66	226.60
977.95	226.58
978.24	226.59
978.54	226.64
978.83	226.62
979.12	226.63
979.42	226.64
979.71	226.62
980.00	226.62
980.29	226.65
980.59	226.62
980.88	226.67
981.17	226.67
981.46	226.68
981.76	226.68
982.05	226.71
982.34	226.72
982.63	226.68
982.93	226.67
983.22	226.70
983.51	226.75
983.80	226.73
984.09	226.76
984.39	226.73
984.68	226.68
984.97	226.70
985.26	226.67
985.55	226.67
985.85	226.66
986.14	226.67
986.43	226.64
986.72	226.62
987.01	226.58
987.30	226.58
987.59	226.58
987.89	226.60
988.18	226.54
988.47	226.53
988.76	226.54
989.05	226.54
989.34	226.54
989.63	226.56
989.92	226.54
990.22	226.52
990.51	226.53
990.80	226.54
991.09	226.54
991.38	226.57
991.67	226.58
991.96	226.56
992.25	226.57
992.54	226.61
992.83	226.60
993.12	226.58
993.41	226.58
993.70	226.62
993.99	226.64
994.28	226.67
994.58	226.67
994.87	226.66
995.16	226.66
995.45	226.64
995.74	226.57
996.03	226.59
996.32	226.61
996.61	226.63
996.90	226.62
997.19	226.61
997.48	226.60
997.77	226.57
998.06	226.61
998.34	226.60
998.63	226.58
998.92	226.59
999.21	226.63
999.50	226.67
999.79	226.62
1000.08	226.60
1000.37	226.60
1000.66	226.60
1000.95	226.62
1001.24	226.63
1001.53	226.65
1001.82	226.62
1002.11	226.62
1002.40	226.62
1002.68	226.63
1002.97	226.70
1003.26	226.67
1003.55	226.67
1003.84	226.69
1004.13	226.70
1004.42	226.66
1004.71	226.65
1004.99	226.66
1005.28	226.71
1005.57	226.65
1005.86	226.61
1006.15	226.61
1006.44	226.62
1006.72	226.62
1007.01	226.59
1007.30	226.60
1007.59	226.58
1007.88	226.61
1008.17	226.59
1008.45	226.56
1008.74	226.49
1009.03	226.41
1009.32	226.45
1009.60	226.45
1009.89	226.44
1010.18	226.39
1010.47	226.39
1010.76	226.41
1011.04	226.35
1011.33	226.32
1011.62	226.37
1011.91	226.41
1012.19	226.39
1012.48	226.38
1012.77	226.40
1013.05	226.47
1013.34	226.46
1013.63	226.47
1013.92	226.45
1014.20	226.47
1014.49	226.46
1014.78	226.50
1015.06	226.52
1015.35	226.50
1015.64	226.49
1015.92	226.50
1016.21	226.53
1016.50	226.53
1016.78	226.50
1017.07	226.53
1017.36	226.52
1017.64	226.48
1017.93	226.47
1018.22	226.44
1018.50	226.43
1018.79	226.40
1019.08	226.35
1019.36	226.36
1019.65	226.31
1019.93	226.33
1020.22	226.34
1020.51	226.42
1020.79	226.40
1021.08	225.74
1021.36	226.14
1021.65	226.45
1021.94	226.50
1022.22	226.58
1022.51	225.80
1022.79	226.30
1023.08	226.67
1023.36	227.81
1023.65	226.07
>>>>>End Processed Spectral Data<<<<<
