SpectraSuite Data File
++++++++++++++++++++++++++++++++++++
Date: Fri Feb 01 16:58:39 EST 2013
User: group
Dark Spectrum Present: No
Reference Spectrum Present: No
Number of Sampled Component Spectra: 1
Spectrometers: USB2E7196
Integration Time (usec): 35000 (USB2E7196)
Spectra Averaged: 100 (USB2E7196)
Boxcar Smoothing: 10 (USB2E7196)
Correct for Electrical Dark: No (USB2E7196)
Strobe/Lamp Enabled: No (USB2E7196)
Correct for Detector Non-linearity: No (USB2E7196)
Correct for Stray Light: No (USB2E7196)
Number of Pixels in Processed Spectrum: 2048
>>>>>Begin Processed Spectral Data<<<<<
339.09	0.00
339.48	212.96
339.86	214.71
340.24	215.53
340.63	218.02
341.01	220.90
341.39	219.85
341.78	221.60
342.16	222.34
342.54	222.91
342.93	211.73
343.31	222.44
343.69	223.00
344.07	223.49
344.46	223.96
344.84	224.29
345.22	224.52
345.60	224.79
345.99	224.99
346.37	225.15
346.75	225.27
347.13	225.35
347.52	225.46
347.90	225.51
348.28	225.53
348.66	225.57
349.05	225.57
349.43	225.62
349.81	225.69
350.19	225.73
350.57	225.77
350.96	225.84
351.34	225.93
351.72	226.01
352.10	226.12
352.48	226.16
352.87	226.22
353.25	226.25
353.63	226.34
354.01	226.41
354.39	226.52
354.77	226.61
355.15	226.71
355.54	226.75
355.92	226.86
356.30	226.95
356.68	227.10
357.06	227.16
357.44	227.22
357.82	227.30
358.20	227.37
358.58	227.41
358.97	227.48
359.35	227.53
359.73	227.60
360.11	227.63
360.49	227.70
360.87	227.80
361.25	227.86
361.63	227.91
362.01	227.95
362.39	227.94
362.77	227.97
363.15	227.97
363.53	227.99
363.91	227.98
364.29	227.98
364.67	227.91
365.05	227.94
365.43	227.94
365.81	227.90
366.19	227.93
366.57	227.97
366.95	227.96
367.33	227.93
367.71	227.91
368.09	227.93
368.47	227.91
368.85	227.84
369.23	227.86
369.61	227.75
369.99	227.76
370.37	227.74
370.75	227.77
371.13	227.73
371.51	227.69
371.89	227.64
372.27	227.60
372.65	227.55
373.03	227.48
373.41	227.44
373.78	227.39
374.16	227.26
374.54	227.15
374.92	227.07
375.30	227.04
375.68	226.95
376.06	226.88
376.44	226.82
376.82	226.75
377.19	226.63
377.57	226.59
377.95	226.46
378.33	226.37
378.71	226.23
379.09	226.18
379.47	226.11
379.84	226.02
380.22	225.93
380.60	225.82
380.98	225.74
381.36	225.66
381.73	225.58
382.11	225.55
382.49	225.52
382.87	225.44
383.25	225.36
383.62	225.43
384.00	225.33
384.38	225.32
384.76	225.29
385.13	225.32
385.51	225.29
385.89	225.23
386.27	225.21
386.64	225.16
387.02	225.09
387.40	225.04
387.78	225.03
388.15	225.01
388.53	225.01
388.91	225.01
389.29	224.96
389.66	224.97
390.04	224.93
390.42	224.92
390.79	224.89
391.17	224.86
391.55	224.71
391.92	224.69
392.30	224.65
392.68	224.61
393.05	224.60
393.43	224.60
393.81	224.62
394.18	224.58
394.56	224.60
394.94	224.67
395.31	224.66
395.69	224.69
396.06	224.69
396.44	224.72
396.82	224.71
397.19	224.81
397.57	224.82
397.95	224.88
398.32	224.86
398.70	224.94
399.07	225.02
399.45	225.10
399.82	225.17
400.20	225.26
400.58	225.36
400.95	225.36
401.33	225.41
401.70	225.60
402.08	225.73
402.45	225.80
402.83	225.89
403.20	226.00
403.58	226.10
403.95	226.24
404.33	226.36
404.71	226.50
405.08	226.67
405.46	226.81
405.83	226.95
406.21	227.14
406.58	227.33
406.96	227.48
407.33	227.65
407.70	227.86
408.08	228.10
408.45	228.31
408.83	228.57
409.20	228.82
409.58	228.95
409.95	229.20
410.33	229.47
410.70	229.71
411.08	230.04
411.45	230.37
411.82	230.70
412.20	231.06
412.57	231.49
412.95	231.75
413.32	232.13
413.69	232.54
414.07	232.96
414.44	233.40
414.82	233.87
415.19	234.43
415.56	234.98
415.94	235.53
416.31	236.20
416.68	236.84
417.06	237.53
417.43	238.23
417.81	238.99
418.18	239.79
418.55	240.62
418.93	241.45
419.30	242.34
419.67	243.28
420.04	244.23
420.42	245.21
420.79	246.44
421.16	247.61
421.54	248.79
421.91	250.03
422.28	251.26
422.66	252.56
423.03	253.85
423.40	255.16
423.77	256.56
424.15	257.94
424.52	259.39
424.89	260.98
425.26	262.50
425.64	263.94
426.01	265.51
426.38	267.14
426.75	268.80
427.13	270.50
427.50	272.26
427.87	274.10
428.24	275.91
428.61	277.61
428.99	279.53
429.36	281.61
429.73	283.67
430.10	285.69
430.47	287.76
430.85	289.85
431.22	292.04
431.59	294.38
431.96	296.61
432.33	299.05
432.70	301.40
433.08	304.19
433.45	306.77
433.82	309.34
434.19	312.21
434.56	314.99
434.93	317.61
435.30	320.21
435.68	323.07
436.05	325.91
436.42	328.70
436.79	331.22
437.16	333.86
437.53	336.64
437.90	339.44
438.27	342.17
438.64	344.99
439.01	347.58
439.38	349.85
439.75	351.96
440.13	354.45
440.50	356.79
440.87	358.61
441.24	360.58
441.61	362.74
441.98	364.22
442.35	366.05
442.72	367.91
443.09	369.74
443.46	370.77
443.83	371.31
444.20	371.79
444.57	372.61
444.94	372.94
445.31	373.29
445.68	373.61
446.05	373.71
446.42	373.36
446.79	372.96
447.16	372.49
447.53	372.21
447.90	371.10
448.27	369.95
448.64	368.43
449.01	367.30
449.37	365.38
449.74	363.50
450.11	361.27
450.48	358.81
450.85	356.29
451.22	354.14
451.59	352.19
451.96	350.28
452.33	347.71
452.70	345.38
453.07	342.58
453.43	339.70
453.80	336.96
454.17	334.30
454.54	331.75
454.91	329.08
455.28	326.44
455.65	323.93
456.02	321.53
456.38	319.37
456.75	316.71
457.12	314.45
457.49	312.30
457.86	310.14
458.23	308.30
458.59	306.27
458.96	304.24
459.33	302.40
459.70	300.55
460.07	299.03
460.43	297.32
460.80	295.71
461.17	294.31
461.54	292.83
461.91	291.36
462.27	289.94
462.64	288.71
463.01	287.32
463.38	286.06
463.74	284.69
464.11	283.56
464.48	282.59
464.85	281.52
465.21	280.66
465.58	279.77
465.95	278.68
466.32	277.81
466.68	276.90
467.05	276.02
467.42	275.15
467.78	274.26
468.15	273.44
468.52	272.79
468.88	271.96
469.25	271.21
469.62	270.65
469.98	270.03
470.35	269.43
470.72	268.86
471.08	268.22
471.45	267.71
471.82	267.16
472.18	266.53
472.55	266.09
472.92	265.56
473.28	265.04
473.65	264.63
474.02	264.21
474.38	263.87
474.75	263.58
475.11	263.23
475.48	262.99
475.85	262.77
476.21	262.52
476.58	262.35
476.94	262.18
477.31	262.02
477.67	261.86
478.04	261.71
478.41	261.65
478.77	261.65
479.14	261.60
479.50	261.61
479.87	261.72
480.23	261.78
480.60	261.86
480.96	262.00
481.33	262.20
481.69	262.39
482.06	262.58
482.42	262.74
482.79	263.02
483.15	263.30
483.52	263.65
483.88	264.00
484.25	264.38
484.61	264.83
484.98	265.27
485.34	265.85
485.71	266.45
486.07	267.08
486.44	267.65
486.80	268.33
487.17	269.09
487.53	269.93
487.90	270.80
488.26	271.75
488.62	272.75
488.99	273.69
489.35	274.70
489.72	275.82
490.08	277.03
490.44	278.25
490.81	279.56
491.17	280.90
491.54	282.38
491.90	283.90
492.26	285.51
492.63	287.21
492.99	288.98
493.36	290.86
493.72	292.89
494.08	295.03
494.45	297.28
494.81	299.64
495.17	302.02
495.54	304.57
495.90	307.18
496.26	309.95
496.63	312.93
496.99	316.01
497.35	319.26
497.72	322.64
498.08	326.12
498.44	329.79
498.80	333.75
499.17	337.77
499.53	341.93
499.89	346.28
500.26	350.75
500.62	355.41
500.98	360.35
501.34	365.41
501.71	370.65
502.07	376.08
502.43	381.61
502.79	387.38
503.16	393.45
503.52	399.71
503.88	406.07
504.24	412.68
504.60	419.56
504.97	426.71
505.33	433.97
505.69	441.65
506.05	449.36
506.41	457.16
506.78	465.22
507.14	473.61
507.50	482.26
507.86	491.18
508.22	500.31
508.59	509.44
508.95	518.89
509.31	528.66
509.67	538.63
510.03	548.87
510.39	559.35
510.75	569.97
511.12	580.81
511.48	592.04
511.84	603.33
512.20	614.66
512.56	626.42
512.92	638.45
513.28	650.69
513.64	663.02
514.00	675.57
514.37	688.43
514.73	701.33
515.09	714.18
515.45	727.32
515.81	740.66
516.17	754.49
516.53	768.50
516.89	782.43
517.25	796.32
517.61	810.48
517.97	824.72
518.33	838.98
518.69	853.51
519.05	868.20
519.41	883.11
519.77	898.40
520.13	913.53
520.49	928.70
520.85	943.72
521.21	959.13
521.57	975.10
521.93	990.56
522.29	1006.61
522.65	1022.62
523.01	1038.45
523.37	1054.19
523.73	1069.90
524.09	1085.70
524.45	1101.66
524.81	1118.08
525.17	1134.53
525.53	1151.07
525.89	1167.62
526.25	1184.16
526.61	1200.22
526.97	1216.62
527.33	1232.85
527.68	1249.14
528.04	1265.25
528.40	1281.55
528.76	1298.21
529.12	1314.43
529.48	1330.97
529.84	1346.62
530.20	1362.99
530.56	1379.73
530.91	1396.88
531.27	1413.45
531.63	1429.57
531.99	1445.88
532.35	1461.53
532.71	1477.08
533.07	1492.99
533.42	1508.52
533.78	1524.20
534.14	1540.22
534.50	1555.41
534.86	1570.95
535.21	1585.87
535.57	1601.38
535.93	1616.64
536.29	1631.31
536.65	1646.03
537.00	1660.46
537.36	1675.51
537.72	1689.67
538.08	1703.81
538.44	1717.28
538.79	1730.78
539.15	1744.00
539.51	1757.43
539.87	1771.43
540.22	1784.82
540.58	1798.27
540.94	1811.23
541.29	1823.80
541.65	1836.25
542.01	1849.00
542.37	1860.99
542.72	1873.17
543.08	1884.84
543.44	1896.98
543.79	1907.94
544.15	1918.75
544.51	1930.14
544.87	1940.87
545.22	1951.40
545.58	1961.44
545.94	1971.03
546.29	1980.82
546.65	1990.74
547.01	1999.84
547.36	2008.44
547.72	2016.86
548.07	2024.72
548.43	2032.89
548.79	2040.80
549.14	2048.12
549.50	2055.30
549.86	2062.91
550.21	2070.13
550.57	2077.31
550.92	2083.74
551.28	2090.70
551.64	2097.62
551.99	2104.09
552.35	2110.29
552.70	2116.43
553.06	2122.54
553.41	2128.87
553.77	2134.89
554.13	2140.76
554.48	2146.95
554.84	2152.52
555.19	2157.84
555.55	2163.09
555.90	2167.56
556.26	2172.69
556.61	2177.43
556.97	2182.06
557.32	2186.25
557.68	2190.32
558.03	2194.52
558.39	2198.33
558.74	2202.96
559.10	2207.01
559.45	2210.66
559.81	2214.86
560.16	2218.88
560.52	2222.07
560.87	2225.45
561.23	2228.25
561.58	2231.29
561.94	2233.85
562.29	2236.15
562.64	2239.03
563.00	2241.49
563.35	2245.19
563.71	2248.15
564.06	2251.38
564.42	2254.26
564.77	2256.87
565.12	2259.38
565.48	2261.56
565.83	2263.70
566.19	2265.25
566.54	2266.14
566.89	2267.50
567.25	2268.36
567.60	2269.66
567.96	2271.52
568.31	2272.37
568.66	2273.60
569.02	2274.34
569.37	2274.80
569.72	2275.88
570.08	2276.10
570.43	2276.46
570.78	2276.07
571.14	2274.81
571.49	2273.85
571.84	2273.59
572.20	2272.76
572.55	2271.89
572.90	2270.39
573.26	2269.03
573.61	2267.31
573.96	2265.94
574.31	2263.15
574.67	2260.46
575.02	2257.00
575.37	2253.65
575.72	2250.40
576.08	2247.15
576.43	2243.96
576.78	2240.52
577.13	2237.55
577.49	2234.51
577.84	2231.21
578.19	2227.51
578.54	2224.11
578.90	2220.02
579.25	2214.60
579.60	2209.87
579.95	2205.01
580.30	2200.12
580.66	2195.22
581.01	2190.53
581.36	2185.74
581.71	2181.85
582.06	2177.57
582.42	2173.40
582.77	2168.49
583.12	2164.06
583.47	2159.62
583.82	2154.92
584.17	2149.98
584.53	2144.68
584.88	2139.35
585.23	2133.79
585.58	2128.58
585.93	2123.26
586.28	2118.54
586.63	2113.77
586.98	2108.70
587.34	2104.10
587.69	2099.47
588.04	2094.47
588.39	2089.08
588.74	2082.78
589.09	2076.74
589.44	2070.20
589.79	2064.29
590.14	2058.78
590.49	2052.34
590.84	2046.07
591.19	2040.32
591.54	2033.89
591.89	2026.68
592.25	2020.15
592.60	2013.11
592.95	2005.76
593.30	1998.61
593.65	1991.27
594.00	1984.29
594.35	1977.31
594.70	1969.49
595.05	1962.47
595.40	1955.30
595.75	1948.01
596.10	1941.99
596.45	1935.52
596.80	1929.40
597.15	1923.01
597.50	1916.29
597.85	1909.94
598.19	1903.50
598.54	1896.53
598.89	1890.07
599.24	1884.33
599.59	1877.90
599.94	1871.81
600.29	1865.67
600.64	1859.13
600.99	1851.87
601.34	1845.35
601.69	1838.48
602.04	1831.80
602.39	1824.52
602.74	1817.74
603.08	1811.02
603.43	1804.29
603.78	1797.05
604.13	1790.06
604.48	1782.92
604.83	1776.03
605.18	1769.32
605.53	1761.44
605.87	1753.40
606.22	1746.26
606.57	1738.37
606.92	1731.08
607.27	1724.06
607.62	1717.13
607.96	1710.08
608.31	1703.67
608.66	1696.17
609.01	1688.80
609.36	1681.35
609.70	1673.48
610.05	1665.55
610.40	1658.00
610.75	1649.88
611.10	1642.31
611.44	1633.84
611.79	1625.90
612.14	1617.35
612.49	1608.12
612.83	1599.87
613.18	1591.96
613.53	1584.03
613.88	1575.62
614.22	1567.43
614.57	1558.88
614.92	1550.90
615.27	1543.46
615.61	1535.16
615.96	1527.11
616.31	1519.34
616.65	1512.02
617.00	1504.52
617.35	1496.93
617.70	1488.75
618.04	1480.22
618.39	1471.99
618.74	1464.48
619.08	1456.25
619.43	1448.68
619.78	1441.84
620.12	1434.62
620.47	1427.09
620.82	1418.91
621.16	1411.43
621.51	1403.71
621.85	1396.06
622.20	1387.55
622.55	1379.13
622.89	1371.24
623.24	1363.57
623.59	1356.22
623.93	1348.64
624.28	1341.34
624.62	1333.84
624.97	1326.62
625.32	1319.88
625.66	1312.88
626.01	1305.65
626.35	1298.21
626.70	1290.44
627.04	1282.76
627.39	1275.02
627.73	1267.60
628.08	1260.66
628.43	1253.48
628.77	1246.18
629.12	1238.70
629.46	1231.62
629.81	1224.15
630.15	1216.95
630.50	1209.66
630.84	1201.63
631.19	1193.85
631.53	1186.45
631.88	1178.87
632.22	1171.32
632.57	1164.02
632.91	1156.54
633.26	1149.20
633.60	1141.77
633.95	1134.62
634.29	1127.50
634.64	1120.81
634.98	1113.51
635.32	1106.45
635.67	1099.79
636.01	1093.15
636.36	1086.34
636.70	1079.76
637.05	1073.24
637.39	1066.80
637.73	1060.38
638.08	1054.43
638.42	1048.34
638.77	1041.88
639.11	1035.38
639.45	1028.89
639.80	1022.31
640.14	1015.88
640.49	1009.53
640.83	1003.32
641.17	997.17
641.52	990.93
641.86	984.39
642.20	978.56
642.55	972.19
642.89	965.81
643.23	959.26
643.58	953.52
643.92	947.36
644.26	941.32
644.61	935.27
644.95	929.25
645.29	922.68
645.64	916.04
645.98	909.77
646.32	903.90
646.66	897.97
647.01	892.17
647.35	886.50
647.69	880.55
648.04	875.02
648.38	869.20
648.72	863.24
649.06	857.34
649.41	851.43
649.75	845.44
650.09	839.52
650.43	833.79
650.78	827.65
651.12	821.70
651.46	816.06
651.80	810.42
652.14	805.00
652.49	799.66
652.83	794.54
653.17	788.91
653.51	783.27
653.85	777.86
654.20	772.26
654.54	766.26
654.88	760.49
655.22	754.58
655.56	748.95
655.90	743.44
656.25	738.20
656.59	732.83
656.93	727.89
657.27	722.75
657.61	717.36
657.95	712.28
658.29	707.25
658.64	702.00
658.98	696.68
659.32	691.27
659.66	686.10
660.00	680.75
660.34	675.73
660.68	670.79
661.02	665.78
661.36	661.06
661.70	656.55
662.05	652.22
662.39	647.96
662.73	643.48
663.07	639.17
663.41	634.75
663.75	630.30
664.09	625.78
664.43	621.42
664.77	617.33
665.11	613.09
665.45	608.94
665.79	604.88
666.13	600.72
666.47	596.58
666.81	592.48
667.15	588.36
667.49	584.52
667.83	580.72
668.17	576.72
668.51	572.70
668.85	568.75
669.19	564.92
669.53	561.09
669.87	557.30
670.21	553.62
670.55	549.98
670.89	546.56
671.23	543.07
671.57	539.53
671.91	535.96
672.25	532.44
672.58	528.94
672.92	525.51
673.26	522.31
673.60	519.19
673.94	516.04
674.28	513.18
674.62	510.26
674.96	507.14
675.30	504.33
675.64	501.39
675.97	498.53
676.31	495.65
676.65	492.69
676.99	489.98
677.33	487.08
677.67	484.32
678.01	481.30
678.34	478.35
678.68	475.47
679.02	472.72
679.36	469.98
679.70	467.30
680.04	464.57
680.37	461.79
680.71	459.01
681.05	456.35
681.39	453.64
681.73	450.99
682.06	448.49
682.40	445.93
682.74	443.41
683.08	440.92
683.42	438.33
683.75	435.85
684.09	433.31
684.43	430.81
684.77	428.30
685.10	425.93
685.44	423.60
685.78	421.31
686.12	419.04
686.45	416.76
686.79	414.40
687.13	412.22
687.46	410.03
687.80	407.85
688.14	405.69
688.48	403.67
688.81	401.41
689.15	399.24
689.49	397.08
689.82	394.99
690.16	392.87
690.50	390.96
690.83	389.00
691.17	386.99
691.51	385.13
691.84	383.32
692.18	381.41
692.52	379.47
692.85	377.49
693.19	375.56
693.52	373.73
693.86	371.94
694.20	370.12
694.53	368.39
694.87	366.53
695.21	364.74
695.54	362.87
695.88	361.16
696.21	359.45
696.55	357.78
696.88	356.07
697.22	354.43
697.56	352.79
697.89	351.14
698.23	349.54
698.56	347.96
698.90	346.38
699.23	344.78
699.57	343.23
699.90	341.76
700.24	340.26
700.58	338.73
700.91	337.25
701.25	335.80
701.58	334.37
701.92	333.03
702.25	331.65
702.59	330.26
702.92	328.93
703.26	327.63
703.59	326.36
703.93	325.18
704.26	323.94
704.60	322.65
704.93	321.40
705.26	320.16
705.60	318.95
705.93	317.75
706.27	316.70
706.60	315.63
706.94	314.55
707.27	313.41
707.61	312.31
707.94	311.29
708.27	310.19
708.61	309.10
708.94	308.07
709.28	307.09
709.61	306.14
709.94	305.18
710.28	304.17
710.61	303.21
710.95	302.13
711.28	301.21
711.61	300.27
711.95	299.33
712.28	298.41
712.61	297.45
712.95	296.52
713.28	295.60
713.61	294.68
713.95	293.82
714.28	293.01
714.61	292.19
714.95	291.31
715.28	290.49
715.61	289.60
715.95	288.78
716.28	287.93
716.61	287.07
716.95	286.26
717.28	285.46
717.61	284.65
717.94	283.92
718.28	283.11
718.61	282.37
718.94	281.67
719.27	280.96
719.61	280.33
719.94	279.67
720.27	278.94
720.60	278.35
720.94	277.70
721.27	277.08
721.60	276.49
721.93	275.95
722.27	275.37
722.60	274.84
722.93	274.25
723.26	273.70
723.59	273.18
723.93	272.63
724.26	272.06
724.59	271.53
724.92	271.02
725.25	270.52
725.59	270.01
725.92	269.52
726.25	269.06
726.58	268.52
726.91	268.03
727.24	267.60
727.57	267.07
727.91	266.56
728.24	266.08
728.57	265.60
728.90	265.11
729.23	264.63
729.56	264.19
729.89	263.74
730.22	263.25
730.55	262.77
730.89	262.32
731.22	261.91
731.55	261.46
731.88	261.02
732.21	260.59
732.54	260.13
732.87	259.71
733.20	259.28
733.53	258.85
733.86	258.46
734.19	258.05
734.52	257.68
734.85	257.38
735.18	256.98
735.51	256.60
735.84	256.22
736.17	255.88
736.50	255.52
736.83	255.26
737.16	254.96
737.49	254.61
737.82	254.30
738.15	253.99
738.48	253.68
738.81	253.33
739.14	253.02
739.47	252.73
739.80	252.44
740.13	252.15
740.46	251.85
740.79	251.57
741.12	251.26
741.45	250.96
741.78	250.60
742.11	250.30
742.44	249.96
742.77	249.69
743.10	249.40
743.43	249.07
743.75	248.68
744.08	248.55
744.41	248.28
744.74	247.97
745.07	247.66
745.40	247.43
745.73	247.22
746.06	246.95
746.39	246.67
746.71	246.42
747.04	246.10
747.37	245.87
747.70	245.60
748.03	245.34
748.36	245.10
748.68	244.82
749.01	244.59
749.34	244.41
749.67	244.17
750.00	243.93
750.33	243.79
750.65	243.61
750.98	243.23
751.31	243.06
751.64	242.85
751.97	242.69
752.29	242.45
752.62	242.19
752.95	241.96
753.28	241.77
753.60	241.55
753.93	241.41
754.26	241.23
754.59	241.01
754.91	240.79
755.24	240.60
755.57	240.43
755.90	240.24
756.22	240.03
756.55	239.80
756.88	239.59
757.20	239.35
757.53	239.16
757.86	239.00
758.19	238.81
758.51	238.63
758.84	238.40
759.17	238.22
759.49	238.05
759.82	237.91
760.15	237.75
760.47	237.58
760.80	237.43
761.13	237.26
761.45	237.12
761.78	237.00
762.11	236.86
762.43	236.74
762.76	236.59
763.08	236.49
763.41	236.39
763.74	236.28
764.06	236.15
764.39	235.99
764.71	235.84
765.04	235.70
765.37	235.59
765.69	235.46
766.02	235.31
766.34	235.22
766.67	235.11
767.00	235.00
767.32	234.95
767.65	234.87
767.97	234.79
768.30	234.68
768.62	234.54
768.95	234.44
769.27	234.33
769.60	234.25
769.92	234.10
770.25	233.98
770.57	233.87
770.90	233.74
771.22	233.64
771.55	233.53
771.87	233.43
772.20	233.31
772.52	233.34
772.85	233.38
773.17	233.27
773.50	233.17
773.82	233.08
774.15	232.95
774.47	232.80
774.80	232.68
775.12	232.64
775.45	232.58
775.77	232.50
776.09	232.44
776.42	232.36
776.74	232.30
777.07	232.24
777.39	232.16
777.72	232.11
778.04	232.07
778.36	232.00
778.69	231.96
779.01	231.92
779.33	231.75
779.66	231.56
779.98	231.50
780.31	231.44
780.63	231.38
780.95	231.36
781.28	231.28
781.60	231.22
781.92	231.12
782.25	231.06
782.57	230.99
782.89	230.92
783.22	230.83
783.54	230.77
783.86	230.71
784.19	230.65
784.51	230.62
784.83	230.56
785.16	230.54
785.48	230.48
785.80	230.43
786.12	230.38
786.45	230.36
786.77	230.31
787.09	230.28
787.42	230.19
787.74	230.13
788.06	230.06
788.38	230.01
788.71	229.96
789.03	229.93
789.35	229.90
789.67	229.82
789.99	229.79
790.32	229.74
790.64	229.68
790.96	229.75
791.28	229.67
791.61	229.60
791.93	229.54
792.25	229.49
792.57	229.53
792.89	229.46
793.21	229.41
793.54	229.37
793.86	229.31
794.18	229.28
794.50	229.21
794.82	229.19
795.14	229.14
795.47	229.14
795.79	229.09
796.11	229.01
796.43	228.98
796.75	228.96
797.07	228.92
797.39	228.88
797.71	228.72
798.04	228.69
798.36	228.67
798.68	228.62
799.00	228.58
799.32	228.48
799.64	228.51
799.96	228.47
800.28	228.44
800.60	228.37
800.92	228.38
801.24	228.36
801.56	228.33
801.89	228.31
802.21	228.23
802.53	228.16
802.85	228.18
803.17	228.21
803.49	228.12
803.81	228.10
804.13	228.08
804.45	228.06
804.77	228.04
805.09	228.01
805.41	228.00
805.73	227.94
806.05	227.89
806.37	227.83
806.69	227.76
807.01	227.76
807.33	227.75
807.65	227.66
807.97	227.66
808.28	227.65
808.60	227.60
808.92	227.57
809.24	227.64
809.56	227.57
809.88	227.49
810.20	227.48
810.52	227.46
810.84	227.44
811.16	227.40
811.48	227.35
811.80	227.39
812.12	227.38
812.43	227.39
812.75	227.37
813.07	227.36
813.39	227.35
813.71	227.32
814.03	227.30
814.35	227.31
814.67	227.25
814.98	227.24
815.30	227.24
815.62	227.25
815.94	227.15
816.26	227.18
816.58	227.19
816.89	227.21
817.21	227.21
817.53	227.19
817.85	227.19
818.17	227.21
818.48	227.14
818.80	227.10
819.12	227.09
819.44	227.08
819.76	227.05
820.07	227.03
820.39	227.00
820.71	227.00
821.03	227.01
821.34	226.99
821.66	226.99
821.98	226.98
822.30	226.94
822.61	226.99
822.93	226.93
823.25	226.90
823.57	226.86
823.88	226.88
824.20	226.87
824.52	226.90
824.83	226.88
825.15	226.84
825.47	226.84
825.79	226.84
826.10	226.83
826.42	226.80
826.74	226.84
827.05	226.84
827.37	226.81
827.69	226.78
828.00	226.80
828.32	226.80
828.64	226.78
828.95	226.83
829.27	226.77
829.58	226.74
829.90	226.75
830.22	226.75
830.53	226.68
830.85	226.65
831.17	226.59
831.48	226.57
831.80	226.59
832.11	226.56
832.43	226.51
832.75	226.46
833.06	226.52
833.38	226.48
833.69	226.48
834.01	226.50
834.32	226.46
834.64	226.40
834.96	226.35
835.27	226.33
835.59	226.26
835.90	226.23
836.22	226.22
836.53	226.16
836.85	226.13
837.16	226.25
837.48	226.23
837.79	226.25
838.11	226.26
838.42	226.25
838.74	226.27
839.05	226.28
839.37	226.28
839.68	226.20
840.00	226.17
840.31	226.15
840.63	226.12
840.94	226.12
841.26	226.13
841.57	226.13
841.88	226.15
842.20	226.13
842.51	226.14
842.83	226.14
843.14	226.25
843.46	226.27
843.77	226.16
844.08	226.15
844.40	226.09
844.71	226.04
845.03	226.03
845.34	226.02
845.65	226.00
845.97	226.02
846.28	225.99
846.60	225.99
846.91	225.95
847.22	225.95
847.54	225.97
847.85	225.97
848.16	225.94
848.48	225.92
848.79	225.94
849.10	225.94
849.42	225.94
849.73	225.82
850.04	225.79
850.36	225.76
850.67	225.77
850.98	225.80
851.30	225.81
851.61	225.80
851.92	225.76
852.23	225.79
852.55	225.77
852.86	225.77
853.17	225.76
853.49	225.80
853.80	225.78
854.11	225.76
854.42	225.76
854.74	225.77
855.05	225.76
855.36	225.70
855.67	225.71
855.99	225.70
856.30	225.83
856.61	225.87
856.92	225.90
857.23	225.92
857.55	225.89
857.86	225.89
858.17	225.92
858.48	225.93
858.79	225.87
859.11	225.88
859.42	225.90
859.73	225.88
860.04	225.84
860.35	225.84
860.66	225.79
860.98	225.81
861.29	225.81
861.60	225.76
861.91	225.79
862.22	225.78
862.53	225.71
862.84	225.59
863.16	225.58
863.47	225.56
863.78	225.54
864.09	225.56
864.40	225.56
864.71	225.54
865.02	225.54
865.33	225.55
865.64	225.54
865.95	225.55
866.27	225.64
866.58	225.61
866.89	225.62
867.20	225.64
867.51	225.60
867.82	225.60
868.13	225.66
868.44	225.62
868.75	225.60
869.06	225.67
869.37	225.64
869.68	225.59
869.99	225.59
870.30	225.59
870.61	225.59
870.92	225.55
871.23	225.50
871.54	225.50
871.85	225.52
872.16	225.51
872.47	225.49
872.78	225.42
873.09	225.42
873.40	225.42
873.71	225.42
874.02	225.44
874.33	225.43
874.64	225.38
874.95	225.41
875.26	225.40
875.56	225.36
875.87	225.37
876.18	225.36
876.49	225.44
876.80	225.40
877.11	225.38
877.42	225.38
877.73	225.41
878.04	225.40
878.35	225.41
878.66	225.43
878.96	225.43
879.27	225.45
879.58	225.46
879.89	225.43
880.20	225.46
880.51	225.46
880.82	225.47
881.12	225.48
881.43	225.45
881.74	225.48
882.05	225.49
882.36	225.51
882.67	225.54
882.97	225.45
883.28	225.47
883.59	225.47
883.90	225.51
884.21	225.53
884.51	225.55
884.82	225.52
885.13	225.52
885.44	225.55
885.74	225.54
886.05	225.54
886.36	225.58
886.67	225.56
886.98	225.60
887.28	225.58
887.59	225.62
887.90	225.65
888.20	225.62
888.51	225.65
888.82	225.64
889.13	225.65
889.43	225.72
889.74	225.74
890.05	225.77
890.35	225.74
890.66	225.74
890.97	225.75
891.28	225.73
891.58	225.72
891.89	225.67
892.20	225.67
892.50	225.65
892.81	225.65
893.12	225.63
893.42	225.61
893.73	225.63
894.04	225.60
894.34	225.61
894.65	225.63
894.95	225.59
895.26	225.59
895.57	225.62
895.87	225.51
896.18	225.50
896.48	225.47
896.79	225.47
897.10	225.48
897.40	225.48
897.71	225.46
898.01	225.45
898.32	225.48
898.63	225.45
898.93	225.48
899.24	225.46
899.54	225.44
899.85	225.39
900.15	225.37
900.46	225.36
900.76	225.32
901.07	225.32
901.38	225.29
901.68	225.31
901.99	225.28
902.29	225.30
902.60	225.27
902.90	225.24
903.21	225.24
903.51	225.19
903.82	225.18
904.12	225.18
904.43	225.19
904.73	225.15
905.03	225.17
905.34	225.24
905.64	225.23
905.95	225.24
906.25	225.22
906.56	225.23
906.86	225.24
907.17	225.27
907.47	225.29
907.77	225.30
908.08	225.23
908.38	225.21
908.69	225.19
908.99	225.20
909.30	225.21
909.60	225.19
909.90	225.17
910.21	225.12
910.51	225.12
910.81	225.10
911.12	225.12
911.42	225.10
911.73	224.98
912.03	225.00
912.33	225.01
912.64	225.01
912.94	225.01
913.24	224.97
913.55	224.93
913.85	224.91
914.15	224.95
914.46	225.02
914.76	225.02
915.06	225.04
915.37	225.04
915.67	225.03
915.97	225.04
916.27	225.06
916.58	225.11
916.88	225.12
917.18	225.11
917.49	225.21
917.79	225.22
918.09	225.27
918.39	225.31
918.70	225.33
919.00	225.34
919.30	225.38
919.60	225.43
919.91	225.46
920.21	225.44
920.51	225.42
920.81	225.44
921.12	225.49
921.42	225.49
921.72	225.49
922.02	225.53
922.32	225.57
922.63	225.60
922.93	225.65
923.23	225.68
923.53	225.72
923.83	225.64
924.13	225.69
924.44	225.71
924.74	225.73
925.04	225.75
925.34	225.76
925.64	225.72
925.94	225.71
926.24	225.79
926.55	225.81
926.85	225.83
927.15	225.82
927.45	225.82
927.75	225.86
928.05	225.86
928.35	225.86
928.65	225.90
928.95	225.89
929.26	225.85
929.56	225.89
929.86	225.89
930.16	225.88
930.46	225.88
930.76	225.87
931.06	225.81
931.36	225.83
931.66	225.85
931.96	225.88
932.26	225.90
932.56	225.80
932.86	225.80
933.16	225.80
933.46	225.78
933.76	225.77
934.06	225.77
934.36	225.85
934.66	225.82
934.96	225.77
935.26	225.78
935.56	225.79
935.86	225.70
936.16	225.68
936.46	225.66
936.76	225.62
937.06	225.59
937.36	225.60
937.66	225.58
937.96	225.55
938.26	225.50
938.56	225.49
938.86	225.51
939.16	225.52
939.46	225.52
939.76	225.53
940.06	225.51
940.35	225.46
940.65	225.36
940.95	225.40
941.25	225.35
941.55	225.34
941.85	225.27
942.15	225.34
942.45	225.36
942.75	225.32
943.04	225.33
943.34	225.32
943.64	225.28
943.94	225.21
944.24	225.16
944.54	225.11
944.84	225.09
945.13	225.08
945.43	225.03
945.73	225.03
946.03	225.01
946.33	224.99
946.62	224.98
946.92	224.98
947.22	224.94
947.52	224.95
947.82	224.94
948.11	224.95
948.41	224.89
948.71	224.84
949.01	224.85
949.31	224.80
949.60	224.81
949.90	224.78
950.20	224.81
950.50	224.86
950.79	224.89
951.09	224.87
951.39	224.85
951.69	224.85
951.98	224.84
952.28	224.83
952.58	224.83
952.87	224.82
953.17	224.83
953.47	224.84
953.76	224.82
954.06	224.79
954.36	224.79
954.66	224.81
954.95	224.83
955.25	224.86
955.55	224.88
955.84	224.89
956.14	224.93
956.44	224.95
956.73	224.91
957.03	224.91
957.32	224.93
957.62	224.94
957.92	225.00
958.21	225.02
958.51	225.14
958.81	225.15
959.10	225.19
959.40	225.22
959.69	225.25
959.99	225.29
960.29	225.31
960.58	225.34
960.88	225.40
961.17	225.43
961.47	225.45
961.76	225.46
962.06	225.51
962.36	225.55
962.65	225.58
962.95	225.61
963.24	225.60
963.54	225.64
963.83	225.68
964.13	225.64
964.42	225.62
964.72	225.57
965.01	225.57
965.31	225.59
965.60	225.61
965.90	225.68
966.19	225.66
966.49	225.69
966.78	225.66
967.08	225.64
967.37	225.62
967.67	225.61
967.96	225.64
968.26	225.60
968.55	225.60
968.85	225.58
969.14	225.62
969.43	225.63
969.73	225.59
970.02	225.56
970.32	225.59
970.61	225.60
970.91	225.54
971.20	225.53
971.49	225.52
971.79	225.48
972.08	225.39
972.38	225.39
972.67	225.39
972.96	225.43
973.26	225.42
973.55	225.50
973.85	225.50
974.14	225.49
974.43	225.51
974.73	225.50
975.02	225.49
975.31	225.47
975.61	225.48
975.90	225.47
976.19	225.49
976.49	225.49
976.78	225.48
977.07	225.49
977.37	225.49
977.66	225.49
977.95	225.49
978.24	225.46
978.54	225.46
978.83	225.44
979.12	225.42
979.42	225.40
979.71	225.32
980.00	225.29
980.29	225.28
980.59	225.24
980.88	225.22
981.17	225.20
981.46	225.21
981.76	225.20
982.05	225.22
982.34	225.18
982.63	225.16
982.93	225.15
983.22	225.15
983.51	225.16
983.80	225.15
984.09	225.15
984.39	225.17
984.68	225.15
984.97	225.12
985.26	225.09
985.55	225.07
985.85	225.07
986.14	225.06
986.43	225.06
986.72	225.04
987.01	224.98
987.30	224.98
987.59	224.94
987.89	224.93
988.18	224.89
988.47	224.92
988.76	224.92
989.05	224.92
989.34	224.92
989.63	224.94
989.92	224.94
990.22	224.90
990.51	224.91
990.80	224.92
991.09	224.95
991.38	224.97
991.67	224.98
991.96	224.99
992.25	225.04
992.54	225.00
992.83	225.04
993.12	225.10
993.41	225.12
993.70	225.19
993.99	225.23
994.28	225.26
994.58	225.23
994.87	225.22
995.16	225.21
995.45	225.20
995.74	225.16
996.03	225.16
996.32	225.22
996.61	225.23
996.90	225.24
997.19	225.23
997.48	225.26
997.77	225.27
998.06	225.27
998.34	225.25
998.63	225.29
998.92	225.28
999.21	225.31
999.50	225.32
999.79	225.26
1000.08	225.27
1000.37	225.29
1000.66	225.31
1000.95	225.37
1001.24	225.37
1001.53	225.40
1001.82	225.39
1002.11	225.40
1002.40	225.41
1002.68	225.44
1002.97	225.54
1003.26	225.52
1003.55	225.47
1003.84	225.47
1004.13	225.49
1004.42	225.49
1004.71	225.51
1004.99	225.50
1005.28	225.50
1005.57	225.48
1005.86	225.49
1006.15	225.47
1006.44	225.45
1006.72	225.47
1007.01	225.41
1007.30	225.42
1007.59	225.39
1007.88	225.40
1008.17	225.41
1008.45	225.35
1008.74	225.30
1009.03	225.22
1009.32	225.23
1009.60	225.22
1009.89	225.21
1010.18	225.17
1010.47	225.14
1010.76	225.11
1011.04	225.10
1011.33	225.10
1011.62	225.11
1011.91	225.11
1012.19	225.08
1012.48	225.06
1012.77	225.02
1013.05	225.10
1013.34	225.09
1013.63	225.08
1013.92	225.06
1014.20	225.04
1014.49	225.03
1014.78	225.05
1015.06	225.04
1015.35	225.04
1015.64	225.05
1015.92	225.06
1016.21	225.06
1016.50	225.06
1016.78	225.09
1017.07	225.09
1017.36	225.06
1017.64	225.04
1017.93	225.03
1018.22	225.00
1018.50	225.00
1018.79	225.02
1019.08	224.93
1019.36	224.93
1019.65	224.92
1019.93	224.94
1020.22	224.95
1020.51	225.04
1020.79	224.99
1021.08	224.37
1021.36	224.45
1021.65	225.42
1021.94	224.56
1022.22	224.93
1022.51	224.77
1022.79	225.21
1023.08	224.95
1023.36	226.50
1023.65	224.53
>>>>>End Processed Spectral Data<<<<<
