SpectraSuite Data File
++++++++++++++++++++++++++++++++++++
Date: Fri Feb 01 18:08:58 EST 2013
User: group
Dark Spectrum Present: No
Reference Spectrum Present: No
Number of Sampled Component Spectra: 1
Spectrometers: USB2E7196
Integration Time (usec): 35000 (USB2E7196)
Spectra Averaged: 100 (USB2E7196)
Boxcar Smoothing: 10 (USB2E7196)
Correct for Electrical Dark: No (USB2E7196)
Strobe/Lamp Enabled: No (USB2E7196)
Correct for Detector Non-linearity: No (USB2E7196)
Correct for Stray Light: No (USB2E7196)
Number of Pixels in Processed Spectrum: 2048
>>>>>Begin Processed Spectral Data<<<<<
339.09	0.00
339.48	213.37
339.86	214.59
340.24	216.25
340.63	217.10
341.01	220.05
341.39	219.35
341.78	221.46
342.16	222.35
342.54	222.94
342.93	211.27
343.31	221.94
343.69	222.44
344.07	222.92
344.46	223.32
344.84	223.68
345.22	223.93
345.60	224.18
345.99	224.36
346.37	224.47
346.75	224.55
347.13	224.64
347.52	224.74
347.90	224.82
348.28	224.87
348.66	224.90
349.05	224.92
349.43	224.97
349.81	225.00
350.19	225.06
350.57	225.13
350.96	225.22
351.34	225.32
351.72	225.41
352.10	225.49
352.48	225.55
352.87	225.63
353.25	225.66
353.63	225.73
354.01	225.82
354.39	225.93
354.77	226.02
355.15	226.15
355.54	226.18
355.92	226.21
356.30	226.27
356.68	226.41
357.06	226.47
357.44	226.52
357.82	226.62
358.20	226.71
358.58	226.78
358.97	226.83
359.35	226.91
359.73	227.03
360.11	227.07
360.49	227.17
360.87	227.24
361.25	227.30
361.63	227.42
362.01	227.44
362.39	227.49
362.77	227.54
363.15	227.56
363.53	227.61
363.91	227.67
364.29	227.71
364.67	227.66
365.05	227.70
365.43	227.75
365.81	227.79
366.19	227.84
366.57	227.93
366.95	227.95
367.33	227.93
367.71	227.92
368.09	227.94
368.47	227.91
368.85	227.89
369.23	227.94
369.61	227.84
369.99	227.86
370.37	227.83
370.75	227.87
371.13	227.86
371.51	227.80
371.89	227.75
372.27	227.76
372.65	227.76
373.03	227.73
373.41	227.67
373.78	227.62
374.16	227.56
374.54	227.46
374.92	227.39
375.30	227.33
375.68	227.26
376.06	227.22
376.44	227.17
376.82	227.12
377.19	227.07
377.57	227.01
377.95	226.94
378.33	226.88
378.71	226.77
379.09	226.68
379.47	226.63
379.84	226.56
380.22	226.46
380.60	226.36
380.98	226.29
381.36	226.24
381.73	226.16
382.11	226.08
382.49	226.01
382.87	225.93
383.25	225.87
383.62	225.94
384.00	225.87
384.38	225.82
384.76	225.78
385.13	225.72
385.51	225.68
385.89	225.61
386.27	225.55
386.64	225.53
387.02	225.52
387.40	225.53
387.78	225.49
388.15	225.48
388.53	225.42
388.91	225.39
389.29	225.33
389.66	225.34
390.04	225.29
390.42	225.27
390.79	225.26
391.17	225.24
391.55	225.10
391.92	225.10
392.30	225.12
392.68	225.10
393.05	225.10
393.43	225.10
393.81	225.12
394.18	225.10
394.56	225.10
394.94	225.09
395.31	225.09
395.69	225.13
396.06	225.14
396.44	225.17
396.82	225.20
397.19	225.30
397.57	225.27
397.95	225.33
398.32	225.35
398.70	225.43
399.07	225.54
399.45	225.58
399.82	225.62
400.20	225.63
400.58	225.69
400.95	225.73
401.33	225.82
401.70	225.95
402.08	226.05
402.45	226.12
402.83	226.24
403.20	226.34
403.58	226.44
403.95	226.58
404.33	226.70
404.71	226.80
405.08	226.97
405.46	227.16
405.83	227.32
406.21	227.52
406.58	227.68
406.96	227.82
407.33	228.04
407.70	228.25
408.08	228.61
408.45	228.86
408.83	229.16
409.20	229.44
409.58	229.69
409.95	230.05
410.33	230.43
410.70	230.75
411.08	231.11
411.45	231.53
411.82	231.94
412.20	232.43
412.57	232.97
412.95	233.43
413.32	233.97
413.69	234.55
414.07	235.11
414.44	235.76
414.82	236.46
415.19	237.21
415.56	237.97
415.94	238.71
416.31	239.57
416.68	240.45
417.06	241.41
417.43	242.33
417.81	243.37
418.18	244.41
418.55	245.59
418.93	246.83
419.30	248.09
419.67	249.40
420.04	250.75
420.42	252.12
420.79	253.71
421.16	255.34
421.54	256.96
421.91	258.67
422.28	260.42
422.66	262.27
423.03	264.08
423.40	265.96
423.77	267.98
424.15	269.98
424.52	272.07
424.89	274.34
425.26	276.54
425.64	278.59
426.01	280.82
426.38	283.16
426.75	285.49
427.13	287.86
427.50	290.42
427.87	293.04
428.24	295.73
428.61	298.20
428.99	300.90
429.36	303.88
429.73	306.79
430.10	309.64
430.47	312.52
430.85	315.52
431.22	318.67
431.59	321.97
431.96	325.18
432.33	328.68
432.70	331.96
433.08	335.89
433.45	339.60
433.82	343.22
434.19	347.25
434.56	351.14
434.93	354.93
435.30	358.56
435.68	362.62
436.05	366.53
436.42	370.44
436.79	373.98
437.16	377.81
437.53	381.80
437.90	385.72
438.27	389.56
438.64	393.53
439.01	397.10
439.38	400.25
439.75	403.24
440.13	406.67
440.50	409.96
440.87	412.57
441.24	415.30
441.61	418.34
441.98	420.48
442.35	423.08
442.72	425.61
443.09	428.13
443.46	429.58
443.83	430.39
444.20	431.13
444.57	432.27
444.94	432.65
445.31	433.10
445.68	433.62
446.05	433.74
446.42	433.17
446.79	432.60
447.16	431.98
447.53	431.52
447.90	429.92
448.27	428.31
448.64	426.06
449.01	424.50
449.37	421.75
449.74	419.01
450.11	415.82
450.48	412.37
450.85	408.82
451.22	405.78
451.59	402.96
451.96	400.23
452.33	396.60
452.70	393.24
453.07	389.23
453.43	385.13
453.80	381.26
454.17	377.51
454.54	373.95
454.91	370.14
455.28	366.42
455.65	362.95
456.02	359.43
456.38	356.43
456.75	352.63
457.12	349.48
457.49	346.34
457.86	343.31
458.23	340.66
458.59	337.81
458.96	334.79
459.33	332.18
459.70	329.54
460.07	327.41
460.43	324.99
460.80	322.75
461.17	320.70
461.54	318.54
461.91	316.57
462.27	314.53
462.64	312.73
463.01	310.79
463.38	308.92
463.74	307.05
464.11	305.37
464.48	303.90
464.85	302.33
465.21	301.12
465.58	299.81
465.95	298.31
466.32	296.98
466.68	295.76
467.05	294.49
467.42	293.25
467.78	291.94
468.15	290.71
468.52	289.72
468.88	288.57
469.25	287.50
469.62	286.59
469.98	285.66
470.35	284.78
470.72	283.90
471.08	283.01
471.45	282.25
471.82	281.49
472.18	280.63
472.55	280.04
472.92	279.30
473.28	278.66
473.65	278.00
474.02	277.39
474.38	276.85
474.75	276.39
475.11	275.84
475.48	275.45
475.85	275.12
476.21	274.77
476.58	274.45
476.94	274.18
477.31	273.87
477.67	273.58
478.04	273.39
478.41	273.25
478.77	273.13
479.14	272.97
479.50	272.92
479.87	272.93
480.23	272.91
480.60	272.88
480.96	272.85
481.33	273.00
481.69	273.14
482.06	273.31
482.42	273.41
482.79	273.64
483.15	273.93
483.52	274.24
483.88	274.56
484.25	274.89
484.61	275.29
484.98	275.72
485.34	276.26
485.71	276.80
486.07	277.38
486.44	277.99
486.80	278.73
487.17	279.46
487.53	280.30
487.90	281.19
488.26	282.18
488.62	283.20
488.99	284.24
489.35	285.34
489.72	286.48
490.08	287.75
490.44	289.05
490.81	290.41
491.17	291.87
491.54	293.46
491.90	295.10
492.26	296.85
492.63	298.70
492.99	300.60
493.36	302.61
493.72	304.81
494.08	307.09
494.45	309.48
494.81	312.01
495.17	314.59
495.54	317.32
495.90	320.16
496.26	323.19
496.63	326.33
496.99	329.64
497.35	333.11
497.72	336.75
498.08	340.49
498.44	344.42
498.80	348.63
499.17	352.90
499.53	357.35
499.89	362.00
500.26	366.81
500.62	371.81
500.98	377.15
501.34	382.57
501.71	388.31
502.07	394.14
502.43	400.17
502.79	406.43
503.16	412.98
503.52	419.66
503.88	426.52
504.24	433.69
504.60	441.13
504.97	448.81
505.33	456.73
505.69	465.06
506.05	473.43
506.41	481.92
506.78	490.75
507.14	499.87
507.50	509.28
507.86	519.01
508.22	528.94
508.59	538.83
508.95	549.13
509.31	559.66
509.67	570.58
510.03	581.66
510.39	593.10
510.75	604.79
511.12	616.77
511.48	629.00
511.84	641.39
512.20	653.81
512.56	666.74
512.92	679.94
513.28	693.41
513.64	706.99
514.00	720.84
514.37	734.95
514.73	749.25
515.09	763.55
515.45	778.08
515.81	792.98
516.17	808.26
516.53	823.78
516.89	839.43
517.25	855.01
517.61	870.89
517.97	886.76
518.33	902.59
518.69	918.82
519.05	935.38
519.41	952.15
519.77	969.45
520.13	986.57
520.49	1003.64
520.85	1020.64
521.21	1038.05
521.57	1056.01
521.93	1073.46
522.29	1091.57
522.65	1109.65
523.01	1127.76
523.37	1145.69
523.73	1163.85
524.09	1181.78
524.45	1199.88
524.81	1218.44
525.17	1237.14
525.53	1256.19
525.89	1275.15
526.25	1294.06
526.61	1312.45
526.97	1331.17
527.33	1349.60
527.68	1368.19
528.04	1386.64
528.40	1405.33
528.76	1424.59
529.12	1443.40
529.48	1462.65
529.84	1480.77
530.20	1499.53
530.56	1518.80
530.91	1538.52
531.27	1557.58
531.63	1576.45
531.99	1595.55
532.35	1613.86
532.71	1632.17
533.07	1650.65
533.42	1669.01
533.78	1687.50
534.14	1706.22
534.50	1724.02
534.86	1742.28
535.21	1759.99
535.57	1778.47
535.93	1796.47
536.29	1813.71
536.65	1831.26
537.00	1848.37
537.36	1866.29
537.72	1883.18
538.08	1900.23
538.44	1916.35
538.79	1932.57
539.15	1948.61
539.51	1964.76
539.87	1981.70
540.22	1997.90
540.58	2014.30
540.94	2030.06
541.29	2045.31
541.65	2060.67
542.01	2076.45
542.37	2091.38
542.72	2106.37
543.08	2120.73
543.44	2135.78
543.79	2149.46
544.15	2162.85
544.51	2176.99
544.87	2190.48
545.22	2203.91
545.58	2216.61
545.94	2228.85
546.29	2241.32
546.65	2253.79
547.01	2265.46
547.36	2276.45
547.72	2287.28
548.07	2297.41
548.43	2307.86
548.79	2318.08
549.14	2327.79
549.50	2337.25
549.86	2347.18
550.21	2356.80
550.57	2366.20
550.92	2374.79
551.28	2384.10
551.64	2393.38
551.99	2402.05
552.35	2410.30
552.70	2418.62
553.06	2426.49
553.41	2435.13
553.77	2443.13
554.13	2451.13
554.48	2459.37
554.84	2467.10
555.19	2474.37
555.55	2481.62
555.90	2488.07
556.26	2495.07
556.61	2501.59
556.97	2507.91
557.32	2513.82
557.68	2519.68
558.03	2525.74
558.39	2531.22
558.74	2537.72
559.10	2543.37
559.45	2548.80
559.81	2554.76
560.16	2560.30
560.52	2565.16
560.87	2569.93
561.23	2574.02
561.58	2578.48
561.94	2582.52
562.29	2585.96
562.64	2590.26
563.00	2594.10
563.35	2599.11
563.71	2603.83
564.06	2608.52
564.42	2612.93
564.77	2616.97
565.12	2620.65
565.48	2623.79
565.83	2627.00
566.19	2629.48
566.54	2631.38
566.89	2633.67
567.25	2635.44
567.60	2637.80
567.96	2640.77
568.31	2642.72
568.66	2644.97
569.02	2646.64
569.37	2647.87
569.72	2649.90
570.08	2650.97
570.43	2651.83
570.78	2651.90
571.14	2650.87
571.49	2649.94
571.84	2650.23
572.20	2649.69
572.55	2649.18
572.90	2648.10
573.26	2647.27
573.61	2645.84
573.96	2644.82
574.31	2642.04
574.67	2639.24
575.02	2635.65
575.37	2632.28
575.72	2628.65
576.08	2625.24
576.43	2621.70
576.78	2618.12
577.13	2615.07
577.49	2611.76
577.84	2608.16
578.19	2604.42
578.54	2600.65
578.90	2596.51
579.25	2590.44
579.60	2585.18
579.95	2579.89
580.30	2574.52
580.66	2568.93
581.01	2563.69
581.36	2558.11
581.71	2553.61
582.06	2548.81
582.42	2544.12
582.77	2538.52
583.12	2533.56
583.47	2528.77
583.82	2523.64
584.17	2517.83
584.53	2511.65
584.88	2505.66
585.23	2499.44
585.58	2493.32
585.93	2487.31
586.28	2481.93
586.63	2476.45
586.98	2470.69
587.34	2465.43
587.69	2459.95
588.04	2454.07
588.39	2447.59
588.74	2440.33
589.09	2433.46
589.44	2425.87
589.79	2418.93
590.14	2412.41
590.49	2404.79
590.84	2397.30
591.19	2390.26
591.54	2382.82
591.89	2374.58
592.25	2366.70
592.60	2358.44
592.95	2349.78
593.30	2341.29
593.65	2332.45
594.00	2324.24
594.35	2315.74
594.70	2306.32
595.05	2298.18
595.40	2289.72
595.75	2281.05
596.10	2273.92
596.45	2266.07
596.80	2258.88
597.15	2251.20
597.50	2243.20
597.85	2235.58
598.19	2227.98
598.54	2219.89
598.89	2212.01
599.24	2204.98
599.59	2197.31
599.94	2190.00
600.29	2182.61
600.64	2174.70
600.99	2166.05
601.34	2158.02
601.69	2149.80
602.04	2141.81
602.39	2133.08
602.74	2125.03
603.08	2117.18
603.43	2109.01
603.78	2100.31
604.13	2091.79
604.48	2083.19
604.83	2074.89
605.18	2066.86
605.53	2057.36
605.87	2047.71
606.22	2039.09
606.57	2029.56
606.92	2020.62
607.27	2012.20
607.62	2003.87
607.96	1995.39
608.31	1987.56
608.66	1978.51
609.01	1969.66
609.36	1960.61
609.70	1951.00
610.05	1941.42
610.40	1932.19
610.75	1922.38
611.10	1913.30
611.44	1903.12
611.79	1893.53
612.14	1883.11
612.49	1872.05
612.83	1861.89
613.18	1852.21
613.53	1842.70
613.88	1832.43
614.22	1822.56
614.57	1812.06
614.92	1802.46
615.27	1793.58
615.61	1783.62
615.96	1774.01
616.31	1764.91
616.65	1756.05
617.00	1747.02
617.35	1737.73
617.70	1727.77
618.04	1717.63
618.39	1707.73
618.74	1698.67
619.08	1688.77
619.43	1679.68
619.78	1671.51
620.12	1662.94
620.47	1653.84
620.82	1643.83
621.16	1634.93
621.51	1625.74
621.85	1616.62
622.20	1606.44
622.55	1596.29
622.89	1586.84
623.24	1577.61
623.59	1568.62
623.93	1559.55
624.28	1550.82
624.62	1541.85
624.97	1533.27
625.32	1525.12
625.66	1516.64
626.01	1508.03
626.35	1499.19
626.70	1489.87
627.04	1480.54
627.39	1471.20
627.73	1462.45
628.08	1454.29
628.43	1445.67
628.77	1436.86
629.12	1427.83
629.46	1419.28
629.81	1410.30
630.15	1401.71
630.50	1392.90
630.84	1383.03
631.19	1373.53
631.53	1364.41
631.88	1355.39
632.22	1346.32
632.57	1337.51
632.91	1328.49
633.26	1319.68
633.60	1310.81
633.95	1302.34
634.29	1293.81
634.64	1285.86
634.98	1277.11
635.32	1268.48
635.67	1260.46
636.01	1252.60
636.36	1244.58
636.70	1236.70
637.05	1228.94
637.39	1221.14
637.73	1213.30
638.08	1206.33
638.42	1199.22
638.77	1191.65
639.11	1183.74
639.45	1176.00
639.80	1168.13
640.14	1160.53
640.49	1152.68
640.83	1145.09
641.17	1137.67
641.52	1130.22
641.86	1122.52
642.20	1115.47
642.55	1107.97
642.89	1100.38
643.23	1092.50
643.58	1085.52
643.92	1078.21
644.26	1071.03
644.61	1063.79
644.95	1056.76
645.29	1049.03
645.64	1041.06
645.98	1033.60
646.32	1026.68
646.66	1019.60
647.01	1012.71
647.35	1005.98
647.69	999.05
648.04	992.50
648.38	985.72
648.72	978.67
649.06	971.58
649.41	964.53
649.75	957.53
650.09	950.60
650.43	943.74
650.78	936.50
651.12	929.43
651.46	922.59
651.80	915.97
652.14	909.53
652.49	903.12
652.83	897.01
653.17	890.28
653.51	883.60
653.85	877.16
654.20	870.60
654.54	863.47
654.88	856.72
655.22	849.69
655.56	842.87
655.90	836.30
656.25	830.00
656.59	823.70
656.93	817.67
657.27	811.48
657.61	805.10
657.95	799.07
658.29	793.07
658.64	786.86
658.98	780.51
659.32	774.07
659.66	767.99
660.00	761.80
660.34	755.95
660.68	750.14
661.02	744.19
661.36	738.63
661.70	733.36
662.05	728.31
662.39	723.35
662.73	718.13
663.07	713.08
663.41	707.82
663.75	702.56
664.09	697.23
664.43	692.03
664.77	687.23
665.11	682.26
665.45	677.44
665.79	672.69
666.13	667.90
666.47	663.14
666.81	658.22
667.15	653.31
667.49	648.70
667.83	644.23
668.17	639.72
668.51	634.94
668.85	630.21
669.19	625.56
669.53	621.01
669.87	616.49
670.21	612.14
670.55	607.92
670.89	603.90
671.23	599.86
671.57	595.71
671.91	591.60
672.25	587.46
672.58	583.28
672.92	579.23
673.26	575.50
673.60	571.80
673.94	568.15
674.28	564.70
674.62	561.31
674.96	557.61
675.30	554.20
675.64	550.73
675.97	547.48
676.31	544.21
676.65	540.73
676.99	537.56
677.33	534.16
677.67	530.95
678.01	527.42
678.34	524.02
678.68	520.67
679.02	517.39
679.36	514.12
679.70	510.96
680.04	507.77
680.37	504.38
680.71	501.04
681.05	498.00
681.39	494.87
681.73	491.69
682.06	488.76
682.40	485.76
682.74	482.75
683.08	479.73
683.42	476.68
683.75	473.77
684.09	470.72
684.43	467.86
684.77	464.93
685.10	462.21
685.44	459.46
685.78	456.81
686.12	454.10
686.45	451.44
686.79	448.79
687.13	446.15
687.46	443.60
687.80	441.06
688.14	438.47
688.48	435.99
688.81	433.40
689.15	430.85
689.49	428.35
689.82	425.87
690.16	423.44
690.50	421.12
690.83	418.91
691.17	416.63
691.51	414.36
691.84	412.15
692.18	409.83
692.52	407.49
692.85	405.16
693.19	402.96
693.52	400.77
693.86	398.57
694.20	396.50
694.53	394.39
694.87	392.22
695.21	390.11
695.54	387.92
695.88	385.88
696.21	383.83
696.55	381.81
696.88	379.83
697.22	377.82
697.56	375.90
697.89	373.90
698.23	372.00
698.56	370.10
698.90	368.24
699.23	366.28
699.57	364.41
699.90	362.61
700.24	360.79
700.58	359.02
700.91	357.27
701.25	355.61
701.58	354.01
701.92	352.43
702.25	350.78
702.59	349.14
702.92	347.56
703.26	346.02
703.59	344.51
703.93	343.13
704.26	341.75
704.60	340.16
704.93	338.66
705.26	337.16
705.60	335.73
705.93	334.34
706.27	333.12
706.60	331.87
706.94	330.53
707.27	329.17
707.61	327.88
707.94	326.66
708.27	325.32
708.61	324.00
708.94	322.78
709.28	321.64
709.61	320.56
709.94	319.42
710.28	318.25
710.61	317.08
710.95	315.79
711.28	314.60
711.61	313.51
711.95	312.42
712.28	311.35
712.61	310.24
712.95	309.14
713.28	308.07
713.61	307.01
713.95	306.07
714.28	305.06
714.61	304.03
714.95	303.02
715.28	301.98
715.61	300.96
715.95	299.99
716.28	298.97
716.61	297.95
716.95	296.94
717.28	296.04
717.61	295.12
717.94	294.23
718.28	293.37
718.61	292.52
718.94	291.71
719.27	290.91
719.61	290.15
719.94	289.35
720.27	288.55
720.60	287.79
720.94	287.02
721.27	286.35
721.60	285.70
721.93	284.99
722.27	284.42
722.60	283.78
722.93	283.07
723.26	282.44
723.59	281.82
723.93	281.22
724.26	280.59
724.59	279.94
724.92	279.38
725.25	278.78
725.59	278.20
725.92	277.64
726.25	277.06
726.58	276.49
726.91	275.93
727.24	275.37
727.57	274.84
727.91	274.23
728.24	273.69
728.57	273.11
728.90	272.55
729.23	271.96
729.56	271.44
729.89	270.89
730.22	270.31
730.55	269.77
730.89	269.25
731.22	268.74
731.55	268.21
731.88	267.66
732.21	267.19
732.54	266.66
732.87	266.12
733.20	265.62
733.53	265.16
733.86	264.68
734.19	264.20
734.52	263.73
734.85	263.36
735.18	262.86
735.51	262.41
735.84	262.01
736.17	261.61
736.50	261.15
736.83	260.87
737.16	260.49
737.49	260.07
737.82	259.66
738.15	259.29
738.48	258.92
738.81	258.54
739.14	258.14
739.47	257.76
739.80	257.39
740.13	257.00
740.46	256.62
740.79	256.24
741.12	255.91
741.45	255.53
741.78	255.14
742.11	254.79
742.44	254.40
742.77	254.04
743.10	253.68
743.43	253.31
743.75	252.85
744.08	252.67
744.41	252.33
744.74	251.99
745.07	251.64
745.40	251.32
745.73	251.06
746.06	250.71
746.39	250.37
746.71	250.05
747.04	249.72
747.37	249.39
747.70	249.08
748.03	248.75
748.36	248.47
748.68	248.14
749.01	247.85
749.34	247.55
749.67	247.24
750.00	246.94
750.33	246.75
750.65	246.50
750.98	246.08
751.31	245.85
751.64	245.60
751.97	245.40
752.29	245.15
752.62	244.86
752.95	244.62
753.28	244.39
753.60	244.13
753.93	243.94
754.26	243.69
754.59	243.44
754.91	243.18
755.24	242.94
755.57	242.71
755.90	242.51
756.22	242.28
756.55	242.07
756.88	241.85
757.20	241.56
757.53	241.34
757.86	241.16
758.19	240.92
758.51	240.71
758.84	240.44
759.17	240.23
759.49	240.00
759.82	239.82
760.15	239.63
760.47	239.48
760.80	239.26
761.13	239.10
761.45	238.92
761.78	238.76
762.11	238.59
762.43	238.43
762.76	238.23
763.08	238.09
763.41	237.94
763.74	237.78
764.06	237.61
764.39	237.43
764.71	237.24
765.04	237.10
765.37	236.94
765.69	236.80
766.02	236.61
766.34	236.46
766.67	236.31
767.00	236.20
767.32	236.07
767.65	236.00
767.97	235.87
768.30	235.76
768.62	235.67
768.95	235.54
769.27	235.40
769.60	235.29
769.92	235.12
770.25	234.98
770.57	234.83
770.90	234.71
771.22	234.58
771.55	234.45
771.87	234.35
772.20	234.22
772.52	234.19
772.85	234.22
773.17	234.14
773.50	234.03
773.82	233.89
774.15	233.74
774.47	233.58
774.80	233.45
775.12	233.34
775.45	233.22
775.77	233.11
776.09	233.01
776.42	232.90
776.74	232.88
777.07	232.80
777.39	232.75
777.72	232.65
778.04	232.57
778.36	232.47
778.69	232.37
779.01	232.31
779.33	232.11
779.66	231.94
779.98	231.84
780.31	231.76
780.63	231.72
780.95	231.70
781.28	231.66
781.60	231.61
781.92	231.55
782.25	231.50
782.57	231.41
782.89	231.38
783.22	231.33
783.54	231.23
783.86	231.17
784.19	231.07
784.51	231.05
784.83	230.99
785.16	230.98
785.48	230.96
785.80	230.87
786.12	230.87
786.45	230.81
786.77	230.78
787.09	230.74
787.42	230.66
787.74	230.60
788.06	230.54
788.38	230.47
788.71	230.43
789.03	230.36
789.35	230.36
789.67	230.29
789.99	230.25
790.32	230.22
790.64	230.21
790.96	230.27
791.28	230.19
791.61	230.14
791.93	230.09
792.25	230.00
792.57	230.07
792.89	230.01
793.21	230.01
793.54	229.91
793.86	229.86
794.18	229.80
794.50	229.72
794.82	229.64
795.14	229.65
795.47	229.60
795.79	229.55
796.11	229.49
796.43	229.44
796.75	229.39
797.07	229.36
797.39	229.34
797.71	229.24
798.04	229.22
798.36	229.17
798.68	229.14
799.00	229.14
799.32	229.07
799.64	229.04
799.96	229.00
800.28	229.00
800.60	229.01
800.92	229.00
801.24	228.99
801.56	228.99
801.89	228.93
802.21	228.91
802.53	228.88
802.85	228.87
803.17	228.90
803.49	228.89
803.81	228.82
804.13	228.75
804.45	228.75
804.77	228.73
805.09	228.72
805.41	228.68
805.73	228.64
806.05	228.57
806.37	228.55
806.69	228.49
807.01	228.46
807.33	228.42
807.65	228.37
807.97	228.36
808.28	228.31
808.60	228.28
808.92	228.27
809.24	228.28
809.56	228.22
809.88	228.16
810.20	228.12
810.52	228.15
810.84	228.10
811.16	228.04
811.48	228.02
811.80	228.04
812.12	228.02
812.43	228.05
812.75	228.02
813.07	227.94
813.39	227.92
813.71	227.89
814.03	227.87
814.35	227.88
814.67	227.83
814.98	227.80
815.30	227.79
815.62	227.72
815.94	227.64
816.26	227.65
816.58	227.62
816.89	227.60
817.21	227.56
817.53	227.57
817.85	227.55
818.17	227.51
818.48	227.41
818.80	227.40
819.12	227.35
819.44	227.35
819.76	227.37
820.07	227.37
820.39	227.32
820.71	227.27
821.03	227.24
821.34	227.24
821.66	227.24
821.98	227.22
822.30	227.21
822.61	227.27
822.93	227.23
823.25	227.21
823.57	227.19
823.88	227.21
824.20	227.17
824.52	227.19
824.83	227.17
825.15	227.19
825.47	227.15
825.79	227.14
826.10	227.12
826.42	227.08
826.74	227.08
827.05	227.09
827.37	227.10
827.69	227.09
828.00	227.06
828.32	227.05
828.64	227.01
828.95	227.06
829.27	227.00
829.58	227.01
829.90	227.00
830.22	226.99
830.53	226.94
830.85	226.91
831.17	226.84
831.48	226.80
831.80	226.77
832.11	226.76
832.43	226.69
832.75	226.68
833.06	226.74
833.38	226.68
833.69	226.65
834.01	226.64
834.32	226.62
834.64	226.60
834.96	226.57
835.27	226.58
835.59	226.53
835.90	226.51
836.22	226.49
836.53	226.43
836.85	226.39
837.16	226.49
837.48	226.51
837.79	226.55
838.11	226.59
838.42	226.59
838.74	226.57
839.05	226.57
839.37	226.56
839.68	226.48
840.00	226.47
840.31	226.46
840.63	226.44
840.94	226.40
841.26	226.40
841.57	226.39
841.88	226.37
842.20	226.35
842.51	226.32
842.83	226.30
843.14	226.38
843.46	226.38
843.77	226.29
844.08	226.25
844.40	226.19
844.71	226.13
845.03	226.10
845.34	226.10
845.65	226.05
845.97	226.01
846.28	226.02
846.60	226.02
846.91	226.03
847.22	226.01
847.54	225.99
847.85	225.97
848.16	225.98
848.48	225.95
848.79	225.97
849.10	225.96
849.42	225.94
849.73	225.83
850.04	225.81
850.36	225.73
850.67	225.75
850.98	225.73
851.30	225.74
851.61	225.73
851.92	225.71
852.23	225.78
852.55	225.81
852.86	225.76
853.17	225.75
853.49	225.76
853.80	225.79
854.11	225.81
854.42	225.82
854.74	225.77
855.05	225.76
855.36	225.68
855.67	225.69
855.99	225.67
856.30	225.80
856.61	225.76
856.92	225.77
857.23	225.75
857.55	225.72
857.86	225.75
858.17	225.77
858.48	225.71
858.79	225.68
859.11	225.67
859.42	225.68
859.73	225.67
860.04	225.63
860.35	225.60
860.66	225.56
860.98	225.55
861.29	225.55
861.60	225.55
861.91	225.59
862.22	225.58
862.53	225.59
862.84	225.47
863.16	225.53
863.47	225.52
863.78	225.55
864.09	225.58
864.40	225.55
864.71	225.58
865.02	225.63
865.33	225.60
865.64	225.59
865.95	225.60
866.27	225.67
866.58	225.70
866.89	225.68
867.20	225.65
867.51	225.64
867.82	225.64
868.13	225.72
868.44	225.70
868.75	225.71
869.06	225.72
869.37	225.73
869.68	225.71
869.99	225.73
870.30	225.68
870.61	225.68
870.92	225.66
871.23	225.62
871.54	225.64
871.85	225.67
872.16	225.68
872.47	225.66
872.78	225.59
873.09	225.55
873.40	225.57
873.71	225.65
874.02	225.65
874.33	225.67
874.64	225.61
874.95	225.63
875.26	225.62
875.56	225.59
875.87	225.60
876.18	225.56
876.49	225.68
876.80	225.71
877.11	225.70
877.42	225.70
877.73	225.73
878.04	225.68
878.35	225.67
878.66	225.67
878.96	225.67
879.27	225.65
879.58	225.66
879.89	225.63
880.20	225.61
880.51	225.61
880.82	225.62
881.12	225.59
881.43	225.56
881.74	225.53
882.05	225.57
882.36	225.54
882.67	225.56
882.97	225.44
883.28	225.44
883.59	225.42
883.90	225.41
884.21	225.40
884.51	225.39
884.82	225.38
885.13	225.37
885.44	225.36
885.74	225.37
886.05	225.37
886.36	225.36
886.67	225.32
886.98	225.34
887.28	225.32
887.59	225.34
887.90	225.34
888.20	225.35
888.51	225.33
888.82	225.33
889.13	225.35
889.43	225.43
889.74	225.40
890.05	225.38
890.35	225.37
890.66	225.36
890.97	225.37
891.28	225.39
891.58	225.40
891.89	225.38
892.20	225.40
892.50	225.42
892.81	225.42
893.12	225.41
893.42	225.36
893.73	225.37
894.04	225.37
894.34	225.37
894.65	225.33
894.95	225.31
895.26	225.29
895.57	225.31
895.87	225.20
896.18	225.21
896.48	225.23
896.79	225.26
897.10	225.27
897.40	225.25
897.71	225.23
898.01	225.20
898.32	225.22
898.63	225.18
898.93	225.14
899.24	225.15
899.54	225.16
899.85	225.17
900.15	225.14
900.46	225.14
900.76	225.16
901.07	225.18
901.38	225.20
901.68	225.21
901.99	225.18
902.29	225.22
902.60	225.25
902.90	225.23
903.21	225.22
903.51	225.21
903.82	225.25
904.12	225.25
904.43	225.28
904.73	225.27
905.03	225.31
905.34	225.43
905.64	225.41
905.95	225.41
906.25	225.40
906.56	225.42
906.86	225.41
907.17	225.34
907.47	225.35
907.77	225.31
908.08	225.28
908.38	225.26
908.69	225.27
908.99	225.25
909.30	225.29
909.60	225.27
909.90	225.27
910.21	225.24
910.51	225.23
910.81	225.21
911.12	225.21
911.42	225.21
911.73	225.09
912.03	225.14
912.33	225.15
912.64	225.14
912.94	225.09
913.24	225.11
913.55	225.15
913.85	225.17
914.15	225.21
914.46	225.26
914.76	225.28
915.06	225.26
915.37	225.27
915.67	225.22
915.97	225.22
916.27	225.22
916.58	225.21
916.88	225.22
917.18	225.20
917.49	225.26
917.79	225.23
918.09	225.27
918.39	225.29
918.70	225.26
919.00	225.26
919.30	225.31
919.60	225.31
919.91	225.31
920.21	225.31
920.51	225.29
920.81	225.26
921.12	225.27
921.42	225.25
921.72	225.23
922.02	225.25
922.32	225.29
922.63	225.30
922.93	225.36
923.23	225.34
923.53	225.34
923.83	225.28
924.13	225.28
924.44	225.26
924.74	225.25
925.04	225.32
925.34	225.32
925.64	225.28
925.94	225.22
926.24	225.29
926.55	225.25
926.85	225.25
927.15	225.28
927.45	225.29
927.75	225.29
928.05	225.32
928.35	225.30
928.65	225.27
928.95	225.23
929.26	225.19
929.56	225.21
929.86	225.22
930.16	225.22
930.46	225.22
930.76	225.22
931.06	225.18
931.36	225.14
931.66	225.15
931.96	225.19
932.26	225.24
932.56	225.17
932.86	225.19
933.16	225.17
933.46	225.15
933.76	225.11
934.06	225.13
934.36	225.12
934.66	225.13
934.96	225.14
935.26	225.16
935.56	225.19
935.86	225.19
936.16	225.17
936.46	225.17
936.76	225.15
937.06	225.14
937.36	225.14
937.66	225.13
937.96	225.13
938.26	225.11
938.56	225.12
938.86	225.14
939.16	225.15
939.46	225.20
939.76	225.17
940.06	225.18
940.35	225.17
940.65	225.13
940.95	225.13
941.25	225.11
941.55	225.12
941.85	225.10
942.15	225.11
942.45	225.15
942.75	225.12
943.04	225.16
943.34	225.21
943.64	225.20
943.94	225.21
944.24	225.22
944.54	225.20
944.84	225.18
945.13	225.19
945.43	225.16
945.73	225.14
946.03	225.15
946.33	225.14
946.62	225.13
946.92	225.11
947.22	225.12
947.52	225.09
947.82	225.09
948.11	225.08
948.41	225.03
948.71	224.97
949.01	224.99
949.31	224.97
949.60	224.95
949.90	224.97
950.20	224.94
950.50	224.96
950.79	224.96
951.09	224.98
951.39	224.95
951.69	224.93
951.98	224.96
952.28	224.96
952.58	224.96
952.87	224.96
953.17	225.00
953.47	224.97
953.76	224.98
954.06	224.97
954.36	224.96
954.66	224.98
954.95	225.00
955.25	225.01
955.55	224.99
955.84	224.94
956.14	224.97
956.44	224.98
956.73	224.93
957.03	224.96
957.32	224.94
957.62	224.95
957.92	224.98
958.21	224.97
958.51	225.06
958.81	225.08
959.10	225.09
959.40	225.09
959.69	225.12
959.99	225.13
960.29	225.13
960.58	225.15
960.88	225.18
961.17	225.19
961.47	225.17
961.76	225.19
962.06	225.20
962.36	225.18
962.65	225.18
962.95	225.19
963.24	225.16
963.54	225.16
963.83	225.14
964.13	225.14
964.42	225.12
964.72	225.05
965.01	225.03
965.31	225.04
965.60	225.04
965.90	225.08
966.19	225.05
966.49	225.07
966.78	225.03
967.08	225.00
967.37	225.01
967.67	224.99
967.96	225.00
968.26	225.03
968.55	225.08
968.85	225.07
969.14	225.07
969.43	225.09
969.73	225.10
970.02	225.10
970.32	225.09
970.61	225.10
970.91	225.09
971.20	225.06
971.49	225.03
971.79	225.04
972.08	225.00
972.38	225.01
972.67	225.00
972.96	225.01
973.26	225.01
973.55	225.03
973.85	225.04
974.14	225.03
974.43	225.01
974.73	224.96
975.02	224.94
975.31	224.95
975.61	224.92
975.90	224.91
976.19	224.91
976.49	224.92
976.78	224.93
977.07	224.93
977.37	224.98
977.66	224.97
977.95	224.95
978.24	224.92
978.54	224.94
978.83	224.95
979.12	224.94
979.42	224.96
979.71	224.97
980.00	224.97
980.29	224.99
980.59	224.95
980.88	224.96
981.17	224.95
981.46	224.97
981.76	224.99
982.05	225.01
982.34	225.05
982.63	225.02
982.93	224.99
983.22	225.04
983.51	225.01
983.80	225.07
984.09	225.09
984.39	225.11
984.68	225.10
984.97	225.07
985.26	225.08
985.55	225.07
985.85	225.04
986.14	225.07
986.43	225.06
986.72	225.10
987.01	225.09
987.30	225.10
987.59	225.10
987.89	225.10
988.18	225.06
988.47	225.02
988.76	225.04
989.05	225.06
989.34	225.02
989.63	225.07
989.92	225.03
990.22	225.01
990.51	225.01
990.80	225.03
991.09	225.05
991.38	225.09
991.67	225.08
991.96	225.07
992.25	225.07
992.54	225.06
992.83	225.02
993.12	225.02
993.41	225.05
993.70	225.08
993.99	225.06
994.28	225.08
994.58	225.12
994.87	225.10
995.16	225.10
995.45	225.07
995.74	225.05
996.03	225.06
996.32	225.06
996.61	225.08
996.90	225.05
997.19	225.05
997.48	225.03
997.77	225.03
998.06	225.02
998.34	224.99
998.63	224.99
998.92	225.01
999.21	225.03
999.50	225.03
999.79	224.99
1000.08	225.01
1000.37	225.01
1000.66	224.98
1000.95	224.99
1001.24	225.01
1001.53	225.04
1001.82	225.04
1002.11	225.02
1002.40	225.04
1002.68	225.06
1002.97	225.13
1003.26	225.15
1003.55	225.16
1003.84	225.17
1004.13	225.24
1004.42	225.25
1004.71	225.25
1004.99	225.25
1005.28	225.28
1005.57	225.26
1005.86	225.26
1006.15	225.26
1006.44	225.25
1006.72	225.27
1007.01	225.27
1007.30	225.26
1007.59	225.26
1007.88	225.23
1008.17	225.25
1008.45	225.21
1008.74	225.18
1009.03	225.13
1009.32	225.08
1009.60	225.06
1009.89	225.07
1010.18	225.00
1010.47	224.99
1010.76	225.01
1011.04	225.00
1011.33	224.99
1011.62	224.97
1011.91	224.96
1012.19	224.96
1012.48	224.94
1012.77	224.94
1013.05	224.99
1013.34	224.98
1013.63	224.96
1013.92	225.00
1014.20	224.99
1014.49	225.02
1014.78	225.03
1015.06	224.97
1015.35	225.01
1015.64	225.00
1015.92	224.98
1016.21	224.99
1016.50	225.01
1016.78	224.98
1017.07	225.00
1017.36	224.98
1017.64	225.00
1017.93	225.03
1018.22	225.05
1018.50	225.05
1018.79	225.04
1019.08	224.99
1019.36	225.00
1019.65	225.00
1019.93	224.99
1020.22	224.99
1020.51	225.02
1020.79	225.00
1021.08	225.21
1021.36	224.58
1021.65	225.10
1021.94	224.80
1022.22	225.21
1022.51	224.99
1022.79	225.13
1023.08	224.89
1023.36	225.94
1023.65	224.59
>>>>>End Processed Spectral Data<<<<<
