SpectraSuite Data File
++++++++++++++++++++++++++++++++++++
Date: Fri Feb 01 15:31:02 EST 2013
User: group
Dark Spectrum Present: No
Reference Spectrum Present: No
Number of Sampled Component Spectra: 1
Spectrometers: USB2E7196
Integration Time (usec): 35000 (USB2E7196)
Spectra Averaged: 100 (USB2E7196)
Boxcar Smoothing: 10 (USB2E7196)
Correct for Electrical Dark: No (USB2E7196)
Strobe/Lamp Enabled: No (USB2E7196)
Correct for Detector Non-linearity: No (USB2E7196)
Correct for Stray Light: No (USB2E7196)
Number of Pixels in Processed Spectrum: 2048
>>>>>Begin Processed Spectral Data<<<<<
339.09	0.00
339.48	215.46
339.86	216.86
340.24	218.23
340.63	219.32
341.01	222.52
341.39	221.77
341.78	223.80
342.16	224.34
342.54	225.31
342.93	213.50
343.31	224.30
343.69	224.83
344.07	225.25
344.46	225.66
344.84	226.04
345.22	226.25
345.60	226.50
345.99	226.66
346.37	226.78
346.75	226.86
347.13	226.92
347.52	226.97
347.90	227.04
348.28	227.05
348.66	227.13
349.05	227.11
349.43	227.13
349.81	227.16
350.19	227.17
350.57	227.19
350.96	227.23
351.34	227.25
351.72	227.35
352.10	227.47
352.48	227.53
352.87	227.58
353.25	227.63
353.63	227.69
354.01	227.74
354.39	227.85
354.77	227.95
355.15	227.99
355.54	228.08
355.92	228.09
356.30	228.16
356.68	228.25
357.06	228.34
357.44	228.39
357.82	228.47
358.20	228.59
358.58	228.66
358.97	228.76
359.35	228.86
359.73	228.91
360.11	228.96
360.49	229.02
360.87	229.07
361.25	229.14
361.63	229.24
362.01	229.29
362.39	229.30
362.77	229.32
363.15	229.34
363.53	229.36
363.91	229.44
364.29	229.48
364.67	229.40
365.05	229.41
365.43	229.45
365.81	229.49
366.19	229.51
366.57	229.57
366.95	229.51
367.33	229.50
367.71	229.48
368.09	229.47
368.47	229.45
368.85	229.42
369.23	229.41
369.61	229.35
369.99	229.37
370.37	229.35
370.75	229.36
371.13	229.35
371.51	229.31
371.89	229.23
372.27	229.20
372.65	229.14
373.03	229.10
373.41	229.03
373.78	228.96
374.16	228.87
374.54	228.78
374.92	228.71
375.30	228.65
375.68	228.57
376.06	228.53
376.44	228.48
376.82	228.42
377.19	228.35
377.57	228.26
377.95	228.12
378.33	228.05
378.71	227.91
379.09	227.86
379.47	227.83
379.84	227.77
380.22	227.70
380.60	227.65
380.98	227.56
381.36	227.52
381.73	227.45
382.11	227.39
382.49	227.30
382.87	227.24
383.25	227.21
383.62	227.28
384.00	227.20
384.38	227.16
384.76	227.13
385.13	227.09
385.51	227.06
385.89	227.00
386.27	226.94
386.64	226.93
387.02	226.86
387.40	226.77
387.78	226.75
388.15	226.70
388.53	226.66
388.91	226.64
389.29	226.59
389.66	226.56
390.04	226.53
390.42	226.53
390.79	226.48
391.17	226.43
391.55	226.32
391.92	226.28
392.30	226.26
392.68	226.24
393.05	226.24
393.43	226.23
393.81	226.23
394.18	226.27
394.56	226.30
394.94	226.34
395.31	226.36
395.69	226.38
396.06	226.45
396.44	226.48
396.82	226.51
397.19	226.59
397.57	226.64
397.95	226.66
398.32	226.66
398.70	226.73
399.07	226.81
399.45	226.84
399.82	226.94
400.20	227.01
400.58	227.08
400.95	227.13
401.33	227.23
401.70	227.41
402.08	227.49
402.45	227.56
402.83	227.70
403.20	227.84
403.58	227.93
403.95	228.04
404.33	228.20
404.71	228.29
405.08	228.50
405.46	228.64
405.83	228.82
406.21	229.01
406.58	229.20
406.96	229.38
407.33	229.60
407.70	229.78
408.08	230.05
408.45	230.29
408.83	230.54
409.20	230.76
409.58	230.95
409.95	231.22
410.33	231.50
410.70	231.73
411.08	232.04
411.45	232.37
411.82	232.70
412.20	233.07
412.57	233.53
412.95	233.78
413.32	234.20
413.69	234.64
414.07	235.12
414.44	235.57
414.82	236.05
415.19	236.60
415.56	237.14
415.94	237.67
416.31	238.29
416.68	238.95
417.06	239.65
417.43	240.34
417.81	241.11
418.18	241.88
418.55	242.71
418.93	243.56
419.30	244.46
419.67	245.39
420.04	246.36
420.42	247.34
420.79	248.56
421.16	249.74
421.54	250.91
421.91	252.12
422.28	253.39
422.66	254.72
423.03	256.03
423.40	257.40
423.77	258.78
424.15	260.20
424.52	261.66
424.89	263.27
425.26	264.84
425.64	266.30
426.01	267.91
426.38	269.57
426.75	271.23
427.13	272.96
427.50	274.76
427.87	276.63
428.24	278.55
428.61	280.26
428.99	282.19
429.36	284.28
429.73	286.32
430.10	288.33
430.47	290.35
430.85	292.44
431.22	294.69
431.59	297.13
431.96	299.37
432.33	301.86
432.70	304.28
433.08	307.09
433.45	309.71
433.82	312.29
434.19	315.19
434.56	318.00
434.93	320.67
435.30	323.30
435.68	326.19
436.05	328.96
436.42	331.77
436.79	334.32
437.16	337.06
437.53	339.93
437.90	342.78
438.27	345.57
438.64	348.42
439.01	351.02
439.38	353.27
439.75	355.44
440.13	357.90
440.50	360.18
440.87	362.01
441.24	363.97
441.61	366.14
441.98	367.66
442.35	369.44
442.72	371.24
443.09	373.02
443.46	374.00
443.83	374.58
444.20	375.05
444.57	375.79
444.94	376.02
445.31	376.33
445.68	376.63
446.05	376.73
446.42	376.31
446.79	375.87
447.16	375.36
447.53	375.02
447.90	373.88
448.27	372.75
448.64	371.15
449.01	369.97
449.37	368.00
449.74	366.04
450.11	363.79
450.48	361.35
450.85	358.81
451.22	356.63
451.59	354.58
451.96	352.66
452.33	350.09
452.70	347.74
453.07	344.89
453.43	341.99
453.80	339.16
454.17	336.45
454.54	333.92
454.91	331.20
455.28	328.54
455.65	326.09
456.02	323.65
456.38	321.50
456.75	318.86
457.12	316.61
457.49	314.41
457.86	312.25
458.23	310.41
458.59	308.38
458.96	306.35
459.33	304.52
459.70	302.67
460.07	301.22
460.43	299.51
460.80	297.88
461.17	296.46
461.54	294.98
461.91	293.59
462.27	292.13
462.64	290.93
463.01	289.59
463.38	288.29
463.74	286.90
464.11	285.76
464.48	284.73
464.85	283.64
465.21	282.75
465.58	281.86
465.95	280.76
466.32	279.87
466.68	278.98
467.05	278.08
467.42	277.19
467.78	276.22
468.15	275.35
468.52	274.68
468.88	273.82
469.25	273.06
469.62	272.45
469.98	271.78
470.35	271.12
470.72	270.48
471.08	269.78
471.45	269.26
471.82	268.68
472.18	268.10
472.55	267.68
472.92	267.20
473.28	266.73
473.65	266.29
474.02	265.81
474.38	265.41
474.75	265.10
475.11	264.70
475.48	264.44
475.85	264.22
476.21	264.00
476.58	263.82
476.94	263.67
477.31	263.49
477.67	263.33
478.04	263.22
478.41	263.17
478.77	263.25
479.14	263.16
479.50	263.18
479.87	263.24
480.23	263.29
480.60	263.34
480.96	263.41
481.33	263.61
481.69	263.82
482.06	264.06
482.42	264.26
482.79	264.55
483.15	264.86
483.52	265.20
483.88	265.55
484.25	265.93
484.61	266.35
484.98	266.78
485.34	267.35
485.71	267.94
486.07	268.53
486.44	269.04
486.80	269.75
487.17	270.48
487.53	271.29
487.90	272.13
488.26	273.05
488.62	274.04
488.99	275.02
489.35	276.05
489.72	277.13
490.08	278.30
490.44	279.52
490.81	280.84
491.17	282.19
491.54	283.65
491.90	285.18
492.26	286.81
492.63	288.57
492.99	290.35
493.36	292.23
493.72	294.28
494.08	296.40
494.45	298.64
494.81	300.99
495.17	303.45
495.54	306.03
495.90	308.67
496.26	311.48
496.63	314.42
496.99	317.51
497.35	320.73
497.72	324.14
498.08	327.67
498.44	331.39
498.80	335.29
499.17	339.35
499.53	343.51
499.89	347.89
500.26	352.39
500.62	357.04
500.98	361.98
501.34	367.08
501.71	372.43
502.07	377.85
502.43	383.47
502.79	389.22
503.16	395.30
503.52	401.58
503.88	407.94
504.24	414.58
504.60	421.48
504.97	428.69
505.33	436.03
505.69	443.73
506.05	451.48
506.41	459.42
506.78	467.64
507.14	476.12
507.50	484.87
507.86	493.93
508.22	503.15
508.59	512.39
508.95	521.97
509.31	531.76
509.67	541.86
510.03	552.12
510.39	562.72
510.75	573.53
511.12	584.60
511.48	596.02
511.84	607.43
512.20	619.00
512.56	630.91
512.92	643.10
513.28	655.47
513.64	667.97
514.00	680.71
514.37	693.64
514.73	706.69
515.09	719.76
515.45	733.00
515.81	746.59
516.17	760.59
516.53	774.70
516.89	788.89
517.25	803.15
517.61	817.72
517.97	832.26
518.33	846.71
518.69	861.40
519.05	876.41
519.41	891.62
519.77	907.16
520.13	922.71
520.49	938.10
520.85	953.51
521.21	969.31
521.57	985.60
521.93	1001.28
522.29	1017.75
522.65	1034.11
523.01	1050.45
523.37	1066.57
523.73	1082.78
524.09	1099.00
524.45	1115.32
524.81	1132.11
525.17	1148.94
525.53	1165.98
525.89	1182.99
526.25	1199.88
526.61	1216.33
526.97	1233.17
527.33	1249.67
527.68	1266.22
528.04	1282.73
528.40	1299.43
528.76	1316.49
529.12	1333.16
529.48	1350.30
529.84	1366.37
530.20	1382.98
530.56	1400.06
530.91	1417.49
531.27	1434.26
531.63	1450.68
531.99	1467.47
532.35	1483.40
532.71	1499.29
533.07	1515.48
533.42	1531.45
533.78	1547.55
534.14	1563.74
534.50	1579.15
534.86	1595.16
535.21	1610.41
535.57	1626.48
535.93	1642.04
536.29	1657.02
536.65	1672.04
537.00	1686.81
537.36	1702.01
537.72	1716.56
538.08	1730.98
538.44	1744.78
538.79	1758.76
539.15	1772.54
539.51	1786.26
539.87	1800.65
540.22	1814.45
540.58	1828.27
540.94	1841.59
541.29	1854.50
541.65	1867.29
542.01	1880.55
542.37	1892.89
542.72	1905.37
543.08	1917.17
543.44	1929.65
543.79	1940.84
544.15	1951.83
544.51	1963.31
544.87	1974.51
545.22	1985.33
545.58	1995.60
545.94	2005.51
546.29	2015.47
546.65	2025.41
547.01	2034.64
547.36	2043.38
547.72	2051.82
548.07	2059.65
548.43	2067.84
548.79	2075.97
549.14	2083.46
549.50	2090.89
549.86	2098.69
550.21	2105.99
550.57	2113.24
550.92	2119.70
551.28	2126.89
551.64	2134.07
551.99	2140.72
552.35	2146.79
552.70	2153.01
553.06	2158.95
553.41	2165.21
553.77	2171.12
554.13	2177.08
554.48	2183.25
554.84	2188.66
555.19	2194.11
555.55	2199.24
555.90	2203.72
556.26	2208.53
556.61	2213.34
556.97	2217.51
557.32	2221.54
557.68	2225.77
558.03	2229.98
558.39	2233.80
558.74	2238.26
559.10	2242.09
559.45	2245.80
559.81	2250.25
560.16	2253.96
560.52	2257.19
560.87	2260.64
561.23	2263.45
561.58	2266.57
561.94	2269.03
562.29	2271.41
562.64	2274.09
563.00	2276.76
563.35	2280.31
563.71	2283.46
564.06	2286.70
564.42	2289.58
564.77	2291.97
565.12	2294.22
565.48	2296.02
565.83	2297.83
566.19	2299.09
566.54	2300.00
566.89	2301.09
567.25	2301.51
567.60	2302.92
567.96	2304.58
568.31	2305.37
568.66	2306.26
569.02	2306.82
569.37	2307.20
569.72	2308.10
570.08	2308.06
570.43	2307.99
570.78	2307.26
571.14	2305.72
571.49	2304.31
571.84	2303.94
572.20	2302.83
572.55	2301.70
572.90	2300.18
573.26	2298.85
573.61	2297.24
573.96	2295.36
574.31	2292.28
574.67	2289.25
575.02	2285.58
575.37	2282.14
575.72	2278.31
576.08	2274.99
576.43	2271.45
576.78	2267.73
577.13	2264.41
577.49	2261.23
577.84	2257.68
578.19	2254.02
578.54	2250.23
578.90	2245.88
579.25	2240.31
579.60	2235.28
579.95	2230.11
580.30	2224.96
580.66	2219.63
581.01	2214.52
581.36	2209.57
581.71	2205.25
582.06	2200.66
582.42	2196.03
582.77	2190.68
583.12	2185.91
583.47	2181.25
583.82	2176.14
584.17	2170.78
584.53	2165.30
584.88	2159.64
585.23	2153.84
585.58	2148.16
585.93	2142.59
586.28	2137.81
586.63	2132.66
586.98	2127.50
587.34	2122.81
587.69	2117.96
588.04	2112.56
588.39	2106.76
588.74	2100.08
589.09	2093.84
589.44	2087.04
589.79	2080.95
590.14	2075.35
590.49	2068.67
590.84	2062.08
591.19	2056.04
591.54	2049.51
591.89	2041.85
592.25	2034.96
592.60	2027.63
592.95	2019.98
593.30	2012.61
593.65	2004.88
594.00	1997.81
594.35	1990.56
594.70	1982.54
595.05	1975.19
595.40	1967.77
595.75	1960.27
596.10	1954.00
596.45	1947.21
596.80	1940.95
597.15	1934.29
597.50	1927.07
597.85	1920.76
598.19	1913.92
598.54	1906.77
598.89	1900.01
599.24	1894.20
599.59	1887.44
599.94	1881.22
600.29	1874.95
600.64	1868.36
600.99	1860.90
601.34	1853.90
601.69	1846.86
602.04	1839.87
602.39	1832.48
602.74	1825.91
603.08	1819.18
603.43	1812.48
603.78	1805.28
604.13	1798.07
604.48	1790.79
604.83	1784.03
605.18	1777.03
605.53	1769.08
605.87	1761.07
606.22	1753.98
606.57	1746.06
606.92	1738.78
607.27	1731.67
607.62	1724.63
607.96	1717.26
608.31	1710.59
608.66	1702.97
609.01	1695.44
609.36	1687.87
609.70	1679.88
610.05	1671.63
610.40	1663.88
610.75	1655.56
611.10	1647.81
611.44	1639.42
611.79	1631.46
612.14	1622.66
612.49	1613.60
612.83	1605.18
613.18	1597.00
613.53	1588.84
613.88	1580.27
614.22	1572.00
614.57	1563.27
614.92	1555.25
615.27	1547.82
615.61	1539.55
615.96	1531.53
616.31	1523.93
616.65	1516.49
617.00	1508.87
617.35	1501.21
617.70	1492.81
618.04	1484.31
618.39	1476.08
618.74	1468.45
619.08	1460.15
619.43	1452.62
619.78	1445.55
620.12	1438.54
620.47	1431.06
620.82	1422.87
621.16	1415.40
621.51	1407.79
621.85	1400.30
622.20	1391.73
622.55	1383.30
622.89	1375.42
623.24	1367.83
623.59	1360.37
623.93	1352.87
624.28	1345.79
624.62	1338.33
624.97	1331.23
625.32	1324.49
625.66	1317.46
626.01	1310.29
626.35	1302.71
626.70	1294.88
627.04	1287.12
627.39	1279.29
627.73	1271.88
628.08	1264.96
628.43	1257.66
628.77	1250.25
629.12	1242.51
629.46	1235.37
629.81	1227.92
630.15	1220.73
630.50	1213.35
630.84	1205.18
631.19	1197.33
631.53	1189.71
631.88	1182.03
632.22	1174.28
632.57	1167.01
632.91	1159.40
633.26	1151.96
633.60	1144.63
633.95	1137.61
634.29	1130.65
634.64	1124.04
634.98	1116.59
635.32	1109.49
635.67	1103.00
636.01	1096.35
636.36	1089.57
636.70	1083.09
637.05	1076.56
637.39	1070.07
637.73	1063.52
638.08	1057.67
638.42	1051.58
638.77	1045.15
639.11	1038.60
639.45	1032.32
639.80	1025.62
640.14	1019.24
640.49	1012.74
640.83	1006.52
641.17	1000.25
641.52	993.90
641.86	987.40
642.20	981.64
642.55	975.28
642.89	968.64
643.23	962.13
643.58	956.44
643.92	950.24
644.26	944.13
644.61	938.12
644.95	932.12
645.29	925.46
645.64	918.73
645.98	912.37
646.32	906.57
646.66	900.59
647.01	894.80
647.35	889.20
647.69	883.33
648.04	877.73
648.38	871.91
648.72	865.93
649.06	859.88
649.41	853.93
649.75	847.98
650.09	842.08
650.43	836.23
650.78	829.98
651.12	824.02
651.46	818.33
651.80	812.62
652.14	807.21
652.49	801.81
652.83	796.64
653.17	790.95
653.51	785.20
653.85	779.76
654.20	774.12
654.54	768.01
654.88	762.36
655.22	756.48
655.56	750.83
655.90	745.38
656.25	740.09
656.59	734.75
656.93	729.65
657.27	724.51
657.61	719.11
657.95	714.09
658.29	708.93
658.64	703.70
658.98	698.30
659.32	692.91
659.66	687.73
660.00	682.43
660.34	677.47
660.68	672.52
661.02	667.46
661.36	662.76
661.70	658.32
662.05	653.89
662.39	649.61
662.73	645.16
663.07	640.75
663.41	636.33
663.75	631.89
664.09	627.39
664.43	623.02
664.77	618.98
665.11	614.72
665.45	610.62
665.79	606.54
666.13	602.47
666.47	598.32
666.81	594.22
667.15	590.08
667.49	586.19
667.83	582.44
668.17	578.49
668.51	574.42
668.85	570.40
669.19	566.54
669.53	562.65
669.87	558.78
670.21	555.05
670.55	551.46
670.89	547.95
671.23	544.47
671.57	540.95
671.91	537.40
672.25	533.90
672.58	530.38
672.92	527.02
673.26	523.83
673.60	520.71
673.94	517.58
674.28	514.76
674.62	511.83
674.96	508.72
675.30	505.86
675.64	502.95
675.97	500.17
676.31	497.31
676.65	494.43
676.99	491.68
677.33	488.81
677.67	485.98
678.01	482.99
678.34	480.02
678.68	477.13
679.02	474.30
679.36	471.56
679.70	468.87
680.04	466.06
680.37	463.17
680.71	460.33
681.05	457.71
681.39	454.97
681.73	452.35
682.06	449.79
682.40	447.18
682.74	444.67
683.08	442.09
683.42	439.51
683.75	437.04
684.09	434.51
684.43	432.06
684.77	429.59
685.10	427.19
685.44	424.90
685.78	422.65
686.12	420.42
686.45	418.09
686.79	415.83
687.13	413.67
687.46	411.58
687.80	409.47
688.14	407.29
688.48	405.18
688.81	402.87
689.15	400.77
689.49	398.64
689.82	396.56
690.16	394.55
690.50	392.61
690.83	390.65
691.17	388.71
691.51	386.84
691.84	384.96
692.18	383.08
692.52	381.08
692.85	379.12
693.19	377.25
693.52	375.49
693.86	373.66
694.20	371.90
694.53	370.07
694.87	368.21
695.21	366.44
695.54	364.67
695.88	362.99
696.21	361.22
696.55	359.57
696.88	357.90
697.22	356.20
697.56	354.60
697.89	352.87
698.23	351.24
698.56	349.61
698.90	348.07
699.23	346.46
699.57	344.94
699.90	343.40
700.24	341.82
700.58	340.26
700.91	338.74
701.25	337.25
701.58	335.92
701.92	334.61
702.25	333.23
702.59	331.87
702.92	330.55
703.26	329.28
703.59	328.02
703.93	326.85
704.26	325.66
704.60	324.36
704.93	323.11
705.26	321.88
705.60	320.73
705.93	319.57
706.27	318.52
706.60	317.44
706.94	316.40
707.27	315.29
707.61	314.26
707.94	313.24
708.27	312.16
708.61	311.05
708.94	310.04
709.28	309.05
709.61	308.12
709.94	307.14
710.28	306.11
710.61	305.10
710.95	304.01
711.28	303.06
711.61	302.10
711.95	301.21
712.28	300.26
712.61	299.27
712.95	298.36
713.28	297.47
713.61	296.60
713.95	295.69
714.28	294.85
714.61	293.97
714.95	293.10
715.28	292.25
715.61	291.41
715.95	290.52
716.28	289.64
716.61	288.77
716.95	287.96
717.28	287.23
717.61	286.44
717.94	285.70
718.28	284.91
718.61	284.21
718.94	283.50
719.27	282.83
719.61	282.21
719.94	281.54
720.27	280.85
720.60	280.16
720.94	279.52
721.27	278.94
721.60	278.34
721.93	277.80
722.27	277.24
722.60	276.63
722.93	276.06
723.26	275.55
723.59	275.00
723.93	274.47
724.26	273.92
724.59	273.40
724.92	272.84
725.25	272.31
725.59	271.78
725.92	271.26
726.25	270.78
726.58	270.29
726.91	269.79
727.24	269.31
727.57	268.85
727.91	268.34
728.24	267.88
728.57	267.42
728.90	266.91
729.23	266.43
729.56	266.02
729.89	265.58
730.22	265.05
730.55	264.60
730.89	264.16
731.22	263.72
731.55	263.26
731.88	262.87
732.21	262.43
732.54	261.98
732.87	261.59
733.20	261.19
733.53	260.78
733.86	260.40
734.19	259.97
734.52	259.62
734.85	259.28
735.18	258.85
735.51	258.48
735.84	258.13
736.17	257.80
736.50	257.39
736.83	257.14
737.16	256.81
737.49	256.48
737.82	256.11
738.15	255.78
738.48	255.51
738.81	255.19
739.14	254.86
739.47	254.58
739.80	254.25
740.13	253.92
740.46	253.59
740.79	253.29
741.12	253.00
741.45	252.63
741.78	252.33
742.11	252.05
742.44	251.70
742.77	251.44
743.10	251.09
743.43	250.82
743.75	250.44
744.08	250.29
744.41	250.01
744.74	249.76
745.07	249.46
745.40	249.18
745.73	248.95
746.06	248.68
746.39	248.41
746.71	248.13
747.04	247.86
747.37	247.58
747.70	247.32
748.03	247.09
748.36	246.91
748.68	246.64
749.01	246.44
749.34	246.25
749.67	246.02
750.00	245.82
750.33	245.66
750.65	245.48
750.98	245.19
751.31	244.98
751.64	244.76
751.97	244.63
752.29	244.42
752.62	244.15
752.95	243.97
753.28	243.76
753.60	243.55
753.93	243.39
754.26	243.22
754.59	242.99
754.91	242.75
755.24	242.56
755.57	242.39
755.90	242.16
756.22	241.94
756.55	241.74
756.88	241.55
757.20	241.31
757.53	241.10
757.86	240.91
758.19	240.73
758.51	240.54
758.84	240.30
759.17	240.12
759.49	239.98
759.82	239.85
760.15	239.68
760.47	239.52
760.80	239.34
761.13	239.18
761.45	239.03
761.78	238.87
762.11	238.71
762.43	238.55
762.76	238.43
763.08	238.32
763.41	238.18
763.74	238.04
764.06	237.89
764.39	237.74
764.71	237.59
765.04	237.41
765.37	237.30
765.69	237.18
766.02	237.03
766.34	236.89
766.67	236.74
767.00	236.62
767.32	236.55
767.65	236.48
767.97	236.39
768.30	236.27
768.62	236.17
768.95	236.03
769.27	235.95
769.60	235.84
769.92	235.73
770.25	235.61
770.57	235.49
770.90	235.39
771.22	235.26
771.55	235.18
771.87	235.12
772.20	235.02
772.52	235.02
772.85	235.06
773.17	234.97
773.50	234.85
773.82	234.76
774.15	234.64
774.47	234.51
774.80	234.37
775.12	234.30
775.45	234.23
775.77	234.19
776.09	234.05
776.42	233.95
776.74	233.91
777.07	233.80
777.39	233.71
777.72	233.61
778.04	233.57
778.36	233.45
778.69	233.38
779.01	233.33
779.33	233.17
779.66	232.96
779.98	232.87
780.31	232.80
780.63	232.79
780.95	232.76
781.28	232.71
781.60	232.68
781.92	232.61
782.25	232.53
782.57	232.45
782.89	232.44
783.22	232.38
783.54	232.30
783.86	232.28
784.19	232.25
784.51	232.26
784.83	232.17
785.16	232.15
785.48	232.09
785.80	232.03
786.12	232.01
786.45	232.01
786.77	232.00
787.09	231.99
787.42	231.89
787.74	231.85
788.06	231.81
788.38	231.78
788.71	231.76
789.03	231.75
789.35	231.73
789.67	231.67
789.99	231.66
790.32	231.63
790.64	231.60
790.96	231.65
791.28	231.56
791.61	231.55
791.93	231.55
792.25	231.52
792.57	231.56
792.89	231.46
793.21	231.42
793.54	231.36
793.86	231.32
794.18	231.30
794.50	231.24
794.82	231.19
795.14	231.16
795.47	231.12
795.79	231.08
796.11	231.04
796.43	231.01
796.75	230.98
797.07	230.93
797.39	230.88
797.71	230.73
798.04	230.74
798.36	230.70
798.68	230.63
799.00	230.60
799.32	230.52
799.64	230.54
799.96	230.51
800.28	230.48
800.60	230.44
800.92	230.42
801.24	230.40
801.56	230.38
801.89	230.32
802.21	230.27
802.53	230.20
802.85	230.14
803.17	230.16
803.49	230.09
803.81	230.05
804.13	230.02
804.45	230.01
804.77	229.98
805.09	229.93
805.41	229.90
805.73	229.87
806.05	229.79
806.37	229.76
806.69	229.69
807.01	229.66
807.33	229.65
807.65	229.59
807.97	229.59
808.28	229.52
808.60	229.48
808.92	229.44
809.24	229.47
809.56	229.48
809.88	229.38
810.20	229.39
810.52	229.38
810.84	229.34
811.16	229.28
811.48	229.23
811.80	229.21
812.12	229.18
812.43	229.16
812.75	229.14
813.07	229.11
813.39	229.11
813.71	229.05
814.03	229.03
814.35	229.01
814.67	228.93
814.98	228.93
815.30	228.91
815.62	228.89
815.94	228.80
816.26	228.81
816.58	228.81
816.89	228.76
817.21	228.69
817.53	228.68
817.85	228.70
818.17	228.67
818.48	228.67
818.80	228.68
819.12	228.64
819.44	228.62
819.76	228.61
820.07	228.57
820.39	228.58
820.71	228.57
821.03	228.54
821.34	228.56
821.66	228.57
821.98	228.56
822.30	228.58
822.61	228.62
822.93	228.57
823.25	228.53
823.57	228.52
823.88	228.55
824.20	228.53
824.52	228.54
824.83	228.54
825.15	228.49
825.47	228.47
825.79	228.45
826.10	228.43
826.42	228.37
826.74	228.39
827.05	228.39
827.37	228.37
827.69	228.35
828.00	228.32
828.32	228.29
828.64	228.28
828.95	228.27
829.27	228.26
829.58	228.25
829.90	228.28
830.22	228.30
830.53	228.28
830.85	228.27
831.17	228.22
831.48	228.22
831.80	228.23
832.11	228.21
832.43	228.22
832.75	228.24
833.06	228.33
833.38	228.28
833.69	228.23
834.01	228.22
834.32	228.21
834.64	228.20
834.96	228.22
835.27	228.22
835.59	228.23
835.90	228.20
836.22	228.20
836.53	228.18
836.85	228.17
837.16	228.28
837.48	228.26
837.79	228.29
838.11	228.28
838.42	228.26
838.74	228.29
839.05	228.26
839.37	228.24
839.68	228.16
840.00	228.16
840.31	228.20
840.63	228.18
840.94	228.16
841.26	228.15
841.57	228.10
841.88	228.07
842.20	228.01
842.51	228.02
842.83	228.00
843.14	228.06
843.46	228.04
843.77	227.98
844.08	227.98
844.40	227.95
844.71	227.94
845.03	227.95
845.34	227.91
845.65	227.90
845.97	227.87
846.28	227.87
846.60	227.87
846.91	227.86
847.22	227.88
847.54	227.89
847.85	227.90
848.16	227.88
848.48	227.88
848.79	227.90
849.10	227.87
849.42	227.87
849.73	227.81
850.04	227.81
850.36	227.76
850.67	227.76
850.98	227.77
851.30	227.76
851.61	227.72
851.92	227.72
852.23	227.77
852.55	227.81
852.86	227.81
853.17	227.81
853.49	227.82
853.80	227.81
854.11	227.81
854.42	227.79
854.74	227.80
855.05	227.79
855.36	227.71
855.67	227.71
855.99	227.71
856.30	227.77
856.61	227.74
856.92	227.73
857.23	227.70
857.55	227.63
857.86	227.63
858.17	227.67
858.48	227.65
858.79	227.60
859.11	227.59
859.42	227.60
859.73	227.58
860.04	227.54
860.35	227.52
860.66	227.50
860.98	227.51
861.29	227.54
861.60	227.56
861.91	227.61
862.22	227.59
862.53	227.56
862.84	227.43
863.16	227.49
863.47	227.47
863.78	227.50
864.09	227.55
864.40	227.54
864.71	227.54
865.02	227.56
865.33	227.54
865.64	227.55
865.95	227.54
866.27	227.62
866.58	227.62
866.89	227.68
867.20	227.70
867.51	227.65
867.82	227.64
868.13	227.66
868.44	227.58
868.75	227.65
869.06	227.66
869.37	227.69
869.68	227.64
869.99	227.65
870.30	227.65
870.61	227.65
870.92	227.63
871.23	227.64
871.54	227.63
871.85	227.66
872.16	227.64
872.47	227.61
872.78	227.50
873.09	227.51
873.40	227.46
873.71	227.44
874.02	227.46
874.33	227.44
874.64	227.43
874.95	227.49
875.26	227.41
875.56	227.42
875.87	227.43
876.18	227.42
876.49	227.54
876.80	227.50
877.11	227.47
877.42	227.49
877.73	227.46
878.04	227.43
878.35	227.43
878.66	227.39
878.96	227.42
879.27	227.43
879.58	227.43
879.89	227.44
880.20	227.48
880.51	227.52
880.82	227.53
881.12	227.52
881.43	227.49
881.74	227.51
882.05	227.51
882.36	227.54
882.67	227.55
882.97	227.43
883.28	227.42
883.59	227.45
883.90	227.44
884.21	227.46
884.51	227.49
884.82	227.47
885.13	227.49
885.44	227.47
885.74	227.46
886.05	227.44
886.36	227.43
886.67	227.38
886.98	227.39
887.28	227.40
887.59	227.41
887.90	227.45
888.20	227.45
888.51	227.43
888.82	227.39
889.13	227.42
889.43	227.50
889.74	227.49
890.05	227.47
890.35	227.46
890.66	227.44
890.97	227.42
891.28	227.39
891.58	227.40
891.89	227.39
892.20	227.41
892.50	227.40
892.81	227.38
893.12	227.35
893.42	227.31
893.73	227.31
894.04	227.31
894.34	227.29
894.65	227.30
894.95	227.31
895.26	227.29
895.57	227.30
895.87	227.20
896.18	227.24
896.48	227.27
896.79	227.29
897.10	227.31
897.40	227.31
897.71	227.34
898.01	227.34
898.32	227.36
898.63	227.35
898.93	227.35
899.24	227.36
899.54	227.36
899.85	227.34
900.15	227.33
900.46	227.30
900.76	227.29
901.07	227.28
901.38	227.23
901.68	227.26
901.99	227.21
902.29	227.23
902.60	227.21
902.90	227.18
903.21	227.16
903.51	227.12
903.82	227.14
904.12	227.12
904.43	227.11
904.73	227.08
905.03	227.11
905.34	227.20
905.64	227.20
905.95	227.23
906.25	227.22
906.56	227.20
906.86	227.22
907.17	227.24
907.47	227.23
907.77	227.26
908.08	227.22
908.38	227.24
908.69	227.24
908.99	227.26
909.30	227.24
909.60	227.20
909.90	227.21
910.21	227.19
910.51	227.18
910.81	227.16
911.12	227.18
911.42	227.17
911.73	227.05
912.03	227.05
912.33	227.06
912.64	227.05
912.94	227.04
913.24	227.02
913.55	227.03
913.85	227.02
914.15	227.04
914.46	227.08
914.76	227.07
915.06	227.06
915.37	227.04
915.67	227.03
915.97	227.06
916.27	227.09
916.58	227.11
916.88	227.12
917.18	227.10
917.49	227.19
917.79	227.16
918.09	227.20
918.39	227.23
918.70	227.21
919.00	227.23
919.30	227.30
919.60	227.28
919.91	227.24
920.21	227.23
920.51	227.22
920.81	227.16
921.12	227.19
921.42	227.20
921.72	227.22
922.02	227.22
922.32	227.26
922.63	227.25
922.93	227.30
923.23	227.31
923.53	227.33
923.83	227.25
924.13	227.29
924.44	227.30
924.74	227.32
925.04	227.36
925.34	227.33
925.64	227.28
925.94	227.29
926.24	227.35
926.55	227.35
926.85	227.35
927.15	227.39
927.45	227.38
927.75	227.38
928.05	227.36
928.35	227.39
928.65	227.38
928.95	227.38
929.26	227.35
929.56	227.36
929.86	227.36
930.16	227.34
930.46	227.30
930.76	227.30
931.06	227.28
931.36	227.23
931.66	227.28
931.96	227.30
932.26	227.30
932.56	227.27
932.86	227.25
933.16	227.25
933.46	227.21
933.76	227.22
934.06	227.23
934.36	227.28
934.66	227.27
934.96	227.27
935.26	227.29
935.56	227.29
935.86	227.26
936.16	227.24
936.46	227.20
936.76	227.24
937.06	227.23
937.36	227.18
937.66	227.20
937.96	227.16
938.26	227.14
938.56	227.13
938.86	227.10
939.16	227.14
939.46	227.14
939.76	227.13
940.06	227.14
940.35	227.09
940.65	227.03
940.95	227.02
941.25	226.99
941.55	226.97
941.85	226.96
942.15	226.99
942.45	227.03
942.75	227.07
943.04	227.08
943.34	227.10
943.64	227.12
943.94	227.09
944.24	227.14
944.54	227.14
944.84	227.13
945.13	227.14
945.43	227.12
945.73	227.14
946.03	227.16
946.33	227.15
946.62	227.18
946.92	227.17
947.22	227.15
947.52	227.14
947.82	227.13
948.11	227.12
948.41	227.08
948.71	227.07
949.01	227.05
949.31	227.01
949.60	227.01
949.90	227.01
950.20	227.02
950.50	227.00
950.79	227.00
951.09	227.03
951.39	227.04
951.69	227.05
951.98	227.05
952.28	227.06
952.58	227.04
952.87	227.04
953.17	227.07
953.47	227.09
953.76	227.12
954.06	227.13
954.36	227.11
954.66	227.10
954.95	227.11
955.25	227.10
955.55	227.11
955.84	227.09
956.14	227.10
956.44	227.12
956.73	227.10
957.03	227.12
957.32	227.12
957.62	227.12
957.92	227.10
958.21	227.12
958.51	227.19
958.81	227.21
959.10	227.20
959.40	227.23
959.69	227.23
959.99	227.22
960.29	227.22
960.58	227.23
960.88	227.29
961.17	227.28
961.47	227.35
961.76	227.35
962.06	227.37
962.36	227.37
962.65	227.35
962.95	227.37
963.24	227.32
963.54	227.32
963.83	227.32
964.13	227.33
964.42	227.29
964.72	227.22
965.01	227.21
965.31	227.21
965.60	227.15
965.90	227.21
966.19	227.17
966.49	227.16
966.78	227.16
967.08	227.13
967.37	227.13
967.67	227.08
967.96	227.10
968.26	227.06
968.55	227.04
968.85	227.06
969.14	227.01
969.43	227.05
969.73	227.04
970.02	227.05
970.32	227.03
970.61	227.00
970.91	226.99
971.20	226.98
971.49	226.98
971.79	227.00
972.08	226.93
972.38	226.94
972.67	226.93
972.96	226.92
973.26	226.90
973.55	226.94
973.85	226.92
974.14	226.88
974.43	226.87
974.73	226.88
975.02	226.82
975.31	226.86
975.61	226.84
975.90	226.84
976.19	226.82
976.49	226.80
976.78	226.82
977.07	226.80
977.37	226.78
977.66	226.77
977.95	226.74
978.24	226.74
978.54	226.75
978.83	226.77
979.12	226.75
979.42	226.74
979.71	226.67
980.00	226.67
980.29	226.69
980.59	226.66
980.88	226.65
981.17	226.67
981.46	226.65
981.76	226.60
982.05	226.58
982.34	226.57
982.63	226.58
982.93	226.57
983.22	226.57
983.51	226.57
983.80	226.60
984.09	226.61
984.39	226.59
984.68	226.61
984.97	226.60
985.26	226.61
985.55	226.64
985.85	226.65
986.14	226.65
986.43	226.65
986.72	226.66
987.01	226.63
987.30	226.64
987.59	226.64
987.89	226.72
988.18	226.72
988.47	226.74
988.76	226.74
989.05	226.71
989.34	226.72
989.63	226.76
989.92	226.75
990.22	226.73
990.51	226.73
990.80	226.73
991.09	226.75
991.38	226.77
991.67	226.75
991.96	226.73
992.25	226.73
992.54	226.74
992.83	226.77
993.12	226.78
993.41	226.80
993.70	226.84
993.99	226.85
994.28	226.86
994.58	226.89
994.87	226.88
995.16	226.93
995.45	226.93
995.74	226.90
996.03	226.92
996.32	226.95
996.61	227.00
996.90	227.04
997.19	227.04
997.48	227.07
997.77	227.03
998.06	227.08
998.34	227.09
998.63	227.09
998.92	227.11
999.21	227.17
999.50	227.16
999.79	227.14
1000.08	227.12
1000.37	227.13
1000.66	227.10
1000.95	227.14
1001.24	227.13
1001.53	227.16
1001.82	227.16
1002.11	227.16
1002.40	227.17
1002.68	227.19
1002.97	227.22
1003.26	227.20
1003.55	227.14
1003.84	227.17
1004.13	227.20
1004.42	227.17
1004.71	227.16
1004.99	227.15
1005.28	227.13
1005.57	227.17
1005.86	227.15
1006.15	227.15
1006.44	227.14
1006.72	227.17
1007.01	227.13
1007.30	227.14
1007.59	227.11
1007.88	227.11
1008.17	227.09
1008.45	227.06
1008.74	227.01
1009.03	226.97
1009.32	226.95
1009.60	226.98
1009.89	226.97
1010.18	226.95
1010.47	226.96
1010.76	226.96
1011.04	226.98
1011.33	227.02
1011.62	226.95
1011.91	226.91
1012.19	226.90
1012.48	226.86
1012.77	226.85
1013.05	226.90
1013.34	226.89
1013.63	226.92
1013.92	226.90
1014.20	226.89
1014.49	226.88
1014.78	226.90
1015.06	226.85
1015.35	226.89
1015.64	226.88
1015.92	226.90
1016.21	226.88
1016.50	226.87
1016.78	226.86
1017.07	226.81
1017.36	226.75
1017.64	226.79
1017.93	226.81
1018.22	226.81
1018.50	226.85
1018.79	226.82
1019.08	226.79
1019.36	226.77
1019.65	226.73
1019.93	226.77
1020.22	226.80
1020.51	226.87
1020.79	226.82
1021.08	226.71
1021.36	227.10
1021.65	226.48
1021.94	227.12
1022.22	226.35
1022.51	226.63
1022.79	227.32
1023.08	227.21
1023.36	228.21
1023.65	226.00
>>>>>End Processed Spectral Data<<<<<
