SpectraSuite Data File
++++++++++++++++++++++++++++++++++++
Date: Fri Feb 01 16:29:36 EST 2013
User: group
Dark Spectrum Present: No
Reference Spectrum Present: No
Number of Sampled Component Spectra: 1
Spectrometers: USB2E7196
Integration Time (usec): 35000 (USB2E7196)
Spectra Averaged: 100 (USB2E7196)
Boxcar Smoothing: 10 (USB2E7196)
Correct for Electrical Dark: No (USB2E7196)
Strobe/Lamp Enabled: No (USB2E7196)
Correct for Detector Non-linearity: No (USB2E7196)
Correct for Stray Light: No (USB2E7196)
Number of Pixels in Processed Spectrum: 2048
>>>>>Begin Processed Spectral Data<<<<<
339.09	0.00
339.48	214.44
339.86	215.46
340.24	217.08
340.63	218.41
341.01	221.65
341.39	221.22
341.78	222.77
342.16	223.83
342.54	223.89
342.93	212.57
343.31	223.31
343.69	223.83
344.07	224.28
344.46	224.68
344.84	225.05
345.22	225.27
345.60	225.51
345.99	225.69
346.37	225.79
346.75	225.86
347.13	225.93
347.52	225.98
347.90	226.00
348.28	225.98
348.66	226.03
349.05	226.02
349.43	225.99
349.81	226.03
350.19	226.03
350.57	226.11
350.96	226.20
351.34	226.29
351.72	226.35
352.10	226.44
352.48	226.50
352.87	226.54
353.25	226.58
353.63	226.60
354.01	226.63
354.39	226.68
354.77	226.76
355.15	226.81
355.54	226.87
355.92	226.88
356.30	226.97
356.68	227.09
357.06	227.19
357.44	227.25
357.82	227.33
358.20	227.39
358.58	227.46
358.97	227.49
359.35	227.54
359.73	227.64
360.11	227.69
360.49	227.78
360.87	227.81
361.25	227.88
361.63	227.96
362.01	228.02
362.39	228.06
362.77	228.12
363.15	228.16
363.53	228.18
363.91	228.26
364.29	228.29
364.67	228.20
365.05	228.20
365.43	228.23
365.81	228.25
366.19	228.32
366.57	228.31
366.95	228.32
367.33	228.28
367.71	228.26
368.09	228.27
368.47	228.23
368.85	228.23
369.23	228.20
369.61	228.14
369.99	228.17
370.37	228.16
370.75	228.17
371.13	228.13
371.51	228.11
371.89	228.07
372.27	228.05
372.65	228.04
373.03	227.98
373.41	227.94
373.78	227.91
374.16	227.82
374.54	227.77
374.92	227.71
375.30	227.65
375.68	227.58
376.06	227.55
376.44	227.50
376.82	227.43
377.19	227.39
377.57	227.33
377.95	227.23
378.33	227.17
378.71	227.06
379.09	227.00
379.47	226.95
379.84	226.87
380.22	226.77
380.60	226.68
380.98	226.62
381.36	226.57
381.73	226.49
382.11	226.39
382.49	226.33
382.87	226.25
383.25	226.23
383.62	226.30
384.00	226.22
384.38	226.18
384.76	226.18
385.13	226.17
385.51	226.12
385.89	226.05
386.27	226.00
386.64	226.01
387.02	225.97
387.40	225.91
387.78	225.90
388.15	225.86
388.53	225.84
388.91	225.84
389.29	225.80
389.66	225.77
390.04	225.78
390.42	225.74
390.79	225.75
391.17	225.71
391.55	225.57
391.92	225.56
392.30	225.55
392.68	225.50
393.05	225.51
393.43	225.51
393.81	225.54
394.18	225.55
394.56	225.54
394.94	225.55
395.31	225.58
395.69	225.61
396.06	225.66
396.44	225.67
396.82	225.66
397.19	225.72
397.57	225.72
397.95	225.79
398.32	225.84
398.70	225.88
399.07	225.97
399.45	226.03
399.82	226.08
400.20	226.12
400.58	226.18
400.95	226.19
401.33	226.28
401.70	226.44
402.08	226.53
402.45	226.62
402.83	226.75
403.20	226.86
403.58	226.93
403.95	227.04
404.33	227.17
404.71	227.31
405.08	227.50
405.46	227.64
405.83	227.77
406.21	227.90
406.58	228.07
406.96	228.25
407.33	228.39
407.70	228.59
408.08	228.89
408.45	229.12
408.83	229.37
409.20	229.58
409.58	229.75
409.95	229.98
410.33	230.24
410.70	230.46
411.08	230.75
411.45	231.07
411.82	231.36
412.20	231.71
412.57	232.14
412.95	232.43
413.32	232.83
413.69	233.23
414.07	233.69
414.44	234.16
414.82	234.62
415.19	235.19
415.56	235.73
415.94	236.21
416.31	236.83
416.68	237.45
417.06	238.16
417.43	238.82
417.81	239.62
418.18	240.38
418.55	241.24
418.93	242.14
419.30	243.03
419.67	243.99
420.04	244.91
420.42	245.86
420.79	247.05
421.16	248.23
421.54	249.41
421.91	250.64
422.28	251.92
422.66	253.22
423.03	254.49
423.40	255.81
423.77	257.24
424.15	258.66
424.52	260.12
424.89	261.77
425.26	263.33
425.64	264.73
426.01	266.32
426.38	267.92
426.75	269.56
427.13	271.27
427.50	273.05
427.87	274.96
428.24	276.82
428.61	278.58
428.99	280.52
429.36	282.59
429.73	284.63
430.10	286.61
430.47	288.66
430.85	290.77
431.22	293.03
431.59	295.45
431.96	297.70
432.33	300.16
432.70	302.52
433.08	305.31
433.45	307.94
433.82	310.53
434.19	313.47
434.56	316.27
434.93	318.90
435.30	321.51
435.68	324.39
436.05	327.20
436.42	329.96
436.79	332.47
437.16	335.15
437.53	337.96
437.90	340.74
438.27	343.48
438.64	346.31
439.01	348.90
439.38	351.09
439.75	353.21
440.13	355.70
440.50	358.00
440.87	359.82
441.24	361.77
441.61	363.91
441.98	365.36
442.35	367.15
442.72	369.01
443.09	370.82
443.46	371.80
443.83	372.41
444.20	372.92
444.57	373.77
444.94	374.09
445.31	374.43
445.68	374.77
446.05	374.84
446.42	374.45
446.79	374.03
447.16	373.58
447.53	373.28
447.90	372.13
448.27	370.98
448.64	369.43
449.01	368.30
449.37	366.39
449.74	364.51
450.11	362.29
450.48	359.83
450.85	357.32
451.22	355.19
451.59	353.16
451.96	351.22
452.33	348.57
452.70	346.20
453.07	343.35
453.43	340.52
453.80	337.81
454.17	335.15
454.54	332.60
454.91	329.88
455.28	327.18
455.65	324.69
456.02	322.25
456.38	320.12
456.75	317.47
457.12	315.22
457.49	312.99
457.86	310.82
458.23	308.98
458.59	306.92
458.96	304.85
459.33	303.01
459.70	301.15
460.07	299.68
460.43	298.00
460.80	296.41
461.17	294.96
461.54	293.46
461.91	292.08
462.27	290.66
462.64	289.43
463.01	288.14
463.38	286.88
463.74	285.52
464.11	284.38
464.48	283.37
464.85	282.26
465.21	281.40
465.58	280.50
465.95	279.41
466.32	278.53
466.68	277.59
467.05	276.72
467.42	275.86
467.78	274.96
468.15	274.11
468.52	273.46
468.88	272.61
469.25	271.83
469.62	271.19
469.98	270.52
470.35	269.91
470.72	269.31
471.08	268.67
471.45	268.15
471.82	267.60
472.18	267.02
472.55	266.61
472.92	266.08
473.28	265.62
473.65	265.19
474.02	264.75
474.38	264.41
474.75	264.10
475.11	263.78
475.48	263.49
475.85	263.26
476.21	263.04
476.58	262.91
476.94	262.77
477.31	262.63
477.67	262.52
478.04	262.41
478.41	262.37
478.77	262.40
479.14	262.31
479.50	262.32
479.87	262.39
480.23	262.50
480.60	262.61
480.96	262.74
481.33	262.97
481.69	263.20
482.06	263.43
482.42	263.63
482.79	263.89
483.15	264.22
483.52	264.61
483.88	264.98
484.25	265.33
484.61	265.80
484.98	266.26
485.34	266.81
485.71	267.38
486.07	267.98
486.44	268.59
486.80	269.35
487.17	270.10
487.53	270.94
487.90	271.77
488.26	272.74
488.62	273.70
488.99	274.67
489.35	275.73
489.72	276.85
490.08	278.04
490.44	279.30
490.81	280.68
491.17	282.02
491.54	283.51
491.90	285.09
492.26	286.69
492.63	288.44
492.99	290.21
493.36	292.15
493.72	294.24
494.08	296.32
494.45	298.55
494.81	300.91
495.17	303.34
495.54	305.92
495.90	308.54
496.26	311.38
496.63	314.33
496.99	317.44
497.35	320.70
497.72	324.14
498.08	327.69
498.44	331.31
498.80	335.19
499.17	339.23
499.53	343.37
499.89	347.72
500.26	352.22
500.62	356.83
500.98	361.76
501.34	366.79
501.71	372.14
502.07	377.60
502.43	383.22
502.79	389.03
503.16	395.09
503.52	401.44
503.88	407.79
504.24	414.46
504.60	421.28
504.97	428.41
505.33	435.68
505.69	443.30
506.05	451.12
506.41	459.09
506.78	467.24
507.14	475.69
507.50	484.52
507.86	493.59
508.22	502.84
508.59	512.04
508.95	521.62
509.31	531.42
509.67	541.52
510.03	551.79
510.39	562.32
510.75	573.14
511.12	584.00
511.48	595.33
511.84	606.80
512.20	618.36
512.56	630.28
512.92	642.47
513.28	654.93
513.64	667.38
514.00	679.98
514.37	692.88
514.73	706.00
515.09	718.91
515.45	732.14
515.81	745.76
516.17	759.78
516.53	773.90
516.89	788.03
517.25	802.12
517.61	816.49
517.97	830.96
518.33	845.31
518.69	860.04
519.05	875.03
519.41	890.08
519.77	905.55
520.13	920.90
520.49	936.22
520.85	951.45
521.21	967.13
521.57	983.38
521.93	999.08
522.29	1015.34
522.65	1031.52
523.01	1047.61
523.37	1063.52
523.73	1079.66
524.09	1095.60
524.45	1111.77
524.81	1128.35
525.17	1145.17
525.53	1161.98
525.89	1178.78
526.25	1195.66
526.61	1211.88
526.97	1228.63
527.33	1244.97
527.68	1261.55
528.04	1278.05
528.40	1294.61
528.76	1311.50
529.12	1328.00
529.48	1344.86
529.84	1360.79
530.20	1377.36
530.56	1394.39
530.91	1411.81
531.27	1428.33
531.63	1444.79
531.99	1461.32
532.35	1477.18
532.71	1492.90
533.07	1509.06
533.42	1524.82
533.78	1540.77
534.14	1557.07
534.50	1572.29
534.86	1588.12
535.21	1603.26
535.57	1618.98
535.93	1634.34
536.29	1649.17
536.65	1663.98
537.00	1678.67
537.36	1693.85
537.72	1708.21
538.08	1722.39
538.44	1735.96
538.79	1749.71
539.15	1763.24
539.51	1776.94
539.87	1791.17
540.22	1804.85
540.58	1818.47
540.94	1831.80
541.29	1844.47
541.65	1856.91
542.01	1870.00
542.37	1882.23
542.72	1894.57
543.08	1906.28
543.44	1918.49
543.79	1929.58
544.15	1940.48
544.51	1951.99
544.87	1963.00
545.22	1973.78
545.58	1984.05
545.94	1993.80
546.29	2003.67
546.65	2013.46
547.01	2022.46
547.36	2031.07
547.72	2039.48
548.07	2047.14
548.43	2055.18
548.79	2063.16
549.14	2070.69
549.50	2077.81
549.86	2085.44
550.21	2092.66
550.57	2099.77
550.92	2106.39
551.28	2113.46
551.64	2120.57
551.99	2126.97
552.35	2132.99
552.70	2139.17
553.06	2145.06
553.41	2151.21
553.77	2157.27
554.13	2163.20
554.48	2169.62
554.84	2175.21
555.19	2180.49
555.55	2185.78
555.90	2190.34
556.26	2195.21
556.61	2199.90
556.97	2204.37
557.32	2208.41
557.68	2212.55
558.03	2216.88
558.39	2220.63
558.74	2225.19
559.10	2229.17
559.45	2232.96
559.81	2237.28
560.16	2241.02
560.52	2244.22
560.87	2247.84
561.23	2250.51
561.58	2253.52
561.94	2255.88
562.29	2258.23
562.64	2260.94
563.00	2263.51
563.35	2267.01
563.71	2270.19
564.06	2273.50
564.42	2276.41
564.77	2279.09
565.12	2281.43
565.48	2283.37
565.83	2285.25
566.19	2286.60
566.54	2287.41
566.89	2288.37
567.25	2289.02
567.60	2290.34
567.96	2292.13
568.31	2292.94
568.66	2294.19
569.02	2294.82
569.37	2295.19
569.72	2296.16
570.08	2296.41
570.43	2296.59
570.78	2295.97
571.14	2294.50
571.49	2293.10
571.84	2292.77
572.20	2291.68
572.55	2290.56
572.90	2288.99
573.26	2287.76
573.61	2286.18
573.96	2284.57
574.31	2281.84
574.67	2278.89
575.02	2275.41
575.37	2272.03
575.72	2268.28
576.08	2264.96
576.43	2261.79
576.78	2258.28
577.13	2255.17
577.49	2252.08
577.84	2248.66
578.19	2245.08
578.54	2241.58
578.90	2237.54
579.25	2232.06
579.60	2227.22
579.95	2222.33
580.30	2217.52
580.66	2212.40
581.01	2207.40
581.36	2202.54
581.71	2198.44
582.06	2194.06
582.42	2189.81
582.77	2184.79
583.12	2180.40
583.47	2175.71
583.82	2170.72
584.17	2165.53
584.53	2160.02
584.88	2154.41
585.23	2148.70
585.58	2143.29
585.93	2137.92
586.28	2133.09
586.63	2128.21
586.98	2123.07
587.34	2118.42
587.69	2113.63
588.04	2108.30
588.39	2102.79
588.74	2096.44
589.09	2090.20
589.44	2083.52
589.79	2077.59
590.14	2071.94
590.49	2065.29
590.84	2058.96
591.19	2053.09
591.54	2046.65
591.89	2039.38
592.25	2032.58
592.60	2025.35
592.95	2017.94
593.30	2010.47
593.65	2003.05
594.00	1995.87
594.35	1988.76
594.70	1980.77
595.05	1973.48
595.40	1966.25
595.75	1958.81
596.10	1952.57
596.45	1945.98
596.80	1939.71
597.15	1933.03
597.50	1926.03
597.85	1919.67
598.19	1912.96
598.54	1905.75
598.89	1899.16
599.24	1893.28
599.59	1886.62
599.94	1880.52
600.29	1874.01
600.64	1867.54
600.99	1860.22
601.34	1853.48
601.69	1846.60
602.04	1839.75
602.39	1832.56
602.74	1825.85
603.08	1819.10
603.43	1812.31
603.78	1804.97
604.13	1797.80
604.48	1790.51
604.83	1783.58
605.18	1776.62
605.53	1768.68
605.87	1760.81
606.22	1753.63
606.57	1745.79
606.92	1738.51
607.27	1731.27
607.62	1724.38
607.96	1717.19
608.31	1710.48
608.66	1702.98
609.01	1695.40
609.36	1687.92
609.70	1679.73
610.05	1671.69
610.40	1663.93
610.75	1655.79
611.10	1648.20
611.44	1639.83
611.79	1631.84
612.14	1623.21
612.49	1614.05
612.83	1605.74
613.18	1597.64
613.53	1589.46
613.88	1580.76
614.22	1572.51
614.57	1563.98
614.92	1555.98
615.27	1548.34
615.61	1539.95
615.96	1531.88
616.31	1524.17
616.65	1516.86
617.00	1509.36
617.35	1501.70
617.70	1493.45
618.04	1484.86
618.39	1476.53
618.74	1468.81
619.08	1460.46
619.43	1452.92
619.78	1446.06
620.12	1438.82
620.47	1431.25
620.82	1423.15
621.16	1415.82
621.51	1408.21
621.85	1400.56
622.20	1392.18
622.55	1383.80
622.89	1375.97
623.24	1368.26
623.59	1360.92
623.93	1353.19
624.28	1346.08
624.62	1338.55
624.97	1331.38
625.32	1324.59
625.66	1317.68
626.01	1310.70
626.35	1303.27
626.70	1295.52
627.04	1287.73
627.39	1279.98
627.73	1272.56
628.08	1265.69
628.43	1258.35
628.77	1251.05
629.12	1243.50
629.46	1236.28
629.81	1228.92
630.15	1221.73
630.50	1214.33
630.84	1206.15
631.19	1198.33
631.53	1190.72
631.88	1183.15
632.22	1175.48
632.57	1168.19
632.91	1160.54
633.26	1153.00
633.60	1145.62
633.95	1138.53
634.29	1131.54
634.64	1124.88
634.98	1117.52
635.32	1110.24
635.67	1103.66
636.01	1096.92
636.36	1090.16
636.70	1083.54
637.05	1076.91
637.39	1070.38
637.73	1063.87
638.08	1057.89
638.42	1051.89
638.77	1045.39
639.11	1038.81
639.45	1032.43
639.80	1025.75
640.14	1019.44
640.49	1012.98
640.83	1006.69
641.17	1000.42
641.52	994.02
641.86	987.57
642.20	981.72
642.55	975.49
642.89	968.93
643.23	962.48
643.58	956.61
643.92	950.45
644.26	944.38
644.61	938.34
644.95	932.34
645.29	925.82
645.64	919.04
645.98	912.75
646.32	906.88
646.66	900.80
647.01	895.04
647.35	889.28
647.69	883.37
648.04	877.82
648.38	871.94
648.72	865.92
649.06	859.75
649.41	853.84
649.75	847.94
650.09	842.03
650.43	836.25
650.78	830.11
651.12	824.14
651.46	818.41
651.80	812.75
652.14	807.38
652.49	801.97
652.83	796.80
653.17	791.07
653.51	785.30
653.85	779.89
654.20	774.23
654.54	768.19
654.88	762.52
655.22	756.69
655.56	751.05
655.90	745.68
656.25	740.50
656.59	735.16
656.93	730.06
657.27	724.87
657.61	719.39
657.95	714.30
658.29	709.27
658.64	704.08
658.98	698.69
659.32	693.31
659.66	688.16
660.00	682.89
660.34	677.98
660.68	673.12
661.02	668.20
661.36	663.51
661.70	659.04
662.05	654.63
662.39	650.24
662.73	645.75
663.07	641.41
663.41	636.92
663.75	632.42
664.09	627.80
664.43	623.45
664.77	619.30
665.11	615.00
665.45	610.82
665.79	606.73
666.13	602.59
666.47	598.41
666.81	594.22
667.15	590.05
667.49	586.15
667.83	582.30
668.17	578.25
668.51	574.15
668.85	570.16
669.19	566.28
669.53	562.43
669.87	558.59
670.21	554.88
670.55	551.28
670.89	547.90
671.23	544.50
671.57	540.96
671.91	537.46
672.25	534.07
672.58	530.63
672.92	527.21
673.26	524.02
673.60	520.88
673.94	517.79
674.28	514.92
674.62	511.95
674.96	508.85
675.30	506.00
675.64	503.05
675.97	500.18
676.31	497.41
676.65	494.51
676.99	491.81
677.33	488.89
677.67	486.06
678.01	482.95
678.34	479.95
678.68	477.07
679.02	474.23
679.36	471.38
679.70	468.66
680.04	465.88
680.37	463.03
680.71	460.25
681.05	457.64
681.39	454.90
681.73	452.28
682.06	449.77
682.40	447.19
682.74	444.66
683.08	442.11
683.42	439.47
683.75	436.98
684.09	434.42
684.43	431.92
684.77	429.43
685.10	427.08
685.44	424.76
685.78	422.46
686.12	420.17
686.45	417.91
686.79	415.54
687.13	413.34
687.46	411.21
687.80	409.02
688.14	406.76
688.48	404.70
688.81	402.44
689.15	400.24
689.49	398.12
689.82	396.02
690.16	393.97
690.50	391.99
690.83	390.00
691.17	387.96
691.51	386.07
691.84	384.26
692.18	382.31
692.52	380.34
692.85	378.45
693.19	376.58
693.52	374.72
693.86	372.93
694.20	371.14
694.53	369.30
694.87	367.47
695.21	365.71
695.54	363.89
695.88	362.15
696.21	360.44
696.55	358.76
696.88	357.09
697.22	355.44
697.56	353.86
697.89	352.26
698.23	350.71
698.56	349.11
698.90	347.56
699.23	345.94
699.57	344.39
699.90	342.81
700.24	341.27
700.58	339.76
700.91	338.23
701.25	336.82
701.58	335.46
701.92	334.14
702.25	332.71
702.59	331.29
702.92	329.98
703.26	328.67
703.59	327.43
703.93	326.25
704.26	325.00
704.60	323.67
704.93	322.39
705.26	321.08
705.60	319.87
705.93	318.65
706.27	317.61
706.60	316.54
706.94	315.47
707.27	314.33
707.61	313.26
707.94	312.25
708.27	311.16
708.61	310.07
708.94	309.00
709.28	308.07
709.61	307.17
709.94	306.18
710.28	305.14
710.61	304.14
710.95	303.04
711.28	302.10
711.61	301.17
711.95	300.24
712.28	299.31
712.61	298.27
712.95	297.33
713.28	296.46
713.61	295.52
713.95	294.66
714.28	293.84
714.61	292.98
714.95	292.11
715.28	291.27
715.61	290.33
715.95	289.48
716.28	288.58
716.61	287.69
716.95	286.88
717.28	286.12
717.61	285.33
717.94	284.59
718.28	283.79
718.61	283.04
718.94	282.32
719.27	281.64
719.61	281.05
719.94	280.39
720.27	279.65
720.60	279.01
720.94	278.37
721.27	277.74
721.60	277.11
721.93	276.52
722.27	275.95
722.60	275.45
722.93	274.87
723.26	274.33
723.59	273.83
723.93	273.24
724.26	272.69
724.59	272.13
724.92	271.55
725.25	271.07
725.59	270.55
725.92	270.04
726.25	269.53
726.58	269.06
726.91	268.57
727.24	268.12
727.57	267.66
727.91	267.14
728.24	266.69
728.57	266.26
728.90	265.81
729.23	265.27
729.56	264.84
729.89	264.43
730.22	263.93
730.55	263.44
730.89	263.02
731.22	262.59
731.55	262.21
731.88	261.84
732.21	261.40
732.54	260.97
732.87	260.56
733.20	260.18
733.53	259.78
733.86	259.42
734.19	259.01
734.52	258.63
734.85	258.33
735.18	257.92
735.51	257.56
735.84	257.20
736.17	256.90
736.50	256.50
736.83	256.25
737.16	255.94
737.49	255.61
737.82	255.30
738.15	254.95
738.48	254.59
738.81	254.25
739.14	253.92
739.47	253.64
739.80	253.34
740.13	253.05
740.46	252.73
740.79	252.42
741.12	252.12
741.45	251.81
741.78	251.46
742.11	251.18
742.44	250.81
742.77	250.50
743.10	250.19
743.43	249.90
743.75	249.50
744.08	249.35
744.41	249.06
744.74	248.78
745.07	248.50
745.40	248.23
745.73	248.01
746.06	247.72
746.39	247.41
746.71	247.12
747.04	246.83
747.37	246.54
747.70	246.28
748.03	246.03
748.36	245.81
748.68	245.58
749.01	245.33
749.34	245.11
749.67	244.89
750.00	244.65
750.33	244.52
750.65	244.31
750.98	243.95
751.31	243.75
751.64	243.56
751.97	243.39
752.29	243.19
752.62	242.91
752.95	242.74
753.28	242.52
753.60	242.31
753.93	242.11
754.26	241.92
754.59	241.70
754.91	241.48
755.24	241.23
755.57	241.01
755.90	240.84
756.22	240.66
756.55	240.44
756.88	240.26
757.20	239.98
757.53	239.78
757.86	239.62
758.19	239.46
758.51	239.28
758.84	239.06
759.17	238.88
759.49	238.73
759.82	238.58
760.15	238.46
760.47	238.32
760.80	238.18
761.13	238.05
761.45	237.88
761.78	237.75
762.11	237.64
762.43	237.51
762.76	237.34
763.08	237.22
763.41	237.07
763.74	236.92
764.06	236.77
764.39	236.63
764.71	236.47
765.04	236.31
765.37	236.17
765.69	236.06
766.02	235.94
766.34	235.83
766.67	235.69
767.00	235.59
767.32	235.55
767.65	235.50
767.97	235.38
768.30	235.27
768.62	235.15
768.95	235.02
769.27	234.89
769.60	234.78
769.92	234.67
770.25	234.58
770.57	234.50
770.90	234.42
771.22	234.33
771.55	234.26
771.87	234.21
772.20	234.12
772.52	234.11
772.85	234.13
773.17	234.05
773.50	233.97
773.82	233.85
774.15	233.69
774.47	233.51
774.80	233.45
775.12	233.37
775.45	233.31
775.77	233.24
776.09	233.18
776.42	233.15
776.74	233.09
777.07	233.01
777.39	232.93
777.72	232.83
778.04	232.77
778.36	232.72
778.69	232.64
779.01	232.60
779.33	232.45
779.66	232.28
779.98	232.21
780.31	232.13
780.63	232.13
780.95	232.11
781.28	232.06
781.60	231.94
781.92	231.90
782.25	231.83
782.57	231.75
782.89	231.68
783.22	231.62
783.54	231.55
783.86	231.51
784.19	231.45
784.51	231.42
784.83	231.35
785.16	231.27
785.48	231.21
785.80	231.12
786.12	231.06
786.45	231.02
786.77	230.99
787.09	230.93
787.42	230.82
787.74	230.73
788.06	230.70
788.38	230.68
788.71	230.61
789.03	230.57
789.35	230.56
789.67	230.50
789.99	230.45
790.32	230.38
790.64	230.33
790.96	230.37
791.28	230.31
791.61	230.28
791.93	230.27
792.25	230.20
792.57	230.23
792.89	230.16
793.21	230.14
793.54	230.06
793.86	230.00
794.18	229.95
794.50	229.94
794.82	229.92
795.14	229.90
795.47	229.88
795.79	229.81
796.11	229.75
796.43	229.71
796.75	229.68
797.07	229.67
797.39	229.63
797.71	229.54
798.04	229.51
798.36	229.49
798.68	229.41
799.00	229.40
799.32	229.30
799.64	229.30
799.96	229.26
800.28	229.26
800.60	229.23
800.92	229.22
801.24	229.17
801.56	229.08
801.89	229.04
802.21	229.04
802.53	229.04
802.85	229.02
803.17	229.02
803.49	228.95
803.81	228.91
804.13	228.86
804.45	228.83
804.77	228.81
805.09	228.76
805.41	228.76
805.73	228.70
806.05	228.67
806.37	228.63
806.69	228.58
807.01	228.59
807.33	228.59
807.65	228.55
807.97	228.59
808.28	228.58
808.60	228.57
808.92	228.52
809.24	228.53
809.56	228.49
809.88	228.46
810.20	228.44
810.52	228.44
810.84	228.43
811.16	228.40
811.48	228.37
811.80	228.40
812.12	228.38
812.43	228.39
812.75	228.36
813.07	228.32
813.39	228.32
813.71	228.26
814.03	228.23
814.35	228.24
814.67	228.12
814.98	228.13
815.30	228.09
815.62	228.06
815.94	227.98
816.26	228.02
816.58	227.98
816.89	227.97
817.21	227.94
817.53	227.94
817.85	227.92
818.17	227.90
818.48	227.83
818.80	227.82
819.12	227.75
819.44	227.74
819.76	227.76
820.07	227.75
820.39	227.75
820.71	227.71
821.03	227.71
821.34	227.72
821.66	227.69
821.98	227.69
822.30	227.68
822.61	227.73
822.93	227.68
823.25	227.68
823.57	227.67
823.88	227.66
824.20	227.65
824.52	227.65
824.83	227.65
825.15	227.66
825.47	227.63
825.79	227.67
826.10	227.63
826.42	227.57
826.74	227.52
827.05	227.48
827.37	227.49
827.69	227.45
828.00	227.44
828.32	227.43
828.64	227.39
828.95	227.42
829.27	227.38
829.58	227.37
829.90	227.36
830.22	227.35
830.53	227.31
830.85	227.30
831.17	227.27
831.48	227.25
831.80	227.23
832.11	227.21
832.43	227.19
832.75	227.20
833.06	227.28
833.38	227.28
833.69	227.26
834.01	227.23
834.32	227.23
834.64	227.21
834.96	227.21
835.27	227.19
835.59	227.14
835.90	227.12
836.22	227.11
836.53	227.09
836.85	227.08
837.16	227.18
837.48	227.16
837.79	227.16
838.11	227.15
838.42	227.14
838.74	227.14
839.05	227.11
839.37	227.09
839.68	227.02
840.00	226.98
840.31	227.00
840.63	226.99
840.94	227.01
841.26	226.98
841.57	226.97
841.88	227.00
842.20	226.96
842.51	226.94
842.83	226.91
843.14	227.00
843.46	226.98
843.77	226.93
844.08	226.93
844.40	226.90
844.71	226.90
845.03	226.88
845.34	226.87
845.65	226.86
845.97	226.85
846.28	226.88
846.60	226.89
846.91	226.85
847.22	226.85
847.54	226.83
847.85	226.86
848.16	226.87
848.48	226.82
848.79	226.86
849.10	226.87
849.42	226.91
849.73	226.80
850.04	226.81
850.36	226.74
850.67	226.71
850.98	226.71
851.30	226.68
851.61	226.70
851.92	226.69
852.23	226.74
852.55	226.74
852.86	226.74
853.17	226.77
853.49	226.82
853.80	226.83
854.11	226.83
854.42	226.81
854.74	226.78
855.05	226.80
855.36	226.74
855.67	226.72
855.99	226.67
856.30	226.80
856.61	226.77
856.92	226.82
857.23	226.82
857.55	226.81
857.86	226.79
858.17	226.79
858.48	226.79
858.79	226.73
859.11	226.74
859.42	226.72
859.73	226.67
860.04	226.65
860.35	226.62
860.66	226.59
860.98	226.58
861.29	226.61
861.60	226.60
861.91	226.65
862.22	226.65
862.53	226.67
862.84	226.54
863.16	226.60
863.47	226.54
863.78	226.53
864.09	226.55
864.40	226.59
864.71	226.56
865.02	226.52
865.33	226.51
865.64	226.50
865.95	226.51
866.27	226.58
866.58	226.56
866.89	226.59
867.20	226.58
867.51	226.59
867.82	226.57
868.13	226.58
868.44	226.51
868.75	226.51
869.06	226.49
869.37	226.48
869.68	226.40
869.99	226.42
870.30	226.46
870.61	226.45
870.92	226.45
871.23	226.43
871.54	226.51
871.85	226.55
872.16	226.56
872.47	226.55
872.78	226.49
873.09	226.48
873.40	226.44
873.71	226.48
874.02	226.49
874.33	226.46
874.64	226.44
874.95	226.48
875.26	226.49
875.56	226.51
875.87	226.51
876.18	226.51
876.49	226.61
876.80	226.57
877.11	226.55
877.42	226.55
877.73	226.57
878.04	226.53
878.35	226.54
878.66	226.52
878.96	226.50
879.27	226.52
879.58	226.54
879.89	226.54
880.20	226.57
880.51	226.54
880.82	226.56
881.12	226.59
881.43	226.57
881.74	226.52
882.05	226.51
882.36	226.52
882.67	226.55
882.97	226.42
883.28	226.42
883.59	226.44
883.90	226.42
884.21	226.44
884.51	226.45
884.82	226.43
885.13	226.44
885.44	226.45
885.74	226.45
886.05	226.41
886.36	226.41
886.67	226.34
886.98	226.41
887.28	226.41
887.59	226.41
887.90	226.42
888.20	226.42
888.51	226.46
888.82	226.44
889.13	226.44
889.43	226.52
889.74	226.52
890.05	226.51
890.35	226.52
890.66	226.48
890.97	226.42
891.28	226.41
891.58	226.39
891.89	226.34
892.20	226.32
892.50	226.31
892.81	226.31
893.12	226.32
893.42	226.24
893.73	226.23
894.04	226.19
894.34	226.21
894.65	226.23
894.95	226.15
895.26	226.15
895.57	226.17
895.87	226.07
896.18	226.07
896.48	226.07
896.79	226.04
897.10	226.06
897.40	226.10
897.71	226.11
898.01	226.10
898.32	226.12
898.63	226.11
898.93	226.11
899.24	226.13
899.54	226.10
899.85	226.12
900.15	226.12
900.46	226.13
900.76	226.10
901.07	226.10
901.38	226.15
901.68	226.17
901.99	226.13
902.29	226.12
902.60	226.07
902.90	226.03
903.21	226.05
903.51	226.05
903.82	226.06
904.12	226.04
904.43	226.05
904.73	226.05
905.03	226.07
905.34	226.16
905.64	226.14
905.95	226.15
906.25	226.13
906.56	226.11
906.86	226.11
907.17	226.09
907.47	226.08
907.77	226.03
908.08	226.00
908.38	225.99
908.69	226.01
908.99	226.08
909.30	226.06
909.60	226.09
909.90	226.10
910.21	226.05
910.51	226.03
910.81	226.02
911.12	226.02
911.42	226.01
911.73	225.91
912.03	225.88
912.33	225.89
912.64	225.87
912.94	225.90
913.24	225.89
913.55	225.92
913.85	225.91
914.15	226.00
914.46	226.00
914.76	225.99
915.06	225.98
915.37	225.95
915.67	225.96
915.97	225.93
916.27	225.93
916.58	225.99
916.88	226.00
917.18	226.01
917.49	226.09
917.79	226.08
918.09	226.12
918.39	226.16
918.70	226.18
919.00	226.16
919.30	226.17
919.60	226.15
919.91	226.09
920.21	226.07
920.51	226.02
920.81	226.02
921.12	226.01
921.42	226.02
921.72	226.02
922.02	226.06
922.32	226.10
922.63	226.06
922.93	226.08
923.23	226.11
923.53	226.08
923.83	225.99
924.13	226.02
924.44	226.03
924.74	226.06
925.04	226.07
925.34	226.09
925.64	226.05
925.94	226.06
926.24	226.14
926.55	226.12
926.85	226.16
927.15	226.16
927.45	226.18
927.75	226.19
928.05	226.19
928.35	226.17
928.65	226.16
928.95	226.17
929.26	226.08
929.56	226.07
929.86	226.07
930.16	226.06
930.46	226.07
930.76	226.07
931.06	225.99
931.36	225.97
931.66	225.98
931.96	226.01
932.26	226.01
932.56	226.00
932.86	226.04
933.16	226.01
933.46	226.00
933.76	225.99
934.06	225.99
934.36	226.03
934.66	226.01
934.96	226.00
935.26	226.01
935.56	226.05
935.86	226.07
936.16	226.07
936.46	226.10
936.76	226.08
937.06	226.07
937.36	226.09
937.66	226.08
937.96	226.08
938.26	226.06
938.56	226.09
938.86	226.06
939.16	226.10
939.46	226.10
939.76	226.11
940.06	226.10
940.35	226.10
940.65	226.03
940.95	226.03
941.25	226.02
941.55	225.99
941.85	225.96
942.15	225.95
942.45	226.00
942.75	225.98
943.04	225.97
943.34	225.98
943.64	225.96
943.94	225.96
944.24	225.96
944.54	225.93
944.84	225.91
945.13	225.92
945.43	225.91
945.73	225.90
946.03	225.87
946.33	225.87
946.62	225.85
946.92	225.85
947.22	225.85
947.52	225.81
947.82	225.85
948.11	225.86
948.41	225.81
948.71	225.77
949.01	225.77
949.31	225.77
949.60	225.74
949.90	225.74
950.20	225.75
950.50	225.74
950.79	225.74
951.09	225.75
951.39	225.72
951.69	225.69
951.98	225.69
952.28	225.71
952.58	225.72
952.87	225.74
953.17	225.75
953.47	225.74
953.76	225.74
954.06	225.71
954.36	225.70
954.66	225.71
954.95	225.74
955.25	225.75
955.55	225.73
955.84	225.74
956.14	225.75
956.44	225.77
956.73	225.77
957.03	225.78
957.32	225.82
957.62	225.82
957.92	225.83
958.21	225.82
958.51	225.91
958.81	225.91
959.10	225.91
959.40	225.94
959.69	225.96
959.99	225.99
960.29	226.01
960.58	225.99
960.88	226.03
961.17	226.02
961.47	226.02
961.76	226.00
962.06	226.03
962.36	226.03
962.65	226.01
962.95	226.00
963.24	225.98
963.54	225.93
963.83	225.95
964.13	225.94
964.42	225.93
964.72	225.87
965.01	225.91
965.31	225.88
965.60	225.86
965.90	225.94
966.19	225.90
966.49	225.91
966.78	225.95
967.08	225.93
967.37	225.94
967.67	225.95
967.96	225.98
968.26	225.97
968.55	225.97
968.85	225.98
969.14	225.98
969.43	226.01
969.73	226.03
970.02	226.04
970.32	226.06
970.61	226.09
970.91	226.04
971.20	226.01
971.49	226.02
971.79	226.01
972.08	225.92
972.38	225.97
972.67	225.98
972.96	225.99
973.26	225.99
973.55	226.05
973.85	226.03
974.14	226.04
974.43	226.05
974.73	226.05
975.02	226.04
975.31	226.06
975.61	226.03
975.90	226.05
976.19	226.05
976.49	226.07
976.78	226.04
977.07	226.03
977.37	226.04
977.66	226.04
977.95	226.04
978.24	226.06
978.54	226.05
978.83	226.03
979.12	226.02
979.42	226.01
979.71	225.97
980.00	225.96
980.29	225.97
980.59	225.95
980.88	225.99
981.17	225.98
981.46	225.99
981.76	225.99
982.05	225.98
982.34	225.99
982.63	225.99
982.93	226.01
983.22	226.05
983.51	226.06
983.80	226.05
984.09	226.07
984.39	226.05
984.68	226.07
984.97	226.06
985.26	226.04
985.55	226.06
985.85	226.02
986.14	226.02
986.43	226.01
986.72	226.02
987.01	225.96
987.30	225.95
987.59	225.92
987.89	225.94
988.18	225.94
988.47	225.92
988.76	225.91
989.05	225.92
989.34	225.90
989.63	225.91
989.92	225.94
990.22	225.91
990.51	225.92
990.80	225.91
991.09	225.93
991.38	225.92
991.67	225.88
991.96	225.90
992.25	225.91
992.54	225.91
992.83	225.88
993.12	225.90
993.41	225.91
993.70	225.92
993.99	225.91
994.28	225.90
994.58	225.90
994.87	225.89
995.16	225.87
995.45	225.87
995.74	225.84
996.03	225.85
996.32	225.92
996.61	225.93
996.90	225.93
997.19	225.94
997.48	225.94
997.77	225.95
998.06	225.92
998.34	225.94
998.63	225.93
998.92	225.97
999.21	225.96
999.50	225.99
999.79	225.98
1000.08	226.01
1000.37	225.99
1000.66	226.01
1000.95	226.03
1001.24	226.03
1001.53	226.06
1001.82	226.09
1002.11	226.06
1002.40	226.03
1002.68	226.02
1002.97	226.04
1003.26	226.00
1003.55	226.00
1003.84	226.02
1004.13	226.08
1004.42	226.07
1004.71	226.08
1004.99	226.05
1005.28	226.11
1005.57	226.09
1005.86	226.09
1006.15	226.08
1006.44	226.09
1006.72	226.12
1007.01	226.09
1007.30	226.10
1007.59	226.10
1007.88	226.10
1008.17	226.09
1008.45	226.11
1008.74	226.10
1009.03	226.07
1009.32	226.14
1009.60	226.15
1009.89	226.12
1010.18	226.08
1010.47	226.08
1010.76	226.09
1011.04	226.10
1011.33	226.10
1011.62	226.13
1011.91	226.16
1012.19	226.20
1012.48	226.23
1012.77	226.20
1013.05	226.27
1013.34	226.27
1013.63	226.22
1013.92	226.22
1014.20	226.24
1014.49	226.23
1014.78	226.23
1015.06	226.21
1015.35	226.18
1015.64	226.22
1015.92	226.23
1016.21	226.21
1016.50	226.21
1016.78	226.21
1017.07	226.22
1017.36	226.21
1017.64	226.17
1017.93	226.14
1018.22	226.12
1018.50	226.09
1018.79	226.09
1019.08	226.04
1019.36	226.04
1019.65	226.05
1019.93	226.07
1020.22	226.06
1020.51	226.09
1020.79	226.09
1021.08	226.34
1021.36	226.03
1021.65	225.98
1021.94	225.97
1022.22	226.26
1022.51	225.68
1022.79	226.46
1023.08	226.07
1023.36	227.07
1023.65	225.67
>>>>>End Processed Spectral Data<<<<<
