SpectraSuite Data File
++++++++++++++++++++++++++++++++++++
Date: Fri Feb 01 16:03:28 EST 2013
User: group
Dark Spectrum Present: No
Reference Spectrum Present: No
Number of Sampled Component Spectra: 1
Spectrometers: USB2E7196
Integration Time (usec): 35000 (USB2E7196)
Spectra Averaged: 100 (USB2E7196)
Boxcar Smoothing: 10 (USB2E7196)
Correct for Electrical Dark: No (USB2E7196)
Strobe/Lamp Enabled: No (USB2E7196)
Correct for Detector Non-linearity: No (USB2E7196)
Correct for Stray Light: No (USB2E7196)
Number of Pixels in Processed Spectrum: 2048
>>>>>Begin Processed Spectral Data<<<<<
339.09	0.00
339.48	214.57
339.86	216.58
340.24	217.31
340.63	219.23
341.01	221.73
341.39	222.02
341.78	223.13
342.16	224.48
342.54	224.53
342.93	213.04
343.31	223.80
343.69	224.37
344.07	224.80
344.46	225.22
344.84	225.56
345.22	225.77
345.60	226.00
345.99	226.18
346.37	226.26
346.75	226.36
347.13	226.43
347.52	226.50
347.90	226.56
348.28	226.56
348.66	226.61
349.05	226.61
349.43	226.65
349.81	226.71
350.19	226.74
350.57	226.84
350.96	226.93
351.34	227.01
351.72	227.07
352.10	227.18
352.48	227.27
352.87	227.32
353.25	227.42
353.63	227.49
354.01	227.58
354.39	227.68
354.77	227.76
355.15	227.83
355.54	227.90
355.92	227.95
356.30	228.02
356.68	228.14
357.06	228.24
357.44	228.29
357.82	228.37
358.20	228.44
358.58	228.49
358.97	228.55
359.35	228.64
359.73	228.73
360.11	228.80
360.49	228.86
360.87	228.96
361.25	229.01
361.63	229.10
362.01	229.14
362.39	229.18
362.77	229.25
363.15	229.30
363.53	229.34
363.91	229.37
364.29	229.40
364.67	229.36
365.05	229.41
365.43	229.46
365.81	229.49
366.19	229.51
366.57	229.56
366.95	229.57
367.33	229.56
367.71	229.54
368.09	229.54
368.47	229.52
368.85	229.47
369.23	229.46
369.61	229.36
369.99	229.39
370.37	229.36
370.75	229.37
371.13	229.27
371.51	229.21
371.89	229.17
372.27	229.14
372.65	229.11
373.03	229.04
373.41	228.97
373.78	228.89
374.16	228.79
374.54	228.69
374.92	228.61
375.30	228.52
375.68	228.46
376.06	228.42
376.44	228.35
376.82	228.30
377.19	228.24
377.57	228.18
377.95	228.04
378.33	227.94
378.71	227.81
379.09	227.78
379.47	227.71
379.84	227.62
380.22	227.49
380.60	227.38
380.98	227.31
381.36	227.22
381.73	227.15
382.11	227.11
382.49	227.03
382.87	226.96
383.25	226.88
383.62	226.89
384.00	226.76
384.38	226.68
384.76	226.67
385.13	226.66
385.51	226.64
385.89	226.58
386.27	226.57
386.64	226.52
387.02	226.44
387.40	226.41
387.78	226.37
388.15	226.39
388.53	226.35
388.91	226.31
389.29	226.28
389.66	226.28
390.04	226.27
390.42	226.26
390.79	226.24
391.17	226.23
391.55	226.14
391.92	226.17
392.30	226.20
392.68	226.14
393.05	226.12
393.43	226.10
393.81	226.13
394.18	226.13
394.56	226.17
394.94	226.22
395.31	226.23
395.69	226.27
396.06	226.32
396.44	226.37
396.82	226.42
397.19	226.51
397.57	226.53
397.95	226.57
398.32	226.61
398.70	226.72
399.07	226.82
399.45	226.87
399.82	226.90
400.20	226.95
400.58	227.04
400.95	227.08
401.33	227.18
401.70	227.34
402.08	227.42
402.45	227.50
402.83	227.65
403.20	227.77
403.58	227.89
403.95	227.99
404.33	228.11
404.71	228.21
405.08	228.38
405.46	228.52
405.83	228.68
406.21	228.82
406.58	228.98
406.96	229.15
407.33	229.33
407.70	229.55
408.08	229.85
408.45	230.07
408.83	230.31
409.20	230.54
409.58	230.71
409.95	230.98
410.33	231.24
410.70	231.44
411.08	231.72
411.45	232.03
411.82	232.35
412.20	232.69
412.57	233.12
412.95	233.41
413.32	233.81
413.69	234.21
414.07	234.67
414.44	235.12
414.82	235.61
415.19	236.14
415.56	236.69
415.94	237.18
416.31	237.83
416.68	238.46
417.06	239.13
417.43	239.80
417.81	240.59
418.18	241.39
418.55	242.22
418.93	243.12
419.30	244.00
419.67	244.93
420.04	245.93
420.42	246.93
420.79	248.11
421.16	249.25
421.54	250.40
421.91	251.63
422.28	252.88
422.66	254.22
423.03	255.53
423.40	256.87
423.77	258.27
424.15	259.68
424.52	261.17
424.89	262.78
425.26	264.35
425.64	265.77
426.01	267.34
426.38	269.02
426.75	270.68
427.13	272.41
427.50	274.22
427.87	276.07
428.24	277.91
428.61	279.68
428.99	281.67
429.36	283.82
429.73	285.84
430.10	287.83
430.47	289.83
430.85	291.92
431.22	294.14
431.59	296.52
431.96	298.76
432.33	301.22
432.70	303.62
433.08	306.40
433.45	309.01
433.82	311.63
434.19	314.48
434.56	317.27
434.93	319.89
435.30	322.50
435.68	325.35
436.05	328.17
436.42	330.94
436.79	333.41
437.16	336.11
437.53	338.96
437.90	341.78
438.27	344.53
438.64	347.36
439.01	349.95
439.38	352.19
439.75	354.37
440.13	356.85
440.50	359.15
440.87	361.00
441.24	362.96
441.61	365.09
441.98	366.64
442.35	368.43
442.72	370.33
443.09	372.13
443.46	373.13
443.83	373.68
444.20	374.18
444.57	375.04
444.94	375.28
445.31	375.63
445.68	375.99
446.05	376.09
446.42	375.68
446.79	375.26
447.16	374.80
447.53	374.46
447.90	373.31
448.27	372.19
448.64	370.60
449.01	369.47
449.37	367.51
449.74	365.59
450.11	363.36
450.48	360.84
450.85	358.30
451.22	356.20
451.59	354.20
451.96	352.26
452.33	349.67
452.70	347.32
453.07	344.48
453.43	341.61
453.80	338.81
454.17	336.18
454.54	333.63
454.91	330.91
455.28	328.24
455.65	325.78
456.02	323.32
456.38	321.23
456.75	318.58
457.12	316.33
457.49	314.09
457.86	311.94
458.23	310.09
458.59	308.06
458.96	305.95
459.33	304.10
459.70	302.25
460.07	300.74
460.43	299.04
460.80	297.41
461.17	295.97
461.54	294.49
461.91	293.03
462.27	291.59
462.64	290.35
463.01	289.00
463.38	287.74
463.74	286.34
464.11	285.14
464.48	284.12
464.85	283.03
465.21	282.21
465.58	281.27
465.95	280.18
466.32	279.26
466.68	278.40
467.05	277.51
467.42	276.61
467.78	275.67
468.15	274.79
468.52	274.12
468.88	273.25
469.25	272.51
469.62	271.96
469.98	271.32
470.35	270.73
470.72	270.11
471.08	269.38
471.45	268.85
471.82	268.30
472.18	267.71
472.55	267.24
472.92	266.70
473.28	266.24
473.65	265.79
474.02	265.37
474.38	264.98
474.75	264.69
475.11	264.34
475.48	264.09
475.85	263.89
476.21	263.66
476.58	263.47
476.94	263.30
477.31	263.09
477.67	262.94
478.04	262.79
478.41	262.76
478.77	262.82
479.14	262.74
479.50	262.75
479.87	262.80
480.23	262.90
480.60	262.95
480.96	263.03
481.33	263.25
481.69	263.45
482.06	263.65
482.42	263.84
482.79	264.11
483.15	264.41
483.52	264.79
483.88	265.13
484.25	265.54
484.61	265.95
484.98	266.42
485.34	266.97
485.71	267.56
486.07	268.16
486.44	268.74
486.80	269.44
487.17	270.17
487.53	270.98
487.90	271.83
488.26	272.79
488.62	273.77
488.99	274.73
489.35	275.76
489.72	276.87
490.08	278.07
490.44	279.27
490.81	280.59
491.17	281.90
491.54	283.40
491.90	284.89
492.26	286.55
492.63	288.28
492.99	290.02
493.36	291.94
493.72	293.98
494.08	296.11
494.45	298.37
494.81	300.78
495.17	303.25
495.54	305.81
495.90	308.51
496.26	311.34
496.63	314.34
496.99	317.47
497.35	320.77
497.72	324.20
498.08	327.77
498.44	331.41
498.80	335.38
499.17	339.43
499.53	343.67
499.89	348.04
500.26	352.57
500.62	357.32
500.98	362.27
501.34	367.37
501.71	372.67
502.07	378.14
502.43	383.77
502.79	389.58
503.16	395.67
503.52	401.96
503.88	408.34
504.24	414.99
504.60	421.90
504.97	429.04
505.33	436.36
505.69	444.06
506.05	451.87
506.41	459.72
506.78	467.82
507.14	476.30
507.50	485.04
507.86	494.11
508.22	503.24
508.59	512.49
508.95	522.07
509.31	531.94
509.67	542.06
510.03	552.30
510.39	562.76
510.75	573.49
511.12	584.45
511.48	595.75
511.84	607.19
512.20	618.71
512.56	630.71
512.92	642.90
513.28	655.32
513.64	667.85
514.00	680.61
514.37	693.61
514.73	706.68
515.09	719.70
515.45	732.93
515.81	746.48
516.17	760.51
516.53	774.59
516.89	788.70
517.25	802.90
517.61	817.30
517.97	831.88
518.33	846.44
518.69	861.18
519.05	876.21
519.41	891.35
519.77	906.85
520.13	922.17
520.49	937.53
520.85	952.80
521.21	968.53
521.57	984.66
521.93	1000.32
522.29	1016.74
522.65	1032.99
523.01	1049.19
523.37	1065.28
523.73	1081.39
524.09	1097.39
524.45	1113.78
524.81	1130.31
525.17	1147.22
525.53	1164.13
525.89	1180.93
526.25	1197.82
526.61	1214.21
526.97	1230.88
527.33	1247.31
527.68	1263.79
528.04	1280.22
528.40	1296.86
528.76	1313.87
529.12	1330.54
529.48	1347.46
529.84	1363.49
530.20	1380.16
530.56	1397.19
530.91	1414.49
531.27	1431.26
531.63	1447.83
531.99	1464.32
532.35	1480.27
532.71	1496.05
533.07	1512.25
533.42	1528.11
533.78	1543.95
534.14	1560.19
534.50	1575.62
534.86	1591.53
535.21	1606.80
535.57	1622.74
535.93	1638.21
536.29	1652.90
536.65	1667.89
537.00	1682.54
537.36	1697.70
537.72	1712.22
538.08	1726.60
538.44	1740.41
538.79	1754.10
539.15	1767.74
539.51	1781.41
539.87	1795.71
540.22	1809.38
540.58	1822.98
540.94	1836.23
541.29	1849.15
541.65	1861.72
542.01	1874.79
542.37	1887.05
542.72	1899.48
543.08	1911.12
543.44	1923.36
543.79	1934.66
544.15	1945.55
544.51	1957.21
544.87	1968.11
545.22	1978.85
545.58	1988.95
545.94	1998.65
546.29	2008.50
546.65	2018.20
547.01	2027.36
547.36	2036.09
547.72	2044.52
548.07	2052.31
548.43	2060.51
548.79	2068.61
549.14	2076.15
549.50	2083.51
549.86	2091.27
550.21	2098.56
550.57	2105.76
550.92	2112.33
551.28	2119.34
551.64	2126.37
551.99	2132.77
552.35	2138.87
552.70	2144.86
553.06	2150.85
553.41	2157.21
553.77	2163.37
554.13	2169.55
554.48	2175.82
554.84	2181.22
555.19	2186.53
555.55	2191.75
555.90	2196.16
556.26	2201.03
556.61	2205.75
556.97	2210.00
557.32	2213.97
557.68	2218.08
558.03	2222.40
558.39	2226.23
558.74	2230.84
559.10	2234.79
559.45	2238.62
559.81	2242.98
560.16	2246.81
560.52	2250.09
560.87	2253.49
561.23	2256.06
561.58	2259.03
561.94	2261.55
562.29	2263.92
562.64	2266.57
563.00	2269.23
563.35	2272.80
563.71	2275.87
564.06	2279.13
564.42	2282.02
564.77	2284.55
565.12	2286.85
565.48	2288.69
565.83	2290.59
566.19	2291.77
566.54	2292.76
566.89	2293.82
567.25	2294.36
567.60	2295.76
567.96	2297.39
568.31	2298.38
568.66	2299.62
569.02	2300.11
569.37	2300.41
569.72	2301.30
570.08	2301.60
570.43	2301.57
570.78	2300.99
571.14	2299.46
571.49	2298.19
571.84	2297.83
572.20	2296.75
572.55	2295.66
572.90	2294.40
573.26	2292.91
573.61	2291.49
573.96	2289.69
574.31	2286.72
574.67	2283.91
575.02	2280.35
575.37	2277.12
575.72	2273.25
576.08	2269.77
576.43	2266.52
576.78	2262.88
577.13	2259.82
577.49	2256.70
577.84	2253.20
578.19	2249.54
578.54	2245.99
578.90	2241.73
579.25	2236.31
579.60	2231.33
579.95	2226.38
580.30	2221.19
580.66	2216.02
581.01	2211.00
581.36	2206.04
581.71	2201.89
582.06	2197.32
582.42	2192.87
582.77	2187.58
583.12	2183.05
583.47	2178.50
583.82	2173.50
584.17	2168.21
584.53	2162.61
584.88	2156.95
585.23	2151.30
585.58	2145.80
585.93	2140.29
586.28	2135.53
586.63	2130.47
586.98	2125.49
587.34	2120.74
587.69	2115.86
588.04	2110.65
588.39	2105.01
588.74	2098.42
589.09	2092.22
589.44	2085.43
589.79	2079.42
590.14	2073.78
590.49	2067.21
590.84	2060.70
591.19	2054.70
591.54	2048.30
591.89	2040.90
592.25	2034.10
592.60	2026.84
592.95	2019.20
593.30	2011.95
593.65	2004.36
594.00	1997.36
594.35	1990.04
594.70	1982.05
595.05	1974.82
595.40	1967.54
595.75	1959.86
596.10	1953.73
596.45	1946.96
596.80	1940.75
597.15	1934.12
597.50	1926.94
597.85	1920.57
598.19	1913.90
598.54	1906.75
598.89	1900.15
599.24	1894.38
599.59	1887.58
599.94	1881.47
600.29	1875.12
600.64	1868.46
600.99	1861.06
601.34	1854.06
601.69	1847.14
602.04	1840.31
602.39	1833.03
602.74	1826.33
603.08	1819.70
603.43	1813.06
603.78	1805.81
604.13	1798.80
604.48	1791.38
604.83	1784.53
605.18	1777.42
605.53	1769.52
605.87	1761.51
606.22	1754.20
606.57	1746.38
606.92	1739.17
607.27	1732.00
607.62	1725.18
607.96	1717.95
608.31	1711.27
608.66	1703.77
609.01	1696.15
609.36	1688.41
609.70	1680.37
610.05	1672.14
610.40	1664.44
610.75	1656.09
611.10	1648.45
611.44	1639.97
611.79	1632.07
612.14	1623.43
612.49	1614.28
612.83	1605.96
613.18	1597.90
613.53	1589.76
613.88	1581.07
614.22	1572.81
614.57	1564.19
614.92	1556.12
615.27	1548.43
615.61	1540.11
615.96	1532.09
616.31	1524.56
616.65	1517.24
617.00	1509.68
617.35	1502.02
617.70	1493.69
618.04	1485.21
618.39	1476.94
618.74	1469.40
619.08	1461.17
619.43	1453.76
619.78	1446.95
620.12	1439.64
620.47	1432.08
620.82	1423.98
621.16	1416.60
621.51	1409.04
621.85	1401.40
622.20	1392.83
622.55	1384.64
622.89	1376.73
623.24	1369.10
623.59	1361.60
623.93	1354.11
624.28	1346.85
624.62	1339.37
624.97	1332.13
625.32	1325.34
625.66	1318.31
626.01	1311.07
626.35	1303.52
626.70	1295.69
627.04	1287.86
627.39	1280.18
627.73	1272.71
628.08	1265.71
628.43	1258.29
628.77	1250.81
629.12	1243.23
629.46	1236.13
629.81	1228.52
630.15	1221.30
630.50	1213.88
630.84	1205.80
631.19	1197.88
631.53	1190.32
631.88	1182.83
632.22	1175.30
632.57	1168.00
632.91	1160.49
633.26	1153.05
633.60	1145.66
633.95	1138.51
634.29	1131.52
634.64	1124.75
634.98	1117.35
635.32	1110.26
635.67	1103.70
636.01	1097.08
636.36	1090.29
636.70	1083.76
637.05	1077.33
637.39	1070.86
637.73	1064.34
638.08	1058.46
638.42	1052.45
638.77	1046.09
639.11	1039.43
639.45	1033.04
639.80	1026.40
640.14	1020.01
640.49	1013.43
640.83	1007.08
641.17	1000.83
641.52	994.52
641.86	988.07
642.20	982.23
642.55	975.93
642.89	969.37
643.23	962.92
643.58	957.03
643.92	950.79
644.26	944.65
644.61	938.63
644.95	932.53
645.29	925.81
645.64	919.02
645.98	912.63
646.32	906.86
646.66	900.75
647.01	894.96
647.35	889.18
647.69	883.40
648.04	877.98
648.38	872.11
648.72	866.10
649.06	860.05
649.41	854.20
649.75	848.11
650.09	842.24
650.43	836.33
650.78	830.23
651.12	824.22
651.46	818.46
651.80	812.69
652.14	807.34
652.49	802.01
652.83	796.86
653.17	791.13
653.51	785.32
653.85	779.97
654.20	774.30
654.54	768.28
654.88	762.52
655.22	756.57
655.56	750.93
655.90	745.49
656.25	740.30
656.59	735.01
656.93	730.05
657.27	724.89
657.61	719.46
657.95	714.43
658.29	709.43
658.64	704.25
658.98	698.91
659.32	693.45
659.66	688.28
660.00	682.97
660.34	678.02
660.68	673.10
661.02	668.11
661.36	663.34
661.70	658.82
662.05	654.47
662.39	650.15
662.73	645.67
663.07	641.26
663.41	636.72
663.75	632.20
664.09	627.60
664.43	623.29
664.77	619.19
665.11	614.89
665.45	610.79
665.79	606.69
666.13	602.66
666.47	598.58
666.81	594.42
667.15	590.35
667.49	586.52
667.83	582.71
668.17	578.77
668.51	574.73
668.85	570.83
669.19	567.00
669.53	563.16
669.87	559.29
670.21	555.63
670.55	552.00
670.89	548.57
671.23	545.15
671.57	541.55
671.91	538.01
672.25	534.53
672.58	531.00
672.92	527.61
673.26	524.42
673.60	521.28
673.94	518.17
674.28	515.26
674.62	512.33
674.96	509.16
675.30	506.21
675.64	503.29
675.97	500.47
676.31	497.53
676.65	494.58
676.99	491.87
677.33	489.01
677.67	486.18
678.01	483.13
678.34	480.14
678.68	477.27
679.02	474.40
679.36	471.62
679.70	468.92
680.04	466.12
680.37	463.19
680.71	460.42
681.05	457.79
681.39	455.04
681.73	452.33
682.06	449.87
682.40	447.34
682.74	444.81
683.08	442.28
683.42	439.74
683.75	437.28
684.09	434.74
684.43	432.24
684.77	429.79
685.10	427.46
685.44	425.20
685.78	422.92
686.12	420.74
686.45	418.42
686.79	416.06
687.13	413.85
687.46	411.70
687.80	409.48
688.14	407.31
688.48	405.23
688.81	402.98
689.15	400.77
689.49	398.57
689.82	396.50
690.16	394.41
690.50	392.43
690.83	390.49
691.17	388.50
691.51	386.60
691.84	384.78
692.18	382.84
692.52	380.85
692.85	378.91
693.19	377.01
693.52	375.19
693.86	373.43
694.20	371.71
694.53	369.93
694.87	368.11
695.21	366.30
695.54	364.51
695.88	362.82
696.21	361.20
696.55	359.54
696.88	357.81
697.22	356.13
697.56	354.48
697.89	352.80
698.23	351.20
698.56	349.58
698.90	347.98
699.23	346.31
699.57	344.78
699.90	343.26
700.24	341.69
700.58	340.18
700.91	338.66
701.25	337.20
701.58	335.82
701.92	334.41
702.25	333.04
702.59	331.66
702.92	330.29
703.26	328.92
703.59	327.65
703.93	326.52
704.26	325.27
704.60	324.00
704.93	322.75
705.26	321.55
705.60	320.36
705.93	319.19
706.27	318.15
706.60	317.10
706.94	316.05
707.27	314.97
707.61	313.90
707.94	312.89
708.27	311.77
708.61	310.75
708.94	309.77
709.28	308.79
709.61	307.84
709.94	306.93
710.28	305.98
710.61	305.00
710.95	303.90
711.28	303.04
711.61	302.11
711.95	301.18
712.28	300.21
712.61	299.22
712.95	298.31
713.28	297.45
713.61	296.52
713.95	295.61
714.28	294.77
714.61	293.94
714.95	293.12
715.28	292.30
715.61	291.38
715.95	290.56
716.28	289.68
716.61	288.86
716.95	288.04
717.28	287.29
717.61	286.52
717.94	285.80
718.28	284.95
718.61	284.20
718.94	283.54
719.27	282.91
719.61	282.28
719.94	281.66
720.27	280.92
720.60	280.22
720.94	279.57
721.27	278.93
721.60	278.34
721.93	277.73
722.27	277.16
722.60	276.61
722.93	276.00
723.26	275.49
723.59	274.92
723.93	274.37
724.26	273.75
724.59	273.20
724.92	272.66
725.25	272.16
725.59	271.66
725.92	271.15
726.25	270.59
726.58	270.08
726.91	269.54
727.24	269.10
727.57	268.67
727.91	268.15
728.24	267.69
728.57	267.19
728.90	266.73
729.23	266.24
729.56	265.82
729.89	265.37
730.22	264.87
730.55	264.36
730.89	263.91
731.22	263.48
731.55	263.06
731.88	262.64
732.21	262.22
732.54	261.76
732.87	261.26
733.20	260.92
733.53	260.49
733.86	260.12
734.19	259.70
734.52	259.30
734.85	259.01
735.18	258.62
735.51	258.25
735.84	257.86
736.17	257.48
736.50	257.06
736.83	256.81
737.16	256.48
737.49	256.17
737.82	255.84
738.15	255.52
738.48	255.15
738.81	254.82
739.14	254.48
739.47	254.17
739.80	253.90
740.13	253.55
740.46	253.25
740.79	252.91
741.12	252.63
741.45	252.34
741.78	251.97
742.11	251.68
742.44	251.36
742.77	251.08
743.10	250.78
743.43	250.49
743.75	250.10
744.08	249.96
744.41	249.70
744.74	249.41
745.07	249.13
745.40	248.90
745.73	248.67
746.06	248.41
746.39	248.16
746.71	247.89
747.04	247.62
747.37	247.37
747.70	247.14
748.03	246.87
748.36	246.62
748.68	246.39
749.01	246.16
749.34	245.94
749.67	245.69
750.00	245.51
750.33	245.39
750.65	245.17
750.98	244.81
751.31	244.59
751.64	244.38
751.97	244.19
752.29	244.01
752.62	243.74
752.95	243.54
753.28	243.33
753.60	243.13
753.93	242.96
754.26	242.78
754.59	242.57
754.91	242.40
755.24	242.19
755.57	242.02
755.90	241.82
756.22	241.63
756.55	241.45
756.88	241.25
757.20	241.00
757.53	240.83
757.86	240.70
758.19	240.57
758.51	240.41
758.84	240.24
759.17	240.07
759.49	239.93
759.82	239.82
760.15	239.70
760.47	239.59
760.80	239.42
761.13	239.29
761.45	239.14
761.78	238.97
762.11	238.83
762.43	238.70
762.76	238.57
763.08	238.45
763.41	238.31
763.74	238.18
764.06	238.05
764.39	237.91
764.71	237.76
765.04	237.64
765.37	237.49
765.69	237.35
766.02	237.20
766.34	237.08
766.67	236.89
767.00	236.77
767.32	236.66
767.65	236.58
767.97	236.42
768.30	236.33
768.62	236.23
768.95	236.10
769.27	235.96
769.60	235.84
769.92	235.72
770.25	235.58
770.57	235.46
770.90	235.34
771.22	235.22
771.55	235.10
771.87	234.96
772.20	234.84
772.52	234.83
772.85	234.86
773.17	234.75
773.50	234.68
773.82	234.54
774.15	234.40
774.47	234.29
774.80	234.19
775.12	234.06
775.45	233.96
775.77	233.89
776.09	233.80
776.42	233.73
776.74	233.63
777.07	233.54
777.39	233.46
777.72	233.38
778.04	233.31
778.36	233.20
778.69	233.12
779.01	233.08
779.33	232.94
779.66	232.71
779.98	232.64
780.31	232.58
780.63	232.55
780.95	232.49
781.28	232.41
781.60	232.36
781.92	232.28
782.25	232.23
782.57	232.18
782.89	232.13
783.22	232.05
783.54	232.00
783.86	231.94
784.19	231.88
784.51	231.88
784.83	231.85
785.16	231.84
785.48	231.82
785.80	231.80
786.12	231.73
786.45	231.70
786.77	231.67
787.09	231.60
787.42	231.53
787.74	231.50
788.06	231.48
788.38	231.43
788.71	231.37
789.03	231.37
789.35	231.35
789.67	231.27
789.99	231.22
790.32	231.18
790.64	231.16
790.96	231.24
791.28	231.13
791.61	231.06
791.93	231.01
792.25	230.95
792.57	230.97
792.89	230.90
793.21	230.88
793.54	230.82
793.86	230.78
794.18	230.74
794.50	230.67
794.82	230.65
795.14	230.62
795.47	230.63
795.79	230.54
796.11	230.50
796.43	230.47
796.75	230.44
797.07	230.41
797.39	230.39
797.71	230.22
798.04	230.22
798.36	230.18
798.68	230.18
799.00	230.16
799.32	230.04
799.64	230.07
799.96	230.03
800.28	230.02
800.60	229.99
800.92	229.96
801.24	229.92
801.56	229.93
801.89	229.88
802.21	229.86
802.53	229.81
802.85	229.79
803.17	229.82
803.49	229.81
803.81	229.76
804.13	229.71
804.45	229.71
804.77	229.68
805.09	229.66
805.41	229.60
805.73	229.53
806.05	229.50
806.37	229.45
806.69	229.41
807.01	229.36
807.33	229.35
807.65	229.27
807.97	229.31
808.28	229.23
808.60	229.22
808.92	229.18
809.24	229.25
809.56	229.21
809.88	229.12
810.20	229.09
810.52	229.07
810.84	229.02
811.16	228.99
811.48	228.98
811.80	229.01
812.12	229.00
812.43	229.02
812.75	229.00
813.07	228.96
813.39	228.94
813.71	228.90
814.03	228.87
814.35	228.87
814.67	228.78
814.98	228.79
815.30	228.74
815.62	228.71
815.94	228.64
816.26	228.63
816.58	228.59
816.89	228.59
817.21	228.59
817.53	228.58
817.85	228.55
818.17	228.51
818.48	228.44
818.80	228.44
819.12	228.39
819.44	228.36
819.76	228.35
820.07	228.34
820.39	228.35
820.71	228.34
821.03	228.34
821.34	228.33
821.66	228.32
821.98	228.33
822.30	228.30
822.61	228.33
822.93	228.28
823.25	228.28
823.57	228.26
823.88	228.23
824.20	228.21
824.52	228.23
824.83	228.23
825.15	228.20
825.47	228.18
825.79	228.18
826.10	228.16
826.42	228.14
826.74	228.14
827.05	228.14
827.37	228.13
827.69	228.09
828.00	228.11
828.32	228.07
828.64	228.06
828.95	228.11
829.27	228.07
829.58	228.05
829.90	228.10
830.22	228.08
830.53	228.08
830.85	228.09
831.17	228.04
831.48	228.01
831.80	228.04
832.11	228.03
832.43	228.04
832.75	228.04
833.06	228.09
833.38	228.05
833.69	228.03
834.01	228.02
834.32	228.02
834.64	227.98
834.96	227.99
835.27	227.94
835.59	227.91
835.90	227.91
836.22	227.91
836.53	227.84
836.85	227.81
837.16	227.89
837.48	227.89
837.79	227.91
838.11	227.91
838.42	227.90
838.74	227.87
839.05	227.83
839.37	227.80
839.68	227.75
840.00	227.73
840.31	227.73
840.63	227.72
840.94	227.69
841.26	227.68
841.57	227.66
841.88	227.72
842.20	227.68
842.51	227.63
842.83	227.62
843.14	227.70
843.46	227.72
843.77	227.67
844.08	227.67
844.40	227.63
844.71	227.60
845.03	227.56
845.34	227.59
845.65	227.57
845.97	227.58
846.28	227.57
846.60	227.57
846.91	227.54
847.22	227.50
847.54	227.52
847.85	227.52
848.16	227.49
848.48	227.42
848.79	227.44
849.10	227.46
849.42	227.48
849.73	227.39
850.04	227.35
850.36	227.30
850.67	227.29
850.98	227.31
851.30	227.33
851.61	227.33
851.92	227.33
852.23	227.37
852.55	227.35
852.86	227.38
853.17	227.38
853.49	227.39
853.80	227.41
854.11	227.40
854.42	227.40
854.74	227.40
855.05	227.43
855.36	227.38
855.67	227.37
855.99	227.34
856.30	227.46
856.61	227.45
856.92	227.44
857.23	227.42
857.55	227.38
857.86	227.38
858.17	227.39
858.48	227.36
858.79	227.32
859.11	227.30
859.42	227.27
859.73	227.26
860.04	227.25
860.35	227.25
860.66	227.23
860.98	227.21
861.29	227.21
861.60	227.18
861.91	227.18
862.22	227.15
862.53	227.17
862.84	227.04
863.16	227.07
863.47	227.03
863.78	227.04
864.09	227.08
864.40	227.06
864.71	227.08
865.02	227.10
865.33	227.08
865.64	227.10
865.95	227.07
866.27	227.13
866.58	227.15
866.89	227.13
867.20	227.14
867.51	227.14
867.82	227.15
868.13	227.18
868.44	227.16
868.75	227.19
869.06	227.17
869.37	227.17
869.68	227.14
869.99	227.19
870.30	227.19
870.61	227.16
870.92	227.18
871.23	227.13
871.54	227.15
871.85	227.18
872.16	227.17
872.47	227.19
872.78	227.15
873.09	227.11
873.40	227.11
873.71	227.10
874.02	227.10
874.33	227.08
874.64	227.08
874.95	227.08
875.26	227.05
875.56	227.04
875.87	227.06
876.18	227.07
876.49	227.15
876.80	227.11
877.11	227.10
877.42	227.08
877.73	227.10
878.04	227.07
878.35	227.05
878.66	227.06
878.96	227.04
879.27	227.02
879.58	227.02
879.89	227.03
880.20	227.03
880.51	227.04
880.82	227.05
881.12	227.04
881.43	227.03
881.74	227.00
882.05	227.01
882.36	227.02
882.67	227.03
882.97	226.93
883.28	226.93
883.59	226.93
883.90	226.94
884.21	226.92
884.51	226.90
884.82	226.88
885.13	226.90
885.44	226.91
885.74	226.90
886.05	226.90
886.36	226.91
886.67	226.91
886.98	226.93
887.28	226.96
887.59	226.98
887.90	227.02
888.20	227.07
888.51	227.10
888.82	227.07
889.13	227.04
889.43	227.09
889.74	227.10
890.05	227.10
890.35	227.10
890.66	227.10
890.97	227.14
891.28	227.14
891.58	227.12
891.89	227.15
892.20	227.16
892.50	227.17
892.81	227.16
893.12	227.17
893.42	227.12
893.73	227.10
894.04	227.11
894.34	227.12
894.65	227.10
894.95	227.09
895.26	227.12
895.57	227.18
895.87	227.11
896.18	227.12
896.48	227.13
896.79	227.12
897.10	227.15
897.40	227.14
897.71	227.16
898.01	227.15
898.32	227.16
898.63	227.14
898.93	227.13
899.24	227.12
899.54	227.13
899.85	227.15
900.15	227.17
900.46	227.11
900.76	227.12
901.07	227.12
901.38	227.09
901.68	227.11
901.99	227.08
902.29	227.07
902.60	227.08
902.90	227.08
903.21	227.10
903.51	227.08
903.82	227.08
904.12	227.07
904.43	227.08
904.73	227.07
905.03	227.10
905.34	227.19
905.64	227.21
905.95	227.18
906.25	227.17
906.56	227.13
906.86	227.16
907.17	227.14
907.47	227.13
907.77	227.11
908.08	227.06
908.38	227.04
908.69	227.05
908.99	227.04
909.30	227.02
909.60	227.01
909.90	227.00
910.21	226.97
910.51	226.99
910.81	226.98
911.12	226.98
911.42	226.95
911.73	226.87
912.03	226.84
912.33	226.88
912.64	226.87
912.94	226.88
913.24	226.87
913.55	226.86
913.85	226.87
914.15	226.89
914.46	226.89
914.76	226.89
915.06	226.90
915.37	226.90
915.67	226.91
915.97	226.89
916.27	226.86
916.58	226.86
916.88	226.83
917.18	226.81
917.49	226.88
917.79	226.87
918.09	226.87
918.39	226.91
918.70	226.85
919.00	226.89
919.30	226.92
919.60	226.90
919.91	226.89
920.21	226.87
920.51	226.83
920.81	226.87
921.12	226.90
921.42	226.88
921.72	226.88
922.02	226.87
922.32	226.91
922.63	226.91
922.93	226.93
923.23	226.93
923.53	226.94
923.83	226.82
924.13	226.83
924.44	226.79
924.74	226.81
925.04	226.85
925.34	226.82
925.64	226.78
925.94	226.81
926.24	226.84
926.55	226.83
926.85	226.85
927.15	226.84
927.45	226.81
927.75	226.85
928.05	226.86
928.35	226.85
928.65	226.86
928.95	226.90
929.26	226.88
929.56	226.89
929.86	226.88
930.16	226.92
930.46	226.94
930.76	226.95
931.06	226.92
931.36	226.87
931.66	226.85
931.96	226.88
932.26	226.88
932.56	226.86
932.86	226.87
933.16	226.87
933.46	226.87
933.76	226.87
934.06	226.85
934.36	226.86
934.66	226.86
934.96	226.85
935.26	226.84
935.56	226.86
935.86	226.85
936.16	226.86
936.46	226.84
936.76	226.85
937.06	226.87
937.36	226.86
937.66	226.90
937.96	226.94
938.26	226.91
938.56	226.89
938.86	226.90
939.16	226.93
939.46	226.95
939.76	227.00
940.06	226.98
940.35	226.98
940.65	226.97
940.95	226.99
941.25	226.94
941.55	226.95
941.85	226.93
942.15	226.94
942.45	226.96
942.75	227.01
943.04	226.99
943.34	226.98
943.64	226.95
943.94	226.92
944.24	226.89
944.54	226.89
944.84	226.91
945.13	226.91
945.43	226.89
945.73	226.90
946.03	226.87
946.33	226.86
946.62	226.84
946.92	226.85
947.22	226.85
947.52	226.86
947.82	226.85
948.11	226.85
948.41	226.83
948.71	226.78
949.01	226.74
949.31	226.70
949.60	226.68
949.90	226.73
950.20	226.73
950.50	226.71
950.79	226.70
951.09	226.71
951.39	226.69
951.69	226.68
951.98	226.66
952.28	226.62
952.58	226.62
952.87	226.63
953.17	226.60
953.47	226.59
953.76	226.59
954.06	226.59
954.36	226.54
954.66	226.53
954.95	226.58
955.25	226.60
955.55	226.64
955.84	226.62
956.14	226.61
956.44	226.64
956.73	226.62
957.03	226.63
957.32	226.60
957.62	226.62
957.92	226.61
958.21	226.61
958.51	226.73
958.81	226.76
959.10	226.74
959.40	226.73
959.69	226.70
959.99	226.71
960.29	226.72
960.58	226.77
960.88	226.81
961.17	226.78
961.47	226.81
961.76	226.80
962.06	226.85
962.36	226.83
962.65	226.80
962.95	226.83
963.24	226.87
963.54	226.88
963.83	226.87
964.13	226.90
964.42	226.91
964.72	226.85
965.01	226.86
965.31	226.85
965.60	226.83
965.90	226.93
966.19	226.90
966.49	226.88
966.78	226.83
967.08	226.82
967.37	226.81
967.67	226.78
967.96	226.79
968.26	226.76
968.55	226.80
968.85	226.82
969.14	226.79
969.43	226.76
969.73	226.73
970.02	226.70
970.32	226.67
970.61	226.64
970.91	226.59
971.20	226.54
971.49	226.55
971.79	226.58
972.08	226.50
972.38	226.53
972.67	226.55
972.96	226.59
973.26	226.60
973.55	226.65
973.85	226.61
974.14	226.62
974.43	226.64
974.73	226.62
975.02	226.60
975.31	226.62
975.61	226.62
975.90	226.62
976.19	226.63
976.49	226.64
976.78	226.64
977.07	226.65
977.37	226.64
977.66	226.65
977.95	226.62
978.24	226.59
978.54	226.60
978.83	226.56
979.12	226.53
979.42	226.52
979.71	226.48
980.00	226.46
980.29	226.45
980.59	226.44
980.88	226.46
981.17	226.46
981.46	226.46
981.76	226.47
982.05	226.52
982.34	226.53
982.63	226.54
982.93	226.55
983.22	226.56
983.51	226.59
983.80	226.60
984.09	226.62
984.39	226.66
984.68	226.64
984.97	226.67
985.26	226.65
985.55	226.67
985.85	226.62
986.14	226.71
986.43	226.71
986.72	226.72
987.01	226.69
987.30	226.70
987.59	226.70
987.89	226.69
988.18	226.61
988.47	226.61
988.76	226.58
989.05	226.56
989.34	226.56
989.63	226.61
989.92	226.60
990.22	226.61
990.51	226.62
990.80	226.60
991.09	226.63
991.38	226.65
991.67	226.67
991.96	226.70
992.25	226.64
992.54	226.63
992.83	226.62
993.12	226.62
993.41	226.64
993.70	226.65
993.99	226.67
994.28	226.72
994.58	226.73
994.87	226.72
995.16	226.75
995.45	226.75
995.74	226.69
996.03	226.71
996.32	226.71
996.61	226.69
996.90	226.71
997.19	226.68
997.48	226.70
997.77	226.65
998.06	226.65
998.34	226.68
998.63	226.67
998.92	226.70
999.21	226.71
999.50	226.69
999.79	226.67
1000.08	226.66
1000.37	226.65
1000.66	226.65
1000.95	226.72
1001.24	226.72
1001.53	226.74
1001.82	226.74
1002.11	226.72
1002.40	226.72
1002.68	226.76
1002.97	226.83
1003.26	226.80
1003.55	226.76
1003.84	226.80
1004.13	226.84
1004.42	226.81
1004.71	226.84
1004.99	226.78
1005.28	226.79
1005.57	226.79
1005.86	226.79
1006.15	226.78
1006.44	226.75
1006.72	226.74
1007.01	226.68
1007.30	226.69
1007.59	226.66
1007.88	226.67
1008.17	226.66
1008.45	226.64
1008.74	226.61
1009.03	226.55
1009.32	226.59
1009.60	226.60
1009.89	226.57
1010.18	226.51
1010.47	226.52
1010.76	226.49
1011.04	226.50
1011.33	226.49
1011.62	226.50
1011.91	226.51
1012.19	226.50
1012.48	226.51
1012.77	226.54
1013.05	226.59
1013.34	226.57
1013.63	226.57
1013.92	226.56
1014.20	226.54
1014.49	226.56
1014.78	226.53
1015.06	226.53
1015.35	226.48
1015.64	226.49
1015.92	226.49
1016.21	226.52
1016.50	226.51
1016.78	226.52
1017.07	226.53
1017.36	226.49
1017.64	226.47
1017.93	226.45
1018.22	226.46
1018.50	226.45
1018.79	226.44
1019.08	226.41
1019.36	226.41
1019.65	226.38
1019.93	226.41
1020.22	226.45
1020.51	226.47
1020.79	226.49
1021.08	226.45
1021.36	226.12
1021.65	226.65
1021.94	226.63
1022.22	226.54
1022.51	226.06
1022.79	227.25
1023.08	226.67
1023.36	227.27
1023.65	226.42
>>>>>End Processed Spectral Data<<<<<
