SpectraSuite Data File
++++++++++++++++++++++++++++++++++++
Date: Fri Feb 01 15:07:38 EST 2013
User: group
Dark Spectrum Present: No
Reference Spectrum Present: No
Number of Sampled Component Spectra: 1
Spectrometers: USB2E7196
Integration Time (usec): 35000 (USB2E7196)
Spectra Averaged: 100 (USB2E7196)
Boxcar Smoothing: 10 (USB2E7196)
Correct for Electrical Dark: No (USB2E7196)
Strobe/Lamp Enabled: No (USB2E7196)
Correct for Detector Non-linearity: No (USB2E7196)
Correct for Stray Light: No (USB2E7196)
Number of Pixels in Processed Spectrum: 2048
>>>>>Begin Processed Spectral Data<<<<<
339.09	0.00
339.48	215.65
339.86	217.29
340.24	218.35
340.63	219.67
341.01	223.08
341.39	222.11
341.78	223.97
342.16	225.08
342.54	225.20
342.93	213.90
343.31	224.71
343.69	225.25
344.07	225.67
344.46	226.10
344.84	226.46
345.22	226.66
345.60	226.92
345.99	227.07
346.37	227.17
346.75	227.27
347.13	227.31
347.52	227.36
347.90	227.42
348.28	227.43
348.66	227.46
349.05	227.44
349.43	227.47
349.81	227.49
350.19	227.54
350.57	227.56
350.96	227.62
351.34	227.70
351.72	227.78
352.10	227.86
352.48	227.91
352.87	227.95
353.25	228.01
353.63	228.04
354.01	228.14
354.39	228.22
354.77	228.29
355.15	228.36
355.54	228.40
355.92	228.43
356.30	228.48
356.68	228.60
357.06	228.68
357.44	228.69
357.82	228.75
358.20	228.81
358.58	228.89
358.97	228.95
359.35	229.01
359.73	229.08
360.11	229.16
360.49	229.22
360.87	229.28
361.25	229.37
361.63	229.47
362.01	229.49
362.39	229.54
362.77	229.58
363.15	229.59
363.53	229.64
363.91	229.65
364.29	229.66
364.67	229.59
365.05	229.62
365.43	229.63
365.81	229.64
366.19	229.68
366.57	229.70
366.95	229.69
367.33	229.64
367.71	229.63
368.09	229.60
368.47	229.57
368.85	229.55
369.23	229.52
369.61	229.45
369.99	229.43
370.37	229.38
370.75	229.39
371.13	229.33
371.51	229.25
371.89	229.25
372.27	229.22
372.65	229.17
373.03	229.11
373.41	229.04
373.78	229.02
374.16	228.90
374.54	228.81
374.92	228.73
375.30	228.69
375.68	228.60
376.06	228.53
376.44	228.45
376.82	228.38
377.19	228.28
377.57	228.19
377.95	228.08
378.33	227.99
378.71	227.83
379.09	227.78
379.47	227.70
379.84	227.60
380.22	227.49
380.60	227.37
380.98	227.31
381.36	227.26
381.73	227.15
382.11	227.10
382.49	227.02
382.87	226.96
383.25	226.87
383.62	226.91
384.00	226.86
384.38	226.80
384.76	226.77
385.13	226.74
385.51	226.66
385.89	226.63
386.27	226.59
386.64	226.57
387.02	226.51
387.40	226.47
387.78	226.43
388.15	226.44
388.53	226.43
388.91	226.37
389.29	226.36
389.66	226.37
390.04	226.32
390.42	226.33
390.79	226.30
391.17	226.31
391.55	226.18
391.92	226.17
392.30	226.18
392.68	226.17
393.05	226.23
393.43	226.25
393.81	226.27
394.18	226.31
394.56	226.32
394.94	226.37
395.31	226.41
395.69	226.47
396.06	226.49
396.44	226.53
396.82	226.57
397.19	226.67
397.57	226.71
397.95	226.80
398.32	226.86
398.70	226.92
399.07	227.02
399.45	227.10
399.82	227.18
400.20	227.26
400.58	227.35
400.95	227.36
401.33	227.47
401.70	227.59
402.08	227.67
402.45	227.76
402.83	227.86
403.20	227.97
403.58	228.09
403.95	228.28
404.33	228.41
404.71	228.55
405.08	228.71
405.46	228.88
405.83	229.01
406.21	229.16
406.58	229.38
406.96	229.54
407.33	229.75
407.70	229.92
408.08	230.19
408.45	230.39
408.83	230.65
409.20	230.90
409.58	231.12
409.95	231.39
410.33	231.69
410.70	231.96
411.08	232.26
411.45	232.55
411.82	232.81
412.20	233.18
412.57	233.60
412.95	233.91
413.32	234.25
413.69	234.68
414.07	235.14
414.44	235.57
414.82	236.04
415.19	236.54
415.56	237.17
415.94	237.72
416.31	238.39
416.68	239.00
417.06	239.73
417.43	240.40
417.81	241.20
418.18	241.99
418.55	242.86
418.93	243.72
419.30	244.61
419.67	245.57
420.04	246.51
420.42	247.51
420.79	248.68
421.16	249.87
421.54	251.02
421.91	252.23
422.28	253.49
422.66	254.81
423.03	256.12
423.40	257.41
423.77	258.82
424.15	260.24
424.52	261.74
424.89	263.33
425.26	264.89
425.64	266.32
426.01	267.92
426.38	269.53
426.75	271.25
427.13	272.96
427.50	274.76
427.87	276.68
428.24	278.56
428.61	280.30
428.99	282.25
429.36	284.42
429.73	286.52
430.10	288.52
430.47	290.58
430.85	292.70
431.22	294.97
431.59	297.34
431.96	299.59
432.33	302.12
432.70	304.55
433.08	307.43
433.45	310.12
433.82	312.75
434.19	315.71
434.56	318.52
434.93	321.24
435.30	323.92
435.68	326.80
436.05	329.63
436.42	332.42
436.79	334.96
437.16	337.62
437.53	340.44
437.90	343.29
438.27	346.07
438.64	348.92
439.01	351.49
439.38	353.75
439.75	355.95
440.13	358.35
440.50	360.69
440.87	362.50
441.24	364.40
441.61	366.53
441.98	367.97
442.35	369.79
442.72	371.61
443.09	373.38
443.46	374.41
443.83	375.03
444.20	375.56
444.57	376.36
444.94	376.64
445.31	376.95
445.68	377.32
446.05	377.40
446.42	377.02
446.79	376.58
447.16	376.15
447.53	375.78
447.90	374.68
448.27	373.44
448.64	371.84
449.01	370.65
449.37	368.63
449.74	366.71
450.11	364.41
450.48	361.96
450.85	359.38
451.22	357.20
451.59	355.13
451.96	353.17
452.33	350.56
452.70	348.22
453.07	345.36
453.43	342.44
453.80	339.66
454.17	336.95
454.54	334.41
454.91	331.66
455.28	328.99
455.65	326.47
456.02	324.01
456.38	321.85
456.75	319.24
457.12	317.04
457.49	314.83
457.86	312.70
458.23	310.80
458.59	308.80
458.96	306.68
459.33	304.85
459.70	303.00
460.07	301.51
460.43	299.78
460.80	298.19
461.17	296.73
461.54	295.21
461.91	293.78
462.27	292.31
462.64	291.05
463.01	289.70
463.38	288.41
463.74	287.04
464.11	285.88
464.48	284.84
464.85	283.73
465.21	282.87
465.58	281.92
465.95	280.81
466.32	279.87
466.68	278.99
467.05	278.06
467.42	277.18
467.78	276.24
468.15	275.38
468.52	274.70
468.88	273.84
469.25	273.09
469.62	272.48
469.98	271.83
470.35	271.20
470.72	270.57
471.08	269.91
471.45	269.37
471.82	268.82
472.18	268.22
472.55	267.77
472.92	267.19
473.28	266.75
473.65	266.29
474.02	265.84
474.38	265.48
474.75	265.13
475.11	264.76
475.48	264.52
475.85	264.27
476.21	264.04
476.58	263.87
476.94	263.71
477.31	263.52
477.67	263.37
478.04	263.24
478.41	263.16
478.77	263.25
479.14	263.19
479.50	263.19
479.87	263.24
480.23	263.34
480.60	263.44
480.96	263.51
481.33	263.71
481.69	263.93
482.06	264.09
482.42	264.32
482.79	264.57
483.15	264.83
483.52	265.19
483.88	265.50
484.25	265.88
484.61	266.30
484.98	266.74
485.34	267.30
485.71	267.85
486.07	268.48
486.44	268.95
486.80	269.67
487.17	270.39
487.53	271.19
487.90	272.02
488.26	272.92
488.62	273.89
488.99	274.86
489.35	275.87
489.72	276.97
490.08	278.14
490.44	279.35
490.81	280.68
491.17	282.03
491.54	283.51
491.90	285.04
492.26	286.67
492.63	288.39
492.99	290.13
493.36	292.05
493.72	294.09
494.08	296.22
494.45	298.45
494.81	300.85
495.17	303.25
495.54	305.79
495.90	308.45
496.26	311.24
496.63	314.16
496.99	317.27
497.35	320.58
497.72	323.92
498.08	327.41
498.44	331.09
498.80	334.99
499.17	338.99
499.53	343.15
499.89	347.52
500.26	352.03
500.62	356.72
500.98	361.60
501.34	366.58
501.71	371.88
502.07	377.31
502.43	382.88
502.79	388.70
503.16	394.75
503.52	400.96
503.88	407.36
504.24	413.94
504.60	420.83
504.97	427.88
505.33	435.20
505.69	442.94
506.05	450.72
506.41	458.58
506.78	466.77
507.14	475.19
507.50	483.92
507.86	492.93
508.22	502.09
508.59	511.33
508.95	520.95
509.31	530.77
509.67	540.89
510.03	551.23
510.39	561.74
510.75	572.49
511.12	583.43
511.48	594.75
511.84	606.24
512.20	617.77
512.56	629.72
512.92	641.96
513.28	654.33
513.64	666.79
514.00	679.55
514.37	692.54
514.73	705.61
515.09	718.67
515.45	731.97
515.81	745.65
516.17	759.67
516.53	773.87
516.89	788.03
517.25	802.22
517.61	816.65
517.97	831.18
518.33	845.73
518.69	860.60
519.05	875.70
519.41	890.95
519.77	906.48
520.13	921.97
520.49	937.37
520.85	952.79
521.21	968.55
521.57	984.83
521.93	1000.60
522.29	1017.12
522.65	1033.44
523.01	1049.78
523.37	1065.82
523.73	1082.09
524.09	1098.16
524.45	1114.61
524.81	1131.21
525.17	1148.13
525.53	1165.02
525.89	1182.02
526.25	1199.03
526.61	1215.36
526.97	1232.22
527.33	1248.74
527.68	1265.51
528.04	1282.10
528.40	1298.84
528.76	1316.02
529.12	1332.64
529.48	1349.59
529.84	1365.71
530.20	1382.44
530.56	1399.50
530.91	1416.97
531.27	1433.81
531.63	1450.48
531.99	1467.23
532.35	1483.40
532.71	1499.26
533.07	1515.66
533.42	1531.54
533.78	1547.59
534.14	1563.97
534.50	1579.28
534.86	1595.26
535.21	1610.43
535.57	1626.44
535.93	1641.93
536.29	1656.67
536.65	1671.87
537.00	1686.71
537.36	1702.05
537.72	1716.58
538.08	1730.96
538.44	1744.83
538.79	1758.86
539.15	1772.54
539.51	1786.11
539.87	1800.53
540.22	1814.30
540.58	1828.15
540.94	1841.68
541.29	1854.81
541.65	1867.58
542.01	1880.95
542.37	1893.37
542.72	1905.84
543.08	1917.66
543.44	1930.23
543.79	1941.59
544.15	1952.64
544.51	1964.27
544.87	1975.26
545.22	1985.96
545.58	1996.25
545.94	2006.10
546.29	2015.81
546.65	2025.53
547.01	2034.95
547.36	2043.68
547.72	2052.20
548.07	2059.99
548.43	2068.15
548.79	2076.17
549.14	2083.73
549.50	2091.10
549.86	2098.79
550.21	2106.12
550.57	2113.42
550.92	2119.76
551.28	2126.85
551.64	2133.92
551.99	2140.46
552.35	2146.68
552.70	2152.95
553.06	2159.03
553.41	2165.35
553.77	2171.45
554.13	2177.68
554.48	2183.84
554.84	2189.14
555.19	2194.63
555.55	2199.80
555.90	2204.18
556.26	2208.86
556.61	2213.53
556.97	2217.64
557.32	2221.65
557.68	2225.86
558.03	2229.93
558.39	2233.79
558.74	2238.29
559.10	2241.99
559.45	2245.59
559.81	2249.86
560.16	2253.56
560.52	2256.71
560.87	2260.07
561.23	2262.61
561.58	2265.46
561.94	2267.87
562.29	2270.24
562.64	2272.62
563.00	2275.20
563.35	2278.79
563.71	2281.87
564.06	2284.90
564.42	2287.80
564.77	2290.33
565.12	2292.35
565.48	2294.19
565.83	2296.01
566.19	2297.25
566.54	2298.36
566.89	2299.51
567.25	2299.93
567.60	2301.40
567.96	2302.91
568.31	2303.64
568.66	2304.68
569.02	2305.29
569.37	2305.44
569.72	2306.25
570.08	2306.30
570.43	2306.24
570.78	2305.38
571.14	2303.79
571.49	2302.51
571.84	2302.11
572.20	2300.76
572.55	2299.67
572.90	2298.22
573.26	2296.65
573.61	2294.90
573.96	2292.84
574.31	2289.70
574.67	2286.56
575.02	2282.75
575.37	2279.22
575.72	2275.21
576.08	2271.91
576.43	2268.46
576.78	2264.89
577.13	2261.53
577.49	2258.47
577.84	2254.93
578.19	2251.05
578.54	2247.09
578.90	2242.66
579.25	2237.06
579.60	2231.98
579.95	2226.87
580.30	2221.70
580.66	2216.42
581.01	2211.35
581.36	2206.25
581.71	2201.89
582.06	2197.27
582.42	2192.60
582.77	2187.31
583.12	2182.65
583.47	2177.58
583.82	2172.29
584.17	2166.68
584.53	2161.23
584.88	2155.36
585.23	2149.35
585.58	2143.85
585.93	2138.54
586.28	2133.63
586.63	2128.32
586.98	2123.24
587.34	2118.46
587.69	2113.39
588.04	2108.03
588.39	2102.07
588.74	2095.58
589.09	2089.27
589.44	2082.38
589.79	2076.34
590.14	2070.66
590.49	2063.99
590.84	2057.67
591.19	2051.67
591.54	2045.21
591.89	2037.56
592.25	2030.73
592.60	2023.52
592.95	2015.90
593.30	2008.36
593.65	2000.86
594.00	1993.67
594.35	1986.29
594.70	1978.10
595.05	1970.73
595.40	1963.34
595.75	1956.03
596.10	1949.57
596.45	1942.75
596.80	1936.40
597.15	1929.60
597.50	1922.38
597.85	1915.99
598.19	1909.12
598.54	1901.83
598.89	1895.17
599.24	1889.25
599.59	1882.51
599.94	1876.17
600.29	1869.76
600.64	1863.18
600.99	1855.41
601.34	1848.65
601.69	1841.66
602.04	1834.77
602.39	1827.49
602.74	1820.53
603.08	1813.81
603.43	1807.18
603.78	1799.86
604.13	1792.76
604.48	1785.53
604.83	1778.78
605.18	1771.63
605.53	1763.71
605.87	1755.80
606.22	1748.57
606.57	1740.66
606.92	1733.35
607.27	1726.10
607.62	1719.11
607.96	1711.73
608.31	1705.26
608.66	1697.54
609.01	1689.88
609.36	1682.30
609.70	1674.17
610.05	1666.22
610.40	1658.43
610.75	1650.09
611.10	1642.52
611.44	1634.27
611.79	1626.27
612.14	1617.47
612.49	1608.55
612.83	1600.21
613.18	1592.20
613.53	1584.07
613.88	1575.58
614.22	1567.34
614.57	1558.86
614.92	1550.91
615.27	1543.37
615.61	1535.04
615.96	1527.23
616.31	1519.85
616.65	1512.60
617.00	1505.12
617.35	1497.48
617.70	1489.01
618.04	1480.47
618.39	1472.35
618.74	1464.67
619.08	1456.44
619.43	1448.90
619.78	1441.97
620.12	1434.76
620.47	1427.13
620.82	1419.08
621.16	1411.73
621.51	1404.12
621.85	1396.56
622.20	1388.07
622.55	1379.83
622.89	1371.99
623.24	1364.38
623.59	1356.89
623.93	1349.27
624.28	1342.01
624.62	1334.45
624.97	1327.37
625.32	1320.70
625.66	1313.54
626.01	1306.26
626.35	1298.77
626.70	1291.01
627.04	1283.23
627.39	1275.51
627.73	1268.13
628.08	1261.07
628.43	1253.65
628.77	1246.23
629.12	1238.58
629.46	1231.28
629.81	1223.91
630.15	1216.76
630.50	1209.30
630.84	1201.15
631.19	1193.34
631.53	1185.90
631.88	1178.50
632.22	1171.01
632.57	1163.77
632.91	1156.34
633.26	1148.99
633.60	1141.71
633.95	1134.76
634.29	1127.79
634.64	1121.17
634.98	1113.80
635.32	1106.77
635.67	1100.34
636.01	1093.69
636.36	1086.96
636.70	1080.67
637.05	1074.09
637.39	1067.62
637.73	1061.13
638.08	1055.30
638.42	1049.29
638.77	1042.78
639.11	1036.12
639.45	1029.77
639.80	1023.02
640.14	1016.58
640.49	1010.05
640.83	1003.74
641.17	997.49
641.52	991.16
641.86	984.76
642.20	978.98
642.55	972.70
642.89	966.10
643.23	959.63
643.58	953.88
643.92	947.56
644.26	941.47
644.61	935.46
644.95	929.40
645.29	922.77
645.64	916.09
645.98	909.88
646.32	904.09
646.66	898.01
647.01	892.26
647.35	886.64
647.69	880.85
648.04	875.35
648.38	869.50
648.72	863.51
649.06	857.42
649.41	851.53
649.75	845.59
650.09	839.74
650.43	833.97
650.78	827.88
651.12	821.96
651.46	816.26
651.80	810.55
652.14	805.22
652.49	799.87
652.83	794.71
653.17	788.92
653.51	783.27
653.85	777.89
654.20	772.27
654.54	766.22
654.88	760.54
655.22	754.64
655.56	749.01
655.90	743.61
656.25	738.40
656.59	733.05
656.93	727.97
657.27	722.75
657.61	717.32
657.95	712.18
658.29	707.12
658.64	701.84
658.98	696.58
659.32	691.14
659.66	685.94
660.00	680.66
660.34	675.83
660.68	670.94
661.02	665.94
661.36	661.25
661.70	656.79
662.05	652.36
662.39	648.09
662.73	643.65
663.07	639.28
663.41	634.82
663.75	630.35
664.09	625.81
664.43	621.53
664.77	617.50
665.11	613.28
665.45	609.15
665.79	605.18
666.13	601.05
666.47	597.01
666.81	592.85
667.15	588.72
667.49	584.83
667.83	581.00
668.17	577.11
668.51	573.10
668.85	569.06
669.19	565.28
669.53	561.42
669.87	557.55
670.21	553.89
670.55	550.29
670.89	546.93
671.23	543.51
671.57	540.02
671.91	536.43
672.25	533.00
672.58	529.55
672.92	526.15
673.26	522.99
673.60	519.86
673.94	516.79
674.28	513.97
674.62	510.99
674.96	507.89
675.30	504.99
675.64	502.10
675.97	499.40
676.31	496.56
676.65	493.63
676.99	490.92
677.33	488.01
677.67	485.18
678.01	482.09
678.34	479.08
678.68	476.15
679.02	473.35
679.36	470.62
679.70	467.88
680.04	465.07
680.37	462.16
680.71	459.36
681.05	456.77
681.39	454.03
681.73	451.40
682.06	448.90
682.40	446.39
682.74	443.86
683.08	441.34
683.42	438.73
683.75	436.32
684.09	433.75
684.43	431.31
684.77	428.89
685.10	426.60
685.44	424.39
685.78	422.13
686.12	419.87
686.45	417.61
686.79	415.33
687.13	413.23
687.46	411.11
687.80	408.99
688.14	406.79
688.48	404.75
688.81	402.54
689.15	400.37
689.49	398.20
689.82	396.13
690.16	394.08
690.50	392.18
690.83	390.22
691.17	388.33
691.51	386.42
691.84	384.53
692.18	382.62
692.52	380.61
692.85	378.76
693.19	376.98
693.52	375.12
693.86	373.32
694.20	371.50
694.53	369.73
694.87	367.88
695.21	366.13
695.54	364.33
695.88	362.63
696.21	360.91
696.55	359.20
696.88	357.55
697.22	355.90
697.56	354.28
697.89	352.63
698.23	351.02
698.56	349.41
698.90	347.89
699.23	346.28
699.57	344.73
699.90	343.16
700.24	341.60
700.58	340.08
700.91	338.58
701.25	337.15
701.58	335.79
701.92	334.44
702.25	333.03
702.59	331.62
702.92	330.29
703.26	329.00
703.59	327.76
703.93	326.57
704.26	325.32
704.60	324.01
704.93	322.74
705.26	321.49
705.60	320.33
705.93	319.16
706.27	318.10
706.60	317.08
706.94	316.04
707.27	314.92
707.61	313.87
707.94	312.89
708.27	311.82
708.61	310.72
708.94	309.70
709.28	308.75
709.61	307.82
709.94	306.86
710.28	305.85
710.61	304.91
710.95	303.86
711.28	302.95
711.61	302.01
711.95	301.10
712.28	300.13
712.61	299.16
712.95	298.24
713.28	297.32
713.61	296.40
713.95	295.49
714.28	294.64
714.61	293.82
714.95	292.95
715.28	292.12
715.61	291.24
715.95	290.41
716.28	289.58
716.61	288.74
716.95	287.94
717.28	287.20
717.61	286.40
717.94	285.65
718.28	284.82
718.61	284.10
718.94	283.45
719.27	282.79
719.61	282.15
719.94	281.44
720.27	280.77
720.60	280.14
720.94	279.49
721.27	278.85
721.60	278.24
721.93	277.65
722.27	277.06
722.60	276.52
722.93	275.94
723.26	275.34
723.59	274.80
723.93	274.28
724.26	273.72
724.59	273.20
724.92	272.66
725.25	272.19
725.59	271.71
725.92	271.18
726.25	270.72
726.58	270.24
726.91	269.75
727.24	269.27
727.57	268.77
727.91	268.29
728.24	267.86
728.57	267.34
728.90	266.90
729.23	266.40
729.56	266.02
729.89	265.55
730.22	265.10
730.55	264.63
730.89	264.19
731.22	263.77
731.55	263.31
731.88	262.91
732.21	262.49
732.54	262.04
732.87	261.63
733.20	261.21
733.53	260.83
733.86	260.46
734.19	260.08
734.52	259.70
734.85	259.41
735.18	259.06
735.51	258.74
735.84	258.36
736.17	258.06
736.50	257.64
736.83	257.40
737.16	257.09
737.49	256.75
737.82	256.41
738.15	256.08
738.48	255.75
738.81	255.39
739.14	255.07
739.47	254.75
739.80	254.44
740.13	254.15
740.46	253.83
740.79	253.50
741.12	253.17
741.45	252.89
741.78	252.55
742.11	252.21
742.44	251.88
742.77	251.56
743.10	251.24
743.43	250.95
743.75	250.60
744.08	250.44
744.41	250.18
744.74	249.87
745.07	249.59
745.40	249.32
745.73	249.11
746.06	248.82
746.39	248.54
746.71	248.27
747.04	248.00
747.37	247.70
747.70	247.46
748.03	247.28
748.36	247.02
748.68	246.77
749.01	246.53
749.34	246.28
749.67	246.08
750.00	245.84
750.33	245.67
750.65	245.42
750.98	245.09
751.31	244.83
751.64	244.63
751.97	244.44
752.29	244.23
752.62	243.96
752.95	243.75
753.28	243.56
753.60	243.34
753.93	243.15
754.26	242.95
754.59	242.73
754.91	242.50
755.24	242.29
755.57	242.11
755.90	241.91
756.22	241.73
756.55	241.54
756.88	241.35
757.20	241.10
757.53	240.93
757.86	240.74
758.19	240.63
758.51	240.48
758.84	240.30
759.17	240.14
759.49	240.00
759.82	239.90
760.15	239.74
760.47	239.59
760.80	239.41
761.13	239.29
761.45	239.16
761.78	239.01
762.11	238.90
762.43	238.74
762.76	238.61
763.08	238.48
763.41	238.34
763.74	238.21
764.06	238.08
764.39	237.93
764.71	237.77
765.04	237.62
765.37	237.46
765.69	237.32
766.02	237.21
766.34	237.07
766.67	236.91
767.00	236.81
767.32	236.77
767.65	236.78
767.97	236.66
768.30	236.54
768.62	236.42
768.95	236.30
769.27	236.17
769.60	236.08
769.92	235.96
770.25	235.83
770.57	235.77
770.90	235.68
771.22	235.61
771.55	235.55
771.87	235.47
772.20	235.40
772.52	235.39
772.85	235.39
773.17	235.30
773.50	235.23
773.82	235.15
774.15	235.01
774.47	234.83
774.80	234.74
775.12	234.66
775.45	234.62
775.77	234.53
776.09	234.46
776.42	234.41
776.74	234.37
777.07	234.29
777.39	234.15
777.72	234.08
778.04	233.99
778.36	233.89
778.69	233.85
779.01	233.77
779.33	233.62
779.66	233.46
779.98	233.41
780.31	233.35
780.63	233.33
780.95	233.28
781.28	233.24
781.60	233.16
781.92	233.14
782.25	233.04
782.57	232.98
782.89	232.93
783.22	232.83
783.54	232.75
783.86	232.72
784.19	232.71
784.51	232.70
784.83	232.66
785.16	232.59
785.48	232.50
785.80	232.43
786.12	232.37
786.45	232.31
786.77	232.27
787.09	232.18
787.42	232.08
787.74	232.04
788.06	231.98
788.38	231.92
788.71	231.83
789.03	231.82
789.35	231.81
789.67	231.74
789.99	231.71
790.32	231.63
790.64	231.56
790.96	231.57
791.28	231.47
791.61	231.38
791.93	231.35
792.25	231.31
792.57	231.34
792.89	231.25
793.21	231.19
793.54	231.15
793.86	231.10
794.18	231.04
794.50	230.97
794.82	230.91
795.14	230.89
795.47	230.87
795.79	230.84
796.11	230.74
796.43	230.70
796.75	230.67
797.07	230.63
797.39	230.64
797.71	230.56
798.04	230.54
798.36	230.55
798.68	230.52
799.00	230.52
799.32	230.45
799.64	230.48
799.96	230.49
800.28	230.45
800.60	230.44
800.92	230.44
801.24	230.44
801.56	230.46
801.89	230.42
802.21	230.39
802.53	230.35
802.85	230.33
803.17	230.33
803.49	230.32
803.81	230.29
804.13	230.24
804.45	230.19
804.77	230.18
805.09	230.13
805.41	230.10
805.73	230.04
806.05	230.01
806.37	229.97
806.69	229.96
807.01	229.95
807.33	229.95
807.65	229.86
807.97	229.86
808.28	229.80
808.60	229.78
808.92	229.74
809.24	229.75
809.56	229.77
809.88	229.76
810.20	229.72
810.52	229.76
810.84	229.70
811.16	229.73
811.48	229.70
811.80	229.73
812.12	229.73
812.43	229.72
812.75	229.72
813.07	229.71
813.39	229.65
813.71	229.62
814.03	229.56
814.35	229.58
814.67	229.53
814.98	229.53
815.30	229.49
815.62	229.47
815.94	229.39
816.26	229.39
816.58	229.33
816.89	229.33
817.21	229.27
817.53	229.28
817.85	229.23
818.17	229.19
818.48	229.11
818.80	229.09
819.12	229.03
819.44	229.00
819.76	228.95
820.07	228.96
820.39	228.95
820.71	228.95
821.03	228.95
821.34	228.92
821.66	228.90
821.98	228.91
822.30	228.88
822.61	228.95
822.93	228.89
823.25	228.85
823.57	228.82
823.88	228.82
824.20	228.80
824.52	228.78
824.83	228.78
825.15	228.76
825.47	228.74
825.79	228.76
826.10	228.73
826.42	228.71
826.74	228.68
827.05	228.64
827.37	228.63
827.69	228.56
828.00	228.51
828.32	228.49
828.64	228.49
828.95	228.52
829.27	228.47
829.58	228.42
829.90	228.42
830.22	228.40
830.53	228.35
830.85	228.32
831.17	228.30
831.48	228.26
831.80	228.27
832.11	228.26
832.43	228.21
832.75	228.20
833.06	228.25
833.38	228.19
833.69	228.17
834.01	228.11
834.32	228.12
834.64	228.12
834.96	228.09
835.27	228.05
835.59	227.99
835.90	227.94
836.22	227.97
836.53	227.96
836.85	227.93
837.16	228.01
837.48	228.01
837.79	228.02
838.11	228.04
838.42	228.04
838.74	228.04
839.05	228.05
839.37	228.03
839.68	228.00
840.00	227.99
840.31	228.01
840.63	228.01
840.94	227.98
841.26	227.96
841.57	227.95
841.88	227.96
842.20	227.96
842.51	227.95
842.83	227.94
843.14	228.01
843.46	228.00
843.77	227.96
844.08	227.92
844.40	227.88
844.71	227.85
845.03	227.85
845.34	227.82
845.65	227.79
845.97	227.79
846.28	227.76
846.60	227.80
846.91	227.77
847.22	227.77
847.54	227.80
847.85	227.83
848.16	227.85
848.48	227.81
848.79	227.83
849.10	227.84
849.42	227.84
849.73	227.75
850.04	227.75
850.36	227.72
850.67	227.74
850.98	227.76
851.30	227.80
851.61	227.74
851.92	227.77
852.23	227.85
852.55	227.88
852.86	227.87
853.17	227.86
853.49	227.87
853.80	227.88
854.11	227.88
854.42	227.87
854.74	227.85
855.05	227.88
855.36	227.84
855.67	227.85
855.99	227.85
856.30	227.95
856.61	227.97
856.92	227.97
857.23	227.99
857.55	227.99
857.86	227.99
858.17	228.06
858.48	228.02
858.79	228.00
859.11	228.00
859.42	228.02
859.73	228.01
860.04	228.02
860.35	228.00
860.66	227.97
860.98	228.00
861.29	228.02
861.60	228.02
861.91	228.07
862.22	228.06
862.53	228.04
862.84	227.96
863.16	227.99
863.47	227.98
863.78	227.95
864.09	227.96
864.40	227.96
864.71	227.96
865.02	228.00
865.33	227.98
865.64	227.95
865.95	227.96
866.27	228.02
866.58	228.02
866.89	228.07
867.20	228.05
867.51	228.02
867.82	228.01
868.13	228.03
868.44	227.98
868.75	227.98
869.06	227.99
869.37	227.99
869.68	227.95
869.99	227.95
870.30	227.95
870.61	227.96
870.92	227.95
871.23	227.90
871.54	227.90
871.85	227.92
872.16	227.92
872.47	227.89
872.78	227.82
873.09	227.79
873.40	227.72
873.71	227.72
874.02	227.70
874.33	227.69
874.64	227.65
874.95	227.64
875.26	227.62
875.56	227.58
875.87	227.56
876.18	227.55
876.49	227.62
876.80	227.58
877.11	227.52
877.42	227.49
877.73	227.49
878.04	227.43
878.35	227.40
878.66	227.40
878.96	227.39
879.27	227.40
879.58	227.40
879.89	227.42
880.20	227.43
880.51	227.42
880.82	227.43
881.12	227.44
881.43	227.44
881.74	227.41
882.05	227.43
882.36	227.45
882.67	227.44
882.97	227.34
883.28	227.31
883.59	227.33
883.90	227.33
884.21	227.36
884.51	227.37
884.82	227.33
885.13	227.33
885.44	227.33
885.74	227.30
886.05	227.30
886.36	227.34
886.67	227.32
886.98	227.40
887.28	227.39
887.59	227.40
887.90	227.38
888.20	227.37
888.51	227.39
888.82	227.37
889.13	227.37
889.43	227.48
889.74	227.49
890.05	227.49
890.35	227.50
890.66	227.44
890.97	227.44
891.28	227.47
891.58	227.47
891.89	227.47
892.20	227.49
892.50	227.50
892.81	227.47
893.12	227.48
893.42	227.42
893.73	227.45
894.04	227.44
894.34	227.48
894.65	227.50
894.95	227.47
895.26	227.48
895.57	227.57
895.87	227.49
896.18	227.53
896.48	227.52
896.79	227.53
897.10	227.57
897.40	227.62
897.71	227.61
898.01	227.59
898.32	227.62
898.63	227.58
898.93	227.60
899.24	227.61
899.54	227.60
899.85	227.64
900.15	227.63
900.46	227.65
900.76	227.67
901.07	227.69
901.38	227.70
901.68	227.70
901.99	227.62
902.29	227.64
902.60	227.63
902.90	227.63
903.21	227.65
903.51	227.65
903.82	227.65
904.12	227.68
904.43	227.68
904.73	227.68
905.03	227.71
905.34	227.80
905.64	227.78
905.95	227.80
906.25	227.76
906.56	227.74
906.86	227.72
907.17	227.69
907.47	227.67
907.77	227.67
908.08	227.61
908.38	227.62
908.69	227.60
908.99	227.62
909.30	227.62
909.60	227.58
909.90	227.57
910.21	227.54
910.51	227.47
910.81	227.49
911.12	227.46
911.42	227.44
911.73	227.32
912.03	227.30
912.33	227.28
912.64	227.25
912.94	227.23
913.24	227.23
913.55	227.23
913.85	227.20
914.15	227.19
914.46	227.21
914.76	227.24
915.06	227.21
915.37	227.16
915.67	227.13
915.97	227.16
916.27	227.14
916.58	227.11
916.88	227.12
917.18	227.11
917.49	227.16
917.79	227.14
918.09	227.15
918.39	227.20
918.70	227.20
919.00	227.18
919.30	227.22
919.60	227.20
919.91	227.17
920.21	227.15
920.51	227.14
920.81	227.12
921.12	227.09
921.42	227.09
921.72	227.14
922.02	227.16
922.32	227.12
922.63	227.10
922.93	227.16
923.23	227.15
923.53	227.16
923.83	227.08
924.13	227.11
924.44	227.08
924.74	227.09
925.04	227.11
925.34	227.13
925.64	227.11
925.94	227.10
926.24	227.16
926.55	227.18
926.85	227.22
927.15	227.24
927.45	227.22
927.75	227.21
928.05	227.20
928.35	227.17
928.65	227.22
928.95	227.26
929.26	227.24
929.56	227.30
929.86	227.27
930.16	227.32
930.46	227.31
930.76	227.35
931.06	227.31
931.36	227.30
931.66	227.31
931.96	227.33
932.26	227.38
932.56	227.35
932.86	227.38
933.16	227.35
933.46	227.36
933.76	227.38
934.06	227.45
934.36	227.49
934.66	227.53
934.96	227.53
935.26	227.51
935.56	227.52
935.86	227.51
936.16	227.53
936.46	227.50
936.76	227.51
937.06	227.50
937.36	227.47
937.66	227.46
937.96	227.44
938.26	227.41
938.56	227.41
938.86	227.43
939.16	227.44
939.46	227.46
939.76	227.47
940.06	227.48
940.35	227.46
940.65	227.42
940.95	227.43
941.25	227.40
941.55	227.39
941.85	227.37
942.15	227.38
942.45	227.44
942.75	227.44
943.04	227.44
943.34	227.45
943.64	227.48
943.94	227.46
944.24	227.48
944.54	227.49
944.84	227.46
945.13	227.43
945.43	227.40
945.73	227.38
946.03	227.40
946.33	227.36
946.62	227.31
946.92	227.26
947.22	227.24
947.52	227.21
947.82	227.22
948.11	227.23
948.41	227.17
948.71	227.12
949.01	227.11
949.31	227.07
949.60	227.07
949.90	227.06
950.20	227.02
950.50	227.00
950.79	226.96
951.09	226.95
951.39	226.94
951.69	226.92
951.98	226.94
952.28	226.93
952.58	226.92
952.87	226.98
953.17	227.00
953.47	227.01
953.76	227.03
954.06	227.03
954.36	226.96
954.66	226.97
954.95	226.99
955.25	226.99
955.55	227.00
955.84	226.95
956.14	226.93
956.44	226.97
956.73	226.98
957.03	227.00
957.32	227.02
957.62	227.00
957.92	227.03
958.21	227.01
958.51	227.05
958.81	227.08
959.10	227.06
959.40	227.08
959.69	227.08
959.99	227.07
960.29	227.02
960.58	227.07
960.88	227.11
961.17	227.11
961.47	227.13
961.76	227.13
962.06	227.16
962.36	227.19
962.65	227.20
962.95	227.20
963.24	227.16
963.54	227.19
963.83	227.23
964.13	227.22
964.42	227.25
964.72	227.21
965.01	227.21
965.31	227.22
965.60	227.22
965.90	227.29
966.19	227.29
966.49	227.33
966.78	227.33
967.08	227.31
967.37	227.31
967.67	227.30
967.96	227.32
968.26	227.34
968.55	227.36
968.85	227.37
969.14	227.38
969.43	227.43
969.73	227.39
970.02	227.38
970.32	227.39
970.61	227.34
970.91	227.33
971.20	227.34
971.49	227.34
971.79	227.35
972.08	227.28
972.38	227.26
972.67	227.28
972.96	227.30
973.26	227.30
973.55	227.30
973.85	227.31
974.14	227.29
974.43	227.29
974.73	227.30
975.02	227.26
975.31	227.28
975.61	227.26
975.90	227.28
976.19	227.27
976.49	227.28
976.78	227.33
977.07	227.29
977.37	227.27
977.66	227.29
977.95	227.28
978.24	227.27
978.54	227.32
978.83	227.30
979.12	227.27
979.42	227.29
979.71	227.26
980.00	227.25
980.29	227.27
980.59	227.27
980.88	227.26
981.17	227.28
981.46	227.24
981.76	227.26
982.05	227.25
982.34	227.23
982.63	227.23
982.93	227.20
983.22	227.23
983.51	227.25
983.80	227.24
984.09	227.24
984.39	227.22
984.68	227.20
984.97	227.18
985.26	227.14
985.55	227.10
985.85	227.10
986.14	227.07
986.43	227.07
986.72	227.03
987.01	226.99
987.30	226.98
987.59	226.95
987.89	226.92
988.18	226.88
988.47	226.90
988.76	226.85
989.05	226.85
989.34	226.84
989.63	226.82
989.92	226.80
990.22	226.79
990.51	226.80
990.80	226.81
991.09	226.82
991.38	226.87
991.67	226.89
991.96	226.88
992.25	226.94
992.54	226.92
992.83	226.92
993.12	226.93
993.41	226.97
993.70	227.05
993.99	227.09
994.28	227.13
994.58	227.18
994.87	227.17
995.16	227.20
995.45	227.17
995.74	227.16
996.03	227.15
996.32	227.18
996.61	227.23
996.90	227.22
997.19	227.24
997.48	227.24
997.77	227.21
998.06	227.22
998.34	227.18
998.63	227.18
998.92	227.17
999.21	227.20
999.50	227.20
999.79	227.15
1000.08	227.13
1000.37	227.15
1000.66	227.11
1000.95	227.17
1001.24	227.15
1001.53	227.21
1001.82	227.22
1002.11	227.21
1002.40	227.22
1002.68	227.22
1002.97	227.27
1003.26	227.25
1003.55	227.23
1003.84	227.27
1004.13	227.31
1004.42	227.32
1004.71	227.34
1004.99	227.37
1005.28	227.35
1005.57	227.32
1005.86	227.33
1006.15	227.32
1006.44	227.31
1006.72	227.32
1007.01	227.30
1007.30	227.33
1007.59	227.31
1007.88	227.33
1008.17	227.37
1008.45	227.35
1008.74	227.30
1009.03	227.28
1009.32	227.29
1009.60	227.28
1009.89	227.30
1010.18	227.23
1010.47	227.24
1010.76	227.22
1011.04	227.20
1011.33	227.23
1011.62	227.28
1011.91	227.29
1012.19	227.31
1012.48	227.31
1012.77	227.31
1013.05	227.34
1013.34	227.31
1013.63	227.28
1013.92	227.28
1014.20	227.27
1014.49	227.24
1014.78	227.25
1015.06	227.22
1015.35	227.23
1015.64	227.24
1015.92	227.23
1016.21	227.26
1016.50	227.25
1016.78	227.26
1017.07	227.28
1017.36	227.24
1017.64	227.23
1017.93	227.24
1018.22	227.24
1018.50	227.23
1018.79	227.24
1019.08	227.17
1019.36	227.19
1019.65	227.18
1019.93	227.19
1020.22	227.17
1020.51	227.25
1020.79	227.21
1021.08	227.31
1021.36	227.00
1021.65	227.17
1021.94	226.71
1022.22	227.51
1022.51	226.82
1022.79	227.37
1023.08	227.16
1023.36	228.47
1023.65	226.39
>>>>>End Processed Spectral Data<<<<<
