SpectraSuite Data File
++++++++++++++++++++++++++++++++++++
Date: Fri Feb 01 15:10:11 EST 2013
User: group
Dark Spectrum Present: No
Reference Spectrum Present: No
Number of Sampled Component Spectra: 1
Spectrometers: USB2E7196
Integration Time (usec): 35000 (USB2E7196)
Spectra Averaged: 100 (USB2E7196)
Boxcar Smoothing: 10 (USB2E7196)
Correct for Electrical Dark: No (USB2E7196)
Strobe/Lamp Enabled: No (USB2E7196)
Correct for Detector Non-linearity: No (USB2E7196)
Correct for Stray Light: No (USB2E7196)
Number of Pixels in Processed Spectrum: 2048
>>>>>Begin Processed Spectral Data<<<<<
339.09	0.00
339.48	215.40
339.86	216.48
340.24	217.32
340.63	219.11
341.01	222.68
341.39	221.42
341.78	223.89
342.16	224.88
342.54	225.56
342.93	213.59
343.31	224.36
343.69	224.88
344.07	225.36
344.46	225.81
344.84	226.22
345.22	226.44
345.60	226.75
345.99	226.93
346.37	227.07
346.75	227.16
347.13	227.24
347.52	227.28
347.90	227.33
348.28	227.35
348.66	227.39
349.05	227.39
349.43	227.38
349.81	227.41
350.19	227.46
350.57	227.52
350.96	227.60
351.34	227.73
351.72	227.83
352.10	227.95
352.48	228.02
352.87	228.07
353.25	228.12
353.63	228.18
354.01	228.24
354.39	228.32
354.77	228.41
355.15	228.50
355.54	228.56
355.92	228.62
356.30	228.71
356.68	228.85
357.06	228.95
357.44	229.02
357.82	229.08
358.20	229.13
358.58	229.19
358.97	229.23
359.35	229.28
359.73	229.34
360.11	229.34
360.49	229.40
360.87	229.42
361.25	229.48
361.63	229.52
362.01	229.54
362.39	229.54
362.77	229.57
363.15	229.61
363.53	229.64
363.91	229.66
364.29	229.69
364.67	229.60
365.05	229.58
365.43	229.60
365.81	229.62
366.19	229.66
366.57	229.70
366.95	229.69
367.33	229.65
367.71	229.64
368.09	229.66
368.47	229.61
368.85	229.60
369.23	229.57
369.61	229.48
369.99	229.47
370.37	229.46
370.75	229.44
371.13	229.35
371.51	229.29
371.89	229.26
372.27	229.17
372.65	229.12
373.03	229.08
373.41	229.03
373.78	228.94
374.16	228.82
374.54	228.70
374.92	228.64
375.30	228.54
375.68	228.47
376.06	228.42
376.44	228.37
376.82	228.29
377.19	228.23
377.57	228.19
377.95	228.07
378.33	227.98
378.71	227.86
379.09	227.81
379.47	227.74
379.84	227.62
380.22	227.56
380.60	227.46
380.98	227.37
381.36	227.29
381.73	227.20
382.11	227.15
382.49	227.09
382.87	226.98
383.25	226.97
383.62	226.95
384.00	226.83
384.38	226.73
384.76	226.70
385.13	226.65
385.51	226.57
385.89	226.51
386.27	226.43
386.64	226.37
387.02	226.29
387.40	226.21
387.78	226.20
388.15	226.14
388.53	226.10
388.91	226.07
389.29	226.04
389.66	226.03
390.04	225.98
390.42	225.99
390.79	225.98
391.17	225.95
391.55	225.88
391.92	225.88
392.30	225.89
392.68	225.85
393.05	225.87
393.43	225.91
393.81	225.96
394.18	225.97
394.56	225.98
394.94	226.03
395.31	226.06
395.69	226.11
396.06	226.20
396.44	226.25
396.82	226.29
397.19	226.35
397.57	226.40
397.95	226.52
398.32	226.52
398.70	226.61
399.07	226.69
399.45	226.69
399.82	226.80
400.20	226.89
400.58	227.01
400.95	227.04
401.33	227.14
401.70	227.29
402.08	227.44
402.45	227.54
402.83	227.67
403.20	227.81
403.58	227.95
403.95	228.05
404.33	228.20
404.71	228.34
405.08	228.55
405.46	228.68
405.83	228.84
406.21	229.02
406.58	229.16
406.96	229.34
407.33	229.60
407.70	229.79
408.08	230.06
408.45	230.32
408.83	230.59
409.20	230.82
409.58	231.00
409.95	231.27
410.33	231.59
410.70	231.86
411.08	232.16
411.45	232.46
411.82	232.78
412.20	233.14
412.57	233.58
412.95	233.90
413.32	234.34
413.69	234.74
414.07	235.19
414.44	235.69
414.82	236.16
415.19	236.71
415.56	237.28
415.94	237.84
416.31	238.48
416.68	239.10
417.06	239.82
417.43	240.53
417.81	241.29
418.18	242.06
418.55	242.92
418.93	243.80
419.30	244.70
419.67	245.64
420.04	246.62
420.42	247.59
420.79	248.76
421.16	249.91
421.54	251.11
421.91	252.30
422.28	253.54
422.66	254.90
423.03	256.22
423.40	257.52
423.77	258.87
424.15	260.25
424.52	261.75
424.89	263.35
425.26	264.88
425.64	266.34
426.01	267.92
426.38	269.57
426.75	271.23
427.13	272.95
427.50	274.77
427.87	276.62
428.24	278.46
428.61	280.17
428.99	282.12
429.36	284.21
429.73	286.32
430.10	288.35
430.47	290.36
430.85	292.45
431.22	294.70
431.59	297.11
431.96	299.39
432.33	301.86
432.70	304.20
433.08	306.97
433.45	309.60
433.82	312.20
434.19	315.07
434.56	317.84
434.93	320.47
435.30	323.05
435.68	325.97
436.05	328.86
436.42	331.71
436.79	334.20
437.16	336.94
437.53	339.75
437.90	342.53
438.27	345.32
438.64	348.18
439.01	350.78
439.38	353.06
439.75	355.23
440.13	357.71
440.50	360.08
440.87	361.98
441.24	363.91
441.61	366.04
441.98	367.53
442.35	369.38
442.72	371.25
443.09	373.10
443.46	374.09
443.83	374.68
444.20	375.15
444.57	375.98
444.94	376.23
445.31	376.53
445.68	376.92
446.05	376.99
446.42	376.59
446.79	376.19
447.16	375.73
447.53	375.38
447.90	374.23
448.27	373.04
448.64	371.45
449.01	370.31
449.37	368.39
449.74	366.48
450.11	364.19
450.48	361.74
450.85	359.22
451.22	357.07
451.59	355.00
451.96	353.01
452.33	350.46
452.70	348.11
453.07	345.33
453.43	342.44
453.80	339.65
454.17	336.99
454.54	334.43
454.91	331.68
455.28	328.99
455.65	326.55
456.02	324.11
456.38	321.99
456.75	319.32
457.12	317.06
457.49	314.84
457.86	312.71
458.23	310.86
458.59	308.80
458.96	306.72
459.33	304.86
459.70	303.06
460.07	301.51
460.43	299.79
460.80	298.15
461.17	296.72
461.54	295.22
461.91	293.79
462.27	292.36
462.64	291.13
463.01	289.82
463.38	288.48
463.74	287.12
464.11	285.94
464.48	284.96
464.85	283.82
465.21	282.96
465.58	282.02
465.95	280.91
466.32	280.01
466.68	279.11
467.05	278.23
467.42	277.30
467.78	276.36
468.15	275.45
468.52	274.78
468.88	273.91
469.25	273.11
469.62	272.48
469.98	271.77
470.35	271.12
470.72	270.52
471.08	269.85
471.45	269.28
471.82	268.71
472.18	268.10
472.55	267.69
472.92	267.15
473.28	266.68
473.65	266.23
474.02	265.74
474.38	265.35
474.75	265.04
475.11	264.69
475.48	264.43
475.85	264.22
476.21	263.95
476.58	263.76
476.94	263.62
477.31	263.41
477.67	263.26
478.04	263.14
478.41	263.05
478.77	263.12
479.14	263.06
479.50	263.09
479.87	263.09
480.23	263.16
480.60	263.25
480.96	263.36
481.33	263.57
481.69	263.77
482.06	263.99
482.42	264.15
482.79	264.39
483.15	264.68
483.52	265.02
483.88	265.40
484.25	265.78
484.61	266.21
484.98	266.66
485.34	267.23
485.71	267.76
486.07	268.36
486.44	268.89
486.80	269.57
487.17	270.26
487.53	271.09
487.90	271.91
488.26	272.82
488.62	273.79
488.99	274.73
489.35	275.79
489.72	276.86
490.08	278.05
490.44	279.32
490.81	280.67
491.17	282.04
491.54	283.51
491.90	285.05
492.26	286.68
492.63	288.44
492.99	290.22
493.36	292.16
493.72	294.16
494.08	296.27
494.45	298.54
494.81	300.92
495.17	303.32
495.54	305.87
495.90	308.54
496.26	311.32
496.63	314.28
496.99	317.34
497.35	320.59
497.72	324.00
498.08	327.52
498.44	331.21
498.80	335.11
499.17	339.11
499.53	343.24
499.89	347.59
500.26	352.05
500.62	356.71
500.98	361.67
501.34	366.79
501.71	372.10
502.07	377.51
502.43	383.10
502.79	388.96
503.16	395.06
503.52	401.37
503.88	407.81
504.24	414.38
504.60	421.24
504.97	428.36
505.33	435.61
505.69	443.24
506.05	450.98
506.41	458.88
506.78	467.03
507.14	475.45
507.50	484.19
507.86	493.19
508.22	502.26
508.59	511.40
508.95	520.92
509.31	530.69
509.67	540.75
510.03	551.00
510.39	561.55
510.75	572.31
511.12	583.18
511.48	594.45
511.84	605.92
512.20	617.49
512.56	629.43
512.92	641.65
513.28	654.01
513.64	666.40
514.00	679.09
514.37	691.99
514.73	705.03
515.09	718.03
515.45	731.36
515.81	745.06
516.17	759.07
516.53	773.28
516.89	787.53
517.25	801.79
517.61	816.18
517.97	830.55
518.33	845.01
518.69	859.85
519.05	874.85
519.41	890.11
519.77	905.65
520.13	921.11
520.49	936.55
520.85	951.98
521.21	967.82
521.57	984.18
521.93	1000.05
522.29	1016.52
522.65	1032.90
523.01	1049.14
523.37	1065.28
523.73	1081.52
524.09	1097.63
524.45	1114.07
524.81	1130.78
525.17	1147.75
525.53	1164.77
525.89	1181.73
526.25	1198.48
526.61	1214.92
526.97	1231.65
527.33	1248.13
527.68	1264.81
528.04	1281.42
528.40	1298.18
528.76	1315.33
529.12	1331.91
529.48	1348.76
529.84	1364.92
530.20	1381.59
530.56	1398.69
530.91	1416.09
531.27	1432.86
531.63	1449.43
531.99	1466.10
532.35	1482.02
532.71	1497.87
533.07	1514.15
533.42	1530.02
533.78	1546.14
534.14	1562.54
534.50	1577.97
534.86	1594.07
535.21	1609.29
535.57	1625.16
535.93	1640.70
536.29	1655.40
536.65	1670.57
537.00	1685.44
537.36	1700.80
537.72	1715.41
538.08	1729.88
538.44	1743.74
538.79	1757.80
539.15	1771.55
539.51	1785.26
539.87	1799.75
540.22	1813.68
540.58	1827.58
540.94	1841.14
541.29	1854.21
541.65	1866.96
542.01	1880.23
542.37	1892.49
542.72	1905.00
543.08	1916.92
543.44	1929.34
543.79	1940.75
544.15	1951.70
544.51	1963.37
544.87	1974.32
545.22	1985.23
545.58	1995.53
545.94	2005.50
546.29	2015.45
546.65	2025.18
547.01	2034.44
547.36	2043.15
547.72	2051.62
548.07	2059.49
548.43	2067.62
548.79	2075.69
549.14	2083.20
549.50	2090.67
549.86	2098.38
550.21	2105.80
550.57	2112.95
550.92	2119.55
551.28	2126.55
551.64	2133.76
551.99	2140.34
552.35	2146.57
552.70	2152.70
553.06	2158.59
553.41	2164.83
553.77	2170.75
554.13	2177.07
554.48	2183.15
554.84	2188.57
555.19	2194.04
555.55	2199.12
555.90	2203.48
556.26	2208.29
556.61	2213.05
556.97	2217.11
557.32	2221.28
557.68	2225.43
558.03	2229.71
558.39	2233.51
558.74	2238.28
559.10	2242.09
559.45	2245.70
559.81	2250.01
560.16	2253.68
560.52	2256.80
560.87	2260.17
561.23	2262.80
561.58	2265.64
561.94	2268.15
562.29	2270.63
562.64	2273.10
563.00	2275.89
563.35	2279.51
563.71	2282.51
564.06	2285.66
564.42	2288.50
564.77	2290.92
565.12	2292.94
565.48	2294.72
565.83	2296.44
566.19	2297.56
566.54	2298.34
566.89	2299.43
567.25	2299.86
567.60	2301.21
567.96	2302.91
568.31	2303.62
568.66	2304.56
569.02	2304.87
569.37	2305.03
569.72	2305.55
570.08	2305.59
570.43	2305.26
570.78	2304.37
571.14	2302.82
571.49	2301.43
571.84	2301.04
572.20	2299.64
572.55	2298.56
572.90	2297.04
573.26	2295.59
573.61	2293.91
573.96	2292.10
574.31	2288.87
574.67	2285.72
575.02	2281.91
575.37	2278.36
575.72	2274.51
576.08	2271.21
576.43	2267.99
576.78	2264.27
577.13	2261.16
577.49	2258.15
577.84	2254.67
578.19	2251.07
578.54	2247.29
578.90	2242.83
579.25	2237.28
579.60	2232.38
579.95	2227.29
580.30	2222.03
580.66	2216.80
581.01	2211.62
581.36	2206.65
581.71	2202.33
582.06	2197.82
582.42	2193.32
582.77	2188.14
583.12	2183.36
583.47	2178.40
583.82	2173.12
584.17	2167.77
584.53	2162.08
584.88	2156.23
585.23	2150.27
585.58	2144.71
585.93	2139.29
586.28	2134.52
586.63	2129.25
586.98	2123.92
587.34	2119.12
587.69	2114.15
588.04	2108.56
588.39	2102.74
588.74	2096.12
589.09	2089.94
589.44	2083.06
589.79	2076.90
590.14	2071.15
590.49	2064.61
590.84	2058.30
591.19	2052.13
591.54	2045.62
591.89	2038.09
592.25	2031.08
592.60	2023.95
592.95	2016.14
593.30	2008.61
593.65	2000.88
594.00	1993.80
594.35	1986.59
594.70	1978.51
595.05	1971.12
595.40	1963.86
595.75	1956.40
596.10	1950.01
596.45	1943.19
596.80	1936.92
597.15	1930.24
597.50	1922.96
597.85	1916.47
598.19	1909.59
598.54	1902.60
598.89	1895.81
599.24	1889.97
599.59	1883.14
599.94	1876.88
600.29	1870.54
600.64	1864.00
600.99	1856.45
601.34	1849.45
601.69	1842.47
602.04	1835.45
602.39	1828.25
602.74	1821.54
603.08	1814.81
603.43	1808.11
603.78	1800.85
604.13	1793.54
604.48	1786.14
604.83	1779.36
605.18	1772.20
605.53	1764.21
605.87	1756.11
606.22	1748.96
606.57	1740.97
606.92	1733.70
607.27	1726.30
607.62	1719.30
607.96	1711.90
608.31	1705.22
608.66	1697.56
609.01	1689.98
609.36	1682.45
609.70	1674.38
610.05	1666.08
610.40	1658.29
610.75	1650.01
611.10	1642.29
611.44	1634.03
611.79	1626.14
612.14	1617.40
612.49	1608.40
612.83	1600.05
613.18	1591.96
613.53	1583.86
613.88	1575.34
614.22	1567.11
614.57	1558.61
614.92	1550.66
615.27	1543.05
615.61	1534.80
615.96	1526.89
616.31	1519.32
616.65	1511.98
617.00	1504.40
617.35	1496.76
617.70	1488.36
618.04	1479.80
618.39	1471.64
618.74	1464.06
619.08	1455.74
619.43	1448.31
619.78	1441.36
620.12	1434.14
620.47	1426.56
620.82	1418.44
621.16	1411.07
621.51	1403.48
621.85	1395.94
622.20	1387.49
622.55	1379.25
622.89	1371.45
623.24	1363.88
623.59	1356.48
623.93	1349.02
624.28	1341.86
624.62	1334.34
624.97	1327.30
625.32	1320.67
625.66	1313.62
626.01	1306.36
626.35	1298.85
626.70	1291.03
627.04	1283.33
627.39	1275.68
627.73	1268.37
628.08	1261.46
628.43	1254.16
628.77	1246.76
629.12	1239.21
629.46	1232.00
629.81	1224.68
630.15	1217.46
630.50	1210.07
630.84	1201.89
631.19	1193.97
631.53	1186.48
631.88	1179.08
632.22	1171.50
632.57	1164.15
632.91	1156.63
633.26	1149.29
633.60	1142.05
633.95	1135.04
634.29	1128.00
634.64	1121.31
634.98	1113.95
635.32	1106.86
635.67	1100.41
636.01	1093.90
636.36	1087.13
636.70	1080.68
637.05	1074.05
637.39	1067.62
637.73	1061.18
638.08	1055.39
638.42	1049.37
638.77	1042.85
639.11	1036.22
639.45	1029.85
639.80	1023.21
640.14	1016.79
640.49	1010.29
640.83	1003.99
641.17	997.72
641.52	991.46
641.86	985.11
642.20	979.33
642.55	973.00
642.89	966.44
643.23	959.85
643.58	954.05
643.92	947.79
644.26	941.71
644.61	935.72
644.95	929.62
645.29	922.97
645.64	916.30
645.98	910.10
646.32	904.30
646.66	898.24
647.01	892.37
647.35	886.73
647.69	880.94
648.04	875.42
648.38	869.62
648.72	863.53
649.06	857.42
649.41	851.50
649.75	845.48
650.09	839.55
650.43	833.78
650.78	827.65
651.12	821.74
651.46	816.01
651.80	810.21
652.14	804.88
652.49	799.49
652.83	794.33
653.17	788.62
653.51	782.92
653.85	777.55
654.20	771.94
654.54	765.93
654.88	760.15
655.22	754.28
655.56	748.62
655.90	743.27
656.25	738.03
656.59	732.71
656.93	727.73
657.27	722.61
657.61	717.25
657.95	712.08
658.29	707.04
658.64	701.83
658.98	696.58
659.32	691.11
659.66	685.97
660.00	680.60
660.34	675.71
660.68	670.83
661.02	665.86
661.36	661.23
661.70	656.84
662.05	652.48
662.39	648.16
662.73	643.74
663.07	639.38
663.41	634.91
663.75	630.44
664.09	625.80
664.43	621.38
664.77	617.20
665.11	613.01
665.45	608.89
665.79	604.87
666.13	600.82
666.47	596.76
666.81	592.60
667.15	588.57
667.49	584.67
667.83	580.87
668.17	576.92
668.51	572.82
668.85	568.72
669.19	564.91
669.53	561.03
669.87	557.19
670.21	553.50
670.55	549.93
670.89	546.49
671.23	543.18
671.57	539.74
671.91	536.24
672.25	532.79
672.58	529.26
672.92	525.88
673.26	522.71
673.60	519.58
673.94	516.51
674.28	513.59
674.62	510.64
674.96	507.49
675.30	504.58
675.64	501.72
675.97	499.05
676.31	496.22
676.65	493.37
676.99	490.65
677.33	487.83
677.67	485.01
678.01	482.06
678.34	479.04
678.68	476.16
679.02	473.34
679.36	470.62
679.70	467.93
680.04	465.14
680.37	462.20
680.71	459.49
681.05	456.89
681.39	454.21
681.73	451.62
682.06	449.13
682.40	446.56
682.74	444.01
683.08	441.46
683.42	438.86
683.75	436.36
684.09	433.80
684.43	431.37
684.77	428.94
685.10	426.63
685.44	424.37
685.78	422.10
686.12	419.97
686.45	417.64
686.79	415.38
687.13	413.23
687.46	411.11
687.80	408.92
688.14	406.71
688.48	404.65
688.81	402.37
689.15	400.25
689.49	398.16
689.82	396.11
690.16	394.04
690.50	392.08
690.83	390.15
691.17	388.21
691.51	386.31
691.84	384.47
692.18	382.50
692.52	380.49
692.85	378.59
693.19	376.68
693.52	374.92
693.86	373.14
694.20	371.38
694.53	369.64
694.87	367.78
695.21	366.02
695.54	364.22
695.88	362.48
696.21	360.77
696.55	359.10
696.88	357.43
697.22	355.75
697.56	354.13
697.89	352.47
698.23	350.83
698.56	349.19
698.90	347.54
699.23	345.88
699.57	344.36
699.90	342.80
700.24	341.27
700.58	339.73
700.91	338.18
701.25	336.73
701.58	335.32
701.92	333.99
702.25	332.59
702.59	331.24
702.92	329.95
703.26	328.65
703.59	327.33
703.93	326.13
704.26	324.92
704.60	323.65
704.93	322.42
705.26	321.22
705.60	320.07
705.93	318.95
706.27	317.93
706.60	316.91
706.94	315.88
707.27	314.69
707.61	313.64
707.94	312.67
708.27	311.58
708.61	310.53
708.94	309.56
709.28	308.62
709.61	307.70
709.94	306.79
710.28	305.79
710.61	304.88
710.95	303.88
711.28	302.94
711.61	302.01
711.95	301.07
712.28	300.09
712.61	299.06
712.95	298.15
713.28	297.31
713.61	296.38
713.95	295.49
714.28	294.68
714.61	293.85
714.95	292.99
715.28	292.16
715.61	291.25
715.95	290.37
716.28	289.53
716.61	288.71
716.95	287.87
717.28	287.14
717.61	286.38
717.94	285.61
718.28	284.82
718.61	284.13
718.94	283.49
719.27	282.88
719.61	282.30
719.94	281.65
720.27	280.92
720.60	280.27
720.94	279.65
721.27	279.08
721.60	278.50
721.93	277.92
722.27	277.37
722.60	276.87
722.93	276.30
723.26	275.72
723.59	275.15
723.93	274.64
724.26	274.07
724.59	273.46
724.92	272.98
725.25	272.46
725.59	271.93
725.92	271.42
726.25	270.93
726.58	270.44
726.91	269.94
727.24	269.45
727.57	268.96
727.91	268.43
728.24	267.96
728.57	267.45
728.90	266.95
729.23	266.46
729.56	266.02
729.89	265.55
730.22	265.08
730.55	264.56
730.89	264.12
731.22	263.68
731.55	263.23
731.88	262.78
732.21	262.35
732.54	261.94
732.87	261.48
733.20	261.03
733.53	260.65
733.86	260.29
734.19	259.88
734.52	259.52
734.85	259.24
735.18	258.84
735.51	258.48
735.84	258.15
736.17	257.81
736.50	257.40
736.83	257.18
737.16	256.86
737.49	256.57
737.82	256.18
738.15	255.84
738.48	255.54
738.81	255.23
739.14	254.92
739.47	254.58
739.80	254.25
740.13	254.01
740.46	253.63
740.79	253.31
741.12	253.02
741.45	252.67
741.78	252.31
742.11	252.02
742.44	251.70
742.77	251.44
743.10	251.11
743.43	250.85
743.75	250.47
744.08	250.33
744.41	250.06
744.74	249.85
745.07	249.56
745.40	249.32
745.73	249.06
746.06	248.78
746.39	248.53
746.71	248.29
747.04	247.97
747.37	247.75
747.70	247.48
748.03	247.22
748.36	247.01
748.68	246.76
749.01	246.48
749.34	246.28
749.67	246.03
750.00	245.83
750.33	245.67
750.65	245.48
750.98	245.14
751.31	244.93
751.64	244.71
751.97	244.58
752.29	244.35
752.62	244.13
752.95	243.90
753.28	243.69
753.60	243.48
753.93	243.29
754.26	243.10
754.59	242.88
754.91	242.70
755.24	242.49
755.57	242.31
755.90	242.15
756.22	241.93
756.55	241.71
756.88	241.51
757.20	241.29
757.53	241.06
757.86	240.88
758.19	240.73
758.51	240.55
758.84	240.33
759.17	240.18
759.49	240.04
759.82	239.97
760.15	239.83
760.47	239.70
760.80	239.53
761.13	239.37
761.45	239.26
761.78	239.11
762.11	239.01
762.43	238.91
762.76	238.78
763.08	238.67
763.41	238.56
763.74	238.44
764.06	238.28
764.39	238.12
764.71	238.01
765.04	237.87
765.37	237.72
765.69	237.57
766.02	237.45
766.34	237.31
766.67	237.13
767.00	237.05
767.32	236.97
767.65	236.93
767.97	236.88
768.30	236.74
768.62	236.63
768.95	236.49
769.27	236.35
769.60	236.25
769.92	236.13
770.25	236.00
770.57	235.87
770.90	235.77
771.22	235.67
771.55	235.55
771.87	235.44
772.20	235.35
772.52	235.34
772.85	235.36
773.17	235.27
773.50	235.18
773.82	235.06
774.15	234.92
774.47	234.77
774.80	234.63
775.12	234.55
775.45	234.45
775.77	234.35
776.09	234.25
776.42	234.17
776.74	234.10
777.07	234.03
777.39	233.94
777.72	233.86
778.04	233.79
778.36	233.71
778.69	233.60
779.01	233.54
779.33	233.37
779.66	233.14
779.98	233.05
780.31	232.94
780.63	232.91
780.95	232.87
781.28	232.82
781.60	232.73
781.92	232.65
782.25	232.61
782.57	232.52
782.89	232.48
783.22	232.40
783.54	232.33
783.86	232.26
784.19	232.20
784.51	232.16
784.83	232.10
785.16	232.05
785.48	232.00
785.80	231.95
786.12	231.93
786.45	231.91
786.77	231.86
787.09	231.83
787.42	231.71
787.74	231.65
788.06	231.59
788.38	231.56
788.71	231.51
789.03	231.45
789.35	231.47
789.67	231.40
789.99	231.37
790.32	231.30
790.64	231.26
790.96	231.31
791.28	231.22
791.61	231.22
791.93	231.15
792.25	231.14
792.57	231.16
792.89	231.10
793.21	231.06
793.54	231.03
793.86	231.00
794.18	230.97
794.50	230.94
794.82	230.93
795.14	230.89
795.47	230.88
795.79	230.89
796.11	230.82
796.43	230.80
796.75	230.77
797.07	230.79
797.39	230.79
797.71	230.69
798.04	230.69
798.36	230.64
798.68	230.64
799.00	230.59
799.32	230.53
799.64	230.51
799.96	230.48
800.28	230.45
800.60	230.39
800.92	230.37
801.24	230.31
801.56	230.28
801.89	230.26
802.21	230.22
802.53	230.13
802.85	230.14
803.17	230.16
803.49	230.08
803.81	230.02
804.13	229.98
804.45	229.94
804.77	229.93
805.09	229.92
805.41	229.87
805.73	229.84
806.05	229.77
806.37	229.73
806.69	229.70
807.01	229.67
807.33	229.65
807.65	229.61
807.97	229.68
808.28	229.65
808.60	229.60
808.92	229.56
809.24	229.62
809.56	229.59
809.88	229.51
810.20	229.51
810.52	229.48
810.84	229.41
811.16	229.37
811.48	229.34
811.80	229.34
812.12	229.30
812.43	229.28
812.75	229.26
813.07	229.23
813.39	229.19
813.71	229.16
814.03	229.12
814.35	229.11
814.67	229.02
814.98	228.97
815.30	228.98
815.62	228.97
815.94	228.85
816.26	228.86
816.58	228.83
816.89	228.85
817.21	228.81
817.53	228.82
817.85	228.82
818.17	228.80
818.48	228.75
818.80	228.71
819.12	228.68
819.44	228.67
819.76	228.63
820.07	228.61
820.39	228.58
820.71	228.58
821.03	228.52
821.34	228.48
821.66	228.47
821.98	228.47
822.30	228.43
822.61	228.48
822.93	228.39
823.25	228.38
823.57	228.28
823.88	228.31
824.20	228.28
824.52	228.28
824.83	228.24
825.15	228.21
825.47	228.27
825.79	228.30
826.10	228.27
826.42	228.26
826.74	228.28
827.05	228.31
827.37	228.30
827.69	228.28
828.00	228.29
828.32	228.28
828.64	228.26
828.95	228.30
829.27	228.27
829.58	228.28
829.90	228.27
830.22	228.30
830.53	228.27
830.85	228.27
831.17	228.26
831.48	228.30
831.80	228.32
832.11	228.28
832.43	228.24
832.75	228.20
833.06	228.28
833.38	228.25
833.69	228.23
834.01	228.27
834.32	228.28
834.64	228.28
834.96	228.26
835.27	228.24
835.59	228.20
835.90	228.18
836.22	228.20
836.53	228.19
836.85	228.19
837.16	228.27
837.48	228.28
837.79	228.30
838.11	228.25
838.42	228.23
838.74	228.26
839.05	228.25
839.37	228.25
839.68	228.18
840.00	228.17
840.31	228.18
840.63	228.11
840.94	228.09
841.26	228.07
841.57	228.09
841.88	228.09
842.20	228.09
842.51	228.08
842.83	228.05
843.14	228.12
843.46	228.10
843.77	228.07
844.08	228.04
844.40	228.01
844.71	228.02
845.03	228.00
845.34	227.97
845.65	227.96
845.97	227.96
846.28	227.97
846.60	227.95
846.91	227.91
847.22	227.94
847.54	227.98
847.85	227.95
848.16	227.90
848.48	227.88
848.79	227.91
849.10	227.90
849.42	227.94
849.73	227.83
850.04	227.85
850.36	227.80
850.67	227.84
850.98	227.81
851.30	227.82
851.61	227.80
851.92	227.79
852.23	227.81
852.55	227.80
852.86	227.80
853.17	227.81
853.49	227.86
853.80	227.89
854.11	227.85
854.42	227.89
854.74	227.91
855.05	227.90
855.36	227.82
855.67	227.85
855.99	227.81
856.30	227.91
856.61	227.89
856.92	227.88
857.23	227.86
857.55	227.84
857.86	227.79
858.17	227.80
858.48	227.78
858.79	227.74
859.11	227.75
859.42	227.73
859.73	227.69
860.04	227.67
860.35	227.58
860.66	227.56
860.98	227.54
861.29	227.53
861.60	227.51
861.91	227.53
862.22	227.51
862.53	227.50
862.84	227.40
863.16	227.41
863.47	227.35
863.78	227.32
864.09	227.33
864.40	227.34
864.71	227.35
865.02	227.35
865.33	227.37
865.64	227.37
865.95	227.37
866.27	227.45
866.58	227.44
866.89	227.49
867.20	227.47
867.51	227.45
867.82	227.44
868.13	227.46
868.44	227.43
868.75	227.40
869.06	227.42
869.37	227.44
869.68	227.40
869.99	227.45
870.30	227.47
870.61	227.46
870.92	227.46
871.23	227.42
871.54	227.46
871.85	227.46
872.16	227.48
872.47	227.45
872.78	227.38
873.09	227.39
873.40	227.36
873.71	227.42
874.02	227.43
874.33	227.44
874.64	227.45
874.95	227.49
875.26	227.47
875.56	227.46
875.87	227.44
876.18	227.48
876.49	227.59
876.80	227.59
877.11	227.56
877.42	227.51
877.73	227.55
878.04	227.51
878.35	227.50
878.66	227.47
878.96	227.49
879.27	227.48
879.58	227.46
879.89	227.44
880.20	227.43
880.51	227.42
880.82	227.42
881.12	227.43
881.43	227.40
881.74	227.41
882.05	227.41
882.36	227.43
882.67	227.38
882.97	227.27
883.28	227.23
883.59	227.23
883.90	227.30
884.21	227.28
884.51	227.28
884.82	227.27
885.13	227.28
885.44	227.25
885.74	227.25
886.05	227.25
886.36	227.26
886.67	227.23
886.98	227.28
887.28	227.28
887.59	227.24
887.90	227.23
888.20	227.23
888.51	227.21
888.82	227.18
889.13	227.22
889.43	227.28
889.74	227.28
890.05	227.29
890.35	227.24
890.66	227.20
890.97	227.20
891.28	227.19
891.58	227.20
891.89	227.21
892.20	227.20
892.50	227.18
892.81	227.19
893.12	227.15
893.42	227.10
893.73	227.09
894.04	227.08
894.34	227.10
894.65	227.09
894.95	227.08
895.26	227.09
895.57	227.12
895.87	227.00
896.18	227.01
896.48	227.03
896.79	227.05
897.10	227.08
897.40	227.08
897.71	227.08
898.01	227.07
898.32	227.09
898.63	227.09
898.93	227.09
899.24	227.09
899.54	227.10
899.85	227.07
900.15	227.09
900.46	227.09
900.76	227.09
901.07	227.10
901.38	227.10
901.68	227.10
901.99	227.05
902.29	227.06
902.60	227.07
902.90	227.05
903.21	227.03
903.51	227.06
903.82	227.09
904.12	227.11
904.43	227.11
904.73	227.13
905.03	227.15
905.34	227.29
905.64	227.27
905.95	227.30
906.25	227.31
906.56	227.27
906.86	227.29
907.17	227.27
907.47	227.28
907.77	227.27
908.08	227.24
908.38	227.23
908.69	227.24
908.99	227.27
909.30	227.27
909.60	227.30
909.90	227.27
910.21	227.23
910.51	227.22
910.81	227.21
911.12	227.20
911.42	227.16
911.73	227.03
912.03	227.04
912.33	227.04
912.64	227.06
912.94	227.07
913.24	227.06
913.55	227.04
913.85	227.01
914.15	227.04
914.46	227.08
914.76	227.12
915.06	227.13
915.37	227.14
915.67	227.14
915.97	227.16
916.27	227.16
916.58	227.16
916.88	227.16
917.18	227.18
917.49	227.26
917.79	227.31
918.09	227.34
918.39	227.39
918.70	227.42
919.00	227.43
919.30	227.50
919.60	227.51
919.91	227.53
920.21	227.56
920.51	227.55
920.81	227.56
921.12	227.55
921.42	227.56
921.72	227.55
922.02	227.57
922.32	227.58
922.63	227.61
922.93	227.62
923.23	227.62
923.53	227.59
923.83	227.51
924.13	227.52
924.44	227.50
924.74	227.49
925.04	227.50
925.34	227.48
925.64	227.42
925.94	227.41
926.24	227.44
926.55	227.44
926.85	227.41
927.15	227.38
927.45	227.38
927.75	227.32
928.05	227.30
928.35	227.31
928.65	227.29
928.95	227.24
929.26	227.21
929.56	227.22
929.86	227.22
930.16	227.22
930.46	227.18
930.76	227.21
931.06	227.12
931.36	227.08
931.66	227.09
931.96	227.08
932.26	227.07
932.56	227.02
932.86	227.02
933.16	227.07
933.46	227.05
933.76	226.99
934.06	227.06
934.36	227.10
934.66	227.05
934.96	227.02
935.26	227.06
935.56	227.07
935.86	227.07
936.16	227.06
936.46	227.05
936.76	227.07
937.06	227.05
937.36	227.11
937.66	227.12
937.96	227.12
938.26	227.08
938.56	227.09
938.86	227.08
939.16	227.12
939.46	227.09
939.76	227.13
940.06	227.18
940.35	227.16
940.65	227.11
940.95	227.13
941.25	227.13
941.55	227.10
941.85	227.11
942.15	227.11
942.45	227.13
942.75	227.13
943.04	227.10
943.34	227.11
943.64	227.09
943.94	227.08
944.24	227.10
944.54	227.15
944.84	227.18
945.13	227.19
945.43	227.21
945.73	227.22
946.03	227.19
946.33	227.18
946.62	227.18
946.92	227.16
947.22	227.21
947.52	227.23
947.82	227.24
948.11	227.25
948.41	227.23
948.71	227.22
949.01	227.23
949.31	227.27
949.60	227.26
949.90	227.31
950.20	227.30
950.50	227.30
950.79	227.30
951.09	227.33
951.39	227.36
951.69	227.33
951.98	227.31
952.28	227.33
952.58	227.33
952.87	227.32
953.17	227.35
953.47	227.33
953.76	227.31
954.06	227.31
954.36	227.32
954.66	227.32
954.95	227.34
955.25	227.34
955.55	227.34
955.84	227.32
956.14	227.29
956.44	227.30
956.73	227.31
957.03	227.30
957.32	227.29
957.62	227.25
957.92	227.26
958.21	227.28
958.51	227.38
958.81	227.40
959.10	227.42
959.40	227.42
959.69	227.42
959.99	227.44
960.29	227.46
960.58	227.46
960.88	227.49
961.17	227.51
961.47	227.54
961.76	227.51
962.06	227.53
962.36	227.54
962.65	227.51
962.95	227.49
963.24	227.48
963.54	227.46
963.83	227.46
964.13	227.46
964.42	227.43
964.72	227.35
965.01	227.31
965.31	227.29
965.60	227.30
965.90	227.33
966.19	227.27
966.49	227.25
966.78	227.21
967.08	227.19
967.37	227.15
967.67	227.08
967.96	227.09
968.26	227.10
968.55	227.06
968.85	227.09
969.14	227.06
969.43	227.05
969.73	227.03
970.02	227.01
970.32	226.98
970.61	226.97
970.91	226.94
971.20	226.94
971.49	226.90
971.79	226.86
972.08	226.83
972.38	226.86
972.67	226.84
972.96	226.88
973.26	226.86
973.55	226.88
973.85	226.87
974.14	226.86
974.43	226.84
974.73	226.86
975.02	226.81
975.31	226.80
975.61	226.80
975.90	226.81
976.19	226.80
976.49	226.79
976.78	226.80
977.07	226.80
977.37	226.82
977.66	226.83
977.95	226.84
978.24	226.82
978.54	226.83
978.83	226.82
979.12	226.80
979.42	226.82
979.71	226.81
980.00	226.82
980.29	226.81
980.59	226.79
980.88	226.79
981.17	226.81
981.46	226.81
981.76	226.82
982.05	226.85
982.34	226.88
982.63	226.90
982.93	226.92
983.22	226.96
983.51	226.96
983.80	227.00
984.09	227.03
984.39	227.05
984.68	227.07
984.97	227.09
985.26	227.09
985.55	227.07
985.85	227.06
986.14	227.08
986.43	227.12
986.72	227.12
987.01	227.12
987.30	227.15
987.59	227.16
987.89	227.17
988.18	227.15
988.47	227.14
988.76	227.10
989.05	227.09
989.34	227.10
989.63	227.14
989.92	227.11
990.22	227.12
990.51	227.12
990.80	227.11
991.09	227.13
991.38	227.15
991.67	227.17
991.96	227.18
992.25	227.20
992.54	227.18
992.83	227.17
993.12	227.18
993.41	227.18
993.70	227.24
993.99	227.25
994.28	227.26
994.58	227.29
994.87	227.30
995.16	227.34
995.45	227.31
995.74	227.29
996.03	227.31
996.32	227.29
996.61	227.26
996.90	227.25
997.19	227.24
997.48	227.23
997.77	227.22
998.06	227.23
998.34	227.21
998.63	227.20
998.92	227.18
999.21	227.17
999.50	227.17
999.79	227.13
1000.08	227.09
1000.37	227.07
1000.66	227.03
1000.95	227.06
1001.24	227.03
1001.53	227.03
1001.82	227.00
1002.11	226.97
1002.40	226.99
1002.68	227.03
1002.97	227.11
1003.26	227.09
1003.55	227.06
1003.84	227.06
1004.13	227.04
1004.42	227.00
1004.71	227.00
1004.99	227.03
1005.28	227.03
1005.57	226.99
1005.86	226.96
1006.15	226.98
1006.44	226.95
1006.72	226.99
1007.01	226.98
1007.30	226.99
1007.59	226.96
1007.88	226.95
1008.17	226.94
1008.45	226.89
1008.74	226.85
1009.03	226.76
1009.32	226.78
1009.60	226.79
1009.89	226.78
1010.18	226.77
1010.47	226.79
1010.76	226.80
1011.04	226.79
1011.33	226.80
1011.62	226.82
1011.91	226.83
1012.19	226.85
1012.48	226.89
1012.77	226.86
1013.05	226.90
1013.34	226.87
1013.63	226.91
1013.92	226.92
1014.20	226.94
1014.49	226.95
1014.78	227.00
1015.06	226.98
1015.35	226.96
1015.64	226.99
1015.92	227.03
1016.21	227.04
1016.50	227.04
1016.78	227.06
1017.07	227.11
1017.36	227.12
1017.64	227.13
1017.93	227.16
1018.22	227.17
1018.50	227.19
1018.79	227.21
1019.08	227.15
1019.36	227.19
1019.65	227.18
1019.93	227.25
1020.22	227.26
1020.51	227.33
1020.79	227.30
1021.08	227.56
1021.36	227.43
1021.65	227.39
1021.94	226.66
1022.22	227.40
1022.51	227.29
1022.79	228.04
1023.08	227.46
1023.36	228.47
1023.65	226.96
>>>>>End Processed Spectral Data<<<<<
