SpectraSuite Data File
++++++++++++++++++++++++++++++++++++
Date: Fri Feb 01 15:07:49 EST 2013
User: group
Dark Spectrum Present: No
Reference Spectrum Present: No
Number of Sampled Component Spectra: 1
Spectrometers: USB2E7196
Integration Time (usec): 35000 (USB2E7196)
Spectra Averaged: 100 (USB2E7196)
Boxcar Smoothing: 10 (USB2E7196)
Correct for Electrical Dark: No (USB2E7196)
Strobe/Lamp Enabled: No (USB2E7196)
Correct for Detector Non-linearity: No (USB2E7196)
Correct for Stray Light: No (USB2E7196)
Number of Pixels in Processed Spectrum: 2048
>>>>>Begin Processed Spectral Data<<<<<
339.09	0.00
339.48	215.46
339.86	217.03
340.24	217.71
340.63	219.78
341.01	222.95
341.39	222.33
341.78	223.35
342.16	224.20
342.54	225.15
342.93	213.61
343.31	224.43
343.69	224.95
344.07	225.41
344.46	225.83
344.84	226.17
345.22	226.36
345.60	226.63
345.99	226.80
346.37	226.98
346.75	227.06
347.13	227.09
347.52	227.13
347.90	227.19
348.28	227.23
348.66	227.26
349.05	227.27
349.43	227.29
349.81	227.33
350.19	227.35
350.57	227.40
350.96	227.49
351.34	227.54
351.72	227.62
352.10	227.71
352.48	227.79
352.87	227.88
353.25	227.96
353.63	228.00
354.01	228.09
354.39	228.14
354.77	228.22
355.15	228.34
355.54	228.42
355.92	228.49
356.30	228.57
356.68	228.68
357.06	228.73
357.44	228.76
357.82	228.81
358.20	228.88
358.58	228.95
358.97	228.97
359.35	229.02
359.73	229.09
360.11	229.13
360.49	229.18
360.87	229.18
361.25	229.21
361.63	229.27
362.01	229.28
362.39	229.32
362.77	229.35
363.15	229.34
363.53	229.37
363.91	229.37
364.29	229.35
364.67	229.26
365.05	229.26
365.43	229.29
365.81	229.30
366.19	229.34
366.57	229.35
366.95	229.36
367.33	229.33
367.71	229.29
368.09	229.27
368.47	229.25
368.85	229.23
369.23	229.23
369.61	229.16
369.99	229.15
370.37	229.10
370.75	229.12
371.13	229.08
371.51	229.01
371.89	228.97
372.27	228.95
372.65	228.94
373.03	228.87
373.41	228.76
373.78	228.69
374.16	228.58
374.54	228.49
374.92	228.41
375.30	228.37
375.68	228.30
376.06	228.26
376.44	228.18
376.82	228.11
377.19	228.03
377.57	227.93
377.95	227.82
378.33	227.73
378.71	227.58
379.09	227.52
379.47	227.45
379.84	227.37
380.22	227.29
380.60	227.15
380.98	227.10
381.36	227.07
381.73	226.99
382.11	226.94
382.49	226.87
382.87	226.79
383.25	226.71
383.62	226.75
384.00	226.66
384.38	226.62
384.76	226.61
385.13	226.60
385.51	226.59
385.89	226.55
386.27	226.52
386.64	226.48
387.02	226.44
387.40	226.40
387.78	226.33
388.15	226.31
388.53	226.33
388.91	226.28
389.29	226.24
389.66	226.22
390.04	226.19
390.42	226.22
390.79	226.21
391.17	226.22
391.55	226.13
391.92	226.14
392.30	226.15
392.68	226.14
393.05	226.18
393.43	226.18
393.81	226.18
394.18	226.22
394.56	226.27
394.94	226.31
395.31	226.36
395.69	226.46
396.06	226.51
396.44	226.55
396.82	226.60
397.19	226.70
397.57	226.76
397.95	226.84
398.32	226.86
398.70	226.95
399.07	227.00
399.45	227.06
399.82	227.16
400.20	227.24
400.58	227.32
400.95	227.33
401.33	227.44
401.70	227.63
402.08	227.73
402.45	227.87
402.83	228.01
403.20	228.12
403.58	228.23
403.95	228.36
404.33	228.51
404.71	228.66
405.08	228.83
405.46	228.97
405.83	229.12
406.21	229.32
406.58	229.48
406.96	229.66
407.33	229.86
407.70	230.09
408.08	230.37
408.45	230.62
408.83	230.90
409.20	231.11
409.58	231.29
409.95	231.57
410.33	231.81
410.70	232.05
411.08	232.35
411.45	232.65
411.82	232.98
412.20	233.31
412.57	233.70
412.95	234.02
413.32	234.49
413.69	234.90
414.07	235.32
414.44	235.80
414.82	236.31
415.19	236.86
415.56	237.39
415.94	237.92
416.31	238.52
416.68	239.12
417.06	239.84
417.43	240.53
417.81	241.30
418.18	242.06
418.55	242.91
418.93	243.77
419.30	244.67
419.67	245.61
420.04	246.57
420.42	247.59
420.79	248.76
421.16	249.86
421.54	251.04
421.91	252.27
422.28	253.49
422.66	254.80
423.03	256.08
423.40	257.34
423.77	258.74
424.15	260.17
424.52	261.65
424.89	263.26
425.26	264.82
425.64	266.28
426.01	267.87
426.38	269.52
426.75	271.19
427.13	272.93
427.50	274.73
427.87	276.64
428.24	278.48
428.61	280.25
428.99	282.17
429.36	284.31
429.73	286.39
430.10	288.42
430.47	290.50
430.85	292.66
431.22	294.95
431.59	297.35
431.96	299.59
432.33	302.05
432.70	304.43
433.08	307.23
433.45	309.86
433.82	312.47
434.19	315.39
434.56	318.20
434.93	320.85
435.30	323.50
435.68	326.35
436.05	329.22
436.42	332.01
436.79	334.53
437.16	337.19
437.53	340.02
437.90	342.85
438.27	345.60
438.64	348.41
439.01	351.01
439.38	353.27
439.75	355.46
440.13	357.96
440.50	360.30
440.87	362.13
441.24	364.09
441.61	366.28
441.98	367.77
442.35	369.60
442.72	371.44
443.09	373.23
443.46	374.24
443.83	374.79
444.20	375.30
444.57	376.24
444.94	376.53
445.31	376.88
445.68	377.26
446.05	377.33
446.42	376.97
446.79	376.53
447.16	376.10
447.53	375.76
447.90	374.62
448.27	373.50
448.64	371.92
449.01	370.78
449.37	368.81
449.74	366.88
450.11	364.62
450.48	362.15
450.85	359.66
451.22	357.51
451.59	355.48
451.96	353.50
452.33	350.83
452.70	348.47
453.07	345.61
453.43	342.69
453.80	339.91
454.17	337.24
454.54	334.75
454.91	332.00
455.28	329.32
455.65	326.83
456.02	324.35
456.38	322.21
456.75	319.53
457.12	317.29
457.49	315.07
457.86	312.87
458.23	311.06
458.59	308.99
458.96	306.94
459.33	305.11
459.70	303.26
460.07	301.73
460.43	300.00
460.80	298.39
461.17	296.91
461.54	295.42
461.91	293.95
462.27	292.45
462.64	291.19
463.01	289.85
463.38	288.56
463.74	287.16
464.11	285.99
464.48	284.94
464.85	283.76
465.21	282.87
465.58	281.97
465.95	280.82
466.32	279.90
466.68	278.92
467.05	277.97
467.42	277.05
467.78	276.10
468.15	275.20
468.52	274.50
468.88	273.66
469.25	272.87
469.62	272.22
469.98	271.55
470.35	270.90
470.72	270.25
471.08	269.56
471.45	269.03
471.82	268.44
472.18	267.84
472.55	267.39
472.92	266.90
473.28	266.41
473.65	265.97
474.02	265.49
474.38	265.14
474.75	264.84
475.11	264.51
475.48	264.25
475.85	264.03
476.21	263.78
476.58	263.57
476.94	263.39
477.31	263.22
477.67	263.09
478.04	262.98
478.41	262.97
478.77	262.98
479.14	262.91
479.50	262.92
479.87	263.03
480.23	263.11
480.60	263.16
480.96	263.27
481.33	263.45
481.69	263.64
482.06	263.81
482.42	264.01
482.79	264.27
483.15	264.58
483.52	264.96
483.88	265.31
484.25	265.70
484.61	266.13
484.98	266.57
485.34	267.08
485.71	267.62
486.07	268.19
486.44	268.74
486.80	269.43
487.17	270.16
487.53	270.93
487.90	271.78
488.26	272.68
488.62	273.64
488.99	274.61
489.35	275.69
489.72	276.85
490.08	278.03
490.44	279.25
490.81	280.57
491.17	281.87
491.54	283.39
491.90	284.91
492.26	286.55
492.63	288.31
492.99	290.13
493.36	292.03
493.72	294.06
494.08	296.17
494.45	298.42
494.81	300.74
495.17	303.18
495.54	305.74
495.90	308.40
496.26	311.21
496.63	314.18
496.99	317.26
497.35	320.48
497.72	323.87
498.08	327.35
498.44	331.01
498.80	334.95
499.17	338.96
499.53	343.08
499.89	347.44
500.26	351.89
500.62	356.52
500.98	361.49
501.34	366.58
501.71	371.90
502.07	377.29
502.43	382.89
502.79	388.65
503.16	394.71
503.52	401.00
503.88	407.37
504.24	414.00
504.60	420.81
504.97	427.93
505.33	435.24
505.69	442.95
506.05	450.65
506.41	458.52
506.78	466.64
507.14	475.13
507.50	483.87
507.86	492.87
508.22	502.02
508.59	511.16
508.95	520.72
509.31	530.49
509.67	540.59
510.03	550.96
510.39	561.54
510.75	572.34
511.12	583.26
511.48	594.52
511.84	605.95
512.20	617.52
512.56	629.56
512.92	641.72
513.28	653.94
513.64	666.53
514.00	679.27
514.37	692.16
514.73	705.23
515.09	718.24
515.45	731.56
515.81	745.16
516.17	759.17
516.53	773.23
516.89	787.39
517.25	801.52
517.61	816.00
517.97	830.46
518.33	844.86
518.69	859.71
519.05	874.77
519.41	890.00
519.77	905.59
520.13	921.01
520.49	936.43
520.85	951.99
521.21	967.71
521.57	983.97
521.93	999.97
522.29	1016.39
522.65	1032.70
523.01	1049.02
523.37	1065.12
523.73	1081.36
524.09	1097.65
524.45	1114.13
524.81	1131.00
525.17	1147.85
525.53	1164.79
525.89	1181.76
526.25	1198.65
526.61	1215.10
526.97	1231.87
527.33	1248.36
527.68	1265.07
528.04	1281.63
528.40	1298.43
528.76	1315.62
529.12	1332.34
529.48	1349.11
529.84	1365.20
530.20	1382.00
530.56	1399.05
530.91	1416.48
531.27	1433.35
531.63	1449.79
531.99	1466.40
532.35	1482.32
532.71	1498.20
533.07	1514.54
533.42	1530.44
533.78	1546.36
534.14	1562.67
534.50	1577.99
534.86	1593.92
535.21	1609.05
535.57	1625.15
535.93	1640.66
536.29	1655.49
536.65	1670.64
537.00	1685.62
537.36	1701.12
537.72	1715.63
538.08	1730.11
538.44	1744.05
538.79	1757.96
539.15	1771.87
539.51	1785.73
539.87	1800.13
540.22	1813.92
540.58	1827.77
540.94	1841.33
541.29	1854.49
541.65	1867.30
542.01	1880.61
542.37	1893.07
542.72	1905.60
543.08	1917.31
543.44	1929.82
543.79	1941.03
544.15	1952.04
544.51	1963.54
544.87	1974.57
545.22	1985.38
545.58	1995.53
545.94	2005.35
546.29	2015.23
546.65	2025.00
547.01	2034.23
547.36	2043.07
547.72	2051.54
548.07	2059.50
548.43	2067.71
548.79	2075.80
549.14	2083.39
549.50	2090.84
549.86	2098.45
550.21	2105.74
550.57	2113.00
550.92	2119.41
551.28	2126.60
551.64	2133.63
551.99	2140.27
552.35	2146.38
552.70	2152.47
553.06	2158.47
553.41	2164.75
553.77	2170.87
554.13	2176.93
554.48	2183.04
554.84	2188.32
555.19	2193.67
555.55	2198.65
555.90	2203.13
556.26	2207.92
556.61	2212.70
556.97	2216.93
557.32	2221.21
557.68	2225.26
558.03	2229.50
558.39	2233.39
558.74	2237.92
559.10	2241.82
559.45	2245.51
559.81	2249.79
560.16	2253.54
560.52	2256.75
560.87	2260.23
561.23	2262.68
561.58	2265.70
561.94	2268.22
562.29	2270.74
562.64	2273.44
563.00	2276.12
563.35	2279.62
563.71	2282.75
564.06	2285.88
564.42	2288.65
564.77	2290.94
565.12	2293.20
565.48	2294.95
565.83	2296.50
566.19	2297.64
566.54	2298.53
566.89	2299.47
567.25	2299.80
567.60	2301.16
567.96	2302.70
568.31	2303.47
568.66	2304.53
569.02	2304.79
569.37	2305.01
569.72	2305.59
570.08	2305.60
570.43	2305.43
570.78	2304.49
571.14	2302.65
571.49	2301.12
571.84	2300.67
572.20	2299.32
572.55	2298.25
572.90	2296.71
573.26	2295.33
573.61	2293.61
573.96	2291.61
574.31	2288.42
574.67	2285.45
575.02	2281.76
575.37	2278.31
575.72	2274.20
576.08	2270.84
576.43	2267.52
576.78	2263.72
577.13	2260.49
577.49	2257.33
577.84	2253.87
578.19	2250.14
578.54	2246.45
578.90	2242.04
579.25	2236.46
579.60	2231.35
579.95	2226.27
580.30	2221.09
580.66	2215.73
581.01	2210.71
581.36	2205.62
581.71	2201.21
582.06	2196.51
582.42	2191.87
582.77	2186.55
583.12	2181.94
583.47	2177.03
583.82	2171.87
584.17	2166.45
584.53	2160.90
584.88	2155.01
585.23	2149.03
585.58	2143.46
585.93	2137.85
586.28	2133.05
586.63	2127.80
586.98	2122.73
587.34	2117.87
587.69	2112.85
588.04	2107.58
588.39	2101.72
588.74	2095.28
589.09	2089.23
589.44	2082.43
589.79	2076.41
590.14	2070.76
590.49	2064.06
590.84	2057.65
591.19	2051.46
591.54	2045.06
591.89	2037.48
592.25	2030.58
592.60	2023.23
592.95	2015.38
593.30	2008.12
593.65	2000.43
594.00	1993.32
594.35	1986.14
594.70	1978.03
595.05	1970.65
595.40	1963.27
595.75	1955.64
596.10	1949.03
596.45	1942.08
596.80	1935.76
597.15	1928.94
597.50	1921.66
597.85	1915.20
598.19	1908.29
598.54	1901.18
598.89	1894.44
599.24	1888.51
599.59	1881.73
599.94	1875.50
600.29	1869.26
600.64	1862.61
600.99	1854.96
601.34	1847.99
601.69	1840.93
602.04	1833.83
602.39	1826.46
602.74	1819.55
603.08	1812.96
603.43	1806.36
603.78	1799.17
604.13	1791.90
604.48	1784.64
604.83	1777.75
605.18	1770.65
605.53	1762.77
605.87	1754.80
606.22	1747.59
606.57	1739.73
606.92	1732.57
607.27	1725.29
607.62	1718.23
607.96	1710.90
608.31	1704.30
608.66	1696.70
609.01	1689.14
609.36	1681.76
609.70	1673.72
610.05	1665.62
610.40	1657.83
610.75	1649.67
611.10	1641.95
611.44	1633.75
611.79	1625.77
612.14	1617.17
612.49	1608.23
612.83	1599.96
613.18	1591.84
613.53	1583.67
613.88	1575.17
614.22	1566.86
614.57	1558.38
614.92	1550.55
615.27	1542.89
615.61	1534.68
615.96	1526.73
616.31	1519.18
616.65	1511.78
617.00	1504.24
617.35	1496.57
617.70	1488.17
618.04	1479.57
618.39	1471.35
618.74	1463.77
619.08	1455.44
619.43	1447.86
619.78	1440.85
620.12	1433.60
620.47	1426.10
620.82	1418.01
621.16	1410.69
621.51	1403.14
621.85	1395.51
622.20	1386.93
622.55	1378.68
622.89	1370.91
623.24	1363.42
623.59	1356.00
623.93	1348.55
624.28	1341.39
624.62	1333.95
624.97	1326.85
625.32	1320.29
625.66	1313.23
626.01	1305.97
626.35	1298.59
626.70	1290.95
627.04	1283.30
627.39	1275.62
627.73	1268.24
628.08	1261.29
628.43	1253.79
628.77	1246.36
629.12	1238.92
629.46	1231.78
629.81	1224.46
630.15	1217.20
630.50	1209.77
630.84	1201.59
631.19	1193.62
631.53	1186.20
631.88	1178.69
632.22	1171.14
632.57	1163.71
632.91	1156.35
633.26	1148.91
633.60	1141.52
633.95	1134.49
634.29	1127.52
634.64	1120.86
634.98	1113.40
635.32	1106.37
635.67	1099.92
636.01	1093.30
636.36	1086.42
636.70	1080.01
637.05	1073.45
637.39	1067.00
637.73	1060.51
638.08	1054.69
638.42	1048.73
638.77	1042.20
639.11	1035.55
639.45	1029.14
639.80	1022.58
640.14	1016.10
640.49	1009.61
640.83	1003.38
641.17	997.00
641.52	990.60
641.86	984.21
642.20	978.46
642.55	972.18
642.89	965.66
643.23	959.18
643.58	953.47
643.92	947.12
644.26	940.98
644.61	935.08
644.95	929.02
645.29	922.41
645.64	915.71
645.98	909.52
646.32	903.86
646.66	897.89
647.01	892.09
647.35	886.38
647.69	880.61
648.04	875.11
648.38	869.50
648.72	863.59
649.06	857.50
649.41	851.66
649.75	845.71
650.09	839.79
650.43	833.95
650.78	827.85
651.12	822.05
651.46	816.36
651.80	810.54
652.14	805.24
652.49	799.88
652.83	794.65
653.17	789.02
653.51	783.31
653.85	777.94
654.20	772.36
654.54	766.40
654.88	760.70
655.22	754.84
655.56	749.13
655.90	743.70
656.25	738.42
656.59	733.07
656.93	727.96
657.27	722.84
657.61	717.44
657.95	712.31
658.29	707.24
658.64	702.06
658.98	696.85
659.32	691.35
659.66	686.16
660.00	680.98
660.34	676.05
660.68	671.11
661.02	666.09
661.36	661.38
661.70	656.95
662.05	652.56
662.39	648.20
662.73	643.80
663.07	639.44
663.41	635.03
663.75	630.51
664.09	625.97
664.43	621.64
664.77	617.58
665.11	613.32
665.45	609.26
665.79	605.18
666.13	601.02
666.47	596.97
666.81	592.85
667.15	588.77
667.49	584.89
667.83	581.09
668.17	577.17
668.51	573.12
668.85	569.05
669.19	565.23
669.53	561.44
669.87	557.58
670.21	553.81
670.55	550.26
670.89	546.91
671.23	543.49
671.57	539.93
671.91	536.39
672.25	532.92
672.58	529.35
672.92	526.03
673.26	522.94
673.60	519.84
673.94	516.73
674.28	513.80
674.62	510.81
674.96	507.70
675.30	504.77
675.64	501.85
675.97	499.16
676.31	496.28
676.65	493.35
676.99	490.59
677.33	487.83
677.67	484.99
678.01	481.94
678.34	478.98
678.68	476.11
679.02	473.27
679.36	470.54
679.70	467.85
680.04	465.04
680.37	462.12
680.71	459.29
681.05	456.68
681.39	453.97
681.73	451.32
682.06	448.84
682.40	446.29
682.74	443.79
683.08	441.20
683.42	438.66
683.75	436.14
684.09	433.56
684.43	431.11
684.77	428.61
685.10	426.29
685.44	424.03
685.78	421.80
686.12	419.65
686.45	417.39
686.79	415.12
687.13	412.95
687.46	410.78
687.80	408.69
688.14	406.51
688.48	404.45
688.81	402.20
689.15	400.04
689.49	397.95
689.82	395.84
690.16	393.79
690.50	391.84
690.83	389.92
691.17	388.02
691.51	386.11
691.84	384.34
692.18	382.39
692.52	380.40
692.85	378.47
693.19	376.55
693.52	374.77
693.86	372.98
694.20	371.26
694.53	369.49
694.87	367.66
695.21	365.90
695.54	364.10
695.88	362.43
696.21	360.73
696.55	359.09
696.88	357.40
697.22	355.77
697.56	354.13
697.89	352.51
698.23	350.92
698.56	349.34
698.90	347.72
699.23	346.11
699.57	344.58
699.90	343.04
700.24	341.52
700.58	340.02
700.91	338.51
701.25	337.02
701.58	335.68
701.92	334.33
702.25	332.96
702.59	331.61
702.92	330.31
703.26	329.03
703.59	327.72
703.93	326.56
704.26	325.36
704.60	324.10
704.93	322.82
705.26	321.59
705.60	320.43
705.93	319.30
706.27	318.27
706.60	317.24
706.94	316.20
707.27	315.10
707.61	314.00
707.94	312.93
708.27	311.88
708.61	310.79
708.94	309.82
709.28	308.85
709.61	307.93
709.94	306.96
710.28	305.98
710.61	305.02
710.95	303.98
711.28	303.06
711.61	302.13
711.95	301.23
712.28	300.23
712.61	299.21
712.95	298.27
713.28	297.41
713.61	296.49
713.95	295.56
714.28	294.71
714.61	293.81
714.95	292.96
715.28	292.09
715.61	291.22
715.95	290.30
716.28	289.40
716.61	288.53
716.95	287.75
717.28	286.94
717.61	286.16
717.94	285.44
718.28	284.65
718.61	283.93
718.94	283.23
719.27	282.63
719.61	282.01
719.94	281.34
720.27	280.62
720.60	279.96
720.94	279.36
721.27	278.75
721.60	278.20
721.93	277.64
722.27	277.13
722.60	276.59
722.93	276.00
723.26	275.53
723.59	274.98
723.93	274.43
724.26	273.85
724.59	273.30
724.92	272.76
725.25	272.24
725.59	271.70
725.92	271.19
726.25	270.67
726.58	270.17
726.91	269.67
727.24	269.18
727.57	268.74
727.91	268.23
728.24	267.79
728.57	267.33
728.90	266.88
729.23	266.36
729.56	265.94
729.89	265.48
730.22	264.95
730.55	264.46
730.89	264.01
731.22	263.58
731.55	263.13
731.88	262.69
732.21	262.26
732.54	261.84
732.87	261.41
733.20	260.98
733.53	260.60
733.86	260.27
734.19	259.91
734.52	259.53
734.85	259.19
735.18	258.77
735.51	258.40
735.84	258.00
736.17	257.69
736.50	257.29
736.83	257.10
737.16	256.78
737.49	256.49
737.82	256.12
738.15	255.83
738.48	255.53
738.81	255.23
739.14	254.91
739.47	254.61
739.80	254.31
740.13	254.04
740.46	253.71
740.79	253.38
741.12	253.05
741.45	252.75
741.78	252.45
742.11	252.21
742.44	251.89
742.77	251.65
743.10	251.36
743.43	251.06
743.75	250.66
744.08	250.53
744.41	250.23
744.74	250.00
745.07	249.73
745.40	249.49
745.73	249.24
746.06	248.97
746.39	248.71
746.71	248.46
747.04	248.21
747.37	247.98
747.70	247.74
748.03	247.52
748.36	247.29
748.68	247.06
749.01	246.79
749.34	246.59
749.67	246.32
750.00	246.10
750.33	245.97
750.65	245.76
750.98	245.43
751.31	245.25
751.64	245.04
751.97	244.87
752.29	244.65
752.62	244.38
752.95	244.17
753.28	243.94
753.60	243.73
753.93	243.55
754.26	243.32
754.59	243.06
754.91	242.83
755.24	242.60
755.57	242.37
755.90	242.16
756.22	241.95
756.55	241.77
756.88	241.52
757.20	241.28
757.53	241.10
757.86	240.90
758.19	240.73
758.51	240.55
758.84	240.31
759.17	240.12
759.49	239.99
759.82	239.88
760.15	239.74
760.47	239.58
760.80	239.37
761.13	239.25
761.45	239.11
761.78	238.96
762.11	238.85
762.43	238.72
762.76	238.58
763.08	238.45
763.41	238.32
763.74	238.20
764.06	238.04
764.39	237.87
764.71	237.73
765.04	237.57
765.37	237.41
765.69	237.30
766.02	237.19
766.34	237.06
766.67	236.87
767.00	236.77
767.32	236.74
767.65	236.68
767.97	236.54
768.30	236.44
768.62	236.32
768.95	236.19
769.27	236.07
769.60	235.98
769.92	235.86
770.25	235.74
770.57	235.61
770.90	235.51
771.22	235.41
771.55	235.33
771.87	235.24
772.20	235.15
772.52	235.14
772.85	235.17
773.17	235.12
773.50	235.04
773.82	234.94
774.15	234.76
774.47	234.61
774.80	234.52
775.12	234.42
775.45	234.32
775.77	234.25
776.09	234.15
776.42	234.08
776.74	234.02
777.07	233.97
777.39	233.91
777.72	233.81
778.04	233.76
778.36	233.66
778.69	233.61
779.01	233.54
779.33	233.40
779.66	233.18
779.98	233.06
780.31	233.02
780.63	232.96
780.95	232.97
781.28	232.94
781.60	232.93
781.92	232.88
782.25	232.86
782.57	232.81
782.89	232.83
783.22	232.79
783.54	232.72
783.86	232.63
784.19	232.62
784.51	232.64
784.83	232.58
785.16	232.53
785.48	232.48
785.80	232.43
786.12	232.37
786.45	232.35
786.77	232.32
787.09	232.27
787.42	232.23
787.74	232.19
788.06	232.15
788.38	232.08
788.71	232.03
789.03	231.97
789.35	231.96
789.67	231.87
789.99	231.82
790.32	231.79
790.64	231.79
790.96	231.79
791.28	231.69
791.61	231.63
791.93	231.62
792.25	231.58
792.57	231.60
792.89	231.56
793.21	231.52
793.54	231.48
793.86	231.39
794.18	231.34
794.50	231.21
794.82	231.16
795.14	231.14
795.47	231.13
795.79	231.10
796.11	230.99
796.43	230.97
796.75	230.93
797.07	230.84
797.39	230.78
797.71	230.69
798.04	230.66
798.36	230.66
798.68	230.57
799.00	230.54
799.32	230.48
799.64	230.45
799.96	230.42
800.28	230.42
800.60	230.40
800.92	230.37
801.24	230.34
801.56	230.30
801.89	230.25
802.21	230.23
802.53	230.16
802.85	230.15
803.17	230.15
803.49	230.07
803.81	230.08
804.13	230.04
804.45	230.00
804.77	229.97
805.09	229.95
805.41	229.96
805.73	229.91
806.05	229.87
806.37	229.86
806.69	229.79
807.01	229.69
807.33	229.69
807.65	229.64
807.97	229.65
808.28	229.64
808.60	229.62
808.92	229.54
809.24	229.57
809.56	229.53
809.88	229.47
810.20	229.46
810.52	229.46
810.84	229.42
811.16	229.38
811.48	229.34
811.80	229.33
812.12	229.27
812.43	229.28
812.75	229.23
813.07	229.19
813.39	229.17
813.71	229.18
814.03	229.16
814.35	229.16
814.67	229.12
814.98	229.08
815.30	229.05
815.62	229.04
815.94	228.97
816.26	229.00
816.58	228.96
816.89	228.95
817.21	228.90
817.53	228.89
817.85	228.91
818.17	228.88
818.48	228.86
818.80	228.87
819.12	228.82
819.44	228.82
819.76	228.78
820.07	228.78
820.39	228.75
820.71	228.73
821.03	228.70
821.34	228.70
821.66	228.71
821.98	228.73
822.30	228.73
822.61	228.79
822.93	228.76
823.25	228.75
823.57	228.73
823.88	228.79
824.20	228.79
824.52	228.77
824.83	228.78
825.15	228.75
825.47	228.74
825.79	228.73
826.10	228.72
826.42	228.75
826.74	228.77
827.05	228.74
827.37	228.74
827.69	228.75
828.00	228.74
828.32	228.75
828.64	228.75
828.95	228.76
829.27	228.71
829.58	228.69
829.90	228.69
830.22	228.71
830.53	228.66
830.85	228.65
831.17	228.61
831.48	228.61
831.80	228.59
832.11	228.59
832.43	228.52
832.75	228.50
833.06	228.50
833.38	228.44
833.69	228.44
834.01	228.45
834.32	228.45
834.64	228.42
834.96	228.38
835.27	228.36
835.59	228.32
835.90	228.28
836.22	228.28
836.53	228.25
836.85	228.22
837.16	228.30
837.48	228.30
837.79	228.33
838.11	228.28
838.42	228.31
838.74	228.30
839.05	228.31
839.37	228.28
839.68	228.22
840.00	228.26
840.31	228.26
840.63	228.24
840.94	228.19
841.26	228.16
841.57	228.13
841.88	228.13
842.20	228.11
842.51	228.10
842.83	228.09
843.14	228.15
843.46	228.16
843.77	228.06
844.08	228.04
844.40	228.02
844.71	228.02
845.03	227.97
845.34	227.98
845.65	227.98
845.97	228.02
846.28	228.03
846.60	228.01
846.91	227.99
847.22	227.95
847.54	227.96
847.85	227.93
848.16	227.95
848.48	227.90
848.79	227.96
849.10	227.98
849.42	227.97
849.73	227.87
850.04	227.85
850.36	227.84
850.67	227.82
850.98	227.80
851.30	227.81
851.61	227.81
851.92	227.79
852.23	227.80
852.55	227.79
852.86	227.79
853.17	227.80
853.49	227.83
853.80	227.88
854.11	227.88
854.42	227.90
854.74	227.88
855.05	227.88
855.36	227.81
855.67	227.78
855.99	227.76
856.30	227.88
856.61	227.86
856.92	227.83
857.23	227.83
857.55	227.81
857.86	227.81
858.17	227.82
858.48	227.81
858.79	227.79
859.11	227.83
859.42	227.81
859.73	227.78
860.04	227.75
860.35	227.70
860.66	227.67
860.98	227.68
861.29	227.68
861.60	227.66
861.91	227.65
862.22	227.65
862.53	227.64
862.84	227.55
863.16	227.58
863.47	227.58
863.78	227.57
864.09	227.57
864.40	227.59
864.71	227.58
865.02	227.59
865.33	227.55
865.64	227.52
865.95	227.54
866.27	227.63
866.58	227.61
866.89	227.64
867.20	227.64
867.51	227.59
867.82	227.56
868.13	227.61
868.44	227.61
868.75	227.64
869.06	227.66
869.37	227.66
869.68	227.65
869.99	227.66
870.30	227.66
870.61	227.68
870.92	227.62
871.23	227.59
871.54	227.60
871.85	227.62
872.16	227.60
872.47	227.58
872.78	227.51
873.09	227.49
873.40	227.47
873.71	227.47
874.02	227.52
874.33	227.53
874.64	227.50
874.95	227.51
875.26	227.47
875.56	227.45
875.87	227.44
876.18	227.42
876.49	227.52
876.80	227.49
877.11	227.46
877.42	227.47
877.73	227.45
878.04	227.42
878.35	227.42
878.66	227.43
878.96	227.42
879.27	227.39
879.58	227.41
879.89	227.37
880.20	227.39
880.51	227.38
880.82	227.38
881.12	227.37
881.43	227.32
881.74	227.31
882.05	227.35
882.36	227.31
882.67	227.31
882.97	227.20
883.28	227.23
883.59	227.23
883.90	227.22
884.21	227.27
884.51	227.31
884.82	227.28
885.13	227.26
885.44	227.26
885.74	227.27
886.05	227.25
886.36	227.26
886.67	227.22
886.98	227.23
887.28	227.23
887.59	227.27
887.90	227.29
888.20	227.31
888.51	227.27
888.82	227.29
889.13	227.29
889.43	227.39
889.74	227.36
890.05	227.38
890.35	227.40
890.66	227.39
890.97	227.35
891.28	227.36
891.58	227.38
891.89	227.37
892.20	227.40
892.50	227.41
892.81	227.43
893.12	227.41
893.42	227.40
893.73	227.43
894.04	227.41
894.34	227.44
894.65	227.42
894.95	227.42
895.26	227.41
895.57	227.43
895.87	227.33
896.18	227.34
896.48	227.32
896.79	227.31
897.10	227.33
897.40	227.35
897.71	227.37
898.01	227.36
898.32	227.38
898.63	227.33
898.93	227.32
899.24	227.32
899.54	227.34
899.85	227.32
900.15	227.30
900.46	227.31
900.76	227.31
901.07	227.29
901.38	227.27
901.68	227.31
901.99	227.28
902.29	227.30
902.60	227.29
902.90	227.29
903.21	227.28
903.51	227.29
903.82	227.30
904.12	227.30
904.43	227.28
904.73	227.28
905.03	227.30
905.34	227.41
905.64	227.42
905.95	227.42
906.25	227.44
906.56	227.45
906.86	227.41
907.17	227.39
907.47	227.41
907.77	227.41
908.08	227.39
908.38	227.40
908.69	227.38
908.99	227.39
909.30	227.40
909.60	227.38
909.90	227.35
910.21	227.29
910.51	227.26
910.81	227.30
911.12	227.30
911.42	227.31
911.73	227.19
912.03	227.20
912.33	227.24
912.64	227.21
912.94	227.18
913.24	227.18
913.55	227.17
913.85	227.17
914.15	227.19
914.46	227.17
914.76	227.14
915.06	227.11
915.37	227.12
915.67	227.11
915.97	227.08
916.27	227.05
916.58	227.07
916.88	227.09
917.18	227.05
917.49	227.10
917.79	227.08
918.09	227.08
918.39	227.07
918.70	227.06
919.00	227.07
919.30	227.12
919.60	227.12
919.91	227.14
920.21	227.14
920.51	227.10
920.81	227.10
921.12	227.12
921.42	227.13
921.72	227.14
922.02	227.15
922.32	227.20
922.63	227.24
922.93	227.28
923.23	227.29
923.53	227.29
923.83	227.22
924.13	227.23
924.44	227.25
924.74	227.25
925.04	227.26
925.34	227.26
925.64	227.21
925.94	227.24
926.24	227.25
926.55	227.22
926.85	227.26
927.15	227.29
927.45	227.31
927.75	227.32
928.05	227.31
928.35	227.29
928.65	227.29
928.95	227.27
929.26	227.23
929.56	227.25
929.86	227.28
930.16	227.27
930.46	227.29
930.76	227.30
931.06	227.30
931.36	227.28
931.66	227.30
931.96	227.32
932.26	227.29
932.56	227.32
932.86	227.35
933.16	227.32
933.46	227.30
933.76	227.26
934.06	227.31
934.36	227.35
934.66	227.34
934.96	227.32
935.26	227.34
935.56	227.36
935.86	227.34
936.16	227.29
936.46	227.31
936.76	227.31
937.06	227.29
937.36	227.26
937.66	227.28
937.96	227.25
938.26	227.23
938.56	227.21
938.86	227.18
939.16	227.22
939.46	227.22
939.76	227.21
940.06	227.22
940.35	227.18
940.65	227.12
940.95	227.15
941.25	227.14
941.55	227.12
941.85	227.09
942.15	227.11
942.45	227.13
942.75	227.12
943.04	227.10
943.34	227.11
943.64	227.09
943.94	227.06
944.24	227.08
944.54	227.10
944.84	227.08
945.13	227.06
945.43	227.01
945.73	227.04
946.03	227.05
946.33	227.03
946.62	227.00
946.92	226.97
947.22	226.93
947.52	226.95
947.82	226.98
948.11	226.97
948.41	226.92
948.71	226.92
949.01	226.91
949.31	226.91
949.60	226.87
949.90	226.89
950.20	226.86
950.50	226.84
950.79	226.82
951.09	226.85
951.39	226.86
951.69	226.86
951.98	226.85
952.28	226.86
952.58	226.84
952.87	226.85
953.17	226.88
953.47	226.87
953.76	226.84
954.06	226.79
954.36	226.80
954.66	226.82
954.95	226.86
955.25	226.85
955.55	226.87
955.84	226.85
956.14	226.88
956.44	226.90
956.73	226.88
957.03	226.87
957.32	226.89
957.62	226.85
957.92	226.86
958.21	226.86
958.51	226.97
958.81	227.00
959.10	227.02
959.40	227.07
959.69	227.09
959.99	227.11
960.29	227.14
960.58	227.15
960.88	227.18
961.17	227.17
961.47	227.19
961.76	227.17
962.06	227.21
962.36	227.18
962.65	227.18
962.95	227.20
963.24	227.20
963.54	227.17
963.83	227.20
964.13	227.19
964.42	227.16
964.72	227.10
965.01	227.10
965.31	227.10
965.60	227.05
965.90	227.14
966.19	227.10
966.49	227.10
966.78	227.08
967.08	227.07
967.37	227.05
967.67	227.05
967.96	227.05
968.26	227.06
968.55	227.10
968.85	227.12
969.14	227.14
969.43	227.14
969.73	227.14
970.02	227.15
970.32	227.17
970.61	227.16
970.91	227.10
971.20	227.07
971.49	227.06
971.79	227.09
972.08	227.00
972.38	227.03
972.67	227.01
972.96	227.00
973.26	226.99
973.55	227.02
973.85	227.03
974.14	227.00
974.43	227.01
974.73	226.97
975.02	226.95
975.31	226.98
975.61	226.98
975.90	227.00
976.19	227.01
976.49	227.00
976.78	227.03
977.07	227.06
977.37	227.09
977.66	227.13
977.95	227.07
978.24	227.08
978.54	227.13
978.83	227.12
979.12	227.15
979.42	227.18
979.71	227.18
980.00	227.18
980.29	227.22
980.59	227.22
980.88	227.26
981.17	227.29
981.46	227.28
981.76	227.28
982.05	227.29
982.34	227.27
982.63	227.24
982.93	227.25
983.22	227.22
983.51	227.26
983.80	227.24
984.09	227.28
984.39	227.27
984.68	227.24
984.97	227.24
985.26	227.22
985.55	227.20
985.85	227.15
986.14	227.14
986.43	227.15
986.72	227.14
987.01	227.10
987.30	227.03
987.59	227.05
987.89	227.07
988.18	227.07
988.47	227.09
988.76	227.11
989.05	227.12
989.34	227.13
989.63	227.14
989.92	227.15
990.22	227.11
990.51	227.11
990.80	227.12
991.09	227.14
991.38	227.16
991.67	227.17
991.96	227.20
992.25	227.18
992.54	227.14
992.83	227.15
993.12	227.15
993.41	227.18
993.70	227.23
993.99	227.25
994.28	227.22
994.58	227.22
994.87	227.22
995.16	227.22
995.45	227.22
995.74	227.19
996.03	227.19
996.32	227.22
996.61	227.25
996.90	227.23
997.19	227.22
997.48	227.21
997.77	227.19
998.06	227.16
998.34	227.17
998.63	227.20
998.92	227.19
999.21	227.21
999.50	227.22
999.79	227.17
1000.08	227.13
1000.37	227.15
1000.66	227.12
1000.95	227.11
1001.24	227.08
1001.53	227.09
1001.82	227.06
1002.11	226.99
1002.40	227.00
1002.68	227.02
1002.97	227.07
1003.26	227.04
1003.55	227.03
1003.84	227.03
1004.13	227.07
1004.42	227.10
1004.71	227.07
1004.99	227.04
1005.28	227.05
1005.57	227.02
1005.86	227.00
1006.15	226.98
1006.44	226.97
1006.72	226.98
1007.01	226.99
1007.30	226.99
1007.59	226.96
1007.88	226.99
1008.17	227.01
1008.45	226.99
1008.74	226.94
1009.03	226.89
1009.32	226.90
1009.60	226.91
1009.89	226.90
1010.18	226.86
1010.47	226.79
1010.76	226.80
1011.04	226.81
1011.33	226.83
1011.62	226.84
1011.91	226.87
1012.19	226.87
1012.48	226.86
1012.77	226.80
1013.05	226.86
1013.34	226.84
1013.63	226.83
1013.92	226.82
1014.20	226.84
1014.49	226.85
1014.78	226.85
1015.06	226.82
1015.35	226.82
1015.64	226.83
1015.92	226.84
1016.21	226.84
1016.50	226.86
1016.78	226.86
1017.07	226.86
1017.36	226.82
1017.64	226.81
1017.93	226.79
1018.22	226.80
1018.50	226.85
1018.79	226.88
1019.08	226.81
1019.36	226.83
1019.65	226.81
1019.93	226.86
1020.22	226.87
1020.51	226.94
1020.79	226.96
1021.08	226.83
1021.36	227.47
1021.65	226.56
1021.94	226.86
1022.22	226.70
1022.51	226.52
1022.79	227.86
1023.08	227.30
1023.36	228.46
1023.65	226.83
>>>>>End Processed Spectral Data<<<<<
