SpectraSuite Data File
++++++++++++++++++++++++++++++++++++
Date: Fri Feb 01 17:33:16 EST 2013
User: group
Dark Spectrum Present: No
Reference Spectrum Present: No
Number of Sampled Component Spectra: 1
Spectrometers: USB2E7196
Integration Time (usec): 35000 (USB2E7196)
Spectra Averaged: 100 (USB2E7196)
Boxcar Smoothing: 10 (USB2E7196)
Correct for Electrical Dark: No (USB2E7196)
Strobe/Lamp Enabled: No (USB2E7196)
Correct for Detector Non-linearity: No (USB2E7196)
Correct for Stray Light: No (USB2E7196)
Number of Pixels in Processed Spectrum: 2048
>>>>>Begin Processed Spectral Data<<<<<
339.09	0.00
339.48	213.43
339.86	214.94
340.24	216.41
340.63	217.44
341.01	220.14
341.39	219.84
341.78	221.32
342.16	223.14
342.54	222.56
342.93	211.58
343.31	222.26
343.69	222.77
344.07	223.23
344.46	223.63
344.84	224.01
345.22	224.25
345.60	224.51
345.99	224.70
346.37	224.80
346.75	224.94
347.13	225.02
347.52	225.07
347.90	225.12
348.28	225.15
348.66	225.25
349.05	225.24
349.43	225.32
349.81	225.36
350.19	225.41
350.57	225.50
350.96	225.56
351.34	225.63
351.72	225.73
352.10	225.79
352.48	225.86
352.87	225.91
353.25	225.96
353.63	225.99
354.01	226.05
354.39	226.12
354.77	226.17
355.15	226.26
355.54	226.29
355.92	226.33
356.30	226.40
356.68	226.51
357.06	226.55
357.44	226.56
357.82	226.62
358.20	226.69
358.58	226.70
358.97	226.78
359.35	226.85
359.73	226.93
360.11	226.96
360.49	226.98
360.87	227.02
361.25	227.09
361.63	227.19
362.01	227.22
362.39	227.25
362.77	227.31
363.15	227.35
363.53	227.39
363.91	227.41
364.29	227.43
364.67	227.33
365.05	227.36
365.43	227.41
365.81	227.40
366.19	227.44
366.57	227.47
366.95	227.45
367.33	227.42
367.71	227.39
368.09	227.45
368.47	227.47
368.85	227.45
369.23	227.44
369.61	227.41
369.99	227.46
370.37	227.44
370.75	227.43
371.13	227.39
371.51	227.33
371.89	227.30
372.27	227.27
372.65	227.23
373.03	227.21
373.41	227.13
373.78	227.09
374.16	227.01
374.54	226.92
374.92	226.87
375.30	226.85
375.68	226.78
376.06	226.69
376.44	226.64
376.82	226.61
377.19	226.54
377.57	226.47
377.95	226.37
378.33	226.32
378.71	226.21
379.09	226.14
379.47	226.10
379.84	226.05
380.22	225.96
380.60	225.93
380.98	225.82
381.36	225.78
381.73	225.75
382.11	225.71
382.49	225.69
382.87	225.65
383.25	225.58
383.62	225.66
384.00	225.61
384.38	225.55
384.76	225.51
385.13	225.47
385.51	225.42
385.89	225.34
386.27	225.28
386.64	225.21
387.02	225.18
387.40	225.11
387.78	225.07
388.15	225.06
388.53	225.02
388.91	225.04
389.29	224.98
389.66	224.93
390.04	224.87
390.42	224.84
390.79	224.81
391.17	224.81
391.55	224.65
391.92	224.64
392.30	224.64
392.68	224.58
393.05	224.62
393.43	224.64
393.81	224.68
394.18	224.67
394.56	224.69
394.94	224.73
395.31	224.77
395.69	224.83
396.06	224.86
396.44	224.86
396.82	224.89
397.19	225.00
397.57	224.99
397.95	225.07
398.32	225.07
398.70	225.09
399.07	225.15
399.45	225.21
399.82	225.28
400.20	225.32
400.58	225.39
400.95	225.36
401.33	225.44
401.70	225.53
402.08	225.63
402.45	225.75
402.83	225.84
403.20	225.92
403.58	225.98
403.95	226.06
404.33	226.19
404.71	226.27
405.08	226.43
405.46	226.57
405.83	226.72
406.21	226.90
406.58	227.06
406.96	227.20
407.33	227.40
407.70	227.57
408.08	227.84
408.45	228.07
408.83	228.35
409.20	228.55
409.58	228.72
409.95	228.95
410.33	229.19
410.70	229.42
411.08	229.75
411.45	230.05
411.82	230.38
412.20	230.73
412.57	231.19
412.95	231.47
413.32	231.87
413.69	232.27
414.07	232.70
414.44	233.18
414.82	233.68
415.19	234.22
415.56	234.78
415.94	235.33
416.31	236.00
416.68	236.63
417.06	237.37
417.43	238.07
417.81	238.91
418.18	239.78
418.55	240.67
418.93	241.53
419.30	242.46
419.67	243.43
420.04	244.45
420.42	245.44
420.79	246.69
421.16	247.92
421.54	249.17
421.91	250.45
422.28	251.79
422.66	253.15
423.03	254.51
423.40	255.95
423.77	257.44
424.15	258.93
424.52	260.51
424.89	262.20
425.26	263.86
425.64	265.38
426.01	267.01
426.38	268.76
426.75	270.51
427.13	272.33
427.50	274.22
427.87	276.17
428.24	278.11
428.61	279.95
428.99	281.97
429.36	284.15
429.73	286.30
430.10	288.42
430.47	290.61
430.85	292.83
431.22	295.13
431.59	297.62
431.96	299.95
432.33	302.51
432.70	304.99
433.08	307.89
433.45	310.60
433.82	313.34
434.19	316.35
434.56	319.30
434.93	322.08
435.30	324.82
435.68	327.83
436.05	330.83
436.42	333.72
436.79	336.36
437.16	339.17
437.53	342.19
437.90	345.14
438.27	347.99
438.64	350.96
439.01	353.68
439.38	356.04
439.75	358.29
440.13	360.93
440.50	363.39
440.87	365.29
441.24	367.33
441.61	369.61
441.98	371.17
442.35	373.10
442.72	375.06
443.09	376.97
443.46	377.99
443.83	378.57
444.20	379.15
444.57	380.04
444.94	380.35
445.31	380.70
445.68	381.02
446.05	381.17
446.42	380.77
446.79	380.35
447.16	379.86
447.53	379.54
447.90	378.35
448.27	377.12
448.64	375.56
449.01	374.43
449.37	372.35
449.74	370.35
450.11	367.96
450.48	365.36
450.85	362.73
451.22	360.54
451.59	358.48
451.96	356.42
452.33	353.72
452.70	351.29
453.07	348.32
453.43	345.32
453.80	342.38
454.17	339.56
454.54	336.88
454.91	334.03
455.28	331.25
455.65	328.61
456.02	326.08
456.38	323.82
456.75	320.99
457.12	318.66
457.49	316.37
457.86	314.12
458.23	312.21
458.59	310.03
458.96	307.85
459.33	305.86
459.70	303.93
460.07	302.35
460.43	300.50
460.80	298.78
461.17	297.29
461.54	295.75
461.91	294.27
462.27	292.76
462.64	291.47
463.01	290.05
463.38	288.70
463.74	287.25
464.11	286.04
464.48	284.99
464.85	283.82
465.21	282.92
465.58	281.94
465.95	280.74
466.32	279.83
466.68	278.92
467.05	278.00
467.42	277.06
467.78	276.07
468.15	275.19
468.52	274.53
468.88	273.63
469.25	272.81
469.62	272.17
469.98	271.49
470.35	270.84
470.72	270.21
471.08	269.55
471.45	269.00
471.82	268.40
472.18	267.77
472.55	267.28
472.92	266.72
473.28	266.28
473.65	265.81
474.02	265.39
474.38	265.01
474.75	264.68
475.11	264.32
475.48	264.08
475.85	263.86
476.21	263.61
476.58	263.40
476.94	263.25
477.31	263.07
477.67	262.92
478.04	262.79
478.41	262.72
478.77	262.76
479.14	262.68
479.50	262.69
479.87	262.79
480.23	262.87
480.60	262.96
480.96	263.03
481.33	263.25
481.69	263.45
482.06	263.61
482.42	263.84
482.79	264.09
483.15	264.41
483.52	264.78
483.88	265.13
484.25	265.52
484.61	265.96
484.98	266.41
485.34	266.95
485.71	267.54
486.07	268.18
486.44	268.76
486.80	269.49
487.17	270.23
487.53	271.05
487.90	271.92
488.26	272.86
488.62	273.85
488.99	274.78
489.35	275.80
489.72	276.91
490.08	278.10
490.44	279.34
490.81	280.67
491.17	282.00
491.54	283.47
491.90	284.97
492.26	286.59
492.63	288.32
492.99	290.10
493.36	291.98
493.72	294.02
494.08	296.08
494.45	298.30
494.81	300.63
495.17	303.05
495.54	305.59
495.90	308.27
496.26	311.08
496.63	314.05
496.99	317.11
497.35	320.34
497.72	323.73
498.08	327.24
498.44	330.89
498.80	334.82
499.17	338.78
499.53	342.94
499.89	347.28
500.26	351.76
500.62	356.35
500.98	361.23
501.34	366.19
501.71	371.45
502.07	376.81
502.43	382.36
502.79	388.04
503.16	394.03
503.52	400.21
503.88	406.50
504.24	413.00
504.60	419.84
504.97	426.85
505.33	434.01
505.69	441.60
506.05	449.25
506.41	456.93
506.78	464.95
507.14	473.16
507.50	481.74
507.86	490.55
508.22	499.60
508.59	508.64
508.95	518.00
509.31	527.61
509.67	537.50
510.03	547.57
510.39	557.91
510.75	568.40
511.12	579.02
511.48	589.97
511.84	601.20
512.20	612.44
512.56	624.06
512.92	635.90
513.28	647.96
513.64	660.03
514.00	672.40
514.37	685.04
514.73	697.79
515.09	710.46
515.45	723.44
515.81	736.63
516.17	750.27
516.53	764.07
516.89	777.90
517.25	791.74
517.61	805.70
517.97	819.79
518.33	833.88
518.69	848.22
519.05	862.83
519.41	877.52
519.77	892.60
520.13	907.64
520.49	922.59
520.85	937.42
521.21	952.65
521.57	968.44
521.93	983.72
522.29	999.54
522.65	1015.24
523.01	1030.82
523.37	1046.38
523.73	1062.02
524.09	1077.65
524.45	1093.38
524.81	1109.54
525.17	1125.79
525.53	1142.16
525.89	1158.49
526.25	1174.80
526.61	1190.60
526.97	1206.86
527.33	1222.87
527.68	1239.05
528.04	1255.09
528.40	1271.17
528.76	1287.87
529.12	1303.93
529.48	1320.37
529.84	1335.87
530.20	1352.10
530.56	1368.67
530.91	1385.62
531.27	1401.92
531.63	1417.88
531.99	1433.97
532.35	1449.45
532.71	1465.06
533.07	1480.91
533.42	1496.52
533.78	1512.28
534.14	1528.30
534.50	1543.19
534.86	1558.61
535.21	1573.51
535.57	1589.07
535.93	1604.28
536.29	1618.60
536.65	1633.40
537.00	1647.83
537.36	1663.09
537.72	1677.22
538.08	1691.38
538.44	1704.89
538.79	1718.55
539.15	1731.94
539.51	1745.51
539.87	1759.53
540.22	1772.96
540.58	1786.41
540.94	1799.33
541.29	1811.95
541.65	1824.40
542.01	1837.47
542.37	1849.80
542.72	1862.00
543.08	1873.80
543.44	1886.11
543.79	1897.40
544.15	1908.31
544.51	1919.89
544.87	1930.72
545.22	1941.57
545.58	1951.89
545.94	1961.66
546.29	1971.48
546.65	1981.54
547.01	1990.98
547.36	1999.88
547.72	2008.52
548.07	2016.64
548.43	2024.88
548.79	2032.97
549.14	2040.81
549.50	2048.26
549.86	2055.92
550.21	2063.29
550.57	2070.72
550.92	2077.51
551.28	2084.69
551.64	2092.11
551.99	2098.77
552.35	2105.12
552.70	2111.49
553.06	2117.70
553.41	2124.35
553.77	2130.60
554.13	2136.76
554.48	2143.05
554.84	2148.88
555.19	2154.34
555.55	2159.96
555.90	2164.97
556.26	2170.48
556.61	2175.48
556.97	2180.21
557.32	2184.82
557.68	2189.33
558.03	2193.74
558.39	2197.62
558.74	2202.61
559.10	2206.70
559.45	2210.75
559.81	2215.33
560.16	2219.67
560.52	2223.33
560.87	2227.06
561.23	2230.21
561.58	2233.45
561.94	2236.48
562.29	2239.09
562.64	2242.37
563.00	2245.18
563.35	2248.99
563.71	2252.26
564.06	2255.73
564.42	2259.06
564.77	2262.05
565.12	2264.92
565.48	2267.35
565.83	2269.82
566.19	2271.68
566.54	2272.82
566.89	2274.43
567.25	2275.70
567.60	2277.22
567.96	2279.41
568.31	2280.77
568.66	2282.34
569.02	2283.47
569.37	2284.13
569.72	2285.61
570.08	2286.15
570.43	2286.52
570.78	2286.53
571.14	2285.42
571.49	2284.43
571.84	2284.32
572.20	2283.61
572.55	2282.91
572.90	2281.51
573.26	2280.58
573.61	2279.03
573.96	2277.94
574.31	2275.38
574.67	2272.83
575.02	2269.70
575.37	2266.51
575.72	2263.17
576.08	2260.20
576.43	2257.14
576.78	2254.12
577.13	2251.04
577.49	2248.15
577.84	2245.14
578.19	2241.63
578.54	2238.52
578.90	2234.97
579.25	2230.04
579.60	2225.53
579.95	2220.90
580.30	2216.47
580.66	2211.59
581.01	2206.92
581.36	2202.22
581.71	2198.56
582.06	2194.33
582.42	2190.29
582.77	2185.50
583.12	2181.23
583.47	2177.01
583.82	2172.57
584.17	2167.38
584.53	2162.32
584.88	2157.12
585.23	2151.76
585.58	2146.61
585.93	2141.45
586.28	2136.72
586.63	2132.00
586.98	2127.11
587.34	2122.55
587.69	2117.82
588.04	2113.02
588.39	2107.79
588.74	2101.74
589.09	2095.67
589.44	2089.29
589.79	2083.35
590.14	2077.92
590.49	2071.44
590.84	2065.01
591.19	2059.19
591.54	2053.06
591.89	2046.09
592.25	2039.56
592.60	2032.55
592.95	2025.19
593.30	2018.01
593.65	2010.58
594.00	2003.59
594.35	1996.50
594.70	1988.59
595.05	1981.74
595.40	1974.46
595.75	1967.05
596.10	1961.04
596.45	1954.57
596.80	1948.52
597.15	1942.13
597.50	1935.44
597.85	1929.18
598.19	1922.79
598.54	1915.92
598.89	1909.37
599.24	1903.59
599.59	1897.26
599.94	1891.03
600.29	1884.81
600.64	1878.15
600.99	1870.93
601.34	1864.22
601.69	1857.20
602.04	1850.74
602.39	1843.49
602.74	1836.80
603.08	1830.30
603.43	1823.56
603.78	1816.21
604.13	1808.97
604.48	1801.84
604.83	1794.91
605.18	1788.28
605.53	1780.51
605.87	1772.48
606.22	1765.24
606.57	1757.23
606.92	1749.64
607.27	1742.74
607.62	1736.00
607.96	1729.00
608.31	1722.48
608.66	1714.93
609.01	1707.55
609.36	1699.87
609.70	1691.75
610.05	1683.82
610.40	1676.03
610.75	1667.80
611.10	1660.16
611.44	1651.57
611.79	1643.40
612.14	1634.67
612.49	1625.28
612.83	1616.61
613.18	1608.28
613.53	1600.19
613.88	1591.59
614.22	1583.18
614.57	1574.32
614.92	1566.01
615.27	1558.47
615.61	1550.10
615.96	1542.01
616.31	1534.18
616.65	1526.67
617.00	1519.03
617.35	1511.10
617.70	1502.86
618.04	1494.25
618.39	1485.82
618.74	1478.38
619.08	1470.08
619.43	1462.42
619.78	1455.44
620.12	1448.34
620.47	1440.84
620.82	1432.48
621.16	1424.90
621.51	1417.23
621.85	1409.48
622.20	1401.01
622.55	1392.46
622.89	1384.56
623.24	1376.74
623.59	1369.18
623.93	1361.50
624.28	1354.13
624.62	1346.64
624.97	1339.36
625.32	1332.33
625.66	1325.29
626.01	1317.91
626.35	1310.51
626.70	1302.60
627.04	1294.81
627.39	1286.91
627.73	1279.44
628.08	1272.58
628.43	1265.35
628.77	1258.13
629.12	1250.64
629.46	1243.42
629.81	1235.80
630.15	1228.42
630.50	1220.97
630.84	1212.80
631.19	1204.75
631.53	1197.18
631.88	1189.47
632.22	1181.84
632.57	1174.50
632.91	1167.00
633.26	1159.52
633.60	1151.88
633.95	1144.65
634.29	1137.40
634.64	1130.58
634.98	1123.10
635.32	1115.90
635.67	1109.11
636.01	1102.29
636.36	1095.34
636.70	1088.71
637.05	1082.08
637.39	1075.56
637.73	1069.03
638.08	1063.10
638.42	1057.14
638.77	1050.66
639.11	1044.16
639.45	1037.60
639.80	1030.93
640.14	1024.41
640.49	1017.93
640.83	1011.61
641.17	1005.41
641.52	999.09
641.86	992.62
642.20	986.74
642.55	980.23
642.89	973.77
643.23	967.10
643.58	961.38
643.92	955.15
644.26	949.21
644.61	942.99
644.95	937.01
645.29	930.45
645.64	923.68
645.98	917.30
646.32	911.25
646.66	905.25
647.01	899.46
647.35	893.81
647.69	887.84
648.04	882.27
648.38	876.43
648.72	870.59
649.06	864.50
649.41	858.54
649.75	852.63
650.09	846.66
650.43	840.85
650.78	834.66
651.12	828.65
651.46	822.84
651.80	817.23
652.14	811.76
652.49	806.33
652.83	801.19
653.17	795.54
653.51	789.92
653.85	784.43
654.20	778.80
654.54	772.67
654.88	766.91
655.22	761.01
655.56	755.27
655.90	749.65
656.25	744.43
656.59	739.06
656.93	733.91
657.27	728.80
657.61	723.39
657.95	718.22
658.29	713.08
658.64	707.73
658.98	702.28
659.32	696.75
659.66	691.53
660.00	686.20
660.34	681.24
660.68	676.24
661.02	671.21
661.36	666.45
661.70	661.96
662.05	657.63
662.39	653.32
662.73	648.89
663.07	644.53
663.41	640.04
663.75	635.59
664.09	631.05
664.43	626.63
664.77	622.51
665.11	618.26
665.45	614.18
665.79	610.12
666.13	606.02
666.47	601.95
666.81	597.81
667.15	593.65
667.49	589.73
667.83	585.85
668.17	581.83
668.51	577.70
668.85	573.60
669.19	569.67
669.53	565.84
669.87	561.96
670.21	558.22
670.55	554.54
670.89	551.09
671.23	547.66
671.57	544.08
671.91	540.50
672.25	536.95
672.58	533.39
672.92	529.92
673.26	526.80
673.60	523.60
673.94	520.47
674.28	517.55
674.62	514.51
674.96	511.40
675.30	508.57
675.64	505.66
675.97	502.91
676.31	500.03
676.65	497.06
676.99	494.31
677.33	491.41
677.67	488.56
678.01	485.46
678.34	482.44
678.68	479.57
679.02	476.72
679.36	473.92
679.70	471.15
680.04	468.44
680.37	465.48
680.71	462.64
681.05	460.02
681.39	457.23
681.73	454.60
682.06	452.05
682.40	449.46
682.74	446.86
683.08	444.21
683.42	441.59
683.75	439.06
684.09	436.46
684.43	433.97
684.77	431.46
685.10	429.12
685.44	426.76
685.78	424.44
686.12	422.20
686.45	419.88
686.79	417.58
687.13	415.30
687.46	413.14
687.80	410.93
688.14	408.65
688.48	406.57
688.81	404.32
689.15	402.15
689.49	399.93
689.82	397.85
690.16	395.76
690.50	393.76
690.83	391.78
691.17	389.76
691.51	387.80
691.84	385.93
692.18	384.05
692.52	382.08
692.85	380.12
693.19	378.20
693.52	376.32
693.86	374.42
694.20	372.63
694.53	370.85
694.87	369.03
695.21	367.24
695.54	365.40
695.88	363.62
696.21	361.85
696.55	360.16
696.88	358.46
697.22	356.75
697.56	355.13
697.89	353.53
698.23	351.94
698.56	350.33
698.90	348.71
699.23	347.07
699.57	345.48
699.90	343.89
700.24	342.32
700.58	340.81
700.91	339.33
701.25	337.84
701.58	336.46
701.92	335.07
702.25	333.66
702.59	332.24
702.92	330.92
703.26	329.61
703.59	328.29
703.93	327.10
704.26	325.89
704.60	324.58
704.93	323.28
705.26	321.99
705.60	320.80
705.93	319.66
706.27	318.59
706.60	317.54
706.94	316.46
707.27	315.33
707.61	314.27
707.94	313.21
708.27	312.17
708.61	311.02
708.94	309.97
709.28	308.96
709.61	308.01
709.94	307.03
710.28	306.01
710.61	305.04
710.95	303.87
711.28	302.89
711.61	301.94
711.95	301.01
712.28	300.06
712.61	299.04
712.95	298.09
713.28	297.12
713.61	296.17
713.95	295.24
714.28	294.38
714.61	293.47
714.95	292.58
715.28	291.68
715.61	290.79
715.95	289.98
716.28	289.06
716.61	288.20
716.95	287.35
717.28	286.57
717.61	285.78
717.94	285.07
718.28	284.27
718.61	283.49
718.94	282.76
719.27	282.07
719.61	281.42
719.94	280.69
720.27	279.96
720.60	279.25
720.94	278.60
721.27	277.95
721.60	277.34
721.93	276.72
722.27	276.14
722.60	275.53
722.93	274.90
723.26	274.35
723.59	273.75
723.93	273.22
724.26	272.62
724.59	272.02
724.92	271.47
725.25	270.93
725.59	270.39
725.92	269.86
726.25	269.30
726.58	268.76
726.91	268.29
727.24	267.79
727.57	267.33
727.91	266.79
728.24	266.27
728.57	265.75
728.90	265.30
729.23	264.80
729.56	264.42
729.89	263.93
730.22	263.44
730.55	262.95
730.89	262.46
731.22	262.02
731.55	261.62
731.88	261.19
732.21	260.79
732.54	260.35
732.87	259.88
733.20	259.47
733.53	259.08
733.86	258.73
734.19	258.34
734.52	257.97
734.85	257.67
735.18	257.28
735.51	256.97
735.84	256.57
736.17	256.20
736.50	255.79
736.83	255.56
737.16	255.23
737.49	254.93
737.82	254.59
738.15	254.28
738.48	253.92
738.81	253.62
739.14	253.27
739.47	252.99
739.80	252.68
740.13	252.40
740.46	252.06
740.79	251.70
741.12	251.38
741.45	251.08
741.78	250.74
742.11	250.51
742.44	250.18
742.77	249.91
743.10	249.63
743.43	249.35
743.75	248.98
744.08	248.88
744.41	248.61
744.74	248.37
745.07	248.07
745.40	247.90
745.73	247.64
746.06	247.36
746.39	247.08
746.71	246.84
747.04	246.55
747.37	246.34
747.70	246.07
748.03	245.79
748.36	245.61
748.68	245.41
749.01	245.12
749.34	244.88
749.67	244.66
750.00	244.43
750.33	244.25
750.65	244.03
750.98	243.66
751.31	243.44
751.64	243.21
751.97	243.03
752.29	242.74
752.62	242.50
752.95	242.27
753.28	242.06
753.60	241.85
753.93	241.68
754.26	241.45
754.59	241.24
754.91	241.07
755.24	240.80
755.57	240.56
755.90	240.41
756.22	240.21
756.55	239.99
756.88	239.79
757.20	239.51
757.53	239.28
757.86	239.09
758.19	238.91
758.51	238.71
758.84	238.49
759.17	238.31
759.49	238.13
759.82	238.02
760.15	237.87
760.47	237.70
760.80	237.53
761.13	237.38
761.45	237.20
761.78	237.06
762.11	236.90
762.43	236.73
762.76	236.54
763.08	236.39
763.41	236.27
763.74	236.10
764.06	235.97
764.39	235.84
764.71	235.68
765.04	235.54
765.37	235.44
765.69	235.33
766.02	235.19
766.34	235.05
766.67	234.87
767.00	234.73
767.32	234.65
767.65	234.58
767.97	234.46
768.30	234.33
768.62	234.19
768.95	234.11
769.27	234.00
769.60	233.91
769.92	233.75
770.25	233.61
770.57	233.52
770.90	233.45
771.22	233.34
771.55	233.27
771.87	233.20
772.20	233.04
772.52	232.99
772.85	233.00
773.17	232.90
773.50	232.80
773.82	232.69
774.15	232.55
774.47	232.39
774.80	232.28
775.12	232.23
775.45	232.14
775.77	232.06
776.09	231.97
776.42	231.86
776.74	231.85
777.07	231.78
777.39	231.72
777.72	231.61
778.04	231.54
778.36	231.42
778.69	231.32
779.01	231.28
779.33	231.16
779.66	230.99
779.98	230.92
780.31	230.86
780.63	230.84
780.95	230.83
781.28	230.81
781.60	230.75
781.92	230.67
782.25	230.61
782.57	230.51
782.89	230.48
783.22	230.43
783.54	230.34
783.86	230.30
784.19	230.24
784.51	230.22
784.83	230.17
785.16	230.16
785.48	230.11
785.80	230.07
786.12	230.02
786.45	229.96
786.77	229.96
787.09	229.93
787.42	229.88
787.74	229.79
788.06	229.73
788.38	229.70
788.71	229.67
789.03	229.64
789.35	229.62
789.67	229.56
789.99	229.52
790.32	229.48
790.64	229.47
790.96	229.51
791.28	229.45
791.61	229.37
791.93	229.32
792.25	229.28
792.57	229.32
792.89	229.28
793.21	229.30
793.54	229.18
793.86	229.13
794.18	229.09
794.50	229.06
794.82	229.04
795.14	229.02
795.47	228.97
795.79	228.93
796.11	228.88
796.43	228.83
796.75	228.80
797.07	228.79
797.39	228.73
797.71	228.62
798.04	228.58
798.36	228.57
798.68	228.54
799.00	228.53
799.32	228.45
799.64	228.43
799.96	228.36
800.28	228.34
800.60	228.28
800.92	228.25
801.24	228.22
801.56	228.17
801.89	228.12
802.21	228.13
802.53	228.09
802.85	228.10
803.17	228.11
803.49	228.08
803.81	228.00
804.13	227.96
804.45	227.88
804.77	227.87
805.09	227.86
805.41	227.83
805.73	227.78
806.05	227.72
806.37	227.70
806.69	227.67
807.01	227.66
807.33	227.65
807.65	227.61
807.97	227.64
808.28	227.64
808.60	227.62
808.92	227.58
809.24	227.64
809.56	227.59
809.88	227.52
810.20	227.51
810.52	227.54
810.84	227.51
811.16	227.51
811.48	227.48
811.80	227.49
812.12	227.48
812.43	227.45
812.75	227.44
813.07	227.41
813.39	227.42
813.71	227.39
814.03	227.37
814.35	227.35
814.67	227.27
814.98	227.23
815.30	227.24
815.62	227.20
815.94	227.11
816.26	227.12
816.58	227.10
816.89	227.12
817.21	227.05
817.53	227.04
817.85	227.03
818.17	226.99
818.48	226.92
818.80	226.92
819.12	226.88
819.44	226.80
819.76	226.76
820.07	226.71
820.39	226.70
820.71	226.69
821.03	226.65
821.34	226.62
821.66	226.63
821.98	226.56
822.30	226.57
822.61	226.61
822.93	226.54
823.25	226.52
823.57	226.46
823.88	226.46
824.20	226.45
824.52	226.43
824.83	226.42
825.15	226.40
825.47	226.36
825.79	226.33
826.10	226.32
826.42	226.31
826.74	226.31
827.05	226.29
827.37	226.25
827.69	226.20
828.00	226.21
828.32	226.17
828.64	226.14
828.95	226.15
829.27	226.10
829.58	226.10
829.90	226.08
830.22	226.07
830.53	226.05
830.85	226.02
831.17	225.99
831.48	225.93
831.80	225.96
832.11	225.93
832.43	225.91
832.75	225.91
833.06	225.97
833.38	225.92
833.69	225.87
834.01	225.88
834.32	225.90
834.64	225.88
834.96	225.85
835.27	225.87
835.59	225.82
835.90	225.81
836.22	225.79
836.53	225.76
836.85	225.76
837.16	225.81
837.48	225.77
837.79	225.80
838.11	225.78
838.42	225.72
838.74	225.73
839.05	225.73
839.37	225.72
839.68	225.65
840.00	225.64
840.31	225.66
840.63	225.64
840.94	225.61
841.26	225.57
841.57	225.58
841.88	225.57
842.20	225.56
842.51	225.51
842.83	225.51
843.14	225.62
843.46	225.60
843.77	225.53
844.08	225.54
844.40	225.47
844.71	225.49
845.03	225.46
845.34	225.47
845.65	225.45
845.97	225.41
846.28	225.40
846.60	225.39
846.91	225.39
847.22	225.41
847.54	225.44
847.85	225.43
848.16	225.39
848.48	225.36
848.79	225.37
849.10	225.39
849.42	225.35
849.73	225.26
850.04	225.26
850.36	225.25
850.67	225.25
850.98	225.28
851.30	225.29
851.61	225.32
851.92	225.32
852.23	225.33
852.55	225.35
852.86	225.34
853.17	225.39
853.49	225.40
853.80	225.40
854.11	225.41
854.42	225.48
854.74	225.50
855.05	225.51
855.36	225.49
855.67	225.49
855.99	225.53
856.30	225.63
856.61	225.62
856.92	225.62
857.23	225.63
857.55	225.61
857.86	225.61
858.17	225.63
858.48	225.60
858.79	225.60
859.11	225.61
859.42	225.61
859.73	225.58
860.04	225.57
860.35	225.57
860.66	225.56
860.98	225.53
861.29	225.54
861.60	225.53
861.91	225.55
862.22	225.55
862.53	225.53
862.84	225.41
863.16	225.42
863.47	225.42
863.78	225.42
864.09	225.41
864.40	225.43
864.71	225.43
865.02	225.48
865.33	225.49
865.64	225.45
865.95	225.47
866.27	225.51
866.58	225.52
866.89	225.51
867.20	225.49
867.51	225.46
867.82	225.40
868.13	225.41
868.44	225.36
868.75	225.36
869.06	225.35
869.37	225.41
869.68	225.36
869.99	225.35
870.30	225.37
870.61	225.37
870.92	225.37
871.23	225.36
871.54	225.33
871.85	225.34
872.16	225.36
872.47	225.33
872.78	225.29
873.09	225.29
873.40	225.28
873.71	225.28
874.02	225.30
874.33	225.29
874.64	225.31
874.95	225.35
875.26	225.34
875.56	225.33
875.87	225.31
876.18	225.31
876.49	225.42
876.80	225.37
877.11	225.36
877.42	225.34
877.73	225.34
878.04	225.30
878.35	225.28
878.66	225.27
878.96	225.28
879.27	225.26
879.58	225.25
879.89	225.20
880.20	225.21
880.51	225.18
880.82	225.19
881.12	225.17
881.43	225.14
881.74	225.13
882.05	225.13
882.36	225.12
882.67	225.15
882.97	225.03
883.28	225.09
883.59	225.10
883.90	225.11
884.21	225.14
884.51	225.16
884.82	225.13
885.13	225.15
885.44	225.13
885.74	225.14
886.05	225.12
886.36	225.17
886.67	225.15
886.98	225.21
887.28	225.23
887.59	225.23
887.90	225.24
888.20	225.21
888.51	225.24
888.82	225.22
889.13	225.21
889.43	225.30
889.74	225.26
890.05	225.24
890.35	225.24
890.66	225.19
890.97	225.20
891.28	225.24
891.58	225.23
891.89	225.26
892.20	225.24
892.50	225.25
892.81	225.25
893.12	225.25
893.42	225.18
893.73	225.23
894.04	225.25
894.34	225.29
894.65	225.31
894.95	225.31
895.26	225.32
895.57	225.38
895.87	225.30
896.18	225.33
896.48	225.34
896.79	225.33
897.10	225.37
897.40	225.36
897.71	225.34
898.01	225.37
898.32	225.35
898.63	225.39
898.93	225.42
899.24	225.44
899.54	225.43
899.85	225.47
900.15	225.44
900.46	225.42
900.76	225.41
901.07	225.39
901.38	225.41
901.68	225.42
901.99	225.37
902.29	225.37
902.60	225.36
902.90	225.37
903.21	225.38
903.51	225.38
903.82	225.42
904.12	225.46
904.43	225.44
904.73	225.46
905.03	225.44
905.34	225.50
905.64	225.48
905.95	225.49
906.25	225.48
906.56	225.48
906.86	225.46
907.17	225.46
907.47	225.48
907.77	225.45
908.08	225.43
908.38	225.41
908.69	225.41
908.99	225.38
909.30	225.38
909.60	225.36
909.90	225.34
910.21	225.30
910.51	225.26
910.81	225.28
911.12	225.27
911.42	225.26
911.73	225.18
912.03	225.16
912.33	225.16
912.64	225.17
912.94	225.13
913.24	225.12
913.55	225.09
913.85	225.08
914.15	225.09
914.46	225.07
914.76	225.07
915.06	225.06
915.37	225.07
915.67	225.03
915.97	225.01
916.27	224.98
916.58	224.99
916.88	224.96
917.18	224.97
917.49	225.02
917.79	225.02
918.09	225.01
918.39	225.07
918.70	225.09
919.00	225.05
919.30	225.11
919.60	225.08
919.91	225.05
920.21	225.08
920.51	225.04
920.81	225.04
921.12	225.06
921.42	225.05
921.72	225.04
922.02	225.09
922.32	225.11
922.63	225.13
922.93	225.18
923.23	225.19
923.53	225.14
923.83	225.06
924.13	225.11
924.44	225.13
924.74	225.13
925.04	225.13
925.34	225.16
925.64	225.14
925.94	225.18
926.24	225.22
926.55	225.20
926.85	225.23
927.15	225.27
927.45	225.28
927.75	225.30
928.05	225.32
928.35	225.26
928.65	225.29
928.95	225.31
929.26	225.26
929.56	225.27
929.86	225.28
930.16	225.26
930.46	225.22
930.76	225.22
931.06	225.19
931.36	225.18
931.66	225.17
931.96	225.15
932.26	225.17
932.56	225.16
932.86	225.18
933.16	225.15
933.46	225.10
933.76	225.05
934.06	225.06
934.36	225.05
934.66	225.07
934.96	225.06
935.26	225.02
935.56	225.04
935.86	225.01
936.16	225.04
936.46	225.08
936.76	225.06
937.06	225.03
937.36	225.03
937.66	225.00
937.96	225.00
938.26	225.00
938.56	224.98
938.86	224.99
939.16	225.01
939.46	225.05
939.76	225.05
940.06	225.10
940.35	225.09
940.65	225.06
940.95	225.07
941.25	225.02
941.55	225.02
941.85	224.99
942.15	225.02
942.45	225.03
942.75	224.98
943.04	224.98
943.34	225.03
943.64	224.97
943.94	224.96
944.24	224.95
944.54	224.97
944.84	224.94
945.13	224.88
945.43	224.84
945.73	224.81
946.03	224.81
946.33	224.77
946.62	224.72
946.92	224.71
947.22	224.71
947.52	224.73
947.82	224.73
948.11	224.75
948.41	224.71
948.71	224.67
949.01	224.67
949.31	224.64
949.60	224.62
949.90	224.68
950.20	224.66
950.50	224.66
950.79	224.64
951.09	224.65
951.39	224.63
951.69	224.60
951.98	224.61
952.28	224.62
952.58	224.61
952.87	224.64
953.17	224.68
953.47	224.65
953.76	224.69
954.06	224.67
954.36	224.65
954.66	224.66
954.95	224.66
955.25	224.74
955.55	224.76
955.84	224.73
956.14	224.73
956.44	224.76
956.73	224.75
957.03	224.78
957.32	224.81
957.62	224.83
957.92	224.87
958.21	224.91
958.51	225.03
958.81	225.03
959.10	225.06
959.40	225.08
959.69	225.10
959.99	225.10
960.29	225.15
960.58	225.17
960.88	225.23
961.17	225.25
961.47	225.21
961.76	225.24
962.06	225.27
962.36	225.26
962.65	225.27
962.95	225.28
963.24	225.26
963.54	225.22
963.83	225.28
964.13	225.31
964.42	225.25
964.72	225.20
965.01	225.22
965.31	225.19
965.60	225.18
965.90	225.27
966.19	225.27
966.49	225.25
966.78	225.26
967.08	225.24
967.37	225.25
967.67	225.25
967.96	225.24
968.26	225.23
968.55	225.25
968.85	225.26
969.14	225.26
969.43	225.27
969.73	225.27
970.02	225.27
970.32	225.24
970.61	225.26
970.91	225.21
971.20	225.19
971.49	225.19
971.79	225.19
972.08	225.13
972.38	225.11
972.67	225.10
972.96	225.08
973.26	225.06
973.55	225.10
973.85	225.09
974.14	225.08
974.43	225.11
974.73	225.09
975.02	225.08
975.31	225.08
975.61	225.07
975.90	225.05
976.19	225.02
976.49	225.03
976.78	225.02
977.07	225.01
977.37	224.98
977.66	225.01
977.95	224.99
978.24	225.00
978.54	225.00
978.83	224.99
979.12	225.01
979.42	225.00
979.71	224.92
980.00	224.89
980.29	224.89
980.59	224.84
980.88	224.87
981.17	224.85
981.46	224.82
981.76	224.80
982.05	224.84
982.34	224.85
982.63	224.86
982.93	224.85
983.22	224.89
983.51	224.92
983.80	224.92
984.09	224.92
984.39	224.88
984.68	224.86
984.97	224.86
985.26	224.82
985.55	224.80
985.85	224.80
986.14	224.81
986.43	224.82
986.72	224.83
987.01	224.79
987.30	224.77
987.59	224.78
987.89	224.82
988.18	224.78
988.47	224.79
988.76	224.73
989.05	224.71
989.34	224.70
989.63	224.70
989.92	224.65
990.22	224.63
990.51	224.64
990.80	224.61
991.09	224.62
991.38	224.64
991.67	224.66
991.96	224.67
992.25	224.68
992.54	224.64
992.83	224.61
993.12	224.59
993.41	224.62
993.70	224.68
993.99	224.68
994.28	224.68
994.58	224.66
994.87	224.67
995.16	224.71
995.45	224.66
995.74	224.62
996.03	224.66
996.32	224.65
996.61	224.71
996.90	224.76
997.19	224.74
997.48	224.76
997.77	224.76
998.06	224.76
998.34	224.75
998.63	224.75
998.92	224.79
999.21	224.84
999.50	224.84
999.79	224.76
1000.08	224.75
1000.37	224.77
1000.66	224.76
1000.95	224.77
1001.24	224.76
1001.53	224.81
1001.82	224.82
1002.11	224.81
1002.40	224.85
1002.68	224.85
1002.97	224.90
1003.26	224.92
1003.55	224.88
1003.84	224.91
1004.13	224.95
1004.42	224.97
1004.71	225.01
1004.99	224.98
1005.28	225.00
1005.57	225.03
1005.86	225.05
1006.15	225.05
1006.44	225.04
1006.72	225.08
1007.01	225.08
1007.30	225.08
1007.59	225.06
1007.88	225.08
1008.17	225.10
1008.45	225.06
1008.74	225.01
1009.03	224.99
1009.32	224.98
1009.60	224.98
1009.89	224.95
1010.18	224.90
1010.47	224.90
1010.76	224.88
1011.04	224.88
1011.33	224.87
1011.62	224.85
1011.91	224.85
1012.19	224.83
1012.48	224.83
1012.77	224.80
1013.05	224.84
1013.34	224.83
1013.63	224.81
1013.92	224.81
1014.20	224.75
1014.49	224.78
1014.78	224.79
1015.06	224.71
1015.35	224.72
1015.64	224.70
1015.92	224.72
1016.21	224.73
1016.50	224.74
1016.78	224.76
1017.07	224.78
1017.36	224.73
1017.64	224.72
1017.93	224.71
1018.22	224.71
1018.50	224.72
1018.79	224.69
1019.08	224.64
1019.36	224.66
1019.65	224.64
1019.93	224.65
1020.22	224.67
1020.51	224.72
1020.79	224.72
1021.08	224.50
1021.36	224.96
1021.65	223.96
1021.94	224.64
1022.22	224.92
1022.51	224.28
1022.79	224.84
1023.08	224.49
1023.36	226.23
1023.65	224.55
>>>>>End Processed Spectral Data<<<<<
