SpectraSuite Data File
++++++++++++++++++++++++++++++++++++
Date: Fri Feb 01 17:28:53 EST 2013
User: group
Dark Spectrum Present: No
Reference Spectrum Present: No
Number of Sampled Component Spectra: 1
Spectrometers: USB2E7196
Integration Time (usec): 35000 (USB2E7196)
Spectra Averaged: 100 (USB2E7196)
Boxcar Smoothing: 10 (USB2E7196)
Correct for Electrical Dark: No (USB2E7196)
Strobe/Lamp Enabled: No (USB2E7196)
Correct for Detector Non-linearity: No (USB2E7196)
Correct for Stray Light: No (USB2E7196)
Number of Pixels in Processed Spectrum: 2048
>>>>>Begin Processed Spectral Data<<<<<
339.09	0.00
339.48	213.17
339.86	214.49
340.24	216.01
340.63	217.44
341.01	220.71
341.39	220.53
341.78	221.49
342.16	222.54
342.54	223.03
342.93	211.57
343.31	222.27
343.69	222.79
344.07	223.28
344.46	223.68
344.84	224.09
345.22	224.30
345.60	224.52
345.99	224.72
346.37	224.86
346.75	224.96
347.13	225.03
347.52	225.07
347.90	225.13
348.28	225.15
348.66	225.23
349.05	225.27
349.43	225.32
349.81	225.36
350.19	225.44
350.57	225.51
350.96	225.58
351.34	225.64
351.72	225.76
352.10	225.86
352.48	225.96
352.87	225.97
353.25	226.03
353.63	226.09
354.01	226.13
354.39	226.17
354.77	226.21
355.15	226.33
355.54	226.35
355.92	226.41
356.30	226.48
356.68	226.59
357.06	226.65
357.44	226.68
357.82	226.75
358.20	226.82
358.58	226.85
358.97	226.90
359.35	226.96
359.73	227.02
360.11	227.03
360.49	227.09
360.87	227.14
361.25	227.19
361.63	227.26
362.01	227.31
362.39	227.34
362.77	227.43
363.15	227.44
363.53	227.47
363.91	227.50
364.29	227.50
364.67	227.41
365.05	227.39
365.43	227.39
365.81	227.42
366.19	227.42
366.57	227.48
366.95	227.47
367.33	227.45
367.71	227.44
368.09	227.49
368.47	227.43
368.85	227.42
369.23	227.42
369.61	227.36
369.99	227.37
370.37	227.36
370.75	227.35
371.13	227.24
371.51	227.20
371.89	227.15
372.27	227.15
372.65	227.14
373.03	227.11
373.41	227.09
373.78	227.00
374.16	226.93
374.54	226.83
374.92	226.77
375.30	226.72
375.68	226.62
376.06	226.53
376.44	226.47
376.82	226.41
377.19	226.34
377.57	226.27
377.95	226.18
378.33	226.13
378.71	226.01
379.09	225.98
379.47	225.96
379.84	225.87
380.22	225.79
380.60	225.67
380.98	225.61
381.36	225.54
381.73	225.52
382.11	225.46
382.49	225.42
382.87	225.38
383.25	225.33
383.62	225.38
384.00	225.31
384.38	225.25
384.76	225.23
385.13	225.19
385.51	225.15
385.89	225.07
386.27	225.00
386.64	224.99
387.02	224.95
387.40	224.90
387.78	224.87
388.15	224.81
388.53	224.79
388.91	224.78
389.29	224.75
389.66	224.71
390.04	224.67
390.42	224.65
390.79	224.63
391.17	224.61
391.55	224.49
391.92	224.51
392.30	224.55
392.68	224.51
393.05	224.51
393.43	224.53
393.81	224.56
394.18	224.56
394.56	224.53
394.94	224.57
395.31	224.57
395.69	224.62
396.06	224.67
396.44	224.71
396.82	224.71
397.19	224.83
397.57	224.86
397.95	224.92
398.32	224.92
398.70	224.98
399.07	225.07
399.45	225.13
399.82	225.20
400.20	225.21
400.58	225.25
400.95	225.32
401.33	225.42
401.70	225.58
402.08	225.68
402.45	225.80
402.83	225.86
403.20	225.96
403.58	226.06
403.95	226.18
404.33	226.32
404.71	226.41
405.08	226.53
405.46	226.68
405.83	226.83
406.21	227.00
406.58	227.14
406.96	227.26
407.33	227.46
407.70	227.61
408.08	227.91
408.45	228.14
408.83	228.31
409.20	228.51
409.58	228.68
409.95	228.92
410.33	229.16
410.70	229.44
411.08	229.72
411.45	230.01
411.82	230.31
412.20	230.62
412.57	231.05
412.95	231.37
413.32	231.79
413.69	232.19
414.07	232.65
414.44	233.16
414.82	233.68
415.19	234.23
415.56	234.82
415.94	235.37
416.31	236.05
416.68	236.73
417.06	237.46
417.43	238.16
417.81	238.94
418.18	239.78
418.55	240.64
418.93	241.57
419.30	242.52
419.67	243.49
420.04	244.53
420.42	245.58
420.79	246.78
421.16	247.96
421.54	249.20
421.91	250.45
422.28	251.73
422.66	253.12
423.03	254.45
423.40	255.81
423.77	257.23
424.15	258.70
424.52	260.26
424.89	261.97
425.26	263.58
425.64	265.10
426.01	266.76
426.38	268.48
426.75	270.21
427.13	272.01
427.50	273.88
427.87	275.83
428.24	277.75
428.61	279.57
428.99	281.58
429.36	283.78
429.73	285.95
430.10	288.06
430.47	290.17
430.85	292.38
431.22	294.68
431.59	297.20
431.96	299.53
432.33	302.11
432.70	304.55
433.08	307.47
433.45	310.23
433.82	312.94
434.19	315.94
434.56	318.86
434.93	321.60
435.30	324.30
435.68	327.31
436.05	330.23
436.42	333.13
436.79	335.77
437.16	338.51
437.53	341.45
437.90	344.35
438.27	347.19
438.64	350.14
439.01	352.89
439.38	355.19
439.75	357.43
440.13	360.00
440.50	362.45
440.87	364.36
441.24	366.39
441.61	368.62
441.98	370.16
442.35	372.03
442.72	373.97
443.09	375.88
443.46	376.89
443.83	377.53
444.20	378.09
444.57	378.95
444.94	379.32
445.31	379.71
445.68	380.13
446.05	380.27
446.42	379.91
446.79	379.49
447.16	379.10
447.53	378.79
447.90	377.60
448.27	376.40
448.64	374.77
449.01	373.63
449.37	371.63
449.74	369.74
450.11	367.48
450.48	364.96
450.85	362.36
451.22	360.21
451.59	358.12
451.96	356.11
452.33	353.41
452.70	351.01
453.07	348.04
453.43	344.99
453.80	342.11
454.17	339.33
454.54	336.72
454.91	333.84
455.28	331.07
455.65	328.48
456.02	325.97
456.38	323.74
456.75	320.99
457.12	318.66
457.49	316.31
457.86	314.00
458.23	312.04
458.59	309.88
458.96	307.71
459.33	305.81
459.70	303.84
460.07	302.27
460.43	300.43
460.80	298.74
461.17	297.28
461.54	295.76
461.91	294.24
462.27	292.71
462.64	291.44
463.01	290.01
463.38	288.69
463.74	287.26
464.11	286.08
464.48	284.96
464.85	283.78
465.21	282.87
465.58	281.93
465.95	280.80
466.32	279.89
466.68	278.94
467.05	278.00
467.42	277.12
467.78	276.17
468.15	275.28
468.52	274.62
468.88	273.74
469.25	272.87
469.62	272.24
469.98	271.56
470.35	270.88
470.72	270.29
471.08	269.62
471.45	269.04
471.82	268.49
472.18	267.89
472.55	267.46
472.92	266.93
473.28	266.40
473.65	265.96
474.02	265.48
474.38	265.10
474.75	264.77
475.11	264.40
475.48	264.15
475.85	263.91
476.21	263.66
476.58	263.44
476.94	263.32
477.31	263.14
477.67	262.95
478.04	262.85
478.41	262.76
478.77	262.79
479.14	262.71
479.50	262.69
479.87	262.73
480.23	262.83
480.60	262.89
480.96	263.05
481.33	263.28
481.69	263.51
482.06	263.73
482.42	263.88
482.79	264.16
483.15	264.43
483.52	264.84
483.88	265.18
484.25	265.57
484.61	265.96
484.98	266.42
485.34	267.00
485.71	267.57
486.07	268.19
486.44	268.77
486.80	269.50
487.17	270.24
487.53	271.06
487.90	271.87
488.26	272.81
488.62	273.77
488.99	274.70
489.35	275.68
489.72	276.75
490.08	277.99
490.44	279.21
490.81	280.57
491.17	281.87
491.54	283.37
491.90	284.92
492.26	286.57
492.63	288.32
492.99	290.11
493.36	292.00
493.72	294.06
494.08	296.16
494.45	298.36
494.81	300.69
495.17	303.15
495.54	305.71
495.90	308.37
496.26	311.17
496.63	314.11
496.99	317.25
497.35	320.53
497.72	323.90
498.08	327.37
498.44	331.04
498.80	334.96
499.17	338.90
499.53	343.04
499.89	347.37
500.26	351.75
500.62	356.36
500.98	361.28
501.34	366.27
501.71	371.50
502.07	376.91
502.43	382.48
502.79	388.18
503.16	394.15
503.52	400.34
503.88	406.64
504.24	413.20
504.60	419.99
504.97	427.03
505.33	434.17
505.69	441.74
506.05	449.37
506.41	457.03
506.78	465.04
507.14	473.28
507.50	481.80
507.86	490.73
508.22	499.76
508.59	508.79
508.95	518.17
509.31	527.82
509.67	537.69
510.03	547.75
510.39	558.07
510.75	568.63
511.12	579.28
511.48	590.27
511.84	601.50
512.20	612.73
512.56	624.38
512.92	636.28
513.28	648.33
513.64	660.46
514.00	672.92
514.37	685.58
514.73	698.35
515.09	711.09
515.45	723.98
515.81	737.06
516.17	750.63
516.53	764.34
516.89	778.11
517.25	791.86
517.61	805.86
517.97	819.96
518.33	833.97
518.69	848.23
519.05	862.88
519.41	877.41
519.77	892.47
520.13	907.47
520.49	922.40
520.85	937.31
521.21	952.66
521.57	968.39
521.93	983.68
522.29	999.57
522.65	1015.40
523.01	1031.19
523.37	1046.88
523.73	1062.59
524.09	1078.27
524.45	1093.98
524.81	1110.15
525.17	1126.45
525.53	1142.79
525.89	1159.20
526.25	1175.65
526.61	1191.50
526.97	1207.83
527.33	1223.95
527.68	1240.02
528.04	1256.08
528.40	1272.22
528.76	1288.75
529.12	1304.89
529.48	1321.30
529.84	1336.90
530.20	1353.00
530.56	1369.47
530.91	1386.44
531.27	1402.92
531.63	1418.96
531.99	1435.21
532.35	1450.80
532.71	1466.30
533.07	1482.21
533.42	1497.76
533.78	1513.45
534.14	1529.34
534.50	1544.42
534.86	1559.77
535.21	1574.59
535.57	1590.09
535.93	1605.22
536.29	1619.56
536.65	1634.34
537.00	1648.76
537.36	1663.83
537.72	1677.97
538.08	1692.09
538.44	1705.54
538.79	1719.11
539.15	1732.41
539.51	1745.94
539.87	1760.05
540.22	1773.44
540.58	1786.90
540.94	1799.93
541.29	1812.49
541.65	1825.00
542.01	1837.99
542.37	1850.25
542.72	1862.49
543.08	1874.31
543.44	1886.57
543.79	1897.84
544.15	1908.75
544.51	1920.28
544.87	1931.18
545.22	1942.07
545.58	1952.28
545.94	1962.05
546.29	1971.83
546.65	1981.87
547.01	1991.14
547.36	1999.89
547.72	2008.63
548.07	2016.83
548.43	2025.24
548.79	2033.33
549.14	2041.13
549.50	2048.67
549.86	2056.40
550.21	2063.98
550.57	2071.35
550.92	2078.13
551.28	2085.45
551.64	2092.71
551.99	2099.48
552.35	2105.86
552.70	2112.24
553.06	2118.65
553.41	2125.30
553.77	2131.53
554.13	2137.78
554.48	2144.28
554.84	2150.16
555.19	2155.53
555.55	2160.89
555.90	2165.74
556.26	2171.28
556.61	2176.30
556.97	2181.04
557.32	2185.62
557.68	2190.10
558.03	2194.50
558.39	2198.50
558.74	2203.43
559.10	2207.51
559.45	2211.50
559.81	2215.82
560.16	2219.97
560.52	2223.59
560.87	2227.39
561.23	2230.52
561.58	2233.68
561.94	2236.52
562.29	2239.15
562.64	2242.54
563.00	2245.44
563.35	2249.22
563.71	2252.52
564.06	2256.08
564.42	2259.21
564.77	2262.06
565.12	2264.90
565.48	2267.43
565.83	2269.91
566.19	2271.73
566.54	2273.01
566.89	2274.56
567.25	2275.88
567.60	2277.64
567.96	2279.78
568.31	2280.93
568.66	2282.48
569.02	2283.51
569.37	2284.29
569.72	2285.70
570.08	2286.21
570.43	2286.60
570.78	2286.50
571.14	2285.39
571.49	2284.34
571.84	2284.42
572.20	2283.83
572.55	2282.93
572.90	2281.53
573.26	2280.43
573.61	2278.96
573.96	2277.91
574.31	2275.37
574.67	2272.70
575.02	2269.33
575.37	2266.19
575.72	2262.99
576.08	2259.87
576.43	2256.97
576.78	2253.84
577.13	2250.75
577.49	2247.77
577.84	2244.74
578.19	2241.21
578.54	2238.08
578.90	2234.36
579.25	2229.13
579.60	2224.56
579.95	2220.05
580.30	2215.64
580.66	2210.88
581.01	2206.31
581.36	2201.56
581.71	2197.85
582.06	2193.80
582.42	2189.97
582.77	2185.18
583.12	2180.83
583.47	2176.68
583.82	2172.17
584.17	2167.08
584.53	2162.05
584.88	2156.91
585.23	2151.58
585.58	2146.56
585.93	2141.16
586.28	2136.45
586.63	2131.80
586.98	2126.93
587.34	2122.44
587.69	2117.45
588.04	2112.53
588.39	2107.06
588.74	2100.75
589.09	2094.79
589.44	2088.34
589.79	2082.31
590.14	2076.77
590.49	2070.42
590.84	2064.08
591.19	2058.14
591.54	2052.02
591.89	2045.07
592.25	2038.61
592.60	2031.52
592.95	2024.16
593.30	2017.33
593.65	2010.11
594.00	2003.16
594.35	1996.07
594.70	1988.11
595.05	1981.48
595.40	1974.38
595.75	1967.10
596.10	1961.32
596.45	1954.64
596.80	1948.51
597.15	1942.01
597.50	1935.31
597.85	1928.91
598.19	1922.41
598.54	1915.64
598.89	1908.99
599.24	1903.07
599.59	1896.51
599.94	1890.28
600.29	1884.05
600.64	1877.33
600.99	1869.95
601.34	1863.36
601.69	1856.32
602.04	1849.63
602.39	1842.33
602.74	1835.62
603.08	1828.99
603.43	1822.27
603.78	1815.18
604.13	1808.12
604.48	1801.13
604.83	1794.20
605.18	1787.57
605.53	1779.74
605.87	1771.66
606.22	1764.53
606.57	1756.56
606.92	1749.11
607.27	1742.21
607.62	1735.36
607.96	1728.20
608.31	1721.92
608.66	1714.35
609.01	1707.02
609.36	1699.66
609.70	1691.60
610.05	1683.65
610.40	1675.99
610.75	1667.52
611.10	1659.70
611.44	1651.06
611.79	1642.95
612.14	1634.23
612.49	1624.86
612.83	1616.38
613.18	1608.29
613.53	1600.14
613.88	1591.51
614.22	1583.24
614.57	1574.28
614.92	1566.06
615.27	1558.62
615.61	1550.05
615.96	1541.94
616.31	1534.01
616.65	1526.42
617.00	1518.79
617.35	1510.88
617.70	1502.54
618.04	1494.00
618.39	1485.84
618.74	1478.37
619.08	1469.93
619.43	1462.26
619.78	1455.23
620.12	1447.97
620.47	1440.33
620.82	1432.01
621.16	1424.40
621.51	1416.58
621.85	1409.02
622.20	1400.49
622.55	1391.89
622.89	1384.03
623.24	1376.21
623.59	1368.82
623.93	1361.17
624.28	1353.75
624.62	1346.21
624.97	1338.85
625.32	1332.06
625.66	1324.91
626.01	1317.63
626.35	1310.29
626.70	1302.39
627.04	1294.64
627.39	1286.83
627.73	1279.37
628.08	1272.39
628.43	1265.23
628.77	1257.97
629.12	1250.38
629.46	1243.12
629.81	1235.50
630.15	1228.04
630.50	1220.48
630.84	1212.32
631.19	1204.27
631.53	1196.67
631.88	1188.96
632.22	1181.35
632.57	1173.95
632.91	1166.28
633.26	1158.83
633.60	1151.11
633.95	1143.81
634.29	1136.62
634.64	1129.75
634.98	1122.29
635.32	1115.09
635.67	1108.31
636.01	1101.54
636.36	1094.66
636.70	1088.00
637.05	1081.39
637.39	1074.92
637.73	1068.48
638.08	1062.52
638.42	1056.57
638.77	1050.13
639.11	1043.59
639.45	1037.08
639.80	1030.40
640.14	1023.95
640.49	1017.38
640.83	1011.15
641.17	1005.12
641.52	998.87
641.86	992.42
642.20	986.50
642.55	980.05
642.89	973.63
643.23	967.01
643.58	961.28
643.92	955.13
644.26	949.19
644.61	943.09
644.95	937.00
645.29	930.43
645.64	923.61
645.98	917.19
646.32	911.16
646.66	905.11
647.01	899.24
647.35	893.56
647.69	887.66
648.04	882.01
648.38	876.06
648.72	870.02
649.06	863.97
649.41	858.05
649.75	852.23
650.09	846.29
650.43	840.45
650.78	834.23
651.12	828.30
651.46	822.45
651.80	816.70
652.14	811.35
652.49	805.91
652.83	800.72
653.17	795.19
653.51	789.54
653.85	784.00
654.20	778.40
654.54	772.33
654.88	766.48
655.22	760.58
655.56	754.95
655.90	749.38
656.25	744.14
656.59	738.79
656.93	733.58
657.27	728.40
657.61	722.98
657.95	717.85
658.29	712.74
658.64	707.43
658.98	702.01
659.32	696.35
659.66	691.15
660.00	685.84
660.34	680.86
660.68	675.87
661.02	670.95
661.36	666.21
661.70	661.71
662.05	657.37
662.39	653.12
662.73	648.62
663.07	644.25
663.41	639.72
663.75	635.26
664.09	630.67
664.43	626.20
664.77	622.09
665.11	617.84
665.45	613.62
665.79	609.58
666.13	605.51
666.47	601.48
666.81	597.30
667.15	593.19
667.49	589.15
667.83	585.28
668.17	581.30
668.51	577.25
668.85	573.23
669.19	569.38
669.53	565.54
669.87	561.61
670.21	557.87
670.55	554.23
670.89	550.73
671.23	547.34
671.57	543.78
671.91	540.20
672.25	536.64
672.58	533.12
672.92	529.67
673.26	526.48
673.60	523.31
673.94	520.24
674.28	517.27
674.62	514.32
674.96	511.20
675.30	508.30
675.64	505.34
675.97	502.50
676.31	499.61
676.65	496.65
676.99	493.97
677.33	491.11
677.67	488.24
678.01	485.21
678.34	482.19
678.68	479.29
679.02	476.48
679.36	473.66
679.70	470.91
680.04	468.14
680.37	465.28
680.71	462.42
681.05	459.74
681.39	456.97
681.73	454.29
682.06	451.78
682.40	449.20
682.74	446.65
683.08	444.08
683.42	441.45
683.75	438.94
684.09	436.36
684.43	433.89
684.77	431.44
685.10	429.07
685.44	426.77
685.78	424.46
686.12	422.22
686.45	419.93
686.79	417.61
687.13	415.34
687.46	413.08
687.80	410.93
688.14	408.65
688.48	406.58
688.81	404.38
689.15	402.18
689.49	400.01
689.82	397.88
690.16	395.77
690.50	393.80
690.83	391.83
691.17	389.78
691.51	387.84
691.84	385.96
692.18	384.03
692.52	381.99
692.85	380.07
693.19	378.17
693.52	376.26
693.86	374.40
694.20	372.63
694.53	370.83
694.87	368.97
695.21	367.20
695.54	365.33
695.88	363.50
696.21	361.78
696.55	360.08
696.88	358.37
697.22	356.63
697.56	354.97
697.89	353.30
698.23	351.71
698.56	350.03
698.90	348.42
699.23	346.70
699.57	345.16
699.90	343.58
700.24	341.96
700.58	340.44
700.91	338.95
701.25	337.49
701.58	336.12
701.92	334.73
702.25	333.29
702.59	331.91
702.92	330.60
703.26	329.23
703.59	327.91
703.93	326.71
704.26	325.49
704.60	324.15
704.93	322.83
705.26	321.55
705.60	320.35
705.93	319.18
706.27	318.17
706.60	317.08
706.94	315.95
707.27	314.79
707.61	313.70
707.94	312.66
708.27	311.54
708.61	310.38
708.94	309.37
709.28	308.37
709.61	307.40
709.94	306.42
710.28	305.38
710.61	304.39
710.95	303.27
711.28	302.35
711.61	301.38
711.95	300.45
712.28	299.51
712.61	298.54
712.95	297.59
713.28	296.65
713.61	295.73
713.95	294.83
714.28	293.97
714.61	293.09
714.95	292.24
715.28	291.35
715.61	290.49
715.95	289.63
716.28	288.78
716.61	287.94
716.95	287.12
717.28	286.36
717.61	285.57
717.94	284.82
718.28	283.98
718.61	283.27
718.94	282.58
719.27	281.92
719.61	281.27
719.94	280.61
720.27	279.90
720.60	279.23
720.94	278.62
721.27	278.06
721.60	277.48
721.93	276.84
722.27	276.27
722.60	275.73
722.93	275.15
723.26	274.59
723.59	274.02
723.93	273.48
724.26	272.95
724.59	272.39
724.92	271.83
725.25	271.33
725.59	270.79
725.92	270.29
726.25	269.74
726.58	269.22
726.91	268.70
727.24	268.23
727.57	267.74
727.91	267.18
728.24	266.65
728.57	266.11
728.90	265.64
729.23	265.15
729.56	264.71
729.89	264.21
730.22	263.71
730.55	263.23
730.89	262.73
731.22	262.26
731.55	261.85
731.88	261.43
732.21	261.00
732.54	260.56
732.87	260.08
733.20	259.66
733.53	259.26
733.86	258.89
734.19	258.45
734.52	258.08
734.85	257.78
735.18	257.36
735.51	257.00
735.84	256.61
736.17	256.23
736.50	255.81
736.83	255.57
737.16	255.23
737.49	254.89
737.82	254.57
738.15	254.23
738.48	253.83
738.81	253.48
739.14	253.11
739.47	252.76
739.80	252.45
740.13	252.14
740.46	251.80
740.79	251.43
741.12	251.14
741.45	250.80
741.78	250.45
742.11	250.18
742.44	249.85
742.77	249.58
743.10	249.30
743.43	248.99
743.75	248.58
744.08	248.42
744.41	248.10
744.74	247.78
745.07	247.50
745.40	247.26
745.73	247.06
746.06	246.81
746.39	246.57
746.71	246.27
747.04	245.99
747.37	245.76
747.70	245.54
748.03	245.27
748.36	245.04
748.68	244.79
749.01	244.54
749.34	244.34
749.67	244.13
750.00	243.89
750.33	243.76
750.65	243.58
750.98	243.25
751.31	243.06
751.64	242.83
751.97	242.65
752.29	242.45
752.62	242.15
752.95	241.94
753.28	241.70
753.60	241.55
753.93	241.39
754.26	241.17
754.59	240.96
754.91	240.77
755.24	240.59
755.57	240.42
755.90	240.23
756.22	240.00
756.55	239.78
756.88	239.59
757.20	239.32
757.53	239.08
757.86	238.92
758.19	238.73
758.51	238.59
758.84	238.39
759.17	238.17
759.49	238.03
759.82	237.90
760.15	237.76
760.47	237.58
760.80	237.39
761.13	237.31
761.45	237.14
761.78	236.97
762.11	236.79
762.43	236.62
762.76	236.50
763.08	236.36
763.41	236.25
763.74	236.13
764.06	235.99
764.39	235.88
764.71	235.74
765.04	235.66
765.37	235.55
765.69	235.41
766.02	235.33
766.34	235.21
766.67	235.08
767.00	234.98
767.32	234.93
767.65	234.91
767.97	234.72
768.30	234.61
768.62	234.52
768.95	234.41
769.27	234.31
769.60	234.22
769.92	234.15
770.25	234.03
770.57	233.91
770.90	233.82
771.22	233.73
771.55	233.64
771.87	233.52
772.20	233.42
772.52	233.44
772.85	233.45
773.17	233.35
773.50	233.25
773.82	233.15
774.15	233.03
774.47	232.86
774.80	232.79
775.12	232.71
775.45	232.63
775.77	232.57
776.09	232.52
776.42	232.39
776.74	232.34
777.07	232.22
777.39	232.16
777.72	232.06
778.04	231.98
778.36	231.89
778.69	231.79
779.01	231.70
779.33	231.53
779.66	231.33
779.98	231.25
780.31	231.20
780.63	231.17
780.95	231.08
781.28	231.00
781.60	230.91
781.92	230.86
782.25	230.77
782.57	230.69
782.89	230.59
783.22	230.54
783.54	230.44
783.86	230.40
784.19	230.29
784.51	230.26
784.83	230.17
785.16	230.11
785.48	230.07
785.80	230.01
786.12	229.94
786.45	229.88
786.77	229.83
787.09	229.74
787.42	229.66
787.74	229.62
788.06	229.57
788.38	229.52
788.71	229.44
789.03	229.40
789.35	229.33
789.67	229.26
789.99	229.21
790.32	229.11
790.64	229.09
790.96	229.14
791.28	229.06
791.61	229.02
791.93	228.97
792.25	228.92
792.57	228.93
792.89	228.90
793.21	228.85
793.54	228.79
793.86	228.74
794.18	228.67
794.50	228.62
794.82	228.58
795.14	228.56
795.47	228.52
795.79	228.48
796.11	228.46
796.43	228.41
796.75	228.40
797.07	228.35
797.39	228.35
797.71	228.28
798.04	228.25
798.36	228.22
798.68	228.19
799.00	228.16
799.32	228.13
799.64	228.11
799.96	228.12
800.28	228.11
800.60	228.11
800.92	228.11
801.24	228.06
801.56	228.04
801.89	227.99
802.21	228.00
802.53	227.99
802.85	227.99
803.17	228.05
803.49	227.99
803.81	227.98
804.13	227.94
804.45	227.93
804.77	227.93
805.09	227.90
805.41	227.87
805.73	227.85
806.05	227.79
806.37	227.78
806.69	227.73
807.01	227.69
807.33	227.67
807.65	227.63
807.97	227.68
808.28	227.67
808.60	227.66
808.92	227.60
809.24	227.64
809.56	227.60
809.88	227.54
810.20	227.55
810.52	227.56
810.84	227.52
811.16	227.47
811.48	227.48
811.80	227.50
812.12	227.50
812.43	227.48
812.75	227.45
813.07	227.38
813.39	227.35
813.71	227.32
814.03	227.29
814.35	227.28
814.67	227.20
814.98	227.14
815.30	227.10
815.62	227.06
815.94	226.94
816.26	226.95
816.58	226.92
816.89	226.91
817.21	226.86
817.53	226.79
817.85	226.77
818.17	226.70
818.48	226.62
818.80	226.62
819.12	226.57
819.44	226.54
819.76	226.53
820.07	226.50
820.39	226.52
820.71	226.50
821.03	226.49
821.34	226.48
821.66	226.48
821.98	226.51
822.30	226.47
822.61	226.54
822.93	226.45
823.25	226.43
823.57	226.39
823.88	226.39
824.20	226.39
824.52	226.38
824.83	226.37
825.15	226.35
825.47	226.30
825.79	226.28
826.10	226.26
826.42	226.23
826.74	226.22
827.05	226.18
827.37	226.16
827.69	226.13
828.00	226.10
828.32	226.07
828.64	226.02
828.95	226.08
829.27	226.01
829.58	226.03
829.90	226.03
830.22	226.01
830.53	225.97
830.85	225.92
831.17	225.87
831.48	225.86
831.80	225.87
832.11	225.87
832.43	225.90
832.75	225.88
833.06	225.94
833.38	225.94
833.69	225.92
834.01	225.90
834.32	225.89
834.64	225.86
834.96	225.85
835.27	225.87
835.59	225.82
835.90	225.81
836.22	225.79
836.53	225.76
836.85	225.74
837.16	225.86
837.48	225.89
837.79	225.93
838.11	225.92
838.42	225.88
838.74	225.84
839.05	225.80
839.37	225.81
839.68	225.71
840.00	225.70
840.31	225.71
840.63	225.71
840.94	225.68
841.26	225.69
841.57	225.67
841.88	225.65
842.20	225.60
842.51	225.58
842.83	225.54
843.14	225.61
843.46	225.60
843.77	225.54
844.08	225.54
844.40	225.50
844.71	225.52
845.03	225.51
845.34	225.54
845.65	225.53
845.97	225.49
846.28	225.52
846.60	225.51
846.91	225.49
847.22	225.46
847.54	225.49
847.85	225.52
848.16	225.50
848.48	225.47
848.79	225.55
849.10	225.57
849.42	225.57
849.73	225.51
850.04	225.50
850.36	225.45
850.67	225.43
850.98	225.42
851.30	225.40
851.61	225.39
851.92	225.39
852.23	225.43
852.55	225.45
852.86	225.46
853.17	225.48
853.49	225.50
853.80	225.52
854.11	225.53
854.42	225.53
854.74	225.57
855.05	225.60
855.36	225.54
855.67	225.51
855.99	225.57
856.30	225.65
856.61	225.65
856.92	225.66
857.23	225.67
857.55	225.68
857.86	225.66
858.17	225.70
858.48	225.69
858.79	225.65
859.11	225.63
859.42	225.62
859.73	225.60
860.04	225.59
860.35	225.58
860.66	225.52
860.98	225.49
861.29	225.46
861.60	225.44
861.91	225.46
862.22	225.46
862.53	225.45
862.84	225.33
863.16	225.34
863.47	225.33
863.78	225.30
864.09	225.34
864.40	225.33
864.71	225.31
865.02	225.32
865.33	225.32
865.64	225.35
865.95	225.36
866.27	225.43
866.58	225.43
866.89	225.42
867.20	225.46
867.51	225.43
867.82	225.43
868.13	225.46
868.44	225.45
868.75	225.47
869.06	225.44
869.37	225.48
869.68	225.43
869.99	225.44
870.30	225.45
870.61	225.43
870.92	225.46
871.23	225.45
871.54	225.40
871.85	225.44
872.16	225.41
872.47	225.40
872.78	225.35
873.09	225.37
873.40	225.35
873.71	225.36
874.02	225.38
874.33	225.36
874.64	225.32
874.95	225.33
875.26	225.31
875.56	225.31
875.87	225.29
876.18	225.34
876.49	225.43
876.80	225.43
877.11	225.43
877.42	225.43
877.73	225.42
878.04	225.44
878.35	225.45
878.66	225.43
878.96	225.42
879.27	225.39
879.58	225.38
879.89	225.41
880.20	225.43
880.51	225.38
880.82	225.42
881.12	225.44
881.43	225.43
881.74	225.42
882.05	225.42
882.36	225.44
882.67	225.41
882.97	225.34
883.28	225.33
883.59	225.29
883.90	225.28
884.21	225.28
884.51	225.28
884.82	225.25
885.13	225.27
885.44	225.28
885.74	225.31
886.05	225.27
886.36	225.28
886.67	225.23
886.98	225.34
887.28	225.35
887.59	225.32
887.90	225.33
888.20	225.33
888.51	225.35
888.82	225.34
889.13	225.34
889.43	225.38
889.74	225.37
890.05	225.37
890.35	225.40
890.66	225.38
890.97	225.37
891.28	225.35
891.58	225.35
891.89	225.36
892.20	225.35
892.50	225.37
892.81	225.35
893.12	225.35
893.42	225.28
893.73	225.26
894.04	225.28
894.34	225.27
894.65	225.28
894.95	225.25
895.26	225.22
895.57	225.27
895.87	225.21
896.18	225.22
896.48	225.24
896.79	225.22
897.10	225.24
897.40	225.26
897.71	225.29
898.01	225.28
898.32	225.24
898.63	225.24
898.93	225.24
899.24	225.23
899.54	225.23
899.85	225.22
900.15	225.20
900.46	225.23
900.76	225.25
901.07	225.24
901.38	225.25
901.68	225.27
901.99	225.24
902.29	225.22
902.60	225.23
902.90	225.24
903.21	225.24
903.51	225.22
903.82	225.26
904.12	225.24
904.43	225.28
904.73	225.29
905.03	225.28
905.34	225.38
905.64	225.38
905.95	225.37
906.25	225.37
906.56	225.36
906.86	225.32
907.17	225.31
907.47	225.29
907.77	225.27
908.08	225.27
908.38	225.28
908.69	225.28
908.99	225.29
909.30	225.28
909.60	225.29
909.90	225.34
910.21	225.26
910.51	225.25
910.81	225.24
911.12	225.30
911.42	225.30
911.73	225.21
912.03	225.21
912.33	225.21
912.64	225.21
912.94	225.24
913.24	225.22
913.55	225.20
913.85	225.23
914.15	225.27
914.46	225.26
914.76	225.21
915.06	225.21
915.37	225.20
915.67	225.17
915.97	225.14
916.27	225.10
916.58	225.14
916.88	225.13
917.18	225.10
917.49	225.12
917.79	225.13
918.09	225.13
918.39	225.15
918.70	225.17
919.00	225.17
919.30	225.20
919.60	225.21
919.91	225.18
920.21	225.19
920.51	225.18
920.81	225.22
921.12	225.27
921.42	225.26
921.72	225.29
922.02	225.30
922.32	225.35
922.63	225.35
922.93	225.36
923.23	225.36
923.53	225.35
923.83	225.27
924.13	225.25
924.44	225.21
924.74	225.24
925.04	225.26
925.34	225.23
925.64	225.16
925.94	225.16
926.24	225.22
926.55	225.17
926.85	225.16
927.15	225.11
927.45	225.09
927.75	225.08
928.05	225.05
928.35	225.03
928.65	225.02
928.95	224.99
929.26	224.95
929.56	224.96
929.86	224.96
930.16	224.98
930.46	224.97
930.76	225.00
931.06	224.92
931.36	224.89
931.66	224.93
931.96	224.96
932.26	224.95
932.56	224.90
932.86	224.92
933.16	224.91
933.46	224.90
933.76	224.88
934.06	224.89
934.36	224.93
934.66	224.95
934.96	224.93
935.26	224.94
935.56	224.96
935.86	224.96
936.16	224.95
936.46	224.95
936.76	224.95
937.06	224.94
937.36	224.95
937.66	224.94
937.96	224.91
938.26	224.88
938.56	224.88
938.86	224.89
939.16	224.92
939.46	224.92
939.76	224.95
940.06	224.96
940.35	224.92
940.65	224.85
940.95	224.84
941.25	224.85
941.55	224.87
941.85	224.84
942.15	224.85
942.45	224.86
942.75	224.84
943.04	224.85
943.34	224.87
943.64	224.87
943.94	224.86
944.24	224.88
944.54	224.89
944.84	224.89
945.13	224.86
945.43	224.84
945.73	224.82
946.03	224.81
946.33	224.78
946.62	224.79
946.92	224.80
947.22	224.82
947.52	224.78
947.82	224.76
948.11	224.76
948.41	224.75
948.71	224.78
949.01	224.79
949.31	224.78
949.60	224.75
949.90	224.80
950.20	224.81
950.50	224.80
950.79	224.81
951.09	224.82
951.39	224.85
951.69	224.85
951.98	224.92
952.28	224.93
952.58	224.95
952.87	224.94
953.17	224.96
953.47	224.94
953.76	224.98
954.06	224.98
954.36	224.98
954.66	224.98
954.95	224.95
955.25	224.93
955.55	224.96
955.84	224.95
956.14	224.92
956.44	224.94
956.73	224.92
957.03	224.94
957.32	224.95
957.62	224.94
957.92	224.96
958.21	224.89
958.51	224.99
958.81	225.01
959.10	225.03
959.40	225.05
959.69	225.05
959.99	225.06
960.29	225.04
960.58	225.04
960.88	225.06
961.17	225.05
961.47	225.05
961.76	225.06
962.06	225.10
962.36	225.11
962.65	225.11
962.95	225.12
963.24	225.11
963.54	225.08
963.83	225.07
964.13	225.06
964.42	225.05
964.72	224.99
965.01	224.99
965.31	224.98
965.60	224.95
965.90	225.02
966.19	224.99
966.49	225.01
966.78	225.01
967.08	225.01
967.37	225.04
967.67	225.04
967.96	225.01
968.26	224.98
968.55	224.99
968.85	224.96
969.14	224.94
969.43	224.92
969.73	224.93
970.02	224.95
970.32	224.96
970.61	225.00
970.91	224.95
971.20	224.94
971.49	224.90
971.79	224.94
972.08	224.88
972.38	224.89
972.67	224.88
972.96	224.90
973.26	224.86
973.55	224.90
973.85	224.91
974.14	224.90
974.43	224.90
974.73	224.88
975.02	224.87
975.31	224.86
975.61	224.86
975.90	224.86
976.19	224.84
976.49	224.85
976.78	224.85
977.07	224.88
977.37	224.87
977.66	224.91
977.95	224.88
978.24	224.87
978.54	224.91
978.83	224.89
979.12	224.90
979.42	224.92
979.71	224.86
980.00	224.85
980.29	224.85
980.59	224.79
980.88	224.82
981.17	224.83
981.46	224.83
981.76	224.84
982.05	224.84
982.34	224.86
982.63	224.82
982.93	224.78
983.22	224.78
983.51	224.79
983.80	224.78
984.09	224.79
984.39	224.77
984.68	224.73
984.97	224.73
985.26	224.68
985.55	224.67
985.85	224.65
986.14	224.67
986.43	224.67
986.72	224.70
987.01	224.67
987.30	224.65
987.59	224.64
987.89	224.64
988.18	224.61
988.47	224.58
988.76	224.58
989.05	224.62
989.34	224.57
989.63	224.58
989.92	224.54
990.22	224.53
990.51	224.55
990.80	224.53
991.09	224.54
991.38	224.55
991.67	224.55
991.96	224.52
992.25	224.51
992.54	224.49
992.83	224.47
993.12	224.45
993.41	224.46
993.70	224.54
993.99	224.52
994.28	224.55
994.58	224.59
994.87	224.58
995.16	224.56
995.45	224.55
995.74	224.52
996.03	224.56
996.32	224.57
996.61	224.57
996.90	224.60
997.19	224.57
997.48	224.57
997.77	224.58
998.06	224.61
998.34	224.60
998.63	224.58
998.92	224.60
999.21	224.63
999.50	224.64
999.79	224.60
1000.08	224.61
1000.37	224.63
1000.66	224.58
1000.95	224.59
1001.24	224.61
1001.53	224.64
1001.82	224.62
1002.11	224.62
1002.40	224.62
1002.68	224.65
1002.97	224.67
1003.26	224.72
1003.55	224.74
1003.84	224.74
1004.13	224.75
1004.42	224.74
1004.71	224.74
1004.99	224.74
1005.28	224.75
1005.57	224.74
1005.86	224.74
1006.15	224.74
1006.44	224.72
1006.72	224.74
1007.01	224.76
1007.30	224.75
1007.59	224.74
1007.88	224.76
1008.17	224.77
1008.45	224.76
1008.74	224.75
1009.03	224.75
1009.32	224.74
1009.60	224.74
1009.89	224.72
1010.18	224.74
1010.47	224.75
1010.76	224.77
1011.04	224.77
1011.33	224.78
1011.62	224.80
1011.91	224.80
1012.19	224.84
1012.48	224.82
1012.77	224.86
1013.05	224.91
1013.34	224.90
1013.63	224.94
1013.92	224.98
1014.20	224.97
1014.49	224.98
1014.78	224.98
1015.06	224.95
1015.35	224.92
1015.64	224.94
1015.92	224.98
1016.21	224.98
1016.50	225.00
1016.78	225.03
1017.07	225.03
1017.36	225.02
1017.64	225.01
1017.93	225.00
1018.22	224.99
1018.50	225.01
1018.79	225.02
1019.08	224.95
1019.36	225.00
1019.65	224.93
1019.93	224.89
1020.22	224.89
1020.51	224.96
1020.79	224.95
1021.08	225.10
1021.36	225.06
1021.65	225.51
1021.94	224.69
1022.22	225.51
1022.51	224.27
1022.79	224.66
1023.08	224.84
1023.36	226.32
1023.65	224.73
>>>>>End Processed Spectral Data<<<<<
