SpectraSuite Data File
++++++++++++++++++++++++++++++++++++
Date: Fri Feb 01 15:45:22 EST 2013
User: group
Dark Spectrum Present: No
Reference Spectrum Present: No
Number of Sampled Component Spectra: 1
Spectrometers: USB2E7196
Integration Time (usec): 35000 (USB2E7196)
Spectra Averaged: 100 (USB2E7196)
Boxcar Smoothing: 10 (USB2E7196)
Correct for Electrical Dark: No (USB2E7196)
Strobe/Lamp Enabled: No (USB2E7196)
Correct for Detector Non-linearity: No (USB2E7196)
Correct for Stray Light: No (USB2E7196)
Number of Pixels in Processed Spectrum: 2048
>>>>>Begin Processed Spectral Data<<<<<
339.09	0.00
339.48	215.27
339.86	216.90
340.24	218.01
340.63	219.50
341.01	221.91
341.39	222.20
341.78	222.69
342.16	224.32
342.54	224.68
342.93	213.22
343.31	223.99
343.69	224.50
344.07	224.96
344.46	225.34
344.84	225.70
345.22	225.96
345.60	226.17
345.99	226.36
346.37	226.48
346.75	226.57
347.13	226.64
347.52	226.69
347.90	226.74
348.28	226.77
348.66	226.79
349.05	226.79
349.43	226.82
349.81	226.85
350.19	226.90
350.57	226.94
350.96	226.98
351.34	227.05
351.72	227.13
352.10	227.18
352.48	227.30
352.87	227.36
353.25	227.39
353.63	227.46
354.01	227.54
354.39	227.60
354.77	227.68
355.15	227.80
355.54	227.87
355.92	227.93
356.30	228.00
356.68	228.16
357.06	228.21
357.44	228.27
357.82	228.32
358.20	228.37
358.58	228.42
358.97	228.48
359.35	228.58
359.73	228.68
360.11	228.75
360.49	228.78
360.87	228.85
361.25	228.91
361.63	229.03
362.01	229.04
362.39	229.09
362.77	229.12
363.15	229.14
363.53	229.16
363.91	229.20
364.29	229.24
364.67	229.16
365.05	229.22
365.43	229.26
365.81	229.34
366.19	229.42
366.57	229.47
366.95	229.45
367.33	229.40
367.71	229.39
368.09	229.40
368.47	229.39
368.85	229.35
369.23	229.35
369.61	229.27
369.99	229.32
370.37	229.31
370.75	229.38
371.13	229.35
371.51	229.31
371.89	229.29
372.27	229.26
372.65	229.20
373.03	229.12
373.41	229.07
373.78	228.96
374.16	228.83
374.54	228.75
374.92	228.71
375.30	228.67
375.68	228.59
376.06	228.50
376.44	228.42
376.82	228.34
377.19	228.27
377.57	228.22
377.95	228.09
378.33	228.00
378.71	227.87
379.09	227.81
379.47	227.75
379.84	227.64
380.22	227.53
380.60	227.47
380.98	227.42
381.36	227.33
381.73	227.26
382.11	227.24
382.49	227.21
382.87	227.11
383.25	227.04
383.62	227.07
384.00	227.01
384.38	226.97
384.76	226.94
385.13	226.91
385.51	226.82
385.89	226.77
386.27	226.73
386.64	226.68
387.02	226.63
387.40	226.59
387.78	226.59
388.15	226.56
388.53	226.51
388.91	226.50
389.29	226.50
389.66	226.50
390.04	226.46
390.42	226.42
390.79	226.43
391.17	226.41
391.55	226.31
391.92	226.32
392.30	226.31
392.68	226.29
393.05	226.27
393.43	226.29
393.81	226.29
394.18	226.26
394.56	226.25
394.94	226.30
395.31	226.31
395.69	226.33
396.06	226.39
396.44	226.44
396.82	226.43
397.19	226.49
397.57	226.54
397.95	226.58
398.32	226.60
398.70	226.67
399.07	226.77
399.45	226.84
399.82	226.90
400.20	226.95
400.58	227.04
400.95	227.11
401.33	227.25
401.70	227.44
402.08	227.55
402.45	227.64
402.83	227.76
403.20	227.89
403.58	227.98
403.95	228.08
404.33	228.21
404.71	228.38
405.08	228.57
405.46	228.68
405.83	228.83
406.21	228.98
406.58	229.16
406.96	229.33
407.33	229.54
407.70	229.74
408.08	230.04
408.45	230.26
408.83	230.50
409.20	230.71
409.58	230.88
409.95	231.14
410.33	231.41
410.70	231.62
411.08	231.91
411.45	232.25
411.82	232.57
412.20	232.93
412.57	233.34
412.95	233.66
413.32	234.09
413.69	234.50
414.07	234.99
414.44	235.44
414.82	235.90
415.19	236.43
415.56	236.97
415.94	237.50
416.31	238.15
416.68	238.76
417.06	239.44
417.43	240.11
417.81	240.90
418.18	241.70
418.55	242.57
418.93	243.43
419.30	244.33
419.67	245.28
420.04	246.23
420.42	247.22
420.79	248.38
421.16	249.51
421.54	250.69
421.91	251.86
422.28	253.11
422.66	254.46
423.03	255.78
423.40	257.11
423.77	258.53
424.15	259.95
424.52	261.46
424.89	263.09
425.26	264.64
425.64	266.09
426.01	267.68
426.38	269.32
426.75	271.01
427.13	272.73
427.50	274.52
427.87	276.38
428.24	278.22
428.61	279.96
428.99	281.92
429.36	284.02
429.73	286.11
430.10	288.14
430.47	290.15
430.85	292.26
431.22	294.51
431.59	296.90
431.96	299.13
432.33	301.60
432.70	303.98
433.08	306.83
433.45	309.49
433.82	312.14
434.19	315.03
434.56	317.83
434.93	320.47
435.30	323.07
435.68	325.97
436.05	328.82
436.42	331.63
436.79	334.20
437.16	336.92
437.53	339.73
437.90	342.51
438.27	345.26
438.64	348.04
439.01	350.61
439.38	352.80
439.75	354.93
440.13	357.43
440.50	359.75
440.87	361.57
441.24	363.47
441.61	365.60
441.98	367.06
442.35	368.80
442.72	370.65
443.09	372.44
443.46	373.40
443.83	373.97
444.20	374.42
444.57	375.19
444.94	375.45
445.31	375.77
445.68	376.14
446.05	376.20
446.42	375.83
446.79	375.41
447.16	374.96
447.53	374.68
447.90	373.51
448.27	372.36
448.64	370.77
449.01	369.63
449.37	367.63
449.74	365.77
450.11	363.60
450.48	361.09
450.85	358.55
451.22	356.45
451.59	354.41
451.96	352.50
452.33	349.91
452.70	347.55
453.07	344.73
453.43	341.83
453.80	339.10
454.17	336.43
454.54	333.90
454.91	331.18
455.28	328.57
455.65	326.05
456.02	323.54
456.38	321.37
456.75	318.72
457.12	316.50
457.49	314.25
457.86	312.08
458.23	310.28
458.59	308.30
458.96	306.23
459.33	304.40
459.70	302.54
460.07	301.05
460.43	299.32
460.80	297.71
461.17	296.30
461.54	294.77
461.91	293.35
462.27	291.91
462.64	290.69
463.01	289.28
463.38	287.99
463.74	286.67
464.11	285.55
464.48	284.53
464.85	283.42
465.21	282.55
465.58	281.64
465.95	280.53
466.32	279.60
466.68	278.67
467.05	277.75
467.42	276.85
467.78	275.92
468.15	275.05
468.52	274.38
468.88	273.56
469.25	272.80
469.62	272.18
469.98	271.50
470.35	270.85
470.72	270.27
471.08	269.65
471.45	269.11
471.82	268.53
472.18	267.94
472.55	267.51
472.92	267.01
473.28	266.52
473.65	266.06
474.02	265.63
474.38	265.27
474.75	264.97
475.11	264.62
475.48	264.32
475.85	264.09
476.21	263.86
476.58	263.62
476.94	263.45
477.31	263.26
477.67	263.11
478.04	263.01
478.41	262.94
478.77	262.94
479.14	262.87
479.50	262.88
479.87	262.96
480.23	263.03
480.60	263.03
480.96	263.09
481.33	263.29
481.69	263.48
482.06	263.67
482.42	263.85
482.79	264.12
483.15	264.46
483.52	264.84
483.88	265.19
484.25	265.58
484.61	266.03
484.98	266.48
485.34	267.08
485.71	267.66
486.07	268.26
486.44	268.87
486.80	269.59
487.17	270.33
487.53	271.11
487.90	271.96
488.26	272.93
488.62	273.94
488.99	274.94
489.35	275.96
489.72	277.07
490.08	278.26
490.44	279.47
490.81	280.77
491.17	282.14
491.54	283.60
491.90	285.11
492.26	286.76
492.63	288.51
492.99	290.26
493.36	292.17
493.72	294.20
494.08	296.26
494.45	298.47
494.81	300.83
495.17	303.29
495.54	305.82
495.90	308.52
496.26	311.34
496.63	314.30
496.99	317.41
497.35	320.68
497.72	324.09
498.08	327.65
498.44	331.39
498.80	335.33
499.17	339.41
499.53	343.63
499.89	347.99
500.26	352.50
500.62	357.15
500.98	362.03
501.34	367.07
501.71	372.43
502.07	377.90
502.43	383.56
502.79	389.37
503.16	395.51
503.52	401.81
503.88	408.21
504.24	414.84
504.60	421.74
504.97	428.94
505.33	436.32
505.69	444.07
506.05	451.86
506.41	459.74
506.78	467.93
507.14	476.39
507.50	485.12
507.86	494.13
508.22	503.33
508.59	512.60
508.95	522.24
509.31	532.04
509.67	542.19
510.03	552.43
510.39	563.01
510.75	573.77
511.12	584.70
511.48	596.00
511.84	607.46
512.20	619.00
512.56	630.88
512.92	643.07
513.28	655.42
513.64	667.89
514.00	680.57
514.37	693.53
514.73	706.63
515.09	719.63
515.45	732.87
515.81	746.49
516.17	760.47
516.53	774.60
516.89	788.74
517.25	802.93
517.61	817.41
517.97	831.90
518.33	846.38
518.69	861.28
519.05	876.32
519.41	891.47
519.77	907.03
520.13	922.53
520.49	937.86
520.85	953.27
521.21	968.97
521.57	985.24
521.93	1000.92
522.29	1017.25
522.65	1033.56
523.01	1049.85
523.37	1065.88
523.73	1082.10
524.09	1098.14
524.45	1114.51
524.81	1131.05
525.17	1147.79
525.53	1164.68
525.89	1181.48
526.25	1198.13
526.61	1214.51
526.97	1231.27
527.33	1247.69
527.68	1264.24
528.04	1280.75
528.40	1297.30
528.76	1314.43
529.12	1331.00
529.48	1347.83
529.84	1363.97
530.20	1380.67
530.56	1397.77
530.91	1415.26
531.27	1432.03
531.63	1448.63
531.99	1465.24
532.35	1481.17
532.71	1497.13
533.07	1513.32
533.42	1529.20
533.78	1545.29
534.14	1561.65
534.50	1576.97
534.86	1592.93
535.21	1608.11
535.57	1624.07
535.93	1639.51
536.29	1654.22
536.65	1669.40
537.00	1684.39
537.36	1699.61
537.72	1714.04
538.08	1728.35
538.44	1742.03
538.79	1755.90
539.15	1769.51
539.51	1783.07
539.87	1797.55
540.22	1811.31
540.58	1825.15
540.94	1838.50
541.29	1851.44
541.65	1864.14
542.01	1877.49
542.37	1889.81
542.72	1902.39
543.08	1914.13
543.44	1926.54
543.79	1937.74
544.15	1948.61
544.51	1960.06
544.87	1970.92
545.22	1981.76
545.58	1992.10
545.94	2001.72
546.29	2011.63
546.65	2021.41
547.01	2030.87
547.36	2039.44
547.72	2047.87
548.07	2055.65
548.43	2063.91
548.79	2071.90
549.14	2079.19
549.50	2086.45
549.86	2094.12
550.21	2101.35
550.57	2108.43
550.92	2114.94
551.28	2122.05
551.64	2129.07
551.99	2135.54
552.35	2141.73
552.70	2147.83
553.06	2153.66
553.41	2160.23
553.77	2166.20
554.13	2172.42
554.48	2178.44
554.84	2183.92
555.19	2189.16
555.55	2194.37
555.90	2198.83
556.26	2203.64
556.61	2208.51
556.97	2212.76
557.32	2216.89
557.68	2221.00
558.03	2225.41
558.39	2229.19
558.74	2233.78
559.10	2237.71
559.45	2241.45
559.81	2245.86
560.16	2249.68
560.52	2252.93
560.87	2256.35
561.23	2258.97
561.58	2262.00
561.94	2264.59
562.29	2267.04
562.64	2269.72
563.00	2272.21
563.35	2275.69
563.71	2278.88
564.06	2282.07
564.42	2284.90
564.77	2287.23
565.12	2289.51
565.48	2291.40
565.83	2293.33
566.19	2294.59
566.54	2295.46
566.89	2296.48
567.25	2297.05
567.60	2298.36
567.96	2300.08
568.31	2300.99
568.66	2302.09
569.02	2302.46
569.37	2302.81
569.72	2303.59
570.08	2303.69
570.43	2303.83
570.78	2303.21
571.14	2301.61
571.49	2300.16
571.84	2299.97
572.20	2298.96
572.55	2297.79
572.90	2296.26
573.26	2294.83
573.61	2293.24
573.96	2291.32
574.31	2288.52
574.67	2285.45
575.02	2281.82
575.37	2278.29
575.72	2274.37
576.08	2271.09
576.43	2267.82
576.78	2263.98
577.13	2260.80
577.49	2257.78
577.84	2254.20
578.19	2250.49
578.54	2246.98
578.90	2242.73
579.25	2237.12
579.60	2232.06
579.95	2227.06
580.30	2221.78
580.66	2216.55
581.01	2211.58
581.36	2206.79
581.71	2202.53
582.06	2197.90
582.42	2193.51
582.77	2188.45
583.12	2183.74
583.47	2178.92
583.82	2173.94
584.17	2168.72
584.53	2163.32
584.88	2157.63
585.23	2151.95
585.58	2146.48
585.93	2140.99
586.28	2136.32
586.63	2131.21
586.98	2126.27
587.34	2121.63
587.69	2116.91
588.04	2111.61
588.39	2105.87
588.74	2099.38
589.09	2093.16
589.44	2086.64
589.79	2080.59
590.14	2074.91
590.49	2068.47
590.84	2062.15
591.19	2056.03
591.54	2049.51
591.89	2042.07
592.25	2035.29
592.60	2027.98
592.95	2020.32
593.30	2012.86
593.65	2005.27
594.00	1998.24
594.35	1990.85
594.70	1982.77
595.05	1975.37
595.40	1968.23
595.75	1960.75
596.10	1954.57
596.45	1947.88
596.80	1941.60
597.15	1934.95
597.50	1927.67
597.85	1921.17
598.19	1914.41
598.54	1907.31
598.89	1900.85
599.24	1894.96
599.59	1888.22
599.94	1882.09
600.29	1875.74
600.64	1869.25
600.99	1861.78
601.34	1854.87
601.69	1848.01
602.04	1840.92
602.39	1833.67
602.74	1826.74
603.08	1820.02
603.43	1813.17
603.78	1805.77
604.13	1798.51
604.48	1791.02
604.83	1784.29
605.18	1777.31
605.53	1769.30
605.87	1761.31
606.22	1754.00
606.57	1746.00
606.92	1738.68
607.27	1731.38
607.62	1724.43
607.96	1716.95
608.31	1710.23
608.66	1702.54
609.01	1694.85
609.36	1687.53
609.70	1679.54
610.05	1671.32
610.40	1663.49
610.75	1655.20
611.10	1647.46
611.44	1639.00
611.79	1631.09
612.14	1622.29
612.49	1613.15
612.83	1604.78
613.18	1596.58
613.53	1588.44
613.88	1579.89
614.22	1571.61
614.57	1563.08
614.92	1555.05
615.27	1547.43
615.61	1539.12
615.96	1531.20
616.31	1523.58
616.65	1516.06
617.00	1508.50
617.35	1501.10
617.70	1492.85
618.04	1484.44
618.39	1476.30
618.74	1468.77
619.08	1460.50
619.43	1453.05
619.78	1446.13
620.12	1438.92
620.47	1431.41
620.82	1423.21
621.16	1415.85
621.51	1408.29
621.85	1400.61
622.20	1392.10
622.55	1383.93
622.89	1376.16
623.24	1368.50
623.59	1361.31
623.93	1353.88
624.28	1346.73
624.62	1339.04
624.97	1331.85
625.32	1325.05
625.66	1318.06
626.01	1310.81
626.35	1303.30
626.70	1295.54
627.04	1287.78
627.39	1280.00
627.73	1272.64
628.08	1265.76
628.43	1258.40
628.77	1251.00
629.12	1243.46
629.46	1236.29
629.81	1228.85
630.15	1221.56
630.50	1214.12
630.84	1205.77
631.19	1197.89
631.53	1190.35
631.88	1182.97
632.22	1175.30
632.57	1167.99
632.91	1160.47
633.26	1153.10
633.60	1145.85
633.95	1138.70
634.29	1131.72
634.64	1125.09
634.98	1117.68
635.32	1110.47
635.67	1103.92
636.01	1097.27
636.36	1090.49
636.70	1083.98
637.05	1077.34
637.39	1070.83
637.73	1064.38
638.08	1058.52
638.42	1052.47
638.77	1045.97
639.11	1039.21
639.45	1032.83
639.80	1026.09
640.14	1019.64
640.49	1013.11
640.83	1006.68
641.17	1000.47
641.52	994.11
641.86	987.70
642.20	981.88
642.55	975.66
642.89	969.09
643.23	962.53
643.58	956.74
643.92	950.53
644.26	944.45
644.61	938.47
644.95	932.39
645.29	925.77
645.64	919.05
645.98	912.75
646.32	906.99
646.66	901.01
647.01	895.35
647.35	889.58
647.69	883.74
648.04	878.28
648.38	872.49
648.72	866.38
649.06	860.28
649.41	854.41
649.75	848.43
650.09	842.58
650.43	836.77
650.78	830.62
651.12	824.65
651.46	819.02
651.80	813.32
652.14	807.97
652.49	802.59
652.83	797.36
653.17	791.65
653.51	785.89
653.85	780.48
654.20	774.68
654.54	768.67
654.88	762.98
655.22	757.13
655.56	751.41
655.90	746.09
656.25	740.81
656.59	735.38
656.93	730.28
657.27	725.07
657.61	719.69
657.95	714.62
658.29	709.58
658.64	704.31
658.98	698.99
659.32	693.50
659.66	688.32
660.00	682.98
660.34	678.09
660.68	673.17
661.02	668.16
661.36	663.53
661.70	659.03
662.05	654.61
662.39	650.35
662.73	645.93
663.07	641.51
663.41	637.07
663.75	632.61
664.09	628.03
664.43	623.61
664.77	619.57
665.11	615.27
665.45	611.10
665.79	607.00
666.13	602.84
666.47	598.73
666.81	594.58
667.15	590.52
667.49	586.57
667.83	582.78
668.17	578.80
668.51	574.72
668.85	570.69
669.19	566.88
669.53	562.91
669.87	559.03
670.21	555.33
670.55	551.71
670.89	548.26
671.23	544.80
671.57	541.29
671.91	537.61
672.25	534.15
672.58	530.63
672.92	527.22
673.26	524.06
673.60	520.89
673.94	517.77
674.28	514.86
674.62	511.89
674.96	508.73
675.30	505.82
675.64	502.87
675.97	500.12
676.31	497.23
676.65	494.31
676.99	491.59
677.33	488.71
677.67	485.88
678.01	482.85
678.34	479.84
678.68	476.94
679.02	474.18
679.36	471.42
679.70	468.74
680.04	465.99
680.37	463.09
680.71	460.31
681.05	457.67
681.39	454.92
681.73	452.27
682.06	449.75
682.40	447.25
682.74	444.78
683.08	442.26
683.42	439.66
683.75	437.22
684.09	434.66
684.43	432.22
684.77	429.77
685.10	427.43
685.44	425.23
685.78	422.98
686.12	420.68
686.45	418.36
686.79	416.01
687.13	413.85
687.46	411.71
687.80	409.54
688.14	407.32
688.48	405.24
688.81	403.00
689.15	400.87
689.49	398.69
689.82	396.54
690.16	394.47
690.50	392.46
690.83	390.47
691.17	388.52
691.51	386.58
691.84	384.72
692.18	382.80
692.52	380.73
692.85	378.81
693.19	377.00
693.52	375.19
693.86	373.38
694.20	371.60
694.53	369.77
694.87	367.96
695.21	366.19
695.54	364.45
695.88	362.73
696.21	361.00
696.55	359.31
696.88	357.62
697.22	355.95
697.56	354.38
697.89	352.73
698.23	351.09
698.56	349.50
698.90	347.87
699.23	346.22
699.57	344.69
699.90	343.14
700.24	341.60
700.58	340.04
700.91	338.56
701.25	337.09
701.58	335.76
701.92	334.42
702.25	333.04
702.59	331.65
702.92	330.32
703.26	328.99
703.59	327.69
703.93	326.52
704.26	325.28
704.60	323.95
704.93	322.67
705.26	321.41
705.60	320.22
705.93	319.06
706.27	318.06
706.60	316.99
706.94	315.93
707.27	314.77
707.61	313.73
707.94	312.72
708.27	311.61
708.61	310.53
708.94	309.47
709.28	308.48
709.61	307.51
709.94	306.57
710.28	305.58
710.61	304.62
710.95	303.56
711.28	302.64
711.61	301.72
711.95	300.84
712.28	299.91
712.61	298.92
712.95	298.00
713.28	297.11
713.61	296.22
713.95	295.37
714.28	294.56
714.61	293.70
714.95	292.83
715.28	291.98
715.61	291.07
715.95	290.25
716.28	289.40
716.61	288.59
716.95	287.79
717.28	287.02
717.61	286.26
717.94	285.49
718.28	284.74
718.61	284.00
718.94	283.27
719.27	282.63
719.61	281.97
719.94	281.31
720.27	280.56
720.60	279.89
720.94	279.24
721.27	278.62
721.60	278.02
721.93	277.44
722.27	276.88
722.60	276.36
722.93	275.80
723.26	275.26
723.59	274.70
723.93	274.13
724.26	273.61
724.59	273.06
724.92	272.55
725.25	272.02
725.59	271.51
725.92	271.00
726.25	270.47
726.58	270.00
726.91	269.54
727.24	269.09
727.57	268.61
727.91	268.10
728.24	267.67
728.57	267.21
728.90	266.72
729.23	266.23
729.56	265.79
729.89	265.31
730.22	264.83
730.55	264.33
730.89	263.88
731.22	263.42
731.55	262.99
731.88	262.59
732.21	262.16
732.54	261.73
732.87	261.33
733.20	260.96
733.53	260.57
733.86	260.15
734.19	259.75
734.52	259.37
734.85	259.06
735.18	258.61
735.51	258.24
735.84	257.90
736.17	257.57
736.50	257.19
736.83	256.95
737.16	256.58
737.49	256.27
737.82	255.93
738.15	255.62
738.48	255.29
738.81	254.93
739.14	254.59
739.47	254.30
739.80	253.97
740.13	253.68
740.46	253.35
740.79	253.04
741.12	252.70
741.45	252.36
741.78	251.99
742.11	251.75
742.44	251.40
742.77	251.09
743.10	250.79
743.43	250.51
743.75	250.15
744.08	250.02
744.41	249.74
744.74	249.48
745.07	249.20
745.40	248.92
745.73	248.68
746.06	248.41
746.39	248.12
746.71	247.85
747.04	247.57
747.37	247.33
747.70	247.10
748.03	246.89
748.36	246.69
748.68	246.47
749.01	246.21
749.34	245.98
749.67	245.78
750.00	245.50
750.33	245.35
750.65	245.13
750.98	244.79
751.31	244.54
751.64	244.33
751.97	244.15
752.29	243.94
752.62	243.68
752.95	243.47
753.28	243.26
753.60	243.09
753.93	242.93
754.26	242.71
754.59	242.48
754.91	242.28
755.24	242.07
755.57	241.87
755.90	241.67
756.22	241.50
756.55	241.29
756.88	241.10
757.20	240.86
757.53	240.64
757.86	240.47
758.19	240.32
758.51	240.16
758.84	239.94
759.17	239.75
759.49	239.62
759.82	239.49
760.15	239.34
760.47	239.16
760.80	238.96
761.13	238.84
761.45	238.70
761.78	238.56
762.11	238.43
762.43	238.29
762.76	238.14
763.08	238.01
763.41	237.89
763.74	237.79
764.06	237.63
764.39	237.48
764.71	237.32
765.04	237.17
765.37	237.01
765.69	236.89
766.02	236.77
766.34	236.65
766.67	236.50
767.00	236.43
767.32	236.35
767.65	236.27
767.97	236.16
768.30	236.03
768.62	235.91
768.95	235.77
769.27	235.63
769.60	235.53
769.92	235.41
770.25	235.25
770.57	235.10
770.90	235.02
771.22	234.93
771.55	234.82
771.87	234.75
772.20	234.67
772.52	234.67
772.85	234.69
773.17	234.60
773.50	234.49
773.82	234.35
774.15	234.23
774.47	234.13
774.80	234.02
775.12	233.93
775.45	233.84
775.77	233.74
776.09	233.70
776.42	233.64
776.74	233.59
777.07	233.54
777.39	233.48
777.72	233.40
778.04	233.37
778.36	233.32
778.69	233.26
779.01	233.22
779.33	233.02
779.66	232.87
779.98	232.81
780.31	232.78
780.63	232.75
780.95	232.71
781.28	232.59
781.60	232.56
781.92	232.55
782.25	232.51
782.57	232.46
782.89	232.40
783.22	232.32
783.54	232.23
783.86	232.16
784.19	232.13
784.51	232.11
784.83	232.05
785.16	231.99
785.48	231.93
785.80	231.87
786.12	231.86
786.45	231.81
786.77	231.78
787.09	231.73
787.42	231.66
787.74	231.63
788.06	231.62
788.38	231.53
788.71	231.46
789.03	231.40
789.35	231.39
789.67	231.30
789.99	231.26
790.32	231.22
790.64	231.21
790.96	231.21
791.28	231.15
791.61	231.09
791.93	231.04
792.25	230.97
792.57	231.02
792.89	230.98
793.21	230.94
793.54	230.86
793.86	230.82
794.18	230.77
794.50	230.72
794.82	230.66
795.14	230.65
795.47	230.60
795.79	230.58
796.11	230.52
796.43	230.48
796.75	230.44
797.07	230.41
797.39	230.37
797.71	230.31
798.04	230.25
798.36	230.23
798.68	230.21
799.00	230.19
799.32	230.07
799.64	230.04
799.96	230.03
800.28	230.01
800.60	229.97
800.92	229.94
801.24	229.90
801.56	229.88
801.89	229.86
802.21	229.83
802.53	229.77
802.85	229.79
803.17	229.84
803.49	229.78
803.81	229.73
804.13	229.71
804.45	229.65
804.77	229.62
805.09	229.56
805.41	229.54
805.73	229.50
806.05	229.46
806.37	229.46
806.69	229.38
807.01	229.35
807.33	229.34
807.65	229.27
807.97	229.26
808.28	229.22
808.60	229.16
808.92	229.14
809.24	229.17
809.56	229.11
809.88	229.03
810.20	229.04
810.52	229.04
810.84	229.01
811.16	228.96
811.48	228.96
811.80	229.00
812.12	228.91
812.43	228.88
812.75	228.85
813.07	228.81
813.39	228.81
813.71	228.77
814.03	228.75
814.35	228.76
814.67	228.71
814.98	228.67
815.30	228.67
815.62	228.66
815.94	228.61
816.26	228.60
816.58	228.57
816.89	228.58
817.21	228.55
817.53	228.55
817.85	228.58
818.17	228.55
818.48	228.51
818.80	228.54
819.12	228.57
819.44	228.59
819.76	228.58
820.07	228.58
820.39	228.56
820.71	228.54
821.03	228.52
821.34	228.52
821.66	228.54
821.98	228.55
822.30	228.52
822.61	228.55
822.93	228.50
823.25	228.55
823.57	228.53
823.88	228.55
824.20	228.52
824.52	228.52
824.83	228.52
825.15	228.49
825.47	228.50
825.79	228.51
826.10	228.49
826.42	228.46
826.74	228.47
827.05	228.45
827.37	228.47
827.69	228.45
828.00	228.44
828.32	228.44
828.64	228.43
828.95	228.45
829.27	228.44
829.58	228.45
829.90	228.40
830.22	228.39
830.53	228.38
830.85	228.36
831.17	228.32
831.48	228.31
831.80	228.31
832.11	228.30
832.43	228.25
832.75	228.22
833.06	228.29
833.38	228.22
833.69	228.23
834.01	228.22
834.32	228.24
834.64	228.18
834.96	228.13
835.27	228.08
835.59	228.07
835.90	228.02
836.22	227.98
836.53	227.94
836.85	227.90
837.16	227.99
837.48	227.96
837.79	227.97
838.11	227.95
838.42	227.94
838.74	227.94
839.05	227.89
839.37	227.86
839.68	227.75
840.00	227.75
840.31	227.75
840.63	227.72
840.94	227.68
841.26	227.70
841.57	227.69
841.88	227.72
842.20	227.69
842.51	227.70
842.83	227.68
843.14	227.78
843.46	227.76
843.77	227.70
844.08	227.70
844.40	227.68
844.71	227.69
845.03	227.68
845.34	227.66
845.65	227.68
845.97	227.68
846.28	227.70
846.60	227.71
846.91	227.69
847.22	227.69
847.54	227.71
847.85	227.70
848.16	227.70
848.48	227.66
848.79	227.66
849.10	227.66
849.42	227.70
849.73	227.59
850.04	227.59
850.36	227.51
850.67	227.54
850.98	227.53
851.30	227.51
851.61	227.49
851.92	227.49
852.23	227.51
852.55	227.51
852.86	227.46
853.17	227.49
853.49	227.47
853.80	227.46
854.11	227.43
854.42	227.43
854.74	227.44
855.05	227.45
855.36	227.43
855.67	227.40
855.99	227.37
856.30	227.46
856.61	227.45
856.92	227.49
857.23	227.46
857.55	227.45
857.86	227.49
858.17	227.51
858.48	227.49
858.79	227.43
859.11	227.45
859.42	227.49
859.73	227.44
860.04	227.45
860.35	227.44
860.66	227.41
860.98	227.43
861.29	227.41
861.60	227.39
861.91	227.39
862.22	227.41
862.53	227.40
862.84	227.34
863.16	227.37
863.47	227.34
863.78	227.35
864.09	227.35
864.40	227.31
864.71	227.31
865.02	227.32
865.33	227.33
865.64	227.30
865.95	227.27
866.27	227.34
866.58	227.34
866.89	227.35
867.20	227.38
867.51	227.33
867.82	227.33
868.13	227.36
868.44	227.36
868.75	227.35
869.06	227.37
869.37	227.36
869.68	227.32
869.99	227.34
870.30	227.36
870.61	227.37
870.92	227.38
871.23	227.39
871.54	227.39
871.85	227.42
872.16	227.40
872.47	227.44
872.78	227.41
873.09	227.41
873.40	227.38
873.71	227.36
874.02	227.38
874.33	227.41
874.64	227.34
874.95	227.39
875.26	227.37
875.56	227.33
875.87	227.32
876.18	227.27
876.49	227.37
876.80	227.33
877.11	227.29
877.42	227.29
877.73	227.25
878.04	227.22
878.35	227.19
878.66	227.23
878.96	227.21
879.27	227.20
879.58	227.16
879.89	227.17
880.20	227.24
880.51	227.21
880.82	227.17
881.12	227.19
881.43	227.12
881.74	227.10
882.05	227.12
882.36	227.12
882.67	227.17
882.97	227.06
883.28	227.05
883.59	227.03
883.90	227.02
884.21	227.05
884.51	227.06
884.82	227.08
885.13	227.05
885.44	227.04
885.74	227.05
886.05	227.07
886.36	227.10
886.67	227.03
886.98	227.10
887.28	227.15
887.59	227.18
887.90	227.22
888.20	227.23
888.51	227.24
888.82	227.24
889.13	227.23
889.43	227.30
889.74	227.33
890.05	227.33
890.35	227.33
890.66	227.31
890.97	227.29
891.28	227.25
891.58	227.25
891.89	227.23
892.20	227.20
892.50	227.18
892.81	227.14
893.12	227.16
893.42	227.09
893.73	227.07
894.04	227.04
894.34	227.00
894.65	226.98
894.95	226.97
895.26	226.93
895.57	226.99
895.87	226.89
896.18	226.91
896.48	226.95
896.79	226.94
897.10	226.96
897.40	226.98
897.71	227.00
898.01	226.99
898.32	227.00
898.63	226.98
898.93	226.99
899.24	226.99
899.54	226.98
899.85	226.98
900.15	226.98
900.46	226.97
900.76	227.00
901.07	227.00
901.38	227.00
901.68	227.05
901.99	227.01
902.29	227.04
902.60	227.01
902.90	226.97
903.21	226.98
903.51	226.95
903.82	226.97
904.12	226.97
904.43	226.96
904.73	226.98
905.03	226.98
905.34	227.07
905.64	227.11
905.95	227.07
906.25	227.08
906.56	227.06
906.86	227.04
907.17	227.02
907.47	227.05
907.77	227.02
908.08	226.99
908.38	226.97
908.69	226.92
908.99	226.93
909.30	226.95
909.60	226.98
909.90	226.98
910.21	226.93
910.51	226.94
910.81	226.96
911.12	226.95
911.42	226.98
911.73	226.86
912.03	226.81
912.33	226.84
912.64	226.85
912.94	226.85
913.24	226.86
913.55	226.86
913.85	226.85
914.15	226.87
914.46	226.90
914.76	226.89
915.06	226.92
915.37	226.91
915.67	226.93
915.97	226.89
916.27	226.86
916.58	226.89
916.88	226.85
917.18	226.84
917.49	226.91
917.79	226.86
918.09	226.90
918.39	226.94
918.70	226.94
919.00	226.93
919.30	226.96
919.60	226.96
919.91	226.96
920.21	226.98
920.51	226.97
920.81	226.97
921.12	226.96
921.42	226.96
921.72	226.97
922.02	226.91
922.32	226.93
922.63	226.96
922.93	226.99
923.23	227.00
923.53	226.98
923.83	226.90
924.13	226.94
924.44	226.93
924.74	226.95
925.04	226.96
925.34	226.95
925.64	226.93
925.94	226.94
926.24	226.96
926.55	226.92
926.85	226.93
927.15	226.93
927.45	226.90
927.75	226.91
928.05	226.89
928.35	226.91
928.65	226.93
928.95	226.91
929.26	226.89
929.56	226.90
929.86	226.92
930.16	226.93
930.46	226.90
930.76	226.91
931.06	226.86
931.36	226.86
931.66	226.88
931.96	226.89
932.26	226.87
932.56	226.85
932.86	226.85
933.16	226.84
933.46	226.82
933.76	226.86
934.06	226.89
934.36	226.92
934.66	226.88
934.96	226.85
935.26	226.87
935.56	226.84
935.86	226.81
936.16	226.80
936.46	226.79
936.76	226.77
937.06	226.75
937.36	226.74
937.66	226.76
937.96	226.75
938.26	226.72
938.56	226.69
938.86	226.69
939.16	226.71
939.46	226.72
939.76	226.72
940.06	226.72
940.35	226.67
940.65	226.64
940.95	226.65
941.25	226.63
941.55	226.64
941.85	226.63
942.15	226.69
942.45	226.68
942.75	226.66
943.04	226.69
943.34	226.69
943.64	226.71
943.94	226.68
944.24	226.65
944.54	226.65
944.84	226.68
945.13	226.67
945.43	226.64
945.73	226.61
946.03	226.61
946.33	226.59
946.62	226.58
946.92	226.59
947.22	226.58
947.52	226.58
947.82	226.55
948.11	226.55
948.41	226.50
948.71	226.47
949.01	226.46
949.31	226.43
949.60	226.44
949.90	226.45
950.20	226.45
950.50	226.46
950.79	226.47
951.09	226.47
951.39	226.46
951.69	226.47
951.98	226.53
952.28	226.52
952.58	226.52
952.87	226.51
953.17	226.49
953.47	226.54
953.76	226.58
954.06	226.57
954.36	226.56
954.66	226.56
954.95	226.63
955.25	226.66
955.55	226.72
955.84	226.71
956.14	226.70
956.44	226.73
956.73	226.73
957.03	226.74
957.32	226.76
957.62	226.73
957.92	226.77
958.21	226.76
958.51	226.86
958.81	226.86
959.10	226.90
959.40	226.93
959.69	226.92
959.99	226.92
960.29	226.97
960.58	226.98
960.88	227.03
961.17	227.00
961.47	227.02
961.76	227.01
962.06	227.05
962.36	227.03
962.65	227.02
962.95	227.02
963.24	227.03
963.54	227.02
963.83	227.06
964.13	227.03
964.42	227.00
964.72	226.97
965.01	226.97
965.31	226.95
965.60	226.93
965.90	227.01
966.19	227.01
966.49	226.98
966.78	226.99
967.08	226.97
967.37	227.01
967.67	227.00
967.96	226.99
968.26	226.97
968.55	227.01
968.85	227.00
969.14	227.02
969.43	227.01
969.73	227.02
970.02	227.01
970.32	227.01
970.61	227.02
970.91	226.98
971.20	226.98
971.49	226.96
971.79	226.98
972.08	226.90
972.38	226.89
972.67	226.88
972.96	226.90
973.26	226.88
973.55	226.88
973.85	226.88
974.14	226.89
974.43	226.90
974.73	226.85
975.02	226.81
975.31	226.80
975.61	226.80
975.90	226.77
976.19	226.77
976.49	226.78
976.78	226.75
977.07	226.74
977.37	226.75
977.66	226.76
977.95	226.72
978.24	226.71
978.54	226.73
978.83	226.71
979.12	226.70
979.42	226.67
979.71	226.62
980.00	226.60
980.29	226.58
980.59	226.55
980.88	226.57
981.17	226.60
981.46	226.59
981.76	226.58
982.05	226.60
982.34	226.61
982.63	226.60
982.93	226.59
983.22	226.63
983.51	226.58
983.80	226.58
984.09	226.61
984.39	226.60
984.68	226.57
984.97	226.60
985.26	226.57
985.55	226.58
985.85	226.59
986.14	226.59
986.43	226.58
986.72	226.57
987.01	226.58
987.30	226.57
987.59	226.58
987.89	226.58
988.18	226.56
988.47	226.57
988.76	226.57
989.05	226.60
989.34	226.58
989.63	226.68
989.92	226.65
990.22	226.61
990.51	226.65
990.80	226.62
991.09	226.60
991.38	226.66
991.67	226.66
991.96	226.64
992.25	226.65
992.54	226.68
992.83	226.67
993.12	226.65
993.41	226.67
993.70	226.68
993.99	226.70
994.28	226.71
994.58	226.73
994.87	226.69
995.16	226.67
995.45	226.66
995.74	226.58
996.03	226.65
996.32	226.72
996.61	226.74
996.90	226.78
997.19	226.80
997.48	226.76
997.77	226.76
998.06	226.78
998.34	226.80
998.63	226.78
998.92	226.83
999.21	226.86
999.50	226.88
999.79	226.84
1000.08	226.84
1000.37	226.85
1000.66	226.82
1000.95	226.87
1001.24	226.90
1001.53	226.94
1001.82	226.95
1002.11	226.94
1002.40	226.96
1002.68	227.01
1002.97	227.07
1003.26	227.06
1003.55	227.08
1003.84	227.10
1004.13	227.15
1004.42	227.15
1004.71	227.20
1004.99	227.17
1005.28	227.18
1005.57	227.17
1005.86	227.20
1006.15	227.22
1006.44	227.18
1006.72	227.20
1007.01	227.20
1007.30	227.20
1007.59	227.17
1007.88	227.15
1008.17	227.13
1008.45	227.09
1008.74	227.03
1009.03	227.01
1009.32	226.99
1009.60	226.95
1009.89	226.96
1010.18	226.93
1010.47	226.90
1010.76	226.85
1011.04	226.82
1011.33	226.83
1011.62	226.82
1011.91	226.79
1012.19	226.78
1012.48	226.80
1012.77	226.79
1013.05	226.82
1013.34	226.82
1013.63	226.79
1013.92	226.79
1014.20	226.75
1014.49	226.71
1014.78	226.75
1015.06	226.68
1015.35	226.66
1015.64	226.69
1015.92	226.68
1016.21	226.69
1016.50	226.67
1016.78	226.68
1017.07	226.70
1017.36	226.66
1017.64	226.66
1017.93	226.68
1018.22	226.67
1018.50	226.65
1018.79	226.65
1019.08	226.60
1019.36	226.57
1019.65	226.57
1019.93	226.57
1020.22	226.56
1020.51	226.62
1020.79	226.55
1021.08	226.54
1021.36	226.15
1021.65	226.86
1021.94	226.48
1022.22	226.24
1022.51	226.17
1022.79	226.40
1023.08	225.97
1023.36	227.52
1023.65	225.98
>>>>>End Processed Spectral Data<<<<<
