SpectraSuite Data File
++++++++++++++++++++++++++++++++++++
Date: Fri Feb 01 15:47:44 EST 2013
User: group
Dark Spectrum Present: No
Reference Spectrum Present: No
Number of Sampled Component Spectra: 1
Spectrometers: USB2E7196
Integration Time (usec): 35000 (USB2E7196)
Spectra Averaged: 100 (USB2E7196)
Boxcar Smoothing: 10 (USB2E7196)
Correct for Electrical Dark: No (USB2E7196)
Strobe/Lamp Enabled: No (USB2E7196)
Correct for Detector Non-linearity: No (USB2E7196)
Correct for Stray Light: No (USB2E7196)
Number of Pixels in Processed Spectrum: 2048
>>>>>Begin Processed Spectral Data<<<<<
339.09	0.00
339.48	215.30
339.86	216.42
340.24	217.12
340.63	218.94
341.01	222.28
341.39	221.92
341.78	223.07
342.16	223.81
342.54	224.65
342.93	213.09
343.31	223.85
343.69	224.36
344.07	224.80
344.46	225.24
344.84	225.58
345.22	225.80
345.60	226.03
345.99	226.19
346.37	226.32
346.75	226.39
347.13	226.43
347.52	226.46
347.90	226.53
348.28	226.55
348.66	226.59
349.05	226.59
349.43	226.58
349.81	226.64
350.19	226.63
350.57	226.69
350.96	226.74
351.34	226.81
351.72	226.86
352.10	226.94
352.48	226.99
352.87	227.04
353.25	227.08
353.63	227.10
354.01	227.16
354.39	227.23
354.77	227.33
355.15	227.45
355.54	227.52
355.92	227.54
356.30	227.63
356.68	227.75
357.06	227.82
357.44	227.90
357.82	227.98
358.20	228.08
358.58	228.12
358.97	228.20
359.35	228.28
359.73	228.38
360.11	228.46
360.49	228.54
360.87	228.65
361.25	228.71
361.63	228.82
362.01	228.91
362.39	228.95
362.77	229.01
363.15	229.03
363.53	229.09
363.91	229.16
364.29	229.19
364.67	229.14
365.05	229.16
365.43	229.20
365.81	229.23
366.19	229.27
366.57	229.34
366.95	229.33
367.33	229.35
367.71	229.34
368.09	229.35
368.47	229.34
368.85	229.30
369.23	229.32
369.61	229.28
369.99	229.28
370.37	229.30
370.75	229.30
371.13	229.27
371.51	229.21
371.89	229.17
372.27	229.13
372.65	229.06
373.03	229.04
373.41	228.99
373.78	228.91
374.16	228.83
374.54	228.73
374.92	228.68
375.30	228.60
375.68	228.52
376.06	228.47
376.44	228.42
376.82	228.35
377.19	228.31
377.57	228.22
377.95	228.11
378.33	228.04
378.71	227.90
379.09	227.84
379.47	227.79
379.84	227.72
380.22	227.64
380.60	227.57
380.98	227.49
381.36	227.41
381.73	227.35
382.11	227.32
382.49	227.29
382.87	227.23
383.25	227.17
383.62	227.21
384.00	227.11
384.38	227.05
384.76	227.04
385.13	226.98
385.51	226.92
385.89	226.90
386.27	226.83
386.64	226.81
387.02	226.75
387.40	226.71
387.78	226.64
388.15	226.61
388.53	226.58
388.91	226.53
389.29	226.48
389.66	226.43
390.04	226.38
390.42	226.36
390.79	226.30
391.17	226.30
391.55	226.18
391.92	226.21
392.30	226.20
392.68	226.17
393.05	226.16
393.43	226.18
393.81	226.19
394.18	226.20
394.56	226.21
394.94	226.23
395.31	226.20
395.69	226.28
396.06	226.32
396.44	226.36
396.82	226.38
397.19	226.49
397.57	226.52
397.95	226.56
398.32	226.60
398.70	226.66
399.07	226.71
399.45	226.80
399.82	226.82
400.20	226.89
400.58	226.94
400.95	226.98
401.33	227.07
401.70	227.19
402.08	227.30
402.45	227.38
402.83	227.49
403.20	227.61
403.58	227.73
403.95	227.86
404.33	228.01
404.71	228.14
405.08	228.34
405.46	228.48
405.83	228.64
406.21	228.77
406.58	228.96
406.96	229.13
407.33	229.27
407.70	229.49
408.08	229.76
408.45	230.02
408.83	230.28
409.20	230.48
409.58	230.66
409.95	230.93
410.33	231.20
410.70	231.45
411.08	231.78
411.45	232.07
411.82	232.38
412.20	232.72
412.57	233.14
412.95	233.43
413.32	233.85
413.69	234.28
414.07	234.73
414.44	235.21
414.82	235.72
415.19	236.30
415.56	236.85
415.94	237.40
416.31	238.05
416.68	238.67
417.06	239.42
417.43	240.12
417.81	240.88
418.18	241.67
418.55	242.54
418.93	243.44
419.30	244.33
419.67	245.30
420.04	246.27
420.42	247.25
420.79	248.45
421.16	249.62
421.54	250.82
421.91	252.03
422.28	253.29
422.66	254.63
423.03	255.93
423.40	257.26
423.77	258.64
424.15	260.06
424.52	261.57
424.89	263.14
425.26	264.68
425.64	266.15
426.01	267.74
426.38	269.41
426.75	271.02
427.13	272.74
427.50	274.50
427.87	276.37
428.24	278.25
428.61	279.98
428.99	281.90
429.36	284.01
429.73	286.08
430.10	288.11
430.47	290.15
430.85	292.29
431.22	294.54
431.59	296.98
431.96	299.18
432.33	301.65
432.70	304.04
433.08	306.86
433.45	309.46
433.82	312.10
434.19	314.91
434.56	317.71
434.93	320.39
435.30	323.02
435.68	325.97
436.05	328.80
436.42	331.56
436.79	334.09
437.16	336.82
437.53	339.66
437.90	342.47
438.27	345.19
438.64	348.01
439.01	350.58
439.38	352.76
439.75	355.00
440.13	357.49
440.50	359.82
440.87	361.68
441.24	363.59
441.61	365.75
441.98	367.28
442.35	369.08
442.72	370.88
443.09	372.66
443.46	373.61
443.83	374.21
444.20	374.73
444.57	375.55
444.94	375.83
445.31	376.11
445.68	376.42
446.05	376.53
446.42	376.15
446.79	375.71
447.16	375.25
447.53	374.86
447.90	373.70
448.27	372.54
448.64	370.91
449.01	369.85
449.37	367.88
449.74	366.01
450.11	363.78
450.48	361.35
450.85	358.89
451.22	356.70
451.59	354.66
451.96	352.72
452.33	350.16
452.70	347.78
453.07	344.97
453.43	342.07
453.80	339.26
454.17	336.58
454.54	334.09
454.91	331.41
455.28	328.75
455.65	326.27
456.02	323.82
456.38	321.69
456.75	318.95
457.12	316.68
457.49	314.44
457.86	312.29
458.23	310.41
458.59	308.34
458.96	306.31
459.33	304.46
459.70	302.62
460.07	301.12
460.43	299.37
460.80	297.73
461.17	296.30
461.54	294.84
461.91	293.43
462.27	291.98
462.64	290.72
463.01	289.37
463.38	288.11
463.74	286.73
464.11	285.60
464.48	284.63
464.85	283.55
465.21	282.72
465.58	281.80
465.95	280.70
466.32	279.78
466.68	278.90
467.05	278.02
467.42	277.14
467.78	276.18
468.15	275.33
468.52	274.72
468.88	273.86
469.25	273.08
469.62	272.44
469.98	271.80
470.35	271.20
470.72	270.64
471.08	269.96
471.45	269.42
471.82	268.88
472.18	268.28
472.55	267.83
472.92	267.29
473.28	266.80
473.65	266.36
474.02	265.94
474.38	265.56
474.75	265.21
475.11	264.84
475.48	264.55
475.85	264.34
476.21	264.10
476.58	263.93
476.94	263.80
477.31	263.66
477.67	263.46
478.04	263.31
478.41	263.22
478.77	263.23
479.14	263.19
479.50	263.15
479.87	263.20
480.23	263.27
480.60	263.34
480.96	263.42
481.33	263.65
481.69	263.83
482.06	264.03
482.42	264.20
482.79	264.45
483.15	264.80
483.52	265.14
483.88	265.46
484.25	265.82
484.61	266.24
484.98	266.64
485.34	267.19
485.71	267.77
486.07	268.37
486.44	268.95
486.80	269.64
487.17	270.39
487.53	271.21
487.90	272.05
488.26	272.94
488.62	273.93
488.99	274.88
489.35	275.90
489.72	276.98
490.08	278.14
490.44	279.39
490.81	280.69
491.17	282.04
491.54	283.54
491.90	285.07
492.26	286.68
492.63	288.43
492.99	290.23
493.36	292.10
493.72	294.16
494.08	296.27
494.45	298.50
494.81	300.85
495.17	303.28
495.54	305.85
495.90	308.58
496.26	311.40
496.63	314.37
496.99	317.48
497.35	320.73
497.72	324.20
498.08	327.72
498.44	331.41
498.80	335.27
499.17	339.27
499.53	343.45
499.89	347.81
500.26	352.30
500.62	356.96
500.98	361.97
501.34	367.08
501.71	372.39
502.07	377.84
502.43	383.50
502.79	389.25
503.16	395.33
503.52	401.57
503.88	407.94
504.24	414.57
504.60	421.43
504.97	428.57
505.33	435.88
505.69	443.63
506.05	451.43
506.41	459.37
506.78	467.58
507.14	476.04
507.50	484.84
507.86	493.86
508.22	503.07
508.59	512.21
508.95	521.82
509.31	531.60
509.67	541.69
510.03	552.01
510.39	562.61
510.75	573.39
511.12	584.36
511.48	595.69
511.84	607.15
512.20	618.75
512.56	630.75
512.92	642.96
513.28	655.20
513.64	667.69
514.00	680.38
514.37	693.29
514.73	706.37
515.09	719.40
515.45	732.69
515.81	746.24
516.17	760.32
516.53	774.40
516.89	788.67
517.25	802.88
517.61	817.29
517.97	831.76
518.33	846.26
518.69	861.05
519.05	876.07
519.41	891.32
519.77	906.85
520.13	922.23
520.49	937.56
520.85	953.06
521.21	968.80
521.57	985.14
521.93	1001.01
522.29	1017.41
522.65	1033.60
523.01	1049.86
523.37	1065.90
523.73	1082.05
524.09	1098.13
524.45	1114.38
524.81	1130.97
525.17	1147.73
525.53	1164.56
525.89	1181.36
526.25	1198.11
526.61	1214.47
526.97	1231.13
527.33	1247.60
527.68	1264.24
528.04	1280.75
528.40	1297.43
528.76	1314.46
529.12	1331.02
529.48	1347.81
529.84	1363.94
530.20	1380.69
530.56	1397.66
530.91	1415.08
531.27	1431.89
531.63	1448.32
531.99	1464.96
532.35	1480.85
532.71	1496.75
533.07	1513.07
533.42	1528.98
533.78	1545.11
534.14	1561.37
534.50	1576.76
534.86	1592.67
535.21	1607.80
535.57	1623.82
535.93	1639.29
536.29	1654.06
536.65	1669.03
537.00	1683.81
537.36	1698.98
537.72	1713.45
538.08	1727.90
538.44	1741.72
538.79	1755.47
539.15	1769.20
539.51	1782.90
539.87	1797.30
540.22	1811.07
540.58	1824.84
540.94	1838.30
541.29	1851.12
541.65	1863.76
542.01	1876.91
542.37	1889.12
542.72	1901.60
543.08	1913.31
543.44	1925.60
543.79	1936.79
544.15	1947.78
544.51	1959.33
544.87	1970.27
545.22	1981.02
545.58	1991.13
545.94	2000.91
546.29	2010.86
546.65	2020.72
547.01	2029.85
547.36	2038.61
547.72	2046.99
548.07	2054.81
548.43	2062.93
548.79	2071.12
549.14	2078.57
549.50	2085.95
549.86	2093.67
550.21	2100.92
550.57	2108.06
550.92	2114.57
551.28	2121.63
551.64	2128.71
551.99	2135.22
552.35	2141.25
552.70	2147.43
553.06	2153.45
553.41	2159.78
553.77	2165.79
554.13	2171.89
554.48	2178.27
554.84	2183.61
555.19	2189.08
555.55	2194.25
555.90	2198.63
556.26	2203.33
556.61	2208.19
556.97	2212.40
557.32	2216.63
557.68	2220.94
558.03	2225.21
558.39	2229.09
558.74	2233.73
559.10	2237.65
559.45	2241.28
559.81	2245.73
560.16	2249.59
560.52	2252.91
560.87	2256.28
561.23	2259.05
561.58	2261.95
561.94	2264.32
562.29	2266.75
562.64	2269.31
563.00	2271.88
563.35	2275.55
563.71	2278.77
564.06	2281.91
564.42	2284.88
564.77	2287.34
565.12	2289.44
565.48	2291.41
565.83	2293.21
566.19	2294.57
566.54	2295.44
566.89	2296.59
567.25	2297.11
567.60	2298.50
567.96	2300.11
568.31	2300.98
568.66	2301.95
569.02	2302.45
569.37	2302.75
569.72	2303.64
570.08	2303.60
570.43	2303.68
570.78	2303.03
571.14	2301.39
571.49	2300.12
571.84	2299.76
572.20	2298.58
572.55	2297.60
572.90	2296.05
573.26	2294.65
573.61	2292.92
573.96	2291.13
574.31	2288.16
574.67	2285.09
575.02	2281.35
575.37	2277.91
575.72	2274.02
576.08	2270.69
576.43	2267.40
576.78	2263.71
577.13	2260.69
577.49	2257.70
577.84	2254.20
578.19	2250.34
578.54	2246.66
578.90	2242.37
579.25	2236.76
579.60	2231.61
579.95	2226.57
580.30	2221.56
580.66	2216.43
581.01	2211.43
581.36	2206.53
581.71	2202.19
582.06	2197.85
582.42	2193.35
582.77	2188.10
583.12	2183.62
583.47	2178.76
583.82	2173.75
584.17	2168.50
584.53	2162.74
584.88	2157.08
585.23	2151.27
585.58	2145.88
585.93	2140.44
586.28	2135.72
586.63	2130.58
586.98	2125.65
587.34	2120.86
587.69	2115.90
588.04	2110.54
588.39	2104.96
588.74	2098.55
589.09	2092.43
589.44	2085.52
589.79	2079.63
590.14	2074.12
590.49	2067.46
590.84	2061.19
591.19	2055.04
591.54	2048.55
591.89	2041.19
592.25	2034.51
592.60	2027.29
592.95	2019.65
593.30	2012.33
593.65	2004.74
594.00	1997.67
594.35	1990.54
594.70	1982.55
595.05	1975.30
595.40	1968.09
595.75	1960.58
596.10	1954.26
596.45	1947.63
596.80	1941.53
597.15	1934.78
597.50	1927.46
597.85	1921.10
598.19	1914.40
598.54	1907.34
598.89	1900.63
599.24	1894.81
599.59	1887.95
599.94	1881.80
600.29	1875.45
600.64	1868.86
600.99	1861.33
601.34	1854.58
601.69	1847.41
602.04	1840.57
602.39	1833.24
602.74	1826.17
603.08	1819.30
603.43	1812.53
603.78	1805.26
604.13	1797.96
604.48	1790.56
604.83	1783.82
605.18	1776.64
605.53	1768.64
605.87	1760.61
606.22	1753.57
606.57	1745.61
606.92	1738.43
607.27	1731.15
607.62	1724.16
607.96	1716.81
608.31	1710.29
608.66	1702.68
609.01	1695.18
609.36	1687.56
609.70	1679.57
610.05	1671.65
610.40	1663.96
610.75	1655.64
611.10	1647.82
611.44	1639.48
611.79	1631.57
612.14	1622.85
612.49	1613.83
612.83	1605.50
613.18	1597.42
613.53	1589.20
613.88	1580.55
614.22	1572.09
614.57	1563.52
614.92	1555.39
615.27	1547.89
615.61	1539.50
615.96	1531.46
616.31	1523.88
616.65	1516.42
617.00	1508.76
617.35	1501.06
617.70	1492.66
618.04	1484.18
618.39	1476.04
618.74	1468.36
619.08	1460.11
619.43	1452.57
619.78	1445.68
620.12	1438.46
620.47	1431.01
620.82	1422.82
621.16	1415.51
621.51	1407.94
621.85	1400.30
622.20	1391.82
622.55	1383.42
622.89	1375.55
623.24	1367.93
623.59	1360.45
623.93	1352.89
624.28	1345.69
624.62	1338.16
624.97	1331.07
625.32	1324.33
625.66	1317.27
626.01	1310.16
626.35	1302.72
626.70	1294.96
627.04	1287.15
627.39	1279.40
627.73	1271.99
628.08	1265.19
628.43	1257.86
628.77	1250.59
629.12	1243.05
629.46	1235.94
629.81	1228.64
630.15	1221.38
630.50	1214.00
630.84	1205.87
631.19	1198.14
631.53	1190.66
631.88	1183.13
632.22	1175.56
632.57	1168.22
632.91	1160.78
633.26	1153.32
633.60	1145.90
633.95	1138.78
634.29	1131.75
634.64	1125.00
634.98	1117.60
635.32	1110.32
635.67	1103.74
636.01	1097.03
636.36	1090.22
636.70	1083.80
637.05	1077.12
637.39	1070.70
637.73	1064.17
638.08	1058.30
638.42	1052.24
638.77	1045.75
639.11	1039.11
639.45	1032.71
639.80	1026.06
640.14	1019.50
640.49	1013.00
640.83	1006.69
641.17	1000.50
641.52	994.17
641.86	987.77
642.20	981.92
642.55	975.66
642.89	969.20
643.23	962.66
643.58	956.86
643.92	950.58
644.26	944.53
644.61	938.52
644.95	932.42
645.29	925.80
645.64	919.04
645.98	912.78
646.32	906.99
646.66	900.96
647.01	895.11
647.35	889.44
647.69	883.66
648.04	878.21
648.38	872.43
648.72	866.40
649.06	860.35
649.41	854.47
649.75	848.55
650.09	842.61
650.43	836.89
650.78	830.74
651.12	824.79
651.46	819.02
651.80	813.22
652.14	807.88
652.49	802.44
652.83	797.30
653.17	791.57
653.51	785.86
653.85	780.45
654.20	774.88
654.54	768.88
654.88	763.13
655.22	757.16
655.56	751.42
655.90	746.04
656.25	740.79
656.59	735.38
656.93	730.26
657.27	725.05
657.61	719.61
657.95	714.52
658.29	709.39
658.64	704.17
658.98	698.89
659.32	693.40
659.66	688.27
660.00	682.90
660.34	677.98
660.68	673.04
661.02	668.01
661.36	663.23
661.70	658.78
662.05	654.39
662.39	650.07
662.73	645.59
663.07	641.16
663.41	636.64
663.75	632.15
664.09	627.62
664.43	623.25
664.77	619.11
665.11	614.87
665.45	610.78
665.79	606.67
666.13	602.60
666.47	598.60
666.81	594.38
667.15	590.24
667.49	586.21
667.83	582.39
668.17	578.44
668.51	574.34
668.85	570.31
669.19	566.42
669.53	562.59
669.87	558.72
670.21	555.02
670.55	551.44
670.89	547.99
671.23	544.46
671.57	540.94
671.91	537.39
672.25	533.88
672.58	530.36
672.92	526.99
673.26	523.82
673.60	520.58
673.94	517.46
674.28	514.63
674.62	511.71
674.96	508.59
675.30	505.62
675.64	502.67
675.97	499.90
676.31	497.06
676.65	494.04
676.99	491.35
677.33	488.52
677.67	485.68
678.01	482.56
678.34	479.62
678.68	476.77
679.02	473.98
679.36	471.24
679.70	468.52
680.04	465.80
680.37	462.86
680.71	460.12
681.05	457.51
681.39	454.74
681.73	452.12
682.06	449.61
682.40	447.08
682.74	444.63
683.08	442.10
683.42	439.50
683.75	437.07
684.09	434.58
684.43	432.10
684.77	429.67
685.10	427.44
685.44	425.17
685.78	422.88
686.12	420.63
686.45	418.36
686.79	416.04
687.13	413.79
687.46	411.70
687.80	409.55
688.14	407.38
688.48	405.34
688.81	403.11
689.15	401.01
689.49	398.91
689.82	396.84
690.16	394.80
690.50	392.85
690.83	390.86
691.17	388.85
691.51	386.98
691.84	385.17
692.18	383.20
692.52	381.22
692.85	379.30
693.19	377.41
693.52	375.60
693.86	373.83
694.20	372.07
694.53	370.28
694.87	368.42
695.21	366.63
695.54	364.84
695.88	363.15
696.21	361.40
696.55	359.71
696.88	357.99
697.22	356.30
697.56	354.68
697.89	353.02
698.23	351.39
698.56	349.79
698.90	348.16
699.23	346.53
699.57	344.97
699.90	343.42
700.24	341.89
700.58	340.31
700.91	338.83
701.25	337.39
701.58	335.98
701.92	334.65
702.25	333.27
702.59	331.87
702.92	330.50
703.26	329.22
703.59	327.92
703.93	326.77
704.26	325.52
704.60	324.19
704.93	322.94
705.26	321.74
705.60	320.55
705.93	319.40
706.27	318.38
706.60	317.31
706.94	316.24
707.27	315.08
707.61	314.01
707.94	312.95
708.27	311.87
708.61	310.79
708.94	309.73
709.28	308.75
709.61	307.76
709.94	306.82
710.28	305.73
710.61	304.75
710.95	303.62
711.28	302.67
711.61	301.70
711.95	300.80
712.28	299.80
712.61	298.77
712.95	297.82
713.28	296.89
713.61	295.97
713.95	295.06
714.28	294.24
714.61	293.39
714.95	292.53
715.28	291.63
715.61	290.71
715.95	289.86
716.28	288.99
716.61	288.19
716.95	287.35
717.28	286.65
717.61	285.87
717.94	285.16
718.28	284.37
718.61	283.69
718.94	282.99
719.27	282.34
719.61	281.72
719.94	281.06
720.27	280.37
720.60	279.73
720.94	279.12
721.27	278.50
721.60	277.89
721.93	277.30
722.27	276.77
722.60	276.21
722.93	275.66
723.26	275.11
723.59	274.57
723.93	274.05
724.26	273.49
724.59	272.94
724.92	272.39
725.25	271.90
725.59	271.37
725.92	270.87
726.25	270.37
726.58	269.87
726.91	269.36
727.24	268.91
727.57	268.45
727.91	267.95
728.24	267.48
728.57	267.04
728.90	266.62
729.23	266.14
729.56	265.77
729.89	265.29
730.22	264.83
730.55	264.37
730.89	263.90
731.22	263.47
731.55	263.03
731.88	262.67
732.21	262.29
732.54	261.87
732.87	261.43
733.20	261.04
733.53	260.70
733.86	260.34
734.19	259.90
734.52	259.53
734.85	259.24
735.18	258.82
735.51	258.43
735.84	258.00
736.17	257.68
736.50	257.26
736.83	257.04
737.16	256.74
737.49	256.40
737.82	256.06
738.15	255.72
738.48	255.43
738.81	255.09
739.14	254.73
739.47	254.42
739.80	254.11
740.13	253.81
740.46	253.45
740.79	253.13
741.12	252.85
741.45	252.49
741.78	252.13
742.11	251.87
742.44	251.53
742.77	251.25
743.10	250.92
743.43	250.63
743.75	250.24
744.08	250.04
744.41	249.74
744.74	249.47
745.07	249.17
745.40	248.89
745.73	248.64
746.06	248.37
746.39	248.11
746.71	247.84
747.04	247.54
747.37	247.28
747.70	247.02
748.03	246.75
748.36	246.57
748.68	246.31
749.01	246.06
749.34	245.84
749.67	245.62
750.00	245.39
750.33	245.20
750.65	244.98
750.98	244.64
751.31	244.46
751.64	244.24
751.97	244.10
752.29	243.87
752.62	243.62
752.95	243.42
753.28	243.19
753.60	242.98
753.93	242.78
754.26	242.58
754.59	242.36
754.91	242.14
755.24	241.97
755.57	241.77
755.90	241.58
756.22	241.40
756.55	241.23
756.88	241.05
757.20	240.82
757.53	240.63
757.86	240.47
758.19	240.29
758.51	240.14
758.84	239.95
759.17	239.80
759.49	239.66
759.82	239.56
760.15	239.44
760.47	239.33
760.80	239.20
761.13	239.08
761.45	238.93
761.78	238.81
762.11	238.65
762.43	238.53
762.76	238.43
763.08	238.34
763.41	238.21
763.74	238.09
764.06	237.97
764.39	237.84
764.71	237.73
765.04	237.60
765.37	237.46
765.69	237.32
766.02	237.21
766.34	237.07
766.67	236.90
767.00	236.81
767.32	236.74
767.65	236.67
767.97	236.56
768.30	236.46
768.62	236.34
768.95	236.23
769.27	236.12
769.60	236.02
769.92	235.88
770.25	235.76
770.57	235.63
770.90	235.54
771.22	235.45
771.55	235.36
771.87	235.29
772.20	235.19
772.52	235.19
772.85	235.18
773.17	235.08
773.50	234.97
773.82	234.84
774.15	234.67
774.47	234.52
774.80	234.42
775.12	234.36
775.45	234.28
775.77	234.20
776.09	234.09
776.42	233.97
776.74	233.88
777.07	233.78
777.39	233.70
777.72	233.61
778.04	233.51
778.36	233.43
778.69	233.36
779.01	233.33
779.33	233.14
779.66	232.96
779.98	232.91
780.31	232.86
780.63	232.82
780.95	232.76
781.28	232.69
781.60	232.64
781.92	232.55
782.25	232.48
782.57	232.39
782.89	232.32
783.22	232.24
783.54	232.18
783.86	232.12
784.19	232.02
784.51	232.00
784.83	231.93
785.16	231.83
785.48	231.76
785.80	231.67
786.12	231.62
786.45	231.56
786.77	231.50
787.09	231.41
787.42	231.32
787.74	231.30
788.06	231.28
788.38	231.21
788.71	231.14
789.03	231.10
789.35	231.06
789.67	230.99
789.99	230.98
790.32	230.93
790.64	230.91
790.96	230.98
791.28	230.89
791.61	230.86
791.93	230.85
792.25	230.79
792.57	230.83
792.89	230.79
793.21	230.79
793.54	230.76
793.86	230.73
794.18	230.71
794.50	230.63
794.82	230.56
795.14	230.55
795.47	230.56
795.79	230.55
796.11	230.51
796.43	230.51
796.75	230.46
797.07	230.44
797.39	230.41
797.71	230.32
798.04	230.30
798.36	230.30
798.68	230.27
799.00	230.28
799.32	230.18
799.64	230.15
799.96	230.10
800.28	230.09
800.60	230.08
800.92	230.05
801.24	230.01
801.56	230.00
801.89	229.98
802.21	229.94
802.53	229.87
802.85	229.85
803.17	229.88
803.49	229.83
803.81	229.81
804.13	229.80
804.45	229.75
804.77	229.74
805.09	229.70
805.41	229.67
805.73	229.60
806.05	229.55
806.37	229.59
806.69	229.57
807.01	229.54
807.33	229.51
807.65	229.51
807.97	229.53
808.28	229.51
808.60	229.48
808.92	229.46
809.24	229.52
809.56	229.55
809.88	229.49
810.20	229.49
810.52	229.51
810.84	229.45
811.16	229.43
811.48	229.38
811.80	229.40
812.12	229.38
812.43	229.39
812.75	229.42
813.07	229.35
813.39	229.33
813.71	229.29
814.03	229.25
814.35	229.23
814.67	229.17
814.98	229.13
815.30	229.12
815.62	229.07
815.94	228.98
816.26	228.97
816.58	228.90
816.89	228.88
817.21	228.83
817.53	228.82
817.85	228.83
818.17	228.80
818.48	228.73
818.80	228.70
819.12	228.65
819.44	228.58
819.76	228.53
820.07	228.48
820.39	228.47
820.71	228.49
821.03	228.45
821.34	228.44
821.66	228.42
821.98	228.38
822.30	228.37
822.61	228.39
822.93	228.33
823.25	228.33
823.57	228.26
823.88	228.22
824.20	228.23
824.52	228.17
824.83	228.14
825.15	228.10
825.47	228.08
825.79	228.05
826.10	228.04
826.42	228.02
826.74	227.99
827.05	227.96
827.37	227.90
827.69	227.90
828.00	227.92
828.32	227.92
828.64	227.89
828.95	227.91
829.27	227.86
829.58	227.81
829.90	227.81
830.22	227.83
830.53	227.76
830.85	227.73
831.17	227.71
831.48	227.71
831.80	227.68
832.11	227.69
832.43	227.68
832.75	227.65
833.06	227.72
833.38	227.73
833.69	227.74
834.01	227.74
834.32	227.73
834.64	227.70
834.96	227.68
835.27	227.70
835.59	227.66
835.90	227.68
836.22	227.68
836.53	227.65
836.85	227.65
837.16	227.79
837.48	227.78
837.79	227.84
838.11	227.83
838.42	227.88
838.74	227.92
839.05	227.92
839.37	227.95
839.68	227.88
840.00	227.86
840.31	227.87
840.63	227.86
840.94	227.85
841.26	227.83
841.57	227.85
841.88	227.85
842.20	227.84
842.51	227.85
842.83	227.86
843.14	228.01
843.46	228.01
843.77	227.97
844.08	227.98
844.40	227.92
844.71	227.95
845.03	227.93
845.34	227.88
845.65	227.90
845.97	227.89
846.28	227.90
846.60	227.89
846.91	227.86
847.22	227.87
847.54	227.87
847.85	227.88
848.16	227.88
848.48	227.86
848.79	227.87
849.10	227.87
849.42	227.89
849.73	227.78
850.04	227.77
850.36	227.74
850.67	227.73
850.98	227.74
851.30	227.75
851.61	227.74
851.92	227.74
852.23	227.76
852.55	227.74
852.86	227.75
853.17	227.75
853.49	227.78
853.80	227.79
854.11	227.79
854.42	227.82
854.74	227.78
855.05	227.78
855.36	227.73
855.67	227.71
855.99	227.67
856.30	227.75
856.61	227.73
856.92	227.71
857.23	227.72
857.55	227.75
857.86	227.71
858.17	227.73
858.48	227.70
858.79	227.70
859.11	227.72
859.42	227.72
859.73	227.70
860.04	227.70
860.35	227.68
860.66	227.63
860.98	227.58
861.29	227.60
861.60	227.58
861.91	227.58
862.22	227.55
862.53	227.56
862.84	227.42
863.16	227.44
863.47	227.43
863.78	227.39
864.09	227.37
864.40	227.36
864.71	227.35
865.02	227.36
865.33	227.31
865.64	227.28
865.95	227.25
866.27	227.32
866.58	227.27
866.89	227.29
867.20	227.29
867.51	227.29
867.82	227.28
868.13	227.31
868.44	227.30
868.75	227.33
869.06	227.29
869.37	227.31
869.68	227.27
869.99	227.29
870.30	227.33
870.61	227.31
870.92	227.32
871.23	227.30
871.54	227.30
871.85	227.34
872.16	227.36
872.47	227.37
872.78	227.30
873.09	227.34
873.40	227.34
873.71	227.36
874.02	227.38
874.33	227.36
874.64	227.33
874.95	227.34
875.26	227.32
875.56	227.35
875.87	227.36
876.18	227.36
876.49	227.43
876.80	227.42
877.11	227.42
877.42	227.41
877.73	227.41
878.04	227.42
878.35	227.40
878.66	227.40
878.96	227.42
879.27	227.44
879.58	227.43
879.89	227.41
880.20	227.45
880.51	227.43
880.82	227.45
881.12	227.46
881.43	227.46
881.74	227.46
882.05	227.47
882.36	227.49
882.67	227.51
882.97	227.41
883.28	227.40
883.59	227.39
883.90	227.38
884.21	227.39
884.51	227.35
884.82	227.31
885.13	227.30
885.44	227.28
885.74	227.28
886.05	227.28
886.36	227.26
886.67	227.21
886.98	227.26
887.28	227.24
887.59	227.28
887.90	227.28
888.20	227.27
888.51	227.24
888.82	227.24
889.13	227.23
889.43	227.31
889.74	227.31
890.05	227.31
890.35	227.32
890.66	227.32
890.97	227.34
891.28	227.36
891.58	227.36
891.89	227.37
892.20	227.31
892.50	227.28
892.81	227.29
893.12	227.29
893.42	227.21
893.73	227.22
894.04	227.19
894.34	227.19
894.65	227.19
894.95	227.17
895.26	227.16
895.57	227.22
895.87	227.10
896.18	227.08
896.48	227.07
896.79	227.03
897.10	227.03
897.40	227.02
897.71	227.02
898.01	226.97
898.32	226.95
898.63	226.94
898.93	226.93
899.24	226.91
899.54	226.91
899.85	226.91
900.15	226.88
900.46	226.85
900.76	226.84
901.07	226.81
901.38	226.80
901.68	226.77
901.99	226.68
902.29	226.71
902.60	226.73
902.90	226.72
903.21	226.74
903.51	226.70
903.82	226.70
904.12	226.69
904.43	226.68
904.73	226.67
905.03	226.68
905.34	226.79
905.64	226.80
905.95	226.82
906.25	226.83
906.56	226.84
906.86	226.83
907.17	226.79
907.47	226.83
907.77	226.85
908.08	226.87
908.38	226.95
908.69	226.98
908.99	227.02
909.30	227.04
909.60	227.05
909.90	227.06
910.21	227.04
910.51	227.00
910.81	227.05
911.12	227.07
911.42	227.09
911.73	227.00
912.03	227.00
912.33	227.02
912.64	227.01
912.94	227.01
913.24	227.03
913.55	227.04
913.85	227.02
914.15	227.02
914.46	227.00
914.76	226.93
915.06	226.90
915.37	226.86
915.67	226.83
915.97	226.81
916.27	226.77
916.58	226.80
916.88	226.83
917.18	226.81
917.49	226.89
917.79	226.88
918.09	226.89
918.39	226.91
918.70	226.89
919.00	226.90
919.30	226.94
919.60	226.95
919.91	226.97
920.21	227.00
920.51	226.99
920.81	227.01
921.12	227.03
921.42	227.01
921.72	227.03
922.02	227.06
922.32	227.09
922.63	227.13
922.93	227.17
923.23	227.18
923.53	227.17
923.83	227.13
924.13	227.14
924.44	227.12
924.74	227.12
925.04	227.14
925.34	227.13
925.64	227.08
925.94	227.06
926.24	227.10
926.55	227.10
926.85	227.11
927.15	227.13
927.45	227.11
927.75	227.14
928.05	227.09
928.35	227.08
928.65	227.08
928.95	227.11
929.26	227.07
929.56	227.07
929.86	227.07
930.16	227.04
930.46	227.05
930.76	227.12
931.06	227.07
931.36	227.03
931.66	227.04
931.96	227.08
932.26	227.08
932.56	227.06
932.86	227.06
933.16	227.07
933.46	227.02
933.76	227.02
934.06	227.03
934.36	227.09
934.66	227.10
934.96	227.08
935.26	227.06
935.56	227.08
935.86	227.08
936.16	227.10
936.46	227.06
936.76	227.03
937.06	226.98
937.36	227.00
937.66	227.00
937.96	226.97
938.26	226.95
938.56	226.95
938.86	226.95
939.16	226.95
939.46	226.96
939.76	226.99
940.06	226.98
940.35	226.96
940.65	226.91
940.95	226.92
941.25	226.88
941.55	226.87
941.85	226.84
942.15	226.84
942.45	226.83
942.75	226.85
943.04	226.85
943.34	226.85
943.64	226.82
943.94	226.82
944.24	226.83
944.54	226.81
944.84	226.82
945.13	226.76
945.43	226.75
945.73	226.72
946.03	226.68
946.33	226.68
946.62	226.68
946.92	226.68
947.22	226.67
947.52	226.70
947.82	226.70
948.11	226.70
948.41	226.69
948.71	226.68
949.01	226.68
949.31	226.68
949.60	226.66
949.90	226.69
950.20	226.66
950.50	226.66
950.79	226.64
951.09	226.65
951.39	226.67
951.69	226.64
951.98	226.65
952.28	226.67
952.58	226.67
952.87	226.68
953.17	226.70
953.47	226.68
953.76	226.67
954.06	226.66
954.36	226.60
954.66	226.62
954.95	226.64
955.25	226.63
955.55	226.64
955.84	226.65
956.14	226.62
956.44	226.66
956.73	226.62
957.03	226.65
957.32	226.66
957.62	226.65
957.92	226.68
958.21	226.68
958.51	226.74
958.81	226.74
959.10	226.72
959.40	226.74
959.69	226.74
959.99	226.75
960.29	226.72
960.58	226.77
960.88	226.78
961.17	226.76
961.47	226.77
961.76	226.76
962.06	226.76
962.36	226.78
962.65	226.77
962.95	226.82
963.24	226.81
963.54	226.82
963.83	226.85
964.13	226.82
964.42	226.82
964.72	226.75
965.01	226.78
965.31	226.80
965.60	226.75
965.90	226.80
966.19	226.79
966.49	226.81
966.78	226.81
967.08	226.81
967.37	226.81
967.67	226.80
967.96	226.81
968.26	226.82
968.55	226.82
968.85	226.81
969.14	226.81
969.43	226.80
969.73	226.80
970.02	226.76
970.32	226.78
970.61	226.76
970.91	226.74
971.20	226.73
971.49	226.70
971.79	226.74
972.08	226.68
972.38	226.68
972.67	226.67
972.96	226.66
973.26	226.67
973.55	226.72
973.85	226.72
974.14	226.69
974.43	226.68
974.73	226.71
975.02	226.70
975.31	226.70
975.61	226.71
975.90	226.71
976.19	226.71
976.49	226.71
976.78	226.71
977.07	226.75
977.37	226.75
977.66	226.80
977.95	226.78
978.24	226.82
978.54	226.84
978.83	226.83
979.12	226.85
979.42	226.82
979.71	226.80
980.00	226.79
980.29	226.83
980.59	226.84
980.88	226.85
981.17	226.88
981.46	226.88
981.76	226.87
982.05	226.89
982.34	226.91
982.63	226.91
982.93	226.92
983.22	226.92
983.51	226.93
983.80	226.94
984.09	226.94
984.39	226.94
984.68	226.97
984.97	226.96
985.26	226.94
985.55	226.96
985.85	226.96
986.14	226.98
986.43	227.00
986.72	227.00
987.01	226.99
987.30	226.94
987.59	226.95
987.89	226.96
988.18	226.92
988.47	226.89
988.76	226.89
989.05	226.88
989.34	226.87
989.63	226.87
989.92	226.84
990.22	226.83
990.51	226.80
990.80	226.77
991.09	226.82
991.38	226.85
991.67	226.82
991.96	226.80
992.25	226.82
992.54	226.79
992.83	226.78
993.12	226.74
993.41	226.80
993.70	226.81
993.99	226.81
994.28	226.85
994.58	226.86
994.87	226.84
995.16	226.83
995.45	226.82
995.74	226.77
996.03	226.80
996.32	226.83
996.61	226.84
996.90	226.84
997.19	226.83
997.48	226.81
997.77	226.81
998.06	226.77
998.34	226.74
998.63	226.74
998.92	226.73
999.21	226.76
999.50	226.74
999.79	226.73
1000.08	226.70
1000.37	226.70
1000.66	226.69
1000.95	226.70
1001.24	226.71
1001.53	226.73
1001.82	226.77
1002.11	226.72
1002.40	226.70
1002.68	226.73
1002.97	226.77
1003.26	226.75
1003.55	226.76
1003.84	226.77
1004.13	226.82
1004.42	226.81
1004.71	226.83
1004.99	226.82
1005.28	226.84
1005.57	226.83
1005.86	226.80
1006.15	226.79
1006.44	226.72
1006.72	226.75
1007.01	226.74
1007.30	226.74
1007.59	226.69
1007.88	226.68
1008.17	226.71
1008.45	226.67
1008.74	226.60
1009.03	226.56
1009.32	226.55
1009.60	226.53
1009.89	226.51
1010.18	226.48
1010.47	226.49
1010.76	226.48
1011.04	226.47
1011.33	226.45
1011.62	226.48
1011.91	226.51
1012.19	226.53
1012.48	226.56
1012.77	226.55
1013.05	226.59
1013.34	226.61
1013.63	226.63
1013.92	226.65
1014.20	226.62
1014.49	226.66
1014.78	226.69
1015.06	226.66
1015.35	226.65
1015.64	226.68
1015.92	226.69
1016.21	226.70
1016.50	226.70
1016.78	226.70
1017.07	226.70
1017.36	226.70
1017.64	226.64
1017.93	226.66
1018.22	226.65
1018.50	226.68
1018.79	226.68
1019.08	226.64
1019.36	226.63
1019.65	226.60
1019.93	226.62
1020.22	226.65
1020.51	226.69
1020.79	226.70
1021.08	226.57
1021.36	226.93
1021.65	226.54
1021.94	226.84
1022.22	226.54
1022.51	226.47
1022.79	226.99
1023.08	226.89
1023.36	227.72
1023.65	227.03
>>>>>End Processed Spectral Data<<<<<
