SpectraSuite Data File
++++++++++++++++++++++++++++++++++++
Date: Fri Feb 01 17:36:42 EST 2013
User: group
Dark Spectrum Present: No
Reference Spectrum Present: No
Number of Sampled Component Spectra: 1
Spectrometers: USB2E7196
Integration Time (usec): 35000 (USB2E7196)
Spectra Averaged: 100 (USB2E7196)
Boxcar Smoothing: 10 (USB2E7196)
Correct for Electrical Dark: No (USB2E7196)
Strobe/Lamp Enabled: No (USB2E7196)
Correct for Detector Non-linearity: No (USB2E7196)
Correct for Stray Light: No (USB2E7196)
Number of Pixels in Processed Spectrum: 2048
>>>>>Begin Processed Spectral Data<<<<<
339.09	0.00
339.48	213.43
339.86	214.84
340.24	216.23
340.63	217.69
341.01	220.18
341.39	220.01
341.78	221.41
342.16	222.96
342.54	223.41
342.93	211.59
343.31	222.27
343.69	222.78
344.07	223.24
344.46	223.69
344.84	224.05
345.22	224.27
345.60	224.51
345.99	224.67
346.37	224.78
346.75	224.85
347.13	224.93
347.52	225.00
347.90	225.08
348.28	225.09
348.66	225.11
349.05	225.10
349.43	225.15
349.81	225.21
350.19	225.24
350.57	225.32
350.96	225.41
351.34	225.51
351.72	225.61
352.10	225.68
352.48	225.70
352.87	225.75
353.25	225.82
353.63	225.87
354.01	225.98
354.39	226.07
354.77	226.16
355.15	226.27
355.54	226.30
355.92	226.32
356.30	226.42
356.68	226.55
357.06	226.63
357.44	226.69
357.82	226.76
358.20	226.81
358.58	226.82
358.97	226.86
359.35	226.91
359.73	226.96
360.11	227.03
360.49	227.08
360.87	227.12
361.25	227.19
361.63	227.28
362.01	227.30
362.39	227.31
362.77	227.32
363.15	227.36
363.53	227.38
363.91	227.42
364.29	227.45
364.67	227.35
365.05	227.38
365.43	227.37
365.81	227.40
366.19	227.43
366.57	227.50
366.95	227.52
367.33	227.50
367.71	227.49
368.09	227.49
368.47	227.48
368.85	227.49
369.23	227.48
369.61	227.41
369.99	227.43
370.37	227.41
370.75	227.45
371.13	227.38
371.51	227.31
371.89	227.28
372.27	227.22
372.65	227.21
373.03	227.15
373.41	227.12
373.78	227.05
374.16	226.98
374.54	226.86
374.92	226.78
375.30	226.76
375.68	226.69
376.06	226.64
376.44	226.58
376.82	226.52
377.19	226.43
377.57	226.37
377.95	226.26
378.33	226.18
378.71	226.09
379.09	226.02
379.47	226.01
379.84	225.93
380.22	225.86
380.60	225.79
380.98	225.71
381.36	225.67
381.73	225.59
382.11	225.55
382.49	225.54
382.87	225.48
383.25	225.40
383.62	225.43
384.00	225.36
384.38	225.32
384.76	225.27
385.13	225.26
385.51	225.24
385.89	225.18
386.27	225.14
386.64	225.08
387.02	225.06
387.40	225.02
387.78	225.01
388.15	225.01
388.53	224.95
388.91	224.94
389.29	224.89
389.66	224.88
390.04	224.81
390.42	224.77
390.79	224.79
391.17	224.76
391.55	224.65
391.92	224.64
392.30	224.66
392.68	224.66
393.05	224.67
393.43	224.66
393.81	224.67
394.18	224.68
394.56	224.72
394.94	224.72
395.31	224.72
395.69	224.79
396.06	224.80
396.44	224.84
396.82	224.85
397.19	224.94
397.57	224.98
397.95	225.04
398.32	225.05
398.70	225.07
399.07	225.18
399.45	225.22
399.82	225.26
400.20	225.28
400.58	225.32
400.95	225.34
401.33	225.40
401.70	225.56
402.08	225.66
402.45	225.72
402.83	225.84
403.20	225.95
403.58	226.03
403.95	226.14
404.33	226.26
404.71	226.38
405.08	226.56
405.46	226.67
405.83	226.80
406.21	226.94
406.58	227.08
406.96	227.22
407.33	227.40
407.70	227.63
408.08	227.91
408.45	228.13
408.83	228.38
409.20	228.62
409.58	228.78
409.95	229.01
410.33	229.32
410.70	229.55
411.08	229.85
411.45	230.14
411.82	230.44
412.20	230.81
412.57	231.26
412.95	231.54
413.32	231.96
413.69	232.39
414.07	232.85
414.44	233.33
414.82	233.80
415.19	234.35
415.56	234.90
415.94	235.47
416.31	236.14
416.68	236.79
417.06	237.52
417.43	238.19
417.81	238.99
418.18	239.79
418.55	240.67
418.93	241.56
419.30	242.50
419.67	243.49
420.04	244.50
420.42	245.51
420.79	246.73
421.16	247.94
421.54	249.23
421.91	250.51
422.28	251.84
422.66	253.24
423.03	254.62
423.40	255.99
423.77	257.45
424.15	258.93
424.52	260.44
424.89	262.09
425.26	263.73
425.64	265.22
426.01	266.85
426.38	268.58
426.75	270.34
427.13	272.16
427.50	274.03
427.87	275.91
428.24	277.85
428.61	279.67
428.99	281.67
429.36	283.85
429.73	285.98
430.10	288.03
430.47	290.20
430.85	292.40
431.22	294.75
431.59	297.20
431.96	299.55
432.33	302.14
432.70	304.63
433.08	307.56
433.45	310.31
433.82	313.03
434.19	316.03
434.56	318.94
434.93	321.72
435.30	324.46
435.68	327.52
436.05	330.49
436.42	333.43
436.79	336.09
437.16	338.88
437.53	341.85
437.90	344.85
438.27	347.73
438.64	350.68
439.01	353.36
439.38	355.75
439.75	358.05
440.13	360.71
440.50	363.13
440.87	365.09
441.24	367.16
441.61	369.42
441.98	370.97
442.35	372.87
442.72	374.83
443.09	376.73
443.46	377.80
443.83	378.47
444.20	378.99
444.57	379.85
444.94	380.19
445.31	380.59
445.68	380.99
446.05	381.10
446.42	380.75
446.79	380.41
447.16	379.96
447.53	379.62
447.90	378.42
448.27	377.21
448.64	375.54
449.01	374.37
449.37	372.37
449.74	370.41
450.11	368.06
450.48	365.48
450.85	362.81
451.22	360.59
451.59	358.47
451.96	356.52
452.33	353.83
452.70	351.36
453.07	348.44
453.43	345.38
453.80	342.48
454.17	339.71
454.54	336.99
454.91	334.16
455.28	331.37
455.65	328.76
456.02	326.22
456.38	324.02
456.75	321.23
457.12	318.86
457.49	316.58
457.86	314.36
458.23	312.41
458.59	310.31
458.96	308.13
459.33	306.14
459.70	304.13
460.07	302.56
460.43	300.72
460.80	299.01
461.17	297.50
461.54	295.94
461.91	294.42
462.27	292.94
462.64	291.59
463.01	290.19
463.38	288.83
463.74	287.45
464.11	286.21
464.48	285.15
464.85	283.98
465.21	283.07
465.58	282.07
465.95	280.91
466.32	279.98
466.68	278.99
467.05	278.08
467.42	277.18
467.78	276.21
468.15	275.32
468.52	274.62
468.88	273.71
469.25	272.88
469.62	272.27
469.98	271.59
470.35	270.94
470.72	270.29
471.08	269.65
471.45	269.05
471.82	268.50
472.18	267.87
472.55	267.40
472.92	266.85
473.28	266.37
473.65	265.91
474.02	265.39
474.38	265.04
474.75	264.74
475.11	264.36
475.48	264.07
475.85	263.83
476.21	263.59
476.58	263.42
476.94	263.29
477.31	263.07
477.67	262.87
478.04	262.70
478.41	262.63
478.77	262.62
479.14	262.55
479.50	262.53
479.87	262.56
480.23	262.60
480.60	262.64
480.96	262.72
481.33	262.92
481.69	263.14
482.06	263.35
482.42	263.48
482.79	263.73
483.15	264.00
483.52	264.36
483.88	264.68
484.25	265.06
484.61	265.45
484.98	265.89
485.34	266.46
485.71	267.05
486.07	267.67
486.44	268.20
486.80	268.92
487.17	269.65
487.53	270.46
487.90	271.31
488.26	272.27
488.62	273.26
488.99	274.24
489.35	275.30
489.72	276.43
490.08	277.60
490.44	278.85
490.81	280.22
491.17	281.59
491.54	283.04
491.90	284.56
492.26	286.21
492.63	287.93
492.99	289.71
493.36	291.60
493.72	293.62
494.08	295.73
494.45	297.96
494.81	300.26
495.17	302.69
495.54	305.27
495.90	307.93
496.26	310.70
496.63	313.59
496.99	316.68
497.35	319.84
497.72	323.29
498.08	326.74
498.44	330.31
498.80	334.19
499.17	338.19
499.53	342.33
499.89	346.64
500.26	351.10
500.62	355.70
500.98	360.63
501.34	365.66
501.71	370.92
502.07	376.30
502.43	381.86
502.79	387.61
503.16	393.58
503.52	399.77
503.88	406.05
504.24	412.57
504.60	419.29
504.97	426.33
505.33	433.49
505.69	441.11
506.05	448.75
506.41	456.42
506.78	464.39
507.14	472.68
507.50	481.21
507.86	490.00
508.22	498.99
508.59	507.99
508.95	517.37
509.31	526.95
509.67	536.81
510.03	546.88
510.39	557.19
510.75	567.65
511.12	578.30
511.48	589.31
511.84	600.49
512.20	611.74
512.56	623.38
512.92	635.19
513.28	647.20
513.64	659.29
514.00	671.73
514.37	684.38
514.73	697.09
515.09	709.70
515.45	722.61
515.81	735.75
516.17	749.29
516.53	762.97
516.89	776.71
517.25	790.45
517.61	804.49
517.97	818.45
518.33	832.52
518.69	846.81
519.05	861.30
519.41	876.02
519.77	891.05
520.13	905.99
520.49	920.90
520.85	935.71
521.21	950.91
521.57	966.58
521.93	981.83
522.29	997.51
522.65	1013.35
523.01	1029.05
523.37	1044.59
523.73	1060.29
524.09	1075.73
524.45	1091.47
524.81	1107.64
525.17	1123.76
525.53	1140.08
525.89	1156.37
526.25	1172.69
526.61	1188.45
526.97	1204.71
527.33	1220.71
527.68	1236.84
528.04	1252.79
528.40	1268.79
528.76	1285.40
529.12	1301.44
529.48	1317.80
529.84	1333.45
530.20	1349.53
530.56	1365.95
530.91	1382.84
531.27	1399.08
531.63	1415.21
531.99	1431.42
532.35	1446.95
532.71	1462.58
533.07	1478.40
533.42	1493.90
533.78	1509.69
534.14	1525.68
534.50	1540.52
534.86	1555.92
535.21	1570.61
535.57	1586.05
535.93	1601.26
536.29	1615.56
536.65	1630.13
537.00	1644.52
537.36	1659.58
537.72	1673.85
538.08	1688.02
538.44	1701.44
538.79	1715.01
539.15	1728.29
539.51	1741.73
539.87	1755.71
540.22	1768.91
540.58	1782.42
540.94	1795.36
541.29	1807.70
541.65	1820.04
542.01	1833.06
542.37	1845.39
542.72	1857.60
543.08	1869.47
543.44	1881.77
543.79	1893.09
544.15	1904.17
544.51	1915.65
544.87	1926.39
545.22	1937.07
545.58	1947.24
545.94	1957.14
546.29	1967.00
546.65	1977.02
547.01	1986.36
547.36	1995.05
547.72	2003.90
548.07	2012.10
548.43	2020.43
548.79	2028.59
549.14	2036.45
549.50	2043.85
549.86	2051.37
550.21	2059.01
550.57	2066.30
550.92	2073.09
551.28	2080.36
551.64	2087.76
551.99	2094.55
552.35	2101.03
552.70	2107.41
553.06	2113.72
553.41	2120.35
553.77	2126.58
554.13	2132.88
554.48	2139.24
554.84	2145.31
555.19	2150.71
555.55	2156.12
555.90	2161.02
556.26	2166.46
556.61	2171.49
556.97	2176.29
557.32	2180.99
557.68	2185.49
558.03	2190.08
558.39	2194.07
558.74	2199.05
559.10	2203.17
559.45	2207.23
559.81	2211.72
560.16	2215.94
560.52	2219.60
560.87	2223.25
561.23	2226.42
561.58	2229.56
561.94	2232.60
562.29	2235.04
562.64	2238.35
563.00	2241.15
563.35	2245.02
563.71	2248.50
564.06	2251.94
564.42	2255.28
564.77	2258.33
565.12	2261.13
565.48	2263.65
565.83	2266.00
566.19	2267.84
566.54	2269.16
566.89	2270.77
567.25	2271.97
567.60	2273.58
567.96	2275.69
568.31	2277.03
568.66	2278.63
569.02	2279.91
569.37	2280.71
569.72	2282.21
570.08	2282.79
570.43	2283.44
570.78	2283.46
571.14	2282.43
571.49	2281.69
571.84	2281.58
572.20	2280.76
572.55	2280.09
572.90	2278.81
573.26	2277.97
573.61	2276.40
573.96	2275.29
574.31	2272.82
574.67	2270.36
575.02	2267.29
575.37	2264.15
575.72	2260.90
576.08	2257.75
576.43	2254.60
576.78	2251.32
577.13	2248.37
577.49	2245.47
577.84	2242.26
578.19	2238.68
578.54	2235.42
578.90	2231.72
579.25	2226.66
579.60	2222.20
579.95	2217.63
580.30	2212.90
580.66	2208.10
581.01	2203.64
581.36	2198.93
581.71	2195.12
582.06	2191.00
582.42	2187.03
582.77	2182.30
583.12	2177.97
583.47	2173.92
583.82	2169.39
584.17	2164.55
584.53	2159.42
584.88	2154.12
585.23	2148.86
585.58	2143.85
585.93	2138.64
586.28	2133.86
586.63	2129.24
586.98	2124.45
587.34	2119.86
587.69	2115.38
588.04	2110.46
588.39	2105.01
588.74	2098.68
589.09	2092.80
589.44	2086.37
589.79	2080.47
590.14	2074.97
590.49	2068.59
590.84	2062.21
591.19	2056.54
591.54	2050.20
591.89	2043.24
592.25	2036.93
592.60	2029.97
592.95	2022.68
593.30	2015.58
593.65	2008.29
594.00	2001.34
594.35	1994.13
594.70	1986.35
595.05	1979.34
595.40	1972.21
595.75	1964.99
596.10	1959.14
596.45	1952.58
596.80	1946.58
597.15	1940.16
597.50	1933.60
597.85	1927.38
598.19	1920.94
598.54	1914.09
598.89	1907.72
599.24	1901.85
599.59	1895.40
599.94	1889.14
600.29	1882.84
600.64	1876.25
600.99	1869.09
601.34	1862.40
601.69	1855.56
602.04	1848.85
602.39	1841.61
602.74	1834.82
603.08	1828.25
603.43	1821.39
603.78	1814.16
604.13	1806.98
604.48	1799.96
604.83	1793.18
605.18	1786.56
605.53	1778.74
605.87	1770.71
606.22	1763.31
606.57	1755.45
606.92	1747.92
607.27	1740.89
607.62	1734.17
607.96	1727.12
608.31	1720.61
608.66	1713.12
609.01	1705.75
609.36	1698.33
609.70	1690.35
610.05	1682.31
610.40	1674.59
610.75	1666.57
611.10	1658.89
611.44	1650.30
611.79	1642.14
612.14	1633.30
612.49	1623.97
612.83	1615.44
613.18	1607.19
613.53	1599.13
613.88	1590.62
614.22	1582.35
614.57	1573.56
614.92	1565.43
615.27	1557.91
615.61	1549.57
615.96	1541.43
616.31	1533.66
616.65	1526.10
617.00	1518.45
617.35	1510.71
617.70	1502.42
618.04	1493.83
618.39	1485.50
618.74	1478.01
619.08	1469.61
619.43	1461.89
619.78	1454.80
620.12	1447.74
620.47	1440.23
620.82	1431.91
621.16	1424.31
621.51	1416.53
621.85	1408.85
622.20	1400.24
622.55	1391.65
622.89	1383.59
623.24	1375.67
623.59	1368.10
623.93	1360.50
624.28	1353.28
624.62	1345.76
624.97	1338.49
625.32	1331.51
625.66	1324.42
626.01	1317.07
626.35	1309.63
626.70	1301.78
627.04	1294.10
627.39	1286.16
627.73	1278.60
628.08	1271.67
628.43	1264.35
628.77	1257.03
629.12	1249.47
629.46	1242.22
629.81	1234.67
630.15	1227.30
630.50	1220.01
630.84	1211.83
631.19	1203.72
631.53	1195.95
631.88	1188.20
632.22	1180.42
632.57	1173.05
632.91	1165.35
633.26	1157.90
633.60	1150.50
633.95	1143.23
634.29	1135.98
634.64	1129.15
634.98	1121.77
635.32	1114.53
635.67	1107.77
636.01	1101.04
636.36	1094.21
636.70	1087.67
637.05	1081.10
637.39	1074.57
637.73	1067.99
638.08	1062.03
638.42	1055.99
638.77	1049.62
639.11	1043.10
639.45	1036.74
639.80	1030.06
640.14	1023.67
640.49	1017.17
640.83	1010.76
641.17	1004.69
641.52	998.42
641.86	991.94
642.20	986.03
642.55	979.64
642.89	973.27
643.23	966.58
643.58	960.73
643.92	954.48
644.26	948.54
644.61	942.44
644.95	936.41
645.29	929.86
645.64	923.17
645.98	916.67
646.32	910.62
646.66	904.45
647.01	898.64
647.35	892.93
647.69	886.99
648.04	881.38
648.38	875.48
648.72	869.51
649.06	863.49
649.41	857.58
649.75	851.75
650.09	845.73
650.43	839.98
650.78	833.84
651.12	827.84
651.46	821.99
651.80	816.41
652.14	810.98
652.49	805.59
652.83	800.36
653.17	794.90
653.51	789.34
653.85	783.95
654.20	778.34
654.54	772.37
654.88	766.55
655.22	760.58
655.56	754.84
655.90	749.33
656.25	744.05
656.59	738.66
656.93	733.43
657.27	728.33
657.61	722.89
657.95	717.77
658.29	712.65
658.64	707.33
658.98	701.88
659.32	696.39
659.66	691.19
660.00	685.92
660.34	680.83
660.68	675.85
661.02	670.75
661.36	666.01
661.70	661.51
662.05	657.20
662.39	652.96
662.73	648.41
663.07	643.92
663.41	639.40
663.75	634.91
664.09	630.34
664.43	625.93
664.77	621.84
665.11	617.61
665.45	613.45
665.79	609.38
666.13	605.28
666.47	601.14
666.81	596.98
667.15	592.86
667.49	588.91
667.83	584.98
668.17	581.14
668.51	577.04
668.85	572.91
669.19	569.01
669.53	565.19
669.87	561.44
670.21	557.79
670.55	554.17
670.89	550.68
671.23	547.28
671.57	543.71
671.91	540.09
672.25	536.47
672.58	532.94
672.92	529.48
673.26	526.22
673.60	523.07
673.94	519.89
674.28	516.88
674.62	513.97
674.96	510.90
675.30	507.98
675.64	505.10
675.97	502.26
676.31	499.43
676.65	496.49
676.99	493.69
677.33	490.78
677.67	487.95
678.01	484.97
678.34	481.98
678.68	479.08
679.02	476.26
679.36	473.56
679.70	470.86
680.04	468.16
680.37	465.35
680.71	462.53
681.05	459.87
681.39	457.21
681.73	454.50
682.06	452.00
682.40	449.41
682.74	446.78
683.08	444.22
683.42	441.60
683.75	439.06
684.09	436.52
684.43	434.01
684.77	431.56
685.10	429.17
685.44	426.83
685.78	424.52
686.12	422.26
686.45	419.90
686.79	417.54
687.13	415.26
687.46	413.04
687.80	410.88
688.14	408.65
688.48	406.57
688.81	404.33
689.15	402.14
689.49	399.94
689.82	397.83
690.16	395.71
690.50	393.73
690.83	391.73
691.17	389.67
691.51	387.83
691.84	385.97
692.18	384.04
692.52	382.06
692.85	380.06
693.19	378.16
693.52	376.32
693.86	374.47
694.20	372.68
694.53	370.86
694.87	368.97
695.21	367.16
695.54	365.25
695.88	363.48
696.21	361.72
696.55	360.00
696.88	358.29
697.22	356.61
697.56	354.88
697.89	353.26
698.23	351.68
698.56	350.01
698.90	348.39
699.23	346.73
699.57	345.18
699.90	343.64
700.24	342.03
700.58	340.53
700.91	339.04
701.25	337.55
701.58	336.19
701.92	334.78
702.25	333.40
702.59	332.04
702.92	330.68
703.26	329.31
703.59	328.05
703.93	326.85
704.26	325.61
704.60	324.34
704.93	323.03
705.26	321.71
705.60	320.51
705.93	319.30
706.27	318.26
706.60	317.12
706.94	316.02
707.27	314.89
707.61	313.78
707.94	312.71
708.27	311.64
708.61	310.51
708.94	309.49
709.28	308.48
709.61	307.49
709.94	306.52
710.28	305.51
710.61	304.45
710.95	303.36
711.28	302.42
711.61	301.46
711.95	300.53
712.28	299.61
712.61	298.61
712.95	297.67
713.28	296.74
713.61	295.80
713.95	294.88
714.28	294.02
714.61	293.13
714.95	292.27
715.28	291.38
715.61	290.50
715.95	289.62
716.28	288.73
716.61	287.89
716.95	287.06
717.28	286.31
717.61	285.55
717.94	284.78
718.28	283.98
718.61	283.21
718.94	282.47
719.27	281.78
719.61	281.09
719.94	280.42
720.27	279.72
720.60	279.07
720.94	278.46
721.27	277.90
721.60	277.32
721.93	276.73
722.27	276.18
722.60	275.62
722.93	275.06
723.26	274.54
723.59	273.96
723.93	273.47
724.26	272.94
724.59	272.37
724.92	271.83
725.25	271.32
725.59	270.83
725.92	270.35
726.25	269.83
726.58	269.31
726.91	268.78
727.24	268.30
727.57	267.83
727.91	267.33
728.24	266.82
728.57	266.31
728.90	265.81
729.23	265.29
729.56	264.89
729.89	264.41
730.22	263.91
730.55	263.43
730.89	262.93
731.22	262.43
731.55	262.04
731.88	261.64
732.21	261.19
732.54	260.71
732.87	260.27
733.20	259.85
733.53	259.50
733.86	259.14
734.19	258.72
734.52	258.34
734.85	257.99
735.18	257.57
735.51	257.19
735.84	256.82
736.17	256.45
736.50	256.01
736.83	255.75
737.16	255.42
737.49	255.11
737.82	254.72
738.15	254.37
738.48	254.00
738.81	253.59
739.14	253.25
739.47	252.95
739.80	252.64
740.13	252.35
740.46	251.98
740.79	251.64
741.12	251.31
741.45	250.96
741.78	250.61
742.11	250.33
742.44	249.99
742.77	249.72
743.10	249.39
743.43	249.08
743.75	248.66
744.08	248.50
744.41	248.20
744.74	247.97
745.07	247.71
745.40	247.45
745.73	247.23
746.06	246.94
746.39	246.67
746.71	246.38
747.04	246.08
747.37	245.86
747.70	245.60
748.03	245.36
748.36	245.13
748.68	244.86
749.01	244.58
749.34	244.37
749.67	244.10
750.00	243.89
750.33	243.76
750.65	243.60
750.98	243.20
751.31	242.96
751.64	242.74
751.97	242.53
752.29	242.34
752.62	242.08
752.95	241.86
753.28	241.65
753.60	241.43
753.93	241.24
754.26	241.02
754.59	240.82
754.91	240.62
755.24	240.40
755.57	240.25
755.90	240.07
756.22	239.86
756.55	239.70
756.88	239.51
757.20	239.26
757.53	239.03
757.86	238.93
758.19	238.79
758.51	238.63
758.84	238.44
759.17	238.21
759.49	238.07
759.82	237.95
760.15	237.77
760.47	237.64
760.80	237.43
761.13	237.29
761.45	237.10
761.78	236.92
762.11	236.75
762.43	236.60
762.76	236.47
763.08	236.37
763.41	236.24
763.74	236.13
764.06	235.98
764.39	235.87
764.71	235.69
765.04	235.56
765.37	235.41
765.69	235.26
766.02	235.15
766.34	235.02
766.67	234.90
767.00	234.83
767.32	234.73
767.65	234.72
767.97	234.58
768.30	234.53
768.62	234.42
768.95	234.34
769.27	234.19
769.60	234.08
769.92	233.94
770.25	233.79
770.57	233.67
770.90	233.60
771.22	233.48
771.55	233.37
771.87	233.23
772.20	233.15
772.52	233.13
772.85	233.17
773.17	233.07
773.50	232.95
773.82	232.82
774.15	232.69
774.47	232.51
774.80	232.44
775.12	232.29
775.45	232.21
775.77	232.15
776.09	232.07
776.42	231.98
776.74	231.93
777.07	231.86
777.39	231.78
777.72	231.68
778.04	231.63
778.36	231.58
778.69	231.52
779.01	231.43
779.33	231.28
779.66	231.11
779.98	231.04
780.31	231.01
780.63	230.99
780.95	230.97
781.28	230.90
781.60	230.83
781.92	230.80
782.25	230.72
782.57	230.69
782.89	230.64
783.22	230.60
783.54	230.51
783.86	230.44
784.19	230.38
784.51	230.32
784.83	230.23
785.16	230.17
785.48	230.10
785.80	230.09
786.12	230.09
786.45	230.02
786.77	229.97
787.09	229.87
787.42	229.80
787.74	229.73
788.06	229.69
788.38	229.59
788.71	229.57
789.03	229.53
789.35	229.47
789.67	229.44
789.99	229.39
790.32	229.33
790.64	229.33
790.96	229.36
791.28	229.29
791.61	229.26
791.93	229.22
792.25	229.20
792.57	229.19
792.89	229.10
793.21	229.04
793.54	229.02
793.86	229.01
794.18	228.96
794.50	228.89
794.82	228.86
795.14	228.83
795.47	228.81
795.79	228.76
796.11	228.72
796.43	228.66
796.75	228.60
797.07	228.62
797.39	228.56
797.71	228.50
798.04	228.48
798.36	228.45
798.68	228.40
799.00	228.38
799.32	228.29
799.64	228.30
799.96	228.28
800.28	228.25
800.60	228.20
800.92	228.19
801.24	228.16
801.56	228.15
801.89	228.16
802.21	228.10
802.53	228.06
802.85	228.04
803.17	228.05
803.49	228.00
803.81	227.92
804.13	227.89
804.45	227.84
804.77	227.85
805.09	227.82
805.41	227.81
805.73	227.79
806.05	227.75
806.37	227.73
806.69	227.71
807.01	227.67
807.33	227.67
807.65	227.57
807.97	227.58
808.28	227.54
808.60	227.51
808.92	227.48
809.24	227.51
809.56	227.48
809.88	227.44
810.20	227.44
810.52	227.44
810.84	227.43
811.16	227.39
811.48	227.34
811.80	227.36
812.12	227.33
812.43	227.33
812.75	227.29
813.07	227.23
813.39	227.21
813.71	227.17
814.03	227.13
814.35	227.15
814.67	227.08
814.98	227.04
815.30	227.03
815.62	227.02
815.94	226.94
816.26	226.91
816.58	226.86
816.89	226.84
817.21	226.77
817.53	226.75
817.85	226.71
818.17	226.69
818.48	226.58
818.80	226.58
819.12	226.52
819.44	226.51
819.76	226.48
820.07	226.46
820.39	226.43
820.71	226.42
821.03	226.38
821.34	226.35
821.66	226.36
821.98	226.31
822.30	226.28
822.61	226.31
822.93	226.26
823.25	226.23
823.57	226.20
823.88	226.22
824.20	226.21
824.52	226.21
824.83	226.19
825.15	226.21
825.47	226.21
825.79	226.23
826.10	226.22
826.42	226.22
826.74	226.20
827.05	226.21
827.37	226.20
827.69	226.21
828.00	226.23
828.32	226.21
828.64	226.23
828.95	226.29
829.27	226.26
829.58	226.28
829.90	226.29
830.22	226.31
830.53	226.28
830.85	226.27
831.17	226.24
831.48	226.24
831.80	226.23
832.11	226.19
832.43	226.14
832.75	226.14
833.06	226.16
833.38	226.14
833.69	226.13
834.01	226.15
834.32	226.12
834.64	226.12
834.96	226.11
835.27	226.12
835.59	226.07
835.90	226.06
836.22	226.05
836.53	226.05
836.85	225.99
837.16	226.09
837.48	226.08
837.79	226.12
838.11	226.11
838.42	226.12
838.74	226.13
839.05	226.06
839.37	226.02
839.68	225.96
840.00	225.96
840.31	225.98
840.63	225.94
840.94	225.91
841.26	225.87
841.57	225.85
841.88	225.84
842.20	225.80
842.51	225.77
842.83	225.74
843.14	225.84
843.46	225.87
843.77	225.79
844.08	225.77
844.40	225.73
844.71	225.72
845.03	225.69
845.34	225.67
845.65	225.74
845.97	225.75
846.28	225.75
846.60	225.74
846.91	225.74
847.22	225.69
847.54	225.72
847.85	225.73
848.16	225.73
848.48	225.70
848.79	225.74
849.10	225.74
849.42	225.75
849.73	225.62
850.04	225.61
850.36	225.57
850.67	225.58
850.98	225.55
851.30	225.52
851.61	225.51
851.92	225.53
852.23	225.54
852.55	225.52
852.86	225.50
853.17	225.49
853.49	225.47
853.80	225.47
854.11	225.47
854.42	225.47
854.74	225.41
855.05	225.39
855.36	225.33
855.67	225.32
855.99	225.32
856.30	225.40
856.61	225.38
856.92	225.37
857.23	225.38
857.55	225.37
857.86	225.40
858.17	225.44
858.48	225.41
858.79	225.38
859.11	225.40
859.42	225.42
859.73	225.43
860.04	225.42
860.35	225.42
860.66	225.39
860.98	225.40
861.29	225.45
861.60	225.47
861.91	225.51
862.22	225.50
862.53	225.47
862.84	225.40
863.16	225.46
863.47	225.46
863.78	225.42
864.09	225.44
864.40	225.42
864.71	225.37
865.02	225.39
865.33	225.37
865.64	225.34
865.95	225.31
866.27	225.37
866.58	225.37
866.89	225.38
867.20	225.38
867.51	225.34
867.82	225.31
868.13	225.30
868.44	225.29
868.75	225.33
869.06	225.32
869.37	225.31
869.68	225.21
869.99	225.25
870.30	225.25
870.61	225.24
870.92	225.21
871.23	225.21
871.54	225.23
871.85	225.24
872.16	225.25
872.47	225.26
872.78	225.21
873.09	225.24
873.40	225.22
873.71	225.24
874.02	225.28
874.33	225.28
874.64	225.33
874.95	225.34
875.26	225.31
875.56	225.33
875.87	225.36
876.18	225.40
876.49	225.47
876.80	225.50
877.11	225.50
877.42	225.51
877.73	225.48
878.04	225.43
878.35	225.47
878.66	225.48
878.96	225.47
879.27	225.44
879.58	225.42
879.89	225.42
880.20	225.40
880.51	225.37
880.82	225.37
881.12	225.31
881.43	225.29
881.74	225.25
882.05	225.21
882.36	225.19
882.67	225.17
882.97	225.08
883.28	225.03
883.59	225.02
883.90	225.04
884.21	225.08
884.51	225.07
884.82	225.03
885.13	225.03
885.44	225.01
885.74	224.99
886.05	224.93
886.36	224.92
886.67	224.87
886.98	224.93
887.28	224.93
887.59	224.92
887.90	224.87
888.20	224.89
888.51	224.94
888.82	224.92
889.13	224.93
889.43	224.97
889.74	224.98
890.05	224.94
890.35	224.89
890.66	224.86
890.97	224.84
891.28	224.80
891.58	224.77
891.89	224.79
892.20	224.79
892.50	224.78
892.81	224.77
893.12	224.80
893.42	224.73
893.73	224.69
894.04	224.67
894.34	224.69
894.65	224.65
894.95	224.62
895.26	224.61
895.57	224.66
895.87	224.61
896.18	224.60
896.48	224.64
896.79	224.65
897.10	224.68
897.40	224.68
897.71	224.72
898.01	224.71
898.32	224.68
898.63	224.70
898.93	224.73
899.24	224.76
899.54	224.73
899.85	224.75
900.15	224.79
900.46	224.82
900.76	224.87
901.07	224.89
901.38	224.89
901.68	224.93
901.99	224.85
902.29	224.86
902.60	224.88
902.90	224.87
903.21	224.86
903.51	224.83
903.82	224.86
904.12	224.85
904.43	224.88
904.73	224.94
905.03	224.96
905.34	225.05
905.64	225.06
905.95	225.08
906.25	225.09
906.56	225.08
906.86	225.07
907.17	225.04
907.47	225.05
907.77	225.05
908.08	225.02
908.38	225.05
908.69	225.04
908.99	225.03
909.30	225.03
909.60	225.04
909.90	225.05
910.21	225.05
910.51	225.05
910.81	225.04
911.12	225.02
911.42	225.00
911.73	224.92
912.03	224.93
912.33	224.99
912.64	225.00
912.94	225.00
913.24	224.97
913.55	224.99
913.85	225.00
914.15	225.03
914.46	225.05
914.76	225.05
915.06	225.03
915.37	225.00
915.67	224.97
915.97	224.98
916.27	224.96
916.58	224.95
916.88	224.97
917.18	224.95
917.49	225.00
917.79	225.00
918.09	225.00
918.39	224.99
918.70	224.95
919.00	224.94
919.30	224.97
919.60	224.96
919.91	224.92
920.21	224.90
920.51	224.88
920.81	224.86
921.12	224.87
921.42	224.86
921.72	224.90
922.02	224.89
922.32	224.91
922.63	224.92
922.93	224.98
923.23	224.97
923.53	224.98
923.83	224.93
924.13	224.91
924.44	224.89
924.74	224.91
925.04	224.90
925.34	224.89
925.64	224.85
925.94	224.88
926.24	224.97
926.55	224.98
926.85	224.96
927.15	224.97
927.45	224.96
927.75	224.97
928.05	224.99
928.35	225.04
928.65	225.04
928.95	225.03
929.26	224.99
929.56	225.02
929.86	225.01
930.16	224.99
930.46	224.98
930.76	225.01
931.06	224.96
931.36	224.95
931.66	224.96
931.96	225.00
932.26	224.98
932.56	224.93
932.86	224.94
933.16	224.96
933.46	224.99
933.76	224.98
934.06	225.00
934.36	225.01
934.66	225.00
934.96	225.01
935.26	225.05
935.56	225.06
935.86	225.03
936.16	225.08
936.46	225.09
936.76	225.09
937.06	225.11
937.36	225.12
937.66	225.15
937.96	225.15
938.26	225.12
938.56	225.10
938.86	225.10
939.16	225.12
939.46	225.14
939.76	225.11
940.06	225.13
940.35	225.13
940.65	225.09
940.95	225.11
941.25	225.10
941.55	225.08
941.85	225.06
942.15	225.08
942.45	225.09
942.75	225.11
943.04	225.12
943.34	225.10
943.64	225.10
943.94	225.09
944.24	225.12
944.54	225.14
944.84	225.17
945.13	225.15
945.43	225.14
945.73	225.15
946.03	225.17
946.33	225.17
946.62	225.14
946.92	225.13
947.22	225.14
947.52	225.14
947.82	225.14
948.11	225.18
948.41	225.15
948.71	225.12
949.01	225.11
949.31	225.11
949.60	225.13
949.90	225.16
950.20	225.18
950.50	225.16
950.79	225.18
951.09	225.16
951.39	225.20
951.69	225.16
951.98	225.18
952.28	225.15
952.58	225.11
952.87	225.12
953.17	225.13
953.47	225.10
953.76	225.06
954.06	225.04
954.36	224.99
954.66	224.97
954.95	224.99
955.25	224.98
955.55	224.99
955.84	224.96
956.14	224.94
956.44	224.91
956.73	224.89
957.03	224.85
957.32	224.84
957.62	224.82
957.92	224.86
958.21	224.82
958.51	224.92
958.81	224.97
959.10	224.95
959.40	224.97
959.69	224.98
959.99	224.99
960.29	224.98
960.58	224.95
960.88	224.98
961.17	224.95
961.47	224.94
961.76	224.91
962.06	224.92
962.36	224.92
962.65	224.92
962.95	224.90
963.24	224.90
963.54	224.93
963.83	224.93
964.13	224.91
964.42	224.89
964.72	224.82
965.01	224.81
965.31	224.82
965.60	224.77
965.90	224.86
966.19	224.83
966.49	224.85
966.78	224.87
967.08	224.86
967.37	224.88
967.67	224.86
967.96	224.88
968.26	224.89
968.55	224.89
968.85	224.90
969.14	224.89
969.43	224.88
969.73	224.83
970.02	224.84
970.32	224.83
970.61	224.84
970.91	224.79
971.20	224.77
971.49	224.77
971.79	224.83
972.08	224.79
972.38	224.81
972.67	224.85
972.96	224.86
973.26	224.85
973.55	224.87
973.85	224.90
974.14	224.88
974.43	224.88
974.73	224.88
975.02	224.88
975.31	224.91
975.61	224.92
975.90	224.96
976.19	224.94
976.49	224.95
976.78	224.96
977.07	224.99
977.37	225.01
977.66	224.99
977.95	224.95
978.24	224.94
978.54	224.98
978.83	224.99
979.12	225.02
979.42	225.03
979.71	225.04
980.00	225.06
980.29	225.08
980.59	225.08
980.88	225.12
981.17	225.13
981.46	225.11
981.76	225.09
982.05	225.11
982.34	225.12
982.63	225.13
982.93	225.15
983.22	225.17
983.51	225.16
983.80	225.21
984.09	225.21
984.39	225.18
984.68	225.14
984.97	225.12
985.26	225.09
985.55	225.09
985.85	225.05
986.14	225.03
986.43	225.01
986.72	224.98
987.01	224.94
987.30	224.91
987.59	224.93
987.89	224.97
988.18	224.91
988.47	224.88
988.76	224.84
989.05	224.80
989.34	224.77
989.63	224.78
989.92	224.73
990.22	224.74
990.51	224.73
990.80	224.76
991.09	224.77
991.38	224.74
991.67	224.71
991.96	224.69
992.25	224.70
992.54	224.66
992.83	224.65
993.12	224.66
993.41	224.67
993.70	224.71
993.99	224.72
994.28	224.73
994.58	224.76
994.87	224.74
995.16	224.73
995.45	224.72
995.74	224.68
996.03	224.70
996.32	224.73
996.61	224.79
996.90	224.77
997.19	224.76
997.48	224.77
997.77	224.77
998.06	224.80
998.34	224.80
998.63	224.82
998.92	224.83
999.21	224.85
999.50	224.86
999.79	224.82
1000.08	224.81
1000.37	224.81
1000.66	224.79
1000.95	224.82
1001.24	224.81
1001.53	224.85
1001.82	224.85
1002.11	224.83
1002.40	224.82
1002.68	224.81
1002.97	224.86
1003.26	224.84
1003.55	224.83
1003.84	224.84
1004.13	224.83
1004.42	224.80
1004.71	224.78
1004.99	224.75
1005.28	224.74
1005.57	224.71
1005.86	224.69
1006.15	224.70
1006.44	224.68
1006.72	224.70
1007.01	224.67
1007.30	224.72
1007.59	224.69
1007.88	224.74
1008.17	224.74
1008.45	224.69
1008.74	224.62
1009.03	224.56
1009.32	224.56
1009.60	224.56
1009.89	224.54
1010.18	224.54
1010.47	224.53
1010.76	224.56
1011.04	224.58
1011.33	224.57
1011.62	224.60
1011.91	224.61
1012.19	224.62
1012.48	224.64
1012.77	224.64
1013.05	224.71
1013.34	224.66
1013.63	224.66
1013.92	224.63
1014.20	224.62
1014.49	224.64
1014.78	224.68
1015.06	224.65
1015.35	224.67
1015.64	224.70
1015.92	224.75
1016.21	224.73
1016.50	224.75
1016.78	224.75
1017.07	224.77
1017.36	224.74
1017.64	224.75
1017.93	224.75
1018.22	224.72
1018.50	224.74
1018.79	224.72
1019.08	224.65
1019.36	224.68
1019.65	224.67
1019.93	224.69
1020.22	224.72
1020.51	224.79
1020.79	224.78
1021.08	224.51
1021.36	225.23
1021.65	224.27
1021.94	224.51
1022.22	224.43
1022.51	224.02
1022.79	225.17
1023.08	225.11
1023.36	226.31
1023.65	224.50
>>>>>End Processed Spectral Data<<<<<
