SpectraSuite Data File
++++++++++++++++++++++++++++++++++++
Date: Fri Feb 01 17:59:55 EST 2013
User: group
Dark Spectrum Present: No
Reference Spectrum Present: No
Number of Sampled Component Spectra: 1
Spectrometers: USB2E7196
Integration Time (usec): 35000 (USB2E7196)
Spectra Averaged: 100 (USB2E7196)
Boxcar Smoothing: 10 (USB2E7196)
Correct for Electrical Dark: No (USB2E7196)
Strobe/Lamp Enabled: No (USB2E7196)
Correct for Detector Non-linearity: No (USB2E7196)
Correct for Stray Light: No (USB2E7196)
Number of Pixels in Processed Spectrum: 2048
>>>>>Begin Processed Spectral Data<<<<<
339.09	0.00
339.48	212.77
339.86	214.44
340.24	215.91
340.63	217.39
341.01	220.25
341.39	219.94
341.78	221.53
342.16	222.61
342.54	222.97
342.93	211.45
343.31	222.13
343.69	222.68
344.07	223.13
344.46	223.57
344.84	223.89
345.22	224.12
345.60	224.38
345.99	224.56
346.37	224.68
346.75	224.77
347.13	224.83
347.52	224.86
347.90	224.93
348.28	224.90
348.66	224.99
349.05	224.99
349.43	225.04
349.81	225.07
350.19	225.11
350.57	225.15
350.96	225.20
351.34	225.28
351.72	225.34
352.10	225.48
352.48	225.53
352.87	225.63
353.25	225.71
353.63	225.74
354.01	225.77
354.39	225.86
354.77	225.91
355.15	225.99
355.54	226.05
355.92	226.04
356.30	226.12
356.68	226.24
357.06	226.28
357.44	226.33
357.82	226.41
358.20	226.49
358.58	226.57
358.97	226.66
359.35	226.74
359.73	226.84
360.11	226.83
360.49	226.87
360.87	226.89
361.25	226.95
361.63	227.05
362.01	227.11
362.39	227.12
362.77	227.21
363.15	227.19
363.53	227.23
363.91	227.29
364.29	227.31
364.67	227.24
365.05	227.26
365.43	227.30
365.81	227.31
366.19	227.38
366.57	227.40
366.95	227.37
367.33	227.34
367.71	227.34
368.09	227.36
368.47	227.38
368.85	227.39
369.23	227.35
369.61	227.30
369.99	227.31
370.37	227.29
370.75	227.28
371.13	227.29
371.51	227.26
371.89	227.24
372.27	227.19
372.65	227.17
373.03	227.17
373.41	227.10
373.78	227.05
374.16	226.94
374.54	226.87
374.92	226.81
375.30	226.76
375.68	226.65
376.06	226.59
376.44	226.50
376.82	226.45
377.19	226.40
377.57	226.33
377.95	226.27
378.33	226.18
378.71	226.06
379.09	226.00
379.47	225.96
379.84	225.89
380.22	225.85
380.60	225.76
380.98	225.72
381.36	225.70
381.73	225.63
382.11	225.56
382.49	225.50
382.87	225.47
383.25	225.43
383.62	225.52
384.00	225.47
384.38	225.42
384.76	225.41
385.13	225.42
385.51	225.36
385.89	225.30
386.27	225.31
386.64	225.31
387.02	225.24
387.40	225.20
387.78	225.20
388.15	225.18
388.53	225.16
388.91	225.11
389.29	225.05
389.66	225.05
390.04	225.03
390.42	225.05
390.79	225.01
391.17	224.98
391.55	224.86
391.92	224.86
392.30	224.86
392.68	224.81
393.05	224.79
393.43	224.81
393.81	224.83
394.18	224.77
394.56	224.77
394.94	224.81
395.31	224.81
395.69	224.85
396.06	224.89
396.44	224.92
396.82	224.93
397.19	225.00
397.57	225.05
397.95	225.10
398.32	225.10
398.70	225.18
399.07	225.25
399.45	225.32
399.82	225.38
400.20	225.42
400.58	225.52
400.95	225.56
401.33	225.67
401.70	225.76
402.08	225.87
402.45	225.95
402.83	226.08
403.20	226.20
403.58	226.27
403.95	226.35
404.33	226.49
404.71	226.60
405.08	226.79
405.46	226.92
405.83	227.10
406.21	227.29
406.58	227.44
406.96	227.62
407.33	227.83
407.70	228.04
408.08	228.35
408.45	228.60
408.83	228.89
409.20	229.13
409.58	229.36
409.95	229.69
410.33	230.06
410.70	230.37
411.08	230.74
411.45	231.12
411.82	231.54
412.20	231.96
412.57	232.51
412.95	232.94
413.32	233.48
413.69	233.99
414.07	234.57
414.44	235.22
414.82	235.85
415.19	236.56
415.56	237.30
415.94	238.07
416.31	238.95
416.68	239.76
417.06	240.68
417.43	241.63
417.81	242.67
418.18	243.66
418.55	244.81
418.93	245.96
419.30	247.20
419.67	248.46
420.04	249.77
420.42	251.09
420.79	252.62
421.16	254.16
421.54	255.76
421.91	257.42
422.28	259.11
422.66	260.91
423.03	262.65
423.40	264.45
423.77	266.33
424.15	268.21
424.52	270.26
424.89	272.48
425.26	274.59
425.64	276.53
426.01	278.75
426.38	280.99
426.75	283.29
427.13	285.59
427.50	288.05
427.87	290.64
428.24	293.24
428.61	295.63
428.99	298.23
429.36	301.09
429.73	303.85
430.10	306.63
430.47	309.42
430.85	312.31
431.22	315.31
431.59	318.50
431.96	321.53
432.33	324.83
432.70	328.04
433.08	331.84
433.45	335.40
433.82	338.90
434.19	342.73
434.56	346.49
434.93	350.08
435.30	353.60
435.68	357.48
436.05	361.26
436.42	365.00
436.79	368.42
437.16	372.03
437.53	375.87
437.90	379.58
438.27	383.32
438.64	387.14
439.01	390.69
439.38	393.70
439.75	396.65
440.13	400.00
440.50	403.17
440.87	405.68
441.24	408.29
441.61	411.18
441.98	413.24
442.35	415.72
442.72	418.29
443.09	420.73
443.46	422.03
443.83	422.83
444.20	423.57
444.57	424.73
444.94	425.18
445.31	425.64
445.68	426.09
446.05	426.17
446.42	425.64
446.79	425.02
447.16	424.47
447.53	424.06
447.90	422.57
448.27	420.97
448.64	418.80
449.01	417.28
449.37	414.64
449.74	412.06
450.11	409.00
450.48	405.64
450.85	402.20
451.22	399.35
451.59	396.62
451.96	393.99
452.33	390.46
452.70	387.27
453.07	383.47
453.43	379.61
453.80	375.89
454.17	372.31
454.54	368.92
454.91	365.25
455.28	361.61
455.65	358.26
456.02	354.91
456.38	352.02
456.75	348.42
457.12	345.38
457.49	342.40
457.86	339.46
458.23	336.91
458.59	334.16
458.96	331.28
459.33	328.77
459.70	326.19
460.07	324.16
460.43	321.78
460.80	319.54
461.17	317.55
461.54	315.46
461.91	313.48
462.27	311.48
462.64	309.72
463.01	307.89
463.38	306.07
463.74	304.25
464.11	302.66
464.48	301.26
464.85	299.75
465.21	298.53
465.58	297.23
465.95	295.73
466.32	294.50
466.68	293.28
467.05	292.04
467.42	290.84
467.78	289.54
468.15	288.41
468.52	287.53
468.88	286.36
469.25	285.32
469.62	284.50
469.98	283.60
470.35	282.75
470.72	281.95
471.08	281.09
471.45	280.35
471.82	279.56
472.18	278.72
472.55	278.11
472.92	277.39
473.28	276.78
473.65	276.15
474.02	275.51
474.38	274.97
474.75	274.52
475.11	274.05
475.48	273.65
475.85	273.27
476.21	272.89
476.58	272.60
476.94	272.37
477.31	272.06
477.67	271.76
478.04	271.58
478.41	271.42
478.77	271.36
479.14	271.20
479.50	271.18
479.87	271.21
480.23	271.23
480.60	271.27
480.96	271.28
481.33	271.47
481.69	271.65
482.06	271.85
482.42	271.97
482.79	272.17
483.15	272.48
483.52	272.86
483.88	273.17
484.25	273.55
484.61	273.93
484.98	274.32
485.34	274.88
485.71	275.47
486.07	276.08
486.44	276.65
486.80	277.32
487.17	278.05
487.53	278.87
487.90	279.72
488.26	280.64
488.62	281.69
488.99	282.67
489.35	283.76
489.72	284.90
490.08	286.16
490.44	287.44
490.81	288.83
491.17	290.18
491.54	291.74
491.90	293.33
492.26	295.05
492.63	296.93
492.99	298.81
493.36	300.78
493.72	302.93
494.08	305.18
494.45	307.58
494.81	310.12
495.17	312.73
495.54	315.45
495.90	318.30
496.26	321.24
496.63	324.35
496.99	327.65
497.35	331.10
497.72	334.69
498.08	338.38
498.44	342.30
498.80	346.47
499.17	350.73
499.53	355.18
499.89	359.86
500.26	364.58
500.62	369.56
500.98	374.82
501.34	380.18
501.71	385.75
502.07	391.54
502.43	397.44
502.79	403.61
503.16	409.97
503.52	416.65
503.88	423.45
504.24	430.49
504.60	437.73
504.97	445.31
505.33	453.11
505.69	461.39
506.05	469.66
506.41	478.06
506.78	486.79
507.14	495.77
507.50	505.04
507.86	514.65
508.22	524.39
508.59	534.19
508.95	544.40
509.31	554.94
509.67	565.69
510.03	576.70
510.39	587.93
510.75	599.54
511.12	611.23
511.48	623.33
511.84	635.62
512.20	648.01
512.56	660.78
512.92	673.83
513.28	687.02
513.64	700.46
514.00	714.15
514.37	728.09
514.73	742.13
515.09	756.10
515.45	770.46
515.81	785.12
516.17	800.29
516.53	815.61
516.89	830.87
517.25	846.21
517.61	861.82
517.97	877.51
518.33	893.13
518.69	909.12
519.05	925.43
519.41	942.01
519.77	958.85
520.13	975.72
520.49	992.53
520.85	1009.30
521.21	1026.38
521.57	1044.02
521.93	1061.17
522.29	1079.12
522.65	1096.96
523.01	1114.69
523.37	1132.28
523.73	1149.97
524.09	1167.64
524.45	1185.60
524.81	1203.93
525.17	1222.32
525.53	1240.84
525.89	1259.56
526.25	1278.16
526.61	1296.19
526.97	1314.56
527.33	1332.85
527.68	1351.20
528.04	1369.53
528.40	1387.85
528.76	1406.79
529.12	1425.23
529.48	1444.07
529.84	1461.83
530.20	1480.39
530.56	1499.28
530.91	1518.68
531.27	1537.38
531.63	1555.82
531.99	1574.42
532.35	1592.40
532.71	1610.30
533.07	1628.73
533.42	1646.47
533.78	1664.60
534.14	1682.97
534.50	1700.44
534.86	1718.42
535.21	1735.65
535.57	1753.62
535.93	1771.41
536.29	1788.32
536.65	1805.59
537.00	1822.40
537.36	1840.08
537.72	1856.78
538.08	1873.46
538.44	1889.40
538.79	1905.51
539.15	1921.24
539.51	1937.01
539.87	1953.57
540.22	1969.44
540.58	1985.36
540.94	2001.07
541.29	2016.14
541.65	2031.27
542.01	2046.61
542.37	2061.16
542.72	2075.92
543.08	2089.95
543.44	2104.75
543.79	2118.34
544.15	2131.40
544.51	2145.37
544.87	2158.41
545.22	2171.34
545.58	2183.70
545.94	2195.60
546.29	2207.69
546.65	2219.87
547.01	2231.61
547.36	2242.45
547.72	2253.23
548.07	2263.32
548.43	2273.49
548.79	2283.36
549.14	2292.86
549.50	2302.21
549.86	2311.99
550.21	2321.24
550.57	2330.42
550.92	2338.81
551.28	2347.76
551.64	2356.93
551.99	2365.35
552.35	2373.50
552.70	2381.71
553.06	2389.72
553.41	2397.97
553.77	2405.79
554.13	2413.71
554.48	2421.53
554.84	2428.80
555.19	2435.68
555.55	2442.51
555.90	2448.67
556.26	2455.67
556.61	2461.92
556.97	2467.99
557.32	2473.66
557.68	2479.43
558.03	2485.28
558.39	2490.56
558.74	2496.85
559.10	2502.40
559.45	2507.49
559.81	2513.29
560.16	2518.65
560.52	2523.19
560.87	2528.09
561.23	2532.09
561.58	2536.20
561.94	2539.96
562.29	2543.47
562.64	2547.67
563.00	2551.50
563.35	2556.37
563.71	2560.71
564.06	2565.23
564.42	2569.60
564.77	2573.52
565.12	2577.18
565.48	2580.43
565.83	2583.54
566.19	2585.93
566.54	2587.75
566.89	2590.06
567.25	2591.68
567.60	2593.94
567.96	2596.93
568.31	2598.79
568.66	2600.94
569.02	2602.50
569.37	2603.86
569.72	2605.84
570.08	2606.88
570.43	2607.63
570.78	2608.02
571.14	2607.08
571.49	2606.29
571.84	2606.45
572.20	2605.88
572.55	2605.30
572.90	2604.06
573.26	2603.17
573.61	2601.84
573.96	2600.56
574.31	2597.78
574.67	2594.95
575.02	2591.40
575.37	2588.02
575.72	2584.41
576.08	2581.19
576.43	2577.88
576.78	2574.35
577.13	2571.12
577.49	2568.05
577.84	2564.81
578.19	2560.93
578.54	2557.34
578.90	2553.27
579.25	2547.45
579.60	2542.29
579.95	2537.04
580.30	2531.75
580.66	2526.22
581.01	2520.82
581.36	2515.49
581.71	2511.26
582.06	2506.73
582.42	2502.08
582.77	2496.53
583.12	2491.50
583.47	2486.62
583.82	2481.55
584.17	2475.69
584.53	2469.85
584.88	2463.67
585.23	2457.25
585.58	2451.28
585.93	2445.28
586.28	2439.91
586.63	2434.49
586.98	2428.76
587.34	2423.66
587.69	2418.21
588.04	2412.42
588.39	2406.37
588.74	2399.21
589.09	2392.30
589.44	2384.71
589.79	2377.67
590.14	2371.37
590.49	2363.98
590.84	2356.65
591.19	2349.78
591.54	2342.59
591.89	2334.51
592.25	2327.01
592.60	2318.90
592.95	2310.40
593.30	2302.02
593.65	2293.34
594.00	2285.26
594.35	2277.08
594.70	2267.81
595.05	2259.89
595.40	2251.65
595.75	2242.99
596.10	2236.04
596.45	2228.35
596.80	2221.34
597.15	2213.96
597.50	2205.98
597.85	2198.62
598.19	2191.06
598.54	2183.11
598.89	2175.53
599.24	2168.65
599.59	2161.04
599.94	2153.94
600.29	2146.49
600.64	2138.80
600.99	2130.50
601.34	2122.65
601.69	2114.60
602.04	2106.78
602.39	2098.26
602.74	2090.34
603.08	2082.61
603.43	2074.61
603.78	2066.11
604.13	2057.72
604.48	2049.42
604.83	2041.40
605.18	2033.51
605.53	2024.27
605.87	2014.99
606.22	2006.48
606.57	1997.14
606.92	1988.30
607.27	1979.97
607.62	1972.04
607.96	1963.77
608.31	1956.05
608.66	1947.12
609.01	1938.30
609.36	1929.42
609.70	1919.95
610.05	1910.52
610.40	1901.69
610.75	1892.11
611.10	1883.19
611.44	1873.23
611.79	1863.77
612.14	1853.59
612.49	1842.78
612.83	1832.83
613.18	1823.14
613.53	1813.60
613.88	1803.48
614.22	1793.80
614.57	1783.53
614.92	1774.01
615.27	1765.15
615.61	1755.29
615.96	1745.79
616.31	1736.87
616.65	1728.21
617.00	1719.37
617.35	1710.34
617.70	1700.43
618.04	1690.40
618.39	1680.58
618.74	1671.70
619.08	1662.03
619.43	1653.03
619.78	1644.81
620.12	1636.41
620.47	1627.56
620.82	1617.98
621.16	1609.23
621.51	1600.28
621.85	1591.35
622.20	1581.37
622.55	1571.48
622.89	1562.14
623.24	1553.12
623.59	1544.31
623.93	1535.49
624.28	1526.98
624.62	1518.11
624.97	1509.67
625.32	1501.63
625.66	1493.46
626.01	1485.04
626.35	1476.25
626.70	1467.12
627.04	1458.10
627.39	1448.89
627.73	1440.18
628.08	1432.14
628.43	1423.76
628.77	1415.15
629.12	1406.22
629.46	1397.82
629.81	1388.88
630.15	1380.42
630.50	1371.84
630.84	1362.20
631.19	1352.66
631.53	1343.79
631.88	1334.87
632.22	1325.86
632.57	1317.33
632.91	1308.41
633.26	1299.64
633.60	1290.95
633.95	1282.54
634.29	1274.19
634.64	1266.35
634.98	1257.72
635.32	1249.23
635.67	1241.29
636.01	1233.43
636.36	1225.50
636.70	1217.75
637.05	1210.15
637.39	1202.55
637.73	1194.94
638.08	1188.03
638.42	1181.06
638.77	1173.51
639.11	1166.00
639.45	1158.51
639.80	1150.73
640.14	1143.22
640.49	1135.68
640.83	1128.27
641.17	1121.02
641.52	1113.55
641.86	1106.00
642.20	1099.16
642.55	1091.85
642.89	1084.38
643.23	1076.80
643.58	1070.10
643.92	1062.89
644.26	1055.88
644.61	1048.82
644.95	1041.94
645.29	1034.32
645.64	1026.52
645.98	1019.22
646.32	1012.23
646.66	1005.29
647.01	998.59
647.35	992.03
647.69	985.13
648.04	978.75
648.38	972.20
648.72	965.43
649.06	958.47
649.41	951.58
649.75	944.67
650.09	937.81
650.43	931.11
650.78	924.03
651.12	917.19
651.46	910.57
651.80	904.01
652.14	897.54
652.49	891.39
652.83	885.51
653.17	878.92
653.51	872.38
653.85	866.03
654.20	859.47
654.54	852.52
654.88	845.92
655.22	839.14
655.56	832.45
655.90	826.10
656.25	820.09
656.59	813.88
656.93	807.99
657.27	802.01
657.61	795.74
657.95	789.90
658.29	784.02
658.64	777.90
658.98	771.68
659.32	765.47
659.66	759.44
660.00	753.24
660.34	747.56
660.68	741.82
661.02	736.04
661.36	730.64
661.70	725.46
662.05	720.44
662.39	715.37
662.73	710.12
663.07	705.04
663.41	699.82
663.75	694.72
664.09	689.42
664.43	684.35
664.77	679.62
665.11	674.63
665.45	669.82
665.79	665.15
666.13	660.48
666.47	655.70
666.81	650.94
667.15	646.23
667.49	641.61
667.83	637.26
668.17	632.71
668.51	627.98
668.85	623.33
669.19	618.83
669.53	614.43
669.87	610.09
670.21	605.84
670.55	601.63
670.89	597.60
671.23	593.63
671.57	589.51
671.91	585.43
672.25	581.33
672.58	577.33
672.92	573.32
673.26	569.59
673.60	565.95
673.94	562.33
674.28	558.97
674.62	555.55
674.96	551.89
675.30	548.53
675.64	545.15
675.97	541.86
676.31	538.56
676.65	535.18
676.99	532.01
677.33	528.71
677.67	525.48
678.01	522.05
678.34	518.62
678.68	515.35
679.02	512.10
679.36	508.97
679.70	505.79
680.04	502.68
680.37	499.41
680.71	496.18
681.05	493.16
681.39	489.99
681.73	487.01
682.06	484.14
682.40	481.24
682.74	478.33
683.08	475.41
683.42	472.43
683.75	469.56
684.09	466.61
684.43	463.74
684.77	460.87
685.10	458.10
685.44	455.43
685.78	452.74
686.12	450.09
686.45	447.44
686.79	444.78
687.13	442.23
687.46	439.73
687.80	437.20
688.14	434.58
688.48	432.19
688.81	429.53
689.15	427.05
689.49	424.51
689.82	422.09
690.16	419.68
690.50	417.40
690.83	415.18
691.17	412.88
691.51	410.68
691.84	408.56
692.18	406.37
692.52	404.08
692.85	401.83
693.19	399.68
693.52	397.58
693.86	395.46
694.20	393.36
694.53	391.26
694.87	389.16
695.21	387.11
695.54	384.99
695.88	383.01
696.21	381.04
696.55	379.10
696.88	377.13
697.22	375.20
697.56	373.31
697.89	371.38
698.23	369.52
698.56	367.63
698.90	365.80
699.23	363.89
699.57	362.11
699.90	360.36
700.24	358.54
700.58	356.75
700.91	355.08
701.25	353.42
701.58	351.86
701.92	350.24
702.25	348.67
702.59	347.07
702.92	345.54
703.26	344.00
703.59	342.55
703.93	341.14
704.26	339.73
704.60	338.24
704.93	336.73
705.26	335.28
705.60	333.92
705.93	332.55
706.27	331.30
706.60	330.10
706.94	328.82
707.27	327.51
707.61	326.26
707.94	324.98
708.27	323.69
708.61	322.38
708.94	321.24
709.28	320.08
709.61	318.94
709.94	317.84
710.28	316.62
710.61	315.44
710.95	314.20
711.28	313.10
711.61	312.01
711.95	310.96
712.28	309.88
712.61	308.71
712.95	307.62
713.28	306.61
713.61	305.54
713.95	304.49
714.28	303.52
714.61	302.54
714.95	301.57
715.28	300.57
715.61	299.57
715.95	298.55
716.28	297.56
716.61	296.59
716.95	295.60
717.28	294.71
717.61	293.84
717.94	292.98
718.28	292.05
718.61	291.17
718.94	290.34
719.27	289.57
719.61	288.82
719.94	288.06
720.27	287.23
720.60	286.42
720.94	285.71
721.27	285.00
721.60	284.32
721.93	283.61
722.27	283.01
722.60	282.33
722.93	281.66
723.26	281.00
723.59	280.33
723.93	279.70
724.26	279.07
724.59	278.37
724.92	277.73
725.25	277.15
725.59	276.57
725.92	275.99
726.25	275.38
726.58	274.81
726.91	274.23
727.24	273.67
727.57	273.15
727.91	272.51
728.24	271.93
728.57	271.36
728.90	270.81
729.23	270.25
729.56	269.78
729.89	269.26
730.22	268.74
730.55	268.24
730.89	267.74
731.22	267.20
731.55	266.72
731.88	266.24
732.21	265.75
732.54	265.22
732.87	264.73
733.20	264.25
733.53	263.79
733.86	263.34
734.19	262.90
734.52	262.46
734.85	262.12
735.18	261.69
735.51	261.28
735.84	260.89
736.17	260.48
736.50	260.00
736.83	259.72
737.16	259.36
737.49	258.97
737.82	258.57
738.15	258.23
738.48	257.84
738.81	257.45
739.14	257.07
739.47	256.73
739.80	256.38
740.13	256.01
740.46	255.63
740.79	255.27
741.12	254.85
741.45	254.52
741.78	254.09
742.11	253.76
742.44	253.33
742.77	252.96
743.10	252.60
743.43	252.26
743.75	251.83
744.08	251.65
744.41	251.31
744.74	250.99
745.07	250.65
745.40	250.37
745.73	250.13
746.06	249.80
746.39	249.49
746.71	249.16
747.04	248.86
747.37	248.55
747.70	248.27
748.03	248.02
748.36	247.69
748.68	247.43
749.01	247.13
749.34	246.92
749.67	246.64
750.00	246.38
750.33	246.15
750.65	245.89
750.98	245.47
751.31	245.25
751.64	245.01
751.97	244.81
752.29	244.52
752.62	244.20
752.95	243.95
753.28	243.69
753.60	243.47
753.93	243.26
754.26	243.02
754.59	242.76
754.91	242.50
755.24	242.30
755.57	242.06
755.90	241.83
756.22	241.56
756.55	241.33
756.88	241.11
757.20	240.85
757.53	240.60
757.86	240.40
758.19	240.17
758.51	239.97
758.84	239.72
759.17	239.56
759.49	239.39
759.82	239.26
760.15	239.09
760.47	238.89
760.80	238.70
761.13	238.55
761.45	238.35
761.78	238.20
762.11	238.00
762.43	237.85
762.76	237.69
763.08	237.58
763.41	237.44
763.74	237.28
764.06	237.12
764.39	236.97
764.71	236.79
765.04	236.65
765.37	236.47
765.69	236.33
766.02	236.15
766.34	235.99
766.67	235.83
767.00	235.71
767.32	235.63
767.65	235.59
767.97	235.46
768.30	235.37
768.62	235.25
768.95	235.13
769.27	234.99
769.60	234.90
769.92	234.76
770.25	234.62
770.57	234.54
770.90	234.45
771.22	234.33
771.55	234.25
771.87	234.17
772.20	234.11
772.52	234.10
772.85	234.14
773.17	234.05
773.50	233.93
773.82	233.82
774.15	233.67
774.47	233.52
774.80	233.42
775.12	233.31
775.45	233.23
775.77	233.16
776.09	233.10
776.42	233.03
776.74	232.98
777.07	232.91
777.39	232.79
777.72	232.69
778.04	232.67
778.36	232.56
778.69	232.48
779.01	232.38
779.33	232.22
779.66	232.02
779.98	231.95
780.31	231.88
780.63	231.82
780.95	231.77
781.28	231.68
781.60	231.60
781.92	231.53
782.25	231.49
782.57	231.41
782.89	231.35
783.22	231.21
783.54	231.14
783.86	231.07
784.19	231.00
784.51	231.04
784.83	230.96
785.16	230.89
785.48	230.85
785.80	230.79
786.12	230.77
786.45	230.71
786.77	230.68
787.09	230.62
787.42	230.57
787.74	230.51
788.06	230.47
788.38	230.42
788.71	230.39
789.03	230.33
789.35	230.28
789.67	230.22
789.99	230.20
790.32	230.14
790.64	230.13
790.96	230.16
791.28	230.02
791.61	229.97
791.93	229.96
792.25	229.89
792.57	229.93
792.89	229.85
793.21	229.87
793.54	229.76
793.86	229.68
794.18	229.60
794.50	229.56
794.82	229.51
795.14	229.45
795.47	229.39
795.79	229.33
796.11	229.28
796.43	229.24
796.75	229.17
797.07	229.13
797.39	229.01
797.71	228.90
798.04	228.86
798.36	228.79
798.68	228.72
799.00	228.68
799.32	228.56
799.64	228.54
799.96	228.42
800.28	228.44
800.60	228.45
800.92	228.44
801.24	228.38
801.56	228.32
801.89	228.27
802.21	228.27
802.53	228.22
802.85	228.20
803.17	228.18
803.49	228.17
803.81	228.10
804.13	228.13
804.45	228.08
804.77	228.06
805.09	228.01
805.41	228.00
805.73	227.94
806.05	227.88
806.37	227.82
806.69	227.80
807.01	227.74
807.33	227.71
807.65	227.63
807.97	227.64
808.28	227.62
808.60	227.60
808.92	227.57
809.24	227.58
809.56	227.51
809.88	227.47
810.20	227.43
810.52	227.43
810.84	227.40
811.16	227.38
811.48	227.33
811.80	227.35
812.12	227.30
812.43	227.29
812.75	227.26
813.07	227.22
813.39	227.22
813.71	227.18
814.03	227.13
814.35	227.13
814.67	227.07
814.98	227.06
815.30	227.05
815.62	226.99
815.94	226.90
816.26	226.94
816.58	226.91
816.89	226.88
817.21	226.85
817.53	226.82
817.85	226.81
818.17	226.78
818.48	226.75
818.80	226.76
819.12	226.72
819.44	226.70
819.76	226.69
820.07	226.65
820.39	226.64
820.71	226.67
821.03	226.63
821.34	226.64
821.66	226.62
821.98	226.60
822.30	226.59
822.61	226.66
822.93	226.57
823.25	226.56
823.57	226.54
823.88	226.57
824.20	226.53
824.52	226.50
824.83	226.51
825.15	226.49
825.47	226.46
825.79	226.46
826.10	226.45
826.42	226.44
826.74	226.41
827.05	226.40
827.37	226.36
827.69	226.40
828.00	226.37
828.32	226.38
828.64	226.35
828.95	226.36
829.27	226.33
829.58	226.35
829.90	226.36
830.22	226.39
830.53	226.34
830.85	226.35
831.17	226.32
831.48	226.29
831.80	226.27
832.11	226.22
832.43	226.20
832.75	226.18
833.06	226.22
833.38	226.22
833.69	226.20
834.01	226.19
834.32	226.15
834.64	226.10
834.96	226.07
835.27	226.09
835.59	226.07
835.90	226.02
836.22	226.01
836.53	225.99
836.85	225.96
837.16	226.05
837.48	226.03
837.79	226.06
838.11	226.05
838.42	226.03
838.74	226.08
839.05	226.05
839.37	226.06
839.68	225.95
840.00	225.91
840.31	225.92
840.63	225.91
840.94	225.91
841.26	225.90
841.57	225.87
841.88	225.84
842.20	225.82
842.51	225.79
842.83	225.76
843.14	225.82
843.46	225.80
843.77	225.71
844.08	225.69
844.40	225.65
844.71	225.65
845.03	225.61
845.34	225.57
845.65	225.56
845.97	225.54
846.28	225.60
846.60	225.62
846.91	225.58
847.22	225.55
847.54	225.54
847.85	225.54
848.16	225.52
848.48	225.48
848.79	225.50
849.10	225.48
849.42	225.49
849.73	225.40
850.04	225.40
850.36	225.36
850.67	225.37
850.98	225.36
851.30	225.33
851.61	225.36
851.92	225.37
852.23	225.38
852.55	225.36
852.86	225.32
853.17	225.29
853.49	225.32
853.80	225.37
854.11	225.38
854.42	225.38
854.74	225.38
855.05	225.42
855.36	225.38
855.67	225.39
855.99	225.41
856.30	225.51
856.61	225.49
856.92	225.49
857.23	225.48
857.55	225.47
857.86	225.49
858.17	225.47
858.48	225.46
858.79	225.43
859.11	225.45
859.42	225.46
859.73	225.47
860.04	225.46
860.35	225.40
860.66	225.35
860.98	225.38
861.29	225.41
861.60	225.39
861.91	225.44
862.22	225.45
862.53	225.39
862.84	225.30
863.16	225.33
863.47	225.33
863.78	225.32
864.09	225.34
864.40	225.32
864.71	225.36
865.02	225.38
865.33	225.40
865.64	225.39
865.95	225.41
866.27	225.49
866.58	225.46
866.89	225.48
867.20	225.47
867.51	225.42
867.82	225.42
868.13	225.43
868.44	225.41
868.75	225.42
869.06	225.45
869.37	225.44
869.68	225.42
869.99	225.44
870.30	225.44
870.61	225.47
870.92	225.47
871.23	225.43
871.54	225.44
871.85	225.45
872.16	225.45
872.47	225.44
872.78	225.38
873.09	225.40
873.40	225.39
873.71	225.42
874.02	225.45
874.33	225.42
874.64	225.41
874.95	225.41
875.26	225.41
875.56	225.39
875.87	225.38
876.18	225.35
876.49	225.44
876.80	225.45
877.11	225.42
877.42	225.40
877.73	225.42
878.04	225.43
878.35	225.42
878.66	225.41
878.96	225.42
879.27	225.44
879.58	225.44
879.89	225.45
880.20	225.48
880.51	225.42
880.82	225.41
881.12	225.37
881.43	225.33
881.74	225.29
882.05	225.26
882.36	225.26
882.67	225.27
882.97	225.19
883.28	225.18
883.59	225.19
883.90	225.19
884.21	225.20
884.51	225.16
884.82	225.11
885.13	225.12
885.44	225.08
885.74	225.02
886.05	225.00
886.36	225.02
886.67	224.96
886.98	225.03
887.28	225.04
887.59	225.05
887.90	225.06
888.20	225.08
888.51	225.12
888.82	225.11
889.13	225.12
889.43	225.19
889.74	225.19
890.05	225.17
890.35	225.16
890.66	225.14
890.97	225.13
891.28	225.14
891.58	225.09
891.89	225.11
892.20	225.10
892.50	225.11
892.81	225.05
893.12	225.01
893.42	225.00
893.73	225.01
894.04	225.02
894.34	224.99
894.65	224.98
894.95	224.98
895.26	225.00
895.57	225.04
895.87	224.92
896.18	224.92
896.48	224.90
896.79	224.91
897.10	224.92
897.40	224.94
897.71	224.94
898.01	224.97
898.32	224.97
898.63	225.01
898.93	225.00
899.24	225.02
899.54	225.03
899.85	224.98
900.15	225.01
900.46	224.99
900.76	225.04
901.07	225.03
901.38	225.02
901.68	224.99
901.99	224.92
902.29	224.95
902.60	224.93
902.90	224.94
903.21	224.93
903.51	224.93
903.82	224.94
904.12	224.94
904.43	224.97
904.73	224.96
905.03	224.96
905.34	225.04
905.64	225.07
905.95	225.14
906.25	225.14
906.56	225.13
906.86	225.15
907.17	225.14
907.47	225.13
907.77	225.10
908.08	225.09
908.38	225.10
908.69	225.08
908.99	225.14
909.30	225.13
909.60	225.19
909.90	225.18
910.21	225.17
910.51	225.17
910.81	225.17
911.12	225.19
911.42	225.20
911.73	225.12
912.03	225.12
912.33	225.10
912.64	225.11
912.94	225.08
913.24	225.03
913.55	225.03
913.85	225.04
914.15	225.09
914.46	225.11
914.76	225.13
915.06	225.14
915.37	225.09
915.67	225.12
915.97	225.07
916.27	225.05
916.58	225.06
916.88	225.04
917.18	225.02
917.49	225.08
917.79	225.07
918.09	225.07
918.39	225.09
918.70	225.09
919.00	225.08
919.30	225.11
919.60	225.13
919.91	225.09
920.21	225.10
920.51	225.10
920.81	225.06
921.12	225.01
921.42	224.98
921.72	224.99
922.02	224.97
922.32	224.99
922.63	224.99
922.93	225.01
923.23	225.04
923.53	225.01
923.83	224.97
924.13	224.96
924.44	224.95
924.74	224.98
925.04	224.96
925.34	224.96
925.64	224.95
925.94	224.96
926.24	225.03
926.55	225.00
926.85	224.98
927.15	225.00
927.45	225.04
927.75	225.07
928.05	225.06
928.35	225.06
928.65	225.07
928.95	225.11
929.26	225.08
929.56	225.07
929.86	225.09
930.16	225.06
930.46	225.06
930.76	225.06
931.06	225.01
931.36	225.03
931.66	225.04
931.96	225.03
932.26	225.01
932.56	224.95
932.86	224.95
933.16	224.96
933.46	224.94
933.76	224.94
934.06	224.97
934.36	225.03
934.66	225.02
934.96	224.99
935.26	224.98
935.56	225.01
935.86	224.98
936.16	224.96
936.46	224.97
936.76	224.95
937.06	224.92
937.36	224.91
937.66	224.90
937.96	224.88
938.26	224.87
938.56	224.90
938.86	224.92
939.16	224.97
939.46	224.96
939.76	225.01
940.06	224.99
940.35	224.93
940.65	224.88
940.95	224.91
941.25	224.89
941.55	224.87
941.85	224.84
942.15	224.91
942.45	224.93
942.75	224.91
943.04	224.93
943.34	224.98
943.64	224.99
943.94	224.99
944.24	225.00
944.54	225.01
944.84	225.01
945.13	224.98
945.43	224.94
945.73	224.97
946.03	224.95
946.33	224.96
946.62	224.99
946.92	224.94
947.22	224.92
947.52	224.91
947.82	224.93
948.11	224.91
948.41	224.87
948.71	224.86
949.01	224.85
949.31	224.82
949.60	224.80
949.90	224.78
950.20	224.78
950.50	224.76
950.79	224.74
951.09	224.75
951.39	224.75
951.69	224.74
951.98	224.72
952.28	224.73
952.58	224.71
952.87	224.71
953.17	224.73
953.47	224.72
953.76	224.73
954.06	224.69
954.36	224.70
954.66	224.68
954.95	224.70
955.25	224.69
955.55	224.66
955.84	224.63
956.14	224.64
956.44	224.61
956.73	224.59
957.03	224.61
957.32	224.63
957.62	224.60
957.92	224.62
958.21	224.61
958.51	224.71
958.81	224.74
959.10	224.72
959.40	224.74
959.69	224.75
959.99	224.76
960.29	224.74
960.58	224.72
960.88	224.75
961.17	224.73
961.47	224.79
961.76	224.83
962.06	224.87
962.36	224.86
962.65	224.86
962.95	224.84
963.24	224.84
963.54	224.82
963.83	224.86
964.13	224.85
964.42	224.81
964.72	224.72
965.01	224.68
965.31	224.67
965.60	224.65
965.90	224.71
966.19	224.69
966.49	224.72
966.78	224.73
967.08	224.71
967.37	224.73
967.67	224.68
967.96	224.68
968.26	224.69
968.55	224.70
968.85	224.69
969.14	224.72
969.43	224.74
969.73	224.75
970.02	224.74
970.32	224.75
970.61	224.77
970.91	224.75
971.20	224.77
971.49	224.74
971.79	224.76
972.08	224.68
972.38	224.68
972.67	224.68
972.96	224.70
973.26	224.69
973.55	224.72
973.85	224.74
974.14	224.73
974.43	224.72
974.73	224.72
975.02	224.76
975.31	224.74
975.61	224.69
975.90	224.65
976.19	224.66
976.49	224.68
976.78	224.70
977.07	224.69
977.37	224.68
977.66	224.74
977.95	224.71
978.24	224.75
978.54	224.78
978.83	224.76
979.12	224.76
979.42	224.75
979.71	224.73
980.00	224.74
980.29	224.72
980.59	224.71
980.88	224.73
981.17	224.69
981.46	224.71
981.76	224.72
982.05	224.77
982.34	224.75
982.63	224.75
982.93	224.73
983.22	224.77
983.51	224.78
983.80	224.78
984.09	224.80
984.39	224.78
984.68	224.78
984.97	224.79
985.26	224.74
985.55	224.76
985.85	224.72
986.14	224.73
986.43	224.77
986.72	224.76
987.01	224.71
987.30	224.75
987.59	224.75
987.89	224.76
988.18	224.75
988.47	224.76
988.76	224.70
989.05	224.70
989.34	224.68
989.63	224.68
989.92	224.69
990.22	224.67
990.51	224.71
990.80	224.74
991.09	224.73
991.38	224.78
991.67	224.79
991.96	224.76
992.25	224.76
992.54	224.74
992.83	224.73
993.12	224.75
993.41	224.74
993.70	224.78
993.99	224.80
994.28	224.78
994.58	224.78
994.87	224.80
995.16	224.79
995.45	224.79
995.74	224.77
996.03	224.76
996.32	224.77
996.61	224.75
996.90	224.71
997.19	224.71
997.48	224.71
997.77	224.70
998.06	224.72
998.34	224.71
998.63	224.71
998.92	224.72
999.21	224.74
999.50	224.72
999.79	224.68
1000.08	224.68
1000.37	224.72
1000.66	224.73
1000.95	224.73
1001.24	224.76
1001.53	224.78
1001.82	224.76
1002.11	224.77
1002.40	224.80
1002.68	224.83
1002.97	224.88
1003.26	224.87
1003.55	224.85
1003.84	224.85
1004.13	224.91
1004.42	224.88
1004.71	224.86
1004.99	224.89
1005.28	224.90
1005.57	224.91
1005.86	224.89
1006.15	224.88
1006.44	224.87
1006.72	224.87
1007.01	224.88
1007.30	224.87
1007.59	224.85
1007.88	224.89
1008.17	224.90
1008.45	224.85
1008.74	224.81
1009.03	224.80
1009.32	224.82
1009.60	224.79
1009.89	224.78
1010.18	224.73
1010.47	224.73
1010.76	224.74
1011.04	224.71
1011.33	224.70
1011.62	224.71
1011.91	224.74
1012.19	224.73
1012.48	224.73
1012.77	224.77
1013.05	224.81
1013.34	224.82
1013.63	224.82
1013.92	224.82
1014.20	224.80
1014.49	224.83
1014.78	224.83
1015.06	224.77
1015.35	224.75
1015.64	224.74
1015.92	224.75
1016.21	224.76
1016.50	224.78
1016.78	224.80
1017.07	224.80
1017.36	224.80
1017.64	224.78
1017.93	224.76
1018.22	224.74
1018.50	224.73
1018.79	224.69
1019.08	224.64
1019.36	224.63
1019.65	224.60
1019.93	224.60
1020.22	224.60
1020.51	224.61
1020.79	224.61
1021.08	224.02
1021.36	224.90
1021.65	224.69
1021.94	224.46
1022.22	224.96
1022.51	224.11
1022.79	224.62
1023.08	224.73
1023.36	225.58
1023.65	224.55
>>>>>End Processed Spectral Data<<<<<
