SpectraSuite Data File
++++++++++++++++++++++++++++++++++++
Date: Fri Feb 01 15:14:33 EST 2013
User: group
Dark Spectrum Present: No
Reference Spectrum Present: No
Number of Sampled Component Spectra: 1
Spectrometers: USB2E7196
Integration Time (usec): 35000 (USB2E7196)
Spectra Averaged: 100 (USB2E7196)
Boxcar Smoothing: 10 (USB2E7196)
Correct for Electrical Dark: No (USB2E7196)
Strobe/Lamp Enabled: No (USB2E7196)
Correct for Detector Non-linearity: No (USB2E7196)
Correct for Stray Light: No (USB2E7196)
Number of Pixels in Processed Spectrum: 2048
>>>>>Begin Processed Spectral Data<<<<<
339.09	0.00
339.48	214.87
339.86	217.09
340.24	218.20
340.63	219.59
341.01	222.07
341.39	222.42
341.78	223.64
342.16	224.63
342.54	225.21
342.93	213.70
343.31	224.50
343.69	225.06
344.07	225.48
344.46	225.90
344.84	226.27
345.22	226.53
345.60	226.77
345.99	226.99
346.37	227.14
346.75	227.24
347.13	227.32
347.52	227.36
347.90	227.40
348.28	227.42
348.66	227.43
349.05	227.40
349.43	227.48
349.81	227.48
350.19	227.52
350.57	227.54
350.96	227.63
351.34	227.72
351.72	227.84
352.10	227.96
352.48	228.00
352.87	228.07
353.25	228.12
353.63	228.20
354.01	228.21
354.39	228.27
354.77	228.34
355.15	228.43
355.54	228.51
355.92	228.56
356.30	228.64
356.68	228.76
357.06	228.84
357.44	228.85
357.82	228.91
358.20	228.97
358.58	229.06
358.97	229.13
359.35	229.21
359.73	229.22
360.11	229.29
360.49	229.33
360.87	229.38
361.25	229.43
361.63	229.49
362.01	229.54
362.39	229.55
362.77	229.57
363.15	229.58
363.53	229.59
363.91	229.57
364.29	229.57
364.67	229.47
365.05	229.49
365.43	229.52
365.81	229.52
366.19	229.57
366.57	229.56
366.95	229.53
367.33	229.45
367.71	229.45
368.09	229.42
368.47	229.39
368.85	229.36
369.23	229.33
369.61	229.25
369.99	229.22
370.37	229.20
370.75	229.21
371.13	229.12
371.51	229.08
371.89	229.08
372.27	229.02
372.65	228.98
373.03	228.91
373.41	228.82
373.78	228.75
374.16	228.63
374.54	228.56
374.92	228.49
375.30	228.43
375.68	228.35
376.06	228.27
376.44	228.22
376.82	228.12
377.19	228.02
377.57	227.94
377.95	227.84
378.33	227.77
378.71	227.63
379.09	227.59
379.47	227.50
379.84	227.39
380.22	227.30
380.60	227.20
380.98	227.13
381.36	227.08
381.73	227.03
382.11	226.99
382.49	226.94
382.87	226.86
383.25	226.83
383.62	226.86
384.00	226.82
384.38	226.78
384.76	226.80
385.13	226.81
385.51	226.76
385.89	226.74
386.27	226.70
386.64	226.66
387.02	226.63
387.40	226.60
387.78	226.59
388.15	226.56
388.53	226.58
388.91	226.57
389.29	226.55
389.66	226.54
390.04	226.52
390.42	226.51
390.79	226.52
391.17	226.48
391.55	226.37
391.92	226.35
392.30	226.37
392.68	226.33
393.05	226.33
393.43	226.34
393.81	226.37
394.18	226.36
394.56	226.42
394.94	226.47
395.31	226.50
395.69	226.56
396.06	226.61
396.44	226.62
396.82	226.63
397.19	226.73
397.57	226.74
397.95	226.79
398.32	226.81
398.70	226.86
399.07	226.97
399.45	227.05
399.82	227.15
400.20	227.19
400.58	227.30
400.95	227.34
401.33	227.45
401.70	227.60
402.08	227.70
402.45	227.77
402.83	227.89
403.20	228.00
403.58	228.11
403.95	228.25
404.33	228.42
404.71	228.58
405.08	228.76
405.46	228.92
405.83	229.08
406.21	229.24
406.58	229.43
406.96	229.58
407.33	229.77
407.70	229.96
408.08	230.22
408.45	230.40
408.83	230.63
409.20	230.84
409.58	231.02
409.95	231.30
410.33	231.57
410.70	231.81
411.08	232.10
411.45	232.38
411.82	232.71
412.20	233.05
412.57	233.46
412.95	233.72
413.32	234.13
413.69	234.55
414.07	235.01
414.44	235.46
414.82	235.98
415.19	236.53
415.56	237.07
415.94	237.63
416.31	238.29
416.68	238.87
417.06	239.61
417.43	240.29
417.81	241.05
418.18	241.88
418.55	242.71
418.93	243.59
419.30	244.48
419.67	245.39
420.04	246.34
420.42	247.35
420.79	248.55
421.16	249.72
421.54	250.91
421.91	252.11
422.28	253.37
422.66	254.70
423.03	256.01
423.40	257.36
423.77	258.79
424.15	260.19
424.52	261.74
424.89	263.32
425.26	264.88
425.64	266.32
426.01	267.90
426.38	269.56
426.75	271.26
427.13	273.01
427.50	274.86
427.87	276.73
428.24	278.55
428.61	280.30
428.99	282.28
429.36	284.38
429.73	286.49
430.10	288.53
430.47	290.54
430.85	292.65
431.22	294.90
431.59	297.27
431.96	299.52
432.33	302.02
432.70	304.41
433.08	307.24
433.45	309.92
433.82	312.52
434.19	315.44
434.56	318.26
434.93	320.89
435.30	323.51
435.68	326.44
436.05	329.31
436.42	332.06
436.79	334.53
437.16	337.24
437.53	340.08
437.90	342.92
438.27	345.68
438.64	348.57
439.01	351.16
439.38	353.43
439.75	355.65
440.13	358.14
440.50	360.50
440.87	362.33
441.24	364.28
441.61	366.40
441.98	367.84
442.35	369.62
442.72	371.50
443.09	373.28
443.46	374.29
443.83	374.88
444.20	375.42
444.57	376.23
444.94	376.50
445.31	376.79
445.68	377.12
446.05	377.22
446.42	376.79
446.79	376.38
447.16	375.90
447.53	375.56
447.90	374.34
448.27	373.20
448.64	371.62
449.01	370.47
449.37	368.53
449.74	366.66
450.11	364.42
450.48	361.91
450.85	359.37
451.22	357.17
451.59	355.11
451.96	353.15
452.33	350.57
452.70	348.21
453.07	345.37
453.43	342.47
453.80	339.66
454.17	336.93
454.54	334.36
454.91	331.63
455.28	328.95
455.65	326.49
456.02	324.00
456.38	321.83
456.75	319.12
457.12	316.84
457.49	314.62
457.86	312.43
458.23	310.57
458.59	308.56
458.96	306.47
459.33	304.63
459.70	302.74
460.07	301.22
460.43	299.49
460.80	297.84
461.17	296.39
461.54	294.88
461.91	293.52
462.27	292.05
462.64	290.84
463.01	289.51
463.38	288.17
463.74	286.80
464.11	285.63
464.48	284.61
464.85	283.49
465.21	282.63
465.58	281.71
465.95	280.67
466.32	279.74
466.68	278.84
467.05	277.93
467.42	277.07
467.78	276.15
468.15	275.29
468.52	274.68
468.88	273.81
469.25	273.05
469.62	272.39
469.98	271.71
470.35	271.04
470.72	270.39
471.08	269.74
471.45	269.24
471.82	268.70
472.18	268.14
472.55	267.73
472.92	267.20
473.28	266.76
473.65	266.26
474.02	265.82
474.38	265.46
474.75	265.12
475.11	264.77
475.48	264.45
475.85	264.22
476.21	263.96
476.58	263.80
476.94	263.68
477.31	263.49
477.67	263.37
478.04	263.25
478.41	263.18
478.77	263.24
479.14	263.14
479.50	263.14
479.87	263.16
480.23	263.23
480.60	263.30
480.96	263.37
481.33	263.58
481.69	263.77
482.06	263.99
482.42	264.22
482.79	264.48
483.15	264.84
483.52	265.20
483.88	265.57
484.25	265.92
484.61	266.35
484.98	266.82
485.34	267.37
485.71	267.97
486.07	268.60
486.44	269.18
486.80	269.87
487.17	270.57
487.53	271.41
487.90	272.24
488.26	273.16
488.62	274.10
488.99	275.07
489.35	276.09
489.72	277.19
490.08	278.37
490.44	279.60
490.81	280.92
491.17	282.28
491.54	283.73
491.90	285.26
492.26	286.87
492.63	288.59
492.99	290.32
493.36	292.20
493.72	294.19
494.08	296.26
494.45	298.54
494.81	300.92
495.17	303.35
495.54	305.90
495.90	308.54
496.26	311.37
496.63	314.32
496.99	317.48
497.35	320.70
497.72	324.06
498.08	327.52
498.44	331.18
498.80	335.06
499.17	339.10
499.53	343.26
499.89	347.59
500.26	352.07
500.62	356.76
500.98	361.68
501.34	366.78
501.71	372.04
502.07	377.41
502.43	383.02
502.79	388.77
503.16	394.84
503.52	401.09
503.88	407.49
504.24	414.07
504.60	420.93
504.97	428.09
505.33	435.43
505.69	443.12
506.05	450.82
506.41	458.74
506.78	466.90
507.14	475.31
507.50	484.05
507.86	493.05
508.22	502.20
508.59	511.43
508.95	520.99
509.31	530.88
509.67	541.05
510.03	551.27
510.39	561.83
510.75	572.66
511.12	583.65
511.48	595.02
511.84	606.52
512.20	618.00
512.56	629.92
512.92	642.07
513.28	654.47
513.64	667.09
514.00	679.85
514.37	692.80
514.73	705.91
515.09	718.91
515.45	732.21
515.81	745.88
516.17	759.87
516.53	774.03
516.89	788.22
517.25	802.41
517.61	816.91
517.97	831.44
518.33	845.87
518.69	860.64
519.05	875.66
519.41	890.87
519.77	906.49
520.13	921.98
520.49	937.43
520.85	952.92
521.21	968.72
521.57	984.95
521.93	1000.75
522.29	1017.19
522.65	1033.50
523.01	1049.87
523.37	1065.89
523.73	1082.13
524.09	1098.23
524.45	1114.62
524.81	1131.33
525.17	1148.26
525.53	1165.21
525.89	1182.20
526.25	1199.11
526.61	1215.48
526.97	1232.29
527.33	1248.77
527.68	1265.50
528.04	1281.98
528.40	1298.63
528.76	1315.67
529.12	1332.39
529.48	1349.28
529.84	1365.48
530.20	1382.15
530.56	1399.20
530.91	1416.69
531.27	1433.59
531.63	1450.12
531.99	1466.67
532.35	1482.69
532.71	1498.62
533.07	1514.80
533.42	1530.67
533.78	1546.73
534.14	1563.01
534.50	1578.36
534.86	1594.28
535.21	1609.44
535.57	1625.55
535.93	1641.10
536.29	1655.98
536.65	1671.05
537.00	1685.91
537.36	1701.26
537.72	1715.89
538.08	1730.33
538.44	1744.14
538.79	1758.05
539.15	1771.90
539.51	1785.83
539.87	1800.24
540.22	1814.04
540.58	1828.00
540.94	1841.55
541.29	1854.66
541.65	1867.48
542.01	1880.71
542.37	1893.09
542.72	1905.51
543.08	1917.33
543.44	1929.79
543.79	1941.10
544.15	1952.15
544.51	1963.80
544.87	1974.80
545.22	1985.55
545.58	1995.72
545.94	2005.58
546.29	2015.46
546.65	2025.34
547.01	2034.46
547.36	2043.22
547.72	2051.70
548.07	2059.55
548.43	2067.76
548.79	2075.87
549.14	2083.36
549.50	2091.00
549.86	2098.79
550.21	2106.22
550.57	2113.43
550.92	2119.98
551.28	2126.88
551.64	2133.98
551.99	2140.56
552.35	2146.61
552.70	2152.87
553.06	2158.83
553.41	2165.13
553.77	2171.06
554.13	2177.12
554.48	2183.37
554.84	2188.67
555.19	2193.92
555.55	2199.06
555.90	2203.32
556.26	2207.96
556.61	2212.77
556.97	2216.73
557.32	2220.91
557.68	2225.07
558.03	2229.24
558.39	2233.01
558.74	2237.79
559.10	2241.51
559.45	2245.10
559.81	2249.54
560.16	2253.31
560.52	2256.65
560.87	2260.16
561.23	2262.87
561.58	2265.83
561.94	2268.35
562.29	2270.89
562.64	2273.57
563.00	2276.29
563.35	2279.86
563.71	2283.08
564.06	2286.29
564.42	2289.20
564.77	2291.53
565.12	2293.58
565.48	2295.36
565.83	2297.09
566.19	2298.30
566.54	2299.31
566.89	2300.57
567.25	2301.02
567.60	2302.34
567.96	2303.83
568.31	2304.61
568.66	2305.70
569.02	2306.14
569.37	2306.42
569.72	2306.99
570.08	2307.06
570.43	2306.95
570.78	2306.22
571.14	2304.59
571.49	2303.26
571.84	2302.99
572.20	2301.81
572.55	2300.83
572.90	2299.25
573.26	2297.76
573.61	2295.97
573.96	2294.08
574.31	2290.84
574.67	2287.67
575.02	2284.09
575.37	2280.72
575.72	2276.72
576.08	2273.41
576.43	2270.07
576.78	2266.21
577.13	2263.22
577.49	2260.07
577.84	2256.55
578.19	2252.72
578.54	2248.85
578.90	2244.35
579.25	2238.63
579.60	2233.49
579.95	2228.36
580.30	2223.35
580.66	2218.13
581.01	2213.07
581.36	2208.03
581.71	2203.71
582.06	2199.17
582.42	2194.39
582.77	2189.12
583.12	2184.39
583.47	2179.38
583.82	2174.11
584.17	2168.86
584.53	2163.13
584.88	2157.33
585.23	2151.23
585.58	2145.78
585.93	2140.29
586.28	2135.37
586.63	2130.18
586.98	2125.23
587.34	2120.46
587.69	2115.55
588.04	2110.22
588.39	2104.49
588.74	2098.03
589.09	2091.88
589.44	2084.97
589.79	2078.94
590.14	2073.22
590.49	2066.70
590.84	2060.18
591.19	2054.14
591.54	2047.52
591.89	2040.00
592.25	2033.05
592.60	2025.78
592.95	2018.03
593.30	2010.58
593.65	2003.00
594.00	1996.00
594.35	1988.62
594.70	1980.55
595.05	1972.98
595.40	1965.56
595.75	1957.95
596.10	1951.50
596.45	1944.59
596.80	1938.30
597.15	1931.55
597.50	1924.25
597.85	1917.83
598.19	1911.08
598.54	1903.93
598.89	1897.16
599.24	1891.19
599.59	1884.43
599.94	1878.38
600.29	1872.02
600.64	1865.46
600.99	1858.03
601.34	1851.00
601.69	1843.87
602.04	1836.83
602.39	1829.58
602.74	1822.70
603.08	1816.09
603.43	1809.44
603.78	1802.18
604.13	1795.01
604.48	1787.72
604.83	1781.04
605.18	1773.91
605.53	1765.85
605.87	1757.88
606.22	1750.73
606.57	1742.92
606.92	1735.68
607.27	1728.35
607.62	1721.47
607.96	1714.21
608.31	1707.45
608.66	1699.78
609.01	1692.28
609.36	1684.70
609.70	1676.75
610.05	1668.69
610.40	1660.86
610.75	1652.52
611.10	1644.83
611.44	1636.49
611.79	1628.57
612.14	1619.69
612.49	1610.67
612.83	1602.38
613.18	1594.24
613.53	1586.16
613.88	1577.52
614.22	1569.28
614.57	1560.76
614.92	1552.67
615.27	1545.04
615.61	1536.77
615.96	1528.80
616.31	1521.18
616.65	1513.93
617.00	1506.28
617.35	1498.62
617.70	1490.20
618.04	1481.61
618.39	1473.34
618.74	1465.75
619.08	1457.46
619.43	1449.94
619.78	1442.97
620.12	1435.76
620.47	1428.13
620.82	1419.94
621.16	1412.57
621.51	1404.96
621.85	1397.41
622.20	1388.97
622.55	1380.67
622.89	1372.83
623.24	1365.29
623.59	1357.96
623.93	1350.33
624.28	1343.17
624.62	1335.65
624.97	1328.49
625.32	1321.72
625.66	1314.73
626.01	1307.37
626.35	1299.80
626.70	1291.97
627.04	1284.25
627.39	1276.56
627.73	1269.23
628.08	1262.39
628.43	1255.05
628.77	1247.67
629.12	1240.01
629.46	1232.75
629.81	1225.29
630.15	1218.04
630.50	1210.58
630.84	1202.31
631.19	1194.53
631.53	1187.02
631.88	1179.48
632.22	1171.88
632.57	1164.61
632.91	1157.02
633.26	1149.75
633.60	1142.54
633.95	1135.68
634.29	1128.66
634.64	1122.05
634.98	1114.71
635.32	1107.54
635.67	1101.09
636.01	1094.48
636.36	1087.72
636.70	1081.30
637.05	1074.70
637.39	1068.29
637.73	1061.85
638.08	1056.04
638.42	1050.02
638.77	1043.57
639.11	1037.00
639.45	1030.69
639.80	1024.03
640.14	1017.70
640.49	1011.25
640.83	1004.91
641.17	998.52
641.52	992.15
641.86	985.78
642.20	979.94
642.55	973.71
642.89	967.11
643.23	960.58
643.58	954.80
643.92	948.50
644.26	942.51
644.61	936.52
644.95	930.47
645.29	923.83
645.64	917.06
645.98	910.82
646.32	905.01
646.66	899.01
647.01	893.27
647.35	887.57
647.69	881.68
648.04	876.22
648.38	870.56
648.72	864.60
649.06	858.45
649.41	852.57
649.75	846.56
650.09	840.64
650.43	834.84
650.78	828.68
651.12	822.84
651.46	817.13
651.80	811.36
652.14	805.96
652.49	800.66
652.83	795.53
653.17	789.77
653.51	784.08
653.85	778.71
654.20	773.01
654.54	767.04
654.88	761.37
655.22	755.48
655.56	749.76
655.90	744.30
656.25	739.08
656.59	733.71
656.93	728.67
657.27	723.56
657.61	718.06
657.95	712.94
658.29	707.86
658.64	702.68
658.98	697.40
659.32	691.95
659.66	686.69
660.00	681.40
660.34	676.50
660.68	671.57
661.02	666.46
661.36	661.83
661.70	657.35
662.05	653.01
662.39	648.64
662.73	644.21
663.07	639.86
663.41	635.40
663.75	630.83
664.09	626.26
664.43	621.88
664.77	617.87
665.11	613.64
665.45	609.52
665.79	605.38
666.13	601.26
666.47	597.21
666.81	593.11
667.15	588.95
667.49	585.08
667.83	581.35
668.17	577.49
668.51	573.47
668.85	569.43
669.19	565.50
669.53	561.65
669.87	557.73
670.21	554.07
670.55	550.43
670.89	547.11
671.23	543.71
671.57	540.20
671.91	536.71
672.25	533.28
672.58	529.82
672.92	526.49
673.26	523.32
673.60	520.15
673.94	517.03
674.28	514.19
674.62	511.20
674.96	508.12
675.30	505.24
675.64	502.31
675.97	499.59
676.31	496.86
676.65	493.92
676.99	491.31
677.33	488.41
677.67	485.68
678.01	482.67
678.34	479.67
678.68	476.78
679.02	473.95
679.36	471.20
679.70	468.45
680.04	465.67
680.37	462.84
680.71	460.10
681.05	457.50
681.39	454.79
681.73	452.17
682.06	449.63
682.40	447.04
682.74	444.54
683.08	442.02
683.42	439.37
683.75	436.92
684.09	434.32
684.43	431.88
684.77	429.41
685.10	427.05
685.44	424.72
685.78	422.47
686.12	420.25
686.45	417.96
686.79	415.71
687.13	413.54
687.46	411.42
687.80	409.26
688.14	407.08
688.48	405.03
688.81	402.79
689.15	400.60
689.49	398.50
689.82	396.40
690.16	394.27
690.50	392.33
690.83	390.37
691.17	388.36
691.51	386.48
691.84	384.62
692.18	382.65
692.52	380.70
692.85	378.80
693.19	376.89
693.52	375.10
693.86	373.25
694.20	371.50
694.53	369.65
694.87	367.85
695.21	366.03
695.54	364.22
695.88	362.54
696.21	360.87
696.55	359.17
696.88	357.52
697.22	355.90
697.56	354.28
697.89	352.66
698.23	351.12
698.56	349.51
698.90	347.91
699.23	346.32
699.57	344.75
699.90	343.21
700.24	341.67
700.58	340.07
700.91	338.58
701.25	337.08
701.58	335.76
701.92	334.36
702.25	332.99
702.59	331.62
702.92	330.26
703.26	328.95
703.59	327.66
703.93	326.46
704.26	325.19
704.60	323.91
704.93	322.59
705.26	321.34
705.60	320.19
705.93	319.02
706.27	317.94
706.60	316.92
706.94	315.84
707.27	314.71
707.61	313.67
707.94	312.67
708.27	311.59
708.61	310.51
708.94	309.51
709.28	308.57
709.61	307.59
709.94	306.66
710.28	305.64
710.61	304.68
710.95	303.60
711.28	302.73
711.61	301.78
711.95	300.89
712.28	299.93
712.61	298.91
712.95	298.02
713.28	297.19
713.61	296.29
713.95	295.39
714.28	294.59
714.61	293.71
714.95	292.86
715.28	291.99
715.61	291.10
715.95	290.26
716.28	289.41
716.61	288.61
716.95	287.80
717.28	287.13
717.61	286.38
717.94	285.69
718.28	284.85
718.61	284.16
718.94	283.48
719.27	282.86
719.61	282.25
719.94	281.57
720.27	280.80
720.60	280.12
720.94	279.49
721.27	278.87
721.60	278.31
721.93	277.69
722.27	277.19
722.60	276.68
722.93	276.09
723.26	275.52
723.59	274.93
723.93	274.38
724.26	273.78
724.59	273.22
724.92	272.68
725.25	272.23
725.59	271.71
725.92	271.18
726.25	270.66
726.58	270.17
726.91	269.70
727.24	269.31
727.57	268.84
727.91	268.36
728.24	267.90
728.57	267.43
728.90	266.99
729.23	266.47
729.56	266.02
729.89	265.56
730.22	265.08
730.55	264.61
730.89	264.17
731.22	263.71
731.55	263.30
731.88	262.88
732.21	262.42
732.54	261.97
732.87	261.54
733.20	261.14
733.53	260.76
733.86	260.40
734.19	259.98
734.52	259.65
734.85	259.35
735.18	258.94
735.51	258.59
735.84	258.23
736.17	257.91
736.50	257.49
736.83	257.28
737.16	256.96
737.49	256.64
737.82	256.30
738.15	256.02
738.48	255.66
738.81	255.30
739.14	254.97
739.47	254.64
739.80	254.36
740.13	254.06
740.46	253.74
740.79	253.37
741.12	253.08
741.45	252.74
741.78	252.37
742.11	252.07
742.44	251.70
742.77	251.39
743.10	251.09
743.43	250.80
743.75	250.42
744.08	250.26
744.41	249.98
744.74	249.70
745.07	249.39
745.40	249.15
745.73	248.94
746.06	248.71
746.39	248.43
746.71	248.13
747.04	247.83
747.37	247.55
747.70	247.31
748.03	247.05
748.36	246.84
748.68	246.61
749.01	246.37
749.34	246.22
749.67	245.99
750.00	245.78
750.33	245.64
750.65	245.40
750.98	245.06
751.31	244.88
751.64	244.66
751.97	244.48
752.29	244.27
752.62	244.06
752.95	243.83
753.28	243.65
753.60	243.46
753.93	243.31
754.26	243.10
754.59	242.90
754.91	242.71
755.24	242.50
755.57	242.30
755.90	242.09
756.22	241.87
756.55	241.68
756.88	241.49
757.20	241.23
757.53	241.05
757.86	240.88
758.19	240.72
758.51	240.57
758.84	240.39
759.17	240.19
759.49	240.02
759.82	239.92
760.15	239.77
760.47	239.65
760.80	239.48
761.13	239.39
761.45	239.25
761.78	239.11
762.11	239.00
762.43	238.87
762.76	238.74
763.08	238.60
763.41	238.47
763.74	238.31
764.06	238.19
764.39	238.07
764.71	237.95
765.04	237.81
765.37	237.67
765.69	237.54
766.02	237.46
766.34	237.34
766.67	237.17
767.00	237.06
767.32	236.97
767.65	236.91
767.97	236.76
768.30	236.65
768.62	236.54
768.95	236.40
769.27	236.30
769.60	236.20
769.92	236.09
770.25	235.96
770.57	235.85
770.90	235.73
771.22	235.60
771.55	235.45
771.87	235.33
772.20	235.22
772.52	235.19
772.85	235.19
773.17	235.07
773.50	235.01
773.82	234.90
774.15	234.77
774.47	234.62
774.80	234.54
775.12	234.47
775.45	234.35
775.77	234.27
776.09	234.22
776.42	234.11
776.74	234.07
777.07	234.01
777.39	233.94
777.72	233.89
778.04	233.83
778.36	233.80
778.69	233.77
779.01	233.72
779.33	233.57
779.66	233.42
779.98	233.35
780.31	233.24
780.63	233.22
780.95	233.17
781.28	233.12
781.60	233.04
781.92	232.96
782.25	232.94
782.57	232.86
782.89	232.78
783.22	232.76
783.54	232.67
783.86	232.59
784.19	232.54
784.51	232.47
784.83	232.44
785.16	232.36
785.48	232.28
785.80	232.23
786.12	232.22
786.45	232.15
786.77	232.13
787.09	232.09
787.42	231.97
787.74	231.92
788.06	231.87
788.38	231.80
788.71	231.73
789.03	231.70
789.35	231.66
789.67	231.58
789.99	231.52
790.32	231.43
790.64	231.41
790.96	231.45
791.28	231.41
791.61	231.35
791.93	231.31
792.25	231.26
792.57	231.27
792.89	231.19
793.21	231.13
793.54	231.07
793.86	230.99
794.18	230.98
794.50	230.94
794.82	230.87
795.14	230.85
795.47	230.83
795.79	230.74
796.11	230.70
796.43	230.65
796.75	230.62
797.07	230.63
797.39	230.62
797.71	230.50
798.04	230.43
798.36	230.38
798.68	230.35
799.00	230.35
799.32	230.25
799.64	230.24
799.96	230.21
800.28	230.19
800.60	230.14
800.92	230.09
801.24	230.07
801.56	230.08
801.89	230.04
802.21	230.04
802.53	230.01
802.85	229.97
803.17	230.03
803.49	230.00
803.81	229.95
804.13	229.89
804.45	229.86
804.77	229.84
805.09	229.82
805.41	229.80
805.73	229.73
806.05	229.72
806.37	229.70
806.69	229.66
807.01	229.64
807.33	229.66
807.65	229.63
807.97	229.61
808.28	229.57
808.60	229.57
808.92	229.52
809.24	229.57
809.56	229.54
809.88	229.45
810.20	229.41
810.52	229.40
810.84	229.37
811.16	229.34
811.48	229.34
811.80	229.36
812.12	229.33
812.43	229.35
812.75	229.35
813.07	229.32
813.39	229.33
813.71	229.30
814.03	229.29
814.35	229.27
814.67	229.23
814.98	229.21
815.30	229.17
815.62	229.13
815.94	229.06
816.26	229.10
816.58	229.09
816.89	229.11
817.21	229.10
817.53	229.10
817.85	229.12
818.17	229.14
818.48	229.08
818.80	229.10
819.12	229.07
819.44	229.02
819.76	229.01
820.07	229.00
820.39	228.97
820.71	228.99
821.03	228.97
821.34	228.99
821.66	229.02
821.98	229.06
822.30	229.08
822.61	229.13
822.93	229.09
823.25	229.06
823.57	229.01
823.88	229.04
824.20	229.01
824.52	229.01
824.83	228.99
825.15	228.97
825.47	228.93
825.79	228.93
826.10	228.93
826.42	228.87
826.74	228.83
827.05	228.82
827.37	228.76
827.69	228.77
828.00	228.73
828.32	228.68
828.64	228.62
828.95	228.63
829.27	228.57
829.58	228.52
829.90	228.54
830.22	228.55
830.53	228.49
830.85	228.49
831.17	228.42
831.48	228.40
831.80	228.38
832.11	228.36
832.43	228.31
832.75	228.27
833.06	228.37
833.38	228.36
833.69	228.34
834.01	228.33
834.32	228.29
834.64	228.29
834.96	228.27
835.27	228.27
835.59	228.22
835.90	228.18
836.22	228.18
836.53	228.12
836.85	228.09
837.16	228.19
837.48	228.14
837.79	228.17
838.11	228.13
838.42	228.13
838.74	228.12
839.05	228.13
839.37	228.10
839.68	227.99
840.00	227.99
840.31	228.00
840.63	227.98
840.94	227.97
841.26	227.90
841.57	227.87
841.88	227.85
842.20	227.81
842.51	227.82
842.83	227.81
843.14	227.91
843.46	227.91
843.77	227.84
844.08	227.85
844.40	227.79
844.71	227.78
845.03	227.76
845.34	227.77
845.65	227.74
845.97	227.73
846.28	227.75
846.60	227.75
846.91	227.71
847.22	227.71
847.54	227.72
847.85	227.75
848.16	227.78
848.48	227.78
848.79	227.81
849.10	227.83
849.42	227.82
849.73	227.73
850.04	227.73
850.36	227.68
850.67	227.69
850.98	227.72
851.30	227.73
851.61	227.75
851.92	227.71
852.23	227.78
852.55	227.81
852.86	227.79
853.17	227.78
853.49	227.79
853.80	227.85
854.11	227.89
854.42	227.93
854.74	227.91
855.05	227.91
855.36	227.86
855.67	227.85
855.99	227.87
856.30	228.00
856.61	228.01
856.92	228.02
857.23	228.01
857.55	228.00
857.86	228.00
858.17	228.03
858.48	228.05
858.79	228.02
859.11	228.01
859.42	228.04
859.73	228.03
860.04	228.08
860.35	228.01
860.66	227.95
860.98	227.94
861.29	227.97
861.60	227.94
861.91	227.98
862.22	227.98
862.53	227.97
862.84	227.84
863.16	227.87
863.47	227.84
863.78	227.86
864.09	227.86
864.40	227.85
864.71	227.84
865.02	227.84
865.33	227.83
865.64	227.82
865.95	227.80
866.27	227.85
866.58	227.81
866.89	227.82
867.20	227.82
867.51	227.80
867.82	227.77
868.13	227.77
868.44	227.75
868.75	227.76
869.06	227.76
869.37	227.74
869.68	227.66
869.99	227.67
870.30	227.67
870.61	227.69
870.92	227.65
871.23	227.58
871.54	227.58
871.85	227.59
872.16	227.57
872.47	227.55
872.78	227.47
873.09	227.48
873.40	227.45
873.71	227.48
874.02	227.49
874.33	227.48
874.64	227.49
874.95	227.46
875.26	227.42
875.56	227.38
875.87	227.39
876.18	227.39
876.49	227.49
876.80	227.46
877.11	227.44
877.42	227.44
877.73	227.46
878.04	227.43
878.35	227.42
878.66	227.44
878.96	227.44
879.27	227.45
879.58	227.47
879.89	227.45
880.20	227.46
880.51	227.43
880.82	227.40
881.12	227.39
881.43	227.39
881.74	227.37
882.05	227.35
882.36	227.35
882.67	227.38
882.97	227.27
883.28	227.27
883.59	227.23
883.90	227.24
884.21	227.26
884.51	227.26
884.82	227.26
885.13	227.27
885.44	227.29
885.74	227.28
886.05	227.21
886.36	227.21
886.67	227.19
886.98	227.26
887.28	227.32
887.59	227.31
887.90	227.29
888.20	227.32
888.51	227.37
888.82	227.36
889.13	227.38
889.43	227.43
889.74	227.39
890.05	227.45
890.35	227.48
890.66	227.44
890.97	227.45
891.28	227.43
891.58	227.41
891.89	227.42
892.20	227.42
892.50	227.42
892.81	227.44
893.12	227.43
893.42	227.36
893.73	227.33
894.04	227.36
894.34	227.41
894.65	227.40
894.95	227.37
895.26	227.39
895.57	227.42
895.87	227.37
896.18	227.42
896.48	227.42
896.79	227.41
897.10	227.46
897.40	227.46
897.71	227.46
898.01	227.44
898.32	227.43
898.63	227.46
898.93	227.48
899.24	227.49
899.54	227.49
899.85	227.49
900.15	227.49
900.46	227.46
900.76	227.46
901.07	227.48
901.38	227.48
901.68	227.46
901.99	227.40
902.29	227.37
902.60	227.36
902.90	227.34
903.21	227.33
903.51	227.32
903.82	227.32
904.12	227.32
904.43	227.32
904.73	227.30
905.03	227.28
905.34	227.37
905.64	227.30
905.95	227.29
906.25	227.26
906.56	227.23
906.86	227.23
907.17	227.21
907.47	227.20
907.77	227.21
908.08	227.18
908.38	227.18
908.69	227.19
908.99	227.19
909.30	227.20
909.60	227.18
909.90	227.16
910.21	227.14
910.51	227.13
910.81	227.15
911.12	227.15
911.42	227.13
911.73	227.05
912.03	227.12
912.33	227.14
912.64	227.13
912.94	227.12
913.24	227.10
913.55	227.11
913.85	227.11
914.15	227.11
914.46	227.15
914.76	227.14
915.06	227.13
915.37	227.15
915.67	227.15
915.97	227.15
916.27	227.16
916.58	227.19
916.88	227.18
917.18	227.16
917.49	227.22
917.79	227.24
918.09	227.25
918.39	227.28
918.70	227.27
919.00	227.27
919.30	227.31
919.60	227.35
919.91	227.37
920.21	227.35
920.51	227.32
920.81	227.34
921.12	227.40
921.42	227.40
921.72	227.39
922.02	227.38
922.32	227.39
922.63	227.36
922.93	227.39
923.23	227.40
923.53	227.40
923.83	227.35
924.13	227.37
924.44	227.34
924.74	227.34
925.04	227.38
925.34	227.40
925.64	227.40
925.94	227.38
926.24	227.42
926.55	227.41
926.85	227.44
927.15	227.43
927.45	227.41
927.75	227.42
928.05	227.41
928.35	227.40
928.65	227.43
928.95	227.48
929.26	227.46
929.56	227.47
929.86	227.47
930.16	227.47
930.46	227.42
930.76	227.44
931.06	227.39
931.36	227.35
931.66	227.39
931.96	227.38
932.26	227.39
932.56	227.34
932.86	227.39
933.16	227.41
933.46	227.39
933.76	227.35
934.06	227.40
934.36	227.42
934.66	227.43
934.96	227.38
935.26	227.38
935.56	227.39
935.86	227.37
936.16	227.39
936.46	227.38
936.76	227.39
937.06	227.40
937.36	227.42
937.66	227.43
937.96	227.44
938.26	227.41
938.56	227.38
938.86	227.40
939.16	227.37
939.46	227.33
939.76	227.36
940.06	227.39
940.35	227.33
940.65	227.31
940.95	227.30
941.25	227.31
941.55	227.29
941.85	227.25
942.15	227.28
942.45	227.28
942.75	227.28
943.04	227.29
943.34	227.27
943.64	227.23
943.94	227.20
944.24	227.15
944.54	227.15
944.84	227.15
945.13	227.11
945.43	227.09
945.73	227.07
946.03	227.02
946.33	226.98
946.62	226.98
946.92	226.97
947.22	226.95
947.52	226.93
947.82	226.93
948.11	226.92
948.41	226.88
948.71	226.85
949.01	226.83
949.31	226.81
949.60	226.82
949.90	226.84
950.20	226.84
950.50	226.87
950.79	226.85
951.09	226.84
951.39	226.84
951.69	226.83
951.98	226.86
952.28	226.87
952.58	226.86
952.87	226.86
953.17	226.85
953.47	226.84
953.76	226.83
954.06	226.81
954.36	226.78
954.66	226.81
954.95	226.81
955.25	226.83
955.55	226.86
955.84	226.85
956.14	226.87
956.44	226.88
956.73	226.84
957.03	226.88
957.32	226.90
957.62	226.91
957.92	226.93
958.21	226.97
958.51	227.08
958.81	227.10
959.10	227.12
959.40	227.14
959.69	227.15
959.99	227.21
960.29	227.21
960.58	227.25
960.88	227.29
961.17	227.29
961.47	227.33
961.76	227.31
962.06	227.34
962.36	227.33
962.65	227.30
962.95	227.32
963.24	227.29
963.54	227.29
963.83	227.30
964.13	227.35
964.42	227.32
964.72	227.22
965.01	227.23
965.31	227.22
965.60	227.21
965.90	227.28
966.19	227.24
966.49	227.27
966.78	227.27
967.08	227.24
967.37	227.26
967.67	227.23
967.96	227.27
968.26	227.29
968.55	227.31
968.85	227.30
969.14	227.32
969.43	227.35
969.73	227.33
970.02	227.33
970.32	227.28
970.61	227.23
970.91	227.26
971.20	227.25
971.49	227.26
971.79	227.28
972.08	227.21
972.38	227.23
972.67	227.21
972.96	227.20
973.26	227.20
973.55	227.22
973.85	227.22
974.14	227.21
974.43	227.14
974.73	227.13
975.02	227.13
975.31	227.12
975.61	227.07
975.90	227.06
976.19	227.04
976.49	227.06
976.78	227.07
977.07	227.05
977.37	227.05
977.66	227.05
977.95	227.03
978.24	227.03
978.54	227.03
978.83	226.98
979.12	226.98
979.42	226.98
979.71	226.92
980.00	226.91
980.29	226.87
980.59	226.86
980.88	226.88
981.17	226.87
981.46	226.88
981.76	226.87
982.05	226.90
982.34	226.93
982.63	226.94
982.93	226.93
983.22	226.93
983.51	226.94
983.80	226.97
984.09	226.96
984.39	226.96
984.68	226.94
984.97	226.98
985.26	226.95
985.55	226.96
985.85	226.97
986.14	226.96
986.43	226.97
986.72	227.00
987.01	226.95
987.30	226.97
987.59	226.94
987.89	226.96
988.18	226.93
988.47	226.91
988.76	226.91
989.05	226.93
989.34	226.93
989.63	226.94
989.92	226.92
990.22	226.90
990.51	226.91
990.80	226.90
991.09	226.91
991.38	226.93
991.67	226.92
991.96	226.94
992.25	226.97
992.54	226.99
992.83	227.00
993.12	227.02
993.41	227.05
993.70	227.10
993.99	227.15
994.28	227.19
994.58	227.19
994.87	227.16
995.16	227.15
995.45	227.16
995.74	227.16
996.03	227.18
996.32	227.23
996.61	227.27
996.90	227.29
997.19	227.29
997.48	227.29
997.77	227.28
998.06	227.27
998.34	227.27
998.63	227.22
998.92	227.21
999.21	227.24
999.50	227.23
999.79	227.20
1000.08	227.18
1000.37	227.19
1000.66	227.19
1000.95	227.22
1001.24	227.23
1001.53	227.23
1001.82	227.19
1002.11	227.19
1002.40	227.17
1002.68	227.19
1002.97	227.24
1003.26	227.24
1003.55	227.20
1003.84	227.21
1004.13	227.22
1004.42	227.21
1004.71	227.22
1004.99	227.24
1005.28	227.26
1005.57	227.23
1005.86	227.22
1006.15	227.20
1006.44	227.15
1006.72	227.15
1007.01	227.15
1007.30	227.15
1007.59	227.16
1007.88	227.18
1008.17	227.15
1008.45	227.11
1008.74	227.05
1009.03	227.02
1009.32	227.01
1009.60	227.04
1009.89	227.05
1010.18	227.03
1010.47	227.05
1010.76	227.06
1011.04	227.05
1011.33	227.02
1011.62	227.03
1011.91	227.05
1012.19	227.08
1012.48	227.10
1012.77	227.11
1013.05	227.12
1013.34	227.12
1013.63	227.11
1013.92	227.12
1014.20	227.11
1014.49	227.13
1014.78	227.11
1015.06	227.11
1015.35	227.10
1015.64	227.09
1015.92	227.08
1016.21	227.09
1016.50	227.04
1016.78	227.05
1017.07	227.07
1017.36	227.04
1017.64	227.04
1017.93	227.02
1018.22	226.99
1018.50	226.96
1018.79	226.95
1019.08	226.91
1019.36	226.86
1019.65	226.83
1019.93	226.83
1020.22	226.85
1020.51	226.87
1020.79	226.89
1021.08	226.67
1021.36	226.36
1021.65	226.91
1021.94	226.65
1022.22	226.11
1022.51	226.70
1022.79	227.20
1023.08	226.94
1023.36	227.50
1023.65	226.96
>>>>>End Processed Spectral Data<<<<<
