SpectraSuite Data File
++++++++++++++++++++++++++++++++++++
Date: Fri Feb 01 15:41:23 EST 2013
User: group
Dark Spectrum Present: No
Reference Spectrum Present: No
Number of Sampled Component Spectra: 1
Spectrometers: USB2E7196
Integration Time (usec): 35000 (USB2E7196)
Spectra Averaged: 100 (USB2E7196)
Boxcar Smoothing: 10 (USB2E7196)
Correct for Electrical Dark: No (USB2E7196)
Strobe/Lamp Enabled: No (USB2E7196)
Correct for Detector Non-linearity: No (USB2E7196)
Correct for Stray Light: No (USB2E7196)
Number of Pixels in Processed Spectrum: 2048
>>>>>Begin Processed Spectral Data<<<<<
339.09	0.00
339.48	214.53
339.86	216.12
340.24	217.10
340.63	218.71
341.01	221.38
341.39	221.19
341.78	223.01
342.16	223.54
342.54	225.02
342.93	212.96
343.31	223.73
343.69	224.28
344.07	224.74
344.46	225.14
344.84	225.58
345.22	225.82
345.60	226.10
345.99	226.31
346.37	226.43
346.75	226.51
347.13	226.59
347.52	226.65
347.90	226.73
348.28	226.71
348.66	226.79
349.05	226.81
349.43	226.86
349.81	226.89
350.19	226.95
350.57	227.07
350.96	227.17
351.34	227.24
351.72	227.36
352.10	227.48
352.48	227.59
352.87	227.59
353.25	227.68
353.63	227.76
354.01	227.82
354.39	227.95
354.77	228.05
355.15	228.16
355.54	228.21
355.92	228.25
356.30	228.36
356.68	228.48
357.06	228.54
357.44	228.61
357.82	228.66
358.20	228.76
358.58	228.78
358.97	228.84
359.35	228.94
359.73	229.01
360.11	229.05
360.49	229.11
360.87	229.17
361.25	229.22
361.63	229.26
362.01	229.33
362.39	229.40
362.77	229.42
363.15	229.42
363.53	229.45
363.91	229.52
364.29	229.54
364.67	229.47
365.05	229.49
365.43	229.52
365.81	229.52
366.19	229.53
366.57	229.54
366.95	229.52
367.33	229.50
367.71	229.46
368.09	229.45
368.47	229.46
368.85	229.46
369.23	229.43
369.61	229.40
369.99	229.38
370.37	229.28
370.75	229.31
371.13	229.28
371.51	229.25
371.89	229.20
372.27	229.13
372.65	229.09
373.03	229.04
373.41	229.02
373.78	228.97
374.16	228.88
374.54	228.79
374.92	228.72
375.30	228.63
375.68	228.55
376.06	228.50
376.44	228.40
376.82	228.32
377.19	228.31
377.57	228.21
377.95	228.09
378.33	228.03
378.71	227.89
379.09	227.81
379.47	227.74
379.84	227.65
380.22	227.58
380.60	227.51
380.98	227.43
381.36	227.32
381.73	227.23
382.11	227.18
382.49	227.12
382.87	227.07
383.25	227.01
383.62	227.05
384.00	226.95
384.38	226.90
384.76	226.87
385.13	226.79
385.51	226.77
385.89	226.72
386.27	226.68
386.64	226.68
387.02	226.63
387.40	226.58
387.78	226.55
388.15	226.53
388.53	226.50
388.91	226.49
389.29	226.49
389.66	226.49
390.04	226.43
390.42	226.44
390.79	226.41
391.17	226.40
391.55	226.28
391.92	226.29
392.30	226.31
392.68	226.29
393.05	226.34
393.43	226.32
393.81	226.33
394.18	226.34
394.56	226.35
394.94	226.40
395.31	226.41
395.69	226.47
396.06	226.53
396.44	226.59
396.82	226.63
397.19	226.71
397.57	226.72
397.95	226.81
398.32	226.81
398.70	226.90
399.07	227.00
399.45	227.12
399.82	227.19
400.20	227.23
400.58	227.31
400.95	227.33
401.33	227.41
401.70	227.56
402.08	227.66
402.45	227.72
402.83	227.85
403.20	227.98
403.58	228.07
403.95	228.17
404.33	228.28
404.71	228.40
405.08	228.57
405.46	228.75
405.83	228.88
406.21	229.07
406.58	229.24
406.96	229.37
407.33	229.54
407.70	229.74
408.08	230.02
408.45	230.28
408.83	230.56
409.20	230.83
409.58	231.03
409.95	231.30
410.33	231.59
410.70	231.80
411.08	232.10
411.45	232.43
411.82	232.77
412.20	233.15
412.57	233.57
412.95	233.88
413.32	234.27
413.69	234.67
414.07	235.10
414.44	235.54
414.82	236.06
415.19	236.62
415.56	237.16
415.94	237.71
416.31	238.32
416.68	238.91
417.06	239.61
417.43	240.25
417.81	240.99
418.18	241.79
418.55	242.68
418.93	243.55
419.30	244.46
419.67	245.37
420.04	246.32
420.42	247.28
420.79	248.44
421.16	249.57
421.54	250.75
421.91	251.96
422.28	253.22
422.66	254.53
423.03	255.82
423.40	257.15
423.77	258.53
424.15	259.94
424.52	261.40
424.89	263.00
425.26	264.62
425.64	266.07
426.01	267.62
426.38	269.22
426.75	270.92
427.13	272.62
427.50	274.43
427.87	276.33
428.24	278.20
428.61	279.95
428.99	281.90
429.36	284.01
429.73	286.11
430.10	288.13
430.47	290.22
430.85	292.33
431.22	294.58
431.59	296.98
431.96	299.23
432.33	301.71
432.70	304.08
433.08	306.85
433.45	309.53
433.82	312.14
434.19	315.06
434.56	317.82
434.93	320.49
435.30	323.10
435.68	325.95
436.05	328.77
436.42	331.55
436.79	334.08
437.16	336.76
437.53	339.56
437.90	342.37
438.27	345.06
438.64	347.89
439.01	350.46
439.38	352.70
439.75	354.93
440.13	357.41
440.50	359.76
440.87	361.62
441.24	363.53
441.61	365.65
441.98	367.11
442.35	368.92
442.72	370.73
443.09	372.53
443.46	373.54
443.83	374.16
444.20	374.65
444.57	375.46
444.94	375.75
445.31	376.06
445.68	376.38
446.05	376.49
446.42	376.11
446.79	375.72
447.16	375.23
447.53	374.84
447.90	373.71
448.27	372.53
448.64	370.92
449.01	369.80
449.37	367.87
449.74	366.03
450.11	363.78
450.48	361.37
450.85	358.83
451.22	356.70
451.59	354.68
451.96	352.76
452.33	350.19
452.70	347.87
453.07	345.06
453.43	342.20
453.80	339.47
454.17	336.80
454.54	334.26
454.91	331.60
455.28	328.94
455.65	326.44
456.02	324.00
456.38	321.89
456.75	319.21
457.12	316.99
457.49	314.74
457.86	312.57
458.23	310.70
458.59	308.65
458.96	306.57
459.33	304.70
459.70	302.86
460.07	301.36
460.43	299.65
460.80	298.06
461.17	296.61
461.54	295.07
461.91	293.64
462.27	292.21
462.64	290.91
463.01	289.56
463.38	288.25
463.74	286.89
464.11	285.77
464.48	284.75
464.85	283.66
465.21	282.79
465.58	281.89
465.95	280.80
466.32	279.92
466.68	279.00
467.05	278.08
467.42	277.19
467.78	276.25
468.15	275.36
468.52	274.69
468.88	273.87
469.25	273.12
469.62	272.50
469.98	271.80
470.35	271.17
470.72	270.58
471.08	269.94
471.45	269.35
471.82	268.76
472.18	268.14
472.55	267.67
472.92	267.17
473.28	266.67
473.65	266.23
474.02	265.77
474.38	265.39
474.75	265.05
475.11	264.72
475.48	264.47
475.85	264.23
476.21	263.97
476.58	263.70
476.94	263.49
477.31	263.32
477.67	263.15
478.04	263.05
478.41	262.97
478.77	263.03
479.14	262.97
479.50	262.96
479.87	263.02
480.23	263.12
480.60	263.14
480.96	263.26
481.33	263.44
481.69	263.61
482.06	263.77
482.42	263.94
482.79	264.16
483.15	264.42
483.52	264.81
483.88	265.17
484.25	265.58
484.61	266.02
484.98	266.48
485.34	267.07
485.71	267.66
486.07	268.23
486.44	268.80
486.80	269.50
487.17	270.22
487.53	271.03
487.90	271.86
488.26	272.81
488.62	273.74
488.99	274.72
489.35	275.79
489.72	276.94
490.08	278.17
490.44	279.41
490.81	280.73
491.17	282.07
491.54	283.52
491.90	285.05
492.26	286.71
492.63	288.46
492.99	290.25
493.36	292.14
493.72	294.19
494.08	296.29
494.45	298.55
494.81	300.92
495.17	303.38
495.54	305.95
495.90	308.64
496.26	311.49
496.63	314.45
496.99	317.54
497.35	320.78
497.72	324.22
498.08	327.75
498.44	331.45
498.80	335.39
499.17	339.41
499.53	343.58
499.89	347.98
500.26	352.49
500.62	357.12
500.98	362.08
501.34	367.18
501.71	372.50
502.07	377.93
502.43	383.53
502.79	389.34
503.16	395.43
503.52	401.72
503.88	408.11
504.24	414.76
504.60	421.62
504.97	428.78
505.33	436.06
505.69	443.76
506.05	451.58
506.41	459.48
506.78	467.68
507.14	476.17
507.50	484.95
507.86	493.92
508.22	503.15
508.59	512.31
508.95	521.97
509.31	531.79
509.67	541.98
510.03	552.30
510.39	562.89
510.75	573.68
511.12	584.57
511.48	595.88
511.84	607.31
512.20	618.82
512.56	630.70
512.92	642.97
513.28	655.33
513.64	667.81
514.00	680.45
514.37	693.43
514.73	706.53
515.09	719.51
515.45	732.87
515.81	746.47
516.17	760.58
516.53	774.64
516.89	788.81
517.25	802.91
517.61	817.35
517.97	831.75
518.33	846.18
518.69	861.00
519.05	875.97
519.41	891.21
519.77	906.84
520.13	922.38
520.49	937.66
520.85	953.02
521.21	968.74
521.57	984.99
521.93	1000.71
522.29	1017.06
522.65	1033.28
523.01	1049.38
523.37	1065.48
523.73	1081.55
524.09	1097.68
524.45	1114.06
524.81	1130.64
525.17	1147.43
525.53	1164.43
525.89	1181.31
526.25	1198.02
526.61	1214.36
526.97	1231.11
527.33	1247.52
527.68	1264.09
528.04	1280.55
528.40	1297.19
528.76	1314.25
529.12	1330.91
529.48	1347.86
529.84	1363.82
530.20	1380.54
530.56	1397.65
530.91	1415.06
531.27	1431.77
531.63	1448.18
531.99	1464.63
532.35	1480.56
532.71	1496.39
533.07	1512.62
533.42	1528.56
533.78	1544.68
534.14	1561.05
534.50	1576.33
534.86	1592.28
535.21	1607.47
535.57	1623.53
535.93	1639.19
536.29	1653.99
536.65	1669.13
537.00	1683.89
537.36	1699.33
537.72	1713.86
538.08	1728.16
538.44	1741.86
538.79	1755.85
539.15	1769.55
539.51	1783.40
539.87	1797.84
540.22	1811.58
540.58	1825.28
540.94	1838.69
541.29	1851.63
541.65	1864.27
542.01	1877.51
542.37	1889.78
542.72	1902.11
543.08	1913.91
543.44	1926.27
543.79	1937.49
544.15	1948.51
544.51	1960.11
544.87	1971.07
545.22	1981.88
545.58	1992.22
545.94	2001.98
546.29	2011.88
546.65	2021.72
547.01	2030.95
547.36	2039.64
547.72	2048.07
548.07	2055.87
548.43	2063.95
548.79	2072.04
549.14	2079.51
549.50	2086.82
549.86	2094.57
550.21	2102.06
550.57	2109.15
550.92	2115.54
551.28	2122.63
551.64	2129.64
551.99	2136.20
552.35	2142.20
552.70	2148.31
553.06	2154.18
553.41	2160.62
553.77	2166.55
554.13	2172.70
554.48	2178.83
554.84	2184.40
555.19	2189.91
555.55	2195.19
555.90	2199.69
556.26	2204.53
556.61	2209.38
556.97	2213.74
557.32	2217.84
557.68	2221.91
558.03	2226.23
558.39	2229.99
558.74	2234.59
559.10	2238.45
559.45	2242.01
559.81	2246.43
560.16	2250.26
560.52	2253.55
560.87	2256.96
561.23	2259.65
561.58	2262.55
561.94	2265.04
562.29	2267.40
562.64	2269.94
563.00	2272.40
563.35	2275.85
563.71	2278.88
564.06	2282.18
564.42	2284.99
564.77	2287.39
565.12	2289.59
565.48	2291.41
565.83	2293.25
566.19	2294.51
566.54	2295.53
566.89	2296.60
567.25	2297.10
567.60	2298.28
567.96	2299.97
568.31	2300.69
568.66	2301.73
569.02	2302.26
569.37	2302.55
569.72	2303.41
570.08	2303.54
570.43	2303.66
570.78	2303.01
571.14	2301.62
571.49	2300.21
571.84	2299.93
572.20	2298.82
572.55	2297.91
572.90	2296.36
573.26	2295.00
573.61	2293.29
573.96	2291.30
574.31	2288.47
574.67	2285.39
575.02	2281.83
575.37	2278.49
575.72	2274.73
576.08	2271.53
576.43	2268.25
576.78	2264.56
577.13	2261.34
577.49	2258.36
577.84	2254.78
578.19	2251.14
578.54	2247.38
578.90	2242.97
579.25	2237.29
579.60	2232.27
579.95	2227.11
580.30	2222.19
580.66	2217.03
581.01	2212.08
581.36	2207.17
581.71	2202.95
582.06	2198.51
582.42	2193.98
582.77	2188.73
583.12	2183.98
583.47	2179.15
583.82	2174.08
584.17	2168.71
584.53	2163.08
584.88	2157.31
585.23	2151.53
585.58	2145.94
585.93	2140.39
586.28	2135.69
586.63	2130.61
586.98	2125.53
587.34	2120.69
587.69	2115.77
588.04	2110.46
588.39	2104.74
588.74	2098.21
589.09	2091.90
589.44	2085.12
589.79	2079.23
590.14	2073.58
590.49	2067.27
590.84	2061.00
591.19	2055.07
591.54	2048.74
591.89	2041.43
592.25	2034.54
592.60	2027.27
592.95	2019.72
593.30	2012.38
593.65	2004.87
594.00	1997.78
594.35	1990.62
594.70	1982.72
595.05	1975.36
595.40	1968.00
595.75	1960.49
596.10	1954.20
596.45	1947.43
596.80	1941.28
597.15	1934.54
597.50	1927.27
597.85	1920.69
598.19	1913.81
598.54	1906.55
598.89	1899.93
599.24	1894.08
599.59	1887.38
599.94	1881.20
600.29	1874.91
600.64	1868.33
600.99	1860.55
601.34	1853.73
601.69	1846.77
602.04	1839.82
602.39	1832.46
602.74	1825.64
603.08	1818.86
603.43	1812.14
603.78	1804.97
604.13	1797.60
604.48	1790.33
604.83	1783.61
605.18	1776.59
605.53	1768.61
605.87	1760.52
606.22	1753.28
606.57	1745.18
606.92	1737.95
607.27	1730.77
607.62	1723.80
607.96	1716.57
608.31	1710.09
608.66	1702.35
609.01	1694.71
609.36	1687.11
609.70	1679.09
610.05	1670.98
610.40	1663.33
610.75	1654.97
611.10	1647.10
611.44	1638.82
611.79	1630.83
612.14	1622.05
612.49	1612.91
612.83	1604.66
613.18	1596.58
613.53	1588.40
613.88	1579.91
614.22	1571.57
614.57	1563.00
614.92	1554.91
615.27	1547.27
615.61	1538.90
615.96	1530.98
616.31	1523.40
616.65	1516.16
617.00	1508.69
617.35	1501.09
617.70	1492.70
618.04	1484.32
618.39	1476.09
618.74	1468.51
619.08	1460.15
619.43	1452.58
619.78	1445.69
620.12	1438.36
620.47	1430.80
620.82	1422.66
621.16	1415.34
621.51	1407.73
621.85	1400.02
622.20	1391.52
622.55	1383.15
622.89	1375.44
623.24	1367.83
623.59	1360.41
623.93	1352.84
624.28	1345.53
624.62	1338.01
624.97	1330.87
625.32	1324.10
625.66	1317.16
626.01	1309.81
626.35	1302.33
626.70	1294.67
627.04	1286.90
627.39	1279.29
627.73	1271.93
628.08	1265.05
628.43	1257.64
628.77	1250.32
629.12	1242.72
629.46	1235.57
629.81	1228.19
630.15	1220.85
630.50	1213.51
630.84	1205.27
631.19	1197.30
631.53	1189.81
631.88	1182.34
632.22	1174.70
632.57	1167.29
632.91	1159.78
633.26	1152.46
633.60	1145.11
633.95	1137.97
634.29	1131.02
634.64	1124.25
634.98	1116.83
635.32	1109.66
635.67	1103.15
636.01	1096.49
636.36	1089.74
636.70	1083.23
637.05	1076.73
637.39	1070.31
637.73	1063.77
638.08	1057.98
638.42	1052.03
638.77	1045.63
639.11	1038.88
639.45	1032.58
639.80	1025.96
640.14	1019.53
640.49	1012.95
640.83	1006.71
641.17	1000.42
641.52	994.01
641.86	987.51
642.20	981.67
642.55	975.39
642.89	968.78
643.23	962.20
643.58	956.44
643.92	950.20
644.26	944.05
644.61	938.03
644.95	931.91
645.29	925.20
645.64	918.45
645.98	912.14
646.32	906.33
646.66	900.22
647.01	894.41
647.35	888.71
647.69	882.99
648.04	877.48
648.38	871.70
648.72	865.62
649.06	859.49
649.41	853.69
649.75	847.67
650.09	841.86
650.43	836.11
650.78	830.03
651.12	824.13
651.46	818.46
651.80	812.71
652.14	807.42
652.49	802.06
652.83	796.89
653.17	791.06
653.51	785.33
653.85	780.03
654.20	774.37
654.54	768.33
654.88	762.50
655.22	756.52
655.56	750.84
655.90	745.46
656.25	740.35
656.59	734.96
656.93	729.83
657.27	724.64
657.61	719.17
657.95	714.07
658.29	708.96
658.64	703.67
658.98	698.33
659.32	692.82
659.66	687.69
660.00	682.39
660.34	677.50
660.68	672.62
661.02	667.53
661.36	662.86
661.70	658.39
662.05	654.13
662.39	649.86
662.73	645.41
663.07	641.04
663.41	636.55
663.75	632.09
664.09	627.59
664.43	623.21
664.77	619.10
665.11	614.78
665.45	610.63
665.79	606.55
666.13	602.48
666.47	598.40
666.81	594.21
667.15	590.07
667.49	586.24
667.83	582.43
668.17	578.48
668.51	574.38
668.85	570.37
669.19	566.50
669.53	562.67
669.87	558.72
670.21	554.99
670.55	551.28
670.89	547.84
671.23	544.38
671.57	540.84
671.91	537.29
672.25	533.82
672.58	530.35
672.92	527.02
673.26	523.85
673.60	520.68
673.94	517.57
674.28	514.70
674.62	511.66
674.96	508.54
675.30	505.63
675.64	502.72
675.97	499.96
676.31	497.08
676.65	494.11
676.99	491.47
677.33	488.67
677.67	485.90
678.01	482.84
678.34	479.85
678.68	476.97
679.02	474.16
679.36	471.41
679.70	468.64
680.04	465.84
680.37	462.94
680.71	460.17
681.05	457.53
681.39	454.78
681.73	452.14
682.06	449.66
682.40	447.13
682.74	444.57
683.08	441.99
683.42	439.47
683.75	437.03
684.09	434.51
684.43	432.00
684.77	429.57
685.10	427.25
685.44	424.97
685.78	422.74
686.12	420.50
686.45	418.22
686.79	415.91
687.13	413.73
687.46	411.58
687.80	409.43
688.14	407.28
688.48	405.25
688.81	402.99
689.15	400.82
689.49	398.70
689.82	396.69
690.16	394.66
690.50	392.68
690.83	390.70
691.17	388.66
691.51	386.76
691.84	384.96
692.18	383.03
692.52	381.08
692.85	379.09
693.19	377.20
693.52	375.36
693.86	373.61
694.20	371.83
694.53	370.02
694.87	368.18
695.21	366.39
695.54	364.59
695.88	362.93
696.21	361.21
696.55	359.49
696.88	357.78
697.22	356.11
697.56	354.48
697.89	352.84
698.23	351.30
698.56	349.70
698.90	348.08
699.23	346.46
699.57	344.93
699.90	343.44
700.24	341.91
700.58	340.38
700.91	338.87
701.25	337.43
701.58	336.05
701.92	334.72
702.25	333.32
702.59	331.97
702.92	330.61
703.26	329.30
703.59	328.05
703.93	326.91
704.26	325.65
704.60	324.34
704.93	323.04
705.26	321.74
705.60	320.58
705.93	319.44
706.27	318.38
706.60	317.31
706.94	316.21
707.27	315.09
707.61	314.06
707.94	313.01
708.27	311.92
708.61	310.85
708.94	309.85
709.28	308.89
709.61	307.88
709.94	306.93
710.28	305.91
710.61	304.93
710.95	303.79
711.28	302.88
711.61	301.93
711.95	301.03
712.28	300.10
712.61	299.10
712.95	298.12
713.28	297.23
713.61	296.32
713.95	295.41
714.28	294.57
714.61	293.70
714.95	292.85
715.28	291.99
715.61	291.15
715.95	290.26
716.28	289.32
716.61	288.52
716.95	287.70
717.28	286.95
717.61	286.16
717.94	285.44
718.28	284.59
718.61	283.84
718.94	283.13
719.27	282.45
719.61	281.81
719.94	281.14
720.27	280.43
720.60	279.76
720.94	279.12
721.27	278.50
721.60	277.92
721.93	277.34
722.27	276.79
722.60	276.22
722.93	275.64
723.26	275.13
723.59	274.57
723.93	274.02
724.26	273.49
724.59	272.93
724.92	272.41
725.25	271.97
725.59	271.46
725.92	270.93
726.25	270.43
726.58	269.93
726.91	269.43
727.24	268.96
727.57	268.49
727.91	268.00
728.24	267.55
728.57	267.03
728.90	266.57
729.23	266.06
729.56	265.64
729.89	265.15
730.22	264.71
730.55	264.24
730.89	263.81
731.22	263.36
731.55	262.92
731.88	262.47
732.21	262.03
732.54	261.62
732.87	261.23
733.20	260.83
733.53	260.47
733.86	260.12
734.19	259.78
734.52	259.40
734.85	259.14
735.18	258.70
735.51	258.39
735.84	258.01
736.17	257.68
736.50	257.28
736.83	257.11
737.16	256.80
737.49	256.48
737.82	256.14
738.15	255.78
738.48	255.51
738.81	255.21
739.14	254.89
739.47	254.56
739.80	254.27
740.13	254.02
740.46	253.69
740.79	253.37
741.12	253.01
741.45	252.70
741.78	252.34
742.11	252.07
742.44	251.76
742.77	251.49
743.10	251.20
743.43	250.91
743.75	250.50
744.08	250.36
744.41	250.07
744.74	249.79
745.07	249.55
745.40	249.27
745.73	249.04
746.06	248.76
746.39	248.51
746.71	248.20
747.04	247.90
747.37	247.64
747.70	247.40
748.03	247.16
748.36	246.94
748.68	246.71
749.01	246.44
749.34	246.20
749.67	245.94
750.00	245.69
750.33	245.49
750.65	245.28
750.98	244.93
751.31	244.68
751.64	244.48
751.97	244.28
752.29	244.06
752.62	243.80
752.95	243.59
753.28	243.34
753.60	243.16
753.93	242.95
754.26	242.73
754.59	242.49
754.91	242.31
755.24	242.08
755.57	241.89
755.90	241.71
756.22	241.48
756.55	241.30
756.88	241.11
757.20	240.88
757.53	240.70
757.86	240.52
758.19	240.38
758.51	240.18
758.84	239.96
759.17	239.78
759.49	239.62
759.82	239.48
760.15	239.36
760.47	239.19
760.80	239.03
761.13	238.92
761.45	238.77
761.78	238.61
762.11	238.45
762.43	238.29
762.76	238.18
763.08	238.11
763.41	237.98
763.74	237.85
764.06	237.75
764.39	237.58
764.71	237.43
765.04	237.30
765.37	237.21
765.69	237.04
766.02	236.89
766.34	236.77
766.67	236.63
767.00	236.51
767.32	236.45
767.65	236.41
767.97	236.26
768.30	236.17
768.62	236.05
768.95	235.98
769.27	235.85
769.60	235.73
769.92	235.59
770.25	235.47
770.57	235.39
770.90	235.28
771.22	235.20
771.55	235.11
771.87	235.02
772.20	234.94
772.52	234.96
772.85	235.00
773.17	234.94
773.50	234.87
773.82	234.79
774.15	234.64
774.47	234.49
774.80	234.41
775.12	234.31
775.45	234.23
775.77	234.11
776.09	234.07
776.42	234.01
776.74	233.98
777.07	233.90
777.39	233.81
777.72	233.75
778.04	233.70
778.36	233.64
778.69	233.60
779.01	233.54
779.33	233.44
779.66	233.30
779.98	233.20
780.31	233.11
780.63	233.08
780.95	233.06
781.28	233.02
781.60	232.95
781.92	232.90
782.25	232.83
782.57	232.77
782.89	232.71
783.22	232.62
783.54	232.55
783.86	232.50
784.19	232.46
784.51	232.42
784.83	232.36
785.16	232.28
785.48	232.21
785.80	232.16
786.12	232.10
786.45	232.04
786.77	232.02
787.09	232.00
787.42	231.91
787.74	231.85
788.06	231.79
788.38	231.71
788.71	231.66
789.03	231.66
789.35	231.67
789.67	231.60
789.99	231.59
790.32	231.53
790.64	231.48
790.96	231.47
791.28	231.39
791.61	231.31
791.93	231.31
792.25	231.25
792.57	231.23
792.89	231.15
793.21	231.08
793.54	231.01
793.86	230.90
794.18	230.87
794.50	230.82
794.82	230.79
795.14	230.81
795.47	230.79
795.79	230.69
796.11	230.61
796.43	230.57
796.75	230.52
797.07	230.49
797.39	230.45
797.71	230.40
798.04	230.36
798.36	230.33
798.68	230.27
799.00	230.23
799.32	230.18
799.64	230.19
799.96	230.17
800.28	230.15
800.60	230.15
800.92	230.12
801.24	230.07
801.56	230.04
801.89	230.01
802.21	229.98
802.53	229.94
802.85	229.96
803.17	229.96
803.49	229.94
803.81	229.91
804.13	229.89
804.45	229.84
804.77	229.82
805.09	229.79
805.41	229.75
805.73	229.74
806.05	229.66
806.37	229.62
806.69	229.56
807.01	229.53
807.33	229.50
807.65	229.45
807.97	229.48
808.28	229.44
808.60	229.39
808.92	229.36
809.24	229.43
809.56	229.35
809.88	229.31
810.20	229.28
810.52	229.24
810.84	229.19
811.16	229.13
811.48	229.11
811.80	229.10
812.12	229.11
812.43	229.09
812.75	229.07
813.07	229.08
813.39	229.09
813.71	229.10
814.03	229.09
814.35	229.09
814.67	229.03
814.98	229.04
815.30	229.04
815.62	229.00
815.94	228.93
816.26	229.00
816.58	228.96
816.89	228.97
817.21	228.96
817.53	228.95
817.85	228.97
818.17	228.96
818.48	228.90
818.80	228.88
819.12	228.84
819.44	228.83
819.76	228.82
820.07	228.81
820.39	228.80
820.71	228.79
821.03	228.79
821.34	228.78
821.66	228.74
821.98	228.71
822.30	228.69
822.61	228.71
822.93	228.63
823.25	228.66
823.57	228.61
823.88	228.61
824.20	228.61
824.52	228.58
824.83	228.58
825.15	228.61
825.47	228.62
825.79	228.61
826.10	228.63
826.42	228.56
826.74	228.56
827.05	228.52
827.37	228.50
827.69	228.47
828.00	228.47
828.32	228.45
828.64	228.42
828.95	228.47
829.27	228.46
829.58	228.46
829.90	228.45
830.22	228.44
830.53	228.38
830.85	228.35
831.17	228.31
831.48	228.28
831.80	228.26
832.11	228.21
832.43	228.19
832.75	228.16
833.06	228.25
833.38	228.20
833.69	228.18
834.01	228.19
834.32	228.20
834.64	228.15
834.96	228.18
835.27	228.18
835.59	228.12
835.90	228.07
836.22	228.05
836.53	228.01
836.85	228.00
837.16	228.09
837.48	228.08
837.79	228.12
838.11	228.08
838.42	228.07
838.74	228.08
839.05	228.08
839.37	228.06
839.68	227.95
840.00	227.94
840.31	227.95
840.63	227.88
840.94	227.85
841.26	227.84
841.57	227.80
841.88	227.80
842.20	227.78
842.51	227.77
842.83	227.74
843.14	227.81
843.46	227.78
843.77	227.71
844.08	227.68
844.40	227.64
844.71	227.64
845.03	227.60
845.34	227.57
845.65	227.56
845.97	227.57
846.28	227.60
846.60	227.59
846.91	227.55
847.22	227.59
847.54	227.58
847.85	227.58
848.16	227.58
848.48	227.52
848.79	227.54
849.10	227.52
849.42	227.53
849.73	227.45
850.04	227.43
850.36	227.39
850.67	227.41
850.98	227.38
851.30	227.40
851.61	227.43
851.92	227.42
852.23	227.39
852.55	227.35
852.86	227.32
853.17	227.31
853.49	227.36
853.80	227.36
854.11	227.40
854.42	227.41
854.74	227.41
855.05	227.46
855.36	227.42
855.67	227.45
855.99	227.46
856.30	227.58
856.61	227.60
856.92	227.59
857.23	227.63
857.55	227.65
857.86	227.63
858.17	227.66
858.48	227.65
858.79	227.69
859.11	227.71
859.42	227.72
859.73	227.69
860.04	227.68
860.35	227.67
860.66	227.64
860.98	227.63
861.29	227.65
861.60	227.61
861.91	227.64
862.22	227.61
862.53	227.59
862.84	227.48
863.16	227.52
863.47	227.53
863.78	227.52
864.09	227.53
864.40	227.54
864.71	227.52
865.02	227.56
865.33	227.53
865.64	227.55
865.95	227.55
866.27	227.66
866.58	227.61
866.89	227.58
867.20	227.58
867.51	227.54
867.82	227.52
868.13	227.57
868.44	227.53
868.75	227.56
869.06	227.58
869.37	227.59
869.68	227.56
869.99	227.57
870.30	227.58
870.61	227.58
870.92	227.55
871.23	227.53
871.54	227.55
871.85	227.57
872.16	227.56
872.47	227.58
872.78	227.51
873.09	227.55
873.40	227.55
873.71	227.54
874.02	227.56
874.33	227.53
874.64	227.50
874.95	227.52
875.26	227.48
875.56	227.47
875.87	227.43
876.18	227.42
876.49	227.52
876.80	227.48
877.11	227.47
877.42	227.46
877.73	227.47
878.04	227.41
878.35	227.42
878.66	227.39
878.96	227.37
879.27	227.35
879.58	227.31
879.89	227.31
880.20	227.35
880.51	227.34
880.82	227.33
881.12	227.32
881.43	227.28
881.74	227.25
882.05	227.21
882.36	227.23
882.67	227.19
882.97	227.06
883.28	227.03
883.59	227.01
883.90	227.03
884.21	227.04
884.51	227.04
884.82	227.01
885.13	227.00
885.44	226.98
885.74	226.96
886.05	226.98
886.36	226.96
886.67	226.91
886.98	226.98
887.28	226.96
887.59	226.97
887.90	226.98
888.20	227.03
888.51	227.04
888.82	227.02
889.13	227.05
889.43	227.16
889.74	227.14
890.05	227.14
890.35	227.11
890.66	227.06
890.97	227.07
891.28	227.05
891.58	227.05
891.89	227.03
892.20	227.03
892.50	227.03
892.81	227.01
893.12	227.04
893.42	226.97
893.73	227.02
894.04	226.99
894.34	227.03
894.65	227.00
894.95	226.99
895.26	226.96
895.57	226.97
895.87	226.86
896.18	226.91
896.48	226.92
896.79	226.94
897.10	226.98
897.40	226.96
897.71	226.96
898.01	226.96
898.32	226.99
898.63	226.99
898.93	226.97
899.24	227.02
899.54	226.99
899.85	227.00
900.15	226.98
900.46	227.00
900.76	226.97
901.07	226.97
901.38	226.98
901.68	227.04
901.99	227.00
902.29	227.04
902.60	227.02
902.90	227.03
903.21	227.02
903.51	227.02
903.82	227.07
904.12	227.06
904.43	227.07
904.73	227.08
905.03	227.07
905.34	227.18
905.64	227.15
905.95	227.14
906.25	227.15
906.56	227.13
906.86	227.12
907.17	227.14
907.47	227.14
907.77	227.15
908.08	227.12
908.38	227.13
908.69	227.10
908.99	227.15
909.30	227.14
909.60	227.14
909.90	227.11
910.21	227.04
910.51	227.04
910.81	227.03
911.12	227.07
911.42	227.07
911.73	226.97
912.03	227.00
912.33	227.01
912.64	227.00
912.94	227.01
913.24	226.99
913.55	227.00
913.85	226.98
914.15	226.95
914.46	226.95
914.76	226.94
915.06	226.97
915.37	226.94
915.67	226.92
915.97	226.92
916.27	226.95
916.58	226.97
916.88	226.97
917.18	226.95
917.49	226.99
917.79	226.96
918.09	226.96
918.39	226.93
918.70	226.92
919.00	226.89
919.30	226.91
919.60	226.93
919.91	226.90
920.21	226.90
920.51	226.90
920.81	226.88
921.12	226.88
921.42	226.83
921.72	226.84
922.02	226.85
922.32	226.85
922.63	226.83
922.93	226.87
923.23	226.88
923.53	226.86
923.83	226.79
924.13	226.82
924.44	226.77
924.74	226.78
925.04	226.82
925.34	226.82
925.64	226.77
925.94	226.74
926.24	226.80
926.55	226.81
926.85	226.82
927.15	226.82
927.45	226.82
927.75	226.87
928.05	226.86
928.35	226.83
928.65	226.88
928.95	226.88
929.26	226.85
929.56	226.88
929.86	226.89
930.16	226.87
930.46	226.87
930.76	226.89
931.06	226.84
931.36	226.81
931.66	226.82
931.96	226.85
932.26	226.85
932.56	226.79
932.86	226.78
933.16	226.81
933.46	226.84
933.76	226.84
934.06	226.86
934.36	226.89
934.66	226.88
934.96	226.86
935.26	226.85
935.56	226.86
935.86	226.82
936.16	226.83
936.46	226.84
936.76	226.83
937.06	226.85
937.36	226.88
937.66	226.91
937.96	226.93
938.26	226.91
938.56	226.93
938.86	226.97
939.16	227.01
939.46	227.01
939.76	227.00
940.06	227.00
940.35	226.95
940.65	226.91
940.95	226.92
941.25	226.90
941.55	226.92
941.85	226.90
942.15	226.93
942.45	226.98
942.75	226.98
943.04	227.02
943.34	227.03
943.64	227.04
943.94	227.00
944.24	227.02
944.54	227.03
944.84	226.97
945.13	226.96
945.43	226.95
945.73	226.95
946.03	226.93
946.33	226.92
946.62	226.92
946.92	226.90
947.22	226.92
947.52	226.92
947.82	226.92
948.11	226.95
948.41	226.92
948.71	226.87
949.01	226.85
949.31	226.82
949.60	226.79
949.90	226.79
950.20	226.79
950.50	226.78
950.79	226.79
951.09	226.84
951.39	226.82
951.69	226.82
951.98	226.82
952.28	226.85
952.58	226.86
952.87	226.87
953.17	226.91
953.47	226.89
953.76	226.87
954.06	226.84
954.36	226.78
954.66	226.78
954.95	226.81
955.25	226.84
955.55	226.86
955.84	226.89
956.14	226.90
956.44	226.87
956.73	226.83
957.03	226.81
957.32	226.79
957.62	226.80
957.92	226.78
958.21	226.75
958.51	226.82
958.81	226.81
959.10	226.80
959.40	226.77
959.69	226.78
959.99	226.77
960.29	226.80
960.58	226.81
960.88	226.81
961.17	226.81
961.47	226.81
961.76	226.79
962.06	226.79
962.36	226.78
962.65	226.82
962.95	226.86
963.24	226.82
963.54	226.84
963.83	226.85
964.13	226.87
964.42	226.85
964.72	226.79
965.01	226.78
965.31	226.78
965.60	226.79
965.90	226.84
966.19	226.87
966.49	226.87
966.78	226.88
967.08	226.93
967.37	226.91
967.67	226.89
967.96	226.89
968.26	226.88
968.55	226.90
968.85	226.90
969.14	226.86
969.43	226.91
969.73	226.90
970.02	226.88
970.32	226.90
970.61	226.92
970.91	226.89
971.20	226.90
971.49	226.87
971.79	226.87
972.08	226.82
972.38	226.82
972.67	226.81
972.96	226.83
973.26	226.79
973.55	226.81
973.85	226.81
974.14	226.82
974.43	226.85
974.73	226.82
975.02	226.84
975.31	226.85
975.61	226.84
975.90	226.86
976.19	226.85
976.49	226.85
976.78	226.85
977.07	226.86
977.37	226.87
977.66	226.90
977.95	226.91
978.24	226.93
978.54	226.94
978.83	226.93
979.12	226.88
979.42	226.90
979.71	226.92
980.00	226.91
980.29	226.89
980.59	226.88
980.88	226.92
981.17	226.91
981.46	226.93
981.76	226.93
982.05	226.97
982.34	226.96
982.63	226.96
982.93	226.98
983.22	227.01
983.51	227.02
983.80	227.01
984.09	227.03
984.39	227.00
984.68	226.99
984.97	226.99
985.26	227.01
985.55	226.97
985.85	226.95
986.14	226.98
986.43	227.01
986.72	226.99
987.01	226.94
987.30	226.95
987.59	226.96
987.89	226.95
988.18	226.89
988.47	226.88
988.76	226.87
989.05	226.84
989.34	226.83
989.63	226.84
989.92	226.83
990.22	226.79
990.51	226.78
990.80	226.78
991.09	226.79
991.38	226.81
991.67	226.81
991.96	226.78
992.25	226.77
992.54	226.73
992.83	226.72
993.12	226.72
993.41	226.72
993.70	226.73
993.99	226.74
994.28	226.77
994.58	226.79
994.87	226.76
995.16	226.76
995.45	226.72
995.74	226.70
996.03	226.72
996.32	226.74
996.61	226.77
996.90	226.75
997.19	226.75
997.48	226.74
997.77	226.77
998.06	226.79
998.34	226.81
998.63	226.83
998.92	226.84
999.21	226.82
999.50	226.83
999.79	226.80
1000.08	226.79
1000.37	226.80
1000.66	226.79
1000.95	226.82
1001.24	226.85
1001.53	226.87
1001.82	226.89
1002.11	226.86
1002.40	226.86
1002.68	226.87
1002.97	226.95
1003.26	226.95
1003.55	226.93
1003.84	226.91
1004.13	226.94
1004.42	226.92
1004.71	226.93
1004.99	226.91
1005.28	226.98
1005.57	226.95
1005.86	226.95
1006.15	226.93
1006.44	226.89
1006.72	226.90
1007.01	226.92
1007.30	226.89
1007.59	226.89
1007.88	226.86
1008.17	226.89
1008.45	226.89
1008.74	226.87
1009.03	226.87
1009.32	226.88
1009.60	226.91
1009.89	226.91
1010.18	226.87
1010.47	226.86
1010.76	226.85
1011.04	226.88
1011.33	226.89
1011.62	226.93
1011.91	226.95
1012.19	227.00
1012.48	227.04
1012.77	227.06
1013.05	227.08
1013.34	227.08
1013.63	227.10
1013.92	227.12
1014.20	227.10
1014.49	227.11
1014.78	227.10
1015.06	227.02
1015.35	227.00
1015.64	227.02
1015.92	227.05
1016.21	227.06
1016.50	227.08
1016.78	227.10
1017.07	227.09
1017.36	227.03
1017.64	227.03
1017.93	227.06
1018.22	227.04
1018.50	227.03
1018.79	227.01
1019.08	226.97
1019.36	226.99
1019.65	226.97
1019.93	226.99
1020.22	227.01
1020.51	227.06
1020.79	227.10
1021.08	226.62
1021.36	226.89
1021.65	226.76
1021.94	227.19
1022.22	226.93
1022.51	226.85
1022.79	227.42
1023.08	227.18
1023.36	228.13
1023.65	227.21
>>>>>End Processed Spectral Data<<<<<
