SpectraSuite Data File
++++++++++++++++++++++++++++++++++++
Date: Fri Feb 01 16:22:16 EST 2013
User: group
Dark Spectrum Present: No
Reference Spectrum Present: No
Number of Sampled Component Spectra: 1
Spectrometers: USB2E7196
Integration Time (usec): 35000 (USB2E7196)
Spectra Averaged: 100 (USB2E7196)
Boxcar Smoothing: 10 (USB2E7196)
Correct for Electrical Dark: No (USB2E7196)
Strobe/Lamp Enabled: No (USB2E7196)
Correct for Detector Non-linearity: No (USB2E7196)
Correct for Stray Light: No (USB2E7196)
Number of Pixels in Processed Spectrum: 2048
>>>>>Begin Processed Spectral Data<<<<<
339.09	0.00
339.48	214.46
339.86	215.99
340.24	217.04
340.63	218.37
341.01	221.32
341.39	220.86
341.78	222.41
342.16	223.39
342.54	224.18
342.93	212.54
343.31	223.26
343.69	223.80
344.07	224.26
344.46	224.67
344.84	225.03
345.22	225.24
345.60	225.49
345.99	225.67
346.37	225.80
346.75	225.87
347.13	225.94
347.52	226.01
347.90	226.06
348.28	226.11
348.66	226.13
349.05	226.09
349.43	226.12
349.81	226.18
350.19	226.23
350.57	226.29
350.96	226.34
351.34	226.42
351.72	226.47
352.10	226.54
352.48	226.62
352.87	226.70
353.25	226.78
353.63	226.85
354.01	226.90
354.39	226.98
354.77	227.09
355.15	227.18
355.54	227.25
355.92	227.32
356.30	227.40
356.68	227.53
357.06	227.58
357.44	227.62
357.82	227.67
358.20	227.71
358.58	227.76
358.97	227.83
359.35	227.89
359.73	227.99
360.11	228.09
360.49	228.14
360.87	228.15
361.25	228.19
361.63	228.29
362.01	228.36
362.39	228.40
362.77	228.46
363.15	228.46
363.53	228.50
363.91	228.52
364.29	228.52
364.67	228.45
365.05	228.45
365.43	228.49
365.81	228.50
366.19	228.54
366.57	228.58
366.95	228.57
367.33	228.57
367.71	228.55
368.09	228.53
368.47	228.50
368.85	228.49
369.23	228.50
369.61	228.42
369.99	228.42
370.37	228.38
370.75	228.37
371.13	228.33
371.51	228.29
371.89	228.25
372.27	228.22
372.65	228.18
373.03	228.17
373.41	228.11
373.78	228.06
374.16	227.97
374.54	227.87
374.92	227.83
375.30	227.77
375.68	227.70
376.06	227.65
376.44	227.61
376.82	227.55
377.19	227.49
377.57	227.43
377.95	227.34
378.33	227.27
378.71	227.19
379.09	227.14
379.47	227.12
379.84	227.05
380.22	226.97
380.60	226.89
380.98	226.80
381.36	226.74
381.73	226.69
382.11	226.63
382.49	226.59
382.87	226.49
383.25	226.40
383.62	226.44
384.00	226.32
384.38	226.26
384.76	226.28
385.13	226.24
385.51	226.20
385.89	226.14
386.27	226.10
386.64	226.03
387.02	225.99
387.40	225.89
387.78	225.85
388.15	225.82
388.53	225.77
388.91	225.74
389.29	225.71
389.66	225.69
390.04	225.66
390.42	225.66
390.79	225.68
391.17	225.71
391.55	225.58
391.92	225.57
392.30	225.58
392.68	225.53
393.05	225.50
393.43	225.49
393.81	225.49
394.18	225.47
394.56	225.48
394.94	225.52
395.31	225.55
395.69	225.62
396.06	225.63
396.44	225.67
396.82	225.69
397.19	225.82
397.57	225.84
397.95	225.94
398.32	225.93
398.70	225.97
399.07	226.02
399.45	226.11
399.82	226.19
400.20	226.23
400.58	226.26
400.95	226.32
401.33	226.40
401.70	226.54
402.08	226.65
402.45	226.78
402.83	226.82
403.20	226.91
403.58	227.00
403.95	227.15
404.33	227.30
404.71	227.43
405.08	227.58
405.46	227.70
405.83	227.83
406.21	227.98
406.58	228.12
406.96	228.29
407.33	228.46
407.70	228.66
408.08	228.93
408.45	229.18
408.83	229.44
409.20	229.64
409.58	229.83
409.95	230.05
410.33	230.30
410.70	230.57
411.08	230.90
411.45	231.19
411.82	231.49
412.20	231.82
412.57	232.23
412.95	232.51
413.32	232.91
413.69	233.32
414.07	233.78
414.44	234.28
414.82	234.77
415.19	235.33
415.56	235.87
415.94	236.44
416.31	237.07
416.68	237.70
417.06	238.44
417.43	239.14
417.81	239.96
418.18	240.75
418.55	241.61
418.93	242.47
419.30	243.35
419.67	244.26
420.04	245.23
420.42	246.21
420.79	247.40
421.16	248.55
421.54	249.67
421.91	250.86
422.28	252.09
422.66	253.39
423.03	254.69
423.40	256.03
423.77	257.46
424.15	258.85
424.52	260.31
424.89	261.90
425.26	263.45
425.64	264.87
426.01	266.43
426.38	268.10
426.75	269.77
427.13	271.50
427.50	273.30
427.87	275.20
428.24	277.06
428.61	278.79
428.99	280.75
429.36	282.90
429.73	284.97
430.10	287.00
430.47	289.08
430.85	291.16
431.22	293.42
431.59	295.73
431.96	297.98
432.33	300.47
432.70	302.80
433.08	305.61
433.45	308.21
433.82	310.80
434.19	313.65
434.56	316.43
434.93	319.11
435.30	321.72
435.68	324.57
436.05	327.36
436.42	330.15
436.79	332.63
437.16	335.31
437.53	338.19
437.90	340.95
438.27	343.64
438.64	346.41
439.01	348.94
439.38	351.20
439.75	353.37
440.13	355.81
440.50	358.22
440.87	360.02
441.24	361.98
441.61	364.11
441.98	365.61
442.35	367.39
442.72	369.18
443.09	370.97
443.46	371.97
443.83	372.58
444.20	373.10
444.57	373.90
444.94	374.14
445.31	374.40
445.68	374.78
446.05	374.88
446.42	374.58
446.79	374.18
447.16	373.69
447.53	373.36
447.90	372.20
448.27	370.97
448.64	369.39
449.01	368.22
449.37	366.25
449.74	364.38
450.11	362.17
450.48	359.75
450.85	357.18
451.22	355.08
451.59	353.01
451.96	351.06
452.33	348.49
452.70	346.15
453.07	343.35
453.43	340.45
453.80	337.70
454.17	335.01
454.54	332.46
454.91	329.75
455.28	327.08
455.65	324.59
456.02	322.17
456.38	320.04
456.75	317.41
457.12	315.18
457.49	312.88
457.86	310.71
458.23	308.85
458.59	306.84
458.96	304.75
459.33	302.95
459.70	301.10
460.07	299.58
460.43	297.89
460.80	296.27
461.17	294.84
461.54	293.32
461.91	291.90
462.27	290.49
462.64	289.26
463.01	287.90
463.38	286.65
463.74	285.25
464.11	284.11
464.48	283.10
464.85	282.02
465.21	281.22
465.58	280.33
465.95	279.24
466.32	278.38
466.68	277.48
467.05	276.57
467.42	275.71
467.78	274.79
468.15	273.95
468.52	273.29
468.88	272.44
469.25	271.76
469.62	271.16
469.98	270.49
470.35	269.89
470.72	269.32
471.08	268.65
471.45	268.14
471.82	267.64
472.18	267.09
472.55	266.62
472.92	266.09
473.28	265.60
473.65	265.18
474.02	264.70
474.38	264.33
474.75	264.00
475.11	263.67
475.48	263.43
475.85	263.19
476.21	263.03
476.58	262.85
476.94	262.66
477.31	262.46
477.67	262.30
478.04	262.18
478.41	262.15
478.77	262.20
479.14	262.18
479.50	262.17
479.87	262.26
480.23	262.39
480.60	262.45
480.96	262.54
481.33	262.75
481.69	263.00
482.06	263.19
482.42	263.39
482.79	263.64
483.15	263.97
483.52	264.36
483.88	264.68
484.25	265.07
484.61	265.51
484.98	265.98
485.34	266.53
485.71	267.12
486.07	267.73
486.44	268.33
486.80	269.04
487.17	269.75
487.53	270.51
487.90	271.32
488.26	272.26
488.62	273.29
488.99	274.25
489.35	275.29
489.72	276.41
490.08	277.63
490.44	278.83
490.81	280.15
491.17	281.50
491.54	282.96
491.90	284.50
492.26	286.13
492.63	287.91
492.99	289.71
493.36	291.59
493.72	293.64
494.08	295.68
494.45	297.92
494.81	300.31
495.17	302.77
495.54	305.35
495.90	308.06
496.26	310.86
496.63	313.85
496.99	316.99
497.35	320.23
497.72	323.65
498.08	327.21
498.44	330.90
498.80	334.86
499.17	338.91
499.53	343.09
499.89	347.53
500.26	352.02
500.62	356.71
500.98	361.69
501.34	366.76
501.71	372.11
502.07	377.55
502.43	383.17
502.79	388.97
503.16	395.06
503.52	401.33
503.88	407.75
504.24	414.37
504.60	421.24
504.97	428.39
505.33	435.74
505.69	443.49
506.05	451.28
506.41	459.14
506.78	467.32
507.14	475.84
507.50	484.51
507.86	493.55
508.22	502.79
508.59	512.03
508.95	521.63
509.31	531.48
509.67	541.54
510.03	551.86
510.39	562.47
510.75	573.31
511.12	584.23
511.48	595.50
511.84	607.02
512.20	618.50
512.56	630.45
512.92	642.66
513.28	654.99
513.64	667.55
514.00	680.33
514.37	693.31
514.73	706.33
515.09	719.39
515.45	732.63
515.81	746.22
516.17	760.19
516.53	774.33
516.89	788.49
517.25	802.73
517.61	817.09
517.97	831.55
518.33	845.91
518.69	860.65
519.05	875.70
519.41	890.87
519.77	906.52
520.13	921.95
520.49	937.24
520.85	952.57
521.21	968.12
521.57	984.27
521.93	999.88
522.29	1016.22
522.65	1032.41
523.01	1048.64
523.37	1064.58
523.73	1080.71
524.09	1096.68
524.45	1112.96
524.81	1129.48
525.17	1146.32
525.53	1163.16
525.89	1180.05
526.25	1196.82
526.61	1213.15
526.97	1229.84
527.33	1246.15
527.68	1262.69
528.04	1279.06
528.40	1295.69
528.76	1312.73
529.12	1329.20
529.48	1346.06
529.84	1362.00
530.20	1378.50
530.56	1395.42
530.91	1412.82
531.27	1429.55
531.63	1446.08
531.99	1462.65
532.35	1478.65
532.71	1494.41
533.07	1510.55
533.42	1526.26
533.78	1542.30
534.14	1558.52
534.50	1573.70
534.86	1589.53
535.21	1604.69
535.57	1620.59
535.93	1635.87
536.29	1650.57
536.65	1665.57
537.00	1680.22
537.36	1695.40
537.72	1709.96
538.08	1724.31
538.44	1738.12
538.79	1751.80
539.15	1765.35
539.51	1778.94
539.87	1793.15
540.22	1806.74
540.58	1820.36
540.94	1833.73
541.29	1846.52
541.65	1859.10
542.01	1872.26
542.37	1884.50
542.72	1896.84
543.08	1908.61
543.44	1920.95
543.79	1932.21
544.15	1943.23
544.51	1954.84
544.87	1965.81
545.22	1976.59
545.58	1986.63
545.94	1996.14
546.29	2006.03
546.65	2015.94
547.01	2025.08
547.36	2033.66
547.72	2042.12
548.07	2049.92
548.43	2058.04
548.79	2066.13
549.14	2073.58
549.50	2080.83
549.86	2088.43
550.21	2095.70
550.57	2102.81
550.92	2109.34
551.28	2116.23
551.64	2123.17
551.99	2129.64
552.35	2135.77
552.70	2141.88
553.06	2147.87
553.41	2154.33
553.77	2160.23
554.13	2166.19
554.48	2172.41
554.84	2177.98
555.19	2183.27
555.55	2188.50
555.90	2192.86
556.26	2197.75
556.61	2202.45
556.97	2206.73
557.32	2210.88
557.68	2214.96
558.03	2219.22
558.39	2222.93
558.74	2227.68
559.10	2231.57
559.45	2235.26
559.81	2239.64
560.16	2243.38
560.52	2246.70
560.87	2250.00
561.23	2252.84
561.58	2255.74
561.94	2258.28
562.29	2260.51
562.64	2263.18
563.00	2265.80
563.35	2269.31
563.71	2272.27
564.06	2275.52
564.42	2278.44
564.77	2281.07
565.12	2283.38
565.48	2285.37
565.83	2287.40
566.19	2288.59
566.54	2289.52
566.89	2290.65
567.25	2291.23
567.60	2292.61
567.96	2294.35
568.31	2295.28
568.66	2296.41
569.02	2297.02
569.37	2297.21
569.72	2298.08
570.08	2298.30
570.43	2298.31
570.78	2297.90
571.14	2296.39
571.49	2295.03
571.84	2294.83
572.20	2293.61
572.55	2292.59
572.90	2291.02
573.26	2289.54
573.61	2288.11
573.96	2286.37
574.31	2283.52
574.67	2280.43
575.02	2276.83
575.37	2273.38
575.72	2269.64
576.08	2266.20
576.43	2262.97
576.78	2259.43
577.13	2256.42
577.49	2253.40
577.84	2249.92
578.19	2246.22
578.54	2242.77
578.90	2238.58
579.25	2233.12
579.60	2228.27
579.95	2223.35
580.30	2218.30
580.66	2213.22
581.01	2208.19
581.36	2203.47
581.71	2199.23
582.06	2194.83
582.42	2190.52
582.77	2185.45
583.12	2180.92
583.47	2176.38
583.82	2171.38
584.17	2166.28
584.53	2160.88
584.88	2155.23
585.23	2149.57
585.58	2144.16
585.93	2138.72
586.28	2134.11
586.63	2129.06
586.98	2123.97
587.34	2119.30
587.69	2114.51
588.04	2109.29
588.39	2103.67
588.74	2097.01
589.09	2091.10
589.44	2084.40
589.79	2078.44
590.14	2072.87
590.49	2066.31
590.84	2059.91
591.19	2053.86
591.54	2047.44
591.89	2040.12
592.25	2033.31
592.60	2026.14
592.95	2018.61
593.30	2011.34
593.65	2003.75
594.00	1996.67
594.35	1989.55
594.70	1981.53
595.05	1974.38
595.40	1967.11
595.75	1959.60
596.10	1953.58
596.45	1946.72
596.80	1940.66
597.15	1933.89
597.50	1926.85
597.85	1920.42
598.19	1913.77
598.54	1906.75
598.89	1900.14
599.24	1894.27
599.59	1887.68
599.94	1881.63
600.29	1875.22
600.64	1868.63
600.99	1861.25
601.34	1854.50
601.69	1847.54
602.04	1840.79
602.39	1833.48
602.74	1826.75
603.08	1819.90
603.43	1813.21
603.78	1806.04
604.13	1798.78
604.48	1791.51
604.83	1784.61
605.18	1777.72
605.53	1769.70
605.87	1761.62
606.22	1754.29
606.57	1746.35
606.92	1739.09
607.27	1731.82
607.62	1725.02
607.96	1717.73
608.31	1711.11
608.66	1703.55
609.01	1696.05
609.36	1688.37
609.70	1680.48
610.05	1672.33
610.40	1664.85
610.75	1656.47
611.10	1648.73
611.44	1640.37
611.79	1632.39
612.14	1623.72
612.49	1614.45
612.83	1606.10
613.18	1598.04
613.53	1590.01
613.88	1581.36
614.22	1573.03
614.57	1564.36
614.92	1556.25
615.27	1548.70
615.61	1540.34
615.96	1532.18
616.31	1524.39
616.65	1517.08
617.00	1509.45
617.35	1501.92
617.70	1493.62
618.04	1485.00
618.39	1476.74
618.74	1469.14
619.08	1460.85
619.43	1453.32
619.78	1446.46
620.12	1439.34
620.47	1431.83
620.82	1423.72
621.16	1416.41
621.51	1408.85
621.85	1401.29
622.20	1392.68
622.55	1384.23
622.89	1376.39
623.24	1368.75
623.59	1361.38
623.93	1353.82
624.28	1346.61
624.62	1339.05
624.97	1331.82
625.32	1325.17
625.66	1318.07
626.01	1310.87
626.35	1303.49
626.70	1295.71
627.04	1288.01
627.39	1280.27
627.73	1272.90
628.08	1265.96
628.43	1258.62
628.77	1251.23
629.12	1243.74
629.46	1236.71
629.81	1229.37
630.15	1222.20
630.50	1214.92
630.84	1206.75
631.19	1198.87
631.53	1191.34
631.88	1183.75
632.22	1176.14
632.57	1168.80
632.91	1161.35
633.26	1153.96
633.60	1146.54
633.95	1139.42
634.29	1132.38
634.64	1125.69
634.98	1118.36
635.32	1111.17
635.67	1104.60
636.01	1097.95
636.36	1091.04
636.70	1084.42
637.05	1077.77
637.39	1071.25
637.73	1064.68
638.08	1058.90
638.42	1052.83
638.77	1046.32
639.11	1039.75
639.45	1033.25
639.80	1026.55
640.14	1020.16
640.49	1013.65
640.83	1007.30
641.17	1001.05
641.52	994.71
641.86	988.22
642.20	982.28
642.55	975.89
642.89	969.39
643.23	962.84
643.58	957.15
643.92	950.94
644.26	944.88
644.61	938.78
644.95	932.67
645.29	926.01
645.64	919.36
645.98	913.01
646.32	907.18
646.66	901.24
647.01	895.51
647.35	889.65
647.69	883.77
648.04	878.20
648.38	872.39
648.72	866.32
649.06	860.23
649.41	854.36
649.75	848.46
650.09	842.53
650.43	836.69
650.78	830.53
651.12	824.57
651.46	818.93
651.80	813.19
652.14	807.77
652.49	802.38
652.83	797.17
653.17	791.46
653.51	785.70
653.85	780.23
654.20	774.54
654.54	768.58
654.88	762.81
655.22	756.95
655.56	751.27
655.90	745.85
656.25	740.59
656.59	735.23
656.93	730.17
657.27	725.02
657.61	719.58
657.95	714.46
658.29	709.45
658.64	704.19
658.98	698.89
659.32	693.52
659.66	688.27
660.00	682.90
660.34	677.95
660.68	673.01
661.02	668.00
661.36	663.30
661.70	658.87
662.05	654.53
662.39	650.30
662.73	645.83
663.07	641.42
663.41	637.00
663.75	632.41
664.09	627.79
664.43	623.33
664.77	619.23
665.11	614.93
665.45	610.77
665.79	606.65
666.13	602.54
666.47	598.44
666.81	594.25
667.15	590.12
667.49	586.15
667.83	582.36
668.17	578.36
668.51	574.32
668.85	570.30
669.19	566.53
669.53	562.63
669.87	558.75
670.21	555.06
670.55	551.41
670.89	548.10
671.23	544.70
671.57	541.16
671.91	537.63
672.25	534.12
672.58	530.59
672.92	527.19
673.26	523.92
673.60	520.74
673.94	517.63
674.28	514.75
674.62	511.85
674.96	508.73
675.30	505.84
675.64	502.88
675.97	500.02
676.31	497.04
676.65	494.11
676.99	491.36
677.33	488.52
677.67	485.66
678.01	482.58
678.34	479.57
678.68	476.76
679.02	473.94
679.36	471.21
679.70	468.45
680.04	465.69
680.37	462.89
680.71	460.09
681.05	457.50
681.39	454.81
681.73	452.19
682.06	449.63
682.40	447.11
682.74	444.58
683.08	442.03
683.42	439.48
683.75	436.97
684.09	434.38
684.43	431.89
684.77	429.45
685.10	427.05
685.44	424.71
685.78	422.38
686.12	420.16
686.45	417.87
686.79	415.55
687.13	413.39
687.46	411.17
687.80	409.06
688.14	406.82
688.48	404.68
688.81	402.39
689.15	400.28
689.49	398.08
689.82	395.95
690.16	393.87
690.50	391.87
690.83	389.92
691.17	387.97
691.51	386.06
691.84	384.20
692.18	382.31
692.52	380.37
692.85	378.46
693.19	376.58
693.52	374.73
693.86	372.94
694.20	371.11
694.53	369.35
694.87	367.43
695.21	365.66
695.54	363.86
695.88	362.14
696.21	360.36
696.55	358.71
696.88	357.03
697.22	355.39
697.56	353.75
697.89	352.11
698.23	350.50
698.56	348.86
698.90	347.28
699.23	345.63
699.57	344.11
699.90	342.54
700.24	341.02
700.58	339.48
700.91	337.98
701.25	336.53
701.58	335.12
701.92	333.78
702.25	332.39
702.59	331.06
702.92	329.73
703.26	328.43
703.59	327.14
703.93	326.00
704.26	324.73
704.60	323.43
704.93	322.16
705.26	320.89
705.60	319.76
705.93	318.59
706.27	317.52
706.60	316.39
706.94	315.30
707.27	314.17
707.61	313.11
707.94	312.05
708.27	310.98
708.61	309.92
708.94	308.95
709.28	307.97
709.61	307.00
709.94	306.06
710.28	305.07
710.61	304.15
710.95	303.07
711.28	302.21
711.61	301.26
711.95	300.36
712.28	299.41
712.61	298.42
712.95	297.48
713.28	296.62
713.61	295.74
713.95	294.90
714.28	294.04
714.61	293.17
714.95	292.38
715.28	291.50
715.61	290.65
715.95	289.77
716.28	288.94
716.61	288.09
716.95	287.30
717.28	286.55
717.61	285.74
717.94	285.00
718.28	284.20
718.61	283.51
718.94	282.81
719.27	282.18
719.61	281.54
719.94	280.89
720.27	280.20
720.60	279.58
720.94	278.91
721.27	278.30
721.60	277.73
721.93	277.12
722.27	276.60
722.60	276.03
722.93	275.48
723.26	274.96
723.59	274.43
723.93	273.85
724.26	273.30
724.59	272.73
724.92	272.21
725.25	271.71
725.59	271.21
725.92	270.71
726.25	270.21
726.58	269.69
726.91	269.21
727.24	268.78
727.57	268.30
727.91	267.80
728.24	267.30
728.57	266.81
728.90	266.33
729.23	265.79
729.56	265.43
729.89	264.94
730.22	264.40
730.55	263.91
730.89	263.46
731.22	263.00
731.55	262.57
731.88	262.14
732.21	261.71
732.54	261.28
732.87	260.82
733.20	260.41
733.53	260.03
733.86	259.66
734.19	259.21
734.52	258.83
734.85	258.49
735.18	258.11
735.51	257.74
735.84	257.38
736.17	257.07
736.50	256.60
736.83	256.35
737.16	256.05
737.49	255.75
737.82	255.38
738.15	255.08
738.48	254.77
738.81	254.39
739.14	254.03
739.47	253.70
739.80	253.37
740.13	253.08
740.46	252.76
740.79	252.39
741.12	252.08
741.45	251.74
741.78	251.38
742.11	251.08
742.44	250.72
742.77	250.40
743.10	250.08
743.43	249.81
743.75	249.42
744.08	249.22
744.41	248.92
744.74	248.68
745.07	248.37
745.40	248.13
745.73	247.93
746.06	247.61
746.39	247.33
746.71	247.06
747.04	246.77
747.37	246.51
747.70	246.29
748.03	246.02
748.36	245.79
748.68	245.58
749.01	245.33
749.34	245.13
749.67	244.94
750.00	244.72
750.33	244.53
750.65	244.33
750.98	244.02
751.31	243.81
751.64	243.59
751.97	243.43
752.29	243.20
752.62	242.94
752.95	242.79
753.28	242.54
753.60	242.36
753.93	242.18
754.26	241.95
754.59	241.69
754.91	241.47
755.24	241.27
755.57	241.10
755.90	240.91
756.22	240.69
756.55	240.45
756.88	240.28
757.20	240.07
757.53	239.89
757.86	239.71
758.19	239.58
758.51	239.42
758.84	239.25
759.17	239.08
759.49	238.95
759.82	238.83
760.15	238.73
760.47	238.60
760.80	238.40
761.13	238.30
761.45	238.18
761.78	238.07
762.11	237.94
762.43	237.76
762.76	237.65
763.08	237.56
763.41	237.47
763.74	237.32
764.06	237.17
764.39	237.03
764.71	236.92
765.04	236.76
765.37	236.61
765.69	236.43
766.02	236.30
766.34	236.17
766.67	236.03
767.00	235.92
767.32	235.83
767.65	235.81
767.97	235.69
768.30	235.56
768.62	235.44
768.95	235.31
769.27	235.21
769.60	235.11
769.92	234.97
770.25	234.84
770.57	234.71
770.90	234.60
771.22	234.48
771.55	234.36
771.87	234.27
772.20	234.18
772.52	234.18
772.85	234.20
773.17	234.11
773.50	234.00
773.82	233.90
774.15	233.75
774.47	233.60
774.80	233.49
775.12	233.44
775.45	233.35
775.77	233.30
776.09	233.23
776.42	233.13
776.74	233.09
777.07	232.99
777.39	232.93
777.72	232.85
778.04	232.79
778.36	232.72
778.69	232.63
779.01	232.57
779.33	232.38
779.66	232.17
779.98	232.09
780.31	232.01
780.63	231.98
780.95	231.97
781.28	231.87
781.60	231.79
781.92	231.68
782.25	231.63
782.57	231.52
782.89	231.44
783.22	231.39
783.54	231.29
783.86	231.27
784.19	231.23
784.51	231.20
784.83	231.18
785.16	231.09
785.48	231.02
785.80	230.97
786.12	230.94
786.45	230.90
786.77	230.83
787.09	230.76
787.42	230.67
787.74	230.58
788.06	230.58
788.38	230.54
788.71	230.50
789.03	230.45
789.35	230.47
789.67	230.42
789.99	230.39
790.32	230.31
790.64	230.27
790.96	230.31
791.28	230.27
791.61	230.19
791.93	230.17
792.25	230.14
792.57	230.17
792.89	230.13
793.21	230.09
793.54	230.05
793.86	230.02
794.18	230.01
794.50	229.97
794.82	229.91
795.14	229.87
795.47	229.84
795.79	229.79
796.11	229.74
796.43	229.72
796.75	229.68
797.07	229.70
797.39	229.68
797.71	229.59
798.04	229.54
798.36	229.50
798.68	229.48
799.00	229.45
799.32	229.37
799.64	229.37
799.96	229.36
800.28	229.37
800.60	229.33
800.92	229.29
801.24	229.29
801.56	229.26
801.89	229.24
802.21	229.25
802.53	229.21
802.85	229.21
803.17	229.24
803.49	229.17
803.81	229.14
804.13	229.08
804.45	229.03
804.77	229.02
805.09	229.04
805.41	229.00
805.73	228.97
806.05	228.93
806.37	228.88
806.69	228.82
807.01	228.79
807.33	228.81
807.65	228.77
807.97	228.78
808.28	228.78
808.60	228.76
808.92	228.70
809.24	228.74
809.56	228.68
809.88	228.63
810.20	228.61
810.52	228.61
810.84	228.57
811.16	228.53
811.48	228.48
811.80	228.48
812.12	228.46
812.43	228.49
812.75	228.47
813.07	228.43
813.39	228.46
813.71	228.41
814.03	228.37
814.35	228.35
814.67	228.28
814.98	228.23
815.30	228.20
815.62	228.19
815.94	228.07
816.26	228.11
816.58	228.02
816.89	228.03
817.21	227.99
817.53	227.98
817.85	227.94
818.17	227.93
818.48	227.86
818.80	227.87
819.12	227.82
819.44	227.77
819.76	227.75
820.07	227.72
820.39	227.70
820.71	227.68
821.03	227.64
821.34	227.61
821.66	227.61
821.98	227.63
822.30	227.61
822.61	227.69
822.93	227.60
823.25	227.61
823.57	227.60
823.88	227.57
824.20	227.54
824.52	227.53
824.83	227.52
825.15	227.48
825.47	227.44
825.79	227.43
826.10	227.41
826.42	227.40
826.74	227.34
827.05	227.32
827.37	227.32
827.69	227.30
828.00	227.30
828.32	227.28
828.64	227.24
828.95	227.26
829.27	227.24
829.58	227.26
829.90	227.26
830.22	227.22
830.53	227.21
830.85	227.20
831.17	227.18
831.48	227.18
831.80	227.19
832.11	227.19
832.43	227.18
832.75	227.20
833.06	227.24
833.38	227.25
833.69	227.22
834.01	227.20
834.32	227.16
834.64	227.13
834.96	227.12
835.27	227.11
835.59	227.09
835.90	227.04
836.22	227.03
836.53	227.00
836.85	227.00
837.16	227.10
837.48	227.11
837.79	227.14
838.11	227.13
838.42	227.12
838.74	227.10
839.05	227.06
839.37	227.05
839.68	226.98
840.00	226.97
840.31	227.03
840.63	227.02
840.94	227.06
841.26	227.06
841.57	227.01
841.88	227.02
842.20	227.00
842.51	226.98
842.83	226.95
843.14	227.04
843.46	227.05
843.77	226.96
844.08	226.94
844.40	226.89
844.71	226.89
845.03	226.89
845.34	226.86
845.65	226.86
845.97	226.86
846.28	226.86
846.60	226.85
846.91	226.82
847.22	226.83
847.54	226.86
847.85	226.88
848.16	226.91
848.48	226.87
848.79	226.89
849.10	226.90
849.42	226.92
849.73	226.83
850.04	226.80
850.36	226.77
850.67	226.79
850.98	226.82
851.30	226.78
851.61	226.76
851.92	226.80
852.23	226.85
852.55	226.85
852.86	226.85
853.17	226.86
853.49	226.88
853.80	226.90
854.11	226.90
854.42	226.90
854.74	226.88
855.05	226.92
855.36	226.88
855.67	226.87
855.99	226.83
856.30	226.96
856.61	226.98
856.92	227.01
857.23	226.98
857.55	226.94
857.86	226.96
858.17	226.98
858.48	226.95
858.79	226.93
859.11	226.92
859.42	226.94
859.73	226.94
860.04	226.92
860.35	226.89
860.66	226.83
860.98	226.81
861.29	226.81
861.60	226.77
861.91	226.79
862.22	226.78
862.53	226.77
862.84	226.64
863.16	226.65
863.47	226.62
863.78	226.61
864.09	226.62
864.40	226.64
864.71	226.62
865.02	226.66
865.33	226.63
865.64	226.61
865.95	226.59
866.27	226.67
866.58	226.67
866.89	226.65
867.20	226.67
867.51	226.67
867.82	226.67
868.13	226.67
868.44	226.66
868.75	226.69
869.06	226.70
869.37	226.68
869.68	226.66
869.99	226.64
870.30	226.64
870.61	226.66
870.92	226.63
871.23	226.61
871.54	226.61
871.85	226.60
872.16	226.60
872.47	226.56
872.78	226.44
873.09	226.43
873.40	226.44
873.71	226.46
874.02	226.45
874.33	226.46
874.64	226.43
874.95	226.43
875.26	226.38
875.56	226.40
875.87	226.40
876.18	226.37
876.49	226.49
876.80	226.48
877.11	226.44
877.42	226.40
877.73	226.41
878.04	226.40
878.35	226.40
878.66	226.43
878.96	226.46
879.27	226.49
879.58	226.46
879.89	226.42
880.20	226.42
880.51	226.40
880.82	226.39
881.12	226.41
881.43	226.42
881.74	226.38
882.05	226.38
882.36	226.37
882.67	226.39
882.97	226.27
883.28	226.28
883.59	226.28
883.90	226.33
884.21	226.31
884.51	226.24
884.82	226.25
885.13	226.24
885.44	226.22
885.74	226.21
886.05	226.21
886.36	226.20
886.67	226.18
886.98	226.24
887.28	226.22
887.59	226.22
887.90	226.20
888.20	226.25
888.51	226.22
888.82	226.24
889.13	226.24
889.43	226.34
889.74	226.32
890.05	226.35
890.35	226.32
890.66	226.32
890.97	226.33
891.28	226.29
891.58	226.29
891.89	226.29
892.20	226.26
892.50	226.28
892.81	226.29
893.12	226.28
893.42	226.24
893.73	226.26
894.04	226.29
894.34	226.30
894.65	226.30
894.95	226.32
895.26	226.30
895.57	226.33
895.87	226.24
896.18	226.25
896.48	226.22
896.79	226.24
897.10	226.27
897.40	226.31
897.71	226.34
898.01	226.33
898.32	226.35
898.63	226.36
898.93	226.36
899.24	226.39
899.54	226.38
899.85	226.37
900.15	226.36
900.46	226.34
900.76	226.34
901.07	226.29
901.38	226.29
901.68	226.32
901.99	226.27
902.29	226.27
902.60	226.28
902.90	226.31
903.21	226.28
903.51	226.25
903.82	226.24
904.12	226.19
904.43	226.20
904.73	226.18
905.03	226.19
905.34	226.25
905.64	226.25
905.95	226.25
906.25	226.24
906.56	226.26
906.86	226.25
907.17	226.26
907.47	226.30
907.77	226.29
908.08	226.28
908.38	226.30
908.69	226.30
908.99	226.31
909.30	226.30
909.60	226.33
909.90	226.35
910.21	226.35
910.51	226.36
910.81	226.37
911.12	226.38
911.42	226.36
911.73	226.28
912.03	226.27
912.33	226.29
912.64	226.29
912.94	226.28
913.24	226.25
913.55	226.25
913.85	226.24
914.15	226.24
914.46	226.26
914.76	226.26
915.06	226.25
915.37	226.23
915.67	226.24
915.97	226.25
916.27	226.23
916.58	226.18
916.88	226.17
917.18	226.17
917.49	226.24
917.79	226.27
918.09	226.26
918.39	226.30
918.70	226.29
919.00	226.26
919.30	226.32
919.60	226.34
919.91	226.29
920.21	226.31
920.51	226.28
920.81	226.25
921.12	226.27
921.42	226.27
921.72	226.28
922.02	226.24
922.32	226.23
922.63	226.23
922.93	226.33
923.23	226.32
923.53	226.32
923.83	226.24
924.13	226.24
924.44	226.24
924.74	226.24
925.04	226.28
925.34	226.31
925.64	226.23
925.94	226.22
926.24	226.30
926.55	226.29
926.85	226.30
927.15	226.30
927.45	226.29
927.75	226.28
928.05	226.28
928.35	226.30
928.65	226.34
928.95	226.35
929.26	226.31
929.56	226.35
929.86	226.35
930.16	226.36
930.46	226.34
930.76	226.37
931.06	226.32
931.36	226.32
931.66	226.31
931.96	226.34
932.26	226.33
932.56	226.29
932.86	226.30
933.16	226.31
933.46	226.31
933.76	226.30
934.06	226.31
934.36	226.32
934.66	226.33
934.96	226.33
935.26	226.34
935.56	226.34
935.86	226.34
936.16	226.33
936.46	226.33
936.76	226.32
937.06	226.29
937.36	226.32
937.66	226.33
937.96	226.34
938.26	226.32
938.56	226.32
938.86	226.32
939.16	226.33
939.46	226.39
939.76	226.38
940.06	226.37
940.35	226.35
940.65	226.32
940.95	226.30
941.25	226.27
941.55	226.27
941.85	226.26
942.15	226.26
942.45	226.29
942.75	226.31
943.04	226.37
943.34	226.40
943.64	226.36
943.94	226.33
944.24	226.35
944.54	226.35
944.84	226.33
945.13	226.30
945.43	226.30
945.73	226.25
946.03	226.25
946.33	226.25
946.62	226.25
946.92	226.24
947.22	226.27
947.52	226.27
947.82	226.25
948.11	226.26
948.41	226.22
948.71	226.19
949.01	226.15
949.31	226.09
949.60	226.05
949.90	226.08
950.20	226.11
950.50	226.04
950.79	226.02
951.09	226.06
951.39	226.05
951.69	226.04
951.98	226.03
952.28	226.03
952.58	226.01
952.87	225.99
953.17	225.97
953.47	225.94
953.76	225.90
954.06	225.89
954.36	225.86
954.66	225.88
954.95	225.90
955.25	225.93
955.55	225.93
955.84	225.91
956.14	225.92
956.44	225.90
956.73	225.90
957.03	225.91
957.32	225.86
957.62	225.85
957.92	225.87
958.21	225.88
958.51	226.01
958.81	226.02
959.10	226.04
959.40	226.10
959.69	226.08
959.99	226.10
960.29	226.09
960.58	226.04
960.88	226.07
961.17	226.04
961.47	226.00
961.76	226.00
962.06	226.01
962.36	225.96
962.65	225.96
962.95	225.98
963.24	225.97
963.54	226.01
963.83	226.03
964.13	226.01
964.42	226.00
964.72	225.93
965.01	225.93
965.31	225.91
965.60	225.87
965.90	225.96
966.19	225.93
966.49	225.93
966.78	225.94
967.08	225.93
967.37	225.93
967.67	225.92
967.96	225.94
968.26	225.96
968.55	226.02
968.85	226.01
969.14	226.00
969.43	225.98
969.73	225.98
970.02	225.96
970.32	225.96
970.61	225.95
970.91	225.89
971.20	225.88
971.49	225.92
971.79	225.94
972.08	225.85
972.38	225.89
972.67	225.90
972.96	225.93
973.26	225.94
973.55	225.99
973.85	226.00
974.14	226.03
974.43	226.00
974.73	225.97
975.02	225.96
975.31	225.96
975.61	226.01
975.90	226.00
976.19	226.02
976.49	226.00
976.78	226.02
977.07	225.99
977.37	226.01
977.66	225.99
977.95	226.00
978.24	226.00
978.54	226.03
978.83	226.01
979.12	225.98
979.42	225.97
979.71	225.91
980.00	225.87
980.29	225.86
980.59	225.84
980.88	225.88
981.17	225.87
981.46	225.88
981.76	225.85
982.05	225.86
982.34	225.87
982.63	225.91
982.93	225.88
983.22	225.93
983.51	225.92
983.80	225.95
984.09	225.95
984.39	225.98
984.68	225.97
984.97	226.00
985.26	225.99
985.55	225.99
985.85	225.97
986.14	226.00
986.43	226.00
986.72	226.00
987.01	225.95
987.30	225.97
987.59	225.96
987.89	225.97
988.18	225.93
988.47	225.93
988.76	225.90
989.05	225.90
989.34	225.89
989.63	225.89
989.92	225.86
990.22	225.82
990.51	225.81
990.80	225.80
991.09	225.77
991.38	225.78
991.67	225.74
991.96	225.77
992.25	225.80
992.54	225.76
992.83	225.76
993.12	225.75
993.41	225.76
993.70	225.83
993.99	225.86
994.28	225.89
994.58	225.88
994.87	225.86
995.16	225.88
995.45	225.87
995.74	225.85
996.03	225.86
996.32	225.92
996.61	225.93
996.90	225.90
997.19	225.91
997.48	225.94
997.77	225.96
998.06	225.98
998.34	226.00
998.63	226.04
998.92	226.06
999.21	226.09
999.50	226.10
999.79	226.03
1000.08	226.02
1000.37	226.02
1000.66	226.03
1000.95	226.09
1001.24	226.04
1001.53	226.08
1001.82	226.05
1002.11	226.06
1002.40	226.05
1002.68	226.08
1002.97	226.17
1003.26	226.14
1003.55	226.11
1003.84	226.13
1004.13	226.14
1004.42	226.13
1004.71	226.11
1004.99	226.12
1005.28	226.15
1005.57	226.15
1005.86	226.16
1006.15	226.13
1006.44	226.12
1006.72	226.11
1007.01	226.09
1007.30	226.14
1007.59	226.12
1007.88	226.16
1008.17	226.14
1008.45	226.10
1008.74	226.05
1009.03	225.98
1009.32	225.99
1009.60	226.01
1009.89	225.99
1010.18	225.95
1010.47	225.94
1010.76	225.97
1011.04	225.94
1011.33	225.92
1011.62	225.91
1011.91	225.86
1012.19	225.88
1012.48	225.87
1012.77	225.90
1013.05	225.96
1013.34	225.95
1013.63	225.95
1013.92	225.95
1014.20	225.95
1014.49	225.93
1014.78	225.93
1015.06	225.91
1015.35	225.92
1015.64	225.92
1015.92	225.97
1016.21	225.96
1016.50	225.96
1016.78	225.94
1017.07	225.97
1017.36	225.97
1017.64	225.96
1017.93	226.01
1018.22	225.97
1018.50	226.00
1018.79	225.94
1019.08	225.89
1019.36	225.88
1019.65	225.88
1019.93	225.92
1020.22	225.94
1020.51	226.01
1020.79	226.02
1021.08	225.08
1021.36	226.16
1021.65	225.35
1021.94	226.39
1022.22	225.76
1022.51	226.05
1022.79	226.72
1023.08	226.10
1023.36	227.11
1023.65	225.71
>>>>>End Processed Spectral Data<<<<<
