SpectraSuite Data File
++++++++++++++++++++++++++++++++++++
Date: Fri Feb 01 15:30:51 EST 2013
User: group
Dark Spectrum Present: No
Reference Spectrum Present: No
Number of Sampled Component Spectra: 1
Spectrometers: USB2E7196
Integration Time (usec): 35000 (USB2E7196)
Spectra Averaged: 100 (USB2E7196)
Boxcar Smoothing: 10 (USB2E7196)
Correct for Electrical Dark: No (USB2E7196)
Strobe/Lamp Enabled: No (USB2E7196)
Correct for Detector Non-linearity: No (USB2E7196)
Correct for Stray Light: No (USB2E7196)
Number of Pixels in Processed Spectrum: 2048
>>>>>Begin Processed Spectral Data<<<<<
339.09	0.00
339.48	214.80
339.86	215.90
340.24	217.36
340.63	219.23
341.01	222.41
341.39	222.35
341.78	223.50
342.16	224.64
342.54	225.04
342.93	213.32
343.31	224.11
343.69	224.67
344.07	225.17
344.46	225.62
344.84	226.02
345.22	226.23
345.60	226.46
345.99	226.65
346.37	226.78
346.75	226.88
347.13	226.95
347.52	227.01
347.90	227.15
348.28	227.15
348.66	227.18
349.05	227.15
349.43	227.23
349.81	227.27
350.19	227.33
350.57	227.38
350.96	227.44
351.34	227.53
351.72	227.59
352.10	227.69
352.48	227.78
352.87	227.81
353.25	227.89
353.63	228.00
354.01	228.09
354.39	228.16
354.77	228.24
355.15	228.35
355.54	228.40
355.92	228.41
356.30	228.51
356.68	228.64
357.06	228.72
357.44	228.73
357.82	228.82
358.20	228.89
358.58	228.93
358.97	229.01
359.35	229.08
359.73	229.20
360.11	229.21
360.49	229.23
360.87	229.29
361.25	229.32
361.63	229.34
362.01	229.34
362.39	229.36
362.77	229.39
363.15	229.41
363.53	229.42
363.91	229.45
364.29	229.43
364.67	229.38
365.05	229.38
365.43	229.43
365.81	229.41
366.19	229.45
366.57	229.46
366.95	229.45
367.33	229.42
367.71	229.36
368.09	229.37
368.47	229.34
368.85	229.30
369.23	229.27
369.61	229.18
369.99	229.18
370.37	229.16
370.75	229.17
371.13	229.09
371.51	229.03
371.89	228.99
372.27	228.94
372.65	228.89
373.03	228.83
373.41	228.75
373.78	228.71
374.16	228.57
374.54	228.45
374.92	228.35
375.30	228.28
375.68	228.18
376.06	228.06
376.44	227.99
376.82	227.92
377.19	227.87
377.57	227.80
377.95	227.67
378.33	227.57
378.71	227.45
379.09	227.39
379.47	227.35
379.84	227.27
380.22	227.20
380.60	227.12
380.98	227.05
381.36	226.98
381.73	226.91
382.11	226.87
382.49	226.82
382.87	226.77
383.25	226.71
383.62	226.76
384.00	226.77
384.38	226.74
384.76	226.71
385.13	226.70
385.51	226.67
385.89	226.67
386.27	226.63
386.64	226.62
387.02	226.58
387.40	226.51
387.78	226.47
388.15	226.46
388.53	226.42
388.91	226.40
389.29	226.39
389.66	226.40
390.04	226.40
390.42	226.43
390.79	226.44
391.17	226.44
391.55	226.35
391.92	226.33
392.30	226.33
392.68	226.32
393.05	226.35
393.43	226.38
393.81	226.33
394.18	226.34
394.56	226.33
394.94	226.37
395.31	226.39
395.69	226.45
396.06	226.49
396.44	226.54
396.82	226.59
397.19	226.66
397.57	226.68
397.95	226.76
398.32	226.81
398.70	226.86
399.07	226.92
399.45	226.98
399.82	227.05
400.20	227.13
400.58	227.20
400.95	227.24
401.33	227.34
401.70	227.49
402.08	227.60
402.45	227.73
402.83	227.84
403.20	228.00
403.58	228.10
403.95	228.23
404.33	228.36
404.71	228.51
405.08	228.71
405.46	228.84
405.83	228.99
406.21	229.12
406.58	229.30
406.96	229.50
407.33	229.69
407.70	229.91
408.08	230.19
408.45	230.41
408.83	230.63
409.20	230.81
409.58	231.02
409.95	231.32
410.33	231.54
410.70	231.78
411.08	232.07
411.45	232.35
411.82	232.67
412.20	233.03
412.57	233.44
412.95	233.74
413.32	234.16
413.69	234.55
414.07	235.01
414.44	235.45
414.82	235.90
415.19	236.44
415.56	236.97
415.94	237.51
416.31	238.13
416.68	238.77
417.06	239.48
417.43	240.16
417.81	240.91
418.18	241.70
418.55	242.54
418.93	243.39
419.30	244.31
419.67	245.23
420.04	246.16
420.42	247.13
420.79	248.30
421.16	249.43
421.54	250.63
421.91	251.82
422.28	253.10
422.66	254.44
423.03	255.73
423.40	257.10
423.77	258.51
424.15	259.92
424.52	261.42
424.89	263.08
425.26	264.62
425.64	266.08
426.01	267.67
426.38	269.34
426.75	270.98
427.13	272.73
427.50	274.55
427.87	276.43
428.24	278.29
428.61	280.06
428.99	282.00
429.36	284.10
429.73	286.18
430.10	288.19
430.47	290.25
430.85	292.40
431.22	294.62
431.59	297.01
431.96	299.26
432.33	301.72
432.70	304.08
433.08	306.93
433.45	309.54
433.82	312.14
434.19	315.06
434.56	317.93
434.93	320.56
435.30	323.15
435.68	326.05
436.05	328.92
436.42	331.70
436.79	334.25
437.16	336.97
437.53	339.80
437.90	342.63
438.27	345.38
438.64	348.19
439.01	350.80
439.38	353.05
439.75	355.23
440.13	357.76
440.50	360.09
440.87	361.93
441.24	363.87
441.61	366.04
441.98	367.49
442.35	369.27
442.72	371.12
443.09	373.01
443.46	374.01
443.83	374.58
444.20	375.11
444.57	375.94
444.94	376.22
445.31	376.58
445.68	376.94
446.05	377.00
446.42	376.62
446.79	376.17
447.16	375.71
447.53	375.41
447.90	374.24
448.27	373.06
448.64	371.47
449.01	370.36
449.37	368.42
449.74	366.56
450.11	364.35
450.48	361.90
450.85	359.29
451.22	357.10
451.59	355.10
451.96	353.16
452.33	350.52
452.70	348.13
453.07	345.25
453.43	342.37
453.80	339.61
454.17	336.98
454.54	334.41
454.91	331.68
455.28	328.97
455.65	326.47
456.02	324.01
456.38	321.85
456.75	319.14
457.12	316.87
457.49	314.60
457.86	312.42
458.23	310.57
458.59	308.50
458.96	306.46
459.33	304.60
459.70	302.71
460.07	301.25
460.43	299.51
460.80	297.86
461.17	296.41
461.54	294.92
461.91	293.43
462.27	292.00
462.64	290.73
463.01	289.39
463.38	288.08
463.74	286.75
464.11	285.58
464.48	284.55
464.85	283.46
465.21	282.61
465.58	281.63
465.95	280.50
466.32	279.63
466.68	278.71
467.05	277.78
467.42	276.89
467.78	275.93
468.15	275.06
468.52	274.43
468.88	273.54
469.25	272.74
469.62	272.11
469.98	271.43
470.35	270.80
470.72	270.20
471.08	269.50
471.45	268.95
471.82	268.42
472.18	267.83
472.55	267.39
472.92	266.87
473.28	266.45
473.65	266.03
474.02	265.54
474.38	265.16
474.75	264.84
475.11	264.49
475.48	264.20
475.85	264.01
476.21	263.80
476.58	263.61
476.94	263.42
477.31	263.28
477.67	263.11
478.04	262.99
478.41	262.94
478.77	262.99
479.14	262.93
479.50	262.93
479.87	262.99
480.23	263.07
480.60	263.13
480.96	263.21
481.33	263.40
481.69	263.60
482.06	263.82
482.42	264.03
482.79	264.29
483.15	264.64
483.52	265.02
483.88	265.37
484.25	265.79
484.61	266.26
484.98	266.69
485.34	267.31
485.71	267.91
486.07	268.52
486.44	269.13
486.80	269.83
487.17	270.58
487.53	271.38
487.90	272.20
488.26	273.15
488.62	274.13
488.99	275.11
489.35	276.19
489.72	277.28
490.08	278.45
490.44	279.65
490.81	280.95
491.17	282.31
491.54	283.78
491.90	285.30
492.26	286.96
492.63	288.70
492.99	290.49
493.36	292.40
493.72	294.42
494.08	296.52
494.45	298.78
494.81	301.13
495.17	303.57
495.54	306.16
495.90	308.84
496.26	311.68
496.63	314.63
496.99	317.75
497.35	321.04
497.72	324.42
498.08	327.96
498.44	331.68
498.80	335.58
499.17	339.61
499.53	343.73
499.89	348.08
500.26	352.65
500.62	357.27
500.98	362.22
501.34	367.34
501.71	372.63
502.07	378.10
502.43	383.74
502.79	389.60
503.16	395.68
503.52	401.91
503.88	408.31
504.24	415.01
504.60	421.86
504.97	428.95
505.33	436.37
505.69	444.07
506.05	451.82
506.41	459.71
506.78	467.86
507.14	476.36
507.50	485.16
507.86	494.12
508.22	503.36
508.59	512.58
508.95	522.15
509.31	531.99
509.67	542.07
510.03	552.35
510.39	562.86
510.75	573.66
511.12	584.72
511.48	596.02
511.84	607.45
512.20	619.04
512.56	631.04
512.92	643.16
513.28	655.54
513.64	668.06
514.00	680.75
514.37	693.67
514.73	706.70
515.09	719.67
515.45	732.96
515.81	746.52
516.17	760.53
516.53	774.68
516.89	788.91
517.25	803.08
517.61	817.57
517.97	832.06
518.33	846.51
518.69	861.29
519.05	876.26
519.41	891.54
519.77	907.12
520.13	922.56
520.49	937.85
520.85	953.30
521.21	969.08
521.57	985.38
521.93	1001.18
522.29	1017.66
522.65	1033.97
523.01	1050.23
523.37	1066.30
523.73	1082.51
524.09	1098.59
524.45	1114.94
524.81	1131.72
525.17	1148.57
525.53	1165.58
525.89	1182.48
526.25	1199.28
526.61	1215.77
526.97	1232.52
527.33	1249.00
527.68	1265.66
528.04	1282.45
528.40	1299.09
528.76	1316.12
529.12	1332.75
529.48	1349.78
529.84	1365.91
530.20	1382.52
530.56	1399.59
530.91	1417.07
531.27	1433.83
531.63	1450.40
531.99	1467.00
532.35	1482.98
532.71	1498.86
533.07	1515.09
533.42	1530.99
533.78	1547.03
534.14	1563.40
534.50	1578.67
534.86	1594.62
535.21	1609.92
535.57	1625.89
535.93	1641.44
536.29	1656.34
536.65	1671.52
537.00	1686.36
537.36	1701.74
537.72	1716.46
538.08	1730.98
538.44	1744.79
538.79	1758.83
539.15	1772.59
539.51	1786.47
539.87	1800.79
540.22	1814.58
540.58	1828.41
540.94	1841.89
541.29	1855.01
541.65	1867.80
542.01	1881.24
542.37	1893.58
542.72	1906.06
543.08	1917.79
543.44	1930.27
543.79	1941.53
544.15	1952.53
544.51	1964.07
544.87	1974.98
545.22	1985.82
545.58	1996.01
545.94	2005.94
546.29	2015.75
546.65	2025.54
547.01	2034.69
547.36	2043.58
547.72	2052.16
548.07	2060.07
548.43	2068.32
548.79	2076.22
549.14	2083.76
549.50	2091.07
549.86	2098.90
550.21	2106.08
550.57	2113.20
550.92	2119.73
551.28	2126.87
551.64	2133.97
551.99	2140.62
552.35	2146.81
552.70	2152.79
553.06	2158.78
553.41	2165.06
553.77	2171.15
554.13	2177.26
554.48	2183.51
554.84	2188.90
555.19	2194.24
555.55	2199.30
555.90	2203.66
556.26	2208.58
556.61	2213.38
556.97	2217.51
557.32	2221.51
557.68	2225.68
558.03	2230.18
558.39	2233.93
558.74	2238.53
559.10	2242.28
559.45	2245.81
559.81	2250.14
560.16	2254.09
560.52	2257.45
560.87	2260.96
561.23	2263.49
561.58	2266.47
561.94	2269.06
562.29	2271.48
562.64	2274.07
563.00	2276.83
563.35	2280.32
563.71	2283.41
564.06	2286.52
564.42	2289.45
564.77	2291.91
565.12	2294.21
565.48	2295.88
565.83	2297.68
566.19	2298.86
566.54	2299.85
566.89	2300.93
567.25	2301.41
567.60	2302.63
567.96	2304.26
568.31	2304.89
568.66	2306.04
569.02	2306.65
569.37	2306.85
569.72	2307.54
570.08	2307.58
570.43	2307.58
570.78	2307.02
571.14	2305.52
571.49	2304.02
571.84	2303.68
572.20	2302.49
572.55	2301.45
572.90	2299.93
573.26	2298.51
573.61	2296.69
573.96	2294.73
574.31	2291.77
574.67	2288.72
575.02	2285.14
575.37	2281.57
575.72	2277.75
576.08	2274.44
576.43	2271.05
576.78	2267.29
577.13	2264.03
577.49	2260.89
577.84	2257.15
578.19	2253.37
578.54	2249.66
578.90	2245.51
579.25	2239.89
579.60	2234.76
579.95	2229.63
580.30	2224.54
580.66	2219.28
581.01	2214.29
581.36	2209.42
581.71	2205.04
582.06	2200.45
582.42	2196.00
582.77	2190.73
583.12	2185.97
583.47	2181.08
583.82	2175.81
584.17	2170.47
584.53	2165.06
584.88	2159.40
585.23	2153.55
585.58	2148.08
585.93	2142.39
586.28	2137.48
586.63	2132.28
586.98	2127.29
587.34	2122.55
587.69	2117.51
588.04	2112.18
588.39	2106.63
588.74	2100.06
589.09	2094.03
589.44	2087.32
589.79	2081.05
590.14	2075.48
590.49	2068.88
590.84	2062.44
591.19	2056.48
591.54	2049.99
591.89	2042.49
592.25	2035.49
592.60	2028.36
592.95	2020.75
593.30	2013.45
593.65	2005.68
594.00	1998.67
594.35	1991.45
594.70	1983.33
595.05	1976.08
595.40	1968.76
595.75	1961.04
596.10	1954.73
596.45	1947.83
596.80	1941.57
597.15	1934.80
597.50	1927.46
597.85	1921.16
598.19	1914.41
598.54	1907.29
598.89	1900.61
599.24	1894.59
599.59	1887.98
599.94	1881.69
600.29	1875.29
600.64	1868.64
600.99	1861.15
601.34	1854.15
601.69	1847.04
602.04	1840.09
602.39	1832.75
602.74	1825.85
603.08	1819.28
603.43	1812.53
603.78	1805.32
604.13	1798.04
604.48	1790.78
604.83	1783.94
605.18	1776.80
605.53	1768.84
605.87	1760.76
606.22	1753.65
606.57	1745.64
606.92	1738.38
607.27	1731.16
607.62	1724.06
607.96	1716.69
608.31	1710.06
608.66	1702.53
609.01	1694.95
609.36	1687.46
609.70	1679.46
610.05	1671.36
610.40	1663.44
610.75	1655.13
611.10	1647.34
611.44	1638.97
611.79	1631.08
612.14	1622.43
612.49	1613.36
612.83	1605.00
613.18	1596.96
613.53	1588.66
613.88	1580.16
614.22	1571.85
614.57	1563.11
614.92	1555.14
615.27	1547.78
615.61	1539.52
615.96	1531.51
616.31	1523.86
616.65	1516.43
617.00	1508.83
617.35	1501.30
617.70	1493.03
618.04	1484.52
618.39	1476.26
618.74	1468.63
619.08	1460.34
619.43	1452.75
619.78	1445.81
620.12	1438.65
620.47	1431.03
620.82	1422.98
621.16	1415.67
621.51	1408.04
621.85	1400.52
622.20	1392.01
622.55	1383.45
622.89	1375.67
623.24	1368.03
623.59	1360.70
623.93	1353.25
624.28	1346.06
624.62	1338.48
624.97	1331.27
625.32	1324.58
625.66	1317.65
626.01	1310.36
626.35	1302.81
626.70	1295.14
627.04	1287.43
627.39	1279.56
627.73	1272.18
628.08	1265.19
628.43	1257.87
628.77	1250.44
629.12	1242.84
629.46	1235.54
629.81	1228.26
630.15	1220.97
630.50	1213.62
630.84	1205.40
631.19	1197.36
631.53	1189.83
631.88	1182.24
632.22	1174.70
632.57	1167.34
632.91	1159.76
633.26	1152.42
633.60	1145.17
633.95	1138.06
634.29	1131.00
634.64	1124.35
634.98	1116.90
635.32	1109.82
635.67	1103.20
636.01	1096.58
636.36	1089.93
636.70	1083.52
637.05	1076.89
637.39	1070.37
637.73	1063.81
638.08	1057.96
638.42	1051.99
638.77	1045.54
639.11	1039.00
639.45	1032.63
639.80	1025.89
640.14	1019.42
640.49	1012.84
640.83	1006.46
641.17	1000.14
641.52	993.86
641.86	987.48
642.20	981.64
642.55	975.37
642.89	968.83
643.23	962.34
643.58	956.49
643.92	950.28
644.26	944.25
644.61	938.27
644.95	932.18
645.29	925.55
645.64	918.82
645.98	912.49
646.32	906.58
646.66	900.47
647.01	894.75
647.35	888.99
647.69	883.19
648.04	877.69
648.38	871.83
648.72	865.71
649.06	859.55
649.41	853.76
649.75	847.69
650.09	841.71
650.43	835.85
650.78	829.67
651.12	823.70
651.46	817.95
651.80	812.15
652.14	806.81
652.49	801.39
652.83	796.24
653.17	790.52
653.51	784.85
653.85	779.50
654.20	773.87
654.54	767.91
654.88	762.21
655.22	756.35
655.56	750.73
655.90	745.34
656.25	740.09
656.59	734.65
656.93	729.55
657.27	724.44
657.61	718.98
657.95	713.85
658.29	708.72
658.64	703.39
658.98	698.07
659.32	692.52
659.66	687.34
660.00	682.01
660.34	677.07
660.68	672.09
661.02	667.04
661.36	662.32
661.70	657.92
662.05	653.59
662.39	649.20
662.73	644.77
663.07	640.36
663.41	635.95
663.75	631.41
664.09	626.92
664.43	622.54
664.77	618.40
665.11	614.17
665.45	610.05
665.79	606.00
666.13	601.93
666.47	597.92
666.81	593.81
667.15	589.74
667.49	585.90
667.83	582.15
668.17	578.19
668.51	574.12
668.85	570.00
669.19	566.09
669.53	562.27
669.87	558.35
670.21	554.65
670.55	551.09
670.89	547.70
671.23	544.25
671.57	540.75
671.91	537.28
672.25	533.81
672.58	530.37
672.92	527.05
673.26	523.89
673.60	520.79
673.94	517.63
674.28	514.72
674.62	511.72
674.96	508.57
675.30	505.71
675.64	502.75
675.97	500.03
676.31	497.21
676.65	494.25
676.99	491.57
677.33	488.71
677.67	485.83
678.01	482.82
678.34	479.80
678.68	476.87
679.02	474.07
679.36	471.31
679.70	468.59
680.04	465.76
680.37	462.90
680.71	460.10
681.05	457.48
681.39	454.76
681.73	452.14
682.06	449.61
682.40	447.07
682.74	444.58
683.08	442.08
683.42	439.42
683.75	436.97
684.09	434.45
684.43	431.98
684.77	429.56
685.10	427.22
685.44	424.91
685.78	422.67
686.12	420.40
686.45	418.11
686.79	415.78
687.13	413.64
687.46	411.48
687.80	409.31
688.14	407.12
688.48	405.03
688.81	402.73
689.15	400.58
689.49	398.40
689.82	396.36
690.16	394.22
690.50	392.33
690.83	390.40
691.17	388.43
691.51	386.56
691.84	384.70
692.18	382.77
692.52	380.81
692.85	378.89
693.19	377.03
693.52	375.23
693.86	373.47
694.20	371.69
694.53	369.91
694.87	368.05
695.21	366.29
695.54	364.49
695.88	362.81
696.21	361.14
696.55	359.46
696.88	357.74
697.22	356.10
697.56	354.49
697.89	352.81
698.23	351.20
698.56	349.58
698.90	348.00
699.23	346.37
699.57	344.83
699.90	343.31
700.24	341.72
700.58	340.18
700.91	338.68
701.25	337.21
701.58	335.82
701.92	334.46
702.25	333.07
702.59	331.72
702.92	330.46
703.26	329.13
703.59	327.91
703.93	326.77
704.26	325.51
704.60	324.24
704.93	322.95
705.26	321.67
705.60	320.49
705.93	319.33
706.27	318.29
706.60	317.21
706.94	316.11
707.27	315.03
707.61	313.97
707.94	312.94
708.27	311.87
708.61	310.78
708.94	309.79
709.28	308.82
709.61	307.86
709.94	306.89
710.28	305.89
710.61	304.89
710.95	303.77
711.28	302.90
711.61	301.90
711.95	301.00
712.28	300.05
712.61	299.10
712.95	298.13
713.28	297.26
713.61	296.36
713.95	295.47
714.28	294.62
714.61	293.78
714.95	292.96
715.28	292.08
715.61	291.22
715.95	290.36
716.28	289.53
716.61	288.68
716.95	287.84
717.28	287.09
717.61	286.30
717.94	285.59
718.28	284.79
718.61	284.09
718.94	283.40
719.27	282.76
719.61	282.10
719.94	281.48
720.27	280.76
720.60	280.08
720.94	279.46
721.27	278.84
721.60	278.26
721.93	277.64
722.27	277.12
722.60	276.59
722.93	276.03
723.26	275.43
723.59	274.88
723.93	274.35
724.26	273.78
724.59	273.21
724.92	272.68
725.25	272.19
725.59	271.68
725.92	271.15
726.25	270.64
726.58	270.15
726.91	269.66
727.24	269.18
727.57	268.73
727.91	268.25
728.24	267.80
728.57	267.29
728.90	266.85
729.23	266.36
729.56	265.93
729.89	265.45
730.22	265.02
730.55	264.56
730.89	264.10
731.22	263.66
731.55	263.26
731.88	262.84
732.21	262.38
732.54	261.92
732.87	261.53
733.20	261.16
733.53	260.76
733.86	260.38
734.19	260.02
734.52	259.62
734.85	259.30
735.18	258.88
735.51	258.54
735.84	258.15
736.17	257.78
736.50	257.37
736.83	257.16
737.16	256.81
737.49	256.47
737.82	256.15
738.15	255.83
738.48	255.49
738.81	255.17
739.14	254.83
739.47	254.51
739.80	254.19
740.13	253.88
740.46	253.55
740.79	253.20
741.12	252.89
741.45	252.62
741.78	252.29
742.11	252.00
742.44	251.65
742.77	251.40
743.10	251.11
743.43	250.82
743.75	250.42
744.08	250.27
744.41	250.01
744.74	249.69
745.07	249.42
745.40	249.18
745.73	248.92
746.06	248.66
746.39	248.43
746.71	248.16
747.04	247.88
747.37	247.60
747.70	247.36
748.03	247.09
748.36	246.84
748.68	246.61
749.01	246.37
749.34	246.16
749.67	245.89
750.00	245.64
750.33	245.50
750.65	245.30
750.98	244.96
751.31	244.74
751.64	244.55
751.97	244.39
752.29	244.15
752.62	243.93
752.95	243.74
753.28	243.52
753.60	243.34
753.93	243.19
754.26	242.98
754.59	242.76
754.91	242.56
755.24	242.32
755.57	242.13
755.90	241.94
756.22	241.74
756.55	241.58
756.88	241.40
757.20	241.15
757.53	240.95
757.86	240.78
758.19	240.60
758.51	240.46
758.84	240.29
759.17	240.10
759.49	239.95
759.82	239.85
760.15	239.70
760.47	239.53
760.80	239.31
761.13	239.21
761.45	239.11
761.78	238.94
762.11	238.82
762.43	238.67
762.76	238.54
763.08	238.42
763.41	238.28
763.74	238.11
764.06	237.93
764.39	237.80
764.71	237.63
765.04	237.50
765.37	237.35
765.69	237.20
766.02	237.09
766.34	236.92
766.67	236.74
767.00	236.64
767.32	236.58
767.65	236.53
767.97	236.36
768.30	236.20
768.62	236.09
768.95	235.96
769.27	235.83
769.60	235.73
769.92	235.63
770.25	235.48
770.57	235.39
770.90	235.32
771.22	235.22
771.55	235.12
771.87	235.00
772.20	234.90
772.52	234.86
772.85	234.86
773.17	234.76
773.50	234.67
773.82	234.52
774.15	234.34
774.47	234.20
774.80	234.14
775.12	234.07
775.45	233.98
775.77	233.89
776.09	233.83
776.42	233.74
776.74	233.66
777.07	233.57
777.39	233.51
777.72	233.43
778.04	233.34
778.36	233.30
778.69	233.22
779.01	233.16
779.33	233.00
779.66	232.82
779.98	232.79
780.31	232.74
780.63	232.74
780.95	232.73
781.28	232.67
781.60	232.57
781.92	232.51
782.25	232.44
782.57	232.40
782.89	232.31
783.22	232.26
783.54	232.19
783.86	232.13
784.19	232.06
784.51	232.03
784.83	231.98
785.16	231.92
785.48	231.89
785.80	231.84
786.12	231.80
786.45	231.75
786.77	231.72
787.09	231.66
787.42	231.56
787.74	231.48
788.06	231.43
788.38	231.41
788.71	231.37
789.03	231.34
789.35	231.30
789.67	231.24
789.99	231.18
790.32	231.13
790.64	231.12
790.96	231.15
791.28	231.10
791.61	231.09
791.93	231.09
792.25	231.05
792.57	231.07
792.89	231.00
793.21	230.98
793.54	230.88
793.86	230.83
794.18	230.81
794.50	230.78
794.82	230.79
795.14	230.76
795.47	230.74
795.79	230.69
796.11	230.65
796.43	230.60
796.75	230.59
797.07	230.58
797.39	230.56
797.71	230.47
798.04	230.43
798.36	230.39
798.68	230.31
799.00	230.30
799.32	230.23
799.64	230.25
799.96	230.20
800.28	230.18
800.60	230.16
800.92	230.15
801.24	230.09
801.56	230.05
801.89	230.02
802.21	230.01
802.53	229.96
802.85	229.95
803.17	230.01
803.49	229.95
803.81	229.89
804.13	229.82
804.45	229.76
804.77	229.72
805.09	229.69
805.41	229.67
805.73	229.61
806.05	229.52
806.37	229.50
806.69	229.49
807.01	229.46
807.33	229.42
807.65	229.34
807.97	229.39
808.28	229.30
808.60	229.31
808.92	229.26
809.24	229.29
809.56	229.22
809.88	229.15
810.20	229.13
810.52	229.15
810.84	229.11
811.16	229.09
811.48	229.08
811.80	229.09
812.12	229.09
812.43	229.05
812.75	229.04
813.07	229.01
813.39	228.99
813.71	228.96
814.03	228.96
814.35	228.97
814.67	228.90
814.98	228.89
815.30	228.84
815.62	228.78
815.94	228.68
816.26	228.72
816.58	228.67
816.89	228.64
817.21	228.59
817.53	228.60
817.85	228.60
818.17	228.57
818.48	228.49
818.80	228.45
819.12	228.43
819.44	228.41
819.76	228.37
820.07	228.36
820.39	228.32
820.71	228.30
821.03	228.28
821.34	228.29
821.66	228.28
821.98	228.29
822.30	228.30
822.61	228.36
822.93	228.30
823.25	228.31
823.57	228.28
823.88	228.32
824.20	228.32
824.52	228.30
824.83	228.27
825.15	228.27
825.47	228.23
825.79	228.27
826.10	228.26
826.42	228.26
826.74	228.26
827.05	228.31
827.37	228.28
827.69	228.25
828.00	228.18
828.32	228.18
828.64	228.13
828.95	228.17
829.27	228.12
829.58	228.13
829.90	228.13
830.22	228.13
830.53	228.08
830.85	228.04
831.17	228.01
831.48	228.00
831.80	228.01
832.11	228.03
832.43	228.00
832.75	228.02
833.06	228.05
833.38	227.97
833.69	227.93
834.01	227.92
834.32	227.93
834.64	227.95
834.96	227.93
835.27	227.92
835.59	227.87
835.90	227.83
836.22	227.80
836.53	227.77
836.85	227.77
837.16	227.87
837.48	227.89
837.79	227.90
838.11	227.91
838.42	227.89
838.74	227.87
839.05	227.82
839.37	227.76
839.68	227.70
840.00	227.76
840.31	227.77
840.63	227.77
840.94	227.72
841.26	227.69
841.57	227.69
841.88	227.73
842.20	227.73
842.51	227.73
842.83	227.73
843.14	227.81
843.46	227.81
843.77	227.72
844.08	227.70
844.40	227.64
844.71	227.63
845.03	227.64
845.34	227.64
845.65	227.60
845.97	227.64
846.28	227.63
846.60	227.60
846.91	227.55
847.22	227.53
847.54	227.59
847.85	227.62
848.16	227.60
848.48	227.55
848.79	227.56
849.10	227.56
849.42	227.57
849.73	227.49
850.04	227.51
850.36	227.51
850.67	227.54
850.98	227.56
851.30	227.58
851.61	227.52
851.92	227.51
852.23	227.57
852.55	227.56
852.86	227.58
853.17	227.60
853.49	227.64
853.80	227.66
854.11	227.66
854.42	227.64
854.74	227.63
855.05	227.61
855.36	227.59
855.67	227.59
855.99	227.58
856.30	227.69
856.61	227.66
856.92	227.65
857.23	227.63
857.55	227.62
857.86	227.58
858.17	227.65
858.48	227.65
858.79	227.65
859.11	227.67
859.42	227.66
859.73	227.64
860.04	227.62
860.35	227.58
860.66	227.53
860.98	227.54
861.29	227.56
861.60	227.60
861.91	227.59
862.22	227.59
862.53	227.59
862.84	227.46
863.16	227.48
863.47	227.46
863.78	227.44
864.09	227.45
864.40	227.45
864.71	227.46
865.02	227.44
865.33	227.42
865.64	227.39
865.95	227.38
866.27	227.43
866.58	227.42
866.89	227.47
867.20	227.49
867.51	227.47
867.82	227.44
868.13	227.46
868.44	227.42
868.75	227.45
869.06	227.45
869.37	227.47
869.68	227.42
869.99	227.41
870.30	227.43
870.61	227.45
870.92	227.43
871.23	227.40
871.54	227.40
871.85	227.42
872.16	227.43
872.47	227.45
872.78	227.37
873.09	227.38
873.40	227.34
873.71	227.31
874.02	227.31
874.33	227.36
874.64	227.32
874.95	227.36
875.26	227.33
875.56	227.33
875.87	227.32
876.18	227.35
876.49	227.47
876.80	227.44
877.11	227.42
877.42	227.45
877.73	227.42
878.04	227.41
878.35	227.41
878.66	227.38
878.96	227.36
879.27	227.37
879.58	227.38
879.89	227.35
880.20	227.40
880.51	227.44
880.82	227.42
881.12	227.44
881.43	227.40
881.74	227.40
882.05	227.40
882.36	227.39
882.67	227.37
882.97	227.25
883.28	227.25
883.59	227.25
883.90	227.27
884.21	227.30
884.51	227.31
884.82	227.28
885.13	227.32
885.44	227.31
885.74	227.32
886.05	227.31
886.36	227.35
886.67	227.29
886.98	227.32
887.28	227.29
887.59	227.27
887.90	227.29
888.20	227.30
888.51	227.28
888.82	227.28
889.13	227.31
889.43	227.37
889.74	227.37
890.05	227.36
890.35	227.31
890.66	227.28
890.97	227.26
891.28	227.26
891.58	227.22
891.89	227.21
892.20	227.18
892.50	227.14
892.81	227.12
893.12	227.12
893.42	227.06
893.73	227.07
894.04	227.10
894.34	227.08
894.65	227.09
894.95	227.06
895.26	227.05
895.57	227.09
895.87	227.04
896.18	227.03
896.48	227.04
896.79	227.08
897.10	227.10
897.40	227.09
897.71	227.10
898.01	227.10
898.32	227.15
898.63	227.14
898.93	227.16
899.24	227.17
899.54	227.18
899.85	227.15
900.15	227.18
900.46	227.15
900.76	227.17
901.07	227.14
901.38	227.13
901.68	227.15
901.99	227.07
902.29	227.06
902.60	227.05
902.90	227.04
903.21	227.02
903.51	227.00
903.82	227.02
904.12	227.04
904.43	227.03
904.73	227.00
905.03	227.02
905.34	227.13
905.64	227.13
905.95	227.14
906.25	227.18
906.56	227.16
906.86	227.16
907.17	227.17
907.47	227.16
907.77	227.17
908.08	227.16
908.38	227.19
908.69	227.21
908.99	227.21
909.30	227.22
909.60	227.25
909.90	227.25
910.21	227.24
910.51	227.19
910.81	227.21
911.12	227.23
911.42	227.24
911.73	227.15
912.03	227.16
912.33	227.16
912.64	227.15
912.94	227.13
913.24	227.11
913.55	227.09
913.85	227.13
914.15	227.15
914.46	227.18
914.76	227.15
915.06	227.18
915.37	227.16
915.67	227.15
915.97	227.15
916.27	227.15
916.58	227.14
916.88	227.20
917.18	227.18
917.49	227.24
917.79	227.23
918.09	227.21
918.39	227.24
918.70	227.25
919.00	227.25
919.30	227.26
919.60	227.29
919.91	227.30
920.21	227.29
920.51	227.28
920.81	227.24
921.12	227.25
921.42	227.21
921.72	227.22
922.02	227.19
922.32	227.17
922.63	227.17
922.93	227.20
923.23	227.19
923.53	227.21
923.83	227.10
924.13	227.11
924.44	227.12
924.74	227.10
925.04	227.11
925.34	227.11
925.64	227.11
925.94	227.09
926.24	227.09
926.55	227.06
926.85	227.07
927.15	227.08
927.45	227.09
927.75	227.08
928.05	227.12
928.35	227.13
928.65	227.17
928.95	227.17
929.26	227.16
929.56	227.15
929.86	227.14
930.16	227.16
930.46	227.13
930.76	227.10
931.06	227.06
931.36	227.04
931.66	227.05
931.96	227.02
932.26	227.04
932.56	227.01
932.86	227.02
933.16	227.02
933.46	227.00
933.76	226.97
934.06	226.98
934.36	226.98
934.66	226.95
934.96	226.89
935.26	226.87
935.56	226.84
935.86	226.80
936.16	226.78
936.46	226.73
936.76	226.73
937.06	226.72
937.36	226.73
937.66	226.74
937.96	226.72
938.26	226.70
938.56	226.67
938.86	226.69
939.16	226.69
939.46	226.67
939.76	226.66
940.06	226.67
940.35	226.67
940.65	226.63
940.95	226.63
941.25	226.64
941.55	226.68
941.85	226.68
942.15	226.71
942.45	226.73
942.75	226.77
943.04	226.78
943.34	226.82
943.64	226.83
943.94	226.76
944.24	226.78
944.54	226.81
944.84	226.82
945.13	226.83
945.43	226.82
945.73	226.84
946.03	226.84
946.33	226.84
946.62	226.84
946.92	226.83
947.22	226.86
947.52	226.86
947.82	226.87
948.11	226.89
948.41	226.91
948.71	226.92
949.01	226.95
949.31	226.97
949.60	226.97
949.90	226.97
950.20	227.02
950.50	227.00
950.79	226.99
951.09	227.03
951.39	227.03
951.69	227.03
951.98	227.05
952.28	227.10
952.58	227.11
952.87	227.12
953.17	227.16
953.47	227.16
953.76	227.17
954.06	227.15
954.36	227.17
954.66	227.15
954.95	227.18
955.25	227.18
955.55	227.19
955.84	227.18
956.14	227.21
956.44	227.23
956.73	227.21
957.03	227.23
957.32	227.25
957.62	227.22
957.92	227.24
958.21	227.22
958.51	227.31
958.81	227.32
959.10	227.33
959.40	227.36
959.69	227.37
959.99	227.40
960.29	227.40
960.58	227.36
960.88	227.38
961.17	227.38
961.47	227.36
961.76	227.34
962.06	227.37
962.36	227.36
962.65	227.34
962.95	227.36
963.24	227.34
963.54	227.31
963.83	227.32
964.13	227.31
964.42	227.30
964.72	227.22
965.01	227.20
965.31	227.17
965.60	227.13
965.90	227.18
966.19	227.15
966.49	227.13
966.78	227.11
967.08	227.11
967.37	227.07
967.67	227.08
967.96	227.07
968.26	227.06
968.55	227.05
968.85	227.02
969.14	227.01
969.43	227.02
969.73	227.00
970.02	226.98
970.32	226.97
970.61	226.94
970.91	226.90
971.20	226.89
971.49	226.87
971.79	226.86
972.08	226.77
972.38	226.77
972.67	226.77
972.96	226.78
973.26	226.76
973.55	226.79
973.85	226.76
974.14	226.73
974.43	226.71
974.73	226.67
975.02	226.63
975.31	226.63
975.61	226.62
975.90	226.61
976.19	226.61
976.49	226.61
976.78	226.62
977.07	226.61
977.37	226.60
977.66	226.62
977.95	226.60
978.24	226.62
978.54	226.63
978.83	226.60
979.12	226.60
979.42	226.62
979.71	226.57
980.00	226.55
980.29	226.58
980.59	226.58
980.88	226.59
981.17	226.64
981.46	226.63
981.76	226.63
982.05	226.67
982.34	226.69
982.63	226.67
982.93	226.67
983.22	226.71
983.51	226.73
983.80	226.73
984.09	226.75
984.39	226.75
984.68	226.77
984.97	226.81
985.26	226.83
985.55	226.82
985.85	226.86
986.14	226.89
986.43	226.88
986.72	226.90
987.01	226.91
987.30	226.90
987.59	226.91
987.89	226.94
988.18	226.90
988.47	226.91
988.76	226.95
989.05	226.95
989.34	226.93
989.63	226.96
989.92	226.94
990.22	226.95
990.51	226.94
990.80	226.93
991.09	226.96
991.38	226.97
991.67	226.99
991.96	226.96
992.25	226.99
992.54	227.01
992.83	227.04
993.12	227.05
993.41	227.07
993.70	227.10
993.99	227.10
994.28	227.15
994.58	227.17
994.87	227.15
995.16	227.18
995.45	227.16
995.74	227.10
996.03	227.13
996.32	227.12
996.61	227.14
996.90	227.10
997.19	227.07
997.48	227.06
997.77	227.01
998.06	227.05
998.34	227.01
998.63	227.00
998.92	227.00
999.21	226.97
999.50	226.98
999.79	226.94
1000.08	226.93
1000.37	226.91
1000.66	226.85
1000.95	226.89
1001.24	226.87
1001.53	226.90
1001.82	226.92
1002.11	226.88
1002.40	226.90
1002.68	226.91
1002.97	226.99
1003.26	226.98
1003.55	226.93
1003.84	226.95
1004.13	226.96
1004.42	226.97
1004.71	226.96
1004.99	226.89
1005.28	226.95
1005.57	226.90
1005.86	226.89
1006.15	226.88
1006.44	226.88
1006.72	226.91
1007.01	226.87
1007.30	226.86
1007.59	226.83
1007.88	226.82
1008.17	226.84
1008.45	226.80
1008.74	226.75
1009.03	226.70
1009.32	226.71
1009.60	226.74
1009.89	226.73
1010.18	226.65
1010.47	226.61
1010.76	226.58
1011.04	226.58
1011.33	226.56
1011.62	226.58
1011.91	226.59
1012.19	226.60
1012.48	226.59
1012.77	226.58
1013.05	226.61
1013.34	226.63
1013.63	226.66
1013.92	226.68
1014.20	226.69
1014.49	226.72
1014.78	226.73
1015.06	226.70
1015.35	226.69
1015.64	226.70
1015.92	226.70
1016.21	226.74
1016.50	226.76
1016.78	226.77
1017.07	226.81
1017.36	226.79
1017.64	226.79
1017.93	226.78
1018.22	226.77
1018.50	226.79
1018.79	226.75
1019.08	226.71
1019.36	226.71
1019.65	226.66
1019.93	226.67
1020.22	226.66
1020.51	226.70
1020.79	226.71
1021.08	226.46
1021.36	227.08
1021.65	226.06
1021.94	226.59
1022.22	226.94
1022.51	226.37
1022.79	226.92
1023.08	226.73
1023.36	228.00
1023.65	226.63
>>>>>End Processed Spectral Data<<<<<
