SpectraSuite Data File
++++++++++++++++++++++++++++++++++++
Date: Fri Feb 01 14:54:51 EST 2013
User: group
Dark Spectrum Present: No
Reference Spectrum Present: No
Number of Sampled Component Spectra: 1
Spectrometers: USB2E7196
Integration Time (usec): 35000 (USB2E7196)
Spectra Averaged: 100 (USB2E7196)
Boxcar Smoothing: 10 (USB2E7196)
Correct for Electrical Dark: No (USB2E7196)
Strobe/Lamp Enabled: No (USB2E7196)
Correct for Detector Non-linearity: No (USB2E7196)
Correct for Stray Light: No (USB2E7196)
Number of Pixels in Processed Spectrum: 2048
>>>>>Begin Processed Spectral Data<<<<<
339.09	0.00
339.48	216.57
339.86	217.00
340.24	218.14
340.63	219.97
341.01	223.09
341.39	222.59
341.78	224.37
342.16	224.79
342.54	225.10
342.93	213.91
343.31	224.71
343.69	225.20
344.07	225.67
344.46	226.09
344.84	226.46
345.22	226.64
345.60	226.88
345.99	227.04
346.37	227.17
346.75	227.28
347.13	227.35
347.52	227.44
347.90	227.51
348.28	227.52
348.66	227.59
349.05	227.58
349.43	227.66
349.81	227.73
350.19	227.78
350.57	227.84
350.96	227.93
351.34	228.02
351.72	228.10
352.10	228.17
352.48	228.26
352.87	228.32
353.25	228.41
353.63	228.44
354.01	228.50
354.39	228.60
354.77	228.67
355.15	228.77
355.54	228.80
355.92	228.81
356.30	228.88
356.68	228.99
357.06	229.09
357.44	229.13
357.82	229.14
358.20	229.20
358.58	229.23
358.97	229.25
359.35	229.34
359.73	229.42
360.11	229.46
360.49	229.49
360.87	229.52
361.25	229.57
361.63	229.66
362.01	229.68
362.39	229.67
362.77	229.68
363.15	229.68
363.53	229.69
363.91	229.72
364.29	229.71
364.67	229.61
365.05	229.60
365.43	229.58
365.81	229.56
366.19	229.59
366.57	229.67
366.95	229.68
367.33	229.63
367.71	229.59
368.09	229.59
368.47	229.59
368.85	229.57
369.23	229.56
369.61	229.48
369.99	229.50
370.37	229.43
370.75	229.45
371.13	229.39
371.51	229.31
371.89	229.28
372.27	229.26
372.65	229.20
373.03	229.15
373.41	229.10
373.78	229.06
374.16	228.96
374.54	228.84
374.92	228.75
375.30	228.68
375.68	228.57
376.06	228.52
376.44	228.44
376.82	228.35
377.19	228.28
377.57	228.22
377.95	228.08
378.33	228.00
378.71	227.89
379.09	227.81
379.47	227.76
379.84	227.66
380.22	227.57
380.60	227.48
380.98	227.40
381.36	227.31
381.73	227.24
382.11	227.17
382.49	227.09
382.87	227.00
383.25	226.94
383.62	226.99
384.00	226.88
384.38	226.80
384.76	226.77
385.13	226.76
385.51	226.69
385.89	226.63
386.27	226.64
386.64	226.57
387.02	226.53
387.40	226.49
387.78	226.46
388.15	226.41
388.53	226.38
388.91	226.34
389.29	226.32
389.66	226.30
390.04	226.27
390.42	226.27
390.79	226.25
391.17	226.22
391.55	226.10
391.92	226.11
392.30	226.14
392.68	226.10
393.05	226.08
393.43	226.07
393.81	226.12
394.18	226.10
394.56	226.13
394.94	226.19
395.31	226.20
395.69	226.26
396.06	226.33
396.44	226.39
396.82	226.43
397.19	226.55
397.57	226.59
397.95	226.65
398.32	226.70
398.70	226.78
399.07	226.86
399.45	226.94
399.82	227.01
400.20	227.06
400.58	227.16
400.95	227.23
401.33	227.36
401.70	227.53
402.08	227.65
402.45	227.73
402.83	227.88
403.20	228.03
403.58	228.09
403.95	228.22
404.33	228.37
404.71	228.50
405.08	228.67
405.46	228.84
405.83	229.04
406.21	229.16
406.58	229.34
406.96	229.54
407.33	229.75
407.70	229.97
408.08	230.26
408.45	230.50
408.83	230.76
409.20	231.00
409.58	231.19
409.95	231.47
410.33	231.79
410.70	232.03
411.08	232.34
411.45	232.72
411.82	233.04
412.20	233.37
412.57	233.80
412.95	234.09
413.32	234.49
413.69	234.90
414.07	235.37
414.44	235.85
414.82	236.35
415.19	236.92
415.56	237.47
415.94	237.97
416.31	238.62
416.68	239.24
417.06	239.93
417.43	240.59
417.81	241.30
418.18	242.09
418.55	242.88
418.93	243.72
419.30	244.59
419.67	245.50
420.04	246.45
420.42	247.44
420.79	248.58
421.16	249.72
421.54	250.90
421.91	252.11
422.28	253.35
422.66	254.65
423.03	255.93
423.40	257.22
423.77	258.68
424.15	260.07
424.52	261.53
424.89	263.14
425.26	264.70
425.64	266.18
426.01	267.71
426.38	269.39
426.75	271.06
427.13	272.77
427.50	274.59
427.87	276.46
428.24	278.31
428.61	280.08
428.99	282.01
429.36	284.10
429.73	286.17
430.10	288.17
430.47	290.22
430.85	292.35
431.22	294.58
431.59	296.95
431.96	299.24
432.33	301.76
432.70	304.14
433.08	306.97
433.45	309.61
433.82	312.25
434.19	315.16
434.56	317.96
434.93	320.66
435.30	323.29
435.68	326.18
436.05	329.02
436.42	331.80
436.79	334.35
437.16	337.08
437.53	339.92
437.90	342.78
438.27	345.53
438.64	348.38
439.01	351.01
439.38	353.26
439.75	355.40
440.13	357.87
440.50	360.19
440.87	362.02
441.24	363.95
441.61	366.10
441.98	367.63
442.35	369.42
442.72	371.25
443.09	373.06
443.46	374.04
443.83	374.60
444.20	375.16
444.57	376.02
444.94	376.28
445.31	376.61
445.68	376.90
446.05	376.98
446.42	376.56
446.79	376.13
447.16	375.68
447.53	375.35
447.90	374.19
448.27	373.01
448.64	371.45
449.01	370.34
449.37	368.40
449.74	366.46
450.11	364.23
450.48	361.77
450.85	359.22
451.22	357.14
451.59	355.20
451.96	353.23
452.33	350.65
452.70	348.32
453.07	345.50
453.43	342.63
453.80	339.88
454.17	337.24
454.54	334.70
454.91	331.94
455.28	329.30
455.65	326.81
456.02	324.40
456.38	322.22
456.75	319.54
457.12	317.28
457.49	315.06
457.86	312.91
458.23	311.04
458.59	309.03
458.96	306.91
459.33	305.01
459.70	303.14
460.07	301.61
460.43	299.85
460.80	298.20
461.17	296.80
461.54	295.25
461.91	293.81
462.27	292.34
462.64	291.08
463.01	289.71
463.38	288.45
463.74	287.10
464.11	285.92
464.48	284.90
464.85	283.76
465.21	282.90
465.58	281.94
465.95	280.82
466.32	279.90
466.68	278.99
467.05	278.08
467.42	277.20
467.78	276.24
468.15	275.37
468.52	274.72
468.88	273.81
469.25	273.10
469.62	272.40
469.98	271.69
470.35	271.09
470.72	270.47
471.08	269.73
471.45	269.15
471.82	268.62
472.18	267.99
472.55	267.53
472.92	266.99
473.28	266.52
473.65	266.06
474.02	265.59
474.38	265.22
474.75	264.87
475.11	264.50
475.48	264.23
475.85	263.99
476.21	263.73
476.58	263.57
476.94	263.40
477.31	263.26
477.67	263.14
478.04	262.99
478.41	262.90
478.77	262.96
479.14	262.88
479.50	262.86
479.87	262.94
480.23	263.03
480.60	263.10
480.96	263.19
481.33	263.40
481.69	263.59
482.06	263.77
482.42	264.00
482.79	264.21
483.15	264.49
483.52	264.87
483.88	265.21
484.25	265.56
484.61	265.95
484.98	266.41
485.34	266.96
485.71	267.55
486.07	268.14
486.44	268.70
486.80	269.43
487.17	270.18
487.53	270.94
487.90	271.74
488.26	272.67
488.62	273.62
488.99	274.56
489.35	275.56
489.72	276.67
490.08	277.84
490.44	279.09
490.81	280.40
491.17	281.72
491.54	283.16
491.90	284.72
492.26	286.33
492.63	288.04
492.99	289.79
493.36	291.66
493.72	293.68
494.08	295.78
494.45	297.99
494.81	300.33
495.17	302.76
495.54	305.31
495.90	307.96
496.26	310.76
496.63	313.72
496.99	316.83
497.35	320.06
497.72	323.43
498.08	326.89
498.44	330.58
498.80	334.47
499.17	338.48
499.53	342.52
499.89	346.89
500.26	351.36
500.62	356.03
500.98	360.96
501.34	366.06
501.71	371.37
502.07	376.78
502.43	382.33
502.79	388.16
503.16	394.21
503.52	400.46
503.88	406.84
504.24	413.41
504.60	420.27
504.97	427.41
505.33	434.72
505.69	442.42
506.05	450.10
506.41	457.98
506.78	466.14
507.14	474.56
507.50	483.24
507.86	492.22
508.22	501.31
508.59	510.51
508.95	520.04
509.31	529.80
509.67	539.81
510.03	550.07
510.39	560.63
510.75	571.44
511.12	582.35
511.48	593.60
511.84	604.99
512.20	616.51
512.56	628.40
512.92	640.61
513.28	652.92
513.64	665.50
514.00	678.12
514.37	691.04
514.73	704.17
515.09	717.19
515.45	730.51
515.81	744.17
516.17	758.19
516.53	772.28
516.89	786.44
517.25	800.59
517.61	815.04
517.97	829.39
518.33	843.83
518.69	858.63
519.05	873.67
519.41	888.98
519.77	904.55
520.13	920.01
520.49	935.38
520.85	950.85
521.21	966.56
521.57	982.91
521.93	998.75
522.29	1015.12
522.65	1031.45
523.01	1047.76
523.37	1063.90
523.73	1080.07
524.09	1096.18
524.45	1112.56
524.81	1129.35
525.17	1146.23
525.53	1163.26
525.89	1180.14
526.25	1197.05
526.61	1213.54
526.97	1230.27
527.33	1246.85
527.68	1263.62
528.04	1280.31
528.40	1297.01
528.76	1314.15
529.12	1330.78
529.48	1347.66
529.84	1363.77
530.20	1380.51
530.56	1397.56
530.91	1415.05
531.27	1431.98
531.63	1448.55
531.99	1465.21
532.35	1481.17
532.71	1497.16
533.07	1513.51
533.42	1529.55
533.78	1545.65
534.14	1561.92
534.50	1577.36
534.86	1593.21
535.21	1608.35
535.57	1624.23
535.93	1639.70
536.29	1654.61
536.65	1669.74
537.00	1684.70
537.36	1700.22
537.72	1714.88
538.08	1729.38
538.44	1743.18
538.79	1757.12
539.15	1770.99
539.51	1784.78
539.87	1799.30
540.22	1813.14
540.58	1827.06
540.94	1840.52
541.29	1853.48
541.65	1866.36
542.01	1879.73
542.37	1892.14
542.72	1904.90
543.08	1916.76
543.44	1929.39
543.79	1940.59
544.15	1951.60
544.51	1963.15
544.87	1974.12
545.22	1984.81
545.58	1995.09
545.94	2004.84
546.29	2014.60
546.65	2024.46
547.01	2033.67
547.36	2042.44
547.72	2050.84
548.07	2058.60
548.43	2066.76
548.79	2074.96
549.14	2082.37
549.50	2089.68
549.86	2097.35
550.21	2104.48
550.57	2111.43
550.92	2117.89
551.28	2125.03
551.64	2132.20
551.99	2138.85
552.35	2144.91
552.70	2151.03
553.06	2156.94
553.41	2163.31
553.77	2169.48
554.13	2175.56
554.48	2181.68
554.84	2186.94
555.19	2192.28
555.55	2197.34
555.90	2201.73
556.26	2206.41
556.61	2211.17
556.97	2215.31
557.32	2219.43
557.68	2223.49
558.03	2227.90
558.39	2231.66
558.74	2236.13
559.10	2239.87
559.45	2243.28
559.81	2247.61
560.16	2251.40
560.52	2254.46
560.87	2257.84
561.23	2260.26
561.58	2263.10
561.94	2265.48
562.29	2267.87
562.64	2270.56
563.00	2273.21
563.35	2276.77
563.71	2279.72
564.06	2282.72
564.42	2285.56
564.77	2288.02
565.12	2290.03
565.48	2291.69
565.83	2293.30
566.19	2294.30
566.54	2295.22
566.89	2296.23
567.25	2296.63
567.60	2297.87
567.96	2299.49
568.31	2300.14
568.66	2300.95
569.02	2301.23
569.37	2301.52
569.72	2302.18
570.08	2301.98
570.43	2301.67
570.78	2300.64
571.14	2298.87
571.49	2297.40
571.84	2296.93
572.20	2295.41
572.55	2294.45
572.90	2292.74
573.26	2291.04
573.61	2289.29
573.96	2287.20
574.31	2284.01
574.67	2280.69
575.02	2276.80
575.37	2273.17
575.72	2269.23
576.08	2265.97
576.43	2262.50
576.78	2258.63
577.13	2255.35
577.49	2252.11
577.84	2248.58
578.19	2244.70
578.54	2240.97
578.90	2236.59
579.25	2230.83
579.60	2225.69
579.95	2220.40
580.30	2215.27
580.66	2210.05
581.01	2204.97
581.36	2199.85
581.71	2195.52
582.06	2190.98
582.42	2186.50
582.77	2181.16
583.12	2176.31
583.47	2171.34
583.82	2166.10
584.17	2160.65
584.53	2155.05
584.88	2149.12
585.23	2143.07
585.58	2137.51
585.93	2131.91
586.28	2126.99
586.63	2121.78
586.98	2116.66
587.34	2111.84
587.69	2106.78
588.04	2101.31
588.39	2095.41
588.74	2088.83
589.09	2082.38
589.44	2075.40
589.79	2069.06
590.14	2063.21
590.49	2056.50
590.84	2050.03
591.19	2044.07
591.54	2037.46
591.89	2029.77
592.25	2022.96
592.60	2015.78
592.95	2008.12
593.30	2000.63
593.65	1992.91
594.00	1985.71
594.35	1978.25
594.70	1969.99
595.05	1962.68
595.40	1955.60
595.75	1947.98
596.10	1941.61
596.45	1934.87
596.80	1928.56
597.15	1921.90
597.50	1914.67
597.85	1908.31
598.19	1901.49
598.54	1894.16
598.89	1887.53
599.24	1881.67
599.59	1874.93
599.94	1868.51
600.29	1862.16
600.64	1855.65
600.99	1848.16
601.34	1841.30
601.69	1834.38
602.04	1827.47
602.39	1820.05
602.74	1813.02
603.08	1806.32
603.43	1799.64
603.78	1792.42
604.13	1785.26
604.48	1777.96
604.83	1771.13
605.18	1763.96
605.53	1755.94
605.87	1747.95
606.22	1740.70
606.57	1732.91
606.92	1725.59
607.27	1718.44
607.62	1711.39
607.96	1703.96
608.31	1697.32
608.66	1689.59
609.01	1682.02
609.36	1674.52
609.70	1666.61
610.05	1658.51
610.40	1650.92
610.75	1642.66
611.10	1635.03
611.44	1626.84
611.79	1618.84
612.14	1610.27
612.49	1601.35
612.83	1593.14
613.18	1585.13
613.53	1577.09
613.88	1568.51
614.22	1560.27
614.57	1551.71
614.92	1543.87
615.27	1536.39
615.61	1528.14
615.96	1520.30
616.31	1512.79
616.65	1505.53
617.00	1498.07
617.35	1490.52
617.70	1482.13
618.04	1473.51
618.39	1465.42
618.74	1457.77
619.08	1449.58
619.43	1442.18
619.78	1435.20
620.12	1428.14
620.47	1420.58
620.82	1412.48
621.16	1405.05
621.51	1397.53
621.85	1390.04
622.20	1381.58
622.55	1373.35
622.89	1365.60
623.24	1358.18
623.59	1350.99
623.93	1343.48
624.28	1336.27
624.62	1328.79
624.97	1321.74
625.32	1315.29
625.66	1308.26
626.01	1301.18
626.35	1293.76
626.70	1285.94
627.04	1278.33
627.39	1270.59
627.73	1263.28
628.08	1256.40
628.43	1249.19
628.77	1241.86
629.12	1234.42
629.46	1227.23
629.81	1219.90
630.15	1212.73
630.50	1205.30
630.84	1197.04
631.19	1189.18
631.53	1181.75
631.88	1174.29
632.22	1166.72
632.57	1159.43
632.91	1151.90
633.26	1144.50
633.60	1137.29
633.95	1130.37
634.29	1123.41
634.64	1116.75
634.98	1109.50
635.32	1102.43
635.67	1095.95
636.01	1089.44
636.36	1082.70
636.70	1076.35
637.05	1069.81
637.39	1063.47
637.73	1057.03
638.08	1051.28
638.42	1045.37
638.77	1039.00
639.11	1032.45
639.45	1026.29
639.80	1019.60
640.14	1013.34
640.49	1006.92
640.83	1000.63
641.17	994.37
641.52	988.07
641.86	981.75
642.20	976.05
642.55	969.93
642.89	963.46
643.23	956.95
643.58	951.15
643.92	944.98
644.26	938.97
644.61	932.91
644.95	926.81
645.29	920.20
645.64	913.49
645.98	907.16
646.32	901.38
646.66	895.23
647.01	889.50
647.35	883.82
647.69	877.93
648.04	872.51
648.38	866.84
648.72	860.79
649.06	854.68
649.41	848.77
649.75	842.72
650.09	836.75
650.43	830.88
650.78	824.81
651.12	818.85
651.46	813.18
651.80	807.47
652.14	802.21
652.49	796.82
652.83	791.69
653.17	786.04
653.51	780.32
653.85	774.99
654.20	769.37
654.54	763.41
654.88	757.77
655.22	751.88
655.56	746.26
655.90	740.93
656.25	735.69
656.59	730.42
656.93	725.39
657.27	720.33
657.61	715.01
657.95	709.97
658.29	704.95
658.64	699.73
658.98	694.52
659.32	689.07
659.66	683.92
660.00	678.71
660.34	673.84
660.68	668.94
661.02	663.98
661.36	659.34
661.70	654.85
662.05	650.53
662.39	646.19
662.73	641.72
663.07	637.39
663.41	633.06
663.75	628.60
664.09	624.05
664.43	619.70
664.77	615.62
665.11	611.39
665.45	607.27
665.79	603.21
666.13	599.10
666.47	595.07
666.81	591.01
667.15	586.89
667.49	583.02
667.83	579.33
668.17	575.44
668.51	571.40
668.85	567.43
669.19	563.63
669.53	559.85
669.87	555.97
670.21	552.28
670.55	548.65
670.89	545.19
671.23	541.83
671.57	538.36
671.91	534.83
672.25	531.34
672.58	527.89
672.92	524.63
673.26	521.53
673.60	518.39
673.94	515.26
674.28	512.38
674.62	509.49
674.96	506.40
675.30	503.48
675.64	500.61
675.97	497.90
676.31	495.06
676.65	492.18
676.99	489.51
677.33	486.67
677.67	483.89
678.01	480.91
678.34	477.97
678.68	475.10
679.02	472.38
679.36	469.71
679.70	467.02
680.04	464.23
680.37	461.32
680.71	458.60
681.05	456.04
681.39	453.35
681.73	450.72
682.06	448.23
682.40	445.74
682.74	443.24
683.08	440.71
683.42	438.14
683.75	435.66
684.09	433.20
684.43	430.81
684.77	428.36
685.10	426.03
685.44	423.77
685.78	421.53
686.12	419.31
686.45	417.05
686.79	414.76
687.13	412.63
687.46	410.52
687.80	408.38
688.14	406.24
688.48	404.24
688.81	402.03
689.15	399.87
689.49	397.77
689.82	395.70
690.16	393.64
690.50	391.70
690.83	389.74
691.17	387.77
691.51	385.83
691.84	384.02
692.18	382.05
692.52	380.13
692.85	378.23
693.19	376.37
693.52	374.59
693.86	372.80
694.20	371.02
694.53	369.23
694.87	367.39
695.21	365.55
695.54	363.73
695.88	362.02
696.21	360.30
696.55	358.63
696.88	356.96
697.22	355.33
697.56	353.74
697.89	352.13
698.23	350.53
698.56	348.97
698.90	347.42
699.23	345.83
699.57	344.21
699.90	342.73
700.24	341.19
700.58	339.59
700.91	338.10
701.25	336.62
701.58	335.27
701.92	333.92
702.25	332.58
702.59	331.21
702.92	329.90
703.26	328.63
703.59	327.38
703.93	326.18
704.26	324.98
704.60	323.67
704.93	322.37
705.26	321.11
705.60	319.92
705.93	318.76
706.27	317.75
706.60	316.75
706.94	315.64
707.27	314.49
707.61	313.47
707.94	312.44
708.27	311.37
708.61	310.32
708.94	309.35
709.28	308.39
709.61	307.45
709.94	306.49
710.28	305.46
710.61	304.51
710.95	303.46
711.28	302.50
711.61	301.58
711.95	300.74
712.28	299.83
712.61	298.86
712.95	297.90
713.28	297.04
713.61	296.13
713.95	295.23
714.28	294.42
714.61	293.54
714.95	292.71
715.28	291.86
715.61	291.01
715.95	290.14
716.28	289.26
716.61	288.45
716.95	287.68
717.28	286.95
717.61	286.16
717.94	285.44
718.28	284.67
718.61	283.96
718.94	283.28
719.27	282.60
719.61	281.98
719.94	281.35
720.27	280.68
720.60	280.05
720.94	279.47
721.27	278.88
721.60	278.32
721.93	277.76
722.27	277.23
722.60	276.69
722.93	276.18
723.26	275.71
723.59	275.14
723.93	274.56
724.26	274.02
724.59	273.46
724.92	272.98
725.25	272.47
725.59	271.97
725.92	271.46
726.25	270.97
726.58	270.47
726.91	269.97
727.24	269.48
727.57	269.01
727.91	268.48
728.24	268.02
728.57	267.57
728.90	267.16
729.23	266.66
729.56	266.22
729.89	265.72
730.22	265.24
730.55	264.79
730.89	264.35
731.22	263.92
731.55	263.49
731.88	263.02
732.21	262.60
732.54	262.14
732.87	261.69
733.20	261.30
733.53	260.95
733.86	260.57
734.19	260.18
734.52	259.80
734.85	259.49
735.18	259.08
735.51	258.71
735.84	258.29
736.17	257.96
736.50	257.51
736.83	257.29
737.16	256.91
737.49	256.58
737.82	256.26
738.15	255.96
738.48	255.67
738.81	255.33
739.14	255.02
739.47	254.70
739.80	254.40
740.13	254.11
740.46	253.79
740.79	253.47
741.12	253.17
741.45	252.83
741.78	252.50
742.11	252.21
742.44	251.84
742.77	251.53
743.10	251.22
743.43	250.95
743.75	250.57
744.08	250.43
744.41	250.14
744.74	249.82
745.07	249.50
745.40	249.21
745.73	248.94
746.06	248.64
746.39	248.37
746.71	248.09
747.04	247.78
747.37	247.46
747.70	247.21
748.03	246.90
748.36	246.67
748.68	246.38
749.01	246.13
749.34	245.93
749.67	245.70
750.00	245.47
750.33	245.28
750.65	245.06
750.98	244.72
751.31	244.52
751.64	244.33
751.97	244.19
752.29	243.96
752.62	243.76
752.95	243.56
753.28	243.34
753.60	243.15
753.93	242.96
754.26	242.78
754.59	242.52
754.91	242.34
755.24	242.18
755.57	242.04
755.90	241.85
756.22	241.66
756.55	241.49
756.88	241.32
757.20	241.13
757.53	240.95
757.86	240.79
758.19	240.62
758.51	240.49
758.84	240.27
759.17	240.14
759.49	239.98
759.82	239.85
760.15	239.77
760.47	239.62
760.80	239.47
761.13	239.39
761.45	239.28
761.78	239.17
762.11	239.00
762.43	238.87
762.76	238.73
763.08	238.59
763.41	238.49
763.74	238.35
764.06	238.21
764.39	238.06
764.71	237.95
765.04	237.80
765.37	237.63
765.69	237.52
766.02	237.39
766.34	237.26
766.67	237.13
767.00	237.02
767.32	236.93
767.65	236.89
767.97	236.76
768.30	236.68
768.62	236.56
768.95	236.48
769.27	236.36
769.60	236.30
769.92	236.21
770.25	236.06
770.57	235.97
770.90	235.87
771.22	235.79
771.55	235.69
771.87	235.64
772.20	235.58
772.52	235.55
772.85	235.56
773.17	235.49
773.50	235.38
773.82	235.31
774.15	235.21
774.47	235.07
774.80	234.96
775.12	234.87
775.45	234.79
775.77	234.70
776.09	234.63
776.42	234.55
776.74	234.52
777.07	234.44
777.39	234.39
777.72	234.33
778.04	234.25
778.36	234.16
778.69	234.07
779.01	233.97
779.33	233.82
779.66	233.66
779.98	233.55
780.31	233.49
780.63	233.42
780.95	233.36
781.28	233.27
781.60	233.20
781.92	233.14
782.25	233.06
782.57	232.97
782.89	232.93
783.22	232.84
783.54	232.74
783.86	232.68
784.19	232.57
784.51	232.55
784.83	232.47
785.16	232.40
785.48	232.31
785.80	232.28
786.12	232.22
786.45	232.16
786.77	232.14
787.09	232.07
787.42	231.98
787.74	231.94
788.06	231.91
788.38	231.84
788.71	231.73
789.03	231.68
789.35	231.67
789.67	231.59
789.99	231.56
790.32	231.50
790.64	231.47
790.96	231.50
791.28	231.39
791.61	231.34
791.93	231.30
792.25	231.28
792.57	231.29
792.89	231.21
793.21	231.18
793.54	231.13
793.86	231.08
794.18	231.08
794.50	231.01
794.82	230.97
795.14	230.96
795.47	230.97
795.79	230.96
796.11	230.88
796.43	230.86
796.75	230.79
797.07	230.75
797.39	230.72
797.71	230.63
798.04	230.60
798.36	230.58
798.68	230.59
799.00	230.58
799.32	230.51
799.64	230.54
799.96	230.48
800.28	230.45
800.60	230.44
800.92	230.41
801.24	230.36
801.56	230.34
801.89	230.30
802.21	230.29
802.53	230.26
802.85	230.23
803.17	230.23
803.49	230.23
803.81	230.21
804.13	230.20
804.45	230.18
804.77	230.17
805.09	230.15
805.41	230.11
805.73	230.04
806.05	229.98
806.37	229.94
806.69	229.92
807.01	229.90
807.33	229.88
807.65	229.82
807.97	229.87
808.28	229.84
808.60	229.82
808.92	229.77
809.24	229.79
809.56	229.78
809.88	229.70
810.20	229.70
810.52	229.69
810.84	229.63
811.16	229.60
811.48	229.56
811.80	229.57
812.12	229.53
812.43	229.55
812.75	229.55
813.07	229.53
813.39	229.49
813.71	229.46
814.03	229.43
814.35	229.45
814.67	229.39
814.98	229.35
815.30	229.32
815.62	229.32
815.94	229.22
816.26	229.25
816.58	229.22
816.89	229.21
817.21	229.14
817.53	229.14
817.85	229.12
818.17	229.08
818.48	229.02
818.80	229.04
819.12	228.96
819.44	228.92
819.76	228.91
820.07	228.90
820.39	228.91
820.71	228.90
821.03	228.83
821.34	228.81
821.66	228.80
821.98	228.75
822.30	228.74
822.61	228.77
822.93	228.69
823.25	228.66
823.57	228.61
823.88	228.62
824.20	228.58
824.52	228.57
824.83	228.55
825.15	228.52
825.47	228.48
825.79	228.49
826.10	228.49
826.42	228.45
826.74	228.44
827.05	228.39
827.37	228.35
827.69	228.33
828.00	228.31
828.32	228.30
828.64	228.32
828.95	228.29
829.27	228.27
829.58	228.26
829.90	228.30
830.22	228.30
830.53	228.28
830.85	228.29
831.17	228.23
831.48	228.22
831.80	228.20
832.11	228.18
832.43	228.16
832.75	228.13
833.06	228.17
833.38	228.14
833.69	228.16
834.01	228.17
834.32	228.17
834.64	228.17
834.96	228.18
835.27	228.20
835.59	228.20
835.90	228.18
836.22	228.16
836.53	228.13
836.85	228.13
837.16	228.22
837.48	228.20
837.79	228.25
838.11	228.30
838.42	228.29
838.74	228.28
839.05	228.31
839.37	228.32
839.68	228.29
840.00	228.31
840.31	228.31
840.63	228.31
840.94	228.29
841.26	228.29
841.57	228.29
841.88	228.25
842.20	228.25
842.51	228.22
842.83	228.20
843.14	228.30
843.46	228.29
843.77	228.23
844.08	228.24
844.40	228.20
844.71	228.16
845.03	228.17
845.34	228.20
845.65	228.22
845.97	228.24
846.28	228.22
846.60	228.20
846.91	228.21
847.22	228.20
847.54	228.25
847.85	228.24
848.16	228.25
848.48	228.26
848.79	228.29
849.10	228.35
849.42	228.39
849.73	228.26
850.04	228.29
850.36	228.29
850.67	228.26
850.98	228.26
851.30	228.28
851.61	228.30
851.92	228.31
852.23	228.30
852.55	228.28
852.86	228.28
853.17	228.30
853.49	228.30
853.80	228.33
854.11	228.34
854.42	228.32
854.74	228.28
855.05	228.26
855.36	228.16
855.67	228.14
855.99	228.11
856.30	228.25
856.61	228.18
856.92	228.17
857.23	228.18
857.55	228.16
857.86	228.14
858.17	228.12
858.48	228.06
858.79	228.05
859.11	228.07
859.42	228.07
859.73	228.02
860.04	228.00
860.35	227.97
860.66	227.91
860.98	227.91
861.29	227.92
861.60	227.89
861.91	227.90
862.22	227.89
862.53	227.88
862.84	227.77
863.16	227.82
863.47	227.76
863.78	227.73
864.09	227.75
864.40	227.75
864.71	227.75
865.02	227.76
865.33	227.71
865.64	227.67
865.95	227.66
866.27	227.73
866.58	227.74
866.89	227.73
867.20	227.72
867.51	227.71
867.82	227.68
868.13	227.72
868.44	227.71
868.75	227.68
869.06	227.68
869.37	227.69
869.68	227.64
869.99	227.67
870.30	227.68
870.61	227.67
870.92	227.65
871.23	227.61
871.54	227.61
871.85	227.62
872.16	227.60
872.47	227.55
872.78	227.49
873.09	227.47
873.40	227.46
873.71	227.46
874.02	227.44
874.33	227.42
874.64	227.38
874.95	227.42
875.26	227.41
875.56	227.38
875.87	227.34
876.18	227.31
876.49	227.41
876.80	227.40
877.11	227.37
877.42	227.38
877.73	227.40
878.04	227.41
878.35	227.43
878.66	227.46
878.96	227.48
879.27	227.45
879.58	227.42
879.89	227.39
880.20	227.43
880.51	227.43
880.82	227.44
881.12	227.47
881.43	227.44
881.74	227.45
882.05	227.49
882.36	227.52
882.67	227.57
882.97	227.47
883.28	227.47
883.59	227.49
883.90	227.49
884.21	227.53
884.51	227.52
884.82	227.54
885.13	227.53
885.44	227.52
885.74	227.54
886.05	227.55
886.36	227.56
886.67	227.55
886.98	227.58
887.28	227.61
887.59	227.62
887.90	227.63
888.20	227.62
888.51	227.64
888.82	227.60
889.13	227.61
889.43	227.71
889.74	227.67
890.05	227.65
890.35	227.62
890.66	227.60
890.97	227.59
891.28	227.55
891.58	227.54
891.89	227.57
892.20	227.57
892.50	227.58
892.81	227.56
893.12	227.53
893.42	227.49
893.73	227.48
894.04	227.46
894.34	227.45
894.65	227.46
894.95	227.42
895.26	227.40
895.57	227.41
895.87	227.34
896.18	227.39
896.48	227.41
896.79	227.41
897.10	227.39
897.40	227.37
897.71	227.39
898.01	227.41
898.32	227.40
898.63	227.42
898.93	227.42
899.24	227.46
899.54	227.45
899.85	227.46
900.15	227.48
900.46	227.47
900.76	227.49
901.07	227.49
901.38	227.48
901.68	227.52
901.99	227.48
902.29	227.47
902.60	227.45
902.90	227.43
903.21	227.45
903.51	227.46
903.82	227.46
904.12	227.47
904.43	227.48
904.73	227.46
905.03	227.44
905.34	227.56
905.64	227.53
905.95	227.55
906.25	227.53
906.56	227.49
906.86	227.50
907.17	227.46
907.47	227.46
907.77	227.45
908.08	227.45
908.38	227.44
908.69	227.42
908.99	227.43
909.30	227.43
909.60	227.43
909.90	227.42
910.21	227.40
910.51	227.37
910.81	227.38
911.12	227.39
911.42	227.37
911.73	227.26
912.03	227.26
912.33	227.28
912.64	227.27
912.94	227.25
913.24	227.23
913.55	227.21
913.85	227.23
914.15	227.27
914.46	227.27
914.76	227.25
915.06	227.25
915.37	227.23
915.67	227.25
915.97	227.27
916.27	227.26
916.58	227.28
916.88	227.27
917.18	227.27
917.49	227.30
917.79	227.33
918.09	227.31
918.39	227.35
918.70	227.35
919.00	227.36
919.30	227.39
919.60	227.39
919.91	227.42
920.21	227.41
920.51	227.38
920.81	227.34
921.12	227.39
921.42	227.35
921.72	227.37
922.02	227.37
922.32	227.38
922.63	227.41
922.93	227.46
923.23	227.51
923.53	227.50
923.83	227.47
924.13	227.47
924.44	227.49
924.74	227.49
925.04	227.54
925.34	227.55
925.64	227.57
925.94	227.58
926.24	227.63
926.55	227.62
926.85	227.66
927.15	227.69
927.45	227.69
927.75	227.72
928.05	227.70
928.35	227.72
928.65	227.69
928.95	227.67
929.26	227.66
929.56	227.67
929.86	227.67
930.16	227.68
930.46	227.64
930.76	227.65
931.06	227.62
931.36	227.55
931.66	227.58
931.96	227.56
932.26	227.60
932.56	227.57
932.86	227.55
933.16	227.51
933.46	227.49
933.76	227.47
934.06	227.50
934.36	227.54
934.66	227.54
934.96	227.57
935.26	227.57
935.56	227.53
935.86	227.47
936.16	227.46
936.46	227.44
936.76	227.45
937.06	227.40
937.36	227.41
937.66	227.41
937.96	227.39
938.26	227.38
938.56	227.35
938.86	227.35
939.16	227.38
939.46	227.42
939.76	227.42
940.06	227.40
940.35	227.37
940.65	227.31
940.95	227.30
941.25	227.26
941.55	227.24
941.85	227.25
942.15	227.26
942.45	227.24
942.75	227.25
943.04	227.24
943.34	227.30
943.64	227.30
943.94	227.29
944.24	227.31
944.54	227.33
944.84	227.30
945.13	227.26
945.43	227.22
945.73	227.21
946.03	227.16
946.33	227.17
946.62	227.15
946.92	227.14
947.22	227.16
947.52	227.14
947.82	227.17
948.11	227.20
948.41	227.14
948.71	227.15
949.01	227.13
949.31	227.12
949.60	227.09
949.90	227.09
950.20	227.08
950.50	227.07
950.79	227.07
951.09	227.08
951.39	227.11
951.69	227.12
951.98	227.14
952.28	227.19
952.58	227.18
952.87	227.18
953.17	227.23
953.47	227.15
953.76	227.16
954.06	227.13
954.36	227.08
954.66	227.14
954.95	227.15
955.25	227.18
955.55	227.16
955.84	227.17
956.14	227.16
956.44	227.16
956.73	227.14
957.03	227.13
957.32	227.14
957.62	227.15
957.92	227.17
958.21	227.17
958.51	227.29
958.81	227.30
959.10	227.32
959.40	227.34
959.69	227.39
959.99	227.40
960.29	227.42
960.58	227.44
960.88	227.48
961.17	227.48
961.47	227.46
961.76	227.49
962.06	227.51
962.36	227.51
962.65	227.53
962.95	227.55
963.24	227.52
963.54	227.54
963.83	227.53
964.13	227.54
964.42	227.53
964.72	227.47
965.01	227.47
965.31	227.47
965.60	227.42
965.90	227.48
966.19	227.48
966.49	227.48
966.78	227.47
967.08	227.45
967.37	227.47
967.67	227.47
967.96	227.49
968.26	227.47
968.55	227.47
968.85	227.46
969.14	227.45
969.43	227.46
969.73	227.43
970.02	227.42
970.32	227.40
970.61	227.40
970.91	227.36
971.20	227.34
971.49	227.37
971.79	227.37
972.08	227.29
972.38	227.27
972.67	227.27
972.96	227.30
973.26	227.28
973.55	227.31
973.85	227.33
974.14	227.30
974.43	227.33
974.73	227.34
975.02	227.34
975.31	227.33
975.61	227.34
975.90	227.37
976.19	227.36
976.49	227.38
976.78	227.38
977.07	227.38
977.37	227.40
977.66	227.38
977.95	227.40
978.24	227.44
978.54	227.48
978.83	227.45
979.12	227.43
979.42	227.44
979.71	227.42
980.00	227.41
980.29	227.43
980.59	227.38
980.88	227.40
981.17	227.39
981.46	227.44
981.76	227.41
982.05	227.43
982.34	227.42
982.63	227.40
982.93	227.40
983.22	227.38
983.51	227.35
983.80	227.38
984.09	227.38
984.39	227.36
984.68	227.35
984.97	227.35
985.26	227.33
985.55	227.34
985.85	227.31
986.14	227.32
986.43	227.34
986.72	227.35
987.01	227.30
987.30	227.32
987.59	227.27
987.89	227.27
988.18	227.24
988.47	227.25
988.76	227.23
989.05	227.24
989.34	227.23
989.63	227.27
989.92	227.26
990.22	227.22
990.51	227.21
990.80	227.18
991.09	227.22
991.38	227.22
991.67	227.19
991.96	227.18
992.25	227.19
992.54	227.14
992.83	227.15
993.12	227.15
993.41	227.10
993.70	227.17
993.99	227.19
994.28	227.18
994.58	227.18
994.87	227.16
995.16	227.12
995.45	227.13
995.74	227.08
996.03	227.10
996.32	227.15
996.61	227.17
996.90	227.18
997.19	227.13
997.48	227.13
997.77	227.13
998.06	227.15
998.34	227.13
998.63	227.14
998.92	227.14
999.21	227.14
999.50	227.18
999.79	227.15
1000.08	227.16
1000.37	227.16
1000.66	227.14
1000.95	227.18
1001.24	227.17
1001.53	227.17
1001.82	227.16
1002.11	227.11
1002.40	227.10
1002.68	227.11
1002.97	227.18
1003.26	227.17
1003.55	227.16
1003.84	227.19
1004.13	227.22
1004.42	227.22
1004.71	227.21
1004.99	227.22
1005.28	227.25
1005.57	227.26
1005.86	227.25
1006.15	227.25
1006.44	227.26
1006.72	227.30
1007.01	227.27
1007.30	227.31
1007.59	227.32
1007.88	227.33
1008.17	227.36
1008.45	227.36
1008.74	227.33
1009.03	227.29
1009.32	227.31
1009.60	227.30
1009.89	227.28
1010.18	227.25
1010.47	227.26
1010.76	227.26
1011.04	227.24
1011.33	227.23
1011.62	227.20
1011.91	227.20
1012.19	227.19
1012.48	227.19
1012.77	227.19
1013.05	227.27
1013.34	227.24
1013.63	227.23
1013.92	227.24
1014.20	227.23
1014.49	227.23
1014.78	227.22
1015.06	227.17
1015.35	227.20
1015.64	227.25
1015.92	227.27
1016.21	227.26
1016.50	227.25
1016.78	227.27
1017.07	227.27
1017.36	227.26
1017.64	227.27
1017.93	227.26
1018.22	227.24
1018.50	227.23
1018.79	227.20
1019.08	227.15
1019.36	227.18
1019.65	227.16
1019.93	227.16
1020.22	227.16
1020.51	227.19
1020.79	227.16
1021.08	226.90
1021.36	226.78
1021.65	227.14
1021.94	227.10
1022.22	227.42
1022.51	226.88
1022.79	227.12
1023.08	227.13
1023.36	227.94
1023.65	226.42
>>>>>End Processed Spectral Data<<<<<
