SpectraSuite Data File
++++++++++++++++++++++++++++++++++++
Date: Fri Feb 01 15:29:01 EST 2013
User: group
Dark Spectrum Present: No
Reference Spectrum Present: No
Number of Sampled Component Spectra: 1
Spectrometers: USB2E7196
Integration Time (usec): 35000 (USB2E7196)
Spectra Averaged: 100 (USB2E7196)
Boxcar Smoothing: 10 (USB2E7196)
Correct for Electrical Dark: No (USB2E7196)
Strobe/Lamp Enabled: No (USB2E7196)
Correct for Detector Non-linearity: No (USB2E7196)
Correct for Stray Light: No (USB2E7196)
Number of Pixels in Processed Spectrum: 2048
>>>>>Begin Processed Spectral Data<<<<<
339.09	0.00
339.48	215.34
339.86	216.42
340.24	218.10
340.63	218.97
341.01	222.54
341.39	222.80
341.78	223.33
342.16	224.63
342.54	225.18
342.93	213.52
343.31	224.32
343.69	224.86
344.07	225.34
344.46	225.79
344.84	226.17
345.22	226.41
345.60	226.65
345.99	226.83
346.37	226.96
346.75	227.07
347.13	227.10
347.52	227.17
347.90	227.21
348.28	227.25
348.66	227.30
349.05	227.31
349.43	227.35
349.81	227.41
350.19	227.48
350.57	227.52
350.96	227.61
351.34	227.73
351.72	227.81
352.10	227.91
352.48	227.94
352.87	228.01
353.25	228.06
353.63	228.08
354.01	228.18
354.39	228.26
354.77	228.34
355.15	228.43
355.54	228.48
355.92	228.55
356.30	228.58
356.68	228.72
357.06	228.77
357.44	228.80
357.82	228.85
358.20	228.90
358.58	228.93
358.97	228.99
359.35	228.99
359.73	229.06
360.11	229.11
360.49	229.17
360.87	229.19
361.25	229.19
361.63	229.27
362.01	229.28
362.39	229.26
362.77	229.28
363.15	229.29
363.53	229.32
363.91	229.35
364.29	229.38
364.67	229.27
365.05	229.31
365.43	229.34
365.81	229.33
366.19	229.35
366.57	229.40
366.95	229.39
367.33	229.39
367.71	229.36
368.09	229.34
368.47	229.32
368.85	229.31
369.23	229.32
369.61	229.27
369.99	229.24
370.37	229.26
370.75	229.25
371.13	229.18
371.51	229.13
371.89	229.09
372.27	229.05
372.65	229.04
373.03	228.97
373.41	228.88
373.78	228.83
374.16	228.73
374.54	228.64
374.92	228.56
375.30	228.46
375.68	228.37
376.06	228.33
376.44	228.27
376.82	228.23
377.19	228.18
377.57	228.08
377.95	228.01
378.33	227.91
378.71	227.80
379.09	227.76
379.47	227.69
379.84	227.60
380.22	227.52
380.60	227.45
380.98	227.38
381.36	227.33
381.73	227.26
382.11	227.21
382.49	227.16
382.87	227.11
383.25	227.04
383.62	227.09
384.00	226.96
384.38	226.91
384.76	226.84
385.13	226.80
385.51	226.76
385.89	226.71
386.27	226.71
386.64	226.70
387.02	226.66
387.40	226.63
387.78	226.62
388.15	226.59
388.53	226.54
388.91	226.51
389.29	226.47
389.66	226.49
390.04	226.48
390.42	226.46
390.79	226.44
391.17	226.45
391.55	226.31
391.92	226.35
392.30	226.34
392.68	226.34
393.05	226.36
393.43	226.37
393.81	226.38
394.18	226.37
394.56	226.37
394.94	226.42
395.31	226.40
395.69	226.43
396.06	226.47
396.44	226.50
396.82	226.52
397.19	226.60
397.57	226.64
397.95	226.67
398.32	226.72
398.70	226.78
399.07	226.85
399.45	226.96
399.82	227.05
400.20	227.11
400.58	227.21
400.95	227.25
401.33	227.36
401.70	227.53
402.08	227.61
402.45	227.74
402.83	227.84
403.20	227.98
403.58	228.10
403.95	228.25
404.33	228.42
404.71	228.59
405.08	228.80
405.46	228.92
405.83	229.05
406.21	229.21
406.58	229.40
406.96	229.58
407.33	229.77
407.70	229.95
408.08	230.25
408.45	230.46
408.83	230.70
409.20	230.90
409.58	231.05
409.95	231.33
410.33	231.59
410.70	231.85
411.08	232.18
411.45	232.47
411.82	232.79
412.20	233.14
412.57	233.53
412.95	233.81
413.32	234.26
413.69	234.70
414.07	235.13
414.44	235.59
414.82	236.09
415.19	236.62
415.56	237.18
415.94	237.68
416.31	238.32
416.68	238.96
417.06	239.72
417.43	240.42
417.81	241.20
418.18	241.98
418.55	242.81
418.93	243.64
419.30	244.54
419.67	245.48
420.04	246.42
420.42	247.39
420.79	248.59
421.16	249.73
421.54	250.94
421.91	252.15
422.28	253.42
422.66	254.72
423.03	256.03
423.40	257.35
423.77	258.80
424.15	260.23
424.52	261.71
424.89	263.29
425.26	264.87
425.64	266.28
426.01	267.84
426.38	269.46
426.75	271.15
427.13	272.86
427.50	274.62
427.87	276.54
428.24	278.47
428.61	280.20
428.99	282.11
429.36	284.23
429.73	286.27
430.10	288.25
430.47	290.34
430.85	292.40
431.22	294.64
431.59	297.00
431.96	299.25
432.33	301.73
432.70	304.13
433.08	306.99
433.45	309.63
433.82	312.28
434.19	315.21
434.56	318.06
434.93	320.74
435.30	323.39
435.68	326.26
436.05	329.11
436.42	331.89
436.79	334.44
437.16	337.14
437.53	340.02
437.90	342.91
438.27	345.65
438.64	348.56
439.01	351.13
439.38	353.37
439.75	355.52
440.13	358.01
440.50	360.33
440.87	362.15
441.24	364.09
441.61	366.26
441.98	367.73
442.35	369.44
442.72	371.29
443.09	373.10
443.46	374.07
443.83	374.64
444.20	375.15
444.57	376.03
444.94	376.27
445.31	376.60
445.68	376.86
446.05	376.90
446.42	376.52
446.79	376.16
447.16	375.69
447.53	375.35
447.90	374.16
448.27	372.96
448.64	371.38
449.01	370.29
449.37	368.30
449.74	366.42
450.11	364.25
450.48	361.79
450.85	359.26
451.22	357.10
451.59	355.09
451.96	353.12
452.33	350.44
452.70	348.10
453.07	345.26
453.43	342.41
453.80	339.66
454.17	336.98
454.54	334.41
454.91	331.71
455.28	329.07
455.65	326.61
456.02	324.14
456.38	321.97
456.75	319.27
457.12	316.99
457.49	314.78
457.86	312.59
458.23	310.74
458.59	308.69
458.96	306.60
459.33	304.65
459.70	302.82
460.07	301.36
460.43	299.63
460.80	298.00
461.17	296.50
461.54	295.01
461.91	293.57
462.27	292.09
462.64	290.84
463.01	289.47
463.38	288.17
463.74	286.85
464.11	285.68
464.48	284.65
464.85	283.57
465.21	282.67
465.58	281.77
465.95	280.63
466.32	279.72
466.68	278.84
467.05	277.97
467.42	277.08
467.78	276.11
468.15	275.23
468.52	274.55
468.88	273.70
469.25	272.89
469.62	272.24
469.98	271.58
470.35	270.92
470.72	270.30
471.08	269.64
471.45	269.09
471.82	268.57
472.18	267.99
472.55	267.53
472.92	266.96
473.28	266.44
473.65	266.02
474.02	265.56
474.38	265.16
474.75	264.80
475.11	264.46
475.48	264.18
475.85	263.96
476.21	263.72
476.58	263.52
476.94	263.41
477.31	263.25
477.67	263.11
478.04	263.01
478.41	262.93
478.77	262.97
479.14	262.91
479.50	262.89
479.87	262.90
480.23	262.97
480.60	263.08
480.96	263.19
481.33	263.37
481.69	263.57
482.06	263.77
482.42	263.99
482.79	264.23
483.15	264.55
483.52	264.91
483.88	265.28
484.25	265.71
484.61	266.11
484.98	266.57
485.34	267.13
485.71	267.70
486.07	268.34
486.44	268.90
486.80	269.62
487.17	270.32
487.53	271.17
487.90	271.99
488.26	272.90
488.62	273.91
488.99	274.91
489.35	275.96
489.72	277.06
490.08	278.27
490.44	279.54
490.81	280.88
491.17	282.24
491.54	283.72
491.90	285.25
492.26	286.93
492.63	288.67
492.99	290.43
493.36	292.31
493.72	294.30
494.08	296.45
494.45	298.72
494.81	301.08
495.17	303.49
495.54	306.09
495.90	308.81
496.26	311.61
496.63	314.58
496.99	317.70
497.35	320.92
497.72	324.31
498.08	327.82
498.44	331.49
498.80	335.42
499.17	339.45
499.53	343.56
499.89	347.93
500.26	352.42
500.62	357.11
500.98	362.11
501.34	367.19
501.71	372.50
502.07	377.94
502.43	383.59
502.79	389.43
503.16	395.53
503.52	401.81
503.88	408.19
504.24	414.81
504.60	421.68
504.97	428.82
505.33	436.20
505.69	443.94
506.05	451.74
506.41	459.59
506.78	467.82
507.14	476.32
507.50	485.01
507.86	494.08
508.22	503.35
508.59	512.56
508.95	522.18
509.31	531.95
509.67	542.03
510.03	552.33
510.39	562.91
510.75	573.70
511.12	584.63
511.48	595.99
511.84	607.47
512.20	619.05
512.56	631.00
512.92	643.27
513.28	655.54
513.64	668.03
514.00	680.72
514.37	693.56
514.73	706.69
515.09	719.82
515.45	733.11
515.81	746.71
516.17	760.73
516.53	774.85
516.89	789.03
517.25	803.29
517.61	817.74
517.97	832.15
518.33	846.63
518.69	861.44
519.05	876.50
519.41	891.75
519.77	907.37
520.13	922.88
520.49	938.22
520.85	953.71
521.21	969.48
521.57	985.80
521.93	1001.69
522.29	1018.08
522.65	1034.37
523.01	1050.63
523.37	1066.62
523.73	1082.81
524.09	1099.06
524.45	1115.48
524.81	1132.15
525.17	1149.05
525.53	1166.07
525.89	1182.86
526.25	1199.71
526.61	1216.12
526.97	1232.82
527.33	1249.46
527.68	1266.18
528.04	1282.84
528.40	1299.55
528.76	1316.70
529.12	1333.34
529.48	1350.32
529.84	1366.45
530.20	1383.19
530.56	1400.26
530.91	1417.76
531.27	1434.60
531.63	1451.06
531.99	1467.74
532.35	1483.75
532.71	1499.65
533.07	1515.83
533.42	1531.89
533.78	1548.07
534.14	1564.46
534.50	1579.81
534.86	1595.60
535.21	1610.81
535.57	1626.78
535.93	1642.26
536.29	1657.15
536.65	1672.47
537.00	1687.22
537.36	1702.58
537.72	1717.11
538.08	1731.64
538.44	1745.54
538.79	1759.57
539.15	1773.30
539.51	1787.08
539.87	1801.52
540.22	1815.33
540.58	1829.29
540.94	1842.82
541.29	1855.77
541.65	1868.54
542.01	1881.97
542.37	1894.19
542.72	1906.72
543.08	1918.47
543.44	1931.00
543.79	1942.29
544.15	1953.13
544.51	1964.81
544.87	1975.80
545.22	1986.68
545.58	1996.82
545.94	2006.60
546.29	2016.41
546.65	2026.14
547.01	2035.40
547.36	2044.17
547.72	2052.66
548.07	2060.67
548.43	2068.88
548.79	2076.91
549.14	2084.44
549.50	2091.87
549.86	2099.82
550.21	2107.05
550.57	2114.21
550.92	2120.83
551.28	2127.94
551.64	2135.10
551.99	2141.61
552.35	2147.69
552.70	2153.69
553.06	2159.75
553.41	2166.03
553.77	2172.18
554.13	2178.45
554.48	2184.57
554.84	2190.05
555.19	2195.37
555.55	2200.42
555.90	2204.76
556.26	2209.53
556.61	2214.23
556.97	2218.38
557.32	2222.39
557.68	2226.61
558.03	2230.96
558.39	2234.54
558.74	2238.98
559.10	2242.79
559.45	2246.53
559.81	2251.01
560.16	2255.01
560.52	2258.32
560.87	2261.89
561.23	2264.45
561.58	2267.40
561.94	2269.93
562.29	2272.31
562.64	2275.07
563.00	2277.66
563.35	2281.41
563.71	2284.59
564.06	2287.77
564.42	2290.57
564.77	2293.02
565.12	2295.23
565.48	2297.10
565.83	2299.05
566.19	2300.36
566.54	2301.24
566.89	2302.25
567.25	2302.75
567.60	2304.07
567.96	2305.65
568.31	2306.35
568.66	2307.36
569.02	2307.80
569.37	2308.03
569.72	2308.73
570.08	2308.73
570.43	2308.57
570.78	2307.68
571.14	2306.00
571.49	2304.64
571.84	2304.32
572.20	2303.13
572.55	2302.06
572.90	2300.35
573.26	2298.91
573.61	2297.13
573.96	2295.32
574.31	2292.24
574.67	2288.98
575.02	2285.14
575.37	2281.56
575.72	2277.64
576.08	2274.25
576.43	2270.96
576.78	2267.42
577.13	2264.20
577.49	2261.04
577.84	2257.54
578.19	2253.71
578.54	2250.06
578.90	2245.67
579.25	2240.12
579.60	2235.24
579.95	2230.23
580.30	2225.10
580.66	2219.85
581.01	2214.89
581.36	2209.82
581.71	2205.59
582.06	2201.26
582.42	2196.76
582.77	2191.60
583.12	2186.95
583.47	2182.28
583.82	2177.18
584.17	2171.70
584.53	2166.17
584.88	2160.54
585.23	2154.71
585.58	2149.28
585.93	2143.76
586.28	2138.97
586.63	2133.72
586.98	2128.41
587.34	2123.60
587.69	2118.78
588.04	2113.44
588.39	2107.71
588.74	2101.31
589.09	2095.19
589.44	2088.23
589.79	2082.13
590.14	2076.31
590.49	2069.78
590.84	2063.24
591.19	2057.10
591.54	2050.70
591.89	2043.24
592.25	2036.29
592.60	2029.02
592.95	2021.30
593.30	2013.92
593.65	2006.21
594.00	1999.11
594.35	1991.91
594.70	1983.69
595.05	1976.40
595.40	1969.08
595.75	1961.61
596.10	1955.35
596.45	1948.44
596.80	1942.19
597.15	1935.54
597.50	1928.50
597.85	1921.97
598.19	1915.28
598.54	1908.25
598.89	1901.54
599.24	1895.50
599.59	1888.70
599.94	1882.43
600.29	1876.11
600.64	1869.56
600.99	1862.05
601.34	1855.13
601.69	1848.07
602.04	1841.21
602.39	1833.79
602.74	1826.96
603.08	1820.08
603.43	1813.29
603.78	1805.97
604.13	1798.84
604.48	1791.48
604.83	1784.61
605.18	1777.66
605.53	1769.67
605.87	1761.54
606.22	1754.29
606.57	1746.39
606.92	1739.06
607.27	1731.92
607.62	1724.95
607.96	1717.53
608.31	1711.03
608.66	1703.43
609.01	1695.83
609.36	1688.19
609.70	1680.20
610.05	1672.09
610.40	1664.37
610.75	1655.95
611.10	1648.34
611.44	1639.92
611.79	1632.05
612.14	1623.30
612.49	1614.06
612.83	1605.67
613.18	1597.55
613.53	1589.42
613.88	1580.87
614.22	1572.72
614.57	1564.05
614.92	1555.91
615.27	1548.36
615.61	1539.90
615.96	1531.85
616.31	1524.20
616.65	1516.93
617.00	1509.35
617.35	1501.66
617.70	1493.34
618.04	1484.82
618.39	1476.54
618.74	1468.95
619.08	1460.50
619.43	1452.96
619.78	1446.13
620.12	1438.96
620.47	1431.32
620.82	1423.11
621.16	1415.72
621.51	1408.00
621.85	1400.38
622.20	1391.94
622.55	1383.64
622.89	1375.87
623.24	1368.34
623.59	1360.95
623.93	1353.48
624.28	1346.20
624.62	1338.72
624.97	1331.44
625.32	1324.72
625.66	1317.68
626.01	1310.46
626.35	1303.00
626.70	1295.12
627.04	1287.26
627.39	1279.45
627.73	1272.07
628.08	1265.15
628.43	1257.82
628.77	1250.54
629.12	1242.98
629.46	1235.84
629.81	1228.28
630.15	1220.95
630.50	1213.45
630.84	1205.28
631.19	1197.30
631.53	1189.80
631.88	1182.10
632.22	1174.54
632.57	1167.24
632.91	1159.77
633.26	1152.33
633.60	1145.01
633.95	1138.00
634.29	1131.03
634.64	1124.32
634.98	1116.97
635.32	1109.80
635.67	1103.26
636.01	1096.59
636.36	1089.81
636.70	1083.28
637.05	1076.80
637.39	1070.37
637.73	1063.95
638.08	1058.09
638.42	1052.09
638.77	1045.65
639.11	1039.17
639.45	1032.81
639.80	1026.08
640.14	1019.54
640.49	1013.03
640.83	1006.84
641.17	1000.56
641.52	994.21
641.86	987.80
642.20	982.04
642.55	975.73
642.89	969.23
643.23	962.64
643.58	956.91
643.92	950.64
644.26	944.61
644.61	938.62
644.95	932.64
645.29	926.07
645.64	919.25
645.98	912.96
646.32	907.12
646.66	901.04
647.01	895.27
647.35	889.62
647.69	883.72
648.04	878.08
648.38	872.33
648.72	866.31
649.06	860.22
649.41	854.27
649.75	848.29
650.09	842.31
650.43	836.53
650.78	830.24
651.12	824.33
651.46	818.56
651.80	812.78
652.14	807.34
652.49	801.95
652.83	796.76
653.17	790.99
653.51	785.13
653.85	779.74
654.20	774.06
654.54	768.00
654.88	762.31
655.22	756.41
655.56	750.71
655.90	745.22
656.25	739.93
656.59	734.55
656.93	729.45
657.27	724.23
657.61	718.79
657.95	713.75
658.29	708.62
658.64	703.40
658.98	698.09
659.32	692.51
659.66	687.26
660.00	681.93
660.34	676.96
660.68	672.10
661.02	667.08
661.36	662.40
661.70	657.99
662.05	653.59
662.39	649.25
662.73	644.82
663.07	640.50
663.41	636.05
663.75	631.57
664.09	627.02
664.43	622.66
664.77	618.49
665.11	614.29
665.45	610.17
665.79	606.08
666.13	601.97
666.47	597.93
666.81	593.81
667.15	589.79
667.49	585.90
667.83	582.14
668.17	578.21
668.51	574.09
668.85	570.09
669.19	566.34
669.53	562.52
669.87	558.61
670.21	554.88
670.55	551.27
670.89	547.81
671.23	544.40
671.57	540.93
671.91	537.42
672.25	533.87
672.58	530.44
672.92	527.07
673.26	523.88
673.60	520.76
673.94	517.68
674.28	514.65
674.62	511.74
674.96	508.60
675.30	505.70
675.64	502.82
675.97	499.98
676.31	497.10
676.65	494.19
676.99	491.48
677.33	488.62
677.67	485.80
678.01	482.83
678.34	479.83
678.68	476.95
679.02	474.16
679.36	471.44
679.70	468.68
680.04	465.89
680.37	463.02
680.71	460.23
681.05	457.59
681.39	454.93
681.73	452.33
682.06	449.87
682.40	447.41
682.74	444.90
683.08	442.36
683.42	439.78
683.75	437.27
684.09	434.74
684.43	432.29
684.77	429.83
685.10	427.50
685.44	425.23
685.78	422.97
686.12	420.72
686.45	418.42
686.79	416.14
687.13	413.92
687.46	411.79
687.80	409.65
688.14	407.48
688.48	405.49
688.81	403.21
689.15	401.06
689.49	398.86
689.82	396.79
690.16	394.76
690.50	392.77
690.83	390.85
691.17	388.87
691.51	387.01
691.84	385.21
692.18	383.28
692.52	381.31
692.85	379.43
693.19	377.55
693.52	375.75
693.86	373.98
694.20	372.24
694.53	370.42
694.87	368.56
695.21	366.74
695.54	364.89
695.88	363.18
696.21	361.41
696.55	359.74
696.88	358.07
697.22	356.34
697.56	354.75
697.89	353.11
698.23	351.48
698.56	349.86
698.90	348.24
699.23	346.56
699.57	344.99
699.90	343.39
700.24	341.88
700.58	340.33
700.91	338.78
701.25	337.31
701.58	335.97
701.92	334.61
702.25	333.25
702.59	331.87
702.92	330.51
703.26	329.23
703.59	327.91
703.93	326.72
704.26	325.53
704.60	324.23
704.93	322.94
705.26	321.70
705.60	320.53
705.93	319.35
706.27	318.29
706.60	317.23
706.94	316.14
707.27	314.95
707.61	313.90
707.94	312.88
708.27	311.83
708.61	310.74
708.94	309.77
709.28	308.78
709.61	307.84
709.94	306.92
710.28	305.87
710.61	304.92
710.95	303.83
711.28	302.89
711.61	301.94
711.95	301.05
712.28	300.08
712.61	299.09
712.95	298.20
713.28	297.36
713.61	296.50
713.95	295.63
714.28	294.83
714.61	293.95
714.95	293.12
715.28	292.28
715.61	291.41
715.95	290.52
716.28	289.68
716.61	288.84
716.95	288.03
717.28	287.30
717.61	286.55
717.94	285.81
718.28	285.01
718.61	284.30
718.94	283.59
719.27	282.97
719.61	282.32
719.94	281.68
720.27	280.92
720.60	280.24
720.94	279.62
721.27	279.03
721.60	278.50
721.93	277.89
722.27	277.32
722.60	276.79
722.93	276.24
723.26	275.69
723.59	275.15
723.93	274.62
724.26	274.05
724.59	273.46
724.92	272.96
725.25	272.46
725.59	271.93
725.92	271.42
726.25	270.89
726.58	270.41
726.91	269.91
727.24	269.47
727.57	268.97
727.91	268.44
728.24	267.96
728.57	267.41
728.90	266.97
729.23	266.47
729.56	266.01
729.89	265.51
730.22	265.06
730.55	264.59
730.89	264.10
731.22	263.64
731.55	263.20
731.88	262.76
732.21	262.33
732.54	261.87
732.87	261.48
733.20	261.10
733.53	260.68
733.86	260.30
734.19	259.87
734.52	259.51
734.85	259.24
735.18	258.82
735.51	258.47
735.84	258.08
736.17	257.74
736.50	257.33
736.83	257.13
737.16	256.76
737.49	256.44
737.82	256.12
738.15	255.81
738.48	255.48
738.81	255.16
739.14	254.86
739.47	254.56
739.80	254.22
740.13	253.89
740.46	253.57
740.79	253.22
741.12	252.92
741.45	252.58
741.78	252.20
742.11	251.91
742.44	251.59
742.77	251.30
743.10	250.98
743.43	250.71
743.75	250.30
744.08	250.14
744.41	249.83
744.74	249.55
745.07	249.28
745.40	249.02
745.73	248.79
746.06	248.50
746.39	248.23
746.71	248.00
747.04	247.73
747.37	247.48
747.70	247.26
748.03	247.03
748.36	246.84
748.68	246.61
749.01	246.39
749.34	246.15
749.67	245.94
750.00	245.74
750.33	245.57
750.65	245.37
750.98	245.03
751.31	244.80
751.64	244.58
751.97	244.40
752.29	244.20
752.62	243.91
752.95	243.70
753.28	243.51
753.60	243.27
753.93	243.12
754.26	242.94
754.59	242.71
754.91	242.49
755.24	242.29
755.57	242.10
755.90	241.89
756.22	241.73
756.55	241.53
756.88	241.32
757.20	241.10
757.53	240.91
757.86	240.78
758.19	240.63
758.51	240.46
758.84	240.29
759.17	240.11
759.49	239.98
759.82	239.84
760.15	239.68
760.47	239.54
760.80	239.35
761.13	239.18
761.45	239.01
761.78	238.89
762.11	238.72
762.43	238.61
762.76	238.48
763.08	238.36
763.41	238.19
763.74	238.05
764.06	237.91
764.39	237.77
764.71	237.61
765.04	237.48
765.37	237.35
765.69	237.19
766.02	237.06
766.34	236.92
766.67	236.76
767.00	236.65
767.32	236.58
767.65	236.52
767.97	236.40
768.30	236.31
768.62	236.18
768.95	236.05
769.27	235.89
769.60	235.79
769.92	235.64
770.25	235.54
770.57	235.43
770.90	235.29
771.22	235.18
771.55	235.09
771.87	234.99
772.20	234.88
772.52	234.86
772.85	234.85
773.17	234.76
773.50	234.67
773.82	234.53
774.15	234.40
774.47	234.26
774.80	234.16
775.12	234.04
775.45	233.95
775.77	233.87
776.09	233.81
776.42	233.70
776.74	233.66
777.07	233.58
777.39	233.52
777.72	233.44
778.04	233.39
778.36	233.30
778.69	233.21
779.01	233.13
779.33	233.01
779.66	232.86
779.98	232.79
780.31	232.72
780.63	232.74
780.95	232.67
781.28	232.60
781.60	232.55
781.92	232.53
782.25	232.46
782.57	232.41
782.89	232.35
783.22	232.29
783.54	232.23
783.86	232.16
784.19	232.08
784.51	232.08
784.83	232.00
785.16	231.94
785.48	231.92
785.80	231.87
786.12	231.80
786.45	231.77
786.77	231.74
787.09	231.70
787.42	231.60
787.74	231.57
788.06	231.55
788.38	231.52
788.71	231.44
789.03	231.43
789.35	231.44
789.67	231.37
789.99	231.36
790.32	231.34
790.64	231.33
790.96	231.38
791.28	231.29
791.61	231.25
791.93	231.26
792.25	231.24
792.57	231.30
792.89	231.23
793.21	231.17
793.54	231.10
793.86	231.08
794.18	231.07
794.50	231.00
794.82	230.95
795.14	230.92
795.47	230.92
795.79	230.89
796.11	230.82
796.43	230.81
796.75	230.76
797.07	230.71
797.39	230.66
797.71	230.58
798.04	230.54
798.36	230.54
798.68	230.50
799.00	230.46
799.32	230.38
799.64	230.40
799.96	230.40
800.28	230.44
800.60	230.38
800.92	230.35
801.24	230.33
801.56	230.31
801.89	230.25
802.21	230.22
802.53	230.19
802.85	230.18
803.17	230.19
803.49	230.15
803.81	230.08
804.13	230.08
804.45	229.99
804.77	230.00
805.09	229.96
805.41	229.90
805.73	229.87
806.05	229.79
806.37	229.75
806.69	229.71
807.01	229.64
807.33	229.66
807.65	229.58
807.97	229.61
808.28	229.57
808.60	229.54
808.92	229.51
809.24	229.51
809.56	229.47
809.88	229.40
810.20	229.36
810.52	229.35
810.84	229.30
811.16	229.32
811.48	229.28
811.80	229.30
812.12	229.26
812.43	229.27
812.75	229.25
813.07	229.23
813.39	229.18
813.71	229.12
814.03	229.06
814.35	229.05
814.67	228.96
814.98	228.92
815.30	228.93
815.62	228.90
815.94	228.81
816.26	228.84
816.58	228.76
816.89	228.78
817.21	228.74
817.53	228.70
817.85	228.67
818.17	228.64
818.48	228.55
818.80	228.53
819.12	228.47
819.44	228.45
819.76	228.41
820.07	228.40
820.39	228.39
820.71	228.37
821.03	228.34
821.34	228.31
821.66	228.33
821.98	228.31
822.30	228.30
822.61	228.38
822.93	228.32
823.25	228.33
823.57	228.28
823.88	228.31
824.20	228.31
824.52	228.35
824.83	228.35
825.15	228.34
825.47	228.34
825.79	228.35
826.10	228.34
826.42	228.32
826.74	228.33
827.05	228.33
827.37	228.37
827.69	228.41
828.00	228.43
828.32	228.43
828.64	228.42
828.95	228.44
829.27	228.40
829.58	228.39
829.90	228.41
830.22	228.43
830.53	228.42
830.85	228.43
831.17	228.37
831.48	228.38
831.80	228.40
832.11	228.41
832.43	228.41
832.75	228.41
833.06	228.49
833.38	228.48
833.69	228.47
834.01	228.49
834.32	228.49
834.64	228.49
834.96	228.51
835.27	228.50
835.59	228.47
835.90	228.45
836.22	228.46
836.53	228.45
836.85	228.45
837.16	228.53
837.48	228.53
837.79	228.55
838.11	228.51
838.42	228.50
838.74	228.49
839.05	228.49
839.37	228.49
839.68	228.42
840.00	228.41
840.31	228.46
840.63	228.40
840.94	228.37
841.26	228.35
841.57	228.31
841.88	228.30
842.20	228.31
842.51	228.27
842.83	228.25
843.14	228.31
843.46	228.32
843.77	228.21
844.08	228.22
844.40	228.19
844.71	228.20
845.03	228.18
845.34	228.16
845.65	228.16
845.97	228.18
846.28	228.17
846.60	228.14
846.91	228.06
847.22	228.05
847.54	228.05
847.85	228.07
848.16	228.08
848.48	228.04
848.79	228.06
849.10	228.07
849.42	228.05
849.73	227.99
850.04	227.99
850.36	227.97
850.67	227.95
850.98	227.92
851.30	227.92
851.61	227.93
851.92	227.92
852.23	227.90
852.55	227.88
852.86	227.85
853.17	227.86
853.49	227.88
853.80	227.88
854.11	227.86
854.42	227.83
854.74	227.78
855.05	227.77
855.36	227.70
855.67	227.68
855.99	227.67
856.30	227.74
856.61	227.71
856.92	227.70
857.23	227.69
857.55	227.67
857.86	227.66
858.17	227.67
858.48	227.63
858.79	227.61
859.11	227.60
859.42	227.62
859.73	227.58
860.04	227.61
860.35	227.59
860.66	227.57
860.98	227.55
861.29	227.56
861.60	227.56
861.91	227.60
862.22	227.60
862.53	227.61
862.84	227.51
863.16	227.54
863.47	227.51
863.78	227.50
864.09	227.54
864.40	227.56
864.71	227.58
865.02	227.59
865.33	227.57
865.64	227.53
865.95	227.55
866.27	227.63
866.58	227.60
866.89	227.58
867.20	227.56
867.51	227.55
867.82	227.57
868.13	227.61
868.44	227.58
868.75	227.58
869.06	227.54
869.37	227.55
869.68	227.54
869.99	227.58
870.30	227.58
870.61	227.58
870.92	227.57
871.23	227.51
871.54	227.58
871.85	227.59
872.16	227.66
872.47	227.63
872.78	227.55
873.09	227.57
873.40	227.60
873.71	227.64
874.02	227.67
874.33	227.66
874.64	227.60
874.95	227.62
875.26	227.65
875.56	227.68
875.87	227.68
876.18	227.66
876.49	227.77
876.80	227.78
877.11	227.74
877.42	227.77
877.73	227.79
878.04	227.71
878.35	227.73
878.66	227.71
878.96	227.71
879.27	227.72
879.58	227.72
879.89	227.72
880.20	227.72
880.51	227.71
880.82	227.70
881.12	227.71
881.43	227.69
881.74	227.67
882.05	227.65
882.36	227.67
882.67	227.69
882.97	227.56
883.28	227.53
883.59	227.54
883.90	227.50
884.21	227.52
884.51	227.53
884.82	227.50
885.13	227.51
885.44	227.53
885.74	227.52
886.05	227.51
886.36	227.50
886.67	227.47
886.98	227.49
887.28	227.51
887.59	227.53
887.90	227.56
888.20	227.53
888.51	227.56
888.82	227.51
889.13	227.48
889.43	227.54
889.74	227.55
890.05	227.53
890.35	227.54
890.66	227.51
890.97	227.50
891.28	227.48
891.58	227.47
891.89	227.44
892.20	227.42
892.50	227.40
892.81	227.36
893.12	227.38
893.42	227.31
893.73	227.31
894.04	227.30
894.34	227.25
894.65	227.24
894.95	227.20
895.26	227.21
895.57	227.25
895.87	227.17
896.18	227.19
896.48	227.19
896.79	227.17
897.10	227.16
897.40	227.17
897.71	227.16
898.01	227.13
898.32	227.12
898.63	227.11
898.93	227.13
899.24	227.18
899.54	227.14
899.85	227.12
900.15	227.10
900.46	227.09
900.76	227.13
901.07	227.11
901.38	227.11
901.68	227.12
901.99	227.07
902.29	227.07
902.60	227.05
902.90	227.04
903.21	227.05
903.51	227.04
903.82	227.05
904.12	227.05
904.43	227.05
904.73	227.08
905.03	227.10
905.34	227.18
905.64	227.16
905.95	227.18
906.25	227.20
906.56	227.20
906.86	227.18
907.17	227.14
907.47	227.17
907.77	227.20
908.08	227.18
908.38	227.18
908.69	227.21
908.99	227.22
909.30	227.22
909.60	227.23
909.90	227.25
910.21	227.27
910.51	227.26
910.81	227.27
911.12	227.29
911.42	227.30
911.73	227.21
912.03	227.19
912.33	227.20
912.64	227.23
912.94	227.23
913.24	227.24
913.55	227.27
913.85	227.27
914.15	227.29
914.46	227.32
914.76	227.31
915.06	227.32
915.37	227.30
915.67	227.31
915.97	227.29
916.27	227.26
916.58	227.26
916.88	227.27
917.18	227.27
917.49	227.31
917.79	227.30
918.09	227.34
918.39	227.37
918.70	227.39
919.00	227.37
919.30	227.41
919.60	227.42
919.91	227.41
920.21	227.43
920.51	227.40
920.81	227.38
921.12	227.41
921.42	227.38
921.72	227.36
922.02	227.37
922.32	227.37
922.63	227.39
922.93	227.40
923.23	227.36
923.53	227.38
923.83	227.34
924.13	227.38
924.44	227.35
924.74	227.38
925.04	227.39
925.34	227.43
925.64	227.43
925.94	227.40
926.24	227.44
926.55	227.40
926.85	227.40
927.15	227.37
927.45	227.35
927.75	227.39
928.05	227.41
928.35	227.41
928.65	227.45
928.95	227.44
929.26	227.41
929.56	227.44
929.86	227.38
930.16	227.32
930.46	227.28
930.76	227.29
931.06	227.22
931.36	227.15
931.66	227.11
931.96	227.09
932.26	227.08
932.56	227.03
932.86	227.04
933.16	227.03
933.46	227.02
933.76	226.99
934.06	226.97
934.36	227.00
934.66	226.97
934.96	226.94
935.26	226.92
935.56	226.95
935.86	226.90
936.16	226.91
936.46	226.91
936.76	226.90
937.06	226.88
937.36	226.89
937.66	226.90
937.96	226.91
938.26	226.87
938.56	226.84
938.86	226.90
939.16	226.88
939.46	226.89
939.76	226.91
940.06	226.90
940.35	226.89
940.65	226.86
940.95	226.85
941.25	226.84
941.55	226.85
941.85	226.84
942.15	226.90
942.45	226.95
942.75	226.97
943.04	226.93
943.34	226.94
943.64	226.94
943.94	226.95
944.24	226.94
944.54	226.95
944.84	226.98
945.13	226.96
945.43	226.93
945.73	226.93
946.03	226.94
946.33	226.99
946.62	226.98
946.92	226.97
947.22	227.00
947.52	227.03
947.82	227.05
948.11	227.04
948.41	227.00
948.71	226.96
949.01	226.99
949.31	227.05
949.60	227.05
949.90	227.09
950.20	227.10
950.50	227.14
950.79	227.11
951.09	227.15
951.39	227.13
951.69	227.17
951.98	227.18
952.28	227.18
952.58	227.13
952.87	227.17
953.17	227.18
953.47	227.18
953.76	227.16
954.06	227.14
954.36	227.12
954.66	227.14
954.95	227.16
955.25	227.18
955.55	227.17
955.84	227.16
956.14	227.17
956.44	227.15
956.73	227.13
957.03	227.16
957.32	227.15
957.62	227.14
957.92	227.18
958.21	227.19
958.51	227.31
958.81	227.36
959.10	227.34
959.40	227.37
959.69	227.36
959.99	227.38
960.29	227.37
960.58	227.39
960.88	227.41
961.17	227.44
961.47	227.40
961.76	227.39
962.06	227.43
962.36	227.41
962.65	227.43
962.95	227.41
963.24	227.36
963.54	227.34
963.83	227.35
964.13	227.31
964.42	227.27
964.72	227.17
965.01	227.15
965.31	227.13
965.60	227.09
965.90	227.14
966.19	227.11
966.49	227.09
966.78	227.07
967.08	227.07
967.37	227.05
967.67	227.04
967.96	227.04
968.26	227.01
968.55	227.00
968.85	226.99
969.14	227.00
969.43	227.03
969.73	227.01
970.02	226.99
970.32	226.99
970.61	226.99
970.91	226.94
971.20	226.93
971.49	226.92
971.79	226.97
972.08	226.91
972.38	226.92
972.67	226.91
972.96	226.94
973.26	226.89
973.55	226.92
973.85	226.91
974.14	226.93
974.43	226.92
974.73	226.91
975.02	226.90
975.31	226.91
975.61	226.93
975.90	226.95
976.19	226.94
976.49	226.94
976.78	226.93
977.07	226.95
977.37	226.96
977.66	226.97
977.95	226.96
978.24	226.98
978.54	227.00
978.83	227.01
979.12	227.01
979.42	227.03
979.71	227.01
980.00	227.04
980.29	227.03
980.59	227.02
980.88	227.05
981.17	227.02
981.46	227.05
981.76	227.02
982.05	227.03
982.34	227.03
982.63	227.06
982.93	227.10
983.22	227.14
983.51	227.12
983.80	227.16
984.09	227.15
984.39	227.14
984.68	227.13
984.97	227.11
985.26	227.08
985.55	227.07
985.85	227.08
986.14	227.06
986.43	227.05
986.72	227.05
987.01	227.03
987.30	227.06
987.59	227.00
987.89	227.00
988.18	226.96
988.47	226.97
988.76	226.94
989.05	226.92
989.34	226.90
989.63	226.93
989.92	226.88
990.22	226.89
990.51	226.89
990.80	226.87
991.09	226.94
991.38	226.95
991.67	226.93
991.96	226.90
992.25	226.88
992.54	226.88
992.83	226.86
993.12	226.84
993.41	226.82
993.70	226.90
993.99	226.93
994.28	226.94
994.58	226.91
994.87	226.88
995.16	226.87
995.45	226.83
995.74	226.77
996.03	226.81
996.32	226.77
996.61	226.77
996.90	226.77
997.19	226.75
997.48	226.74
997.77	226.76
998.06	226.73
998.34	226.73
998.63	226.73
998.92	226.73
999.21	226.76
999.50	226.78
999.79	226.69
1000.08	226.69
1000.37	226.71
1000.66	226.72
1000.95	226.77
1001.24	226.73
1001.53	226.74
1001.82	226.76
1002.11	226.73
1002.40	226.73
1002.68	226.71
1002.97	226.77
1003.26	226.72
1003.55	226.71
1003.84	226.72
1004.13	226.81
1004.42	226.81
1004.71	226.79
1004.99	226.81
1005.28	226.81
1005.57	226.79
1005.86	226.80
1006.15	226.77
1006.44	226.75
1006.72	226.77
1007.01	226.73
1007.30	226.78
1007.59	226.78
1007.88	226.79
1008.17	226.82
1008.45	226.82
1008.74	226.82
1009.03	226.78
1009.32	226.79
1009.60	226.83
1009.89	226.81
1010.18	226.70
1010.47	226.70
1010.76	226.70
1011.04	226.70
1011.33	226.70
1011.62	226.68
1011.91	226.69
1012.19	226.69
1012.48	226.72
1012.77	226.70
1013.05	226.76
1013.34	226.77
1013.63	226.77
1013.92	226.75
1014.20	226.74
1014.49	226.78
1014.78	226.79
1015.06	226.74
1015.35	226.74
1015.64	226.74
1015.92	226.77
1016.21	226.79
1016.50	226.81
1016.78	226.83
1017.07	226.85
1017.36	226.82
1017.64	226.86
1017.93	226.89
1018.22	226.92
1018.50	226.92
1018.79	226.97
1019.08	226.94
1019.36	226.93
1019.65	226.92
1019.93	226.97
1020.22	226.99
1020.51	227.03
1020.79	227.04
1021.08	227.07
1021.36	227.26
1021.65	227.60
1021.94	227.14
1022.22	226.83
1022.51	226.62
1022.79	227.50
1023.08	227.27
1023.36	228.49
1023.65	226.75
>>>>>End Processed Spectral Data<<<<<
