SpectraSuite Data File
++++++++++++++++++++++++++++++++++++
Date: Fri Feb 01 16:06:27 EST 2013
User: group
Dark Spectrum Present: No
Reference Spectrum Present: No
Number of Sampled Component Spectra: 1
Spectrometers: USB2E7196
Integration Time (usec): 35000 (USB2E7196)
Spectra Averaged: 100 (USB2E7196)
Boxcar Smoothing: 10 (USB2E7196)
Correct for Electrical Dark: No (USB2E7196)
Strobe/Lamp Enabled: No (USB2E7196)
Correct for Detector Non-linearity: No (USB2E7196)
Correct for Stray Light: No (USB2E7196)
Number of Pixels in Processed Spectrum: 2048
>>>>>Begin Processed Spectral Data<<<<<
339.09	0.00
339.48	214.87
339.86	216.22
340.24	217.09
340.63	218.98
341.01	221.54
341.39	221.88
341.78	223.08
342.16	224.44
342.54	224.86
342.93	213.00
343.31	223.74
343.69	224.28
344.07	224.73
344.46	225.14
344.84	225.51
345.22	225.78
345.60	226.00
345.99	226.17
346.37	226.25
346.75	226.32
347.13	226.41
347.52	226.47
347.90	226.54
348.28	226.58
348.66	226.61
349.05	226.58
349.43	226.61
349.81	226.65
350.19	226.70
350.57	226.75
350.96	226.82
351.34	226.92
351.72	226.98
352.10	227.07
352.48	227.17
352.87	227.20
353.25	227.25
353.63	227.33
354.01	227.40
354.39	227.50
354.77	227.58
355.15	227.68
355.54	227.71
355.92	227.75
356.30	227.83
356.68	227.96
357.06	228.03
357.44	228.10
357.82	228.14
358.20	228.21
358.58	228.28
358.97	228.33
359.35	228.38
359.73	228.45
360.11	228.55
360.49	228.59
360.87	228.67
361.25	228.72
361.63	228.79
362.01	228.83
362.39	228.88
362.77	228.95
363.15	228.98
363.53	229.00
363.91	229.03
364.29	229.05
364.67	228.97
365.05	229.01
365.43	229.04
365.81	229.09
366.19	229.16
366.57	229.18
366.95	229.19
367.33	229.20
367.71	229.18
368.09	229.17
368.47	229.17
368.85	229.15
369.23	229.15
369.61	229.08
369.99	229.08
370.37	229.04
370.75	229.07
371.13	229.04
371.51	229.02
371.89	229.00
372.27	228.98
372.65	228.95
373.03	228.90
373.41	228.83
373.78	228.74
374.16	228.61
374.54	228.53
374.92	228.44
375.30	228.35
375.68	228.30
376.06	228.22
376.44	228.14
376.82	228.05
377.19	227.97
377.57	227.88
377.95	227.81
378.33	227.74
378.71	227.57
379.09	227.48
379.47	227.42
379.84	227.34
380.22	227.25
380.60	227.20
380.98	227.14
381.36	227.05
381.73	226.98
382.11	226.95
382.49	226.86
382.87	226.81
383.25	226.76
383.62	226.80
384.00	226.73
384.38	226.69
384.76	226.66
385.13	226.66
385.51	226.60
385.89	226.54
386.27	226.50
386.64	226.45
387.02	226.39
387.40	226.34
387.78	226.30
388.15	226.26
388.53	226.21
388.91	226.16
389.29	226.13
389.66	226.12
390.04	226.10
390.42	226.11
390.79	226.07
391.17	226.06
391.55	225.94
391.92	225.96
392.30	225.95
392.68	225.93
393.05	225.90
393.43	225.91
393.81	225.92
394.18	225.91
394.56	225.96
394.94	226.02
395.31	226.03
395.69	226.08
396.06	226.13
396.44	226.18
396.82	226.22
397.19	226.33
397.57	226.37
397.95	226.41
398.32	226.44
398.70	226.53
399.07	226.59
399.45	226.63
399.82	226.68
400.20	226.72
400.58	226.80
400.95	226.86
401.33	226.97
401.70	227.13
402.08	227.20
402.45	227.27
402.83	227.37
403.20	227.47
403.58	227.58
403.95	227.69
404.33	227.81
404.71	227.93
405.08	228.05
405.46	228.20
405.83	228.35
406.21	228.49
406.58	228.66
406.96	228.83
407.33	229.01
407.70	229.21
408.08	229.53
408.45	229.73
408.83	229.96
409.20	230.19
409.58	230.37
409.95	230.64
410.33	230.93
410.70	231.17
411.08	231.48
411.45	231.77
411.82	232.06
412.20	232.40
412.57	232.80
412.95	233.12
413.32	233.54
413.69	233.95
414.07	234.42
414.44	234.89
414.82	235.39
415.19	235.96
415.56	236.49
415.94	236.98
416.31	237.64
416.68	238.26
417.06	238.94
417.43	239.62
417.81	240.38
418.18	241.16
418.55	241.99
418.93	242.85
419.30	243.76
419.67	244.71
420.04	245.62
420.42	246.62
420.79	247.78
421.16	248.90
421.54	250.05
421.91	251.26
422.28	252.48
422.66	253.78
423.03	255.07
423.40	256.41
423.77	257.81
424.15	259.19
424.52	260.70
424.89	262.30
425.26	263.86
425.64	265.34
426.01	266.93
426.38	268.61
426.75	270.29
427.13	272.01
427.50	273.81
427.87	275.73
428.24	277.61
428.61	279.37
428.99	281.31
429.36	283.44
429.73	285.51
430.10	287.53
430.47	289.58
430.85	291.68
431.22	293.92
431.59	296.32
431.96	298.59
432.33	301.03
432.70	303.41
433.08	306.24
433.45	308.91
433.82	311.49
434.19	314.38
434.56	317.19
434.93	319.83
435.30	322.48
435.68	325.36
436.05	328.18
436.42	331.00
436.79	333.53
437.16	336.23
437.53	339.01
437.90	341.85
438.27	344.62
438.64	347.45
439.01	350.04
439.38	352.27
439.75	354.43
440.13	356.97
440.50	359.34
440.87	361.12
441.24	363.01
441.61	365.20
441.98	366.65
442.35	368.45
442.72	370.32
443.09	372.10
443.46	373.10
443.83	373.69
444.20	374.18
444.57	374.98
444.94	375.27
445.31	375.57
445.68	375.89
446.05	375.95
446.42	375.59
446.79	375.15
447.16	374.73
447.53	374.42
447.90	373.22
448.27	372.04
448.64	370.46
449.01	369.32
449.37	367.38
449.74	365.51
450.11	363.25
450.48	360.79
450.85	358.24
451.22	356.11
451.59	354.07
451.96	352.13
452.33	349.55
452.70	347.15
453.07	344.37
453.43	341.49
453.80	338.76
454.17	336.08
454.54	333.59
454.91	330.84
455.28	328.14
455.65	325.65
456.02	323.23
456.38	321.08
456.75	318.44
457.12	316.15
457.49	313.91
457.86	311.77
458.23	309.92
458.59	307.91
458.96	305.82
459.33	303.96
459.70	302.10
460.07	300.63
460.43	298.94
460.80	297.35
461.17	295.88
461.54	294.33
461.91	292.90
462.27	291.43
462.64	290.18
463.01	288.85
463.38	287.60
463.74	286.22
464.11	285.10
464.48	284.09
464.85	282.99
465.21	282.15
465.58	281.20
465.95	280.09
466.32	279.18
466.68	278.30
467.05	277.40
467.42	276.53
467.78	275.58
468.15	274.71
468.52	274.05
468.88	273.21
469.25	272.47
469.62	271.86
469.98	271.20
470.35	270.58
470.72	269.99
471.08	269.36
471.45	268.82
471.82	268.24
472.18	267.64
472.55	267.22
472.92	266.70
473.28	266.27
473.65	265.83
474.02	265.38
474.38	264.98
474.75	264.68
475.11	264.33
475.48	264.07
475.85	263.86
476.21	263.64
476.58	263.47
476.94	263.32
477.31	263.17
477.67	263.03
478.04	262.93
478.41	262.86
478.77	262.88
479.14	262.85
479.50	262.88
479.87	262.94
480.23	262.99
480.60	263.03
480.96	263.10
481.33	263.33
481.69	263.53
482.06	263.77
482.42	263.98
482.79	264.23
483.15	264.55
483.52	264.92
483.88	265.29
484.25	265.72
484.61	266.15
484.98	266.60
485.34	267.17
485.71	267.77
486.07	268.40
486.44	268.97
486.80	269.62
487.17	270.37
487.53	271.14
487.90	271.98
488.26	272.95
488.62	273.96
488.99	274.93
489.35	275.99
489.72	277.09
490.08	278.31
490.44	279.56
490.81	280.89
491.17	282.25
491.54	283.70
491.90	285.17
492.26	286.80
492.63	288.53
492.99	290.28
493.36	292.22
493.72	294.21
494.08	296.28
494.45	298.54
494.81	300.90
495.17	303.35
495.54	305.93
495.90	308.61
496.26	311.41
496.63	314.43
496.99	317.51
497.35	320.80
497.72	324.20
498.08	327.75
498.44	331.36
498.80	335.29
499.17	339.37
499.53	343.56
499.89	347.96
500.26	352.45
500.62	357.13
500.98	362.06
501.34	367.17
501.71	372.53
502.07	378.00
502.43	383.65
502.79	389.50
503.16	395.58
503.52	401.85
503.88	408.26
504.24	414.86
504.60	421.79
504.97	428.93
505.33	436.23
505.69	443.89
506.05	451.74
506.41	459.65
506.78	467.79
507.14	476.30
507.50	485.02
507.86	494.10
508.22	503.30
508.59	512.45
508.95	522.06
509.31	531.94
509.67	542.04
510.03	552.33
510.39	562.89
510.75	573.67
511.12	584.56
511.48	595.86
511.84	607.33
512.20	618.82
512.56	630.75
512.92	642.92
513.28	655.31
513.64	667.82
514.00	680.45
514.37	693.40
514.73	706.42
515.09	719.43
515.45	732.70
515.81	746.31
516.17	760.34
516.53	774.44
516.89	788.57
517.25	802.74
517.61	817.17
517.97	831.60
518.33	846.04
518.69	860.88
519.05	875.91
519.41	891.04
519.77	906.61
520.13	922.08
520.49	937.48
520.85	952.81
521.21	968.49
521.57	984.80
521.93	1000.52
522.29	1016.90
522.65	1033.13
523.01	1049.25
523.37	1065.27
523.73	1081.48
524.09	1097.55
524.45	1113.93
524.81	1130.51
525.17	1147.33
525.53	1164.19
525.89	1181.07
526.25	1197.87
526.61	1214.22
526.97	1230.94
527.33	1247.30
527.68	1263.80
528.04	1280.22
528.40	1296.88
528.76	1313.97
529.12	1330.44
529.48	1347.26
529.84	1363.19
530.20	1379.81
530.56	1396.83
530.91	1414.27
531.27	1430.90
531.63	1447.37
531.99	1463.92
532.35	1479.84
532.71	1495.64
533.07	1511.90
533.42	1527.76
533.78	1543.76
534.14	1560.00
534.50	1575.27
534.86	1591.15
535.21	1606.36
535.57	1622.31
535.93	1637.77
536.29	1652.52
536.65	1667.60
537.00	1682.39
537.36	1697.78
537.72	1712.22
538.08	1726.53
538.44	1740.30
538.79	1754.16
539.15	1767.69
539.51	1781.30
539.87	1795.59
540.22	1809.29
540.58	1823.08
540.94	1836.37
541.29	1849.14
541.65	1861.72
542.01	1874.85
542.37	1887.18
542.72	1899.54
543.08	1911.29
543.44	1923.62
543.79	1934.82
544.15	1945.70
544.51	1957.21
544.87	1968.03
545.22	1978.85
545.58	1989.00
545.94	1998.63
546.29	2008.45
546.65	2018.41
547.01	2027.61
547.36	2036.45
547.72	2044.83
548.07	2052.63
548.43	2060.73
548.79	2068.74
549.14	2076.25
549.50	2083.66
549.86	2091.28
550.21	2098.54
550.57	2105.74
550.92	2112.18
551.28	2119.09
551.64	2126.13
551.99	2132.56
552.35	2138.82
552.70	2144.92
553.06	2151.11
553.41	2157.40
553.77	2163.49
554.13	2169.36
554.48	2175.48
554.84	2180.77
555.19	2186.03
555.55	2191.11
555.90	2195.54
556.26	2200.46
556.61	2205.25
556.97	2209.51
557.32	2213.58
557.68	2217.73
558.03	2221.97
558.39	2225.83
558.74	2230.41
559.10	2234.37
559.45	2238.13
559.81	2242.38
560.16	2246.20
560.52	2249.36
560.87	2252.70
561.23	2255.31
561.58	2258.33
561.94	2260.93
562.29	2263.27
562.64	2265.98
563.00	2268.52
563.35	2272.01
563.71	2275.14
564.06	2278.28
564.42	2281.17
564.77	2283.62
565.12	2285.85
565.48	2287.66
565.83	2289.33
566.19	2290.79
566.54	2291.64
566.89	2292.78
567.25	2293.36
567.60	2294.73
567.96	2296.33
568.31	2297.36
568.66	2298.52
569.02	2299.05
569.37	2299.30
569.72	2300.23
570.08	2300.42
570.43	2300.63
570.78	2300.13
571.14	2298.55
571.49	2297.21
571.84	2296.98
572.20	2295.97
572.55	2295.06
572.90	2293.55
573.26	2292.34
573.61	2290.70
573.96	2288.97
574.31	2286.09
574.67	2283.08
575.02	2279.46
575.37	2276.17
575.72	2272.42
576.08	2269.10
576.43	2265.85
576.78	2262.21
577.13	2259.03
577.49	2256.03
577.84	2252.58
578.19	2248.82
578.54	2245.32
578.90	2241.13
579.25	2235.55
579.60	2230.60
579.95	2225.57
580.30	2220.57
580.66	2215.45
581.01	2210.38
581.36	2205.56
581.71	2201.33
582.06	2196.96
582.42	2192.58
582.77	2187.38
583.12	2182.69
583.47	2178.04
583.82	2173.09
584.17	2167.89
584.53	2162.54
584.88	2156.73
585.23	2150.78
585.58	2145.33
585.93	2139.77
586.28	2135.12
586.63	2130.00
586.98	2124.97
587.34	2120.29
587.69	2115.34
588.04	2109.98
588.39	2104.47
588.74	2098.03
589.09	2091.89
589.44	2085.09
589.79	2079.08
590.14	2073.47
590.49	2066.95
590.84	2060.56
591.19	2054.56
591.54	2048.18
591.89	2040.81
592.25	2034.13
592.60	2027.05
592.95	2019.66
593.30	2012.27
593.65	2004.77
594.00	1997.84
594.35	1990.64
594.70	1982.47
595.05	1975.45
595.40	1968.20
595.75	1960.63
596.10	1954.44
596.45	1947.71
596.80	1941.51
597.15	1934.91
597.50	1927.83
597.85	1921.50
598.19	1914.82
598.54	1907.80
598.89	1901.10
599.24	1895.23
599.59	1888.49
599.94	1882.20
600.29	1875.76
600.64	1869.32
600.99	1861.76
601.34	1854.84
601.69	1847.90
602.04	1841.20
602.39	1833.76
602.74	1826.96
603.08	1820.25
603.43	1813.58
603.78	1806.29
604.13	1799.25
604.48	1791.92
604.83	1785.07
605.18	1778.02
605.53	1770.03
605.87	1761.97
606.22	1754.75
606.57	1746.69
606.92	1739.44
607.27	1732.37
607.62	1725.47
607.96	1718.25
608.31	1711.70
608.66	1704.08
609.01	1696.52
609.36	1688.98
609.70	1681.08
610.05	1673.11
610.40	1665.41
610.75	1656.89
611.10	1649.16
611.44	1640.61
611.79	1632.62
612.14	1623.89
612.49	1614.78
612.83	1606.41
613.18	1598.26
613.53	1590.20
613.88	1581.64
614.22	1573.48
614.57	1564.91
614.92	1556.84
615.27	1549.29
615.61	1540.80
615.96	1532.81
616.31	1525.12
616.65	1517.64
617.00	1510.04
617.35	1502.40
617.70	1494.02
618.04	1485.61
618.39	1477.46
618.74	1469.93
619.08	1461.58
619.43	1453.98
619.78	1446.99
620.12	1439.77
620.47	1432.29
620.82	1424.04
621.16	1416.70
621.51	1409.11
621.85	1401.46
622.20	1392.95
622.55	1384.51
622.89	1376.76
623.24	1369.05
623.59	1361.72
623.93	1354.20
624.28	1346.93
624.62	1339.24
624.97	1332.04
625.32	1325.20
625.66	1318.23
626.01	1310.95
626.35	1303.53
626.70	1295.81
627.04	1288.13
627.39	1280.44
627.73	1273.03
628.08	1266.21
628.43	1258.80
628.77	1251.28
629.12	1243.64
629.46	1236.55
629.81	1229.14
630.15	1221.96
630.50	1214.63
630.84	1206.36
631.19	1198.44
631.53	1191.00
631.88	1183.35
632.22	1175.79
632.57	1168.49
632.91	1160.85
633.26	1153.48
633.60	1146.07
633.95	1139.03
634.29	1131.92
634.64	1125.15
634.98	1117.75
635.32	1110.52
635.67	1104.00
636.01	1097.39
636.36	1090.61
636.70	1083.98
637.05	1077.43
637.39	1070.92
637.73	1064.47
638.08	1058.61
638.42	1052.64
638.77	1046.12
639.11	1039.67
639.45	1033.29
639.80	1026.68
640.14	1020.28
640.49	1013.71
640.83	1007.49
641.17	1001.17
641.52	994.81
641.86	988.34
642.20	982.43
642.55	976.07
642.89	969.58
643.23	963.00
643.58	957.30
643.92	951.11
644.26	945.07
644.61	938.97
644.95	932.90
645.29	926.34
645.64	919.58
645.98	913.24
646.32	907.43
646.66	901.41
647.01	895.58
647.35	889.78
647.69	883.93
648.04	878.30
648.38	872.52
648.72	866.60
649.06	860.65
649.41	854.86
649.75	848.90
650.09	842.97
650.43	837.20
650.78	830.97
651.12	825.07
651.46	819.26
651.80	813.49
652.14	808.11
652.49	802.76
652.83	797.58
653.17	791.86
653.51	786.09
653.85	780.68
654.20	775.03
654.54	769.06
654.88	763.39
655.22	757.55
655.56	751.85
655.90	746.43
656.25	741.13
656.59	735.70
656.93	730.70
657.27	725.53
657.61	720.13
657.95	715.08
658.29	709.98
658.64	704.76
658.98	699.48
659.32	693.98
659.66	688.77
660.00	683.41
660.34	678.49
660.68	673.57
661.02	668.53
661.36	663.84
661.70	659.38
662.05	654.94
662.39	650.59
662.73	646.11
663.07	641.66
663.41	637.17
663.75	632.69
664.09	628.07
664.43	623.63
664.77	619.49
665.11	615.22
665.45	611.02
665.79	606.94
666.13	602.81
666.47	598.73
666.81	594.52
667.15	590.48
667.49	586.58
667.83	582.77
668.17	578.78
668.51	574.66
668.85	570.60
669.19	566.77
669.53	562.89
669.87	559.06
670.21	555.40
670.55	551.79
670.89	548.39
671.23	544.95
671.57	541.50
671.91	537.93
672.25	534.41
672.58	530.95
672.92	527.48
673.26	524.31
673.60	521.14
673.94	518.07
674.28	515.15
674.62	512.20
674.96	509.13
675.30	506.28
675.64	503.37
675.97	500.63
676.31	497.76
676.65	494.85
676.99	492.15
677.33	489.27
677.67	486.42
678.01	483.33
678.34	480.33
678.68	477.40
679.02	474.62
679.36	471.88
679.70	469.12
680.04	466.39
680.37	463.56
680.71	460.71
681.05	458.08
681.39	455.37
681.73	452.73
682.06	450.16
682.40	447.59
682.74	445.09
683.08	442.55
683.42	439.94
683.75	437.42
684.09	434.82
684.43	432.35
684.77	429.92
685.10	427.59
685.44	425.28
685.78	423.02
686.12	420.74
686.45	418.44
686.79	416.13
687.13	413.98
687.46	411.77
687.80	409.65
688.14	407.36
688.48	405.25
688.81	402.98
689.15	400.85
689.49	398.69
689.82	396.60
690.16	394.45
690.50	392.56
690.83	390.59
691.17	388.63
691.51	386.71
691.84	384.85
692.18	382.89
692.52	380.92
692.85	378.96
693.19	377.09
693.52	375.25
693.86	373.44
694.20	371.59
694.53	369.83
694.87	367.96
695.21	366.21
695.54	364.39
695.88	362.65
696.21	360.90
696.55	359.22
696.88	357.48
697.22	355.88
697.56	354.20
697.89	352.56
698.23	350.94
698.56	349.37
698.90	347.78
699.23	346.16
699.57	344.62
699.90	343.09
700.24	341.54
700.58	340.03
700.91	338.54
701.25	337.12
701.58	335.72
701.92	334.38
702.25	333.00
702.59	331.65
702.92	330.37
703.26	329.06
703.59	327.77
703.93	326.58
704.26	325.33
704.60	324.04
704.93	322.80
705.26	321.54
705.60	320.33
705.93	319.16
706.27	318.12
706.60	317.05
706.94	315.96
707.27	314.84
707.61	313.73
707.94	312.71
708.27	311.62
708.61	310.54
708.94	309.53
709.28	308.55
709.61	307.59
709.94	306.64
710.28	305.60
710.61	304.63
710.95	303.58
711.28	302.66
711.61	301.70
711.95	300.80
712.28	299.87
712.61	298.90
712.95	297.97
713.28	297.09
713.61	296.21
713.95	295.31
714.28	294.45
714.61	293.58
714.95	292.71
715.28	291.85
715.61	290.98
715.95	290.11
716.28	289.28
716.61	288.45
716.95	287.61
717.28	286.89
717.61	286.09
717.94	285.35
718.28	284.53
718.61	283.83
718.94	283.14
719.27	282.46
719.61	281.83
719.94	281.18
720.27	280.43
720.60	279.78
720.94	279.16
721.27	278.61
721.60	278.07
721.93	277.46
722.27	276.92
722.60	276.37
722.93	275.84
723.26	275.26
723.59	274.72
723.93	274.15
724.26	273.59
724.59	273.06
724.92	272.51
725.25	272.05
725.59	271.53
725.92	271.03
726.25	270.52
726.58	270.00
726.91	269.50
727.24	269.04
727.57	268.56
727.91	268.04
728.24	267.60
728.57	267.10
728.90	266.69
729.23	266.20
729.56	265.77
729.89	265.30
730.22	264.84
730.55	264.39
730.89	263.94
731.22	263.51
731.55	263.06
731.88	262.66
732.21	262.19
732.54	261.74
732.87	261.28
733.20	260.89
733.53	260.50
733.86	260.08
734.19	259.69
734.52	259.34
734.85	259.06
735.18	258.58
735.51	258.22
735.84	257.84
736.17	257.50
736.50	257.12
736.83	256.88
737.16	256.53
737.49	256.20
737.82	255.89
738.15	255.58
738.48	255.25
738.81	254.92
739.14	254.61
739.47	254.26
739.80	253.95
740.13	253.60
740.46	253.30
740.79	252.97
741.12	252.63
741.45	252.29
741.78	251.91
742.11	251.66
742.44	251.31
742.77	251.02
743.10	250.71
743.43	250.37
743.75	249.99
744.08	249.83
744.41	249.50
744.74	249.24
745.07	248.90
745.40	248.68
745.73	248.42
746.06	248.18
746.39	247.94
746.71	247.69
747.04	247.46
747.37	247.20
747.70	246.95
748.03	246.72
748.36	246.49
748.68	246.25
749.01	246.00
749.34	245.78
749.67	245.54
750.00	245.33
750.33	245.17
750.65	244.94
750.98	244.61
751.31	244.44
751.64	244.21
751.97	244.08
752.29	243.89
752.62	243.68
752.95	243.46
753.28	243.25
753.60	243.02
753.93	242.84
754.26	242.64
754.59	242.42
754.91	242.23
755.24	242.04
755.57	241.89
755.90	241.72
756.22	241.54
756.55	241.35
756.88	241.14
757.20	240.95
757.53	240.79
757.86	240.62
758.19	240.45
758.51	240.29
758.84	240.06
759.17	239.88
759.49	239.69
759.82	239.56
760.15	239.42
760.47	239.30
760.80	239.10
761.13	239.02
761.45	238.87
761.78	238.71
762.11	238.56
762.43	238.38
762.76	238.20
763.08	238.03
763.41	237.93
763.74	237.81
764.06	237.65
764.39	237.48
764.71	237.35
765.04	237.21
765.37	237.05
765.69	236.95
766.02	236.79
766.34	236.64
766.67	236.50
767.00	236.39
767.32	236.35
767.65	236.32
767.97	236.17
768.30	236.07
768.62	235.97
768.95	235.89
769.27	235.78
769.60	235.69
769.92	235.61
770.25	235.45
770.57	235.31
770.90	235.20
771.22	235.06
771.55	234.97
771.87	234.86
772.20	234.79
772.52	234.76
772.85	234.81
773.17	234.72
773.50	234.62
773.82	234.51
774.15	234.33
774.47	234.15
774.80	234.05
775.12	233.97
775.45	233.86
775.77	233.75
776.09	233.66
776.42	233.59
776.74	233.49
777.07	233.42
777.39	233.36
777.72	233.32
778.04	233.28
778.36	233.20
778.69	233.12
779.01	233.04
779.33	232.90
779.66	232.72
779.98	232.66
780.31	232.58
780.63	232.58
780.95	232.54
781.28	232.47
781.60	232.38
781.92	232.31
782.25	232.23
782.57	232.15
782.89	232.07
783.22	232.02
783.54	231.93
783.86	231.86
784.19	231.79
784.51	231.72
784.83	231.66
785.16	231.59
785.48	231.55
785.80	231.53
786.12	231.47
786.45	231.42
786.77	231.38
787.09	231.34
787.42	231.20
787.74	231.17
788.06	231.13
788.38	231.11
788.71	231.02
789.03	231.00
789.35	230.98
789.67	230.93
789.99	230.89
790.32	230.85
790.64	230.86
790.96	230.93
791.28	230.86
791.61	230.80
791.93	230.76
792.25	230.71
792.57	230.71
792.89	230.65
793.21	230.63
793.54	230.63
793.86	230.57
794.18	230.56
794.50	230.50
794.82	230.46
795.14	230.44
795.47	230.47
795.79	230.47
796.11	230.42
796.43	230.38
796.75	230.35
797.07	230.37
797.39	230.32
797.71	230.19
798.04	230.15
798.36	230.13
798.68	230.10
799.00	230.05
799.32	229.97
799.64	229.97
799.96	229.93
800.28	229.88
800.60	229.82
800.92	229.80
801.24	229.80
801.56	229.80
801.89	229.75
802.21	229.74
802.53	229.67
802.85	229.67
803.17	229.68
803.49	229.64
803.81	229.58
804.13	229.53
804.45	229.51
804.77	229.50
805.09	229.50
805.41	229.47
805.73	229.43
806.05	229.41
806.37	229.37
806.69	229.32
807.01	229.32
807.33	229.33
807.65	229.30
807.97	229.31
808.28	229.28
808.60	229.25
808.92	229.19
809.24	229.24
809.56	229.21
809.88	229.18
810.20	229.19
810.52	229.19
810.84	229.15
811.16	229.12
811.48	229.06
811.80	229.05
812.12	229.04
812.43	229.01
812.75	228.96
813.07	228.93
813.39	228.91
813.71	228.84
814.03	228.82
814.35	228.80
814.67	228.71
814.98	228.67
815.30	228.67
815.62	228.64
815.94	228.54
816.26	228.57
816.58	228.52
816.89	228.49
817.21	228.44
817.53	228.41
817.85	228.43
818.17	228.45
818.48	228.36
818.80	228.38
819.12	228.38
819.44	228.32
819.76	228.27
820.07	228.26
820.39	228.24
820.71	228.20
821.03	228.17
821.34	228.15
821.66	228.13
821.98	228.09
822.30	228.06
822.61	228.07
822.93	228.00
823.25	228.00
823.57	227.96
823.88	228.01
824.20	228.04
824.52	228.04
824.83	228.03
825.15	228.04
825.47	227.99
825.79	227.99
826.10	227.99
826.42	228.01
826.74	227.98
827.05	227.98
827.37	228.00
827.69	227.98
828.00	227.99
828.32	228.00
828.64	227.97
828.95	228.00
829.27	227.98
829.58	227.97
829.90	227.95
830.22	227.97
830.53	227.91
830.85	227.87
831.17	227.83
831.48	227.77
831.80	227.75
832.11	227.76
832.43	227.73
832.75	227.76
833.06	227.79
833.38	227.81
833.69	227.80
834.01	227.77
834.32	227.75
834.64	227.73
834.96	227.69
835.27	227.71
835.59	227.68
835.90	227.68
836.22	227.68
836.53	227.65
836.85	227.64
837.16	227.74
837.48	227.76
837.79	227.76
838.11	227.80
838.42	227.81
838.74	227.82
839.05	227.83
839.37	227.81
839.68	227.78
840.00	227.74
840.31	227.77
840.63	227.74
840.94	227.75
841.26	227.75
841.57	227.77
841.88	227.79
842.20	227.81
842.51	227.80
842.83	227.80
843.14	227.89
843.46	227.89
843.77	227.84
844.08	227.82
844.40	227.79
844.71	227.76
845.03	227.73
845.34	227.72
845.65	227.70
845.97	227.72
846.28	227.68
846.60	227.69
846.91	227.67
847.22	227.66
847.54	227.69
847.85	227.66
848.16	227.62
848.48	227.57
848.79	227.58
849.10	227.56
849.42	227.56
849.73	227.44
850.04	227.44
850.36	227.37
850.67	227.34
850.98	227.34
851.30	227.33
851.61	227.37
851.92	227.33
852.23	227.37
852.55	227.31
852.86	227.33
853.17	227.33
853.49	227.34
853.80	227.39
854.11	227.34
854.42	227.39
854.74	227.39
855.05	227.41
855.36	227.34
855.67	227.33
855.99	227.31
856.30	227.44
856.61	227.39
856.92	227.38
857.23	227.38
857.55	227.36
857.86	227.34
858.17	227.31
858.48	227.28
858.79	227.24
859.11	227.28
859.42	227.25
859.73	227.18
860.04	227.15
860.35	227.11
860.66	227.07
860.98	227.02
861.29	227.03
861.60	226.99
861.91	227.00
862.22	227.01
862.53	226.98
862.84	226.87
863.16	226.92
863.47	226.91
863.78	226.90
864.09	226.91
864.40	226.95
864.71	226.94
865.02	226.97
865.33	226.95
865.64	226.91
865.95	226.90
866.27	226.96
866.58	226.96
866.89	226.93
867.20	226.92
867.51	226.90
867.82	226.90
868.13	226.94
868.44	226.92
868.75	226.92
869.06	226.93
869.37	226.93
869.68	226.91
869.99	226.93
870.30	226.93
870.61	226.94
870.92	226.92
871.23	226.91
871.54	226.90
871.85	226.93
872.16	226.95
872.47	226.94
872.78	226.89
873.09	226.90
873.40	226.91
873.71	226.93
874.02	226.98
874.33	226.95
874.64	226.93
874.95	226.98
875.26	226.97
875.56	226.96
875.87	226.93
876.18	226.93
876.49	227.02
876.80	227.02
877.11	227.01
877.42	227.00
877.73	227.03
878.04	227.03
878.35	227.02
878.66	227.06
878.96	227.09
879.27	227.08
879.58	227.08
879.89	227.06
880.20	227.10
880.51	227.06
880.82	227.07
881.12	227.06
881.43	227.04
881.74	227.02
882.05	227.04
882.36	227.04
882.67	227.07
882.97	226.93
883.28	226.90
883.59	226.91
883.90	226.94
884.21	226.94
884.51	226.93
884.82	226.90
885.13	226.88
885.44	226.88
885.74	226.91
886.05	226.88
886.36	226.92
886.67	226.88
886.98	226.94
887.28	226.95
887.59	226.97
887.90	226.96
888.20	226.95
888.51	226.94
888.82	226.96
889.13	226.94
889.43	227.04
889.74	227.02
890.05	226.99
890.35	226.95
890.66	226.92
890.97	226.90
891.28	226.91
891.58	226.92
891.89	226.90
892.20	226.87
892.50	226.85
892.81	226.84
893.12	226.84
893.42	226.79
893.73	226.80
894.04	226.77
894.34	226.76
894.65	226.78
894.95	226.76
895.26	226.75
895.57	226.78
895.87	226.69
896.18	226.72
896.48	226.73
896.79	226.75
897.10	226.76
897.40	226.73
897.71	226.71
898.01	226.71
898.32	226.73
898.63	226.71
898.93	226.73
899.24	226.73
899.54	226.72
899.85	226.69
900.15	226.70
900.46	226.73
900.76	226.73
901.07	226.70
901.38	226.70
901.68	226.68
901.99	226.65
902.29	226.65
902.60	226.62
902.90	226.60
903.21	226.59
903.51	226.56
903.82	226.60
904.12	226.64
904.43	226.61
904.73	226.58
905.03	226.61
905.34	226.71
905.64	226.73
905.95	226.70
906.25	226.75
906.56	226.74
906.86	226.72
907.17	226.74
907.47	226.75
907.77	226.76
908.08	226.76
908.38	226.79
908.69	226.82
908.99	226.88
909.30	226.90
909.60	226.90
909.90	226.93
910.21	226.90
910.51	226.86
910.81	226.89
911.12	226.90
911.42	226.91
911.73	226.81
912.03	226.80
912.33	226.84
912.64	226.81
912.94	226.78
913.24	226.80
913.55	226.78
913.85	226.77
914.15	226.78
914.46	226.81
914.76	226.78
915.06	226.75
915.37	226.72
915.67	226.71
915.97	226.71
916.27	226.70
916.58	226.74
916.88	226.74
917.18	226.73
917.49	226.80
917.79	226.79
918.09	226.81
918.39	226.81
918.70	226.83
919.00	226.85
919.30	226.92
919.60	226.91
919.91	226.91
920.21	226.94
920.51	226.93
920.81	226.91
921.12	226.95
921.42	227.00
921.72	227.01
922.02	227.04
922.32	227.03
922.63	227.03
922.93	227.04
923.23	227.08
923.53	227.06
923.83	226.98
924.13	226.98
924.44	226.95
924.74	226.99
925.04	227.02
925.34	227.00
925.64	226.94
925.94	226.93
926.24	226.96
926.55	226.96
926.85	226.96
927.15	226.96
927.45	226.92
927.75	226.88
928.05	226.85
928.35	226.83
928.65	226.87
928.95	226.88
929.26	226.82
929.56	226.81
929.86	226.85
930.16	226.86
930.46	226.86
930.76	226.89
931.06	226.82
931.36	226.76
931.66	226.76
931.96	226.74
932.26	226.70
932.56	226.68
932.86	226.70
933.16	226.70
933.46	226.65
933.76	226.62
934.06	226.63
934.36	226.66
934.66	226.63
934.96	226.62
935.26	226.60
935.56	226.65
935.86	226.62
936.16	226.57
936.46	226.51
936.76	226.52
937.06	226.47
937.36	226.47
937.66	226.45
937.96	226.47
938.26	226.47
938.56	226.53
938.86	226.50
939.16	226.44
939.46	226.47
939.76	226.49
940.06	226.50
940.35	226.46
940.65	226.42
940.95	226.42
941.25	226.39
941.55	226.39
941.85	226.36
942.15	226.39
942.45	226.43
942.75	226.46
943.04	226.45
943.34	226.51
943.64	226.49
943.94	226.47
944.24	226.47
944.54	226.45
944.84	226.43
945.13	226.42
945.43	226.45
945.73	226.42
946.03	226.43
946.33	226.42
946.62	226.44
946.92	226.42
947.22	226.42
947.52	226.42
947.82	226.42
948.11	226.40
948.41	226.34
948.71	226.33
949.01	226.32
949.31	226.30
949.60	226.28
949.90	226.35
950.20	226.38
950.50	226.35
950.79	226.39
951.09	226.39
951.39	226.41
951.69	226.43
951.98	226.43
952.28	226.43
952.58	226.42
952.87	226.43
953.17	226.48
953.47	226.48
953.76	226.48
954.06	226.50
954.36	226.52
954.66	226.54
954.95	226.55
955.25	226.56
955.55	226.57
955.84	226.57
956.14	226.58
956.44	226.56
956.73	226.57
957.03	226.59
957.32	226.57
957.62	226.53
957.92	226.53
958.21	226.55
958.51	226.66
958.81	226.68
959.10	226.69
959.40	226.71
959.69	226.70
959.99	226.73
960.29	226.73
960.58	226.72
960.88	226.75
961.17	226.71
961.47	226.77
961.76	226.75
962.06	226.73
962.36	226.70
962.65	226.70
962.95	226.68
963.24	226.65
963.54	226.65
963.83	226.69
964.13	226.69
964.42	226.68
964.72	226.57
965.01	226.58
965.31	226.56
965.60	226.54
965.90	226.61
966.19	226.60
966.49	226.60
966.78	226.59
967.08	226.58
967.37	226.62
967.67	226.56
967.96	226.58
968.26	226.58
968.55	226.62
968.85	226.60
969.14	226.60
969.43	226.57
969.73	226.58
970.02	226.56
970.32	226.51
970.61	226.45
970.91	226.44
971.20	226.42
971.49	226.42
971.79	226.39
972.08	226.32
972.38	226.32
972.67	226.31
972.96	226.29
973.26	226.26
973.55	226.27
973.85	226.32
974.14	226.30
974.43	226.33
974.73	226.27
975.02	226.29
975.31	226.28
975.61	226.29
975.90	226.27
976.19	226.25
976.49	226.27
976.78	226.32
977.07	226.31
977.37	226.32
977.66	226.33
977.95	226.31
978.24	226.31
978.54	226.30
978.83	226.30
979.12	226.33
979.42	226.34
979.71	226.32
980.00	226.32
980.29	226.32
980.59	226.33
980.88	226.40
981.17	226.38
981.46	226.43
981.76	226.47
982.05	226.53
982.34	226.53
982.63	226.55
982.93	226.52
983.22	226.58
983.51	226.58
983.80	226.60
984.09	226.65
984.39	226.66
984.68	226.65
984.97	226.67
985.26	226.71
985.55	226.69
985.85	226.69
986.14	226.70
986.43	226.74
986.72	226.73
987.01	226.68
987.30	226.72
987.59	226.71
987.89	226.71
988.18	226.68
988.47	226.72
988.76	226.72
989.05	226.75
989.34	226.70
989.63	226.72
989.92	226.71
990.22	226.70
990.51	226.72
990.80	226.73
991.09	226.74
991.38	226.74
991.67	226.77
991.96	226.76
992.25	226.76
992.54	226.71
992.83	226.70
993.12	226.69
993.41	226.64
993.70	226.67
993.99	226.71
994.28	226.72
994.58	226.75
994.87	226.73
995.16	226.72
995.45	226.72
995.74	226.68
996.03	226.68
996.32	226.72
996.61	226.73
996.90	226.72
997.19	226.71
997.48	226.69
997.77	226.67
998.06	226.68
998.34	226.67
998.63	226.67
998.92	226.65
999.21	226.69
999.50	226.76
999.79	226.68
1000.08	226.63
1000.37	226.59
1000.66	226.55
1000.95	226.57
1001.24	226.58
1001.53	226.60
1001.82	226.61
1002.11	226.57
1002.40	226.56
1002.68	226.57
1002.97	226.63
1003.26	226.61
1003.55	226.57
1003.84	226.57
1004.13	226.57
1004.42	226.58
1004.71	226.57
1004.99	226.53
1005.28	226.52
1005.57	226.44
1005.86	226.45
1006.15	226.44
1006.44	226.42
1006.72	226.44
1007.01	226.44
1007.30	226.43
1007.59	226.41
1007.88	226.39
1008.17	226.42
1008.45	226.37
1008.74	226.32
1009.03	226.31
1009.32	226.30
1009.60	226.28
1009.89	226.26
1010.18	226.22
1010.47	226.18
1010.76	226.16
1011.04	226.20
1011.33	226.25
1011.62	226.30
1011.91	226.29
1012.19	226.30
1012.48	226.29
1012.77	226.25
1013.05	226.26
1013.34	226.24
1013.63	226.24
1013.92	226.23
1014.20	226.22
1014.49	226.22
1014.78	226.22
1015.06	226.17
1015.35	226.19
1015.64	226.23
1015.92	226.25
1016.21	226.30
1016.50	226.31
1016.78	226.34
1017.07	226.36
1017.36	226.30
1017.64	226.27
1017.93	226.31
1018.22	226.31
1018.50	226.33
1018.79	226.34
1019.08	226.29
1019.36	226.34
1019.65	226.33
1019.93	226.37
1020.22	226.38
1020.51	226.46
1020.79	226.47
1021.08	226.37
1021.36	226.27
1021.65	226.16
1021.94	225.98
1022.22	226.97
1022.51	226.11
1022.79	226.68
1023.08	226.39
1023.36	227.70
1023.65	226.36
>>>>>End Processed Spectral Data<<<<<
