SpectraSuite Data File
++++++++++++++++++++++++++++++++++++
Date: Fri Feb 01 16:14:28 EST 2013
User: group
Dark Spectrum Present: No
Reference Spectrum Present: No
Number of Sampled Component Spectra: 1
Spectrometers: USB2E7196
Integration Time (usec): 35000 (USB2E7196)
Spectra Averaged: 100 (USB2E7196)
Boxcar Smoothing: 10 (USB2E7196)
Correct for Electrical Dark: No (USB2E7196)
Strobe/Lamp Enabled: No (USB2E7196)
Correct for Detector Non-linearity: No (USB2E7196)
Correct for Stray Light: No (USB2E7196)
Number of Pixels in Processed Spectrum: 2048
>>>>>Begin Processed Spectral Data<<<<<
339.09	0.00
339.48	213.78
339.86	215.79
340.24	217.23
340.63	218.83
341.01	221.28
341.39	221.21
341.78	222.93
342.16	223.66
342.54	224.89
342.93	212.73
343.31	223.47
343.69	224.03
344.07	224.50
344.46	224.93
344.84	225.28
345.22	225.52
345.60	225.78
345.99	225.94
346.37	226.07
346.75	226.12
347.13	226.17
347.52	226.26
347.90	226.30
348.28	226.32
348.66	226.37
349.05	226.34
349.43	226.36
349.81	226.44
350.19	226.49
350.57	226.54
350.96	226.60
351.34	226.68
351.72	226.77
352.10	226.83
352.48	226.89
352.87	226.95
353.25	227.01
353.63	227.04
354.01	227.12
354.39	227.19
354.77	227.26
355.15	227.36
355.54	227.42
355.92	227.44
356.30	227.55
356.68	227.68
357.06	227.77
357.44	227.83
357.82	227.87
358.20	227.89
358.58	227.93
358.97	227.96
359.35	228.03
359.73	228.11
360.11	228.19
360.49	228.26
360.87	228.29
361.25	228.34
361.63	228.42
362.01	228.45
362.39	228.49
362.77	228.54
363.15	228.57
363.53	228.60
363.91	228.68
364.29	228.69
364.67	228.59
365.05	228.62
365.43	228.62
365.81	228.67
366.19	228.73
366.57	228.78
366.95	228.78
367.33	228.75
367.71	228.77
368.09	228.75
368.47	228.72
368.85	228.71
369.23	228.73
369.61	228.67
369.99	228.66
370.37	228.59
370.75	228.63
371.13	228.56
371.51	228.50
371.89	228.45
372.27	228.38
372.65	228.31
373.03	228.26
373.41	228.22
373.78	228.14
374.16	228.04
374.54	227.98
374.92	227.90
375.30	227.86
375.68	227.74
376.06	227.68
376.44	227.62
376.82	227.55
377.19	227.47
377.57	227.42
377.95	227.34
378.33	227.31
378.71	227.18
379.09	227.12
379.47	227.04
379.84	226.95
380.22	226.90
380.60	226.83
380.98	226.78
381.36	226.75
381.73	226.69
382.11	226.65
382.49	226.53
382.87	226.45
383.25	226.37
383.62	226.40
384.00	226.34
384.38	226.27
384.76	226.21
385.13	226.19
385.51	226.15
385.89	226.07
386.27	226.04
386.64	225.99
387.02	225.95
387.40	225.92
387.78	225.89
388.15	225.85
388.53	225.84
388.91	225.78
389.29	225.68
389.66	225.64
390.04	225.58
390.42	225.59
390.79	225.59
391.17	225.57
391.55	225.46
391.92	225.42
392.30	225.43
392.68	225.43
393.05	225.42
393.43	225.40
393.81	225.43
394.18	225.41
394.56	225.42
394.94	225.46
395.31	225.50
395.69	225.55
396.06	225.59
396.44	225.62
396.82	225.64
397.19	225.76
397.57	225.80
397.95	225.88
398.32	225.90
398.70	225.95
399.07	226.04
399.45	226.10
399.82	226.19
400.20	226.23
400.58	226.28
400.95	226.32
401.33	226.40
401.70	226.55
402.08	226.66
402.45	226.73
402.83	226.81
403.20	226.88
403.58	227.01
403.95	227.15
404.33	227.26
404.71	227.39
405.08	227.57
405.46	227.69
405.83	227.84
406.21	228.00
406.58	228.18
406.96	228.32
407.33	228.50
407.70	228.68
408.08	228.99
408.45	229.23
408.83	229.48
409.20	229.74
409.58	229.93
409.95	230.17
410.33	230.46
410.70	230.73
411.08	231.04
411.45	231.32
411.82	231.62
412.20	231.99
412.57	232.41
412.95	232.69
413.32	233.13
413.69	233.55
414.07	234.02
414.44	234.50
414.82	235.00
415.19	235.58
415.56	236.16
415.94	236.70
416.31	237.35
416.68	237.97
417.06	238.62
417.43	239.30
417.81	240.08
418.18	240.87
418.55	241.71
418.93	242.60
419.30	243.48
419.67	244.44
420.04	245.38
420.42	246.38
420.79	247.55
421.16	248.69
421.54	249.85
421.91	251.04
422.28	252.29
422.66	253.64
423.03	254.95
423.40	256.23
423.77	257.60
424.15	259.00
424.52	260.48
424.89	262.12
425.26	263.72
425.64	265.15
426.01	266.73
426.38	268.39
426.75	270.06
427.13	271.79
427.50	273.57
427.87	275.44
428.24	277.28
428.61	279.03
428.99	280.98
429.36	283.07
429.73	285.12
430.10	287.13
430.47	289.18
430.85	291.29
431.22	293.51
431.59	295.94
431.96	298.16
432.33	300.62
432.70	302.97
433.08	305.73
433.45	308.36
433.82	310.94
434.19	313.78
434.56	316.63
434.93	319.27
435.30	321.84
435.68	324.71
436.05	327.54
436.42	330.29
436.79	332.82
437.16	335.50
437.53	338.36
437.90	341.14
438.27	343.80
438.64	346.60
439.01	349.21
439.38	351.41
439.75	353.62
440.13	356.13
440.50	358.44
440.87	360.27
441.24	362.22
441.61	364.42
441.98	365.88
442.35	367.61
442.72	369.45
443.09	371.24
443.46	372.25
443.83	372.79
444.20	373.32
444.57	374.11
444.94	374.41
445.31	374.68
445.68	375.03
446.05	375.15
446.42	374.80
446.79	374.38
447.16	373.87
447.53	373.51
447.90	372.36
448.27	371.22
448.64	369.64
449.01	368.50
449.37	366.48
449.74	364.66
450.11	362.39
450.48	359.94
450.85	357.43
451.22	355.29
451.59	353.30
451.96	351.34
452.33	348.77
452.70	346.42
453.07	343.61
453.43	340.72
453.80	337.95
454.17	335.22
454.54	332.68
454.91	330.01
455.28	327.37
455.65	324.88
456.02	322.43
456.38	320.27
456.75	317.58
457.12	315.33
457.49	313.04
457.86	310.90
458.23	309.06
458.59	307.04
458.96	304.98
459.33	303.13
459.70	301.27
460.07	299.76
460.43	298.04
460.80	296.44
461.17	295.02
461.54	293.58
461.91	292.19
462.27	290.76
462.64	289.53
463.01	288.17
463.38	286.89
463.74	285.55
464.11	284.43
464.48	283.46
464.85	282.40
465.21	281.57
465.58	280.66
465.95	279.55
466.32	278.67
466.68	277.74
467.05	276.86
467.42	275.97
467.78	275.06
468.15	274.23
468.52	273.63
468.88	272.80
469.25	272.02
469.62	271.39
469.98	270.74
470.35	270.12
470.72	269.53
471.08	268.87
471.45	268.37
471.82	267.83
472.18	267.25
472.55	266.84
472.92	266.34
473.28	265.90
473.65	265.47
474.02	265.06
474.38	264.72
474.75	264.42
475.11	264.11
475.48	263.87
475.85	263.63
476.21	263.37
476.58	263.22
476.94	263.09
477.31	262.96
477.67	262.82
478.04	262.71
478.41	262.68
478.77	262.76
479.14	262.70
479.50	262.69
479.87	262.74
480.23	262.83
480.60	262.91
480.96	263.00
481.33	263.21
481.69	263.41
482.06	263.65
482.42	263.82
482.79	264.08
483.15	264.39
483.52	264.76
483.88	265.08
484.25	265.43
484.61	265.86
484.98	266.31
485.34	266.85
485.71	267.44
486.07	268.01
486.44	268.56
486.80	269.21
487.17	269.97
487.53	270.81
487.90	271.64
488.26	272.60
488.62	273.58
488.99	274.56
489.35	275.56
489.72	276.66
490.08	277.90
490.44	279.17
490.81	280.48
491.17	281.81
491.54	283.32
491.90	284.81
492.26	286.45
492.63	288.17
492.99	289.95
493.36	291.83
493.72	293.88
494.08	295.97
494.45	298.27
494.81	300.61
495.17	303.00
495.54	305.53
495.90	308.20
496.26	311.00
496.63	313.95
496.99	317.09
497.35	320.35
497.72	323.77
498.08	327.28
498.44	330.96
498.80	334.92
499.17	338.97
499.53	343.18
499.89	347.52
500.26	352.03
500.62	356.69
500.98	361.65
501.34	366.71
501.71	372.07
502.07	377.48
502.43	383.09
502.79	388.96
503.16	395.09
503.52	401.35
503.88	407.79
504.24	414.40
504.60	421.28
504.97	428.42
505.33	435.70
505.69	443.39
506.05	451.16
506.41	459.08
506.78	467.19
507.14	475.67
507.50	484.42
507.86	493.41
508.22	502.64
508.59	511.83
508.95	521.42
509.31	531.18
509.67	541.31
510.03	551.61
510.39	562.19
510.75	572.98
511.12	583.88
511.48	595.22
511.84	606.71
512.20	618.26
512.56	630.26
512.92	642.42
513.28	654.76
513.64	667.30
514.00	679.97
514.37	692.93
514.73	705.95
515.09	718.93
515.45	732.20
515.81	745.74
516.17	759.79
516.53	773.87
516.89	788.07
517.25	802.21
517.61	816.57
517.97	830.99
518.33	845.47
518.69	860.24
519.05	875.17
519.41	890.29
519.77	905.83
520.13	921.22
520.49	936.53
520.85	951.82
521.21	967.38
521.57	983.58
521.93	999.28
522.29	1015.61
522.65	1031.85
523.01	1048.01
523.37	1064.01
523.73	1080.04
524.09	1096.09
524.45	1112.32
524.81	1128.87
525.17	1145.67
525.53	1162.47
525.89	1179.22
526.25	1196.10
526.61	1212.38
526.97	1229.04
527.33	1245.40
527.68	1261.93
528.04	1278.45
528.40	1295.10
528.76	1312.10
529.12	1328.68
529.48	1345.54
529.84	1361.48
530.20	1378.00
530.56	1394.84
530.91	1412.23
531.27	1429.00
531.63	1445.45
531.99	1461.99
532.35	1477.85
532.71	1493.70
533.07	1509.87
533.42	1525.75
533.78	1541.59
534.14	1557.83
534.50	1573.11
534.86	1588.83
535.21	1603.92
535.57	1619.69
535.93	1635.09
536.29	1649.85
536.65	1664.78
537.00	1679.47
537.36	1694.79
537.72	1709.27
538.08	1723.80
538.44	1737.40
538.79	1751.17
539.15	1764.60
539.51	1778.23
539.87	1792.60
540.22	1806.20
540.58	1819.67
540.94	1832.62
541.29	1845.36
541.65	1857.85
542.01	1871.03
542.37	1883.38
542.72	1895.70
543.08	1907.49
543.44	1919.75
543.79	1930.88
544.15	1941.75
544.51	1953.25
544.87	1964.03
545.22	1974.95
545.58	1985.21
545.94	1994.97
546.29	2004.80
546.65	2014.82
547.01	2024.08
547.36	2032.69
547.72	2041.14
548.07	2049.33
548.43	2057.79
548.79	2065.79
549.14	2073.36
549.50	2080.65
549.86	2088.18
550.21	2095.32
550.57	2102.46
550.92	2109.07
551.28	2116.10
551.64	2123.27
551.99	2129.69
552.35	2135.85
552.70	2141.74
553.06	2147.47
553.41	2153.81
553.77	2159.87
554.13	2165.77
554.48	2171.80
554.84	2177.35
555.19	2182.46
555.55	2187.57
555.90	2191.80
556.26	2196.84
556.61	2201.55
556.97	2205.85
557.32	2210.04
557.68	2214.29
558.03	2218.46
558.39	2222.09
558.74	2226.78
559.10	2230.60
559.45	2234.39
559.81	2238.65
560.16	2242.57
560.52	2245.87
560.87	2249.26
561.23	2251.84
561.58	2254.80
561.94	2257.35
562.29	2259.64
562.64	2262.37
563.00	2264.92
563.35	2268.52
563.71	2271.40
564.06	2274.60
564.42	2277.43
564.77	2279.97
565.12	2282.37
565.48	2284.39
565.83	2286.35
566.19	2287.66
566.54	2288.46
566.89	2289.53
567.25	2290.18
567.60	2291.48
567.96	2293.21
568.31	2294.01
568.66	2295.06
569.02	2295.70
569.37	2296.01
569.72	2297.06
570.08	2297.40
570.43	2297.34
570.78	2296.87
571.14	2295.49
571.49	2294.18
571.84	2293.92
572.20	2292.81
572.55	2291.69
572.90	2290.04
573.26	2288.71
573.61	2287.01
573.96	2285.51
574.31	2282.62
574.67	2279.79
575.02	2276.25
575.37	2272.95
575.72	2269.26
576.08	2265.90
576.43	2262.62
576.78	2259.15
577.13	2255.68
577.49	2252.37
577.84	2249.10
578.19	2245.39
578.54	2241.90
578.90	2237.79
579.25	2232.29
579.60	2227.41
579.95	2222.49
580.30	2217.58
580.66	2212.36
581.01	2207.49
581.36	2202.49
581.71	2198.34
582.06	2193.94
582.42	2189.47
582.77	2184.31
583.12	2179.82
583.47	2175.41
583.82	2170.45
584.17	2165.25
584.53	2159.93
584.88	2154.40
585.23	2148.58
585.58	2143.06
585.93	2137.54
586.28	2132.65
586.63	2127.66
586.98	2122.66
587.34	2117.92
587.69	2113.12
588.04	2107.96
588.39	2102.33
588.74	2095.83
589.09	2089.83
589.44	2083.08
589.79	2076.95
590.14	2071.13
590.49	2064.51
590.84	2057.91
591.19	2051.82
591.54	2045.33
591.89	2037.99
592.25	2031.29
592.60	2024.15
592.95	2016.68
593.30	2009.36
593.65	2001.79
594.00	1994.65
594.35	1987.31
594.70	1979.17
595.05	1972.01
595.40	1964.67
595.75	1957.01
596.10	1950.89
596.45	1944.02
596.80	1937.79
597.15	1931.25
597.50	1924.48
597.85	1918.02
598.19	1911.58
598.54	1904.72
598.89	1898.12
599.24	1892.34
599.59	1885.92
599.94	1879.66
600.29	1873.23
600.64	1866.57
600.99	1859.28
601.34	1852.56
601.69	1845.56
602.04	1838.87
602.39	1831.42
602.74	1824.69
603.08	1818.14
603.43	1811.48
603.78	1804.25
604.13	1797.06
604.48	1789.94
604.83	1782.93
605.18	1776.16
605.53	1768.18
605.87	1760.08
606.22	1752.80
606.57	1744.77
606.92	1737.23
607.27	1730.15
607.62	1723.42
607.96	1716.35
608.31	1709.86
608.66	1702.30
609.01	1694.90
609.36	1687.48
609.70	1679.59
610.05	1671.62
610.40	1663.96
610.75	1655.59
611.10	1647.93
611.44	1639.48
611.79	1631.40
612.14	1622.78
612.49	1613.45
612.83	1605.00
613.18	1596.94
613.53	1588.82
613.88	1580.31
614.22	1572.20
614.57	1563.49
614.92	1555.46
615.27	1547.95
615.61	1539.59
615.96	1531.64
616.31	1523.91
616.65	1516.33
617.00	1508.67
617.35	1501.02
617.70	1492.77
618.04	1484.31
618.39	1476.14
618.74	1468.59
619.08	1460.30
619.43	1452.76
619.78	1446.00
620.12	1438.85
620.47	1431.34
620.82	1423.09
621.16	1415.66
621.51	1407.88
621.85	1400.29
622.20	1391.75
622.55	1383.38
622.89	1375.41
623.24	1367.58
623.59	1360.25
623.93	1352.89
624.28	1345.78
624.62	1338.27
624.97	1330.97
625.32	1324.15
625.66	1317.10
626.01	1309.90
626.35	1302.49
626.70	1294.72
627.04	1286.91
627.39	1279.13
627.73	1271.76
628.08	1264.98
628.43	1257.80
628.77	1250.51
629.12	1243.05
629.46	1235.96
629.81	1228.42
630.15	1221.40
630.50	1214.16
630.84	1205.95
631.19	1197.85
631.53	1190.17
631.88	1182.61
632.22	1175.00
632.57	1167.61
632.91	1160.08
633.26	1152.66
633.60	1145.27
633.95	1138.22
634.29	1131.15
634.64	1124.44
634.98	1116.98
635.32	1109.86
635.67	1103.13
636.01	1096.34
636.36	1089.50
636.70	1082.88
637.05	1076.33
637.39	1069.73
637.73	1063.16
638.08	1057.30
638.42	1051.42
638.77	1045.08
639.11	1038.50
639.45	1032.17
639.80	1025.55
640.14	1019.14
640.49	1012.66
640.83	1006.34
641.17	1000.09
641.52	993.88
641.86	987.37
642.20	981.57
642.55	975.15
642.89	968.73
643.23	962.24
643.58	956.45
643.92	950.31
644.26	944.31
644.61	938.30
644.95	932.23
645.29	925.75
645.64	919.03
645.98	912.70
646.32	906.78
646.66	900.78
647.01	895.05
647.35	889.33
647.69	883.48
648.04	877.94
648.38	872.09
648.72	866.04
649.06	860.10
649.41	854.15
649.75	848.27
650.09	842.37
650.43	836.59
650.78	830.45
651.12	824.52
651.46	818.78
651.80	813.09
652.14	807.78
652.49	802.31
652.83	797.16
653.17	791.48
653.51	785.82
653.85	780.31
654.20	774.68
654.54	768.66
654.88	762.91
655.22	757.06
655.56	751.35
655.90	745.95
656.25	740.66
656.59	735.26
656.93	730.15
657.27	725.02
657.61	719.63
657.95	714.60
658.29	709.47
658.64	704.23
658.98	698.82
659.32	693.32
659.66	688.16
660.00	682.89
660.34	678.01
660.68	673.12
661.02	668.10
661.36	663.40
661.70	658.88
662.05	654.52
662.39	650.20
662.73	645.72
663.07	641.30
663.41	636.85
663.75	632.41
664.09	627.89
664.43	623.42
664.77	619.35
665.11	614.97
665.45	610.78
665.79	606.73
666.13	602.65
666.47	598.54
666.81	594.33
667.15	590.15
667.49	586.17
667.83	582.26
668.17	578.34
668.51	574.26
668.85	570.27
669.19	566.38
669.53	562.58
669.87	558.81
670.21	555.12
670.55	551.53
670.89	548.08
671.23	544.59
671.57	541.12
671.91	537.59
672.25	534.13
672.58	530.66
672.92	527.17
673.26	523.97
673.60	520.78
673.94	517.73
674.28	514.80
674.62	511.83
674.96	508.72
675.30	505.88
675.64	502.93
675.97	500.11
676.31	497.27
676.65	494.27
676.99	491.48
677.33	488.56
677.67	485.69
678.01	482.67
678.34	479.69
678.68	476.81
679.02	473.98
679.36	471.18
679.70	468.48
680.04	465.68
680.37	462.79
680.71	460.02
681.05	457.36
681.39	454.62
681.73	451.94
682.06	449.44
682.40	446.87
682.74	444.35
683.08	441.82
683.42	439.22
683.75	436.77
684.09	434.20
684.43	431.80
684.77	429.41
685.10	427.04
685.44	424.75
685.78	422.43
686.12	420.13
686.45	417.79
686.79	415.46
687.13	413.32
687.46	411.18
687.80	409.01
688.14	406.78
688.48	404.78
688.81	402.62
689.15	400.47
689.49	398.25
689.82	396.15
690.16	394.05
690.50	392.12
690.83	390.12
691.17	388.14
691.51	386.19
691.84	384.28
692.18	382.39
692.52	380.42
692.85	378.52
693.19	376.65
693.52	374.86
693.86	373.07
694.20	371.25
694.53	369.49
694.87	367.64
695.21	365.83
695.54	363.97
695.88	362.18
696.21	360.43
696.55	358.78
696.88	357.16
697.22	355.45
697.56	353.78
697.89	352.16
698.23	350.54
698.56	348.97
698.90	347.36
699.23	345.67
699.57	344.13
699.90	342.57
700.24	341.01
700.58	339.53
700.91	338.06
701.25	336.63
701.58	335.26
701.92	333.93
702.25	332.57
702.59	331.21
702.92	329.89
703.26	328.56
703.59	327.28
703.93	326.06
704.26	324.88
704.60	323.56
704.93	322.27
705.26	321.06
705.60	319.85
705.93	318.72
706.27	317.74
706.60	316.70
706.94	315.59
707.27	314.51
707.61	313.40
707.94	312.32
708.27	311.20
708.61	310.10
708.94	309.07
709.28	308.12
709.61	307.15
709.94	306.24
710.28	305.24
710.61	304.27
710.95	303.15
711.28	302.21
711.61	301.30
711.95	300.40
712.28	299.42
712.61	298.44
712.95	297.51
713.28	296.56
713.61	295.60
713.95	294.74
714.28	293.90
714.61	293.07
714.95	292.25
715.28	291.41
715.61	290.52
715.95	289.64
716.28	288.76
716.61	287.92
716.95	287.09
717.28	286.34
717.61	285.56
717.94	284.83
718.28	283.98
718.61	283.27
718.94	282.56
719.27	281.91
719.61	281.30
719.94	280.65
720.27	279.95
720.60	279.32
720.94	278.70
721.27	278.09
721.60	277.49
721.93	276.84
722.27	276.27
722.60	275.72
722.93	275.17
723.26	274.66
723.59	274.10
723.93	273.58
724.26	273.05
724.59	272.51
724.92	272.00
725.25	271.53
725.59	270.97
725.92	270.50
726.25	269.99
726.58	269.50
726.91	268.97
727.24	268.51
727.57	267.99
727.91	267.49
728.24	267.04
728.57	266.56
728.90	266.12
729.23	265.65
729.56	265.28
729.89	264.80
730.22	264.30
730.55	263.82
730.89	263.35
731.22	262.89
731.55	262.47
731.88	262.03
732.21	261.61
732.54	261.21
732.87	260.76
733.20	260.37
733.53	259.97
733.86	259.63
734.19	259.23
734.52	258.88
734.85	258.56
735.18	258.16
735.51	257.81
735.84	257.45
736.17	257.11
736.50	256.66
736.83	256.43
737.16	256.12
737.49	255.83
737.82	255.50
738.15	255.17
738.48	254.82
738.81	254.53
739.14	254.21
739.47	253.89
739.80	253.59
740.13	253.28
740.46	252.98
740.79	252.66
741.12	252.42
741.45	252.13
741.78	251.79
742.11	251.50
742.44	251.17
742.77	250.89
743.10	250.61
743.43	250.34
743.75	249.96
744.08	249.79
744.41	249.50
744.74	249.25
745.07	248.99
745.40	248.73
745.73	248.47
746.06	248.19
746.39	247.93
746.71	247.67
747.04	247.41
747.37	247.14
747.70	246.91
748.03	246.62
748.36	246.41
748.68	246.18
749.01	245.92
749.34	245.66
749.67	245.45
750.00	245.23
750.33	245.07
750.65	244.85
750.98	244.55
751.31	244.29
751.64	244.11
751.97	243.92
752.29	243.69
752.62	243.44
752.95	243.27
753.28	243.06
753.60	242.87
753.93	242.67
754.26	242.45
754.59	242.21
754.91	241.98
755.24	241.75
755.57	241.56
755.90	241.39
756.22	241.21
756.55	240.99
756.88	240.80
757.20	240.59
757.53	240.37
757.86	240.18
758.19	240.06
758.51	239.84
758.84	239.64
759.17	239.48
759.49	239.33
759.82	239.19
760.15	239.02
760.47	238.85
760.80	238.66
761.13	238.54
761.45	238.38
761.78	238.25
762.11	238.11
762.43	237.93
762.76	237.78
763.08	237.65
763.41	237.53
763.74	237.37
764.06	237.24
764.39	237.10
764.71	236.96
765.04	236.81
765.37	236.70
765.69	236.56
766.02	236.43
766.34	236.30
766.67	236.16
767.00	236.10
767.32	236.01
767.65	235.97
767.97	235.83
768.30	235.73
768.62	235.58
768.95	235.48
769.27	235.37
769.60	235.25
769.92	235.13
770.25	234.99
770.57	234.86
770.90	234.71
771.22	234.63
771.55	234.51
771.87	234.43
772.20	234.34
772.52	234.33
772.85	234.36
773.17	234.29
773.50	234.19
773.82	234.05
774.15	233.93
774.47	233.78
774.80	233.68
775.12	233.59
775.45	233.52
775.77	233.39
776.09	233.32
776.42	233.25
776.74	233.22
777.07	233.17
777.39	233.09
777.72	233.01
778.04	232.97
778.36	232.89
778.69	232.80
779.01	232.71
779.33	232.57
779.66	232.41
779.98	232.33
780.31	232.27
780.63	232.25
780.95	232.20
781.28	232.12
781.60	232.07
781.92	232.01
782.25	231.95
782.57	231.91
782.89	231.86
783.22	231.82
783.54	231.71
783.86	231.65
784.19	231.58
784.51	231.59
784.83	231.50
785.16	231.45
785.48	231.38
785.80	231.33
786.12	231.27
786.45	231.19
786.77	231.16
787.09	231.10
787.42	230.99
787.74	230.95
788.06	230.94
788.38	230.89
788.71	230.82
789.03	230.79
789.35	230.77
789.67	230.68
789.99	230.65
790.32	230.61
790.64	230.59
790.96	230.63
791.28	230.56
791.61	230.52
791.93	230.46
792.25	230.44
792.57	230.46
792.89	230.38
793.21	230.35
793.54	230.27
793.86	230.24
794.18	230.21
794.50	230.15
794.82	230.09
795.14	230.08
795.47	230.08
795.79	230.03
796.11	229.97
796.43	229.95
796.75	229.90
797.07	229.88
797.39	229.79
797.71	229.71
798.04	229.64
798.36	229.60
798.68	229.59
799.00	229.56
799.32	229.45
799.64	229.43
799.96	229.39
800.28	229.36
800.60	229.30
800.92	229.27
801.24	229.25
801.56	229.23
801.89	229.16
802.21	229.12
802.53	229.06
802.85	229.04
803.17	229.07
803.49	229.00
803.81	228.96
804.13	228.94
804.45	228.87
804.77	228.86
805.09	228.82
805.41	228.75
805.73	228.71
806.05	228.67
806.37	228.65
806.69	228.62
807.01	228.63
807.33	228.61
807.65	228.57
807.97	228.53
808.28	228.50
808.60	228.49
808.92	228.45
809.24	228.48
809.56	228.44
809.88	228.37
810.20	228.35
810.52	228.35
810.84	228.33
811.16	228.32
811.48	228.29
811.80	228.32
812.12	228.32
812.43	228.30
812.75	228.30
813.07	228.28
813.39	228.26
813.71	228.22
814.03	228.19
814.35	228.18
814.67	228.13
814.98	228.08
815.30	228.08
815.62	228.05
815.94	228.00
816.26	228.03
816.58	227.97
816.89	227.96
817.21	227.90
817.53	227.92
817.85	227.87
818.17	227.85
818.48	227.80
818.80	227.83
819.12	227.79
819.44	227.78
819.76	227.72
820.07	227.71
820.39	227.67
820.71	227.68
821.03	227.65
821.34	227.64
821.66	227.65
821.98	227.61
822.30	227.59
822.61	227.63
822.93	227.58
823.25	227.59
823.57	227.56
823.88	227.58
824.20	227.55
824.52	227.61
824.83	227.59
825.15	227.60
825.47	227.56
825.79	227.56
826.10	227.54
826.42	227.56
826.74	227.57
827.05	227.54
827.37	227.54
827.69	227.52
828.00	227.51
828.32	227.52
828.64	227.50
828.95	227.57
829.27	227.55
829.58	227.52
829.90	227.54
830.22	227.56
830.53	227.54
830.85	227.52
831.17	227.45
831.48	227.45
831.80	227.39
832.11	227.39
832.43	227.38
832.75	227.39
833.06	227.43
833.38	227.41
833.69	227.42
834.01	227.42
834.32	227.42
834.64	227.44
834.96	227.41
835.27	227.44
835.59	227.38
835.90	227.35
836.22	227.36
836.53	227.31
836.85	227.30
837.16	227.39
837.48	227.39
837.79	227.40
838.11	227.41
838.42	227.42
838.74	227.41
839.05	227.42
839.37	227.40
839.68	227.34
840.00	227.34
840.31	227.39
840.63	227.35
840.94	227.34
841.26	227.32
841.57	227.28
841.88	227.26
842.20	227.24
842.51	227.24
842.83	227.21
843.14	227.30
843.46	227.29
843.77	227.23
844.08	227.23
844.40	227.19
844.71	227.14
845.03	227.15
845.34	227.14
845.65	227.14
845.97	227.10
846.28	227.10
846.60	227.05
846.91	226.96
847.22	226.96
847.54	226.96
847.85	226.95
848.16	226.96
848.48	226.96
848.79	226.97
849.10	226.93
849.42	226.93
849.73	226.83
850.04	226.80
850.36	226.75
850.67	226.72
850.98	226.75
851.30	226.76
851.61	226.71
851.92	226.72
852.23	226.72
852.55	226.74
852.86	226.74
853.17	226.75
853.49	226.81
853.80	226.79
854.11	226.80
854.42	226.82
854.74	226.79
855.05	226.77
855.36	226.72
855.67	226.74
855.99	226.74
856.30	226.84
856.61	226.85
856.92	226.84
857.23	226.88
857.55	226.85
857.86	226.84
858.17	226.87
858.48	226.85
858.79	226.82
859.11	226.81
859.42	226.79
859.73	226.76
860.04	226.71
860.35	226.74
860.66	226.70
860.98	226.66
861.29	226.69
861.60	226.70
861.91	226.74
862.22	226.74
862.53	226.73
862.84	226.65
863.16	226.69
863.47	226.66
863.78	226.63
864.09	226.65
864.40	226.67
864.71	226.68
865.02	226.68
865.33	226.69
865.64	226.69
865.95	226.68
866.27	226.79
866.58	226.82
866.89	226.84
867.20	226.84
867.51	226.85
867.82	226.84
868.13	226.83
868.44	226.84
868.75	226.89
869.06	226.88
869.37	226.86
869.68	226.80
869.99	226.82
870.30	226.81
870.61	226.82
870.92	226.81
871.23	226.79
871.54	226.82
871.85	226.82
872.16	226.83
872.47	226.83
872.78	226.75
873.09	226.76
873.40	226.73
873.71	226.77
874.02	226.78
874.33	226.77
874.64	226.76
874.95	226.77
875.26	226.71
875.56	226.72
875.87	226.73
876.18	226.75
876.49	226.85
876.80	226.83
877.11	226.80
877.42	226.79
877.73	226.79
878.04	226.79
878.35	226.81
878.66	226.81
878.96	226.84
879.27	226.85
879.58	226.83
879.89	226.82
880.20	226.79
880.51	226.79
880.82	226.80
881.12	226.82
881.43	226.78
881.74	226.76
882.05	226.76
882.36	226.73
882.67	226.71
882.97	226.59
883.28	226.58
883.59	226.58
883.90	226.60
884.21	226.60
884.51	226.55
884.82	226.50
885.13	226.47
885.44	226.42
885.74	226.38
886.05	226.34
886.36	226.34
886.67	226.31
886.98	226.34
887.28	226.31
887.59	226.31
887.90	226.28
888.20	226.30
888.51	226.31
888.82	226.33
889.13	226.32
889.43	226.42
889.74	226.44
890.05	226.43
890.35	226.40
890.66	226.36
890.97	226.36
891.28	226.35
891.58	226.34
891.89	226.33
892.20	226.33
892.50	226.32
892.81	226.29
893.12	226.29
893.42	226.21
893.73	226.24
894.04	226.20
894.34	226.23
894.65	226.18
894.95	226.15
895.26	226.15
895.57	226.18
895.87	226.07
896.18	226.07
896.48	226.06
896.79	226.07
897.10	226.11
897.40	226.13
897.71	226.13
898.01	226.18
898.32	226.18
898.63	226.19
898.93	226.24
899.24	226.24
899.54	226.25
899.85	226.29
900.15	226.28
900.46	226.32
900.76	226.35
901.07	226.36
901.38	226.35
901.68	226.38
901.99	226.34
902.29	226.38
902.60	226.41
902.90	226.43
903.21	226.43
903.51	226.43
903.82	226.46
904.12	226.49
904.43	226.52
904.73	226.57
905.03	226.57
905.34	226.66
905.64	226.69
905.95	226.73
906.25	226.73
906.56	226.74
906.86	226.75
907.17	226.73
907.47	226.77
907.77	226.79
908.08	226.78
908.38	226.82
908.69	226.80
908.99	226.83
909.30	226.82
909.60	226.83
909.90	226.86
910.21	226.83
910.51	226.80
910.81	226.77
911.12	226.78
911.42	226.77
911.73	226.67
912.03	226.66
912.33	226.66
912.64	226.65
912.94	226.61
913.24	226.60
913.55	226.58
913.85	226.54
914.15	226.55
914.46	226.57
914.76	226.57
915.06	226.58
915.37	226.54
915.67	226.53
915.97	226.55
916.27	226.49
916.58	226.49
916.88	226.48
917.18	226.47
917.49	226.51
917.79	226.52
918.09	226.52
918.39	226.57
918.70	226.55
919.00	226.55
919.30	226.60
919.60	226.59
919.91	226.63
920.21	226.65
920.51	226.61
920.81	226.56
921.12	226.56
921.42	226.53
921.72	226.51
922.02	226.53
922.32	226.51
922.63	226.52
922.93	226.58
923.23	226.56
923.53	226.54
923.83	226.48
924.13	226.46
924.44	226.46
924.74	226.49
925.04	226.51
925.34	226.49
925.64	226.43
925.94	226.45
926.24	226.45
926.55	226.41
926.85	226.41
927.15	226.40
927.45	226.41
927.75	226.41
928.05	226.42
928.35	226.38
928.65	226.40
928.95	226.37
929.26	226.31
929.56	226.33
929.86	226.32
930.16	226.31
930.46	226.30
930.76	226.31
931.06	226.21
931.36	226.18
931.66	226.19
931.96	226.21
932.26	226.18
932.56	226.14
932.86	226.20
933.16	226.21
933.46	226.27
933.76	226.24
934.06	226.29
934.36	226.31
934.66	226.35
934.96	226.34
935.26	226.37
935.56	226.39
935.86	226.40
936.16	226.42
936.46	226.39
936.76	226.38
937.06	226.34
937.36	226.38
937.66	226.40
937.96	226.37
938.26	226.37
938.56	226.35
938.86	226.38
939.16	226.39
939.46	226.42
939.76	226.40
940.06	226.39
940.35	226.37
940.65	226.34
940.95	226.30
941.25	226.26
941.55	226.25
941.85	226.24
942.15	226.27
942.45	226.28
942.75	226.32
943.04	226.34
943.34	226.40
943.64	226.39
943.94	226.36
944.24	226.39
944.54	226.40
944.84	226.40
945.13	226.39
945.43	226.37
945.73	226.34
946.03	226.32
946.33	226.32
946.62	226.27
946.92	226.30
947.22	226.35
947.52	226.37
947.82	226.35
948.11	226.37
948.41	226.30
948.71	226.26
949.01	226.24
949.31	226.20
949.60	226.18
949.90	226.20
950.20	226.21
950.50	226.23
950.79	226.20
951.09	226.23
951.39	226.21
951.69	226.19
951.98	226.22
952.28	226.21
952.58	226.22
952.87	226.25
953.17	226.24
953.47	226.20
953.76	226.21
954.06	226.21
954.36	226.15
954.66	226.17
954.95	226.22
955.25	226.22
955.55	226.25
955.84	226.23
956.14	226.21
956.44	226.22
956.73	226.22
957.03	226.23
957.32	226.20
957.62	226.21
957.92	226.22
958.21	226.16
958.51	226.28
958.81	226.30
959.10	226.29
959.40	226.29
959.69	226.30
959.99	226.30
960.29	226.28
960.58	226.28
960.88	226.31
961.17	226.31
961.47	226.34
961.76	226.30
962.06	226.31
962.36	226.31
962.65	226.30
962.95	226.27
963.24	226.26
963.54	226.27
963.83	226.28
964.13	226.25
964.42	226.23
964.72	226.16
965.01	226.16
965.31	226.17
965.60	226.15
965.90	226.18
966.19	226.16
966.49	226.18
966.78	226.19
967.08	226.17
967.37	226.12
967.67	226.06
967.96	226.11
968.26	226.08
968.55	226.08
968.85	226.08
969.14	226.09
969.43	226.09
969.73	226.09
970.02	226.06
970.32	226.10
970.61	226.13
970.91	226.07
971.20	226.02
971.49	225.98
971.79	225.97
972.08	225.92
972.38	225.91
972.67	225.88
972.96	225.90
973.26	225.91
973.55	225.98
973.85	225.98
974.14	225.96
974.43	226.02
974.73	226.01
975.02	225.98
975.31	225.98
975.61	225.99
975.90	225.97
976.19	225.99
976.49	225.97
976.78	225.98
977.07	226.01
977.37	226.06
977.66	226.11
977.95	226.12
978.24	226.14
978.54	226.18
978.83	226.19
979.12	226.18
979.42	226.15
979.71	226.12
980.00	226.10
980.29	226.10
980.59	226.01
980.88	226.05
981.17	226.06
981.46	226.07
981.76	226.06
982.05	226.09
982.34	226.06
982.63	226.07
982.93	226.08
983.22	226.09
983.51	226.07
983.80	226.06
984.09	226.08
984.39	226.07
984.68	226.03
984.97	226.05
985.26	226.04
985.55	226.08
985.85	226.07
986.14	226.11
986.43	226.12
986.72	226.16
987.01	226.12
987.30	226.15
987.59	226.09
987.89	226.09
988.18	226.05
988.47	226.09
988.76	226.06
989.05	226.03
989.34	226.05
989.63	226.09
989.92	226.12
990.22	226.12
990.51	226.10
990.80	226.12
991.09	226.12
991.38	226.14
991.67	226.15
991.96	226.13
992.25	226.12
992.54	226.13
992.83	226.12
993.12	226.14
993.41	226.13
993.70	226.21
993.99	226.25
994.28	226.25
994.58	226.25
994.87	226.25
995.16	226.27
995.45	226.22
995.74	226.16
996.03	226.13
996.32	226.15
996.61	226.18
996.90	226.18
997.19	226.19
997.48	226.19
997.77	226.16
998.06	226.19
998.34	226.17
998.63	226.15
998.92	226.17
999.21	226.15
999.50	226.15
999.79	226.11
1000.08	226.09
1000.37	226.12
1000.66	226.12
1000.95	226.14
1001.24	226.11
1001.53	226.12
1001.82	226.12
1002.11	226.15
1002.40	226.14
1002.68	226.16
1002.97	226.22
1003.26	226.18
1003.55	226.16
1003.84	226.17
1004.13	226.20
1004.42	226.21
1004.71	226.20
1004.99	226.15
1005.28	226.18
1005.57	226.14
1005.86	226.15
1006.15	226.14
1006.44	226.12
1006.72	226.11
1007.01	226.07
1007.30	226.09
1007.59	226.10
1007.88	226.12
1008.17	226.07
1008.45	226.07
1008.74	226.05
1009.03	226.00
1009.32	226.00
1009.60	225.98
1009.89	225.99
1010.18	225.95
1010.47	225.93
1010.76	225.93
1011.04	225.96
1011.33	225.97
1011.62	226.00
1011.91	226.01
1012.19	226.03
1012.48	226.03
1012.77	226.03
1013.05	226.12
1013.34	226.11
1013.63	226.08
1013.92	226.07
1014.20	226.09
1014.49	226.09
1014.78	226.09
1015.06	226.06
1015.35	226.06
1015.64	226.11
1015.92	226.09
1016.21	226.13
1016.50	226.15
1016.78	226.17
1017.07	226.18
1017.36	226.19
1017.64	226.16
1017.93	226.14
1018.22	226.12
1018.50	226.12
1018.79	226.13
1019.08	226.06
1019.36	226.09
1019.65	226.09
1019.93	226.09
1020.22	226.10
1020.51	226.16
1020.79	226.14
1021.08	226.14
1021.36	225.87
1021.65	226.09
1021.94	226.12
1022.22	226.39
1022.51	225.74
1022.79	226.18
1023.08	226.12
1023.36	227.60
1023.65	225.68
>>>>>End Processed Spectral Data<<<<<
