SpectraSuite Data File
++++++++++++++++++++++++++++++++++++
Date: Fri Feb 01 15:09:45 EST 2013
User: group
Dark Spectrum Present: No
Reference Spectrum Present: No
Number of Sampled Component Spectra: 1
Spectrometers: USB2E7196
Integration Time (usec): 35000 (USB2E7196)
Spectra Averaged: 100 (USB2E7196)
Boxcar Smoothing: 10 (USB2E7196)
Correct for Electrical Dark: No (USB2E7196)
Strobe/Lamp Enabled: No (USB2E7196)
Correct for Detector Non-linearity: No (USB2E7196)
Correct for Stray Light: No (USB2E7196)
Number of Pixels in Processed Spectrum: 2048
>>>>>Begin Processed Spectral Data<<<<<
339.09	0.00
339.48	215.77
339.86	216.80
340.24	218.32
340.63	219.78
341.01	222.30
341.39	222.36
341.78	223.97
342.16	225.04
342.54	225.27
342.93	213.67
343.31	224.45
343.69	224.95
344.07	225.41
344.46	225.83
344.84	226.18
345.22	226.42
345.60	226.66
345.99	226.81
346.37	226.92
346.75	227.01
347.13	227.07
347.52	227.07
347.90	227.14
348.28	227.16
348.66	227.19
349.05	227.17
349.43	227.25
349.81	227.32
350.19	227.36
350.57	227.44
350.96	227.50
351.34	227.58
351.72	227.69
352.10	227.79
352.48	227.85
352.87	227.92
353.25	227.99
353.63	228.06
354.01	228.14
354.39	228.20
354.77	228.27
355.15	228.39
355.54	228.48
355.92	228.49
356.30	228.61
356.68	228.74
357.06	228.83
357.44	228.87
357.82	228.91
358.20	229.01
358.58	229.05
358.97	229.12
359.35	229.21
359.73	229.27
360.11	229.29
360.49	229.38
360.87	229.41
361.25	229.47
361.63	229.53
362.01	229.57
362.39	229.62
362.77	229.66
363.15	229.64
363.53	229.65
363.91	229.66
364.29	229.65
364.67	229.57
365.05	229.60
365.43	229.60
365.81	229.65
366.19	229.68
366.57	229.68
366.95	229.70
367.33	229.67
367.71	229.69
368.09	229.70
368.47	229.68
368.85	229.63
369.23	229.63
369.61	229.55
369.99	229.54
370.37	229.53
370.75	229.56
371.13	229.50
371.51	229.49
371.89	229.48
372.27	229.43
372.65	229.37
373.03	229.32
373.41	229.26
373.78	229.20
374.16	229.07
374.54	229.02
374.92	228.93
375.30	228.87
375.68	228.76
376.06	228.70
376.44	228.57
376.82	228.53
377.19	228.44
377.57	228.38
377.95	228.25
378.33	228.15
378.71	227.99
379.09	227.95
379.47	227.87
379.84	227.79
380.22	227.72
380.60	227.65
380.98	227.55
381.36	227.46
381.73	227.35
382.11	227.31
382.49	227.21
382.87	227.12
383.25	227.06
383.62	227.11
384.00	227.05
384.38	227.03
384.76	227.00
385.13	226.97
385.51	226.91
385.89	226.89
386.27	226.85
386.64	226.84
387.02	226.77
387.40	226.69
387.78	226.61
388.15	226.57
388.53	226.50
388.91	226.47
389.29	226.43
389.66	226.42
390.04	226.36
390.42	226.34
390.79	226.36
391.17	226.33
391.55	226.22
391.92	226.17
392.30	226.15
392.68	226.12
393.05	226.12
393.43	226.15
393.81	226.15
394.18	226.16
394.56	226.16
394.94	226.22
395.31	226.30
395.69	226.36
396.06	226.41
396.44	226.51
396.82	226.54
397.19	226.65
397.57	226.72
397.95	226.81
398.32	226.82
398.70	226.86
399.07	226.95
399.45	226.98
399.82	227.07
400.20	227.14
400.58	227.21
400.95	227.22
401.33	227.34
401.70	227.45
402.08	227.56
402.45	227.69
402.83	227.80
403.20	227.88
403.58	228.00
403.95	228.13
404.33	228.27
404.71	228.40
405.08	228.55
405.46	228.68
405.83	228.87
406.21	229.09
406.58	229.27
406.96	229.38
407.33	229.61
407.70	229.86
408.08	230.13
408.45	230.38
408.83	230.66
409.20	230.84
409.58	231.08
409.95	231.33
410.33	231.59
410.70	231.84
411.08	232.15
411.45	232.45
411.82	232.76
412.20	233.13
412.57	233.56
412.95	233.87
413.32	234.27
413.69	234.65
414.07	235.08
414.44	235.56
414.82	236.06
415.19	236.62
415.56	237.14
415.94	237.68
416.31	238.30
416.68	238.91
417.06	239.64
417.43	240.34
417.81	241.11
418.18	241.92
418.55	242.78
418.93	243.66
419.30	244.54
419.67	245.52
420.04	246.41
420.42	247.38
420.79	248.58
421.16	249.71
421.54	250.89
421.91	252.12
422.28	253.38
422.66	254.73
423.03	255.99
423.40	257.32
423.77	258.78
424.15	260.21
424.52	261.72
424.89	263.34
425.26	264.92
425.64	266.34
426.01	267.92
426.38	269.54
426.75	271.22
427.13	272.99
427.50	274.79
427.87	276.71
428.24	278.62
428.61	280.36
428.99	282.37
429.36	284.47
429.73	286.54
430.10	288.60
430.47	290.64
430.85	292.79
431.22	295.02
431.59	297.37
431.96	299.68
432.33	302.17
432.70	304.56
433.08	307.36
433.45	310.06
433.82	312.63
434.19	315.50
434.56	318.29
434.93	320.91
435.30	323.51
435.68	326.42
436.05	329.22
436.42	332.00
436.79	334.48
437.16	337.22
437.53	340.02
437.90	342.81
438.27	345.55
438.64	348.41
439.01	351.06
439.38	353.31
439.75	355.42
440.13	357.93
440.50	360.26
440.87	362.10
441.24	363.99
441.61	366.23
441.98	367.77
442.35	369.56
442.72	371.43
443.09	373.22
443.46	374.20
443.83	374.80
444.20	375.31
444.57	376.16
444.94	376.39
445.31	376.78
445.68	377.12
446.05	377.22
446.42	376.85
446.79	376.40
447.16	375.93
447.53	375.58
447.90	374.39
448.27	373.20
448.64	371.63
449.01	370.53
449.37	368.50
449.74	366.61
450.11	364.38
450.48	361.94
450.85	359.44
451.22	357.29
451.59	355.29
451.96	353.39
452.33	350.78
452.70	348.45
453.07	345.60
453.43	342.73
453.80	339.96
454.17	337.24
454.54	334.69
454.91	331.99
455.28	329.33
455.65	326.90
456.02	324.44
456.38	322.26
456.75	319.63
457.12	317.39
457.49	315.14
457.86	312.97
458.23	311.10
458.59	309.05
458.96	306.96
459.33	305.08
459.70	303.20
460.07	301.70
460.43	299.99
460.80	298.35
461.17	296.90
461.54	295.40
461.91	293.96
462.27	292.51
462.64	291.23
463.01	289.90
463.38	288.55
463.74	287.19
464.11	286.04
464.48	284.97
464.85	283.90
465.21	283.03
465.58	282.10
465.95	281.04
466.32	280.09
466.68	279.18
467.05	278.30
467.42	277.38
467.78	276.40
468.15	275.51
468.52	274.84
468.88	273.99
469.25	273.20
469.62	272.59
469.98	271.91
470.35	271.25
470.72	270.61
471.08	269.94
471.45	269.38
471.82	268.81
472.18	268.19
472.55	267.68
472.92	267.12
473.28	266.65
473.65	266.14
474.02	265.74
474.38	265.36
474.75	265.01
475.11	264.66
475.48	264.41
475.85	264.18
476.21	263.92
476.58	263.69
476.94	263.52
477.31	263.33
477.67	263.18
478.04	263.08
478.41	263.01
478.77	263.02
479.14	262.93
479.50	262.93
479.87	263.00
480.23	263.07
480.60	263.17
480.96	263.22
481.33	263.45
481.69	263.64
482.06	263.82
482.42	264.02
482.79	264.28
483.15	264.60
483.52	264.97
483.88	265.30
484.25	265.72
484.61	266.15
484.98	266.57
485.34	267.11
485.71	267.68
486.07	268.29
486.44	268.89
486.80	269.61
487.17	270.34
487.53	271.13
487.90	271.99
488.26	272.92
488.62	273.93
488.99	274.88
489.35	275.89
489.72	277.02
490.08	278.21
490.44	279.40
490.81	280.72
491.17	282.06
491.54	283.53
491.90	285.05
492.26	286.71
492.63	288.44
492.99	290.23
493.36	292.11
493.72	294.12
494.08	296.21
494.45	298.48
494.81	300.82
495.17	303.26
495.54	305.79
495.90	308.46
496.26	311.27
496.63	314.22
496.99	317.33
497.35	320.56
497.72	323.96
498.08	327.51
498.44	331.18
498.80	335.04
499.17	339.06
499.53	343.23
499.89	347.58
500.26	352.07
500.62	356.70
500.98	361.67
501.34	366.77
501.71	372.09
502.07	377.47
502.43	383.06
502.79	388.85
503.16	394.92
503.52	401.14
503.88	407.52
504.24	414.15
504.60	421.00
504.97	428.09
505.33	435.38
505.69	443.07
506.05	450.84
506.41	458.76
506.78	466.92
507.14	475.37
507.50	484.11
507.86	493.10
508.22	502.29
508.59	511.49
508.95	521.04
509.31	530.80
509.67	540.89
510.03	551.17
510.39	561.72
510.75	572.58
511.12	583.54
511.48	594.78
511.84	606.16
512.20	617.66
512.56	629.60
512.92	641.80
513.28	654.10
513.64	666.58
514.00	679.23
514.37	692.17
514.73	705.25
515.09	718.26
515.45	731.57
515.81	745.23
516.17	759.32
516.53	773.43
516.89	787.67
517.25	801.92
517.61	816.37
517.97	830.83
518.33	845.24
518.69	859.96
519.05	875.02
519.41	890.26
519.77	905.85
520.13	921.35
520.49	936.71
520.85	952.15
521.21	967.89
521.57	984.28
521.93	1000.21
522.29	1016.64
522.65	1032.96
523.01	1049.22
523.37	1065.24
523.73	1081.43
524.09	1097.63
524.45	1113.98
524.81	1130.66
525.17	1147.48
525.53	1164.53
525.89	1181.52
526.25	1198.45
526.61	1214.93
526.97	1231.79
527.33	1248.30
527.68	1264.99
528.04	1281.62
528.40	1298.33
528.76	1315.44
529.12	1332.05
529.48	1348.78
529.84	1364.90
530.20	1381.58
530.56	1398.70
530.91	1416.27
531.27	1432.90
531.63	1449.37
531.99	1466.08
532.35	1482.07
532.71	1497.97
533.07	1514.20
533.42	1530.13
533.78	1546.29
534.14	1562.60
534.50	1577.92
534.86	1593.97
535.21	1609.03
535.57	1625.09
535.93	1640.60
536.29	1655.48
536.65	1670.64
537.00	1685.66
537.36	1700.87
537.72	1715.47
538.08	1729.93
538.44	1743.73
538.79	1757.85
539.15	1771.68
539.51	1785.49
539.87	1799.99
540.22	1813.91
540.58	1827.86
540.94	1841.30
541.29	1854.34
541.65	1867.19
542.01	1880.51
542.37	1892.77
542.72	1905.39
543.08	1917.05
543.44	1929.50
543.79	1940.83
544.15	1951.91
544.51	1963.44
544.87	1974.50
545.22	1985.38
545.58	1995.64
545.94	2005.34
546.29	2015.28
546.65	2025.16
547.01	2034.43
547.36	2043.21
547.72	2051.66
548.07	2059.47
548.43	2067.55
548.79	2075.54
549.14	2082.96
549.50	2090.50
549.86	2098.40
550.21	2105.79
550.57	2113.12
550.92	2119.87
551.28	2126.97
551.64	2134.12
551.99	2140.68
552.35	2146.81
552.70	2153.00
553.06	2158.94
553.41	2165.37
553.77	2171.40
554.13	2177.47
554.48	2183.65
554.84	2189.03
555.19	2194.37
555.55	2199.44
555.90	2203.89
556.26	2208.64
556.61	2213.40
556.97	2217.58
557.32	2221.56
557.68	2225.66
558.03	2229.89
558.39	2233.58
558.74	2238.25
559.10	2241.98
559.45	2245.61
559.81	2249.94
560.16	2253.69
560.52	2256.91
560.87	2260.40
561.23	2262.91
561.58	2265.80
561.94	2268.15
562.29	2270.48
562.64	2273.24
563.00	2275.84
563.35	2279.35
563.71	2282.47
564.06	2285.61
564.42	2288.31
564.77	2290.73
565.12	2292.78
565.48	2294.64
565.83	2296.26
566.19	2297.32
566.54	2298.14
566.89	2299.21
567.25	2299.76
567.60	2301.04
567.96	2302.68
568.31	2303.31
568.66	2304.29
569.02	2304.74
569.37	2305.01
569.72	2305.73
570.08	2305.56
570.43	2305.54
570.78	2304.80
571.14	2303.06
571.49	2301.65
571.84	2301.26
572.20	2299.86
572.55	2298.79
572.90	2297.09
573.26	2295.44
573.61	2293.74
573.96	2291.76
574.31	2288.66
574.67	2285.47
575.02	2281.74
575.37	2278.06
575.72	2274.07
576.08	2270.64
576.43	2267.19
576.78	2263.37
577.13	2260.26
577.49	2257.22
577.84	2253.61
578.19	2249.85
578.54	2246.17
578.90	2241.85
579.25	2236.23
579.60	2231.36
579.95	2226.33
580.30	2221.25
580.66	2216.16
581.01	2211.19
581.36	2206.25
581.71	2201.95
582.06	2197.31
582.42	2192.62
582.77	2187.42
583.12	2182.73
583.47	2177.95
583.82	2172.89
584.17	2167.64
584.53	2161.88
584.88	2156.03
585.23	2150.08
585.58	2144.47
585.93	2138.95
586.28	2134.05
586.63	2128.89
586.98	2123.72
587.34	2118.88
587.69	2113.95
588.04	2108.50
588.39	2102.46
588.74	2095.82
589.09	2089.63
589.44	2082.83
589.79	2076.80
590.14	2071.14
590.49	2064.60
590.84	2058.02
591.19	2051.86
591.54	2045.33
591.89	2037.89
592.25	2030.99
592.60	2023.71
592.95	2015.99
593.30	2008.56
593.65	2000.87
594.00	1993.75
594.35	1986.44
594.70	1978.33
595.05	1970.91
595.40	1963.71
595.75	1956.34
596.10	1950.09
596.45	1943.19
596.80	1936.95
597.15	1930.26
597.50	1922.99
597.85	1916.56
598.19	1909.98
598.54	1902.84
598.89	1896.05
599.24	1890.12
599.59	1883.38
599.94	1877.20
600.29	1870.93
600.64	1864.36
600.99	1856.80
601.34	1849.81
601.69	1842.71
602.04	1835.80
602.39	1828.45
602.74	1821.44
603.08	1814.72
603.43	1807.96
603.78	1800.75
604.13	1793.56
604.48	1786.13
604.83	1779.49
605.18	1772.34
605.53	1764.23
605.87	1756.04
606.22	1748.81
606.57	1740.86
606.92	1733.69
607.27	1726.37
607.62	1719.32
607.96	1711.99
608.31	1705.40
608.66	1697.73
609.01	1690.26
609.36	1682.63
609.70	1674.57
610.05	1666.57
610.40	1658.73
610.75	1650.51
611.10	1642.74
611.44	1634.46
611.79	1626.52
612.14	1617.69
612.49	1608.69
612.83	1600.43
613.18	1592.45
613.53	1584.33
613.88	1575.74
614.22	1567.36
614.57	1558.84
614.92	1550.78
615.27	1543.18
615.61	1534.83
615.96	1526.96
616.31	1519.32
616.65	1512.05
617.00	1504.55
617.35	1496.83
617.70	1488.46
618.04	1479.92
618.39	1471.80
618.74	1464.04
619.08	1455.79
619.43	1448.24
619.78	1441.30
620.12	1434.09
620.47	1426.51
620.82	1418.42
621.16	1411.07
621.51	1403.45
621.85	1395.92
622.20	1387.48
622.55	1379.15
622.89	1371.36
623.24	1363.74
623.59	1356.34
623.93	1348.81
624.28	1341.52
624.62	1334.16
624.97	1327.05
625.32	1320.33
625.66	1313.23
626.01	1306.12
626.35	1298.65
626.70	1290.84
627.04	1283.05
627.39	1275.34
627.73	1268.01
628.08	1261.11
628.43	1253.76
628.77	1246.46
629.12	1238.90
629.46	1231.67
629.81	1224.40
630.15	1217.13
630.50	1209.72
630.84	1201.63
631.19	1193.81
631.53	1186.42
631.88	1178.72
632.22	1171.22
632.57	1163.97
632.91	1156.48
633.26	1149.12
633.60	1141.84
633.95	1134.92
634.29	1128.05
634.64	1121.32
634.98	1113.93
635.32	1106.89
635.67	1100.38
636.01	1093.76
636.36	1086.97
636.70	1080.67
637.05	1074.09
637.39	1067.83
637.73	1061.33
638.08	1055.48
638.42	1049.38
638.77	1042.87
639.11	1036.41
639.45	1030.04
639.80	1023.30
640.14	1016.96
640.49	1010.35
640.83	1004.00
641.17	997.72
641.52	991.44
641.86	985.10
642.20	979.26
642.55	972.94
642.89	966.47
643.23	959.94
643.58	954.16
643.92	947.90
644.26	941.79
644.61	935.73
644.95	929.79
645.29	923.13
645.64	916.47
645.98	910.26
646.32	904.48
646.66	898.46
647.01	892.68
647.35	886.95
647.69	881.24
648.04	875.82
648.38	870.04
648.72	863.89
649.06	857.84
649.41	852.12
649.75	846.06
650.09	840.15
650.43	834.36
650.78	828.22
651.12	822.33
651.46	816.66
651.80	810.88
652.14	805.48
652.49	800.21
652.83	795.04
653.17	789.28
653.51	783.50
653.85	778.08
654.20	772.48
654.54	766.50
654.88	760.75
655.22	754.85
655.56	749.18
655.90	743.77
656.25	738.52
656.59	733.14
656.93	728.07
657.27	722.90
657.61	717.44
657.95	712.33
658.29	707.22
658.64	701.96
658.98	696.66
659.32	691.19
659.66	685.96
660.00	680.67
660.34	675.80
660.68	670.93
661.02	665.92
661.36	661.23
661.70	656.79
662.05	652.37
662.39	648.10
662.73	643.66
663.07	639.29
663.41	634.85
663.75	630.31
664.09	625.83
664.43	621.47
664.77	617.44
665.11	613.20
665.45	609.09
665.79	605.10
666.13	601.04
666.47	596.96
666.81	592.79
667.15	588.69
667.49	584.82
667.83	581.04
668.17	577.15
668.51	573.08
668.85	569.05
669.19	565.23
669.53	561.34
669.87	557.42
670.21	553.76
670.55	550.07
670.89	546.68
671.23	543.26
671.57	539.79
671.91	536.21
672.25	532.77
672.58	529.25
672.92	525.80
673.26	522.61
673.60	519.46
673.94	516.34
674.28	513.46
674.62	510.46
674.96	507.35
675.30	504.43
675.64	501.53
675.97	498.81
676.31	495.99
676.65	493.08
676.99	490.41
677.33	487.61
677.67	484.86
678.01	481.88
678.34	478.96
678.68	476.09
679.02	473.36
679.36	470.64
679.70	467.97
680.04	465.27
680.37	462.41
680.71	459.70
681.05	457.14
681.39	454.46
681.73	451.91
682.06	449.45
682.40	446.93
682.74	444.40
683.08	441.87
683.42	439.24
683.75	436.74
684.09	434.25
684.43	431.81
684.77	429.39
685.10	427.01
685.44	424.70
685.78	422.48
686.12	420.23
686.45	417.95
686.79	415.69
687.13	413.52
687.46	411.39
687.80	409.27
688.14	407.05
688.48	405.01
688.81	402.74
689.15	400.63
689.49	398.49
689.82	396.43
690.16	394.35
690.50	392.49
690.83	390.59
691.17	388.58
691.51	386.68
691.84	384.85
692.18	382.96
692.52	380.95
692.85	378.98
693.19	377.08
693.52	375.23
693.86	373.43
694.20	371.62
694.53	369.81
694.87	367.90
695.21	366.14
695.54	364.28
695.88	362.52
696.21	360.77
696.55	359.07
696.88	357.41
697.22	355.71
697.56	354.09
697.89	352.41
698.23	350.80
698.56	349.15
698.90	347.48
699.23	345.84
699.57	344.28
699.90	342.75
700.24	341.21
700.58	339.70
700.91	338.20
701.25	336.78
701.58	335.43
701.92	334.09
702.25	332.71
702.59	331.36
702.92	330.07
703.26	328.74
703.59	327.47
703.93	326.27
704.26	325.08
704.60	323.75
704.93	322.50
705.26	321.28
705.60	320.12
705.93	319.01
706.27	317.99
706.60	316.96
706.94	315.91
707.27	314.79
707.61	313.73
707.94	312.72
708.27	311.64
708.61	310.52
708.94	309.52
709.28	308.55
709.61	307.63
709.94	306.67
710.28	305.65
710.61	304.71
710.95	303.63
711.28	302.70
711.61	301.76
711.95	300.84
712.28	299.90
712.61	298.96
712.95	298.04
713.28	297.15
713.61	296.27
713.95	295.37
714.28	294.51
714.61	293.64
714.95	292.77
715.28	291.87
715.61	291.01
715.95	290.19
716.28	289.33
716.61	288.48
716.95	287.63
717.28	286.94
717.61	286.22
717.94	285.49
718.28	284.70
718.61	283.98
718.94	283.29
719.27	282.64
719.61	282.02
719.94	281.37
720.27	280.68
720.60	280.00
720.94	279.38
721.27	278.82
721.60	278.26
721.93	277.68
722.27	277.18
722.60	276.68
722.93	276.10
723.26	275.58
723.59	275.05
723.93	274.54
724.26	273.99
724.59	273.39
724.92	272.90
725.25	272.43
725.59	271.94
725.92	271.46
726.25	270.96
726.58	270.43
726.91	269.93
727.24	269.46
727.57	269.03
727.91	268.53
728.24	268.08
728.57	267.62
728.90	267.17
729.23	266.66
729.56	266.24
729.89	265.80
730.22	265.34
730.55	264.86
730.89	264.42
731.22	263.97
731.55	263.57
731.88	263.14
732.21	262.66
732.54	262.24
732.87	261.82
733.20	261.44
733.53	261.10
733.86	260.72
734.19	260.31
734.52	259.94
734.85	259.65
735.18	259.22
735.51	258.84
735.84	258.46
736.17	258.13
736.50	257.69
736.83	257.45
737.16	257.09
737.49	256.73
737.82	256.35
738.15	255.97
738.48	255.60
738.81	255.28
739.14	254.96
739.47	254.65
739.80	254.36
740.13	254.04
740.46	253.63
740.79	253.28
741.12	252.97
741.45	252.62
741.78	252.24
742.11	251.94
742.44	251.59
742.77	251.29
743.10	250.97
743.43	250.70
743.75	250.31
744.08	250.16
744.41	249.90
744.74	249.65
745.07	249.39
745.40	249.12
745.73	248.84
746.06	248.56
746.39	248.27
746.71	247.95
747.04	247.64
747.37	247.44
747.70	247.22
748.03	246.95
748.36	246.71
748.68	246.46
749.01	246.18
749.34	245.95
749.67	245.73
750.00	245.53
750.33	245.34
750.65	245.13
750.98	244.77
751.31	244.54
751.64	244.34
751.97	244.20
752.29	244.01
752.62	243.76
752.95	243.55
753.28	243.34
753.60	243.12
753.93	243.00
754.26	242.77
754.59	242.51
754.91	242.29
755.24	242.14
755.57	241.97
755.90	241.83
756.22	241.64
756.55	241.42
756.88	241.20
757.20	240.96
757.53	240.77
757.86	240.63
758.19	240.48
758.51	240.29
758.84	240.09
759.17	239.91
759.49	239.80
759.82	239.70
760.15	239.57
760.47	239.43
760.80	239.23
761.13	239.14
761.45	238.99
761.78	238.88
762.11	238.74
762.43	238.58
762.76	238.45
763.08	238.35
763.41	238.28
763.74	238.15
764.06	238.04
764.39	237.90
764.71	237.76
765.04	237.63
765.37	237.50
765.69	237.39
766.02	237.26
766.34	237.13
766.67	237.01
767.00	236.95
767.32	236.91
767.65	236.86
767.97	236.73
768.30	236.66
768.62	236.55
768.95	236.40
769.27	236.33
769.60	236.27
769.92	236.10
770.25	235.98
770.57	235.90
770.90	235.79
771.22	235.69
771.55	235.57
771.87	235.53
772.20	235.43
772.52	235.40
772.85	235.44
773.17	235.36
773.50	235.27
773.82	235.14
774.15	235.01
774.47	234.87
774.80	234.79
775.12	234.72
775.45	234.65
775.77	234.62
776.09	234.55
776.42	234.42
776.74	234.40
777.07	234.29
777.39	234.20
777.72	234.13
778.04	234.10
778.36	234.03
778.69	233.95
779.01	233.90
779.33	233.76
779.66	233.56
779.98	233.47
780.31	233.38
780.63	233.36
780.95	233.30
781.28	233.22
781.60	233.14
781.92	233.03
782.25	232.96
782.57	232.87
782.89	232.78
783.22	232.74
783.54	232.66
783.86	232.64
784.19	232.56
784.51	232.53
784.83	232.41
785.16	232.35
785.48	232.25
785.80	232.19
786.12	232.12
786.45	232.03
786.77	231.98
787.09	231.93
787.42	231.80
787.74	231.76
788.06	231.70
788.38	231.64
788.71	231.62
789.03	231.57
789.35	231.54
789.67	231.51
789.99	231.45
790.32	231.41
790.64	231.35
790.96	231.41
791.28	231.31
791.61	231.29
791.93	231.24
792.25	231.19
792.57	231.22
792.89	231.20
793.21	231.19
793.54	231.11
793.86	231.10
794.18	231.06
794.50	231.01
794.82	230.99
795.14	230.97
795.47	230.92
795.79	230.87
796.11	230.83
796.43	230.77
796.75	230.73
797.07	230.70
797.39	230.68
797.71	230.54
798.04	230.51
798.36	230.50
798.68	230.52
799.00	230.54
799.32	230.45
799.64	230.46
799.96	230.43
800.28	230.47
800.60	230.39
800.92	230.39
801.24	230.33
801.56	230.31
801.89	230.27
802.21	230.26
802.53	230.25
802.85	230.23
803.17	230.24
803.49	230.24
803.81	230.22
804.13	230.21
804.45	230.20
804.77	230.19
805.09	230.17
805.41	230.11
805.73	230.06
806.05	230.04
806.37	229.98
806.69	229.96
807.01	229.91
807.33	229.92
807.65	229.89
807.97	229.97
808.28	229.94
808.60	229.94
808.92	229.91
809.24	229.97
809.56	229.94
809.88	229.90
810.20	229.83
810.52	229.83
810.84	229.78
811.16	229.76
811.48	229.71
811.80	229.73
812.12	229.69
812.43	229.72
812.75	229.68
813.07	229.66
813.39	229.66
813.71	229.64
814.03	229.60
814.35	229.55
814.67	229.47
814.98	229.44
815.30	229.43
815.62	229.38
815.94	229.26
816.26	229.27
816.58	229.19
816.89	229.21
817.21	229.16
817.53	229.11
817.85	229.08
818.17	229.05
818.48	228.98
818.80	228.99
819.12	228.94
819.44	228.93
819.76	228.91
820.07	228.88
820.39	228.86
820.71	228.86
821.03	228.85
821.34	228.83
821.66	228.83
821.98	228.77
822.30	228.75
822.61	228.79
822.93	228.72
823.25	228.73
823.57	228.70
823.88	228.70
824.20	228.70
824.52	228.70
824.83	228.70
825.15	228.69
825.47	228.66
825.79	228.62
826.10	228.55
826.42	228.50
826.74	228.47
827.05	228.43
827.37	228.42
827.69	228.40
828.00	228.37
828.32	228.33
828.64	228.35
828.95	228.43
829.27	228.39
829.58	228.41
829.90	228.42
830.22	228.39
830.53	228.34
830.85	228.30
831.17	228.25
831.48	228.23
831.80	228.20
832.11	228.18
832.43	228.17
832.75	228.18
833.06	228.23
833.38	228.20
833.69	228.20
834.01	228.17
834.32	228.15
834.64	228.13
834.96	228.12
835.27	228.10
835.59	228.04
835.90	227.98
836.22	227.97
836.53	227.91
836.85	227.93
837.16	228.01
837.48	228.04
837.79	228.08
838.11	228.08
838.42	228.09
838.74	228.09
839.05	228.10
839.37	228.12
839.68	228.05
840.00	228.03
840.31	228.00
840.63	228.01
840.94	227.99
841.26	228.00
841.57	227.98
841.88	227.99
842.20	227.97
842.51	227.98
842.83	227.99
843.14	228.08
843.46	228.06
843.77	228.01
844.08	227.99
844.40	227.95
844.71	227.95
845.03	227.94
845.34	227.94
845.65	227.93
845.97	227.93
846.28	227.98
846.60	228.00
846.91	228.04
847.22	228.02
847.54	228.07
847.85	228.06
848.16	228.07
848.48	228.03
848.79	228.06
849.10	228.09
849.42	228.08
849.73	228.01
850.04	228.04
850.36	228.04
850.67	228.08
850.98	228.10
851.30	228.12
851.61	228.12
851.92	228.12
852.23	228.16
852.55	228.16
852.86	228.11
853.17	228.12
853.49	228.14
853.80	228.17
854.11	228.18
854.42	228.22
854.74	228.20
855.05	228.21
855.36	228.19
855.67	228.16
855.99	228.17
856.30	228.27
856.61	228.25
856.92	228.25
857.23	228.22
857.55	228.20
857.86	228.18
858.17	228.21
858.48	228.18
858.79	228.15
859.11	228.17
859.42	228.21
859.73	228.19
860.04	228.15
860.35	228.10
860.66	228.04
860.98	227.98
861.29	227.98
861.60	227.94
861.91	227.95
862.22	227.95
862.53	227.92
862.84	227.79
863.16	227.78
863.47	227.74
863.78	227.73
864.09	227.71
864.40	227.73
864.71	227.72
865.02	227.72
865.33	227.69
865.64	227.65
865.95	227.63
866.27	227.69
866.58	227.69
866.89	227.67
867.20	227.70
867.51	227.69
867.82	227.70
868.13	227.74
868.44	227.69
868.75	227.69
869.06	227.70
869.37	227.72
869.68	227.70
869.99	227.73
870.30	227.69
870.61	227.69
870.92	227.61
871.23	227.60
871.54	227.61
871.85	227.62
872.16	227.62
872.47	227.61
872.78	227.56
873.09	227.55
873.40	227.55
873.71	227.53
874.02	227.54
874.33	227.50
874.64	227.49
874.95	227.51
875.26	227.49
875.56	227.46
875.87	227.46
876.18	227.43
876.49	227.50
876.80	227.54
877.11	227.53
877.42	227.59
877.73	227.56
878.04	227.55
878.35	227.57
878.66	227.56
878.96	227.56
879.27	227.53
879.58	227.53
879.89	227.55
880.20	227.58
880.51	227.58
880.82	227.63
881.12	227.64
881.43	227.61
881.74	227.60
882.05	227.62
882.36	227.63
882.67	227.65
882.97	227.56
883.28	227.57
883.59	227.58
883.90	227.57
884.21	227.60
884.51	227.58
884.82	227.55
885.13	227.55
885.44	227.54
885.74	227.55
886.05	227.55
886.36	227.57
886.67	227.53
886.98	227.58
887.28	227.55
887.59	227.53
887.90	227.55
888.20	227.55
888.51	227.56
888.82	227.53
889.13	227.56
889.43	227.65
889.74	227.65
890.05	227.68
890.35	227.66
890.66	227.66
890.97	227.67
891.28	227.66
891.58	227.69
891.89	227.68
892.20	227.67
892.50	227.64
892.81	227.61
893.12	227.62
893.42	227.59
893.73	227.60
894.04	227.62
894.34	227.63
894.65	227.65
894.95	227.64
895.26	227.64
895.57	227.65
895.87	227.58
896.18	227.57
896.48	227.53
896.79	227.52
897.10	227.53
897.40	227.53
897.71	227.55
898.01	227.54
898.32	227.57
898.63	227.56
898.93	227.60
899.24	227.59
899.54	227.58
899.85	227.57
900.15	227.54
900.46	227.54
900.76	227.56
901.07	227.54
901.38	227.55
901.68	227.53
901.99	227.47
902.29	227.45
902.60	227.43
902.90	227.40
903.21	227.41
903.51	227.41
903.82	227.42
904.12	227.38
904.43	227.38
904.73	227.34
905.03	227.36
905.34	227.42
905.64	227.42
905.95	227.42
906.25	227.42
906.56	227.42
906.86	227.43
907.17	227.39
907.47	227.39
907.77	227.36
908.08	227.34
908.38	227.35
908.69	227.33
908.99	227.31
909.30	227.34
909.60	227.29
909.90	227.28
910.21	227.27
910.51	227.26
910.81	227.22
911.12	227.21
911.42	227.20
911.73	227.10
912.03	227.08
912.33	227.08
912.64	227.04
912.94	227.02
913.24	226.97
913.55	226.96
913.85	226.91
914.15	226.96
914.46	226.95
914.76	226.93
915.06	226.91
915.37	226.92
915.67	226.90
915.97	226.92
916.27	226.89
916.58	226.87
916.88	226.85
917.18	226.84
917.49	226.89
917.79	226.89
918.09	226.88
918.39	226.93
918.70	226.91
919.00	226.91
919.30	226.98
919.60	226.96
919.91	226.95
920.21	227.00
920.51	226.94
920.81	226.94
921.12	226.98
921.42	227.01
921.72	227.01
922.02	227.02
922.32	227.02
922.63	227.04
922.93	227.09
923.23	227.13
923.53	227.15
923.83	227.13
924.13	227.13
924.44	227.15
924.74	227.15
925.04	227.22
925.34	227.25
925.64	227.22
925.94	227.25
926.24	227.30
926.55	227.29
926.85	227.32
927.15	227.33
927.45	227.35
927.75	227.35
928.05	227.39
928.35	227.43
928.65	227.45
928.95	227.48
929.26	227.45
929.56	227.47
929.86	227.46
930.16	227.45
930.46	227.44
930.76	227.44
931.06	227.41
931.36	227.40
931.66	227.41
931.96	227.45
932.26	227.45
932.56	227.45
932.86	227.46
933.16	227.47
933.46	227.47
933.76	227.44
934.06	227.47
934.36	227.47
934.66	227.45
934.96	227.44
935.26	227.46
935.56	227.50
935.86	227.46
936.16	227.51
936.46	227.51
936.76	227.53
937.06	227.53
937.36	227.54
937.66	227.56
937.96	227.53
938.26	227.48
938.56	227.49
938.86	227.44
939.16	227.45
939.46	227.45
939.76	227.47
940.06	227.46
940.35	227.43
940.65	227.37
940.95	227.36
941.25	227.32
941.55	227.26
941.85	227.24
942.15	227.27
942.45	227.23
942.75	227.21
943.04	227.20
943.34	227.21
943.64	227.18
943.94	227.13
944.24	227.12
944.54	227.14
944.84	227.10
945.13	227.12
945.43	227.07
945.73	227.05
946.03	226.99
946.33	226.98
946.62	226.98
946.92	226.99
947.22	226.98
947.52	226.98
947.82	227.02
948.11	226.98
948.41	226.93
948.71	226.91
949.01	226.92
949.31	226.90
949.60	226.88
949.90	226.87
950.20	226.86
950.50	226.87
950.79	226.84
951.09	226.88
951.39	226.88
951.69	226.88
951.98	226.87
952.28	226.86
952.58	226.85
952.87	226.83
953.17	226.82
953.47	226.81
953.76	226.83
954.06	226.81
954.36	226.82
954.66	226.83
954.95	226.85
955.25	226.82
955.55	226.84
955.84	226.84
956.14	226.85
956.44	226.85
956.73	226.85
957.03	226.84
957.32	226.82
957.62	226.80
957.92	226.85
958.21	226.88
958.51	227.02
958.81	227.05
959.10	227.05
959.40	227.09
959.69	227.07
959.99	227.06
960.29	227.06
960.58	227.06
960.88	227.10
961.17	227.08
961.47	227.15
961.76	227.12
962.06	227.10
962.36	227.11
962.65	227.09
962.95	227.09
963.24	227.12
963.54	227.14
963.83	227.17
964.13	227.16
964.42	227.12
964.72	227.02
965.01	227.00
965.31	227.02
965.60	227.03
965.90	227.13
966.19	227.12
966.49	227.11
966.78	227.08
967.08	227.06
967.37	227.09
967.67	227.05
967.96	227.08
968.26	227.09
968.55	227.11
968.85	227.12
969.14	227.15
969.43	227.16
969.73	227.20
970.02	227.19
970.32	227.20
970.61	227.22
970.91	227.18
971.20	227.21
971.49	227.21
971.79	227.21
972.08	227.12
972.38	227.16
972.67	227.18
972.96	227.21
973.26	227.23
973.55	227.27
973.85	227.29
974.14	227.28
974.43	227.32
974.73	227.31
975.02	227.33
975.31	227.32
975.61	227.28
975.90	227.25
976.19	227.22
976.49	227.24
976.78	227.25
977.07	227.30
977.37	227.31
977.66	227.30
977.95	227.29
978.24	227.34
978.54	227.32
978.83	227.35
979.12	227.36
979.42	227.35
979.71	227.32
980.00	227.30
980.29	227.28
980.59	227.25
980.88	227.24
981.17	227.22
981.46	227.23
981.76	227.21
982.05	227.23
982.34	227.27
982.63	227.24
982.93	227.22
983.22	227.23
983.51	227.20
983.80	227.21
984.09	227.22
984.39	227.18
984.68	227.18
984.97	227.13
985.26	227.09
985.55	227.10
985.85	227.06
986.14	227.07
986.43	227.08
986.72	227.06
987.01	227.06
987.30	227.05
987.59	227.02
987.89	227.03
988.18	226.98
988.47	226.94
988.76	226.93
989.05	226.92
989.34	226.88
989.63	226.89
989.92	226.89
990.22	226.82
990.51	226.80
990.80	226.77
991.09	226.81
991.38	226.85
991.67	226.82
991.96	226.80
992.25	226.76
992.54	226.76
992.83	226.79
993.12	226.77
993.41	226.82
993.70	226.87
993.99	226.88
994.28	226.85
994.58	226.88
994.87	226.86
995.16	226.84
995.45	226.86
995.74	226.86
996.03	226.83
996.32	226.88
996.61	226.88
996.90	226.88
997.19	226.86
997.48	226.83
997.77	226.83
998.06	226.83
998.34	226.88
998.63	226.89
998.92	226.87
999.21	226.91
999.50	226.88
999.79	226.85
1000.08	226.88
1000.37	226.91
1000.66	226.91
1000.95	226.93
1001.24	226.95
1001.53	226.96
1001.82	226.95
1002.11	226.97
1002.40	226.99
1002.68	227.04
1002.97	227.12
1003.26	227.10
1003.55	227.11
1003.84	227.14
1004.13	227.19
1004.42	227.19
1004.71	227.18
1004.99	227.20
1005.28	227.20
1005.57	227.20
1005.86	227.19
1006.15	227.17
1006.44	227.16
1006.72	227.15
1007.01	227.18
1007.30	227.19
1007.59	227.20
1007.88	227.21
1008.17	227.22
1008.45	227.23
1008.74	227.19
1009.03	227.17
1009.32	227.20
1009.60	227.20
1009.89	227.20
1010.18	227.18
1010.47	227.17
1010.76	227.18
1011.04	227.18
1011.33	227.20
1011.62	227.22
1011.91	227.24
1012.19	227.25
1012.48	227.28
1012.77	227.33
1013.05	227.35
1013.34	227.34
1013.63	227.32
1013.92	227.32
1014.20	227.33
1014.49	227.31
1014.78	227.34
1015.06	227.30
1015.35	227.31
1015.64	227.32
1015.92	227.34
1016.21	227.33
1016.50	227.35
1016.78	227.35
1017.07	227.31
1017.36	227.25
1017.64	227.25
1017.93	227.25
1018.22	227.24
1018.50	227.20
1018.79	227.18
1019.08	227.14
1019.36	227.16
1019.65	227.17
1019.93	227.20
1020.22	227.20
1020.51	227.24
1020.79	227.24
1021.08	227.19
1021.36	226.50
1021.65	227.26
1021.94	227.26
1022.22	227.09
1022.51	227.26
1022.79	227.74
1023.08	227.54
1023.36	227.98
1023.65	227.33
>>>>>End Processed Spectral Data<<<<<
