SpectraSuite Data File
++++++++++++++++++++++++++++++++++++
Date: Fri Feb 01 15:45:26 EST 2013
User: group
Dark Spectrum Present: No
Reference Spectrum Present: No
Number of Sampled Component Spectra: 1
Spectrometers: USB2E7196
Integration Time (usec): 35000 (USB2E7196)
Spectra Averaged: 100 (USB2E7196)
Boxcar Smoothing: 10 (USB2E7196)
Correct for Electrical Dark: No (USB2E7196)
Strobe/Lamp Enabled: No (USB2E7196)
Correct for Detector Non-linearity: No (USB2E7196)
Correct for Stray Light: No (USB2E7196)
Number of Pixels in Processed Spectrum: 2048
>>>>>Begin Processed Spectral Data<<<<<
339.09	0.00
339.48	214.52
339.86	216.56
340.24	217.49
340.63	218.89
341.01	221.78
341.39	222.33
341.78	223.21
342.16	224.39
342.54	224.92
342.93	213.07
343.31	223.87
343.69	224.42
344.07	224.89
344.46	225.33
344.84	225.74
345.22	226.02
345.60	226.24
345.99	226.43
346.37	226.58
346.75	226.69
347.13	226.76
347.52	226.80
347.90	226.89
348.28	226.94
348.66	226.99
349.05	227.01
349.43	227.06
349.81	227.10
350.19	227.17
350.57	227.23
350.96	227.33
351.34	227.39
351.72	227.49
352.10	227.54
352.48	227.61
352.87	227.64
353.25	227.64
353.63	227.71
354.01	227.77
354.39	227.82
354.77	227.89
355.15	227.97
355.54	228.01
355.92	228.05
356.30	228.12
356.68	228.26
357.06	228.33
357.44	228.41
357.82	228.46
358.20	228.54
358.58	228.59
358.97	228.66
359.35	228.71
359.73	228.78
360.11	228.83
360.49	228.87
360.87	228.91
361.25	228.97
361.63	229.03
362.01	229.05
362.39	229.07
362.77	229.11
363.15	229.13
363.53	229.19
363.91	229.17
364.29	229.18
364.67	229.07
365.05	229.11
365.43	229.11
365.81	229.13
366.19	229.12
366.57	229.15
366.95	229.11
367.33	229.08
367.71	229.07
368.09	229.07
368.47	229.03
368.85	229.01
369.23	229.02
369.61	228.97
369.99	228.99
370.37	228.99
370.75	228.99
371.13	228.94
371.51	228.88
371.89	228.90
372.27	228.88
372.65	228.88
373.03	228.80
373.41	228.72
373.78	228.66
374.16	228.61
374.54	228.53
374.92	228.50
375.30	228.44
375.68	228.38
376.06	228.33
376.44	228.29
376.82	228.22
377.19	228.13
377.57	228.08
377.95	227.96
378.33	227.88
378.71	227.75
379.09	227.72
379.47	227.68
379.84	227.61
380.22	227.50
380.60	227.37
380.98	227.33
381.36	227.26
381.73	227.22
382.11	227.14
382.49	227.08
382.87	227.02
383.25	226.94
383.62	226.97
384.00	226.90
384.38	226.83
384.76	226.80
385.13	226.80
385.51	226.75
385.89	226.69
386.27	226.64
386.64	226.63
387.02	226.56
387.40	226.51
387.78	226.43
388.15	226.42
388.53	226.41
388.91	226.35
389.29	226.33
389.66	226.29
390.04	226.28
390.42	226.28
390.79	226.26
391.17	226.29
391.55	226.20
391.92	226.20
392.30	226.20
392.68	226.22
393.05	226.20
393.43	226.20
393.81	226.22
394.18	226.24
394.56	226.25
394.94	226.30
395.31	226.30
395.69	226.40
396.06	226.41
396.44	226.46
396.82	226.53
397.19	226.63
397.57	226.69
397.95	226.75
398.32	226.82
398.70	226.89
399.07	226.99
399.45	227.06
399.82	227.14
400.20	227.21
400.58	227.27
400.95	227.35
401.33	227.47
401.70	227.63
402.08	227.74
402.45	227.87
402.83	227.98
403.20	228.11
403.58	228.19
403.95	228.36
404.33	228.48
404.71	228.62
405.08	228.74
405.46	228.83
405.83	228.98
406.21	229.10
406.58	229.27
406.96	229.39
407.33	229.55
407.70	229.74
408.08	230.03
408.45	230.24
408.83	230.47
409.20	230.65
409.58	230.85
409.95	231.08
410.33	231.33
410.70	231.59
411.08	231.87
411.45	232.15
411.82	232.43
412.20	232.80
412.57	233.21
412.95	233.54
413.32	233.96
413.69	234.35
414.07	234.78
414.44	235.24
414.82	235.73
415.19	236.27
415.56	236.82
415.94	237.34
416.31	238.00
416.68	238.60
417.06	239.34
417.43	240.02
417.81	240.80
418.18	241.57
418.55	242.41
418.93	243.27
419.30	244.20
419.67	245.11
420.04	246.07
420.42	247.06
420.79	248.24
421.16	249.43
421.54	250.62
421.91	251.84
422.28	253.08
422.66	254.42
423.03	255.69
423.40	257.00
423.77	258.43
424.15	259.85
424.52	261.35
424.89	262.92
425.26	264.46
425.64	265.85
426.01	267.45
426.38	269.06
426.75	270.73
427.13	272.46
427.50	274.31
427.87	276.16
428.24	277.99
428.61	279.69
428.99	281.57
429.36	283.68
429.73	285.73
430.10	287.77
430.47	289.80
430.85	291.94
431.22	294.21
431.59	296.56
431.96	298.78
432.33	301.24
432.70	303.65
433.08	306.46
433.45	309.15
433.82	311.72
434.19	314.64
434.56	317.46
434.93	320.08
435.30	322.68
435.68	325.57
436.05	328.41
436.42	331.26
436.79	333.76
437.16	336.47
437.53	339.30
437.90	342.10
438.27	344.89
438.64	347.73
439.01	350.29
439.38	352.53
439.75	354.71
440.13	357.20
440.50	359.50
440.87	361.33
441.24	363.24
441.61	365.47
441.98	366.96
442.35	368.75
442.72	370.62
443.09	372.40
443.46	373.42
443.83	374.01
444.20	374.48
444.57	375.37
444.94	375.65
445.31	375.96
445.68	376.33
446.05	376.35
446.42	375.93
446.79	375.53
447.16	375.16
447.53	374.81
447.90	373.68
448.27	372.51
448.64	370.96
449.01	369.83
449.37	367.80
449.74	365.92
450.11	363.64
450.48	361.16
450.85	358.65
451.22	356.52
451.59	354.53
451.96	352.62
452.33	350.02
452.70	347.64
453.07	344.82
453.43	341.92
453.80	339.14
454.17	336.48
454.54	333.91
454.91	331.13
455.28	328.48
455.65	325.95
456.02	323.53
456.38	321.36
456.75	318.71
457.12	316.47
457.49	314.26
457.86	312.11
458.23	310.24
458.59	308.17
458.96	306.06
459.33	304.17
459.70	302.27
460.07	300.78
460.43	299.09
460.80	297.48
461.17	296.04
461.54	294.57
461.91	293.16
462.27	291.71
462.64	290.49
463.01	289.13
463.38	287.89
463.74	286.50
464.11	285.34
464.48	284.34
464.85	283.24
465.21	282.34
465.58	281.45
465.95	280.38
466.32	279.53
466.68	278.65
467.05	277.75
467.42	276.87
467.78	275.95
468.15	275.06
468.52	274.45
468.88	273.58
469.25	272.80
469.62	272.17
469.98	271.51
470.35	270.86
470.72	270.27
471.08	269.58
471.45	269.07
471.82	268.54
472.18	267.91
472.55	267.46
472.92	266.91
473.28	266.43
473.65	265.93
474.02	265.46
474.38	265.06
474.75	264.77
475.11	264.42
475.48	264.12
475.85	263.88
476.21	263.59
476.58	263.40
476.94	263.27
477.31	263.10
477.67	262.99
478.04	262.88
478.41	262.85
478.77	262.89
479.14	262.80
479.50	262.80
479.87	262.89
480.23	262.98
480.60	263.10
480.96	263.17
481.33	263.39
481.69	263.57
482.06	263.77
482.42	263.95
482.79	264.24
483.15	264.58
483.52	264.99
483.88	265.31
484.25	265.70
484.61	266.13
484.98	266.59
485.34	267.11
485.71	267.68
486.07	268.27
486.44	268.82
486.80	269.54
487.17	270.27
487.53	271.09
487.90	271.96
488.26	272.88
488.62	273.89
488.99	274.90
489.35	275.96
489.72	277.12
490.08	278.31
490.44	279.53
490.81	280.86
491.17	282.24
491.54	283.74
491.90	285.27
492.26	286.92
492.63	288.66
492.99	290.44
493.36	292.35
493.72	294.36
494.08	296.51
494.45	298.75
494.81	301.10
495.17	303.50
495.54	306.02
495.90	308.74
496.26	311.57
496.63	314.54
496.99	317.67
497.35	320.88
497.72	324.31
498.08	327.81
498.44	331.45
498.80	335.32
499.17	339.37
499.53	343.54
499.89	347.91
500.26	352.39
500.62	357.10
500.98	362.06
501.34	367.15
501.71	372.49
502.07	377.91
502.43	383.57
502.79	389.37
503.16	395.43
503.52	401.75
503.88	408.14
504.24	414.79
504.60	421.63
504.97	428.78
505.33	436.09
505.69	443.80
506.05	451.65
506.41	459.61
506.78	467.77
507.14	476.19
507.50	484.94
507.86	494.01
508.22	503.18
508.59	512.38
508.95	522.01
509.31	531.79
509.67	541.92
510.03	552.16
510.39	562.77
510.75	573.62
511.12	584.51
511.48	595.83
511.84	607.33
512.20	618.90
512.56	630.84
512.92	643.04
513.28	655.40
513.64	667.91
514.00	680.57
514.37	693.53
514.73	706.64
515.09	719.68
515.45	733.00
515.81	746.56
516.17	760.53
516.53	774.63
516.89	788.87
517.25	803.07
517.61	817.47
517.97	831.98
518.33	846.39
518.69	861.16
519.05	876.16
519.41	891.31
519.77	906.95
520.13	922.44
520.49	937.80
520.85	953.30
521.21	968.89
521.57	985.12
521.93	1000.85
522.29	1017.33
522.65	1033.61
523.01	1049.83
523.37	1065.93
523.73	1082.17
524.09	1098.26
524.45	1114.62
524.81	1131.37
525.17	1148.29
525.53	1165.13
525.89	1182.04
526.25	1198.93
526.61	1215.32
526.97	1232.07
527.33	1248.52
527.68	1265.13
528.04	1281.67
528.40	1298.33
528.76	1315.50
529.12	1332.14
529.48	1348.95
529.84	1364.90
530.20	1381.48
530.56	1398.52
530.91	1415.97
531.27	1432.67
531.63	1449.18
531.99	1465.62
532.35	1481.44
532.71	1497.31
533.07	1513.54
533.42	1529.37
533.78	1545.37
534.14	1561.65
534.50	1577.03
534.86	1592.94
535.21	1607.97
535.57	1623.91
535.93	1639.33
536.29	1654.08
536.65	1669.00
537.00	1683.96
537.36	1699.27
537.72	1713.89
538.08	1728.16
538.44	1741.87
538.79	1755.73
539.15	1769.38
539.51	1783.24
539.87	1797.67
540.22	1811.38
540.58	1825.28
540.94	1838.57
541.29	1851.57
541.65	1864.28
542.01	1877.50
542.37	1889.66
542.72	1902.18
543.08	1913.94
543.44	1926.30
543.79	1937.55
544.15	1948.64
544.51	1960.10
544.87	1971.02
545.22	1981.70
545.58	1992.07
545.94	2001.81
546.29	2011.69
546.65	2021.50
547.01	2030.70
547.36	2039.33
547.72	2047.81
548.07	2055.52
548.43	2063.86
548.79	2071.71
549.14	2079.18
549.50	2086.59
549.86	2094.34
550.21	2101.78
550.57	2108.85
550.92	2115.47
551.28	2122.53
551.64	2129.61
551.99	2136.29
552.35	2142.47
552.70	2148.61
553.06	2154.54
553.41	2161.05
553.77	2167.07
554.13	2173.21
554.48	2179.40
554.84	2184.93
555.19	2190.25
555.55	2195.36
555.90	2199.68
556.26	2204.62
556.61	2209.45
556.97	2213.58
557.32	2217.71
557.68	2221.78
558.03	2226.07
558.39	2229.78
558.74	2234.37
559.10	2238.27
559.45	2241.90
559.81	2246.21
560.16	2250.21
560.52	2253.50
560.87	2256.80
561.23	2259.45
561.58	2262.35
561.94	2264.80
562.29	2267.13
562.64	2269.80
563.00	2272.39
563.35	2275.92
563.71	2279.02
564.06	2282.20
564.42	2285.12
564.77	2287.53
565.12	2289.71
565.48	2291.70
565.83	2293.52
566.19	2294.86
566.54	2295.80
566.89	2296.75
567.25	2297.36
567.60	2298.54
567.96	2300.16
568.31	2301.04
568.66	2302.15
569.02	2302.76
569.37	2303.04
569.72	2303.90
570.08	2304.02
570.43	2304.24
570.78	2303.70
571.14	2302.20
571.49	2300.90
571.84	2300.54
572.20	2299.35
572.55	2298.32
572.90	2296.75
573.26	2295.38
573.61	2293.66
573.96	2291.75
574.31	2288.84
574.67	2285.65
575.02	2282.05
575.37	2278.72
575.72	2274.84
576.08	2271.53
576.43	2268.19
576.78	2264.51
577.13	2261.25
577.49	2258.16
577.84	2254.51
578.19	2250.83
578.54	2247.09
578.90	2242.67
579.25	2237.17
579.60	2232.29
579.95	2227.28
580.30	2222.30
580.66	2217.11
581.01	2212.16
581.36	2207.34
581.71	2203.18
582.06	2198.76
582.42	2194.24
582.77	2188.87
583.12	2184.41
583.47	2179.63
583.82	2174.50
584.17	2169.16
584.53	2163.74
584.88	2158.04
585.23	2152.25
585.58	2146.73
585.93	2141.39
586.28	2136.73
586.63	2131.52
586.98	2126.39
587.34	2121.69
587.69	2116.69
588.04	2111.47
588.39	2105.70
588.74	2099.18
589.09	2092.96
589.44	2086.24
589.79	2080.15
590.14	2074.66
590.49	2067.99
590.84	2061.74
591.19	2055.83
591.54	2049.51
591.89	2042.08
592.25	2035.22
592.60	2027.99
592.95	2020.29
593.30	2012.84
593.65	2005.20
594.00	1998.25
594.35	1990.97
594.70	1982.82
595.05	1975.46
595.40	1968.10
595.75	1960.61
596.10	1954.30
596.45	1947.53
596.80	1941.24
597.15	1934.56
597.50	1927.37
597.85	1920.98
598.19	1914.20
598.54	1906.99
598.89	1900.29
599.24	1894.40
599.59	1887.72
599.94	1881.55
600.29	1875.30
600.64	1868.71
600.99	1861.21
601.34	1854.31
601.69	1847.52
602.04	1840.67
602.39	1833.47
602.74	1826.64
603.08	1819.84
603.43	1813.13
603.78	1805.81
604.13	1798.71
604.48	1791.40
604.83	1784.59
605.18	1777.39
605.53	1769.36
605.87	1761.26
606.22	1754.05
606.57	1746.11
606.92	1738.78
607.27	1731.48
607.62	1724.51
607.96	1717.15
608.31	1710.58
608.66	1702.96
609.01	1695.19
609.36	1687.74
609.70	1679.72
610.05	1671.51
610.40	1663.78
610.75	1655.47
611.10	1647.80
611.44	1639.41
611.79	1631.42
612.14	1622.66
612.49	1613.68
612.83	1605.25
613.18	1597.19
613.53	1589.07
613.88	1580.51
614.22	1572.21
614.57	1563.77
614.92	1555.72
615.27	1548.13
615.61	1539.72
615.96	1531.68
616.31	1524.13
616.65	1516.69
617.00	1509.10
617.35	1501.54
617.70	1493.28
618.04	1484.77
618.39	1476.68
618.74	1469.05
619.08	1460.85
619.43	1453.19
619.78	1446.24
620.12	1438.97
620.47	1431.41
620.82	1423.31
621.16	1415.91
621.51	1408.37
621.85	1400.69
622.20	1392.18
622.55	1383.86
622.89	1375.99
623.24	1368.36
623.59	1360.93
623.93	1353.47
624.28	1346.33
624.62	1338.78
624.97	1331.61
625.32	1324.86
625.66	1317.78
626.01	1310.53
626.35	1303.00
626.70	1295.37
627.04	1287.60
627.39	1279.97
627.73	1272.70
628.08	1265.67
628.43	1258.32
628.77	1250.91
629.12	1243.31
629.46	1236.23
629.81	1228.93
630.15	1221.72
630.50	1214.36
630.84	1206.21
631.19	1198.17
631.53	1190.63
631.88	1183.10
632.22	1175.49
632.57	1168.18
632.91	1160.65
633.26	1153.25
633.60	1145.97
633.95	1138.85
634.29	1131.87
634.64	1125.23
634.98	1117.79
635.32	1110.67
635.67	1104.04
636.01	1097.44
636.36	1090.65
636.70	1083.99
637.05	1077.34
637.39	1070.83
637.73	1064.32
638.08	1058.47
638.42	1052.54
638.77	1046.07
639.11	1039.47
639.45	1033.07
639.80	1026.41
640.14	1019.89
640.49	1013.38
640.83	1006.97
641.17	1000.69
641.52	994.30
641.86	987.76
642.20	981.90
642.55	975.54
642.89	969.10
643.23	962.54
643.58	956.79
643.92	950.64
644.26	944.55
644.61	938.67
644.95	932.57
645.29	925.89
645.64	919.10
645.98	912.72
646.32	906.80
646.66	900.82
647.01	895.02
647.35	889.44
647.69	883.62
648.04	878.18
648.38	872.39
648.72	866.34
649.06	860.30
649.41	854.37
649.75	848.43
650.09	842.54
650.43	836.71
650.78	830.46
651.12	824.51
651.46	818.83
651.80	812.99
652.14	807.58
652.49	802.25
652.83	797.09
653.17	791.33
653.51	785.59
653.85	780.15
654.20	774.48
654.54	768.37
654.88	762.59
655.22	756.62
655.56	750.96
655.90	745.63
656.25	740.37
656.59	735.06
656.93	729.97
657.27	724.78
657.61	719.38
657.95	714.41
658.29	709.31
658.64	704.06
658.98	698.78
659.32	693.35
659.66	688.09
660.00	682.74
660.34	677.87
660.68	673.01
661.02	668.05
661.36	663.37
661.70	658.91
662.05	654.57
662.39	650.22
662.73	645.73
663.07	641.35
663.41	636.88
663.75	632.36
664.09	627.88
664.43	623.47
664.77	619.30
665.11	614.99
665.45	610.88
665.79	606.72
666.13	602.56
666.47	598.47
666.81	594.35
667.15	590.30
667.49	586.39
667.83	582.60
668.17	578.57
668.51	574.48
668.85	570.44
669.19	566.65
669.53	562.84
669.87	558.93
670.21	555.20
670.55	551.65
670.89	548.30
671.23	544.81
671.57	541.31
671.91	537.80
672.25	534.32
672.58	530.77
672.92	527.39
673.26	524.25
673.60	521.09
673.94	517.98
674.28	515.02
674.62	512.07
674.96	508.93
675.30	506.04
675.64	503.07
675.97	500.28
676.31	497.35
676.65	494.43
676.99	491.72
677.33	488.84
677.67	485.95
678.01	482.87
678.34	479.86
678.68	476.95
679.02	474.12
679.36	471.37
679.70	468.71
680.04	465.98
680.37	463.10
680.71	460.34
681.05	457.73
681.39	455.00
681.73	452.39
682.06	449.88
682.40	447.29
682.74	444.82
683.08	442.30
683.42	439.71
683.75	437.24
684.09	434.74
684.43	432.29
684.77	429.81
685.10	427.45
685.44	425.17
685.78	422.90
686.12	420.67
686.45	418.31
686.79	416.00
687.13	413.79
687.46	411.63
687.80	409.49
688.14	407.30
688.48	405.29
688.81	403.02
689.15	400.85
689.49	398.78
689.82	396.70
690.16	394.61
690.50	392.66
690.83	390.71
691.17	388.70
691.51	386.77
691.84	384.92
692.18	383.03
692.52	381.07
692.85	379.14
693.19	377.26
693.52	375.54
693.86	373.75
694.20	371.95
694.53	370.19
694.87	368.36
695.21	366.54
695.54	364.73
695.88	363.01
696.21	361.31
696.55	359.63
696.88	357.96
697.22	356.29
697.56	354.67
697.89	352.98
698.23	351.39
698.56	349.79
698.90	348.24
699.23	346.59
699.57	345.03
699.90	343.52
700.24	341.96
700.58	340.37
700.91	338.83
701.25	337.42
701.58	336.02
701.92	334.65
702.25	333.31
702.59	331.90
702.92	330.58
703.26	329.30
703.59	327.98
703.93	326.78
704.26	325.55
704.60	324.27
704.93	323.01
705.26	321.78
705.60	320.62
705.93	319.44
706.27	318.42
706.60	317.35
706.94	316.26
707.27	315.10
707.61	314.03
707.94	313.03
708.27	311.92
708.61	310.83
708.94	309.79
709.28	308.80
709.61	307.84
709.94	306.86
710.28	305.86
710.61	304.86
710.95	303.82
711.28	302.90
711.61	301.98
711.95	301.06
712.28	300.08
712.61	299.07
712.95	298.14
713.28	297.24
713.61	296.33
713.95	295.45
714.28	294.63
714.61	293.77
714.95	292.89
715.28	292.03
715.61	291.15
715.95	290.29
716.28	289.39
716.61	288.54
716.95	287.75
717.28	287.00
717.61	286.22
717.94	285.45
718.28	284.63
718.61	283.88
718.94	283.19
719.27	282.56
719.61	281.90
719.94	281.25
720.27	280.55
720.60	279.87
720.94	279.20
721.27	278.61
721.60	278.05
721.93	277.45
722.27	276.94
722.60	276.40
722.93	275.86
723.26	275.35
723.59	274.82
723.93	274.27
724.26	273.70
724.59	273.16
724.92	272.64
725.25	272.13
725.59	271.62
725.92	271.15
726.25	270.61
726.58	270.15
726.91	269.66
727.24	269.18
727.57	268.71
727.91	268.23
728.24	267.79
728.57	267.30
728.90	266.84
729.23	266.30
729.56	265.86
729.89	265.37
730.22	264.86
730.55	264.39
730.89	263.94
731.22	263.48
731.55	263.06
731.88	262.62
732.21	262.17
732.54	261.72
732.87	261.27
733.20	260.88
733.53	260.48
733.86	260.11
734.19	259.69
734.52	259.34
734.85	259.01
735.18	258.57
735.51	258.24
735.84	257.85
736.17	257.50
736.50	257.10
736.83	256.88
737.16	256.58
737.49	256.21
737.82	255.86
738.15	255.54
738.48	255.20
738.81	254.90
739.14	254.59
739.47	254.27
739.80	253.94
740.13	253.63
740.46	253.29
740.79	252.92
741.12	252.60
741.45	252.28
741.78	251.91
742.11	251.61
742.44	251.26
742.77	250.96
743.10	250.68
743.43	250.38
743.75	249.98
744.08	249.82
744.41	249.58
744.74	249.29
745.07	249.01
745.40	248.72
745.73	248.46
746.06	248.20
746.39	247.93
746.71	247.66
747.04	247.41
747.37	247.15
747.70	246.95
748.03	246.69
748.36	246.46
748.68	246.24
749.01	245.99
749.34	245.75
749.67	245.55
750.00	245.34
750.33	245.20
750.65	245.00
750.98	244.65
751.31	244.45
751.64	244.24
751.97	244.06
752.29	243.88
752.62	243.62
752.95	243.44
753.28	243.25
753.60	243.07
753.93	242.87
754.26	242.69
754.59	242.48
754.91	242.30
755.24	242.11
755.57	241.92
755.90	241.76
756.22	241.55
756.55	241.35
756.88	241.13
757.20	240.88
757.53	240.67
757.86	240.51
758.19	240.34
758.51	240.18
758.84	239.99
759.17	239.81
759.49	239.67
759.82	239.52
760.15	239.38
760.47	239.22
760.80	239.05
761.13	238.90
761.45	238.71
761.78	238.56
762.11	238.42
762.43	238.27
762.76	238.16
763.08	238.06
763.41	237.96
763.74	237.84
764.06	237.71
764.39	237.61
764.71	237.44
765.04	237.32
765.37	237.18
765.69	237.03
766.02	236.89
766.34	236.75
766.67	236.64
767.00	236.52
767.32	236.46
767.65	236.40
767.97	236.31
768.30	236.23
768.62	236.12
768.95	235.97
769.27	235.86
769.60	235.77
769.92	235.62
770.25	235.49
770.57	235.36
770.90	235.24
771.22	235.11
771.55	235.04
771.87	234.92
772.20	234.84
772.52	234.82
772.85	234.87
773.17	234.80
773.50	234.67
773.82	234.57
774.15	234.42
774.47	234.25
774.80	234.12
775.12	234.06
775.45	233.95
775.77	233.92
776.09	233.85
776.42	233.73
776.74	233.69
777.07	233.60
777.39	233.54
777.72	233.47
778.04	233.42
778.36	233.34
778.69	233.30
779.01	233.22
779.33	233.07
779.66	232.87
779.98	232.78
780.31	232.70
780.63	232.69
780.95	232.66
781.28	232.61
781.60	232.55
781.92	232.48
782.25	232.45
782.57	232.36
782.89	232.26
783.22	232.21
783.54	232.15
783.86	232.09
784.19	232.01
784.51	231.97
784.83	231.92
785.16	231.85
785.48	231.78
785.80	231.74
786.12	231.67
786.45	231.61
786.77	231.61
787.09	231.58
787.42	231.49
787.74	231.44
788.06	231.39
788.38	231.32
788.71	231.25
789.03	231.18
789.35	231.18
789.67	231.15
789.99	231.12
790.32	231.02
790.64	230.99
790.96	231.04
791.28	230.98
791.61	230.90
791.93	230.87
792.25	230.83
792.57	230.85
792.89	230.84
793.21	230.80
793.54	230.72
793.86	230.69
794.18	230.67
794.50	230.62
794.82	230.61
795.14	230.61
795.47	230.59
795.79	230.57
796.11	230.46
796.43	230.42
796.75	230.38
797.07	230.37
797.39	230.34
797.71	230.25
798.04	230.22
798.36	230.23
798.68	230.19
799.00	230.17
799.32	230.07
799.64	230.07
799.96	230.02
800.28	230.00
800.60	229.95
800.92	229.91
801.24	229.87
801.56	229.86
801.89	229.79
802.21	229.75
802.53	229.71
802.85	229.73
803.17	229.74
803.49	229.68
803.81	229.61
804.13	229.61
804.45	229.55
804.77	229.54
805.09	229.49
805.41	229.48
805.73	229.42
806.05	229.40
806.37	229.37
806.69	229.39
807.01	229.38
807.33	229.37
807.65	229.31
807.97	229.31
808.28	229.26
808.60	229.25
808.92	229.20
809.24	229.23
809.56	229.22
809.88	229.19
810.20	229.18
810.52	229.19
810.84	229.15
811.16	229.13
811.48	229.10
811.80	229.12
812.12	229.09
812.43	229.09
812.75	229.11
813.07	229.05
813.39	229.02
813.71	228.98
814.03	228.95
814.35	228.93
814.67	228.90
814.98	228.88
815.30	228.89
815.62	228.87
815.94	228.80
816.26	228.83
816.58	228.77
816.89	228.78
817.21	228.76
817.53	228.74
817.85	228.74
818.17	228.71
818.48	228.66
818.80	228.67
819.12	228.62
819.44	228.58
819.76	228.58
820.07	228.57
820.39	228.55
820.71	228.57
821.03	228.56
821.34	228.53
821.66	228.51
821.98	228.50
822.30	228.46
822.61	228.49
822.93	228.40
823.25	228.42
823.57	228.38
823.88	228.40
824.20	228.38
824.52	228.37
824.83	228.33
825.15	228.33
825.47	228.30
825.79	228.31
826.10	228.25
826.42	228.21
826.74	228.20
827.05	228.16
827.37	228.15
827.69	228.14
828.00	228.12
828.32	228.13
828.64	228.12
828.95	228.17
829.27	228.11
829.58	228.12
829.90	228.09
830.22	228.06
830.53	228.00
830.85	227.99
831.17	227.97
831.48	227.99
831.80	227.97
832.11	227.95
832.43	227.94
832.75	227.95
833.06	227.99
833.38	227.97
833.69	227.94
834.01	227.92
834.32	227.90
834.64	227.88
834.96	227.87
835.27	227.83
835.59	227.81
835.90	227.79
836.22	227.76
836.53	227.76
836.85	227.78
837.16	227.89
837.48	227.88
837.79	227.89
838.11	227.90
838.42	227.89
838.74	227.93
839.05	227.89
839.37	227.87
839.68	227.84
840.00	227.80
840.31	227.85
840.63	227.84
840.94	227.84
841.26	227.83
841.57	227.83
841.88	227.80
842.20	227.78
842.51	227.78
842.83	227.80
843.14	227.86
843.46	227.82
843.77	227.80
844.08	227.81
844.40	227.78
844.71	227.74
845.03	227.74
845.34	227.71
845.65	227.71
845.97	227.73
846.28	227.70
846.60	227.73
846.91	227.68
847.22	227.63
847.54	227.65
847.85	227.66
848.16	227.64
848.48	227.65
848.79	227.70
849.10	227.70
849.42	227.69
849.73	227.63
850.04	227.61
850.36	227.57
850.67	227.55
850.98	227.56
851.30	227.56
851.61	227.58
851.92	227.58
852.23	227.61
852.55	227.59
852.86	227.63
853.17	227.64
853.49	227.67
853.80	227.71
854.11	227.69
854.42	227.67
854.74	227.66
855.05	227.63
855.36	227.55
855.67	227.56
855.99	227.59
856.30	227.68
856.61	227.70
856.92	227.67
857.23	227.69
857.55	227.64
857.86	227.64
858.17	227.63
858.48	227.58
858.79	227.56
859.11	227.54
859.42	227.48
859.73	227.45
860.04	227.41
860.35	227.36
860.66	227.37
860.98	227.37
861.29	227.39
861.60	227.38
861.91	227.42
862.22	227.38
862.53	227.33
862.84	227.20
863.16	227.21
863.47	227.19
863.78	227.16
864.09	227.18
864.40	227.16
864.71	227.12
865.02	227.15
865.33	227.15
865.64	227.15
865.95	227.17
866.27	227.23
866.58	227.23
866.89	227.27
867.20	227.24
867.51	227.22
867.82	227.20
868.13	227.26
868.44	227.19
868.75	227.20
869.06	227.20
869.37	227.22
869.68	227.16
869.99	227.17
870.30	227.19
870.61	227.19
870.92	227.18
871.23	227.17
871.54	227.18
871.85	227.16
872.16	227.15
872.47	227.15
872.78	227.10
873.09	227.10
873.40	227.06
873.71	227.09
874.02	227.10
874.33	227.07
874.64	227.04
874.95	227.05
875.26	227.06
875.56	227.07
875.87	227.07
876.18	227.08
876.49	227.16
876.80	227.17
877.11	227.18
877.42	227.17
877.73	227.23
878.04	227.23
878.35	227.24
878.66	227.24
878.96	227.21
879.27	227.20
879.58	227.20
879.89	227.22
880.20	227.24
880.51	227.24
880.82	227.26
881.12	227.28
881.43	227.28
881.74	227.25
882.05	227.24
882.36	227.24
882.67	227.27
882.97	227.16
883.28	227.12
883.59	227.12
883.90	227.18
884.21	227.15
884.51	227.14
884.82	227.17
885.13	227.17
885.44	227.18
885.74	227.20
886.05	227.19
886.36	227.20
886.67	227.14
886.98	227.19
887.28	227.19
887.59	227.18
887.90	227.17
888.20	227.18
888.51	227.24
888.82	227.22
889.13	227.21
889.43	227.30
889.74	227.32
890.05	227.29
890.35	227.26
890.66	227.24
890.97	227.20
891.28	227.14
891.58	227.15
891.89	227.18
892.20	227.14
892.50	227.15
892.81	227.14
893.12	227.17
893.42	227.13
893.73	227.12
894.04	227.12
894.34	227.13
894.65	227.13
894.95	227.05
895.26	227.04
895.57	227.05
895.87	226.99
896.18	226.94
896.48	226.95
896.79	226.93
897.10	226.93
897.40	226.96
897.71	226.97
898.01	226.96
898.32	226.94
898.63	226.92
898.93	226.92
899.24	226.87
899.54	226.83
899.85	226.80
900.15	226.79
900.46	226.78
900.76	226.79
901.07	226.78
901.38	226.78
901.68	226.82
901.99	226.78
902.29	226.78
902.60	226.80
902.90	226.77
903.21	226.79
903.51	226.80
903.82	226.81
904.12	226.80
904.43	226.79
904.73	226.78
905.03	226.80
905.34	226.87
905.64	226.87
905.95	226.87
906.25	226.85
906.56	226.83
906.86	226.83
907.17	226.81
907.47	226.80
907.77	226.81
908.08	226.80
908.38	226.81
908.69	226.83
908.99	226.86
909.30	226.87
909.60	226.84
909.90	226.82
910.21	226.78
910.51	226.78
910.81	226.80
911.12	226.80
911.42	226.78
911.73	226.67
912.03	226.68
912.33	226.71
912.64	226.74
912.94	226.75
913.24	226.74
913.55	226.70
913.85	226.71
914.15	226.72
914.46	226.69
914.76	226.71
915.06	226.69
915.37	226.65
915.67	226.66
915.97	226.69
916.27	226.69
916.58	226.69
916.88	226.67
917.18	226.69
917.49	226.74
917.79	226.75
918.09	226.81
918.39	226.85
918.70	226.86
919.00	226.83
919.30	226.87
919.60	226.87
919.91	226.90
920.21	226.90
920.51	226.87
920.81	226.87
921.12	226.86
921.42	226.83
921.72	226.88
922.02	226.88
922.32	226.90
922.63	226.92
922.93	227.02
923.23	227.05
923.53	227.03
923.83	226.99
924.13	227.02
924.44	227.03
924.74	227.06
925.04	227.07
925.34	227.11
925.64	227.08
925.94	227.08
926.24	227.14
926.55	227.18
926.85	227.23
927.15	227.26
927.45	227.30
927.75	227.35
928.05	227.33
928.35	227.35
928.65	227.36
928.95	227.39
929.26	227.34
929.56	227.34
929.86	227.39
930.16	227.41
930.46	227.40
930.76	227.39
931.06	227.31
931.36	227.29
931.66	227.29
931.96	227.32
932.26	227.35
932.56	227.31
932.86	227.26
933.16	227.24
933.46	227.23
933.76	227.20
934.06	227.21
934.36	227.24
934.66	227.20
934.96	227.20
935.26	227.17
935.56	227.17
935.86	227.11
936.16	227.08
936.46	227.06
936.76	227.04
937.06	227.03
937.36	227.05
937.66	227.05
937.96	227.02
938.26	226.99
938.56	226.95
938.86	226.94
939.16	226.99
939.46	226.98
939.76	226.99
940.06	226.99
940.35	226.94
940.65	226.91
940.95	226.93
941.25	226.90
941.55	226.89
941.85	226.88
942.15	226.94
942.45	226.97
942.75	226.95
943.04	226.94
943.34	226.96
943.64	226.93
943.94	226.92
944.24	226.93
944.54	226.93
944.84	226.93
945.13	226.91
945.43	226.90
945.73	226.89
946.03	226.89
946.33	226.90
946.62	226.88
946.92	226.87
947.22	226.86
947.52	226.86
947.82	226.85
948.11	226.85
948.41	226.81
948.71	226.74
949.01	226.77
949.31	226.77
949.60	226.72
949.90	226.74
950.20	226.74
950.50	226.73
950.79	226.72
951.09	226.75
951.39	226.77
951.69	226.78
951.98	226.79
952.28	226.77
952.58	226.73
952.87	226.75
953.17	226.77
953.47	226.79
953.76	226.82
954.06	226.80
954.36	226.75
954.66	226.77
954.95	226.84
955.25	226.80
955.55	226.81
955.84	226.83
956.14	226.84
956.44	226.84
956.73	226.85
957.03	226.87
957.32	226.89
957.62	226.88
957.92	226.91
958.21	226.92
958.51	227.03
958.81	227.06
959.10	227.06
959.40	227.09
959.69	227.08
959.99	227.03
960.29	227.06
960.58	227.09
960.88	227.12
961.17	227.08
961.47	227.10
961.76	227.11
962.06	227.13
962.36	227.12
962.65	227.13
962.95	227.10
963.24	227.10
963.54	227.08
963.83	227.11
964.13	227.07
964.42	227.02
964.72	226.94
965.01	226.93
965.31	226.96
965.60	226.91
965.90	226.97
966.19	226.98
966.49	226.96
966.78	226.96
967.08	226.92
967.37	226.91
967.67	226.91
967.96	226.90
968.26	226.86
968.55	226.87
968.85	226.86
969.14	226.88
969.43	226.85
969.73	226.82
970.02	226.80
970.32	226.77
970.61	226.76
970.91	226.75
971.20	226.71
971.49	226.66
971.79	226.66
972.08	226.58
972.38	226.58
972.67	226.60
972.96	226.58
973.26	226.57
973.55	226.60
973.85	226.55
974.14	226.55
974.43	226.58
974.73	226.55
975.02	226.53
975.31	226.52
975.61	226.52
975.90	226.52
976.19	226.49
976.49	226.50
976.78	226.50
977.07	226.49
977.37	226.50
977.66	226.49
977.95	226.45
978.24	226.43
978.54	226.42
978.83	226.37
979.12	226.35
979.42	226.35
979.71	226.35
980.00	226.36
980.29	226.36
980.59	226.32
980.88	226.38
981.17	226.38
981.46	226.37
981.76	226.37
982.05	226.41
982.34	226.41
982.63	226.41
982.93	226.40
983.22	226.44
983.51	226.45
983.80	226.50
984.09	226.54
984.39	226.52
984.68	226.53
984.97	226.55
985.26	226.58
985.55	226.59
985.85	226.55
986.14	226.58
986.43	226.58
986.72	226.59
987.01	226.56
987.30	226.56
987.59	226.58
987.89	226.59
988.18	226.53
988.47	226.58
988.76	226.58
989.05	226.60
989.34	226.59
989.63	226.61
989.92	226.59
990.22	226.59
990.51	226.63
990.80	226.60
991.09	226.62
991.38	226.61
991.67	226.62
991.96	226.62
992.25	226.66
992.54	226.66
992.83	226.67
993.12	226.68
993.41	226.67
993.70	226.69
993.99	226.70
994.28	226.72
994.58	226.69
994.87	226.66
995.16	226.68
995.45	226.65
995.74	226.63
996.03	226.66
996.32	226.66
996.61	226.67
996.90	226.69
997.19	226.70
997.48	226.69
997.77	226.68
998.06	226.71
998.34	226.67
998.63	226.69
998.92	226.68
999.21	226.70
999.50	226.73
999.79	226.72
1000.08	226.70
1000.37	226.73
1000.66	226.72
1000.95	226.77
1001.24	226.78
1001.53	226.80
1001.82	226.80
1002.11	226.76
1002.40	226.79
1002.68	226.82
1002.97	226.89
1003.26	226.87
1003.55	226.88
1003.84	226.90
1004.13	226.90
1004.42	226.87
1004.71	226.86
1004.99	226.86
1005.28	226.83
1005.57	226.80
1005.86	226.77
1006.15	226.78
1006.44	226.75
1006.72	226.76
1007.01	226.74
1007.30	226.71
1007.59	226.69
1007.88	226.67
1008.17	226.66
1008.45	226.60
1008.74	226.53
1009.03	226.50
1009.32	226.51
1009.60	226.50
1009.89	226.48
1010.18	226.41
1010.47	226.43
1010.76	226.39
1011.04	226.38
1011.33	226.39
1011.62	226.40
1011.91	226.41
1012.19	226.39
1012.48	226.39
1012.77	226.40
1013.05	226.45
1013.34	226.46
1013.63	226.45
1013.92	226.45
1014.20	226.44
1014.49	226.44
1014.78	226.45
1015.06	226.40
1015.35	226.36
1015.64	226.37
1015.92	226.41
1016.21	226.45
1016.50	226.42
1016.78	226.48
1017.07	226.46
1017.36	226.45
1017.64	226.46
1017.93	226.49
1018.22	226.51
1018.50	226.52
1018.79	226.48
1019.08	226.44
1019.36	226.44
1019.65	226.47
1019.93	226.48
1020.22	226.52
1020.51	226.59
1020.79	226.61
1021.08	226.49
1021.36	226.71
1021.65	226.12
1021.94	226.70
1022.22	226.63
1022.51	226.80
1022.79	226.71
1023.08	226.52
1023.36	227.52
1023.65	226.73
>>>>>End Processed Spectral Data<<<<<
