SpectraSuite Data File
++++++++++++++++++++++++++++++++++++
Date: Fri Feb 01 16:10:27 EST 2013
User: group
Dark Spectrum Present: No
Reference Spectrum Present: No
Number of Sampled Component Spectra: 1
Spectrometers: USB2E7196
Integration Time (usec): 35000 (USB2E7196)
Spectra Averaged: 100 (USB2E7196)
Boxcar Smoothing: 10 (USB2E7196)
Correct for Electrical Dark: No (USB2E7196)
Strobe/Lamp Enabled: No (USB2E7196)
Correct for Detector Non-linearity: No (USB2E7196)
Correct for Stray Light: No (USB2E7196)
Number of Pixels in Processed Spectrum: 2048
>>>>>Begin Processed Spectral Data<<<<<
339.09	0.00
339.48	214.70
339.86	216.26
340.24	217.23
340.63	218.98
341.01	221.79
341.39	221.66
341.78	222.63
342.16	224.18
342.54	224.30
342.93	212.84
343.31	223.57
343.69	224.09
344.07	224.53
344.46	224.95
344.84	225.29
345.22	225.50
345.60	225.74
345.99	225.90
346.37	226.00
346.75	226.09
347.13	226.15
347.52	226.17
347.90	226.23
348.28	226.25
348.66	226.31
349.05	226.28
349.43	226.32
349.81	226.31
350.19	226.36
350.57	226.41
350.96	226.46
351.34	226.53
351.72	226.62
352.10	226.70
352.48	226.74
352.87	226.81
353.25	226.88
353.63	226.92
354.01	227.00
354.39	227.07
354.77	227.14
355.15	227.24
355.54	227.30
355.92	227.38
356.30	227.47
356.68	227.60
357.06	227.71
357.44	227.77
357.82	227.85
358.20	227.92
358.58	227.98
358.97	228.07
359.35	228.18
359.73	228.23
360.11	228.30
360.49	228.39
360.87	228.44
361.25	228.49
361.63	228.56
362.01	228.61
362.39	228.67
362.77	228.75
363.15	228.77
363.53	228.82
363.91	228.86
364.29	228.86
364.67	228.78
365.05	228.77
365.43	228.80
365.81	228.86
366.19	228.89
366.57	228.93
366.95	228.96
367.33	228.92
367.71	228.96
368.09	228.96
368.47	228.92
368.85	228.92
369.23	228.94
369.61	228.91
369.99	228.90
370.37	228.85
370.75	228.86
371.13	228.83
371.51	228.80
371.89	228.75
372.27	228.72
372.65	228.70
373.03	228.67
373.41	228.62
373.78	228.51
374.16	228.41
374.54	228.35
374.92	228.27
375.30	228.25
375.68	228.15
376.06	228.09
376.44	228.03
376.82	227.99
377.19	227.91
377.57	227.85
377.95	227.77
378.33	227.73
378.71	227.60
379.09	227.53
379.47	227.48
379.84	227.43
380.22	227.35
380.60	227.29
380.98	227.21
381.36	227.16
381.73	227.12
382.11	227.08
382.49	227.02
382.87	226.93
383.25	226.84
383.62	226.89
384.00	226.81
384.38	226.78
384.76	226.76
385.13	226.73
385.51	226.66
385.89	226.62
386.27	226.58
386.64	226.56
387.02	226.50
387.40	226.44
387.78	226.39
388.15	226.37
388.53	226.30
388.91	226.27
389.29	226.20
389.66	226.21
390.04	226.16
390.42	226.16
390.79	226.15
391.17	226.13
391.55	225.99
391.92	225.97
392.30	225.97
392.68	225.88
393.05	225.89
393.43	225.89
393.81	225.87
394.18	225.86
394.56	225.86
394.94	225.89
395.31	225.90
395.69	225.93
396.06	225.95
396.44	225.99
396.82	226.02
397.19	226.13
397.57	226.14
397.95	226.19
398.32	226.20
398.70	226.25
399.07	226.32
399.45	226.38
399.82	226.46
400.20	226.51
400.58	226.60
400.95	226.64
401.33	226.75
401.70	226.89
402.08	227.00
402.45	227.09
402.83	227.19
403.20	227.28
403.58	227.38
403.95	227.50
404.33	227.66
404.71	227.79
405.08	227.95
405.46	228.10
405.83	228.24
406.21	228.37
406.58	228.56
406.96	228.72
407.33	228.91
407.70	229.11
408.08	229.37
408.45	229.62
408.83	229.82
409.20	230.02
409.58	230.18
409.95	230.45
410.33	230.72
410.70	231.01
411.08	231.31
411.45	231.63
411.82	231.94
412.20	232.26
412.57	232.68
412.95	233.00
413.32	233.39
413.69	233.86
414.07	234.30
414.44	234.75
414.82	235.23
415.19	235.79
415.56	236.36
415.94	236.93
416.31	237.55
416.68	238.18
417.06	238.90
417.43	239.60
417.81	240.36
418.18	241.14
418.55	241.98
418.93	242.87
419.30	243.78
419.67	244.71
420.04	245.66
420.42	246.64
420.79	247.80
421.16	248.93
421.54	250.09
421.91	251.33
422.28	252.60
422.66	253.92
423.03	255.22
423.40	256.51
423.77	257.90
424.15	259.33
424.52	260.85
424.89	262.46
425.26	264.04
425.64	265.47
426.01	267.03
426.38	268.65
426.75	270.32
427.13	272.04
427.50	273.85
427.87	275.70
428.24	277.57
428.61	279.31
428.99	281.25
429.36	283.36
429.73	285.40
430.10	287.39
430.47	289.45
430.85	291.57
431.22	293.81
431.59	296.17
431.96	298.39
432.33	300.83
432.70	303.21
433.08	306.03
433.45	308.66
433.82	311.31
434.19	314.16
434.56	316.97
434.93	319.58
435.30	322.20
435.68	325.11
436.05	327.95
436.42	330.74
436.79	333.28
437.16	335.91
437.53	338.72
437.90	341.53
438.27	344.31
438.64	347.13
439.01	349.73
439.38	351.97
439.75	354.14
440.13	356.65
440.50	358.97
440.87	360.78
441.24	362.73
441.61	364.86
441.98	366.37
442.35	368.21
442.72	370.05
443.09	371.81
443.46	372.80
443.83	373.39
444.20	373.88
444.57	374.70
444.94	375.04
445.31	375.35
445.68	375.68
446.05	375.75
446.42	375.32
446.79	374.86
447.16	374.40
447.53	374.07
447.90	372.93
448.27	371.74
448.64	370.17
449.01	369.04
449.37	367.05
449.74	365.16
450.11	362.86
450.48	360.47
450.85	357.95
451.22	355.80
451.59	353.76
451.96	351.84
452.33	349.22
452.70	346.82
453.07	344.01
453.43	341.09
453.80	338.29
454.17	335.62
454.54	333.10
454.91	330.40
455.28	327.74
455.65	325.22
456.02	322.78
456.38	320.62
456.75	317.92
457.12	315.69
457.49	313.50
457.86	311.35
458.23	309.44
458.59	307.42
458.96	305.37
459.33	303.50
459.70	301.62
460.07	300.16
460.43	298.50
460.80	296.89
461.17	295.47
461.54	294.00
461.91	292.60
462.27	291.16
462.64	289.92
463.01	288.55
463.38	287.27
463.74	285.92
464.11	284.75
464.48	283.71
464.85	282.58
465.21	281.68
465.58	280.80
465.95	279.73
466.32	278.83
466.68	277.93
467.05	277.07
467.42	276.14
467.78	275.22
468.15	274.33
468.52	273.69
468.88	272.85
469.25	272.07
469.62	271.45
469.98	270.79
470.35	270.13
470.72	269.55
471.08	268.92
471.45	268.36
471.82	267.85
472.18	267.31
472.55	266.87
472.92	266.38
473.28	265.90
473.65	265.45
474.02	265.02
474.38	264.67
474.75	264.32
475.11	264.05
475.48	263.79
475.85	263.52
476.21	263.33
476.58	263.19
476.94	263.07
477.31	262.90
477.67	262.78
478.04	262.71
478.41	262.66
478.77	262.68
479.14	262.65
479.50	262.67
479.87	262.75
480.23	262.84
480.60	262.89
480.96	262.95
481.33	263.17
481.69	263.34
482.06	263.52
482.42	263.74
482.79	263.99
483.15	264.34
483.52	264.76
483.88	265.07
484.25	265.45
484.61	265.87
484.98	266.38
485.34	266.94
485.71	267.52
486.07	268.12
486.44	268.69
486.80	269.40
487.17	270.13
487.53	270.96
487.90	271.83
488.26	272.81
488.62	273.83
488.99	274.79
489.35	275.88
489.72	277.02
490.08	278.25
490.44	279.49
490.81	280.78
491.17	282.12
491.54	283.60
491.90	285.11
492.26	286.72
492.63	288.41
492.99	290.17
493.36	292.07
493.72	294.17
494.08	296.28
494.45	298.51
494.81	300.85
495.17	303.27
495.54	305.82
495.90	308.53
496.26	311.31
496.63	314.31
496.99	317.42
497.35	320.67
497.72	324.03
498.08	327.54
498.44	331.22
498.80	335.15
499.17	339.17
499.53	343.45
499.89	347.80
500.26	352.35
500.62	357.05
500.98	362.01
501.34	367.03
501.71	372.38
502.07	377.92
502.43	383.53
502.79	389.31
503.16	395.43
503.52	401.70
503.88	408.10
504.24	414.73
504.60	421.62
504.97	428.76
505.33	436.12
505.69	443.85
506.05	451.61
506.41	459.49
506.78	467.72
507.14	476.10
507.50	484.89
507.86	493.89
508.22	503.10
508.59	512.41
508.95	522.03
509.31	531.88
509.67	541.93
510.03	552.29
510.39	562.88
510.75	573.68
511.12	584.57
511.48	595.90
511.84	607.38
512.20	618.90
512.56	630.87
512.92	643.05
513.28	655.45
513.64	667.98
514.00	680.66
514.37	693.57
514.73	706.63
515.09	719.59
515.45	732.88
515.81	746.44
516.17	760.37
516.53	774.46
516.89	788.56
517.25	802.68
517.61	817.05
517.97	831.55
518.33	845.85
518.69	860.68
519.05	875.58
519.41	890.76
519.77	906.26
520.13	921.67
520.49	937.05
520.85	952.32
521.21	967.99
521.57	984.31
521.93	1000.09
522.29	1016.43
522.65	1032.65
523.01	1048.86
523.37	1064.89
523.73	1080.99
524.09	1097.03
524.45	1113.28
524.81	1129.97
525.17	1146.60
525.53	1163.41
525.89	1180.27
526.25	1197.03
526.61	1213.44
526.97	1230.18
527.33	1246.54
527.68	1263.07
528.04	1279.50
528.40	1296.05
528.76	1313.03
529.12	1329.43
529.48	1346.17
529.84	1362.13
530.20	1378.74
530.56	1395.60
530.91	1412.84
531.27	1429.58
531.63	1446.01
531.99	1462.56
532.35	1478.33
532.71	1494.20
533.07	1510.40
533.42	1526.23
533.78	1542.22
534.14	1558.37
534.50	1573.54
534.86	1589.37
535.21	1604.54
535.57	1620.36
535.93	1635.79
536.29	1650.63
536.65	1665.65
537.00	1680.24
537.36	1695.47
537.72	1709.90
538.08	1724.28
538.44	1738.08
538.79	1751.84
539.15	1765.37
539.51	1779.04
539.87	1793.40
540.22	1807.04
540.58	1820.72
540.94	1833.99
541.29	1846.67
541.65	1859.33
542.01	1872.40
542.37	1884.74
542.72	1897.19
543.08	1908.87
543.44	1921.24
543.79	1932.31
544.15	1943.33
544.51	1955.00
544.87	1965.86
545.22	1976.65
545.58	1986.93
545.94	1996.72
546.29	2006.54
546.65	2016.58
547.01	2025.76
547.36	2034.39
547.72	2043.09
548.07	2050.91
548.43	2059.03
548.79	2067.08
549.14	2074.65
549.50	2081.94
549.86	2089.60
550.21	2096.70
550.57	2103.91
550.92	2110.50
551.28	2117.58
551.64	2124.58
551.99	2131.09
552.35	2137.38
552.70	2143.49
553.06	2149.40
553.41	2155.71
553.77	2161.75
554.13	2167.71
554.48	2173.94
554.84	2179.43
555.19	2184.42
555.55	2189.70
555.90	2194.36
556.26	2199.32
556.61	2203.91
556.97	2208.32
557.32	2212.33
557.68	2216.54
558.03	2220.89
558.39	2224.49
558.74	2229.10
559.10	2233.01
559.45	2236.69
559.81	2240.88
560.16	2244.83
560.52	2247.98
560.87	2251.41
561.23	2254.05
561.58	2257.00
561.94	2259.39
562.29	2261.85
562.64	2264.68
563.00	2267.15
563.35	2270.47
563.71	2273.58
564.06	2276.77
564.42	2279.65
564.77	2282.33
565.12	2284.66
565.48	2286.56
565.83	2288.58
566.19	2289.95
566.54	2290.81
566.89	2291.98
567.25	2292.70
567.60	2293.92
567.96	2295.63
568.31	2296.29
568.66	2297.40
569.02	2298.01
569.37	2298.45
569.72	2299.19
570.08	2299.30
570.43	2299.55
570.78	2298.98
571.14	2297.40
571.49	2296.15
571.84	2295.65
572.20	2294.57
572.55	2293.41
572.90	2291.78
573.26	2290.36
573.61	2288.72
573.96	2287.13
574.31	2284.15
574.67	2281.21
575.02	2277.69
575.37	2274.35
575.72	2270.74
576.08	2267.53
576.43	2264.29
576.78	2260.57
577.13	2257.51
577.49	2254.44
577.84	2250.81
578.19	2247.21
578.54	2243.68
578.90	2239.51
579.25	2234.09
579.60	2229.14
579.95	2224.25
580.30	2219.14
580.66	2213.88
581.01	2208.98
581.36	2204.00
581.71	2199.75
582.06	2195.22
582.42	2190.88
582.77	2185.87
583.12	2181.45
583.47	2176.66
583.82	2171.58
584.17	2166.62
584.53	2161.16
584.88	2155.53
585.23	2149.78
585.58	2144.27
585.93	2138.85
586.28	2134.03
586.63	2129.08
586.98	2124.03
587.34	2119.36
587.69	2114.64
588.04	2109.49
588.39	2103.87
588.74	2097.29
589.09	2091.27
589.44	2084.52
589.79	2078.37
590.14	2072.63
590.49	2065.88
590.84	2059.38
591.19	2053.39
591.54	2046.76
591.89	2039.52
592.25	2032.80
592.60	2025.62
592.95	2018.17
593.30	2010.93
593.65	2003.40
594.00	1996.24
594.35	1988.85
594.70	1980.85
595.05	1973.74
595.40	1966.56
595.75	1959.05
596.10	1953.02
596.45	1946.30
596.80	1940.16
597.15	1933.59
597.50	1926.55
597.85	1920.08
598.19	1913.62
598.54	1906.51
598.89	1899.95
599.24	1894.05
599.59	1887.55
599.94	1881.36
600.29	1875.00
600.64	1868.32
600.99	1860.83
601.34	1854.16
601.69	1847.28
602.04	1840.40
602.39	1832.97
602.74	1826.15
603.08	1819.38
603.43	1812.57
603.78	1805.29
604.13	1798.19
604.48	1790.84
604.83	1784.05
605.18	1777.13
605.53	1769.13
605.87	1761.09
606.22	1753.82
606.57	1745.87
606.92	1738.44
607.27	1731.29
607.62	1724.39
607.96	1717.20
608.31	1710.75
608.66	1703.09
609.01	1695.51
609.36	1688.02
609.70	1679.98
610.05	1671.92
610.40	1664.15
610.75	1655.83
611.10	1648.12
611.44	1639.67
611.79	1631.70
612.14	1622.97
612.49	1613.86
612.83	1605.49
613.18	1597.43
613.53	1589.33
613.88	1580.75
614.22	1572.43
614.57	1563.71
614.92	1555.63
615.27	1548.05
615.61	1539.69
615.96	1531.71
616.31	1524.20
616.65	1516.78
617.00	1509.24
617.35	1501.53
617.70	1493.25
618.04	1484.83
618.39	1476.63
618.74	1468.98
619.08	1460.63
619.43	1453.00
619.78	1446.21
620.12	1438.98
620.47	1431.50
620.82	1423.38
621.16	1415.90
621.51	1408.24
621.85	1400.66
622.20	1392.15
622.55	1383.82
622.89	1375.95
623.24	1368.36
623.59	1360.82
623.93	1353.28
624.28	1346.12
624.62	1338.57
624.97	1331.35
625.32	1324.54
625.66	1317.53
626.01	1310.43
626.35	1303.01
626.70	1295.24
627.04	1287.49
627.39	1279.69
627.73	1272.28
628.08	1265.33
628.43	1258.00
628.77	1250.83
629.12	1243.38
629.46	1236.30
629.81	1228.85
630.15	1221.74
630.50	1214.24
630.84	1206.20
631.19	1198.19
631.53	1190.65
631.88	1183.12
632.22	1175.55
632.57	1168.21
632.91	1160.56
633.26	1153.09
633.60	1145.71
633.95	1138.61
634.29	1131.43
634.64	1124.81
634.98	1117.46
635.32	1110.27
635.67	1103.63
636.01	1096.92
636.36	1090.07
636.70	1083.47
637.05	1076.81
637.39	1070.22
637.73	1063.77
638.08	1057.73
638.42	1051.76
638.77	1045.31
639.11	1038.75
639.45	1032.37
639.80	1025.67
640.14	1019.40
640.49	1012.89
640.83	1006.67
641.17	1000.48
641.52	994.21
641.86	987.78
642.20	981.88
642.55	975.52
642.89	969.17
643.23	962.57
643.58	956.83
643.92	950.72
644.26	944.82
644.61	938.86
644.95	932.84
645.29	926.41
645.64	919.66
645.98	913.36
646.32	907.49
646.66	901.47
647.01	895.73
647.35	889.93
647.69	884.02
648.04	878.48
648.38	872.67
648.72	866.67
649.06	860.62
649.41	854.67
649.75	848.76
650.09	842.82
650.43	837.05
650.78	830.91
651.12	824.81
651.46	818.98
651.80	813.17
652.14	807.73
652.49	802.34
652.83	797.25
653.17	791.56
653.51	785.85
653.85	780.35
654.20	774.76
654.54	768.79
654.88	763.08
655.22	757.13
655.56	751.46
655.90	745.98
656.25	740.70
656.59	735.38
656.93	730.31
657.27	725.07
657.61	719.61
657.95	714.48
658.29	709.48
658.64	704.22
658.98	698.89
659.32	693.42
659.66	688.15
660.00	682.84
660.34	677.84
660.68	673.00
661.02	668.03
661.36	663.30
661.70	658.77
662.05	654.41
662.39	650.08
662.73	645.63
663.07	641.33
663.41	636.84
663.75	632.40
664.09	627.74
664.43	623.38
664.77	619.27
665.11	615.03
665.45	610.85
665.79	606.75
666.13	602.62
666.47	598.57
666.81	594.45
667.15	590.32
667.49	586.44
667.83	582.53
668.17	578.59
668.51	574.53
668.85	570.51
669.19	566.69
669.53	562.85
669.87	558.96
670.21	555.25
670.55	551.65
670.89	548.21
671.23	544.87
671.57	541.38
671.91	537.85
672.25	534.36
672.58	530.86
672.92	527.42
673.26	524.28
673.60	521.12
673.94	518.06
674.28	515.13
674.62	512.15
674.96	509.07
675.30	506.18
675.64	503.28
675.97	500.46
676.31	497.60
676.65	494.61
676.99	491.89
677.33	489.01
677.67	486.17
678.01	483.14
678.34	480.15
678.68	477.23
679.02	474.41
679.36	471.63
679.70	468.91
680.04	466.24
680.37	463.38
680.71	460.62
681.05	457.95
681.39	455.24
681.73	452.60
682.06	450.08
682.40	447.47
682.74	444.89
683.08	442.35
683.42	439.74
683.75	437.28
684.09	434.72
684.43	432.25
684.77	429.85
685.10	427.48
685.44	425.18
685.78	422.92
686.12	420.66
686.45	418.33
686.79	416.06
687.13	413.87
687.46	411.71
687.80	409.48
688.14	407.27
688.48	405.23
688.81	402.98
689.15	400.77
689.49	398.68
689.82	396.63
690.16	394.55
690.50	392.60
690.83	390.65
691.17	388.68
691.51	386.80
691.84	384.92
692.18	382.99
692.52	380.97
692.85	379.02
693.19	377.13
693.52	375.32
693.86	373.47
694.20	371.64
694.53	369.81
694.87	367.96
695.21	366.09
695.54	364.23
695.88	362.51
696.21	360.84
696.55	359.12
696.88	357.39
697.22	355.72
697.56	354.12
697.89	352.44
698.23	350.81
698.56	349.14
698.90	347.53
699.23	345.87
699.57	344.32
699.90	342.79
700.24	341.24
700.58	339.71
700.91	338.21
701.25	336.74
701.58	335.39
701.92	334.01
702.25	332.66
702.59	331.30
702.92	329.94
703.26	328.58
703.59	327.31
703.93	326.14
704.26	324.89
704.60	323.52
704.93	322.23
705.26	320.95
705.60	319.77
705.93	318.60
706.27	317.52
706.60	316.47
706.94	315.39
707.27	314.26
707.61	313.15
707.94	312.12
708.27	311.05
708.61	309.95
708.94	308.96
709.28	307.99
709.61	307.00
709.94	306.11
710.28	305.13
710.61	304.14
710.95	303.05
711.28	302.12
711.61	301.21
711.95	300.38
712.28	299.47
712.61	298.48
712.95	297.57
713.28	296.73
713.61	295.84
713.95	294.97
714.28	294.10
714.61	293.24
714.95	292.39
715.28	291.57
715.61	290.70
715.95	289.84
716.28	289.00
716.61	288.21
716.95	287.38
717.28	286.63
717.61	285.86
717.94	285.13
718.28	284.36
718.61	283.63
718.94	282.90
719.27	282.26
719.61	281.63
719.94	280.99
720.27	280.27
720.60	279.61
720.94	278.96
721.27	278.39
721.60	277.82
721.93	277.27
722.27	276.71
722.60	276.18
722.93	275.62
723.26	275.07
723.59	274.49
723.93	273.90
724.26	273.33
724.59	272.83
724.92	272.29
725.25	271.79
725.59	271.27
725.92	270.79
726.25	270.29
726.58	269.78
726.91	269.28
727.24	268.80
727.57	268.35
727.91	267.85
728.24	267.43
728.57	266.94
728.90	266.47
729.23	265.95
729.56	265.54
729.89	265.07
730.22	264.58
730.55	264.12
730.89	263.70
731.22	263.29
731.55	262.82
731.88	262.42
732.21	262.00
732.54	261.59
732.87	261.13
733.20	260.70
733.53	260.37
733.86	259.99
734.19	259.62
734.52	259.24
734.85	258.91
735.18	258.45
735.51	258.11
735.84	257.72
736.17	257.42
736.50	256.97
736.83	256.75
737.16	256.41
737.49	256.07
737.82	255.70
738.15	255.37
738.48	255.04
738.81	254.68
739.14	254.36
739.47	254.03
739.80	253.75
740.13	253.49
740.46	253.12
740.79	252.80
741.12	252.47
741.45	252.13
741.78	251.82
742.11	251.54
742.44	251.21
742.77	250.93
743.10	250.60
743.43	250.35
743.75	249.94
744.08	249.79
744.41	249.54
744.74	249.28
745.07	248.97
745.40	248.73
745.73	248.48
746.06	248.19
746.39	247.94
746.71	247.64
747.04	247.33
747.37	247.08
747.70	246.82
748.03	246.58
748.36	246.38
748.68	246.11
749.01	245.87
749.34	245.64
749.67	245.42
750.00	245.17
750.33	245.01
750.65	244.80
750.98	244.47
751.31	244.24
751.64	244.01
751.97	243.86
752.29	243.62
752.62	243.37
752.95	243.17
753.28	242.96
753.60	242.76
753.93	242.59
754.26	242.41
754.59	242.19
754.91	241.95
755.24	241.74
755.57	241.56
755.90	241.37
756.22	241.18
756.55	240.97
756.88	240.78
757.20	240.53
757.53	240.36
757.86	240.19
758.19	240.07
758.51	239.94
758.84	239.71
759.17	239.52
759.49	239.42
759.82	239.30
760.15	239.21
760.47	239.06
760.80	238.89
761.13	238.79
761.45	238.66
761.78	238.54
762.11	238.41
762.43	238.28
762.76	238.14
763.08	238.01
763.41	237.93
763.74	237.82
764.06	237.69
764.39	237.52
764.71	237.37
765.04	237.24
765.37	237.07
765.69	236.96
766.02	236.90
766.34	236.77
766.67	236.62
767.00	236.44
767.32	236.36
767.65	236.31
767.97	236.16
768.30	236.06
768.62	235.95
768.95	235.85
769.27	235.75
769.60	235.65
769.92	235.53
770.25	235.34
770.57	235.21
770.90	235.14
771.22	235.08
771.55	234.95
771.87	234.86
772.20	234.79
772.52	234.77
772.85	234.72
773.17	234.63
773.50	234.51
773.82	234.41
774.15	234.30
774.47	234.13
774.80	234.01
775.12	233.88
775.45	233.77
775.77	233.65
776.09	233.57
776.42	233.50
776.74	233.46
777.07	233.43
777.39	233.33
777.72	233.23
778.04	233.12
778.36	233.07
778.69	232.98
779.01	232.87
779.33	232.68
779.66	232.52
779.98	232.43
780.31	232.39
780.63	232.33
780.95	232.26
781.28	232.20
781.60	232.14
781.92	232.06
782.25	231.99
782.57	231.92
782.89	231.84
783.22	231.74
783.54	231.64
783.86	231.58
784.19	231.51
784.51	231.47
784.83	231.39
785.16	231.32
785.48	231.27
785.80	231.24
786.12	231.22
786.45	231.19
786.77	231.14
787.09	231.07
787.42	231.01
787.74	230.96
788.06	230.91
788.38	230.84
788.71	230.83
789.03	230.81
789.35	230.80
789.67	230.75
789.99	230.73
790.32	230.70
790.64	230.65
790.96	230.70
791.28	230.62
791.61	230.58
791.93	230.57
792.25	230.51
792.57	230.52
792.89	230.45
793.21	230.39
793.54	230.35
793.86	230.30
794.18	230.27
794.50	230.22
794.82	230.19
795.14	230.17
795.47	230.11
795.79	230.06
796.11	229.99
796.43	229.94
796.75	229.87
797.07	229.83
797.39	229.79
797.71	229.71
798.04	229.68
798.36	229.69
798.68	229.65
799.00	229.64
799.32	229.59
799.64	229.58
799.96	229.55
800.28	229.56
800.60	229.57
800.92	229.57
801.24	229.54
801.56	229.54
801.89	229.53
802.21	229.55
802.53	229.53
802.85	229.56
803.17	229.58
803.49	229.54
803.81	229.54
804.13	229.51
804.45	229.46
804.77	229.48
805.09	229.43
805.41	229.41
805.73	229.35
806.05	229.34
806.37	229.32
806.69	229.31
807.01	229.26
807.33	229.20
807.65	229.16
807.97	229.20
808.28	229.15
808.60	229.15
808.92	229.12
809.24	229.15
809.56	229.09
809.88	229.04
810.20	229.07
810.52	229.07
810.84	229.04
811.16	229.00
811.48	228.96
811.80	228.98
812.12	228.98
812.43	228.99
812.75	228.94
813.07	228.93
813.39	228.93
813.71	228.92
814.03	228.91
814.35	228.89
814.67	228.83
814.98	228.82
815.30	228.76
815.62	228.71
815.94	228.63
816.26	228.63
816.58	228.60
816.89	228.56
817.21	228.47
817.53	228.47
817.85	228.47
818.17	228.43
818.48	228.38
818.80	228.36
819.12	228.32
819.44	228.30
819.76	228.25
820.07	228.22
820.39	228.17
820.71	228.15
821.03	228.09
821.34	228.05
821.66	227.98
821.98	227.98
822.30	227.94
822.61	227.96
822.93	227.88
823.25	227.85
823.57	227.87
823.88	227.87
824.20	227.84
824.52	227.83
824.83	227.80
825.15	227.77
825.47	227.74
825.79	227.76
826.10	227.71
826.42	227.66
826.74	227.59
827.05	227.56
827.37	227.52
827.69	227.50
828.00	227.50
828.32	227.53
828.64	227.47
828.95	227.50
829.27	227.47
829.58	227.50
829.90	227.51
830.22	227.43
830.53	227.38
830.85	227.36
831.17	227.31
831.48	227.28
831.80	227.25
832.11	227.24
832.43	227.19
832.75	227.21
833.06	227.26
833.38	227.26
833.69	227.28
834.01	227.28
834.32	227.29
834.64	227.24
834.96	227.23
835.27	227.24
835.59	227.20
835.90	227.19
836.22	227.16
836.53	227.11
836.85	227.12
837.16	227.25
837.48	227.23
837.79	227.26
838.11	227.30
838.42	227.30
838.74	227.30
839.05	227.27
839.37	227.27
839.68	227.21
840.00	227.19
840.31	227.18
840.63	227.17
840.94	227.15
841.26	227.15
841.57	227.11
841.88	227.13
842.20	227.13
842.51	227.11
842.83	227.11
843.14	227.22
843.46	227.23
843.77	227.17
844.08	227.20
844.40	227.17
844.71	227.16
845.03	227.14
845.34	227.14
845.65	227.14
845.97	227.12
846.28	227.14
846.60	227.17
846.91	227.19
847.22	227.20
847.54	227.26
847.85	227.28
848.16	227.28
848.48	227.27
848.79	227.32
849.10	227.36
849.42	227.39
849.73	227.31
850.04	227.33
850.36	227.29
850.67	227.29
850.98	227.31
851.30	227.32
851.61	227.34
851.92	227.35
852.23	227.38
852.55	227.41
852.86	227.43
853.17	227.44
853.49	227.42
853.80	227.45
854.11	227.43
854.42	227.44
854.74	227.43
855.05	227.41
855.36	227.35
855.67	227.35
855.99	227.33
856.30	227.44
856.61	227.40
856.92	227.39
857.23	227.37
857.55	227.33
857.86	227.32
858.17	227.33
858.48	227.31
858.79	227.27
859.11	227.25
859.42	227.23
859.73	227.19
860.04	227.20
860.35	227.17
860.66	227.13
860.98	227.10
861.29	227.12
861.60	227.11
861.91	227.12
862.22	227.06
862.53	227.02
862.84	226.89
863.16	226.89
863.47	226.86
863.78	226.84
864.09	226.86
864.40	226.87
864.71	226.87
865.02	226.87
865.33	226.87
865.64	226.82
865.95	226.80
866.27	226.84
866.58	226.80
866.89	226.77
867.20	226.78
867.51	226.80
867.82	226.78
868.13	226.82
868.44	226.81
868.75	226.82
869.06	226.83
869.37	226.85
869.68	226.81
869.99	226.84
870.30	226.85
870.61	226.87
870.92	226.84
871.23	226.81
871.54	226.81
871.85	226.83
872.16	226.86
872.47	226.87
872.78	226.82
873.09	226.85
873.40	226.88
873.71	226.88
874.02	226.86
874.33	226.84
874.64	226.80
874.95	226.80
875.26	226.77
875.56	226.76
875.87	226.72
876.18	226.73
876.49	226.83
876.80	226.83
877.11	226.77
877.42	226.75
877.73	226.77
878.04	226.75
878.35	226.73
878.66	226.75
878.96	226.75
879.27	226.76
879.58	226.76
879.89	226.75
880.20	226.79
880.51	226.77
880.82	226.82
881.12	226.83
881.43	226.81
881.74	226.82
882.05	226.84
882.36	226.87
882.67	226.88
882.97	226.76
883.28	226.77
883.59	226.78
883.90	226.82
884.21	226.81
884.51	226.80
884.82	226.79
885.13	226.76
885.44	226.77
885.74	226.78
886.05	226.75
886.36	226.74
886.67	226.70
886.98	226.78
887.28	226.77
887.59	226.79
887.90	226.81
888.20	226.84
888.51	226.88
888.82	226.86
889.13	226.90
889.43	226.99
889.74	226.98
890.05	227.00
890.35	227.00
890.66	227.00
890.97	227.03
891.28	227.04
891.58	227.05
891.89	227.06
892.20	227.05
892.50	227.07
892.81	227.05
893.12	227.06
893.42	227.02
893.73	226.99
894.04	226.99
894.34	226.94
894.65	226.92
894.95	226.90
895.26	226.93
895.57	226.94
895.87	226.87
896.18	226.88
896.48	226.88
896.79	226.89
897.10	226.90
897.40	226.87
897.71	226.90
898.01	226.90
898.32	226.89
898.63	226.86
898.93	226.83
899.24	226.83
899.54	226.84
899.85	226.81
900.15	226.82
900.46	226.83
900.76	226.90
901.07	226.87
901.38	226.87
901.68	226.82
901.99	226.76
902.29	226.75
902.60	226.74
902.90	226.72
903.21	226.72
903.51	226.73
903.82	226.73
904.12	226.70
904.43	226.70
904.73	226.68
905.03	226.67
905.34	226.78
905.64	226.78
905.95	226.75
906.25	226.75
906.56	226.74
906.86	226.70
907.17	226.65
907.47	226.66
907.77	226.67
908.08	226.67
908.38	226.68
908.69	226.68
908.99	226.71
909.30	226.69
909.60	226.67
909.90	226.63
910.21	226.62
910.51	226.60
910.81	226.56
911.12	226.57
911.42	226.59
911.73	226.47
912.03	226.44
912.33	226.45
912.64	226.44
912.94	226.44
913.24	226.46
913.55	226.45
913.85	226.44
914.15	226.42
914.46	226.44
914.76	226.45
915.06	226.45
915.37	226.41
915.67	226.41
915.97	226.38
916.27	226.37
916.58	226.36
916.88	226.38
917.18	226.39
917.49	226.45
917.79	226.43
918.09	226.46
918.39	226.49
918.70	226.50
919.00	226.52
919.30	226.54
919.60	226.52
919.91	226.54
920.21	226.54
920.51	226.52
920.81	226.47
921.12	226.48
921.42	226.48
921.72	226.50
922.02	226.54
922.32	226.58
922.63	226.56
922.93	226.65
923.23	226.67
923.53	226.67
923.83	226.59
924.13	226.62
924.44	226.61
924.74	226.67
925.04	226.70
925.34	226.69
925.64	226.70
925.94	226.70
926.24	226.74
926.55	226.74
926.85	226.76
927.15	226.80
927.45	226.82
927.75	226.81
928.05	226.79
928.35	226.78
928.65	226.80
928.95	226.85
929.26	226.78
929.56	226.78
929.86	226.82
930.16	226.84
930.46	226.83
930.76	226.85
931.06	226.78
931.36	226.75
931.66	226.77
931.96	226.72
932.26	226.73
932.56	226.67
932.86	226.67
933.16	226.67
933.46	226.68
933.76	226.63
934.06	226.65
934.36	226.67
934.66	226.66
934.96	226.66
935.26	226.66
935.56	226.70
935.86	226.69
936.16	226.64
936.46	226.61
936.76	226.57
937.06	226.55
937.36	226.59
937.66	226.57
937.96	226.55
938.26	226.56
938.56	226.57
938.86	226.58
939.16	226.63
939.46	226.63
939.76	226.63
940.06	226.66
940.35	226.62
940.65	226.57
940.95	226.58
941.25	226.54
941.55	226.52
941.85	226.49
942.15	226.51
942.45	226.56
942.75	226.59
943.04	226.63
943.34	226.64
943.64	226.61
943.94	226.64
944.24	226.65
944.54	226.63
944.84	226.60
945.13	226.58
945.43	226.54
945.73	226.54
946.03	226.52
946.33	226.47
946.62	226.46
946.92	226.49
947.22	226.49
947.52	226.50
947.82	226.51
948.11	226.49
948.41	226.46
948.71	226.43
949.01	226.39
949.31	226.39
949.60	226.38
949.90	226.40
950.20	226.40
950.50	226.39
950.79	226.38
951.09	226.39
951.39	226.40
951.69	226.37
951.98	226.38
952.28	226.38
952.58	226.36
952.87	226.35
953.17	226.36
953.47	226.33
953.76	226.35
954.06	226.32
954.36	226.33
954.66	226.29
954.95	226.32
955.25	226.32
955.55	226.32
955.84	226.33
956.14	226.32
956.44	226.27
956.73	226.27
957.03	226.27
957.32	226.28
957.62	226.28
957.92	226.29
958.21	226.28
958.51	226.38
958.81	226.43
959.10	226.42
959.40	226.43
959.69	226.46
959.99	226.45
960.29	226.46
960.58	226.43
960.88	226.49
961.17	226.47
961.47	226.50
961.76	226.49
962.06	226.49
962.36	226.48
962.65	226.50
962.95	226.50
963.24	226.52
963.54	226.52
963.83	226.56
964.13	226.58
964.42	226.58
964.72	226.52
965.01	226.50
965.31	226.54
965.60	226.54
965.90	226.55
966.19	226.51
966.49	226.50
966.78	226.53
967.08	226.54
967.37	226.54
967.67	226.52
967.96	226.53
968.26	226.53
968.55	226.52
968.85	226.53
969.14	226.52
969.43	226.51
969.73	226.48
970.02	226.46
970.32	226.46
970.61	226.44
970.91	226.43
971.20	226.44
971.49	226.43
971.79	226.43
972.08	226.39
972.38	226.39
972.67	226.40
972.96	226.40
973.26	226.37
973.55	226.38
973.85	226.37
974.14	226.35
974.43	226.35
974.73	226.33
975.02	226.31
975.31	226.31
975.61	226.31
975.90	226.30
976.19	226.26
976.49	226.24
976.78	226.22
977.07	226.20
977.37	226.21
977.66	226.20
977.95	226.17
978.24	226.20
978.54	226.24
978.83	226.21
979.12	226.19
979.42	226.21
979.71	226.20
980.00	226.20
980.29	226.23
980.59	226.23
980.88	226.25
981.17	226.23
981.46	226.22
981.76	226.21
982.05	226.26
982.34	226.27
982.63	226.30
982.93	226.32
983.22	226.35
983.51	226.32
983.80	226.35
984.09	226.38
984.39	226.37
984.68	226.33
984.97	226.37
985.26	226.36
985.55	226.36
985.85	226.31
986.14	226.32
986.43	226.32
986.72	226.31
987.01	226.30
987.30	226.33
987.59	226.35
987.89	226.33
988.18	226.27
988.47	226.27
988.76	226.25
989.05	226.24
989.34	226.24
989.63	226.28
989.92	226.23
990.22	226.20
990.51	226.17
990.80	226.17
991.09	226.20
991.38	226.24
991.67	226.22
991.96	226.23
992.25	226.22
992.54	226.17
992.83	226.15
993.12	226.14
993.41	226.15
993.70	226.18
993.99	226.21
994.28	226.27
994.58	226.29
994.87	226.25
995.16	226.25
995.45	226.21
995.74	226.16
996.03	226.20
996.32	226.25
996.61	226.27
996.90	226.28
997.19	226.25
997.48	226.24
997.77	226.23
998.06	226.22
998.34	226.22
998.63	226.24
998.92	226.24
999.21	226.22
999.50	226.24
999.79	226.17
1000.08	226.20
1000.37	226.20
1000.66	226.18
1000.95	226.24
1001.24	226.25
1001.53	226.29
1001.82	226.29
1002.11	226.28
1002.40	226.28
1002.68	226.34
1002.97	226.40
1003.26	226.40
1003.55	226.40
1003.84	226.43
1004.13	226.51
1004.42	226.50
1004.71	226.51
1004.99	226.54
1005.28	226.58
1005.57	226.55
1005.86	226.56
1006.15	226.54
1006.44	226.52
1006.72	226.58
1007.01	226.56
1007.30	226.59
1007.59	226.57
1007.88	226.58
1008.17	226.57
1008.45	226.56
1008.74	226.53
1009.03	226.48
1009.32	226.51
1009.60	226.52
1009.89	226.53
1010.18	226.49
1010.47	226.49
1010.76	226.51
1011.04	226.52
1011.33	226.51
1011.62	226.54
1011.91	226.55
1012.19	226.54
1012.48	226.54
1012.77	226.53
1013.05	226.58
1013.34	226.52
1013.63	226.51
1013.92	226.53
1014.20	226.53
1014.49	226.54
1014.78	226.52
1015.06	226.50
1015.35	226.49
1015.64	226.48
1015.92	226.47
1016.21	226.46
1016.50	226.46
1016.78	226.47
1017.07	226.45
1017.36	226.43
1017.64	226.41
1017.93	226.41
1018.22	226.39
1018.50	226.37
1018.79	226.34
1019.08	226.29
1019.36	226.32
1019.65	226.32
1019.93	226.33
1020.22	226.35
1020.51	226.37
1020.79	226.35
1021.08	225.69
1021.36	226.00
1021.65	226.36
1021.94	226.17
1022.22	226.21
1022.51	226.24
1022.79	226.98
1023.08	226.22
1023.36	227.58
1023.65	226.18
>>>>>End Processed Spectral Data<<<<<
