SpectraSuite Data File
++++++++++++++++++++++++++++++++++++
Date: Fri Feb 01 17:18:30 EST 2013
User: group
Dark Spectrum Present: No
Reference Spectrum Present: No
Number of Sampled Component Spectra: 1
Spectrometers: USB2E7196
Integration Time (usec): 35000 (USB2E7196)
Spectra Averaged: 100 (USB2E7196)
Boxcar Smoothing: 10 (USB2E7196)
Correct for Electrical Dark: No (USB2E7196)
Strobe/Lamp Enabled: No (USB2E7196)
Correct for Detector Non-linearity: No (USB2E7196)
Correct for Stray Light: No (USB2E7196)
Number of Pixels in Processed Spectrum: 2048
>>>>>Begin Processed Spectral Data<<<<<
339.09	0.00
339.48	213.11
339.86	214.99
340.24	216.11
340.63	217.17
341.01	219.66
341.39	219.92
341.78	221.26
342.16	222.35
342.54	222.85
342.93	211.31
343.31	221.99
343.69	222.51
344.07	222.96
344.46	223.36
344.84	223.73
345.22	223.98
345.60	224.21
345.99	224.38
346.37	224.49
346.75	224.60
347.13	224.67
347.52	224.73
347.90	224.83
348.28	224.87
348.66	224.91
349.05	224.89
349.43	224.96
349.81	224.98
350.19	225.06
350.57	225.11
350.96	225.16
351.34	225.26
351.72	225.36
352.10	225.45
352.48	225.53
352.87	225.57
353.25	225.65
353.63	225.73
354.01	225.83
354.39	225.93
354.77	226.00
355.15	226.10
355.54	226.18
355.92	226.20
356.30	226.25
356.68	226.43
357.06	226.55
357.44	226.60
357.82	226.66
358.20	226.73
358.58	226.80
358.97	226.90
359.35	227.00
359.73	227.07
360.11	227.14
360.49	227.20
360.87	227.28
361.25	227.35
361.63	227.44
362.01	227.49
362.39	227.51
362.77	227.54
363.15	227.60
363.53	227.64
363.91	227.70
364.29	227.73
364.67	227.62
365.05	227.64
365.43	227.69
365.81	227.73
366.19	227.74
366.57	227.81
366.95	227.79
367.33	227.72
367.71	227.72
368.09	227.74
368.47	227.74
368.85	227.70
369.23	227.70
369.61	227.64
369.99	227.66
370.37	227.69
370.75	227.74
371.13	227.68
371.51	227.64
371.89	227.61
372.27	227.58
372.65	227.56
373.03	227.52
373.41	227.44
373.78	227.39
374.16	227.34
374.54	227.23
374.92	227.18
375.30	227.14
375.68	227.08
376.06	227.01
376.44	226.95
376.82	226.94
377.19	226.85
377.57	226.76
377.95	226.65
378.33	226.55
378.71	226.44
379.09	226.39
379.47	226.33
379.84	226.27
380.22	226.19
380.60	226.12
380.98	226.06
381.36	226.01
381.73	225.92
382.11	225.86
382.49	225.83
382.87	225.77
383.25	225.72
383.62	225.76
384.00	225.69
384.38	225.62
384.76	225.55
385.13	225.55
385.51	225.52
385.89	225.46
386.27	225.40
386.64	225.36
387.02	225.28
387.40	225.24
387.78	225.19
388.15	225.15
388.53	225.12
388.91	225.06
389.29	225.01
389.66	224.96
390.04	224.93
390.42	224.91
390.79	224.88
391.17	224.85
391.55	224.74
391.92	224.72
392.30	224.70
392.68	224.69
393.05	224.64
393.43	224.67
393.81	224.65
394.18	224.63
394.56	224.61
394.94	224.63
395.31	224.64
395.69	224.66
396.06	224.69
396.44	224.72
396.82	224.72
397.19	224.78
397.57	224.83
397.95	224.86
398.32	224.85
398.70	224.89
399.07	224.97
399.45	224.98
399.82	225.01
400.20	225.06
400.58	225.14
400.95	225.16
401.33	225.22
401.70	225.37
402.08	225.48
402.45	225.54
402.83	225.65
403.20	225.75
403.58	225.80
403.95	225.91
404.33	226.04
404.71	226.16
405.08	226.32
405.46	226.46
405.83	226.58
406.21	226.74
406.58	226.92
406.96	227.05
407.33	227.24
407.70	227.44
408.08	227.74
408.45	227.92
408.83	228.19
409.20	228.38
409.58	228.56
409.95	228.79
410.33	229.08
410.70	229.35
411.08	229.63
411.45	229.98
411.82	230.29
412.20	230.64
412.57	231.09
412.95	231.36
413.32	231.75
413.69	232.16
414.07	232.60
414.44	233.01
414.82	233.50
415.19	234.07
415.56	234.61
415.94	235.16
416.31	235.80
416.68	236.45
417.06	237.18
417.43	237.90
417.81	238.72
418.18	239.48
418.55	240.35
418.93	241.27
419.30	242.21
419.67	243.19
420.04	244.15
420.42	245.17
420.79	246.43
421.16	247.64
421.54	248.88
421.91	250.18
422.28	251.52
422.66	252.89
423.03	254.21
423.40	255.61
423.77	257.05
424.15	258.53
424.52	260.09
424.89	261.79
425.26	263.39
425.64	264.88
426.01	266.54
426.38	268.27
426.75	270.02
427.13	271.78
427.50	273.63
427.87	275.61
428.24	277.53
428.61	279.32
428.99	281.34
429.36	283.56
429.73	285.64
430.10	287.75
430.47	289.88
430.85	292.11
431.22	294.44
431.59	296.90
431.96	299.26
432.33	301.81
432.70	304.21
433.08	307.10
433.45	309.83
433.82	312.55
434.19	315.49
434.56	318.36
434.93	321.09
435.30	323.78
435.68	326.78
436.05	329.69
436.42	332.60
436.79	335.19
437.16	337.94
437.53	340.89
437.90	343.76
438.27	346.59
438.64	349.50
439.01	352.21
439.38	354.52
439.75	356.69
440.13	359.24
440.50	361.66
440.87	363.56
441.24	365.54
441.61	367.79
441.98	369.36
442.35	371.23
442.72	373.20
443.09	375.05
443.46	376.02
443.83	376.64
444.20	377.16
444.57	378.01
444.94	378.33
445.31	378.68
445.68	379.07
446.05	379.16
446.42	378.81
446.79	378.33
447.16	377.88
447.53	377.59
447.90	376.42
448.27	375.26
448.64	373.68
449.01	372.52
449.37	370.52
449.74	368.60
450.11	366.27
450.48	363.69
450.85	361.15
451.22	358.99
451.59	356.96
451.96	354.95
452.33	352.31
452.70	349.87
453.07	346.97
453.43	344.00
453.80	341.18
454.17	338.38
454.54	335.77
454.91	332.97
455.28	330.20
455.65	327.62
456.02	325.07
456.38	322.83
456.75	320.09
457.12	317.72
457.49	315.41
457.86	313.19
458.23	311.26
458.59	309.12
458.96	306.98
459.33	305.02
459.70	303.12
460.07	301.59
460.43	299.83
460.80	298.14
461.17	296.68
461.54	295.11
461.91	293.66
462.27	292.17
462.64	290.93
463.01	289.56
463.38	288.22
463.74	286.87
464.11	285.67
464.48	284.64
464.85	283.54
465.21	282.61
465.58	281.66
465.95	280.54
466.32	279.61
466.68	278.69
467.05	277.77
467.42	276.85
467.78	275.87
468.15	274.96
468.52	274.28
468.88	273.40
469.25	272.61
469.62	271.97
469.98	271.29
470.35	270.62
470.72	270.02
471.08	269.38
471.45	268.81
471.82	268.24
472.18	267.63
472.55	267.21
472.92	266.73
473.28	266.28
473.65	265.83
474.02	265.42
474.38	265.03
474.75	264.76
475.11	264.40
475.48	264.15
475.85	263.94
476.21	263.74
476.58	263.56
476.94	263.38
477.31	263.19
477.67	263.03
478.04	262.90
478.41	262.85
478.77	262.90
479.14	262.82
479.50	262.89
479.87	262.94
480.23	262.98
480.60	263.05
480.96	263.14
481.33	263.35
481.69	263.52
482.06	263.69
482.42	263.85
482.79	264.14
483.15	264.44
483.52	264.82
483.88	265.10
484.25	265.46
484.61	265.88
484.98	266.35
485.34	266.92
485.71	267.50
486.07	268.08
486.44	268.59
486.80	269.30
487.17	269.97
487.53	270.77
487.90	271.62
488.26	272.53
488.62	273.48
488.99	274.45
489.35	275.50
489.72	276.61
490.08	277.81
490.44	279.03
490.81	280.35
491.17	281.64
491.54	283.16
491.90	284.68
492.26	286.36
492.63	288.09
492.99	289.83
493.36	291.70
493.72	293.77
494.08	295.88
494.45	298.06
494.81	300.40
495.17	302.80
495.54	305.38
495.90	308.02
496.26	310.79
496.63	313.75
496.99	316.82
497.35	320.07
497.72	323.47
498.08	326.91
498.44	330.58
498.80	334.50
499.17	338.51
499.53	342.63
499.89	346.97
500.26	351.44
500.62	356.06
500.98	360.96
501.34	365.97
501.71	371.24
502.07	376.69
502.43	382.26
502.79	388.07
503.16	394.04
503.52	400.25
503.88	406.58
504.24	413.19
504.60	420.05
504.97	427.09
505.33	434.26
505.69	441.94
506.05	449.66
506.41	457.43
506.78	465.44
507.14	473.80
507.50	482.36
507.86	491.28
508.22	500.44
508.59	509.60
508.95	519.05
509.31	528.74
509.67	538.72
510.03	548.89
510.39	559.31
510.75	569.92
511.12	580.75
511.48	591.89
511.84	603.12
512.20	614.39
512.56	626.13
512.92	638.16
513.28	650.30
513.64	662.62
514.00	675.10
514.37	687.90
514.73	700.76
515.09	713.58
515.45	726.66
515.81	739.98
516.17	753.70
516.53	767.63
516.89	781.55
517.25	795.44
517.61	809.57
517.97	823.71
518.33	837.82
518.69	852.19
519.05	866.83
519.41	881.72
519.77	896.92
520.13	912.05
520.49	927.07
520.85	942.14
521.21	957.39
521.57	973.32
521.93	988.71
522.29	1004.67
522.65	1020.57
523.01	1036.35
523.37	1052.10
523.73	1067.83
524.09	1083.43
524.45	1099.38
524.81	1115.69
525.17	1132.04
525.53	1148.46
525.89	1165.05
526.25	1181.71
526.61	1197.76
526.97	1214.03
527.33	1230.24
527.68	1246.43
528.04	1262.61
528.40	1278.78
528.76	1295.48
529.12	1311.62
529.48	1328.22
529.84	1344.06
530.20	1360.36
530.56	1376.94
530.91	1393.99
531.27	1410.41
531.63	1426.65
531.99	1442.82
532.35	1458.55
532.71	1474.30
533.07	1490.32
533.42	1506.02
533.78	1521.80
534.14	1537.74
534.50	1552.76
534.86	1568.35
535.21	1583.43
535.57	1599.04
535.93	1614.29
536.29	1628.84
536.65	1643.72
537.00	1658.18
537.36	1673.21
537.72	1687.46
538.08	1701.84
538.44	1715.36
538.79	1729.13
539.15	1742.47
539.51	1756.20
539.87	1770.13
540.22	1783.57
540.58	1797.08
540.94	1810.00
541.29	1822.57
541.65	1835.19
542.01	1848.37
542.37	1860.72
542.72	1872.95
543.08	1884.68
543.44	1896.99
543.79	1908.24
544.15	1919.17
544.51	1930.72
544.87	1941.52
545.22	1952.34
545.58	1962.55
545.94	1972.27
546.29	1982.15
546.65	1992.19
547.01	2001.46
547.36	2010.30
547.72	2018.89
548.07	2027.06
548.43	2035.41
548.79	2043.44
549.14	2051.15
549.50	2058.60
549.86	2066.12
550.21	2073.55
550.57	2080.97
550.92	2087.78
551.28	2094.93
551.64	2102.10
551.99	2108.77
552.35	2115.24
552.70	2121.60
553.06	2127.80
553.41	2134.36
553.77	2140.57
554.13	2146.76
554.48	2152.98
554.84	2158.86
555.19	2164.25
555.55	2169.71
555.90	2174.50
556.26	2179.78
556.61	2184.60
556.97	2189.24
557.32	2193.65
557.68	2198.09
558.03	2202.57
558.39	2206.45
558.74	2211.32
559.10	2215.47
559.45	2219.49
559.81	2223.94
560.16	2228.00
560.52	2231.49
560.87	2235.21
561.23	2238.09
561.58	2241.28
561.94	2244.16
562.29	2246.63
562.64	2249.88
563.00	2252.52
563.35	2256.25
563.71	2259.62
564.06	2263.07
564.42	2266.36
564.77	2269.36
565.12	2272.18
565.48	2274.49
565.83	2276.82
566.19	2278.62
566.54	2279.82
566.89	2281.22
567.25	2282.29
567.60	2283.90
567.96	2285.97
568.31	2287.09
568.66	2288.64
569.02	2289.67
569.37	2290.39
569.72	2291.72
570.08	2292.07
570.43	2292.42
570.78	2292.35
571.14	2291.19
571.49	2290.28
571.84	2290.13
572.20	2289.43
572.55	2288.57
572.90	2287.22
573.26	2286.02
573.61	2284.49
573.96	2283.29
574.31	2280.65
574.67	2277.94
575.02	2274.62
575.37	2271.52
575.72	2268.20
576.08	2265.00
576.43	2261.86
576.78	2258.70
577.13	2255.55
577.49	2252.55
577.84	2249.49
578.19	2245.87
578.54	2242.64
578.90	2238.86
579.25	2233.53
579.60	2228.84
579.95	2224.09
580.30	2219.35
580.66	2214.43
581.01	2209.70
581.36	2204.96
581.71	2201.19
582.06	2197.13
582.42	2193.03
582.77	2188.11
583.12	2183.73
583.47	2179.53
583.82	2174.89
584.17	2169.85
584.53	2164.92
584.88	2159.69
585.23	2154.25
585.58	2149.09
585.93	2143.76
586.28	2138.96
586.63	2134.29
586.98	2129.24
587.34	2124.68
587.69	2119.89
588.04	2115.01
588.39	2109.62
588.74	2103.29
589.09	2097.26
589.44	2090.72
589.79	2084.71
590.14	2079.17
590.49	2072.79
590.84	2066.33
591.19	2060.54
591.54	2054.06
591.89	2046.85
592.25	2040.41
592.60	2033.38
592.95	2026.04
593.30	2018.88
593.65	2011.60
594.00	2004.61
594.35	1997.67
594.70	1989.62
595.05	1982.73
595.40	1975.60
595.75	1968.22
596.10	1962.22
596.45	1955.68
596.80	1949.48
597.15	1943.18
597.50	1936.47
597.85	1930.00
598.19	1923.63
598.54	1916.80
598.89	1910.44
599.24	1904.63
599.59	1898.13
599.94	1891.98
600.29	1885.68
600.64	1879.16
600.99	1871.84
601.34	1865.17
601.69	1858.16
602.04	1851.58
602.39	1844.27
602.74	1837.49
603.08	1830.86
603.43	1824.12
603.78	1816.87
604.13	1809.82
604.48	1802.67
604.83	1795.75
605.18	1789.22
605.53	1781.30
605.87	1773.23
606.22	1765.82
606.57	1757.90
606.92	1750.29
607.27	1743.20
607.62	1736.30
607.96	1729.14
608.31	1722.74
608.66	1715.24
609.01	1707.79
609.36	1700.22
609.70	1692.35
610.05	1684.31
610.40	1676.63
610.75	1668.39
611.10	1660.80
611.44	1652.22
611.79	1644.02
612.14	1635.32
612.49	1625.97
612.83	1617.43
613.18	1609.23
613.53	1601.11
613.88	1592.43
614.22	1584.30
614.57	1575.51
614.92	1567.48
615.27	1559.92
615.61	1551.43
615.96	1543.23
616.31	1535.47
616.65	1528.06
617.00	1520.36
617.35	1512.52
617.70	1504.19
618.04	1495.71
618.39	1487.18
618.74	1479.63
619.08	1471.37
619.43	1463.70
619.78	1456.57
620.12	1449.43
620.47	1441.73
620.82	1433.52
621.16	1425.94
621.51	1418.17
621.85	1410.38
622.20	1401.77
622.55	1393.25
622.89	1385.28
623.24	1377.45
623.59	1369.89
623.93	1362.28
624.28	1355.00
624.62	1347.52
624.97	1340.25
625.32	1333.24
625.66	1326.28
626.01	1318.90
626.35	1311.45
626.70	1303.60
627.04	1295.84
627.39	1287.91
627.73	1280.43
628.08	1273.44
628.43	1266.22
628.77	1258.77
629.12	1251.26
629.46	1244.07
629.81	1236.44
630.15	1229.06
630.50	1221.71
630.84	1213.50
631.19	1205.43
631.53	1197.69
631.88	1189.97
632.22	1182.31
632.57	1174.91
632.91	1167.14
633.26	1159.74
633.60	1152.05
633.95	1144.70
634.29	1137.54
634.64	1130.68
634.98	1123.30
635.32	1116.06
635.67	1109.34
636.01	1102.58
636.36	1095.73
636.70	1089.02
637.05	1082.47
637.39	1075.94
637.73	1069.37
638.08	1063.33
638.42	1057.25
638.77	1050.79
639.11	1044.21
639.45	1037.70
639.80	1031.00
640.14	1024.61
640.49	1018.11
640.83	1011.88
641.17	1005.79
641.52	999.44
641.86	993.03
642.20	987.12
642.55	980.61
642.89	974.12
643.23	967.48
643.58	961.59
643.92	955.42
644.26	949.42
644.61	943.25
644.95	937.17
645.29	930.69
645.64	923.91
645.98	917.59
646.32	911.53
646.66	905.49
647.01	899.62
647.35	893.86
647.69	887.84
648.04	882.17
648.38	876.23
648.72	870.25
649.06	864.19
649.41	858.23
649.75	852.36
650.09	846.40
650.43	840.68
650.78	834.55
651.12	828.50
651.46	822.71
651.80	817.09
652.14	811.62
652.49	806.23
652.83	801.01
653.17	795.41
653.51	789.82
653.85	784.36
654.20	778.78
654.54	772.79
654.88	767.07
655.22	761.24
655.56	755.49
655.90	749.95
656.25	744.69
656.59	739.31
656.93	734.25
657.27	729.08
657.61	723.52
657.95	718.41
658.29	713.23
658.64	707.89
658.98	702.46
659.32	697.01
659.66	691.70
660.00	686.51
660.34	681.43
660.68	676.44
661.02	671.41
661.36	666.65
661.70	662.05
662.05	657.64
662.39	653.27
662.73	648.85
663.07	644.47
663.41	640.01
663.75	635.53
664.09	630.89
664.43	626.43
664.77	622.37
665.11	618.13
665.45	614.00
665.79	609.93
666.13	605.72
666.47	601.58
666.81	597.42
667.15	593.25
667.49	589.27
667.83	585.35
668.17	581.30
668.51	577.21
668.85	573.14
669.19	569.25
669.53	565.43
669.87	561.58
670.21	557.84
670.55	554.13
670.89	550.57
671.23	547.15
671.57	543.58
671.91	540.04
672.25	536.42
672.58	532.92
672.92	529.41
673.26	526.28
673.60	523.06
673.94	520.00
674.28	517.02
674.62	514.02
674.96	510.94
675.30	508.05
675.64	505.15
675.97	502.39
676.31	499.51
676.65	496.54
676.99	493.75
677.33	490.83
677.67	487.99
678.01	485.03
678.34	482.07
678.68	479.17
679.02	476.34
679.36	473.58
679.70	470.82
680.04	468.08
680.37	465.21
680.71	462.43
681.05	459.72
681.39	456.94
681.73	454.23
682.06	451.65
682.40	449.15
682.74	446.51
683.08	443.89
683.42	441.23
683.75	438.67
684.09	436.05
684.43	433.57
684.77	431.05
685.10	428.61
685.44	426.24
685.78	423.90
686.12	421.61
686.45	419.33
686.79	417.02
687.13	414.83
687.46	412.66
687.80	410.43
688.14	408.19
688.48	406.17
688.81	403.98
689.15	401.85
689.49	399.64
689.82	397.57
690.16	395.49
690.50	393.48
690.83	391.55
691.17	389.57
691.51	387.63
691.84	385.82
692.18	383.95
692.52	382.01
692.85	380.08
693.19	378.15
693.52	376.25
693.86	374.37
694.20	372.57
694.53	370.75
694.87	368.92
695.21	367.12
695.54	365.25
695.88	363.51
696.21	361.75
696.55	360.06
696.88	358.32
697.22	356.61
697.56	354.97
697.89	353.28
698.23	351.70
698.56	350.10
698.90	348.46
699.23	346.83
699.57	345.24
699.90	343.67
700.24	342.09
700.58	340.53
700.91	339.06
701.25	337.59
701.58	336.23
701.92	334.88
702.25	333.47
702.59	332.11
702.92	330.78
703.26	329.48
703.59	328.18
703.93	326.99
704.26	325.77
704.60	324.49
704.93	323.21
705.26	321.95
705.60	320.69
705.93	319.53
706.27	318.42
706.60	317.30
706.94	316.17
707.27	315.05
707.61	313.99
707.94	312.96
708.27	311.82
708.61	310.66
708.94	309.59
709.28	308.60
709.61	307.66
709.94	306.70
710.28	305.63
710.61	304.58
710.95	303.47
711.28	302.54
711.61	301.57
711.95	300.64
712.28	299.64
712.61	298.69
712.95	297.73
713.28	296.80
713.61	295.89
713.95	295.02
714.28	294.16
714.61	293.27
714.95	292.35
715.28	291.46
715.61	290.55
715.95	289.70
716.28	288.81
716.61	287.91
716.95	287.01
717.28	286.26
717.61	285.51
717.94	284.77
718.28	283.95
718.61	283.19
718.94	282.46
719.27	281.80
719.61	281.12
719.94	280.45
720.27	279.74
720.60	279.07
720.94	278.42
721.27	277.79
721.60	277.23
721.93	276.60
722.27	276.06
722.60	275.48
722.93	274.90
723.26	274.36
723.59	273.79
723.93	273.23
724.26	272.63
724.59	272.07
724.92	271.53
725.25	271.00
725.59	270.54
725.92	270.06
726.25	269.51
726.58	269.02
726.91	268.55
727.24	268.05
727.57	267.55
727.91	267.03
728.24	266.53
728.57	266.01
728.90	265.57
729.23	265.12
729.56	264.71
729.89	264.21
730.22	263.70
730.55	263.24
730.89	262.81
731.22	262.37
731.55	261.92
731.88	261.44
732.21	261.01
732.54	260.53
732.87	260.03
733.20	259.62
733.53	259.23
733.86	258.84
734.19	258.45
734.52	258.06
734.85	257.76
735.18	257.34
735.51	256.98
735.84	256.61
736.17	256.26
736.50	255.82
736.83	255.59
737.16	255.29
737.49	254.95
737.82	254.56
738.15	254.25
738.48	253.94
738.81	253.63
739.14	253.29
739.47	252.98
739.80	252.72
740.13	252.45
740.46	252.10
740.79	251.77
741.12	251.46
741.45	251.13
741.78	250.78
742.11	250.54
742.44	250.20
742.77	249.92
743.10	249.59
743.43	249.29
743.75	248.92
744.08	248.74
744.41	248.47
744.74	248.23
745.07	247.93
745.40	247.61
745.73	247.39
746.06	247.13
746.39	246.84
746.71	246.54
747.04	246.25
747.37	245.98
747.70	245.73
748.03	245.46
748.36	245.27
748.68	245.01
749.01	244.72
749.34	244.47
749.67	244.22
750.00	244.00
750.33	243.86
750.65	243.64
750.98	243.27
751.31	243.05
751.64	242.84
751.97	242.66
752.29	242.45
752.62	242.16
752.95	241.93
753.28	241.74
753.60	241.53
753.93	241.37
754.26	241.17
754.59	240.92
754.91	240.72
755.24	240.50
755.57	240.28
755.90	240.10
756.22	239.93
756.55	239.72
756.88	239.50
757.20	239.28
757.53	239.06
757.86	238.91
758.19	238.73
758.51	238.55
758.84	238.34
759.17	238.16
759.49	238.01
759.82	237.87
760.15	237.71
760.47	237.54
760.80	237.35
761.13	237.22
761.45	237.09
761.78	236.95
762.11	236.78
762.43	236.65
762.76	236.53
763.08	236.40
763.41	236.29
763.74	236.16
764.06	235.98
764.39	235.87
764.71	235.73
765.04	235.57
765.37	235.40
765.69	235.27
766.02	235.15
766.34	235.00
766.67	234.87
767.00	234.79
767.32	234.74
767.65	234.68
767.97	234.59
768.30	234.51
768.62	234.38
768.95	234.28
769.27	234.17
769.60	234.09
769.92	233.96
770.25	233.84
770.57	233.71
770.90	233.65
771.22	233.50
771.55	233.41
771.87	233.34
772.20	233.27
772.52	233.28
772.85	233.32
773.17	233.25
773.50	233.13
773.82	233.01
774.15	232.87
774.47	232.68
774.80	232.56
775.12	232.45
775.45	232.38
775.77	232.31
776.09	232.20
776.42	232.12
776.74	232.08
777.07	232.01
777.39	231.95
777.72	231.86
778.04	231.84
778.36	231.74
778.69	231.68
779.01	231.64
779.33	231.47
779.66	231.29
779.98	231.21
780.31	231.15
780.63	231.15
780.95	231.11
781.28	231.05
781.60	230.96
781.92	230.90
782.25	230.83
782.57	230.76
782.89	230.74
783.22	230.66
783.54	230.55
783.86	230.50
784.19	230.46
784.51	230.41
784.83	230.32
785.16	230.27
785.48	230.22
785.80	230.18
786.12	230.16
786.45	230.09
786.77	230.06
787.09	230.04
787.42	229.94
787.74	229.88
788.06	229.87
788.38	229.83
788.71	229.77
789.03	229.76
789.35	229.71
789.67	229.65
789.99	229.62
790.32	229.58
790.64	229.52
790.96	229.52
791.28	229.43
791.61	229.39
791.93	229.35
792.25	229.29
792.57	229.28
792.89	229.16
793.21	229.13
793.54	229.07
793.86	228.99
794.18	228.93
794.50	228.88
794.82	228.85
795.14	228.82
795.47	228.80
795.79	228.77
796.11	228.71
796.43	228.62
796.75	228.57
797.07	228.55
797.39	228.53
797.71	228.44
798.04	228.42
798.36	228.39
798.68	228.36
799.00	228.33
799.32	228.26
799.64	228.25
799.96	228.20
800.28	228.19
800.60	228.15
800.92	228.14
801.24	228.06
801.56	228.02
801.89	227.98
802.21	227.92
802.53	227.83
802.85	227.81
803.17	227.84
803.49	227.78
803.81	227.73
804.13	227.71
804.45	227.64
804.77	227.61
805.09	227.58
805.41	227.52
805.73	227.52
806.05	227.47
806.37	227.47
806.69	227.44
807.01	227.41
807.33	227.37
807.65	227.30
807.97	227.35
808.28	227.31
808.60	227.27
808.92	227.27
809.24	227.32
809.56	227.28
809.88	227.25
810.20	227.24
810.52	227.26
810.84	227.24
811.16	227.23
811.48	227.18
811.80	227.20
812.12	227.18
812.43	227.14
812.75	227.11
813.07	227.07
813.39	227.04
813.71	227.01
814.03	227.00
814.35	226.99
814.67	226.92
814.98	226.92
815.30	226.92
815.62	226.91
815.94	226.82
816.26	226.87
816.58	226.83
816.89	226.81
817.21	226.74
817.53	226.70
817.85	226.69
818.17	226.72
818.48	226.68
818.80	226.69
819.12	226.66
819.44	226.66
819.76	226.63
820.07	226.63
820.39	226.64
820.71	226.61
821.03	226.60
821.34	226.61
821.66	226.59
821.98	226.60
822.30	226.55
822.61	226.62
822.93	226.55
823.25	226.53
823.57	226.52
823.88	226.57
824.20	226.56
824.52	226.57
824.83	226.57
825.15	226.57
825.47	226.54
825.79	226.56
826.10	226.54
826.42	226.54
826.74	226.58
827.05	226.55
827.37	226.58
827.69	226.57
828.00	226.54
828.32	226.51
828.64	226.46
828.95	226.52
829.27	226.45
829.58	226.45
829.90	226.48
830.22	226.48
830.53	226.41
830.85	226.37
831.17	226.32
831.48	226.28
831.80	226.24
832.11	226.23
832.43	226.19
832.75	226.15
833.06	226.18
833.38	226.09
833.69	226.09
834.01	226.06
834.32	226.04
834.64	226.03
834.96	226.02
835.27	226.00
835.59	225.96
835.90	225.95
836.22	225.93
836.53	225.87
836.85	225.85
837.16	225.94
837.48	225.94
837.79	225.97
838.11	225.94
838.42	225.93
838.74	225.94
839.05	225.91
839.37	225.93
839.68	225.84
840.00	225.83
840.31	225.82
840.63	225.78
840.94	225.76
841.26	225.72
841.57	225.71
841.88	225.72
842.20	225.68
842.51	225.65
842.83	225.65
843.14	225.73
843.46	225.71
843.77	225.67
844.08	225.66
844.40	225.65
844.71	225.63
845.03	225.62
845.34	225.62
845.65	225.63
845.97	225.62
846.28	225.63
846.60	225.63
846.91	225.62
847.22	225.63
847.54	225.63
847.85	225.69
848.16	225.67
848.48	225.64
848.79	225.69
849.10	225.69
849.42	225.70
849.73	225.62
850.04	225.61
850.36	225.54
850.67	225.51
850.98	225.47
851.30	225.46
851.61	225.45
851.92	225.41
852.23	225.42
852.55	225.41
852.86	225.41
853.17	225.42
853.49	225.43
853.80	225.47
854.11	225.51
854.42	225.48
854.74	225.51
855.05	225.53
855.36	225.48
855.67	225.47
855.99	225.47
856.30	225.59
856.61	225.61
856.92	225.63
857.23	225.66
857.55	225.67
857.86	225.69
858.17	225.73
858.48	225.74
858.79	225.72
859.11	225.73
859.42	225.74
859.73	225.73
860.04	225.71
860.35	225.68
860.66	225.62
860.98	225.61
861.29	225.58
861.60	225.54
861.91	225.57
862.22	225.56
862.53	225.53
862.84	225.43
863.16	225.47
863.47	225.45
863.78	225.43
864.09	225.41
864.40	225.42
864.71	225.42
865.02	225.41
865.33	225.42
865.64	225.42
865.95	225.41
866.27	225.45
866.58	225.44
866.89	225.47
867.20	225.51
867.51	225.52
867.82	225.54
868.13	225.58
868.44	225.56
868.75	225.60
869.06	225.62
869.37	225.64
869.68	225.56
869.99	225.56
870.30	225.59
870.61	225.62
870.92	225.58
871.23	225.57
871.54	225.59
871.85	225.59
872.16	225.59
872.47	225.57
872.78	225.54
873.09	225.56
873.40	225.52
873.71	225.49
874.02	225.49
874.33	225.46
874.64	225.43
874.95	225.40
875.26	225.36
875.56	225.34
875.87	225.31
876.18	225.30
876.49	225.42
876.80	225.38
877.11	225.37
877.42	225.38
877.73	225.39
878.04	225.35
878.35	225.34
878.66	225.36
878.96	225.35
879.27	225.32
879.58	225.33
879.89	225.34
880.20	225.40
880.51	225.37
880.82	225.40
881.12	225.42
881.43	225.45
881.74	225.44
882.05	225.45
882.36	225.46
882.67	225.46
882.97	225.35
883.28	225.34
883.59	225.37
883.90	225.39
884.21	225.41
884.51	225.45
884.82	225.46
885.13	225.43
885.44	225.44
885.74	225.43
886.05	225.41
886.36	225.40
886.67	225.34
886.98	225.38
887.28	225.37
887.59	225.37
887.90	225.34
888.20	225.31
888.51	225.31
888.82	225.30
889.13	225.33
889.43	225.40
889.74	225.41
890.05	225.37
890.35	225.33
890.66	225.29
890.97	225.24
891.28	225.21
891.58	225.20
891.89	225.20
892.20	225.20
892.50	225.17
892.81	225.13
893.12	225.14
893.42	225.12
893.73	225.11
894.04	225.08
894.34	225.09
894.65	225.10
894.95	225.08
895.26	225.09
895.57	225.10
895.87	225.02
896.18	225.01
896.48	225.00
896.79	225.01
897.10	225.03
897.40	225.02
897.71	225.03
898.01	225.04
898.32	225.08
898.63	225.05
898.93	225.12
899.24	225.18
899.54	225.18
899.85	225.17
900.15	225.18
900.46	225.21
900.76	225.22
901.07	225.23
901.38	225.24
901.68	225.23
901.99	225.19
902.29	225.19
902.60	225.17
902.90	225.19
903.21	225.20
903.51	225.21
903.82	225.24
904.12	225.26
904.43	225.26
904.73	225.23
905.03	225.24
905.34	225.31
905.64	225.30
905.95	225.30
906.25	225.25
906.56	225.26
906.86	225.24
907.17	225.25
907.47	225.25
907.77	225.23
908.08	225.24
908.38	225.25
908.69	225.26
908.99	225.32
909.30	225.32
909.60	225.33
909.90	225.31
910.21	225.30
910.51	225.29
910.81	225.31
911.12	225.31
911.42	225.31
911.73	225.22
912.03	225.22
912.33	225.25
912.64	225.31
912.94	225.31
913.24	225.30
913.55	225.28
913.85	225.29
914.15	225.33
914.46	225.34
914.76	225.35
915.06	225.35
915.37	225.32
915.67	225.34
915.97	225.33
916.27	225.35
916.58	225.36
916.88	225.36
917.18	225.35
917.49	225.44
917.79	225.44
918.09	225.45
918.39	225.46
918.70	225.43
919.00	225.42
919.30	225.44
919.60	225.44
919.91	225.42
920.21	225.43
920.51	225.42
920.81	225.42
921.12	225.44
921.42	225.44
921.72	225.44
922.02	225.44
922.32	225.45
922.63	225.45
922.93	225.47
923.23	225.48
923.53	225.46
923.83	225.36
924.13	225.37
924.44	225.36
924.74	225.37
925.04	225.39
925.34	225.39
925.64	225.37
925.94	225.38
926.24	225.46
926.55	225.45
926.85	225.43
927.15	225.43
927.45	225.39
927.75	225.40
928.05	225.37
928.35	225.35
928.65	225.38
928.95	225.38
929.26	225.38
929.56	225.38
929.86	225.38
930.16	225.40
930.46	225.41
930.76	225.37
931.06	225.35
931.36	225.31
931.66	225.30
931.96	225.30
932.26	225.29
932.56	225.25
932.86	225.28
933.16	225.27
933.46	225.26
933.76	225.25
934.06	225.27
934.36	225.33
934.66	225.33
934.96	225.28
935.26	225.29
935.56	225.28
935.86	225.28
936.16	225.26
936.46	225.27
936.76	225.24
937.06	225.26
937.36	225.26
937.66	225.25
937.96	225.24
938.26	225.22
938.56	225.22
938.86	225.20
939.16	225.20
939.46	225.22
939.76	225.21
940.06	225.22
940.35	225.18
940.65	225.18
940.95	225.20
941.25	225.19
941.55	225.17
941.85	225.17
942.15	225.17
942.45	225.22
942.75	225.19
943.04	225.20
943.34	225.23
943.64	225.22
943.94	225.22
944.24	225.23
944.54	225.22
944.84	225.20
945.13	225.21
945.43	225.15
945.73	225.16
946.03	225.12
946.33	225.12
946.62	225.10
946.92	225.06
947.22	225.05
947.52	225.04
947.82	225.07
948.11	225.05
948.41	225.01
948.71	224.97
949.01	224.97
949.31	224.97
949.60	224.97
949.90	224.97
950.20	224.96
950.50	224.95
950.79	224.92
951.09	224.97
951.39	224.97
951.69	224.99
951.98	225.03
952.28	225.06
952.58	225.05
952.87	225.04
953.17	225.07
953.47	225.04
953.76	225.04
954.06	225.01
954.36	225.01
954.66	225.02
954.95	225.09
955.25	225.12
955.55	225.14
955.84	225.13
956.14	225.17
956.44	225.18
956.73	225.18
957.03	225.21
957.32	225.18
957.62	225.15
957.92	225.16
958.21	225.13
958.51	225.24
958.81	225.28
959.10	225.34
959.40	225.33
959.69	225.38
959.99	225.38
960.29	225.38
960.58	225.38
960.88	225.41
961.17	225.38
961.47	225.36
961.76	225.33
962.06	225.34
962.36	225.32
962.65	225.30
962.95	225.35
963.24	225.34
963.54	225.38
963.83	225.40
964.13	225.41
964.42	225.39
964.72	225.31
965.01	225.29
965.31	225.25
965.60	225.20
965.90	225.26
966.19	225.25
966.49	225.26
966.78	225.26
967.08	225.26
967.37	225.26
967.67	225.26
967.96	225.29
968.26	225.24
968.55	225.25
968.85	225.23
969.14	225.17
969.43	225.19
969.73	225.16
970.02	225.14
970.32	225.11
970.61	225.13
970.91	225.08
971.20	225.10
971.49	225.08
971.79	225.11
972.08	225.03
972.38	225.03
972.67	225.02
972.96	224.99
973.26	224.94
973.55	224.93
973.85	224.90
974.14	224.84
974.43	224.85
974.73	224.84
975.02	224.84
975.31	224.86
975.61	224.86
975.90	224.85
976.19	224.83
976.49	224.86
976.78	224.83
977.07	224.83
977.37	224.80
977.66	224.82
977.95	224.78
978.24	224.82
978.54	224.81
978.83	224.77
979.12	224.78
979.42	224.80
979.71	224.76
980.00	224.76
980.29	224.78
980.59	224.78
980.88	224.79
981.17	224.78
981.46	224.77
981.76	224.76
982.05	224.80
982.34	224.83
982.63	224.82
982.93	224.80
983.22	224.82
983.51	224.84
983.80	224.81
984.09	224.81
984.39	224.77
984.68	224.78
984.97	224.81
985.26	224.80
985.55	224.80
985.85	224.80
986.14	224.84
986.43	224.86
986.72	224.82
987.01	224.80
987.30	224.84
987.59	224.87
987.89	224.87
988.18	224.81
988.47	224.81
988.76	224.81
989.05	224.83
989.34	224.80
989.63	224.84
989.92	224.87
990.22	224.88
990.51	224.85
990.80	224.83
991.09	224.85
991.38	224.85
991.67	224.86
991.96	224.85
992.25	224.88
992.54	224.89
992.83	224.91
993.12	224.91
993.41	224.90
993.70	224.92
993.99	224.94
994.28	224.96
994.58	224.93
994.87	224.92
995.16	224.92
995.45	224.93
995.74	224.88
996.03	224.89
996.32	224.92
996.61	224.98
996.90	225.00
997.19	225.00
997.48	225.02
997.77	225.00
998.06	225.01
998.34	224.99
998.63	224.95
998.92	224.98
999.21	225.02
999.50	225.03
999.79	224.96
1000.08	224.93
1000.37	224.93
1000.66	224.91
1000.95	224.93
1001.24	224.92
1001.53	224.93
1001.82	224.96
1002.11	224.94
1002.40	224.96
1002.68	224.98
1002.97	225.04
1003.26	224.99
1003.55	224.94
1003.84	224.96
1004.13	224.99
1004.42	224.99
1004.71	224.99
1004.99	224.98
1005.28	224.96
1005.57	224.95
1005.86	224.97
1006.15	224.98
1006.44	224.95
1006.72	224.99
1007.01	224.96
1007.30	224.97
1007.59	224.98
1007.88	224.93
1008.17	224.91
1008.45	224.89
1008.74	224.83
1009.03	224.78
1009.32	224.81
1009.60	224.84
1009.89	224.83
1010.18	224.79
1010.47	224.75
1010.76	224.75
1011.04	224.73
1011.33	224.76
1011.62	224.77
1011.91	224.78
1012.19	224.78
1012.48	224.77
1012.77	224.75
1013.05	224.76
1013.34	224.76
1013.63	224.73
1013.92	224.76
1014.20	224.76
1014.49	224.75
1014.78	224.78
1015.06	224.74
1015.35	224.72
1015.64	224.72
1015.92	224.75
1016.21	224.74
1016.50	224.78
1016.78	224.78
1017.07	224.80
1017.36	224.74
1017.64	224.73
1017.93	224.73
1018.22	224.74
1018.50	224.76
1018.79	224.78
1019.08	224.76
1019.36	224.78
1019.65	224.77
1019.93	224.78
1020.22	224.80
1020.51	224.86
1020.79	224.86
1021.08	224.83
1021.36	224.99
1021.65	224.90
1021.94	224.23
1022.22	225.31
1022.51	224.60
1022.79	224.90
1023.08	225.13
1023.36	225.93
1023.65	224.96
>>>>>End Processed Spectral Data<<<<<
