SpectraSuite Data File
++++++++++++++++++++++++++++++++++++
Date: Fri Feb 01 15:36:40 EST 2013
User: group
Dark Spectrum Present: No
Reference Spectrum Present: No
Number of Sampled Component Spectra: 1
Spectrometers: USB2E7196
Integration Time (usec): 35000 (USB2E7196)
Spectra Averaged: 100 (USB2E7196)
Boxcar Smoothing: 10 (USB2E7196)
Correct for Electrical Dark: No (USB2E7196)
Strobe/Lamp Enabled: No (USB2E7196)
Correct for Detector Non-linearity: No (USB2E7196)
Correct for Stray Light: No (USB2E7196)
Number of Pixels in Processed Spectrum: 2048
>>>>>Begin Processed Spectral Data<<<<<
339.09	0.00
339.48	214.66
339.86	216.68
340.24	217.50
340.63	219.33
341.01	221.49
341.39	222.14
341.78	223.00
342.16	224.29
342.54	224.67
342.93	213.17
343.31	223.94
343.69	224.48
344.07	224.94
344.46	225.36
344.84	225.74
345.22	226.01
345.60	226.24
345.99	226.46
346.37	226.60
346.75	226.72
347.13	226.82
347.52	226.93
347.90	227.00
348.28	227.05
348.66	227.10
349.05	227.12
349.43	227.14
349.81	227.22
350.19	227.29
350.57	227.39
350.96	227.49
351.34	227.59
351.72	227.67
352.10	227.79
352.48	227.90
352.87	227.96
353.25	228.03
353.63	228.10
354.01	228.17
354.39	228.29
354.77	228.39
355.15	228.50
355.54	228.56
355.92	228.63
356.30	228.72
356.68	228.84
357.06	228.93
357.44	229.01
357.82	229.04
358.20	229.10
358.58	229.17
358.97	229.20
359.35	229.30
359.73	229.38
360.11	229.41
360.49	229.46
360.87	229.50
361.25	229.57
361.63	229.63
362.01	229.66
362.39	229.67
362.77	229.67
363.15	229.69
363.53	229.69
363.91	229.69
364.29	229.69
364.67	229.67
365.05	229.67
365.43	229.65
365.81	229.65
366.19	229.67
366.57	229.70
366.95	229.67
367.33	229.61
367.71	229.61
368.09	229.57
368.47	229.52
368.85	229.49
369.23	229.45
369.61	229.41
369.99	229.40
370.37	229.33
370.75	229.33
371.13	229.25
371.51	229.20
371.89	229.15
372.27	229.08
372.65	229.00
373.03	228.93
373.41	228.85
373.78	228.79
374.16	228.69
374.54	228.55
374.92	228.50
375.30	228.42
375.68	228.30
376.06	228.27
376.44	228.19
376.82	228.14
377.19	228.04
377.57	227.94
377.95	227.83
378.33	227.75
378.71	227.59
379.09	227.52
379.47	227.43
379.84	227.38
380.22	227.28
380.60	227.19
380.98	227.11
381.36	227.09
381.73	227.02
382.11	226.99
382.49	226.93
382.87	226.86
383.25	226.81
383.62	226.86
384.00	226.76
384.38	226.72
384.76	226.66
385.13	226.66
385.51	226.63
385.89	226.58
386.27	226.57
386.64	226.55
387.02	226.49
387.40	226.45
387.78	226.41
388.15	226.37
388.53	226.34
388.91	226.29
389.29	226.22
389.66	226.20
390.04	226.17
390.42	226.17
390.79	226.13
391.17	226.16
391.55	226.07
391.92	226.06
392.30	226.07
392.68	226.07
393.05	226.07
393.43	226.05
393.81	226.08
394.18	226.05
394.56	226.10
394.94	226.16
395.31	226.19
395.69	226.27
396.06	226.35
396.44	226.44
396.82	226.53
397.19	226.62
397.57	226.69
397.95	226.76
398.32	226.83
398.70	226.93
399.07	226.99
399.45	227.07
399.82	227.15
400.20	227.25
400.58	227.35
400.95	227.41
401.33	227.51
401.70	227.66
402.08	227.78
402.45	227.88
402.83	228.03
403.20	228.17
403.58	228.23
403.95	228.40
404.33	228.52
404.71	228.59
405.08	228.81
405.46	228.96
405.83	229.08
406.21	229.23
406.58	229.41
406.96	229.58
407.33	229.78
407.70	229.99
408.08	230.24
408.45	230.46
408.83	230.71
409.20	230.94
409.58	231.13
409.95	231.44
410.33	231.71
410.70	231.94
411.08	232.23
411.45	232.55
411.82	232.81
412.20	233.13
412.57	233.59
412.95	233.88
413.32	234.25
413.69	234.67
414.07	235.08
414.44	235.53
414.82	235.99
415.19	236.52
415.56	237.05
415.94	237.61
416.31	238.25
416.68	238.88
417.06	239.61
417.43	240.28
417.81	241.00
418.18	241.79
418.55	242.62
418.93	243.50
419.30	244.40
419.67	245.34
420.04	246.34
420.42	247.30
420.79	248.48
421.16	249.67
421.54	250.84
421.91	252.05
422.28	253.30
422.66	254.61
423.03	255.91
423.40	257.22
423.77	258.61
424.15	260.00
424.52	261.47
424.89	263.09
425.26	264.64
425.64	266.10
426.01	267.68
426.38	269.33
426.75	270.93
427.13	272.60
427.50	274.42
427.87	276.25
428.24	278.13
428.61	279.83
428.99	281.74
429.36	283.84
429.73	285.90
430.10	287.87
430.47	289.90
430.85	291.98
431.22	294.24
431.59	296.60
431.96	298.85
432.33	301.31
432.70	303.68
433.08	306.50
433.45	309.07
433.82	311.62
434.19	314.50
434.56	317.32
434.93	320.04
435.30	322.65
435.68	325.56
436.05	328.36
436.42	331.17
436.79	333.68
437.16	336.39
437.53	339.22
437.90	342.07
438.27	344.88
438.64	347.76
439.01	350.31
439.38	352.57
439.75	354.76
440.13	357.28
440.50	359.58
440.87	361.41
441.24	363.41
441.61	365.64
441.98	367.15
442.35	368.95
442.72	370.80
443.09	372.59
443.46	373.61
443.83	374.22
444.20	374.75
444.57	375.60
444.94	375.89
445.31	376.28
445.68	376.63
446.05	376.67
446.42	376.30
446.79	375.96
447.16	375.50
447.53	375.18
447.90	374.02
448.27	372.91
448.64	371.29
449.01	370.19
449.37	368.21
449.74	366.36
450.11	364.15
450.48	361.68
450.85	359.19
451.22	357.03
451.59	355.04
451.96	353.09
452.33	350.52
452.70	348.16
453.07	345.29
453.43	342.42
453.80	339.68
454.17	337.01
454.54	334.43
454.91	331.73
455.28	329.05
455.65	326.60
456.02	324.12
456.38	322.02
456.75	319.36
457.12	317.12
457.49	314.90
457.86	312.71
458.23	310.86
458.59	308.78
458.96	306.70
459.33	304.82
459.70	302.95
460.07	301.39
460.43	299.67
460.80	298.08
461.17	296.66
461.54	295.16
461.91	293.71
462.27	292.27
462.64	291.03
463.01	289.67
463.38	288.32
463.74	286.96
464.11	285.77
464.48	284.70
464.85	283.53
465.21	282.61
465.58	281.67
465.95	280.54
466.32	279.65
466.68	278.72
467.05	277.83
467.42	276.94
467.78	276.01
468.15	275.14
468.52	274.43
468.88	273.52
469.25	272.73
469.62	272.08
469.98	271.37
470.35	270.69
470.72	270.08
471.08	269.43
471.45	268.90
471.82	268.31
472.18	267.72
472.55	267.29
472.92	266.79
473.28	266.32
473.65	265.86
474.02	265.38
474.38	265.00
474.75	264.64
475.11	264.28
475.48	264.02
475.85	263.77
476.21	263.57
476.58	263.42
476.94	263.23
477.31	263.09
477.67	262.98
478.04	262.92
478.41	262.84
478.77	262.87
479.14	262.78
479.50	262.85
479.87	262.92
480.23	262.98
480.60	263.02
480.96	263.11
481.33	263.29
481.69	263.54
482.06	263.75
482.42	263.97
482.79	264.22
483.15	264.54
483.52	264.93
483.88	265.26
484.25	265.62
484.61	266.06
484.98	266.48
485.34	267.06
485.71	267.60
486.07	268.18
486.44	268.76
486.80	269.48
487.17	270.18
487.53	270.99
487.90	271.88
488.26	272.84
488.62	273.78
488.99	274.76
489.35	275.78
489.72	276.90
490.08	278.11
490.44	279.37
490.81	280.71
491.17	282.03
491.54	283.50
491.90	285.06
492.26	286.76
492.63	288.55
492.99	290.31
493.36	292.20
493.72	294.28
494.08	296.38
494.45	298.62
494.81	300.99
495.17	303.42
495.54	306.00
495.90	308.67
496.26	311.56
496.63	314.53
496.99	317.65
497.35	320.95
497.72	324.37
498.08	327.91
498.44	331.58
498.80	335.55
499.17	339.63
499.53	343.82
499.89	348.11
500.26	352.61
500.62	357.30
500.98	362.30
501.34	367.36
501.71	372.70
502.07	378.12
502.43	383.77
502.79	389.62
503.16	395.70
503.52	401.96
503.88	408.33
504.24	414.99
504.60	421.81
504.97	428.88
505.33	436.24
505.69	443.93
506.05	451.67
506.41	459.51
506.78	467.66
507.14	476.13
507.50	484.90
507.86	493.88
508.22	503.08
508.59	512.26
508.95	521.86
509.31	531.69
509.67	541.82
510.03	552.05
510.39	562.59
510.75	573.44
511.12	584.39
511.48	595.70
511.84	607.18
512.20	618.76
512.56	630.70
512.92	642.86
513.28	655.20
513.64	667.70
514.00	680.44
514.37	693.40
514.73	706.43
515.09	719.41
515.45	732.62
515.81	746.19
516.17	760.21
516.53	774.36
516.89	788.53
517.25	802.70
517.61	817.09
517.97	831.47
518.33	845.80
518.69	860.58
519.05	875.56
519.41	890.72
519.77	906.21
520.13	921.83
520.49	937.26
520.85	952.67
521.21	968.45
521.57	984.72
521.93	1000.48
522.29	1016.87
522.65	1033.19
523.01	1049.61
523.37	1065.70
523.73	1081.91
524.09	1097.97
524.45	1114.30
524.81	1130.97
525.17	1147.86
525.53	1164.85
525.89	1181.81
526.25	1198.67
526.61	1215.14
526.97	1231.96
527.33	1248.57
527.68	1265.02
528.04	1281.49
528.40	1298.14
528.76	1315.25
529.12	1331.78
529.48	1348.61
529.84	1364.73
530.20	1381.32
530.56	1398.19
530.91	1415.59
531.27	1432.38
531.63	1448.96
531.99	1465.67
532.35	1481.75
532.71	1497.72
533.07	1513.98
533.42	1529.90
533.78	1545.92
534.14	1562.19
534.50	1577.45
534.86	1593.27
535.21	1608.50
535.57	1624.41
535.93	1639.94
536.29	1654.71
536.65	1669.84
537.00	1684.69
537.36	1700.00
537.72	1714.61
538.08	1729.11
538.44	1742.95
538.79	1756.76
539.15	1770.43
539.51	1784.11
539.87	1798.51
540.22	1812.24
540.58	1826.10
540.94	1839.51
541.29	1852.52
541.65	1865.21
542.01	1878.59
542.37	1890.84
542.72	1903.29
543.08	1915.17
543.44	1927.62
543.79	1939.01
544.15	1950.05
544.51	1961.68
544.87	1972.58
545.22	1983.37
545.58	1993.65
545.94	2003.35
546.29	2013.24
546.65	2023.10
547.01	2032.35
547.36	2040.89
547.72	2049.39
548.07	2057.26
548.43	2065.36
548.79	2073.40
549.14	2080.95
549.50	2088.23
549.86	2096.12
550.21	2103.37
550.57	2110.44
550.92	2117.03
551.28	2123.96
551.64	2130.99
551.99	2137.61
552.35	2143.70
552.70	2149.91
553.06	2155.78
553.41	2162.28
553.77	2168.36
554.13	2174.43
554.48	2180.49
554.84	2185.96
555.19	2191.25
555.55	2196.31
555.90	2200.77
556.26	2205.48
556.61	2210.15
556.97	2214.31
557.32	2218.42
557.68	2222.66
558.03	2227.04
558.39	2230.66
558.74	2235.26
559.10	2239.12
559.45	2242.70
559.81	2247.24
560.16	2251.00
560.52	2254.27
560.87	2257.74
561.23	2260.35
561.58	2263.24
561.94	2265.84
562.29	2268.33
562.64	2270.95
563.00	2273.62
563.35	2277.20
563.71	2280.37
564.06	2283.69
564.42	2286.62
564.77	2289.02
565.12	2291.25
565.48	2293.02
565.83	2294.81
566.19	2296.07
566.54	2297.09
566.89	2298.22
567.25	2298.66
567.60	2300.01
567.96	2301.73
568.31	2302.33
568.66	2303.31
569.02	2303.87
569.37	2304.12
569.72	2304.87
570.08	2304.96
570.43	2304.99
570.78	2304.38
571.14	2302.81
571.49	2301.48
571.84	2301.08
572.20	2299.98
572.55	2298.84
572.90	2297.34
573.26	2295.96
573.61	2294.28
573.96	2292.38
574.31	2289.26
574.67	2286.16
575.02	2282.44
575.37	2279.02
575.72	2275.26
576.08	2271.98
576.43	2268.67
576.78	2264.97
577.13	2261.82
577.49	2258.67
577.84	2254.93
578.19	2251.06
578.54	2247.42
578.90	2243.10
579.25	2237.57
579.60	2232.42
579.95	2227.47
580.30	2222.47
580.66	2217.19
581.01	2212.14
581.36	2207.10
581.71	2202.89
582.06	2198.43
582.42	2193.98
582.77	2188.61
583.12	2183.98
583.47	2179.28
583.82	2174.12
584.17	2168.77
584.53	2163.25
584.88	2157.52
585.23	2151.80
585.58	2146.19
585.93	2140.60
586.28	2135.73
586.63	2130.63
586.98	2125.70
587.34	2120.92
587.69	2115.99
588.04	2110.68
588.39	2105.01
588.74	2098.65
589.09	2092.47
589.44	2085.67
589.79	2079.68
590.14	2074.08
590.49	2067.41
590.84	2060.99
591.19	2055.14
591.54	2048.75
591.89	2041.23
592.25	2034.49
592.60	2027.25
592.95	2019.72
593.30	2012.51
593.65	2004.92
594.00	1997.82
594.35	1990.43
594.70	1982.35
595.05	1974.95
595.40	1967.74
595.75	1960.24
596.10	1953.90
596.45	1947.11
596.80	1940.87
597.15	1934.02
597.50	1926.86
597.85	1920.48
598.19	1913.60
598.54	1906.25
598.89	1899.53
599.24	1893.67
599.59	1886.90
599.94	1880.72
600.29	1874.45
600.64	1867.69
600.99	1860.30
601.34	1853.41
601.69	1846.46
602.04	1839.50
602.39	1832.20
602.74	1825.31
603.08	1818.61
603.43	1811.83
603.78	1804.60
604.13	1797.34
604.48	1790.02
604.83	1783.30
605.18	1776.27
605.53	1768.47
605.87	1760.54
606.22	1753.38
606.57	1745.34
606.92	1738.10
607.27	1730.87
607.62	1723.81
607.96	1716.55
608.31	1709.70
608.66	1702.06
609.01	1694.45
609.36	1686.96
609.70	1678.94
610.05	1670.79
610.40	1662.96
610.75	1654.66
611.10	1646.87
611.44	1638.55
611.79	1630.70
612.14	1621.84
612.49	1612.69
612.83	1604.25
613.18	1596.14
613.53	1587.97
613.88	1579.50
614.22	1571.11
614.57	1562.59
614.92	1554.55
615.27	1546.96
615.61	1538.85
615.96	1530.86
616.31	1523.28
616.65	1515.77
617.00	1508.32
617.35	1500.79
617.70	1492.49
618.04	1483.82
618.39	1475.68
618.74	1468.10
619.08	1459.81
619.43	1452.26
619.78	1445.39
620.12	1438.16
620.47	1430.57
620.82	1422.33
621.16	1414.91
621.51	1407.39
621.85	1399.72
622.20	1391.27
622.55	1382.90
622.89	1374.84
623.24	1367.31
623.59	1360.01
623.93	1352.52
624.28	1345.22
624.62	1337.61
624.97	1330.43
625.32	1323.90
625.66	1316.84
626.01	1309.59
626.35	1302.04
626.70	1294.29
627.04	1286.45
627.39	1278.71
627.73	1271.36
628.08	1264.47
628.43	1257.18
628.77	1249.70
629.12	1242.11
629.46	1234.89
629.81	1227.63
630.15	1220.45
630.50	1212.92
630.84	1204.61
631.19	1196.79
631.53	1189.23
631.88	1181.70
632.22	1174.00
632.57	1166.69
632.91	1159.12
633.26	1151.74
633.60	1144.39
633.95	1137.34
634.29	1130.35
634.64	1123.62
634.98	1116.20
635.32	1109.10
635.67	1102.51
636.01	1095.94
636.36	1089.06
636.70	1082.56
637.05	1075.96
637.39	1069.55
637.73	1063.10
638.08	1057.29
638.42	1051.16
638.77	1044.66
639.11	1038.18
639.45	1031.85
639.80	1025.09
640.14	1018.69
640.49	1012.10
640.83	1005.81
641.17	999.55
641.52	993.24
641.86	986.89
642.20	981.11
642.55	974.80
642.89	968.25
643.23	961.72
643.58	956.10
643.92	949.90
644.26	943.78
644.61	937.82
644.95	931.78
645.29	925.16
645.64	918.54
645.98	912.28
646.32	906.34
646.66	900.28
647.01	894.56
647.35	888.84
647.69	883.03
648.04	877.47
648.38	871.67
648.72	865.68
649.06	859.65
649.41	853.82
649.75	847.86
650.09	841.95
650.43	836.16
650.78	829.91
651.12	823.94
651.46	818.24
651.80	812.42
652.14	807.07
652.49	801.67
652.83	796.50
653.17	790.78
653.51	785.11
653.85	779.73
654.20	774.01
654.54	768.02
654.88	762.29
655.22	756.47
655.56	750.80
655.90	745.35
656.25	740.05
656.59	734.63
656.93	729.57
657.27	724.42
657.61	718.92
657.95	713.91
658.29	708.88
658.64	703.67
658.98	698.37
659.32	692.87
659.66	687.68
660.00	682.28
660.34	677.36
660.68	672.48
661.02	667.50
661.36	662.81
661.70	658.35
662.05	654.08
662.39	649.78
662.73	645.33
663.07	640.95
663.41	636.53
663.75	632.01
664.09	627.40
664.43	623.11
664.77	619.10
665.11	614.77
665.45	610.63
665.79	606.51
666.13	602.41
666.47	598.33
666.81	594.16
667.15	590.12
667.49	586.26
667.83	582.45
668.17	578.53
668.51	574.48
668.85	570.45
669.19	566.51
669.53	562.61
669.87	558.68
670.21	554.97
670.55	551.29
670.89	547.87
671.23	544.44
671.57	540.86
671.91	537.25
672.25	533.81
672.58	530.30
672.92	526.90
673.26	523.74
673.60	520.56
673.94	517.47
674.28	514.57
674.62	511.65
674.96	508.50
675.30	505.58
675.64	502.70
675.97	499.94
676.31	497.11
676.65	494.21
676.99	491.50
677.33	488.65
677.67	485.87
678.01	482.85
678.34	479.89
678.68	477.04
679.02	474.15
679.36	471.37
679.70	468.64
680.04	465.93
680.37	463.05
680.71	460.30
681.05	457.71
681.39	454.98
681.73	452.28
682.06	449.77
682.40	447.18
682.74	444.63
683.08	442.13
683.42	439.53
683.75	437.01
684.09	434.52
684.43	432.01
684.77	429.49
685.10	427.16
685.44	424.87
685.78	422.64
686.12	420.51
686.45	418.24
686.79	415.96
687.13	413.72
687.46	411.59
687.80	409.40
688.14	407.15
688.48	405.10
688.81	402.90
689.15	400.71
689.49	398.61
689.82	396.56
690.16	394.44
690.50	392.54
690.83	390.64
691.17	388.67
691.51	386.78
691.84	384.94
692.18	383.00
692.52	381.02
692.85	379.01
693.19	377.11
693.52	375.31
693.86	373.51
694.20	371.71
694.53	369.88
694.87	368.05
695.21	366.30
695.54	364.43
695.88	362.72
696.21	360.99
696.55	359.34
696.88	357.61
697.22	355.94
697.56	354.29
697.89	352.63
698.23	350.97
698.56	349.38
698.90	347.80
699.23	346.14
699.57	344.54
699.90	343.04
700.24	341.54
700.58	339.95
700.91	338.46
701.25	337.05
701.58	335.69
701.92	334.29
702.25	332.90
702.59	331.57
702.92	330.24
703.26	328.96
703.59	327.64
703.93	326.46
704.26	325.21
704.60	323.90
704.93	322.63
705.26	321.42
705.60	320.27
705.93	319.09
706.27	318.07
706.60	317.07
706.94	315.98
707.27	314.82
707.61	313.80
707.94	312.77
708.27	311.66
708.61	310.57
708.94	309.60
709.28	308.63
709.61	307.69
709.94	306.72
710.28	305.69
710.61	304.75
710.95	303.68
711.28	302.78
711.61	301.81
711.95	300.91
712.28	299.96
712.61	298.97
712.95	298.09
713.28	297.21
713.61	296.27
713.95	295.41
714.28	294.56
714.61	293.70
714.95	292.84
715.28	291.99
715.61	291.13
715.95	290.28
716.28	289.40
716.61	288.57
716.95	287.73
717.28	287.03
717.61	286.22
717.94	285.51
718.28	284.71
718.61	283.98
718.94	283.25
719.27	282.59
719.61	281.95
719.94	281.31
720.27	280.59
720.60	279.94
720.94	279.30
721.27	278.72
721.60	278.17
721.93	277.57
722.27	277.01
722.60	276.47
722.93	275.92
723.26	275.41
723.59	274.83
723.93	274.31
724.26	273.72
724.59	273.20
724.92	272.67
725.25	272.17
725.59	271.65
725.92	271.18
726.25	270.69
726.58	270.21
726.91	269.69
727.24	269.25
727.57	268.77
727.91	268.24
728.24	267.78
728.57	267.25
728.90	266.83
729.23	266.35
729.56	265.91
729.89	265.43
730.22	264.93
730.55	264.48
730.89	264.08
731.22	263.61
731.55	263.17
731.88	262.75
732.21	262.34
732.54	261.92
732.87	261.47
733.20	261.02
733.53	260.61
733.86	260.26
734.19	259.83
734.52	259.47
734.85	259.17
735.18	258.76
735.51	258.42
735.84	258.00
736.17	257.66
736.50	257.25
736.83	257.02
737.16	256.66
737.49	256.31
737.82	255.90
738.15	255.59
738.48	255.27
738.81	254.92
739.14	254.56
739.47	254.22
739.80	253.90
740.13	253.62
740.46	253.31
740.79	252.93
741.12	252.64
741.45	252.35
741.78	251.96
742.11	251.68
742.44	251.35
742.77	251.09
743.10	250.79
743.43	250.52
743.75	250.12
744.08	250.00
744.41	249.75
744.74	249.50
745.07	249.22
745.40	248.92
745.73	248.70
746.06	248.44
746.39	248.18
746.71	247.91
747.04	247.61
747.37	247.35
747.70	247.11
748.03	246.85
748.36	246.61
748.68	246.40
749.01	246.15
749.34	245.90
749.67	245.68
750.00	245.47
750.33	245.32
750.65	245.11
750.98	244.76
751.31	244.52
751.64	244.30
751.97	244.12
752.29	243.97
752.62	243.75
752.95	243.55
753.28	243.35
753.60	243.22
753.93	243.03
754.26	242.82
754.59	242.61
754.91	242.38
755.24	242.18
755.57	242.01
755.90	241.82
756.22	241.62
756.55	241.43
756.88	241.26
757.20	241.01
757.53	240.82
757.86	240.65
758.19	240.52
758.51	240.33
758.84	240.16
759.17	239.92
759.49	239.75
759.82	239.65
760.15	239.52
760.47	239.30
760.80	239.16
761.13	239.05
761.45	238.91
761.78	238.79
762.11	238.65
762.43	238.48
762.76	238.34
763.08	238.25
763.41	238.13
763.74	237.97
764.06	237.85
764.39	237.73
764.71	237.61
765.04	237.45
765.37	237.36
765.69	237.24
766.02	237.16
766.34	237.01
766.67	236.86
767.00	236.74
767.32	236.70
767.65	236.64
767.97	236.50
768.30	236.39
768.62	236.30
768.95	236.18
769.27	236.07
769.60	236.02
769.92	235.91
770.25	235.76
770.57	235.64
770.90	235.51
771.22	235.42
771.55	235.34
771.87	235.25
772.20	235.16
772.52	235.14
772.85	235.18
773.17	235.09
773.50	234.98
773.82	234.87
774.15	234.73
774.47	234.60
774.80	234.53
775.12	234.42
775.45	234.34
775.77	234.27
776.09	234.17
776.42	234.03
776.74	233.93
777.07	233.87
777.39	233.80
777.72	233.72
778.04	233.61
778.36	233.51
778.69	233.46
779.01	233.41
779.33	233.25
779.66	233.02
779.98	232.96
780.31	232.90
780.63	232.88
780.95	232.84
781.28	232.77
781.60	232.68
781.92	232.62
782.25	232.53
782.57	232.46
782.89	232.46
783.22	232.39
783.54	232.32
783.86	232.25
784.19	232.19
784.51	232.20
784.83	232.15
785.16	232.06
785.48	231.98
785.80	231.89
786.12	231.84
786.45	231.82
786.77	231.77
787.09	231.73
787.42	231.67
787.74	231.62
788.06	231.58
788.38	231.52
788.71	231.46
789.03	231.44
789.35	231.40
789.67	231.33
789.99	231.33
790.32	231.27
790.64	231.24
790.96	231.27
791.28	231.19
791.61	231.17
791.93	231.15
792.25	231.14
792.57	231.14
792.89	231.09
793.21	231.05
793.54	231.02
793.86	230.96
794.18	230.92
794.50	230.87
794.82	230.83
795.14	230.83
795.47	230.86
795.79	230.82
796.11	230.77
796.43	230.72
796.75	230.68
797.07	230.67
797.39	230.65
797.71	230.61
798.04	230.54
798.36	230.50
798.68	230.50
799.00	230.46
799.32	230.42
799.64	230.40
799.96	230.36
800.28	230.35
800.60	230.30
800.92	230.28
801.24	230.26
801.56	230.24
801.89	230.21
802.21	230.14
802.53	230.11
802.85	230.10
803.17	230.11
803.49	230.05
803.81	230.01
804.13	229.95
804.45	229.86
804.77	229.87
805.09	229.81
805.41	229.77
805.73	229.72
806.05	229.63
806.37	229.61
806.69	229.59
807.01	229.54
807.33	229.54
807.65	229.47
807.97	229.46
808.28	229.41
808.60	229.37
808.92	229.33
809.24	229.35
809.56	229.29
809.88	229.27
810.20	229.23
810.52	229.20
810.84	229.17
811.16	229.13
811.48	229.07
811.80	229.09
812.12	229.02
812.43	229.03
812.75	229.03
813.07	228.99
813.39	228.95
813.71	228.92
814.03	228.87
814.35	228.83
814.67	228.75
814.98	228.71
815.30	228.65
815.62	228.63
815.94	228.55
816.26	228.56
816.58	228.50
816.89	228.52
817.21	228.48
817.53	228.47
817.85	228.46
818.17	228.45
818.48	228.36
818.80	228.40
819.12	228.34
819.44	228.28
819.76	228.25
820.07	228.22
820.39	228.21
820.71	228.22
821.03	228.23
821.34	228.24
821.66	228.23
821.98	228.26
822.30	228.23
822.61	228.27
822.93	228.23
823.25	228.23
823.57	228.19
823.88	228.22
824.20	228.23
824.52	228.24
824.83	228.22
825.15	228.22
825.47	228.15
825.79	228.17
826.10	228.18
826.42	228.17
826.74	228.15
827.05	228.10
827.37	228.10
827.69	228.06
828.00	228.04
828.32	228.05
828.64	228.03
828.95	228.08
829.27	228.07
829.58	228.07
829.90	228.05
830.22	228.06
830.53	227.99
830.85	227.98
831.17	227.96
831.48	227.98
831.80	228.01
832.11	228.05
832.43	228.02
832.75	228.03
833.06	228.10
833.38	228.09
833.69	228.12
834.01	228.11
834.32	228.11
834.64	228.11
834.96	228.12
835.27	228.10
835.59	228.06
835.90	228.02
836.22	228.02
836.53	228.03
836.85	228.00
837.16	228.14
837.48	228.12
837.79	228.14
838.11	228.12
838.42	228.09
838.74	228.09
839.05	228.09
839.37	228.10
839.68	228.01
840.00	228.02
840.31	228.02
840.63	228.03
840.94	228.01
841.26	228.00
841.57	227.98
841.88	228.00
842.20	227.98
842.51	227.98
842.83	227.95
843.14	228.02
843.46	228.02
843.77	227.93
844.08	227.88
844.40	227.81
844.71	227.83
845.03	227.83
845.34	227.77
845.65	227.74
845.97	227.72
846.28	227.77
846.60	227.74
846.91	227.71
847.22	227.70
847.54	227.74
847.85	227.74
848.16	227.74
848.48	227.67
848.79	227.69
849.10	227.68
849.42	227.69
849.73	227.59
850.04	227.61
850.36	227.57
850.67	227.60
850.98	227.63
851.30	227.60
851.61	227.59
851.92	227.64
852.23	227.69
852.55	227.67
852.86	227.62
853.17	227.62
853.49	227.63
853.80	227.63
854.11	227.60
854.42	227.56
854.74	227.51
855.05	227.54
855.36	227.48
855.67	227.46
855.99	227.44
856.30	227.52
856.61	227.47
856.92	227.45
857.23	227.45
857.55	227.42
857.86	227.40
858.17	227.40
858.48	227.35
858.79	227.31
859.11	227.29
859.42	227.29
859.73	227.28
860.04	227.27
860.35	227.22
860.66	227.22
860.98	227.23
861.29	227.23
861.60	227.20
861.91	227.22
862.22	227.24
862.53	227.21
862.84	227.11
863.16	227.15
863.47	227.14
863.78	227.11
864.09	227.15
864.40	227.19
864.71	227.15
865.02	227.16
865.33	227.14
865.64	227.13
865.95	227.12
866.27	227.20
866.58	227.20
866.89	227.19
867.20	227.18
867.51	227.17
867.82	227.17
868.13	227.21
868.44	227.19
868.75	227.21
869.06	227.25
869.37	227.27
869.68	227.23
869.99	227.28
870.30	227.32
870.61	227.30
870.92	227.27
871.23	227.31
871.54	227.34
871.85	227.39
872.16	227.42
872.47	227.43
872.78	227.39
873.09	227.39
873.40	227.45
873.71	227.46
874.02	227.53
874.33	227.55
874.64	227.54
874.95	227.57
875.26	227.53
875.56	227.55
875.87	227.51
876.18	227.55
876.49	227.65
876.80	227.62
877.11	227.63
877.42	227.64
877.73	227.65
878.04	227.66
878.35	227.68
878.66	227.66
878.96	227.69
879.27	227.68
879.58	227.68
879.89	227.67
880.20	227.71
880.51	227.69
880.82	227.67
881.12	227.66
881.43	227.68
881.74	227.68
882.05	227.67
882.36	227.70
882.67	227.68
882.97	227.55
883.28	227.57
883.59	227.55
883.90	227.53
884.21	227.54
884.51	227.51
884.82	227.46
885.13	227.48
885.44	227.48
885.74	227.47
886.05	227.47
886.36	227.47
886.67	227.41
886.98	227.45
887.28	227.46
887.59	227.43
887.90	227.40
888.20	227.39
888.51	227.39
888.82	227.38
889.13	227.36
889.43	227.43
889.74	227.41
890.05	227.41
890.35	227.40
890.66	227.36
890.97	227.33
891.28	227.33
891.58	227.30
891.89	227.27
892.20	227.23
892.50	227.21
892.81	227.14
893.12	227.14
893.42	227.07
893.73	227.08
894.04	227.08
894.34	227.09
894.65	227.06
894.95	227.06
895.26	227.03
895.57	227.08
895.87	226.97
896.18	226.97
896.48	226.97
896.79	226.96
897.10	226.98
897.40	226.97
897.71	226.96
898.01	226.97
898.32	226.94
898.63	226.99
898.93	226.98
899.24	226.99
899.54	226.99
899.85	226.96
900.15	226.92
900.46	226.94
900.76	226.92
901.07	226.94
901.38	226.95
901.68	226.95
901.99	226.89
902.29	226.90
902.60	226.90
902.90	226.89
903.21	226.90
903.51	226.88
903.82	226.90
904.12	226.90
904.43	226.91
904.73	226.90
905.03	226.90
905.34	227.00
905.64	226.99
905.95	226.98
906.25	226.99
906.56	227.03
906.86	226.99
907.17	227.01
907.47	226.98
907.77	226.97
908.08	226.97
908.38	227.01
908.69	227.02
908.99	227.06
909.30	227.06
909.60	227.07
909.90	227.09
910.21	227.07
910.51	227.09
910.81	227.10
911.12	227.13
911.42	227.14
911.73	227.02
912.03	227.04
912.33	227.08
912.64	227.11
912.94	227.10
913.24	227.13
913.55	227.11
913.85	227.15
914.15	227.13
914.46	227.15
914.76	227.14
915.06	227.16
915.37	227.11
915.67	227.13
915.97	227.11
916.27	227.09
916.58	227.11
916.88	227.08
917.18	227.06
917.49	227.12
917.79	227.10
918.09	227.13
918.39	227.15
918.70	227.13
919.00	227.12
919.30	227.17
919.60	227.16
919.91	227.15
920.21	227.15
920.51	227.16
920.81	227.14
921.12	227.13
921.42	227.11
921.72	227.12
922.02	227.10
922.32	227.10
922.63	227.11
922.93	227.15
923.23	227.16
923.53	227.16
923.83	227.11
924.13	227.11
924.44	227.10
924.74	227.06
925.04	227.06
925.34	227.05
925.64	226.98
925.94	226.97
926.24	227.01
926.55	227.04
926.85	227.02
927.15	227.02
927.45	227.03
927.75	227.02
928.05	227.04
928.35	227.04
928.65	227.07
928.95	227.05
929.26	227.00
929.56	226.98
929.86	227.00
930.16	226.96
930.46	226.96
930.76	226.95
931.06	226.95
931.36	226.94
931.66	226.95
931.96	226.96
932.26	226.96
932.56	226.92
932.86	226.90
933.16	226.89
933.46	226.85
933.76	226.81
934.06	226.81
934.36	226.81
934.66	226.76
934.96	226.75
935.26	226.76
935.56	226.74
935.86	226.72
936.16	226.70
936.46	226.70
936.76	226.67
937.06	226.67
937.36	226.68
937.66	226.73
937.96	226.71
938.26	226.70
938.56	226.69
938.86	226.71
939.16	226.70
939.46	226.74
939.76	226.74
940.06	226.76
940.35	226.73
940.65	226.69
940.95	226.73
941.25	226.69
941.55	226.69
941.85	226.72
942.15	226.74
942.45	226.75
942.75	226.76
943.04	226.79
943.34	226.81
943.64	226.80
943.94	226.75
944.24	226.78
944.54	226.78
944.84	226.78
945.13	226.75
945.43	226.75
945.73	226.75
946.03	226.78
946.33	226.77
946.62	226.80
946.92	226.80
947.22	226.82
947.52	226.81
947.82	226.85
948.11	226.84
948.41	226.84
948.71	226.83
949.01	226.83
949.31	226.81
949.60	226.78
949.90	226.79
950.20	226.80
950.50	226.77
950.79	226.76
951.09	226.78
951.39	226.81
951.69	226.78
951.98	226.81
952.28	226.83
952.58	226.81
952.87	226.81
953.17	226.85
953.47	226.84
953.76	226.87
954.06	226.84
954.36	226.81
954.66	226.83
954.95	226.85
955.25	226.90
955.55	226.91
955.84	226.91
956.14	226.92
956.44	226.93
956.73	226.93
957.03	226.96
957.32	226.91
957.62	226.93
957.92	226.95
958.21	226.94
958.51	227.01
958.81	227.02
959.10	227.03
959.40	227.04
959.69	227.04
959.99	227.07
960.29	227.09
960.58	227.09
960.88	227.12
961.17	227.08
961.47	227.07
961.76	227.05
962.06	227.08
962.36	227.06
962.65	227.05
962.95	227.04
963.24	227.02
963.54	227.08
963.83	227.07
964.13	227.06
964.42	227.02
964.72	226.94
965.01	226.95
965.31	226.96
965.60	226.91
965.90	227.00
966.19	226.96
966.49	226.94
966.78	226.92
967.08	226.89
967.37	226.88
967.67	226.86
967.96	226.87
968.26	226.83
968.55	226.83
968.85	226.83
969.14	226.83
969.43	226.82
969.73	226.78
970.02	226.76
970.32	226.79
970.61	226.80
970.91	226.77
971.20	226.79
971.49	226.77
971.79	226.75
972.08	226.63
972.38	226.66
972.67	226.67
972.96	226.67
973.26	226.68
973.55	226.72
973.85	226.72
974.14	226.72
974.43	226.74
974.73	226.76
975.02	226.78
975.31	226.77
975.61	226.79
975.90	226.75
976.19	226.73
976.49	226.71
976.78	226.76
977.07	226.78
977.37	226.78
977.66	226.80
977.95	226.80
978.24	226.85
978.54	226.85
978.83	226.82
979.12	226.82
979.42	226.80
979.71	226.80
980.00	226.79
980.29	226.80
980.59	226.79
980.88	226.81
981.17	226.79
981.46	226.80
981.76	226.78
982.05	226.85
982.34	226.86
982.63	226.87
982.93	226.83
983.22	226.87
983.51	226.87
983.80	226.90
984.09	226.92
984.39	226.91
984.68	226.93
984.97	226.94
985.26	226.94
985.55	226.94
985.85	226.93
986.14	226.99
986.43	227.02
986.72	227.02
987.01	227.02
987.30	227.02
987.59	227.04
987.89	227.09
988.18	227.08
988.47	227.06
988.76	227.08
989.05	227.13
989.34	227.09
989.63	227.10
989.92	227.08
990.22	227.09
990.51	227.10
990.80	227.13
991.09	227.15
991.38	227.18
991.67	227.21
991.96	227.17
992.25	227.14
992.54	227.13
992.83	227.11
993.12	227.09
993.41	227.12
993.70	227.14
993.99	227.14
994.28	227.16
994.58	227.17
994.87	227.14
995.16	227.09
995.45	227.07
995.74	227.01
996.03	227.03
996.32	227.04
996.61	227.00
996.90	226.98
997.19	226.97
997.48	226.98
997.77	226.93
998.06	226.96
998.34	226.95
998.63	226.93
998.92	226.95
999.21	226.96
999.50	226.93
999.79	226.88
1000.08	226.87
1000.37	226.86
1000.66	226.86
1000.95	226.88
1001.24	226.89
1001.53	226.93
1001.82	226.93
1002.11	226.89
1002.40	226.88
1002.68	226.91
1002.97	226.90
1003.26	226.90
1003.55	226.86
1003.84	226.90
1004.13	226.92
1004.42	226.89
1004.71	226.89
1004.99	226.89
1005.28	226.89
1005.57	226.90
1005.86	226.90
1006.15	226.89
1006.44	226.84
1006.72	226.86
1007.01	226.82
1007.30	226.83
1007.59	226.76
1007.88	226.79
1008.17	226.80
1008.45	226.78
1008.74	226.76
1009.03	226.75
1009.32	226.73
1009.60	226.72
1009.89	226.72
1010.18	226.72
1010.47	226.73
1010.76	226.72
1011.04	226.72
1011.33	226.74
1011.62	226.72
1011.91	226.73
1012.19	226.74
1012.48	226.77
1012.77	226.80
1013.05	226.84
1013.34	226.84
1013.63	226.86
1013.92	226.84
1014.20	226.86
1014.49	226.88
1014.78	226.88
1015.06	226.85
1015.35	226.85
1015.64	226.91
1015.92	226.88
1016.21	226.86
1016.50	226.87
1016.78	226.88
1017.07	226.86
1017.36	226.85
1017.64	226.82
1017.93	226.87
1018.22	226.86
1018.50	226.86
1018.79	226.85
1019.08	226.82
1019.36	226.84
1019.65	226.86
1019.93	226.89
1020.22	226.87
1020.51	226.93
1020.79	226.92
1021.08	226.74
1021.36	226.56
1021.65	227.12
1021.94	226.81
1022.22	227.33
1022.51	227.18
1022.79	227.22
1023.08	226.62
1023.36	228.50
1023.65	226.50
>>>>>End Processed Spectral Data<<<<<
