SpectraSuite Data File
++++++++++++++++++++++++++++++++++++
Date: Fri Feb 01 14:50:21 EST 2013
User: group
Dark Spectrum Present: No
Reference Spectrum Present: No
Number of Sampled Component Spectra: 1
Spectrometers: USB2E7196
Integration Time (usec): 35000 (USB2E7196)
Spectra Averaged: 100 (USB2E7196)
Boxcar Smoothing: 10 (USB2E7196)
Correct for Electrical Dark: No (USB2E7196)
Strobe/Lamp Enabled: No (USB2E7196)
Correct for Detector Non-linearity: No (USB2E7196)
Correct for Stray Light: No (USB2E7196)
Number of Pixels in Processed Spectrum: 2048
>>>>>Begin Processed Spectral Data<<<<<
339.09	0.00
339.48	215.76
339.86	216.99
340.24	218.72
340.63	219.79
341.01	222.85
341.39	222.27
341.78	224.00
342.16	225.61
342.54	226.25
342.93	214.04
343.31	224.86
343.69	225.41
344.07	225.89
344.46	226.31
344.84	226.68
345.22	226.90
345.60	227.16
345.99	227.34
346.37	227.43
346.75	227.52
347.13	227.60
347.52	227.66
347.90	227.73
348.28	227.74
348.66	227.77
349.05	227.77
349.43	227.83
349.81	227.85
350.19	227.85
350.57	227.90
350.96	227.96
351.34	228.05
351.72	228.12
352.10	228.23
352.48	228.32
352.87	228.36
353.25	228.42
353.63	228.49
354.01	228.55
354.39	228.64
354.77	228.67
355.15	228.74
355.54	228.79
355.92	228.84
356.30	228.91
356.68	229.05
357.06	229.13
357.44	229.19
357.82	229.26
358.20	229.36
358.58	229.41
358.97	229.48
359.35	229.52
359.73	229.62
360.11	229.62
360.49	229.67
360.87	229.72
361.25	229.79
361.63	229.88
362.01	229.92
362.39	229.96
362.77	230.01
363.15	230.05
363.53	230.09
363.91	230.10
364.29	230.17
364.67	230.07
365.05	230.08
365.43	230.06
365.81	230.07
366.19	230.15
366.57	230.20
366.95	230.17
367.33	230.12
367.71	230.09
368.09	230.08
368.47	230.04
368.85	230.05
369.23	230.01
369.61	229.93
369.99	229.91
370.37	229.88
370.75	229.87
371.13	229.80
371.51	229.72
371.89	229.68
372.27	229.56
372.65	229.51
373.03	229.48
373.41	229.43
373.78	229.35
374.16	229.21
374.54	229.08
374.92	228.99
375.30	228.94
375.68	228.84
376.06	228.78
376.44	228.68
376.82	228.59
377.19	228.49
377.57	228.44
377.95	228.36
378.33	228.26
378.71	228.12
379.09	228.03
379.47	228.01
379.84	227.93
380.22	227.88
380.60	227.78
380.98	227.63
381.36	227.54
381.73	227.47
382.11	227.40
382.49	227.32
382.87	227.25
383.25	227.19
383.62	227.24
384.00	227.17
384.38	227.15
384.76	227.08
385.13	227.08
385.51	226.95
385.89	226.85
386.27	226.78
386.64	226.76
387.02	226.73
387.40	226.67
387.78	226.63
388.15	226.59
388.53	226.60
388.91	226.61
389.29	226.58
389.66	226.56
390.04	226.53
390.42	226.52
390.79	226.50
391.17	226.52
391.55	226.39
391.92	226.38
392.30	226.39
392.68	226.37
393.05	226.36
393.43	226.43
393.81	226.48
394.18	226.51
394.56	226.56
394.94	226.62
395.31	226.64
395.69	226.71
396.06	226.77
396.44	226.80
396.82	226.85
397.19	226.95
397.57	226.98
397.95	227.05
398.32	227.10
398.70	227.19
399.07	227.27
399.45	227.36
399.82	227.42
400.20	227.49
400.58	227.61
400.95	227.69
401.33	227.83
401.70	227.99
402.08	228.12
402.45	228.26
402.83	228.40
403.20	228.53
403.58	228.63
403.95	228.81
404.33	228.96
404.71	229.11
405.08	229.31
405.46	229.49
405.83	229.68
406.21	229.91
406.58	230.10
406.96	230.27
407.33	230.45
407.70	230.67
408.08	230.96
408.45	231.18
408.83	231.42
409.20	231.64
409.58	231.83
409.95	232.09
410.33	232.34
410.70	232.59
411.08	232.91
411.45	233.23
411.82	233.51
412.20	233.90
412.57	234.35
412.95	234.67
413.32	235.11
413.69	235.54
414.07	235.94
414.44	236.39
414.82	236.91
415.19	237.47
415.56	238.03
415.94	238.55
416.31	239.19
416.68	239.83
417.06	240.54
417.43	241.22
417.81	241.98
418.18	242.75
418.55	243.56
418.93	244.43
419.30	245.29
419.67	246.20
420.04	247.10
420.42	248.00
420.79	249.17
421.16	250.26
421.54	251.47
421.91	252.67
422.28	253.93
422.66	255.21
423.03	256.49
423.40	257.84
423.77	259.23
424.15	260.67
424.52	262.13
424.89	263.69
425.26	265.25
425.64	266.69
426.01	268.25
426.38	269.89
426.75	271.51
427.13	273.25
427.50	275.04
427.87	276.89
428.24	278.79
428.61	280.46
428.99	282.39
429.36	284.47
429.73	286.55
430.10	288.55
430.47	290.57
430.85	292.68
431.22	294.85
431.59	297.26
431.96	299.48
432.33	301.95
432.70	304.34
433.08	307.11
433.45	309.76
433.82	312.37
434.19	315.22
434.56	318.03
434.93	320.68
435.30	323.34
435.68	326.28
436.05	329.09
436.42	331.92
436.79	334.46
437.16	337.13
437.53	339.91
437.90	342.72
438.27	345.47
438.64	348.27
439.01	350.91
439.38	353.09
439.75	355.26
440.13	357.77
440.50	360.09
440.87	361.98
441.24	363.85
441.61	366.02
441.98	367.55
442.35	369.36
442.72	371.24
443.09	372.99
443.46	373.95
443.83	374.53
444.20	375.05
444.57	375.88
444.94	376.16
445.31	376.51
445.68	376.90
446.05	377.02
446.42	376.68
446.79	376.22
447.16	375.80
447.53	375.47
447.90	374.34
448.27	373.20
448.64	371.60
449.01	370.57
449.37	368.62
449.74	366.74
450.11	364.51
450.48	362.06
450.85	359.58
451.22	357.47
451.59	355.51
451.96	353.53
452.33	350.91
452.70	348.59
453.07	345.77
453.43	342.86
453.80	340.07
454.17	337.41
454.54	334.91
454.91	332.21
455.28	329.56
455.65	327.07
456.02	324.63
456.38	322.50
456.75	319.86
457.12	317.60
457.49	315.41
457.86	313.25
458.23	311.33
458.59	309.28
458.96	307.19
459.33	305.31
459.70	303.49
460.07	302.04
460.43	300.27
460.80	298.67
461.17	297.25
461.54	295.78
461.91	294.36
462.27	292.91
462.64	291.67
463.01	290.34
463.38	289.01
463.74	287.61
464.11	286.42
464.48	285.34
464.85	284.22
465.21	283.30
465.58	282.37
465.95	281.29
466.32	280.39
466.68	279.49
467.05	278.63
467.42	277.72
467.78	276.76
468.15	275.89
468.52	275.21
468.88	274.29
469.25	273.48
469.62	272.81
469.98	272.16
470.35	271.51
470.72	270.90
471.08	270.22
471.45	269.68
471.82	269.12
472.18	268.49
472.55	268.01
472.92	267.51
473.28	267.04
473.65	266.57
474.02	266.10
474.38	265.68
474.75	265.30
475.11	264.89
475.48	264.61
475.85	264.35
476.21	264.09
476.58	263.88
476.94	263.70
477.31	263.53
477.67	263.31
478.04	263.17
478.41	263.05
478.77	263.06
479.14	262.96
479.50	262.94
479.87	263.02
480.23	263.08
480.60	263.11
480.96	263.19
481.33	263.38
481.69	263.55
482.06	263.71
482.42	263.90
482.79	264.17
483.15	264.48
483.52	264.83
483.88	265.18
484.25	265.56
484.61	265.98
484.98	266.41
485.34	266.96
485.71	267.49
486.07	268.13
486.44	268.70
486.80	269.41
487.17	270.13
487.53	270.92
487.90	271.78
488.26	272.71
488.62	273.69
488.99	274.61
489.35	275.64
489.72	276.76
490.08	277.95
490.44	279.18
490.81	280.49
491.17	281.84
491.54	283.28
491.90	284.80
492.26	286.47
492.63	288.17
492.99	289.96
493.36	291.90
493.72	293.91
494.08	296.01
494.45	298.24
494.81	300.61
495.17	303.01
495.54	305.55
495.90	308.21
496.26	310.99
496.63	313.96
496.99	317.07
497.35	320.33
497.72	323.70
498.08	327.20
498.44	330.86
498.80	334.74
499.17	338.79
499.53	342.93
499.89	347.28
500.26	351.75
500.62	356.39
500.98	361.31
501.34	366.32
501.71	371.61
502.07	377.00
502.43	382.59
502.79	388.41
503.16	394.46
503.52	400.68
503.88	407.04
504.24	413.62
504.60	420.41
504.97	427.48
505.33	434.72
505.69	442.37
506.05	450.04
506.41	457.88
506.78	465.95
507.14	474.35
507.50	483.01
507.86	492.02
508.22	501.10
508.59	510.26
508.95	519.82
509.31	529.58
509.67	539.59
510.03	549.83
510.39	560.27
510.75	571.07
511.12	581.98
511.48	593.18
511.84	604.64
512.20	616.15
512.56	628.08
512.92	640.24
513.28	652.52
513.64	665.00
514.00	677.64
514.37	690.53
514.73	703.55
515.09	716.54
515.45	729.82
515.81	743.32
516.17	757.25
516.53	771.36
516.89	785.46
517.25	799.61
517.61	814.00
517.97	828.52
518.33	842.82
518.69	857.49
519.05	872.47
519.41	887.62
519.77	903.14
520.13	918.61
520.49	934.00
520.85	949.47
521.21	965.21
521.57	981.49
521.93	997.35
522.29	1013.83
522.65	1030.01
523.01	1046.17
523.37	1062.37
523.73	1078.66
524.09	1094.74
524.45	1111.06
524.81	1127.84
525.17	1144.70
525.53	1161.53
525.89	1178.49
526.25	1195.48
526.61	1211.97
526.97	1228.77
527.33	1245.32
527.68	1261.98
528.04	1278.60
528.40	1295.26
528.76	1312.36
529.12	1328.98
529.48	1345.82
529.84	1361.91
530.20	1378.75
530.56	1395.91
530.91	1413.32
531.27	1430.05
531.63	1446.56
531.99	1463.28
532.35	1479.36
532.71	1495.25
533.07	1511.63
533.42	1527.71
533.78	1543.76
534.14	1560.05
534.50	1575.26
534.86	1591.12
535.21	1606.30
535.57	1622.28
535.93	1637.80
536.29	1652.68
536.65	1667.86
537.00	1682.74
537.36	1698.00
537.72	1712.63
538.08	1727.14
538.44	1740.90
538.79	1754.91
539.15	1768.71
539.51	1782.54
539.87	1796.89
540.22	1810.71
540.58	1824.57
540.94	1837.79
541.29	1850.76
541.65	1863.41
542.01	1876.84
542.37	1889.19
542.72	1901.69
543.08	1913.48
543.44	1925.81
543.79	1937.03
544.15	1948.02
544.51	1959.55
544.87	1970.67
545.22	1981.37
545.58	1991.56
545.94	2001.52
546.29	2011.41
546.65	2021.14
547.01	2030.34
547.36	2039.07
547.72	2047.51
548.07	2055.41
548.43	2063.60
548.79	2071.59
549.14	2079.28
549.50	2086.64
549.86	2094.42
550.21	2101.67
550.57	2108.86
550.92	2115.54
551.28	2122.66
551.64	2129.64
551.99	2136.19
552.35	2142.12
552.70	2148.17
553.06	2153.97
553.41	2160.09
553.77	2165.99
554.13	2172.06
554.48	2178.13
554.84	2183.40
555.19	2188.71
555.55	2193.65
555.90	2197.99
556.26	2202.81
556.61	2207.37
556.97	2211.51
557.32	2215.48
557.68	2219.54
558.03	2223.62
558.39	2227.26
558.74	2231.71
559.10	2235.39
559.45	2238.65
559.81	2242.89
560.16	2246.64
560.52	2249.63
560.87	2253.07
561.23	2255.54
561.58	2258.23
561.94	2260.52
562.29	2262.72
562.64	2265.07
563.00	2267.56
563.35	2271.01
563.71	2273.93
564.06	2276.94
564.42	2279.58
564.77	2281.96
565.12	2283.97
565.48	2285.59
565.83	2287.18
566.19	2288.20
566.54	2289.09
566.89	2290.35
567.25	2290.76
567.60	2291.77
567.96	2293.39
568.31	2293.89
568.66	2294.63
569.02	2295.16
569.37	2295.25
569.72	2295.96
570.08	2295.94
570.43	2295.56
570.78	2294.51
571.14	2292.76
571.49	2291.24
571.84	2290.66
572.20	2288.98
572.55	2287.66
572.90	2285.96
573.26	2284.21
573.61	2282.34
573.96	2280.22
574.31	2276.87
574.67	2273.52
575.02	2269.69
575.37	2266.08
575.72	2262.10
576.08	2258.69
576.43	2255.14
576.78	2251.18
577.13	2247.70
577.49	2244.38
577.84	2240.87
578.19	2237.14
578.54	2233.31
578.90	2228.67
579.25	2222.86
579.60	2217.94
579.95	2212.78
580.30	2207.40
580.66	2202.11
581.01	2196.92
581.36	2191.88
581.71	2187.51
582.06	2182.92
582.42	2178.30
582.77	2172.89
583.12	2168.16
583.47	2163.19
583.82	2157.92
584.17	2152.66
584.53	2147.00
584.88	2141.16
585.23	2135.14
585.58	2129.43
585.93	2123.71
586.28	2118.92
586.63	2113.70
586.98	2108.42
587.34	2103.66
587.69	2098.67
588.04	2093.38
588.39	2087.59
588.74	2081.06
589.09	2074.81
589.44	2067.90
589.79	2061.56
590.14	2055.75
590.49	2048.87
590.84	2042.25
591.19	2035.87
591.54	2029.25
591.89	2021.77
592.25	2014.84
592.60	2007.59
592.95	1999.98
593.30	1992.59
593.65	1984.86
594.00	1977.82
594.35	1970.44
594.70	1962.21
595.05	1954.96
595.40	1947.53
595.75	1939.92
596.10	1933.51
596.45	1926.73
596.80	1920.38
597.15	1913.87
597.50	1906.74
597.85	1900.37
598.19	1893.84
598.54	1887.01
598.89	1880.33
599.24	1874.30
599.59	1867.68
599.94	1861.33
600.29	1854.88
600.64	1848.15
600.99	1840.73
601.34	1833.73
601.69	1826.75
602.04	1819.85
602.39	1812.53
602.74	1805.74
603.08	1799.00
603.43	1792.28
603.78	1784.98
604.13	1777.83
604.48	1770.49
604.83	1763.71
605.18	1756.80
605.53	1748.86
605.87	1740.79
606.22	1733.64
606.57	1725.85
606.92	1718.48
607.27	1711.34
607.62	1704.38
607.96	1697.23
608.31	1690.69
608.66	1683.12
609.01	1675.64
609.36	1668.25
609.70	1660.36
610.05	1652.40
610.40	1644.95
610.75	1636.76
611.10	1629.16
611.44	1620.98
611.79	1613.14
612.14	1604.45
612.49	1595.40
612.83	1587.09
613.18	1579.08
613.53	1570.98
613.88	1562.54
614.22	1554.45
614.57	1545.97
614.92	1538.23
615.27	1530.85
615.61	1522.65
615.96	1514.77
616.31	1507.17
616.65	1499.87
617.00	1492.41
617.35	1484.71
617.70	1476.41
618.04	1467.86
618.39	1459.69
618.74	1452.18
619.08	1444.01
619.43	1436.66
619.78	1429.84
620.12	1422.83
620.47	1415.48
620.82	1407.48
621.16	1400.12
621.51	1392.63
621.85	1385.26
622.20	1376.86
622.55	1368.51
622.89	1360.79
623.24	1353.42
623.59	1346.28
623.93	1338.83
624.28	1331.65
624.62	1324.23
624.97	1317.06
625.32	1310.37
625.66	1303.57
626.01	1296.43
626.35	1289.14
626.70	1281.36
627.04	1273.67
627.39	1265.92
627.73	1258.61
628.08	1251.82
628.43	1244.71
628.77	1237.38
629.12	1229.81
629.46	1222.63
629.81	1215.41
630.15	1208.24
630.50	1200.83
630.84	1192.66
631.19	1184.95
631.53	1177.56
631.88	1170.13
632.22	1162.66
632.57	1155.57
632.91	1148.01
633.26	1140.68
633.60	1133.34
633.95	1126.44
634.29	1119.54
634.64	1112.95
634.98	1105.66
635.32	1098.58
635.67	1092.08
636.01	1085.53
636.36	1078.77
636.70	1072.31
637.05	1065.82
637.39	1059.50
637.73	1053.24
638.08	1047.56
638.42	1041.65
638.77	1035.27
639.11	1028.76
639.45	1022.55
639.80	1015.96
640.14	1009.65
640.49	1003.21
640.83	997.00
641.17	990.83
641.52	984.65
641.86	978.29
642.20	972.60
642.55	966.34
642.89	959.93
643.23	953.46
643.58	947.83
643.92	941.78
644.26	935.80
644.61	929.81
644.95	923.72
645.29	917.21
645.64	910.51
645.98	904.30
646.32	898.52
646.66	892.52
647.01	886.88
647.35	881.26
647.69	875.54
648.04	870.00
648.38	864.41
648.72	858.48
649.06	852.52
649.41	846.64
649.75	840.72
650.09	834.86
650.43	829.18
650.78	823.10
651.12	817.23
651.46	811.54
651.80	805.86
652.14	800.59
652.49	795.25
652.83	790.08
653.17	784.47
653.51	778.90
653.85	773.48
654.20	767.86
654.54	762.00
654.88	756.32
655.22	750.55
655.56	744.80
655.90	739.32
656.25	734.13
656.59	728.84
656.93	723.91
657.27	718.82
657.61	713.44
657.95	708.43
658.29	703.36
658.64	698.18
658.98	692.90
659.32	687.52
659.66	682.40
660.00	677.20
660.34	672.30
660.68	667.47
661.02	662.52
661.36	657.89
661.70	653.46
662.05	649.15
662.39	644.92
662.73	640.57
663.07	636.32
663.41	631.95
663.75	627.51
664.09	622.98
664.43	618.66
664.77	614.60
665.11	610.36
665.45	606.35
665.79	602.33
666.13	598.30
666.47	594.24
666.81	590.15
667.15	586.08
667.49	582.23
667.83	578.46
668.17	574.60
668.51	570.57
668.85	566.57
669.19	562.74
669.53	559.00
669.87	555.19
670.21	551.52
670.55	547.93
670.89	544.52
671.23	541.14
671.57	537.68
671.91	534.25
672.25	530.86
672.58	527.41
672.92	524.08
673.26	521.00
673.60	517.91
673.94	514.85
674.28	511.97
674.62	509.11
674.96	506.04
675.30	503.24
675.64	500.37
675.97	497.65
676.31	494.87
676.65	491.96
676.99	489.26
677.33	486.45
677.67	483.64
678.01	480.70
678.34	477.72
678.68	474.84
679.02	472.04
679.36	469.31
679.70	466.54
680.04	463.83
680.37	461.00
680.71	458.26
681.05	455.66
681.39	453.00
681.73	450.38
682.06	447.89
682.40	445.31
682.74	442.82
683.08	440.31
683.42	437.72
683.75	435.24
684.09	432.70
684.43	430.26
684.77	427.85
685.10	425.53
685.44	423.35
685.78	421.12
686.12	418.90
686.45	416.68
686.79	414.42
687.13	412.23
687.46	410.09
687.80	407.90
688.14	405.72
688.48	403.72
688.81	401.48
689.15	399.36
689.49	397.26
689.82	395.21
690.16	393.17
690.50	391.29
690.83	389.45
691.17	387.54
691.51	385.66
691.84	383.85
692.18	381.96
692.52	379.98
692.85	378.07
693.19	376.24
693.52	374.39
693.86	372.68
694.20	370.92
694.53	369.18
694.87	367.39
695.21	365.66
695.54	363.86
695.88	362.16
696.21	360.46
696.55	358.82
696.88	357.12
697.22	355.45
697.56	353.78
697.89	352.08
698.23	350.47
698.56	348.88
698.90	347.28
699.23	345.69
699.57	344.18
699.90	342.72
700.24	341.14
700.58	339.64
700.91	338.13
701.25	336.75
701.58	335.35
701.92	334.02
702.25	332.65
702.59	331.31
702.92	330.03
703.26	328.73
703.59	327.42
703.93	326.25
704.26	325.05
704.60	323.81
704.93	322.57
705.26	321.39
705.60	320.23
705.93	319.12
706.27	318.10
706.60	317.04
706.94	315.95
707.27	314.88
707.61	313.83
707.94	312.80
708.27	311.71
708.61	310.65
708.94	309.66
709.28	308.71
709.61	307.76
709.94	306.86
710.28	305.85
710.61	304.94
710.95	303.91
711.28	303.04
711.61	302.10
711.95	301.21
712.28	300.21
712.61	299.21
712.95	298.27
713.28	297.38
713.61	296.49
713.95	295.62
714.28	294.79
714.61	293.97
714.95	293.13
715.28	292.28
715.61	291.44
715.95	290.59
716.28	289.72
716.61	288.86
716.95	288.01
717.28	287.30
717.61	286.52
717.94	285.82
718.28	284.99
718.61	284.28
718.94	283.59
719.27	282.98
719.61	282.38
719.94	281.73
720.27	281.05
720.60	280.38
720.94	279.72
721.27	279.12
721.60	278.52
721.93	277.95
722.27	277.41
722.60	276.85
722.93	276.29
723.26	275.72
723.59	275.20
723.93	274.65
724.26	274.09
724.59	273.53
724.92	272.98
725.25	272.53
725.59	272.02
725.92	271.50
726.25	270.99
726.58	270.50
726.91	269.97
727.24	269.46
727.57	269.03
727.91	268.53
728.24	268.06
728.57	267.59
728.90	267.13
729.23	266.62
729.56	266.16
729.89	265.66
730.22	265.22
730.55	264.73
730.89	264.29
731.22	263.85
731.55	263.43
731.88	263.00
732.21	262.56
732.54	262.11
732.87	261.70
733.20	261.34
733.53	260.97
733.86	260.61
734.19	260.23
734.52	259.84
734.85	259.51
735.18	259.07
735.51	258.65
735.84	258.26
736.17	257.94
736.50	257.57
736.83	257.36
737.16	257.03
737.49	256.73
737.82	256.38
738.15	256.04
738.48	255.68
738.81	255.36
739.14	255.03
739.47	254.70
739.80	254.42
740.13	254.09
740.46	253.72
740.79	253.40
741.12	253.10
741.45	252.79
741.78	252.48
742.11	252.24
742.44	251.99
742.77	251.71
743.10	251.39
743.43	251.08
743.75	250.70
744.08	250.55
744.41	250.27
744.74	249.99
745.07	249.70
745.40	249.44
745.73	249.24
746.06	248.97
746.39	248.74
746.71	248.45
747.04	248.20
747.37	247.94
747.70	247.72
748.03	247.48
748.36	247.27
748.68	247.04
749.01	246.76
749.34	246.53
749.67	246.30
750.00	246.07
750.33	245.93
750.65	245.74
750.98	245.41
751.31	245.19
751.64	245.01
751.97	244.87
752.29	244.69
752.62	244.41
752.95	244.22
753.28	244.01
753.60	243.81
753.93	243.63
754.26	243.46
754.59	243.25
754.91	243.04
755.24	242.85
755.57	242.63
755.90	242.46
756.22	242.27
756.55	242.10
756.88	241.94
757.20	241.72
757.53	241.50
757.86	241.33
758.19	241.19
758.51	241.04
758.84	240.84
759.17	240.66
759.49	240.52
759.82	240.39
760.15	240.24
760.47	240.09
760.80	239.91
761.13	239.76
761.45	239.59
761.78	239.45
762.11	239.28
762.43	239.15
762.76	238.99
763.08	238.87
763.41	238.75
763.74	238.60
764.06	238.43
764.39	238.31
764.71	238.16
765.04	238.01
765.37	237.83
765.69	237.68
766.02	237.54
766.34	237.40
766.67	237.26
767.00	237.14
767.32	237.08
767.65	237.01
767.97	236.87
768.30	236.75
768.62	236.60
768.95	236.50
769.27	236.39
769.60	236.32
769.92	236.19
770.25	236.07
770.57	235.96
770.90	235.85
771.22	235.77
771.55	235.64
771.87	235.53
772.20	235.43
772.52	235.43
772.85	235.42
773.17	235.34
773.50	235.24
773.82	235.13
774.15	234.98
774.47	234.83
774.80	234.77
775.12	234.69
775.45	234.59
775.77	234.49
776.09	234.40
776.42	234.34
776.74	234.30
777.07	234.19
777.39	234.11
777.72	234.03
778.04	233.96
778.36	233.88
778.69	233.82
779.01	233.76
779.33	233.61
779.66	233.42
779.98	233.33
780.31	233.24
780.63	233.20
780.95	233.17
781.28	233.09
781.60	233.03
781.92	232.98
782.25	232.93
782.57	232.89
782.89	232.82
783.22	232.73
783.54	232.64
783.86	232.61
784.19	232.57
784.51	232.54
784.83	232.47
785.16	232.45
785.48	232.40
785.80	232.36
786.12	232.33
786.45	232.34
786.77	232.30
787.09	232.27
787.42	232.23
787.74	232.16
788.06	232.14
788.38	232.07
788.71	232.03
789.03	232.00
789.35	231.96
789.67	231.92
789.99	231.91
790.32	231.88
790.64	231.85
790.96	231.89
791.28	231.86
791.61	231.84
791.93	231.83
792.25	231.77
792.57	231.81
792.89	231.77
793.21	231.77
793.54	231.74
793.86	231.70
794.18	231.66
794.50	231.68
794.82	231.67
795.14	231.67
795.47	231.68
795.79	231.69
796.11	231.67
796.43	231.64
796.75	231.59
797.07	231.58
797.39	231.53
797.71	231.44
798.04	231.43
798.36	231.39
798.68	231.33
799.00	231.36
799.32	231.29
799.64	231.28
799.96	231.23
800.28	231.22
800.60	231.19
800.92	231.20
801.24	231.17
801.56	231.14
801.89	231.12
802.21	231.07
802.53	230.99
802.85	230.98
803.17	230.96
803.49	230.92
803.81	230.87
804.13	230.85
804.45	230.80
804.77	230.75
805.09	230.77
805.41	230.72
805.73	230.67
806.05	230.60
806.37	230.51
806.69	230.46
807.01	230.42
807.33	230.37
807.65	230.27
807.97	230.23
808.28	230.16
808.60	230.09
808.92	230.07
809.24	230.09
809.56	230.05
809.88	230.02
810.20	229.98
810.52	229.93
810.84	229.90
811.16	229.84
811.48	229.80
811.80	229.77
812.12	229.73
812.43	229.69
812.75	229.67
813.07	229.66
813.39	229.63
813.71	229.59
814.03	229.58
814.35	229.57
814.67	229.49
814.98	229.47
815.30	229.45
815.62	229.41
815.94	229.33
816.26	229.31
816.58	229.28
816.89	229.28
817.21	229.25
817.53	229.20
817.85	229.21
818.17	229.18
818.48	229.12
818.80	229.11
819.12	229.06
819.44	229.03
819.76	228.97
820.07	228.92
820.39	228.90
820.71	228.91
821.03	228.88
821.34	228.89
821.66	228.90
821.98	228.90
822.30	228.85
822.61	228.88
822.93	228.83
823.25	228.81
823.57	228.77
823.88	228.80
824.20	228.78
824.52	228.79
824.83	228.77
825.15	228.76
825.47	228.79
825.79	228.82
826.10	228.82
826.42	228.82
826.74	228.88
827.05	228.85
827.37	228.81
827.69	228.83
828.00	228.83
828.32	228.81
828.64	228.81
828.95	228.90
829.27	228.87
829.58	228.88
829.90	228.87
830.22	228.88
830.53	228.87
830.85	228.86
831.17	228.79
831.48	228.83
831.80	228.83
832.11	228.79
832.43	228.76
832.75	228.75
833.06	228.85
833.38	228.82
833.69	228.85
834.01	228.88
834.32	228.88
834.64	228.87
834.96	228.88
835.27	228.87
835.59	228.82
835.90	228.81
836.22	228.83
836.53	228.82
836.85	228.84
837.16	228.92
837.48	228.94
837.79	229.04
838.11	229.04
838.42	229.05
838.74	229.11
839.05	229.12
839.37	229.16
839.68	229.10
840.00	229.10
840.31	229.11
840.63	229.09
840.94	229.06
841.26	229.05
841.57	229.04
841.88	229.05
842.20	229.02
842.51	229.03
842.83	229.02
843.14	229.11
843.46	229.12
843.77	229.06
844.08	229.07
844.40	229.02
844.71	228.99
845.03	228.99
845.34	228.95
845.65	228.93
845.97	228.90
846.28	228.87
846.60	228.86
846.91	228.81
847.22	228.78
847.54	228.78
847.85	228.77
848.16	228.74
848.48	228.69
848.79	228.71
849.10	228.69
849.42	228.65
849.73	228.52
850.04	228.48
850.36	228.42
850.67	228.44
850.98	228.41
851.30	228.38
851.61	228.34
851.92	228.33
852.23	228.32
852.55	228.29
852.86	228.29
853.17	228.26
853.49	228.28
853.80	228.29
854.11	228.29
854.42	228.30
854.74	228.30
855.05	228.31
855.36	228.23
855.67	228.24
855.99	228.21
856.30	228.30
856.61	228.28
856.92	228.29
857.23	228.26
857.55	228.25
857.86	228.25
858.17	228.27
858.48	228.22
858.79	228.18
859.11	228.16
859.42	228.17
859.73	228.17
860.04	228.15
860.35	228.11
860.66	228.08
860.98	228.06
861.29	228.03
861.60	228.03
861.91	228.05
862.22	228.01
862.53	228.02
862.84	227.91
863.16	227.91
863.47	227.90
863.78	227.89
864.09	227.91
864.40	227.91
864.71	227.87
865.02	227.88
865.33	227.90
865.64	227.89
865.95	227.87
866.27	227.94
866.58	227.93
866.89	227.98
867.20	227.95
867.51	227.93
867.82	227.93
868.13	227.95
868.44	227.94
868.75	228.00
869.06	228.01
869.37	228.05
869.68	228.04
869.99	228.03
870.30	228.03
870.61	228.03
870.92	228.03
871.23	228.07
871.54	228.10
871.85	228.14
872.16	228.18
872.47	228.18
872.78	228.12
873.09	228.15
873.40	228.11
873.71	228.17
874.02	228.20
874.33	228.19
874.64	228.20
874.95	228.24
875.26	228.20
875.56	228.23
875.87	228.22
876.18	228.22
876.49	228.35
876.80	228.38
877.11	228.33
877.42	228.32
877.73	228.32
878.04	228.30
878.35	228.30
878.66	228.24
878.96	228.22
879.27	228.24
879.58	228.24
879.89	228.26
880.20	228.28
880.51	228.29
880.82	228.31
881.12	228.27
881.43	228.24
881.74	228.23
882.05	228.24
882.36	228.24
882.67	228.28
882.97	228.14
883.28	228.11
883.59	228.14
883.90	228.18
884.21	228.17
884.51	228.18
884.82	228.15
885.13	228.18
885.44	228.19
885.74	228.19
886.05	228.16
886.36	228.15
886.67	228.09
886.98	228.08
887.28	228.06
887.59	228.09
887.90	228.06
888.20	228.04
888.51	228.03
888.82	228.01
889.13	227.99
889.43	228.05
889.74	228.02
890.05	228.01
890.35	227.95
890.66	227.93
890.97	227.89
891.28	227.88
891.58	227.87
891.89	227.89
892.20	227.84
892.50	227.84
892.81	227.84
893.12	227.83
893.42	227.81
893.73	227.83
894.04	227.81
894.34	227.82
894.65	227.80
894.95	227.78
895.26	227.80
895.57	227.81
895.87	227.70
896.18	227.74
896.48	227.76
896.79	227.78
897.10	227.76
897.40	227.74
897.71	227.75
898.01	227.72
898.32	227.68
898.63	227.67
898.93	227.68
899.24	227.66
899.54	227.67
899.85	227.64
900.15	227.65
900.46	227.65
900.76	227.69
901.07	227.66
901.38	227.65
901.68	227.65
901.99	227.61
902.29	227.62
902.60	227.61
902.90	227.56
903.21	227.55
903.51	227.59
903.82	227.61
904.12	227.63
904.43	227.67
904.73	227.69
905.03	227.73
905.34	227.82
905.64	227.81
905.95	227.85
906.25	227.88
906.56	227.84
906.86	227.83
907.17	227.80
907.47	227.84
907.77	227.82
908.08	227.78
908.38	227.80
908.69	227.81
908.99	227.81
909.30	227.85
909.60	227.86
909.90	227.85
910.21	227.82
910.51	227.79
910.81	227.77
911.12	227.76
911.42	227.75
911.73	227.64
912.03	227.67
912.33	227.67
912.64	227.66
912.94	227.69
913.24	227.72
913.55	227.73
913.85	227.73
914.15	227.79
914.46	227.83
914.76	227.81
915.06	227.82
915.37	227.84
915.67	227.80
915.97	227.80
916.27	227.82
916.58	227.88
916.88	227.88
917.18	227.90
917.49	227.98
917.79	227.97
918.09	228.00
918.39	228.01
918.70	228.02
919.00	228.02
919.30	228.05
919.60	228.04
919.91	228.01
920.21	228.03
920.51	228.01
920.81	228.02
921.12	228.04
921.42	228.05
921.72	228.03
922.02	228.04
922.32	228.08
922.63	228.10
922.93	228.10
923.23	228.13
923.53	228.11
923.83	228.02
924.13	228.03
924.44	228.00
924.74	228.01
925.04	228.02
925.34	228.01
925.64	227.97
925.94	228.00
926.24	228.06
926.55	228.03
926.85	228.04
927.15	228.04
927.45	228.04
927.75	228.04
928.05	228.04
928.35	228.04
928.65	228.03
928.95	228.00
929.26	227.97
929.56	227.95
929.86	227.96
930.16	227.97
930.46	227.98
930.76	228.00
931.06	227.97
931.36	227.93
931.66	227.93
931.96	227.92
932.26	227.89
932.56	227.84
932.86	227.84
933.16	227.82
933.46	227.81
933.76	227.78
934.06	227.78
934.36	227.81
934.66	227.79
934.96	227.75
935.26	227.73
935.56	227.74
935.86	227.69
936.16	227.65
936.46	227.62
936.76	227.60
937.06	227.57
937.36	227.59
937.66	227.54
937.96	227.54
938.26	227.53
938.56	227.52
938.86	227.56
939.16	227.57
939.46	227.57
939.76	227.57
940.06	227.59
940.35	227.59
940.65	227.52
940.95	227.55
941.25	227.52
941.55	227.54
941.85	227.54
942.15	227.59
942.45	227.61
942.75	227.62
943.04	227.63
943.34	227.67
943.64	227.65
943.94	227.67
944.24	227.66
944.54	227.67
944.84	227.68
945.13	227.62
945.43	227.61
945.73	227.61
946.03	227.59
946.33	227.59
946.62	227.58
946.92	227.60
947.22	227.61
947.52	227.63
947.82	227.64
948.11	227.61
948.41	227.62
948.71	227.64
949.01	227.65
949.31	227.64
949.60	227.62
949.90	227.64
950.20	227.70
950.50	227.70
950.79	227.70
951.09	227.72
951.39	227.74
951.69	227.78
951.98	227.81
952.28	227.82
952.58	227.79
952.87	227.80
953.17	227.79
953.47	227.80
953.76	227.83
954.06	227.81
954.36	227.82
954.66	227.81
954.95	227.85
955.25	227.89
955.55	227.89
955.84	227.86
956.14	227.88
956.44	227.87
956.73	227.87
957.03	227.90
957.32	227.94
957.62	227.98
957.92	227.98
958.21	227.94
958.51	228.02
958.81	228.08
959.10	228.09
959.40	228.13
959.69	228.11
959.99	228.13
960.29	228.14
960.58	228.12
960.88	228.15
961.17	228.10
961.47	228.08
961.76	228.11
962.06	228.13
962.36	228.14
962.65	228.12
962.95	228.12
963.24	228.11
963.54	228.08
963.83	228.04
964.13	228.01
964.42	228.03
964.72	227.97
965.01	227.95
965.31	227.93
965.60	227.89
965.90	227.95
966.19	227.90
966.49	227.87
966.78	227.88
967.08	227.86
967.37	227.87
967.67	227.85
967.96	227.81
968.26	227.80
968.55	227.77
968.85	227.75
969.14	227.75
969.43	227.72
969.73	227.69
970.02	227.70
970.32	227.71
970.61	227.68
970.91	227.63
971.20	227.61
971.49	227.59
971.79	227.59
972.08	227.49
972.38	227.51
972.67	227.52
972.96	227.50
973.26	227.51
973.55	227.53
973.85	227.52
974.14	227.50
974.43	227.50
974.73	227.47
975.02	227.45
975.31	227.45
975.61	227.44
975.90	227.40
976.19	227.38
976.49	227.37
976.78	227.36
977.07	227.37
977.37	227.36
977.66	227.38
977.95	227.37
978.24	227.41
978.54	227.39
978.83	227.41
979.12	227.43
979.42	227.38
979.71	227.35
980.00	227.36
980.29	227.37
980.59	227.35
980.88	227.41
981.17	227.43
981.46	227.42
981.76	227.43
982.05	227.49
982.34	227.50
982.63	227.52
982.93	227.56
983.22	227.61
983.51	227.60
983.80	227.64
984.09	227.68
984.39	227.71
984.68	227.73
984.97	227.73
985.26	227.70
985.55	227.75
985.85	227.74
986.14	227.81
986.43	227.84
986.72	227.85
987.01	227.81
987.30	227.80
987.59	227.81
987.89	227.84
988.18	227.84
988.47	227.83
988.76	227.84
989.05	227.83
989.34	227.82
989.63	227.88
989.92	227.81
990.22	227.81
990.51	227.80
990.80	227.80
991.09	227.80
991.38	227.83
991.67	227.81
991.96	227.83
992.25	227.78
992.54	227.77
992.83	227.78
993.12	227.78
993.41	227.79
993.70	227.81
993.99	227.83
994.28	227.85
994.58	227.86
994.87	227.82
995.16	227.82
995.45	227.81
995.74	227.77
996.03	227.80
996.32	227.79
996.61	227.76
996.90	227.74
997.19	227.74
997.48	227.73
997.77	227.74
998.06	227.73
998.34	227.72
998.63	227.72
998.92	227.72
999.21	227.73
999.50	227.73
999.79	227.70
1000.08	227.69
1000.37	227.67
1000.66	227.67
1000.95	227.71
1001.24	227.69
1001.53	227.66
1001.82	227.66
1002.11	227.64
1002.40	227.62
1002.68	227.64
1002.97	227.69
1003.26	227.67
1003.55	227.65
1003.84	227.65
1004.13	227.68
1004.42	227.66
1004.71	227.64
1004.99	227.62
1005.28	227.64
1005.57	227.61
1005.86	227.61
1006.15	227.55
1006.44	227.52
1006.72	227.51
1007.01	227.45
1007.30	227.49
1007.59	227.51
1007.88	227.50
1008.17	227.48
1008.45	227.47
1008.74	227.45
1009.03	227.40
1009.32	227.39
1009.60	227.39
1009.89	227.36
1010.18	227.29
1010.47	227.32
1010.76	227.29
1011.04	227.31
1011.33	227.29
1011.62	227.30
1011.91	227.29
1012.19	227.32
1012.48	227.31
1012.77	227.29
1013.05	227.36
1013.34	227.32
1013.63	227.31
1013.92	227.31
1014.20	227.32
1014.49	227.31
1014.78	227.32
1015.06	227.33
1015.35	227.34
1015.64	227.33
1015.92	227.37
1016.21	227.41
1016.50	227.41
1016.78	227.44
1017.07	227.41
1017.36	227.39
1017.64	227.40
1017.93	227.41
1018.22	227.40
1018.50	227.40
1018.79	227.42
1019.08	227.38
1019.36	227.40
1019.65	227.41
1019.93	227.44
1020.22	227.46
1020.51	227.52
1020.79	227.51
1021.08	227.25
1021.36	227.02
1021.65	227.63
1021.94	227.81
1022.22	227.41
1022.51	227.90
1022.79	227.63
1023.08	227.65
1023.36	228.48
1023.65	227.27
>>>>>End Processed Spectral Data<<<<<
