SpectraSuite Data File
++++++++++++++++++++++++++++++++++++
Date: Fri Feb 01 16:09:14 EST 2013
User: group
Dark Spectrum Present: No
Reference Spectrum Present: No
Number of Sampled Component Spectra: 1
Spectrometers: USB2E7196
Integration Time (usec): 35000 (USB2E7196)
Spectra Averaged: 100 (USB2E7196)
Boxcar Smoothing: 10 (USB2E7196)
Correct for Electrical Dark: No (USB2E7196)
Strobe/Lamp Enabled: No (USB2E7196)
Correct for Detector Non-linearity: No (USB2E7196)
Correct for Stray Light: No (USB2E7196)
Number of Pixels in Processed Spectrum: 2048
>>>>>Begin Processed Spectral Data<<<<<
339.09	0.00
339.48	214.06
339.86	216.49
340.24	217.00
340.63	218.91
341.01	221.16
341.39	221.06
341.78	222.68
342.16	223.85
342.54	224.67
342.93	212.67
343.31	223.43
343.69	223.97
344.07	224.42
344.46	224.82
344.84	225.18
345.22	225.41
345.60	225.68
345.99	225.85
346.37	225.96
346.75	226.02
347.13	226.07
347.52	226.15
347.90	226.23
348.28	226.30
348.66	226.32
349.05	226.34
349.43	226.39
349.81	226.45
350.19	226.49
350.57	226.57
350.96	226.68
351.34	226.76
351.72	226.87
352.10	226.96
352.48	227.06
352.87	227.11
353.25	227.20
353.63	227.27
354.01	227.34
354.39	227.44
354.77	227.56
355.15	227.69
355.54	227.74
355.92	227.76
356.30	227.83
356.68	227.98
357.06	228.04
357.44	228.09
357.82	228.13
358.20	228.24
358.58	228.30
358.97	228.37
359.35	228.44
359.73	228.50
360.11	228.56
360.49	228.63
360.87	228.71
361.25	228.78
361.63	228.86
362.01	228.91
362.39	228.98
362.77	228.98
363.15	229.04
363.53	229.07
363.91	229.10
364.29	229.14
364.67	229.10
365.05	229.12
365.43	229.16
365.81	229.18
366.19	229.19
366.57	229.22
366.95	229.22
367.33	229.21
367.71	229.20
368.09	229.21
368.47	229.18
368.85	229.17
369.23	229.15
369.61	229.08
369.99	229.12
370.37	229.09
370.75	229.12
371.13	229.05
371.51	229.02
371.89	229.01
372.27	228.93
372.65	228.87
373.03	228.83
373.41	228.76
373.78	228.71
374.16	228.61
374.54	228.53
374.92	228.47
375.30	228.37
375.68	228.29
376.06	228.18
376.44	228.12
376.82	228.06
377.19	227.96
377.57	227.91
377.95	227.79
378.33	227.72
378.71	227.58
379.09	227.51
379.47	227.43
379.84	227.36
380.22	227.28
380.60	227.22
380.98	227.15
381.36	227.07
381.73	227.00
382.11	226.98
382.49	226.93
382.87	226.84
383.25	226.76
383.62	226.83
384.00	226.76
384.38	226.69
384.76	226.64
385.13	226.65
385.51	226.56
385.89	226.47
386.27	226.43
386.64	226.39
387.02	226.34
387.40	226.27
387.78	226.21
388.15	226.23
388.53	226.17
388.91	226.13
389.29	226.09
389.66	226.07
390.04	226.01
390.42	226.00
390.79	225.95
391.17	225.95
391.55	225.79
391.92	225.80
392.30	225.79
392.68	225.78
393.05	225.76
393.43	225.80
393.81	225.83
394.18	225.82
394.56	225.84
394.94	225.88
395.31	225.94
395.69	226.00
396.06	226.01
396.44	226.06
396.82	226.08
397.19	226.16
397.57	226.23
397.95	226.28
398.32	226.27
398.70	226.38
399.07	226.52
399.45	226.64
399.82	226.69
400.20	226.80
400.58	226.84
400.95	226.90
401.33	227.00
401.70	227.15
402.08	227.24
402.45	227.33
402.83	227.43
403.20	227.55
403.58	227.64
403.95	227.75
404.33	227.90
404.71	228.02
405.08	228.20
405.46	228.33
405.83	228.50
406.21	228.67
406.58	228.82
406.96	228.94
407.33	229.10
407.70	229.33
408.08	229.56
408.45	229.81
408.83	230.04
409.20	230.24
409.58	230.43
409.95	230.67
410.33	230.94
410.70	231.21
411.08	231.47
411.45	231.77
411.82	232.08
412.20	232.44
412.57	232.90
412.95	233.18
413.32	233.56
413.69	233.95
414.07	234.39
414.44	234.84
414.82	235.32
415.19	235.87
415.56	236.39
415.94	236.94
416.31	237.53
416.68	238.14
417.06	238.84
417.43	239.52
417.81	240.30
418.18	241.08
418.55	241.94
418.93	242.80
419.30	243.69
419.67	244.63
420.04	245.54
420.42	246.52
420.79	247.72
421.16	248.89
421.54	250.10
421.91	251.32
422.28	252.60
422.66	253.92
423.03	255.23
423.40	256.55
423.77	257.94
424.15	259.39
424.52	260.88
424.89	262.49
425.26	264.05
425.64	265.48
426.01	267.07
426.38	268.68
426.75	270.34
427.13	272.03
427.50	273.82
427.87	275.74
428.24	277.55
428.61	279.25
428.99	281.19
429.36	283.28
429.73	285.32
430.10	287.33
430.47	289.40
430.85	291.47
431.22	293.70
431.59	296.07
431.96	298.29
432.33	300.77
432.70	303.11
433.08	305.92
433.45	308.56
433.82	311.17
434.19	314.08
434.56	316.90
434.93	319.59
435.30	322.19
435.68	325.03
436.05	327.88
436.42	330.69
436.79	333.21
437.16	335.91
437.53	338.73
437.90	341.52
438.27	344.26
438.64	347.11
439.01	349.72
439.38	351.98
439.75	354.17
440.13	356.68
440.50	359.03
440.87	360.85
441.24	362.79
441.61	364.91
441.98	366.37
442.35	368.18
442.72	370.03
443.09	371.85
443.46	372.87
443.83	373.45
444.20	373.97
444.57	374.80
444.94	375.02
445.31	375.35
445.68	375.70
446.05	375.80
446.42	375.40
446.79	374.99
447.16	374.54
447.53	374.24
447.90	373.08
448.27	371.94
448.64	370.34
449.01	369.19
449.37	367.25
449.74	365.37
450.11	363.14
450.48	360.64
450.85	358.15
451.22	355.98
451.59	353.97
451.96	352.04
452.33	349.47
452.70	347.16
453.07	344.35
453.43	341.46
453.80	338.63
454.17	335.96
454.54	333.40
454.91	330.66
455.28	327.95
455.65	325.46
456.02	322.96
456.38	320.80
456.75	318.16
457.12	315.92
457.49	313.69
457.86	311.49
458.23	309.65
458.59	307.58
458.96	305.49
459.33	303.60
459.70	301.72
460.07	300.17
460.43	298.42
460.80	296.83
461.17	295.37
461.54	293.91
461.91	292.46
462.27	291.05
462.64	289.81
463.01	288.48
463.38	287.20
463.74	285.89
464.11	284.73
464.48	283.72
464.85	282.60
465.21	281.73
465.58	280.83
465.95	279.73
466.32	278.84
466.68	277.98
467.05	277.13
467.42	276.22
467.78	275.32
468.15	274.48
468.52	273.80
468.88	272.95
469.25	272.20
469.62	271.62
469.98	270.93
470.35	270.34
470.72	269.74
471.08	269.05
471.45	268.53
471.82	268.01
472.18	267.42
472.55	266.96
472.92	266.43
473.28	265.95
473.65	265.51
474.02	265.08
474.38	264.69
474.75	264.35
475.11	264.01
475.48	263.75
475.85	263.54
476.21	263.32
476.58	263.17
476.94	263.03
477.31	262.87
477.67	262.72
478.04	262.59
478.41	262.53
478.77	262.61
479.14	262.53
479.50	262.56
479.87	262.64
480.23	262.76
480.60	262.82
480.96	262.95
481.33	263.14
481.69	263.33
482.06	263.56
482.42	263.77
482.79	264.02
483.15	264.34
483.52	264.71
483.88	265.04
484.25	265.46
484.61	265.87
484.98	266.28
485.34	266.86
485.71	267.47
486.07	268.04
486.44	268.58
486.80	269.26
487.17	269.99
487.53	270.77
487.90	271.63
488.26	272.59
488.62	273.58
488.99	274.54
489.35	275.59
489.72	276.70
490.08	277.89
490.44	279.15
490.81	280.45
491.17	281.80
491.54	283.29
491.90	284.80
492.26	286.44
492.63	288.19
492.99	289.95
493.36	291.81
493.72	293.86
494.08	296.00
494.45	298.22
494.81	300.58
495.17	303.03
495.54	305.55
495.90	308.25
496.26	311.06
496.63	314.05
496.99	317.18
497.35	320.42
497.72	323.83
498.08	327.36
498.44	331.06
498.80	334.97
499.17	339.04
499.53	343.19
499.89	347.62
500.26	352.13
500.62	356.79
500.98	361.79
501.34	366.88
501.71	372.28
502.07	377.82
502.43	383.44
502.79	389.29
503.16	395.43
503.52	401.69
503.88	408.05
504.24	414.68
504.60	421.58
504.97	428.68
505.33	435.99
505.69	443.71
506.05	451.53
506.41	459.39
506.78	467.51
507.14	475.98
507.50	484.68
507.86	493.76
508.22	503.03
508.59	512.23
508.95	521.80
509.31	531.53
509.67	541.57
510.03	551.90
510.39	562.42
510.75	573.13
511.12	584.03
511.48	595.39
511.84	606.85
512.20	618.36
512.56	630.35
512.92	642.61
513.28	654.90
513.64	667.33
514.00	680.07
514.37	693.02
514.73	706.13
515.09	719.07
515.45	732.30
515.81	745.89
516.17	759.91
516.53	774.00
516.89	788.20
517.25	802.33
517.61	816.71
517.97	831.18
518.33	845.62
518.69	860.49
519.05	875.33
519.41	890.43
519.77	906.02
520.13	921.41
520.49	936.65
520.85	952.11
521.21	967.85
521.57	984.05
521.93	999.77
522.29	1016.05
522.65	1032.31
523.01	1048.58
523.37	1064.57
523.73	1080.69
524.09	1096.80
524.45	1113.05
524.81	1129.61
525.17	1146.35
525.53	1163.17
525.89	1179.98
526.25	1196.72
526.61	1213.28
526.97	1230.10
527.33	1246.40
527.68	1263.05
528.04	1279.54
528.40	1296.11
528.76	1313.00
529.12	1329.51
529.48	1346.55
529.84	1362.50
530.20	1379.09
530.56	1395.92
530.91	1413.17
531.27	1429.84
531.63	1446.32
531.99	1462.95
532.35	1478.99
532.71	1494.80
533.07	1511.02
533.42	1526.95
533.78	1542.86
534.14	1559.00
534.50	1574.19
534.86	1590.02
535.21	1605.09
535.57	1620.85
535.93	1636.14
536.29	1650.92
536.65	1665.98
537.00	1680.39
537.36	1695.66
537.72	1710.09
538.08	1724.54
538.44	1738.31
538.79	1752.05
539.15	1765.51
539.51	1779.08
539.87	1793.34
540.22	1807.05
540.58	1820.74
540.94	1833.94
541.29	1846.80
541.65	1859.40
542.01	1872.56
542.37	1884.78
542.72	1897.19
543.08	1908.99
543.44	1921.49
543.79	1932.65
544.15	1943.53
544.51	1955.16
544.87	1966.08
545.22	1976.99
545.58	1987.13
545.94	1996.90
546.29	2006.80
546.65	2016.71
547.01	2025.87
547.36	2034.37
547.72	2042.78
548.07	2050.44
548.43	2058.50
548.79	2066.46
549.14	2073.91
549.50	2081.23
549.86	2088.90
550.21	2096.19
550.57	2103.21
550.92	2109.68
551.28	2116.70
551.64	2123.75
551.99	2130.11
552.35	2136.16
552.70	2142.13
553.06	2147.98
553.41	2154.25
553.77	2160.26
554.13	2166.40
554.48	2172.55
554.84	2178.18
555.19	2183.54
555.55	2188.80
555.90	2193.30
556.26	2198.22
556.61	2202.90
556.97	2207.16
557.32	2211.27
557.68	2215.37
558.03	2219.82
558.39	2223.62
558.74	2228.38
559.10	2232.17
559.45	2235.96
559.81	2240.21
560.16	2244.06
560.52	2247.38
560.87	2250.87
561.23	2253.51
561.58	2256.38
561.94	2258.97
562.29	2261.24
562.64	2263.91
563.00	2266.70
563.35	2270.23
563.71	2273.33
564.06	2276.64
564.42	2279.58
564.77	2282.07
565.12	2284.33
565.48	2286.32
565.83	2288.13
566.19	2289.45
566.54	2290.49
566.89	2291.74
567.25	2292.53
567.60	2293.88
567.96	2295.81
568.31	2296.60
568.66	2297.75
569.02	2298.43
569.37	2298.76
569.72	2299.81
570.08	2300.02
570.43	2300.04
570.78	2299.48
571.14	2298.12
571.49	2296.91
571.84	2296.71
572.20	2295.73
572.55	2294.64
572.90	2293.02
573.26	2291.66
573.61	2289.99
573.96	2288.41
574.31	2285.37
574.67	2282.35
575.02	2278.68
575.37	2275.22
575.72	2271.38
576.08	2267.92
576.43	2264.42
576.78	2260.86
577.13	2257.57
577.49	2254.35
577.84	2250.96
578.19	2247.23
578.54	2243.46
578.90	2239.16
579.25	2233.43
579.60	2228.42
579.95	2223.48
580.30	2218.51
580.66	2213.35
581.01	2208.34
581.36	2203.26
581.71	2199.24
582.06	2194.92
582.42	2190.57
582.77	2185.26
583.12	2180.87
583.47	2176.34
583.82	2171.47
584.17	2166.20
584.53	2160.70
584.88	2155.17
585.23	2149.29
585.58	2143.80
585.93	2138.40
586.28	2133.63
586.63	2128.70
586.98	2123.86
587.34	2119.28
587.69	2114.36
588.04	2109.13
588.39	2103.67
588.74	2097.15
589.09	2090.89
589.44	2084.09
589.79	2078.05
590.14	2072.47
590.49	2065.91
590.84	2059.47
591.19	2053.37
591.54	2046.80
591.89	2039.50
592.25	2032.73
592.60	2025.59
592.95	2018.18
593.30	2010.88
593.65	2003.24
594.00	1996.13
594.35	1988.77
594.70	1980.64
595.05	1973.54
595.40	1966.39
595.75	1958.72
596.10	1952.76
596.45	1946.21
596.80	1940.09
597.15	1933.45
597.50	1926.48
597.85	1920.11
598.19	1913.56
598.54	1906.53
598.89	1899.97
599.24	1894.16
599.59	1887.45
599.94	1881.35
600.29	1875.15
600.64	1868.61
600.99	1861.30
601.34	1854.55
601.69	1847.62
602.04	1840.88
602.39	1833.60
602.74	1826.72
603.08	1819.94
603.43	1813.12
603.78	1805.79
604.13	1798.60
604.48	1791.33
604.83	1784.34
605.18	1777.32
605.53	1769.30
605.87	1761.26
606.22	1754.05
606.57	1746.00
606.92	1738.66
607.27	1731.26
607.62	1724.21
607.96	1716.87
608.31	1710.24
608.66	1702.62
609.01	1695.07
609.36	1687.44
609.70	1679.34
610.05	1671.29
610.40	1663.68
610.75	1655.26
611.10	1647.49
611.44	1638.96
611.79	1630.96
612.14	1622.24
612.49	1613.06
612.83	1604.71
613.18	1596.69
613.53	1588.55
613.88	1580.13
614.22	1571.97
614.57	1563.47
614.92	1555.49
615.27	1548.11
615.61	1539.68
615.96	1531.68
616.31	1523.98
616.65	1516.59
617.00	1509.04
617.35	1501.31
617.70	1493.03
618.04	1484.55
618.39	1476.38
618.74	1468.81
619.08	1460.60
619.43	1453.12
619.78	1446.26
620.12	1438.93
620.47	1431.32
620.82	1423.22
621.16	1415.81
621.51	1408.24
621.85	1400.61
622.20	1392.01
622.55	1383.52
622.89	1375.74
623.24	1368.07
623.59	1360.69
623.93	1353.27
624.28	1346.04
624.62	1338.52
624.97	1331.25
625.32	1324.65
625.66	1317.58
626.01	1310.52
626.35	1303.10
626.70	1295.27
627.04	1287.53
627.39	1279.84
627.73	1272.56
628.08	1265.64
628.43	1258.28
628.77	1250.84
629.12	1243.27
629.46	1236.15
629.81	1228.73
630.15	1221.50
630.50	1214.19
630.84	1205.96
631.19	1197.97
631.53	1190.41
631.88	1182.95
632.22	1175.33
632.57	1167.90
632.91	1160.38
633.26	1152.91
633.60	1145.43
633.95	1138.38
634.29	1131.31
634.64	1124.66
634.98	1117.23
635.32	1110.09
635.67	1103.42
636.01	1096.83
636.36	1089.99
636.70	1083.44
637.05	1076.90
637.39	1070.52
637.73	1063.95
638.08	1058.11
638.42	1052.07
638.77	1045.65
639.11	1039.03
639.45	1032.78
639.80	1026.16
640.14	1019.73
640.49	1013.21
640.83	1006.99
641.17	1000.78
641.52	994.43
641.86	987.93
642.20	982.02
642.55	975.59
642.89	969.19
643.23	962.55
643.58	956.87
643.92	950.66
644.26	944.58
644.61	938.51
644.95	932.47
645.29	925.88
645.64	919.12
645.98	912.81
646.32	906.92
646.66	900.70
647.01	894.86
647.35	889.17
647.69	883.27
648.04	877.71
648.38	871.89
648.72	865.91
649.06	859.92
649.41	854.09
649.75	848.21
650.09	842.24
650.43	836.55
650.78	830.29
651.12	824.31
651.46	818.54
651.80	812.69
652.14	807.32
652.49	801.92
652.83	796.78
653.17	791.05
653.51	785.37
653.85	780.03
654.20	774.41
654.54	768.42
654.88	762.63
655.22	756.67
655.56	750.89
655.90	745.43
656.25	740.16
656.59	734.77
656.93	729.73
657.27	724.54
657.61	719.02
657.95	713.98
658.29	708.89
658.64	703.67
658.98	698.49
659.32	693.06
659.66	687.89
660.00	682.57
660.34	677.68
660.68	672.76
661.02	667.74
661.36	663.00
661.70	658.44
662.05	654.13
662.39	649.92
662.73	645.48
663.07	641.11
663.41	636.65
663.75	632.22
664.09	627.62
664.43	623.29
664.77	619.22
665.11	615.03
665.45	610.88
665.79	606.87
666.13	602.69
666.47	598.50
666.81	594.42
667.15	590.27
667.49	586.36
667.83	582.51
668.17	578.55
668.51	574.52
668.85	570.52
669.19	566.68
669.53	562.80
669.87	558.96
670.21	555.26
670.55	551.61
670.89	548.16
671.23	544.73
671.57	541.11
671.91	537.53
672.25	533.93
672.58	530.44
672.92	526.93
673.26	523.80
673.60	520.69
673.94	517.53
674.28	514.65
674.62	511.69
674.96	508.60
675.30	505.69
675.64	502.76
675.97	499.97
676.31	497.11
676.65	494.18
676.99	491.52
677.33	488.65
677.67	485.85
678.01	482.81
678.34	479.84
678.68	477.08
679.02	474.32
679.36	471.61
679.70	468.94
680.04	466.24
680.37	463.30
680.71	460.51
681.05	457.94
681.39	455.18
681.73	452.47
682.06	449.98
682.40	447.48
682.74	444.88
683.08	442.30
683.42	439.70
683.75	437.23
684.09	434.64
684.43	432.18
684.77	429.75
685.10	427.41
685.44	425.14
685.78	422.85
686.12	420.56
686.45	418.26
686.79	415.95
687.13	413.75
687.46	411.61
687.80	409.47
688.14	407.24
688.48	405.25
688.81	403.11
689.15	400.95
689.49	398.78
689.82	396.76
690.16	394.71
690.50	392.79
690.83	390.84
691.17	388.91
691.51	386.98
691.84	385.13
692.18	383.18
692.52	381.16
692.85	379.19
693.19	377.31
693.52	375.45
693.86	373.60
694.20	371.83
694.53	370.02
694.87	368.15
695.21	366.34
695.54	364.47
695.88	362.70
696.21	360.94
696.55	359.26
696.88	357.53
697.22	355.86
697.56	354.21
697.89	352.54
698.23	350.89
698.56	349.30
698.90	347.69
699.23	346.07
699.57	344.55
699.90	343.02
700.24	341.47
700.58	340.00
700.91	338.49
701.25	336.97
701.58	335.61
701.92	334.25
702.25	332.85
702.59	331.50
702.92	330.17
703.26	328.89
703.59	327.60
703.93	326.47
704.26	325.22
704.60	323.92
704.93	322.63
705.26	321.37
705.60	320.21
705.93	319.03
706.27	317.96
706.60	316.92
706.94	315.85
707.27	314.71
707.61	313.65
707.94	312.64
708.27	311.53
708.61	310.45
708.94	309.40
709.28	308.45
709.61	307.48
709.94	306.54
710.28	305.52
710.61	304.55
710.95	303.44
711.28	302.52
711.61	301.59
711.95	300.66
712.28	299.69
712.61	298.70
712.95	297.78
713.28	296.89
713.61	295.98
713.95	295.07
714.28	294.22
714.61	293.31
714.95	292.46
715.28	291.67
715.61	290.82
715.95	290.00
716.28	289.11
716.61	288.30
716.95	287.48
717.28	286.71
717.61	285.95
717.94	285.23
718.28	284.41
718.61	283.65
718.94	282.99
719.27	282.39
719.61	281.75
719.94	281.08
720.27	280.37
720.60	279.68
720.94	279.04
721.27	278.47
721.60	277.90
721.93	277.33
722.27	276.78
722.60	276.20
722.93	275.63
723.26	275.12
723.59	274.55
723.93	274.01
724.26	273.43
724.59	272.89
724.92	272.35
725.25	271.88
725.59	271.39
725.92	270.87
726.25	270.32
726.58	269.83
726.91	269.34
727.24	268.90
727.57	268.44
727.91	267.96
728.24	267.47
728.57	267.01
728.90	266.52
729.23	266.01
729.56	265.63
729.89	265.17
730.22	264.73
730.55	264.24
730.89	263.78
731.22	263.36
731.55	262.93
731.88	262.51
732.21	262.05
732.54	261.62
732.87	261.20
733.20	260.81
733.53	260.42
733.86	260.05
734.19	259.64
734.52	259.25
734.85	258.92
735.18	258.52
735.51	258.16
735.84	257.79
736.17	257.46
736.50	257.01
736.83	256.78
737.16	256.42
737.49	256.11
737.82	255.76
738.15	255.43
738.48	255.09
738.81	254.76
739.14	254.45
739.47	254.13
739.80	253.83
740.13	253.51
740.46	253.16
740.79	252.85
741.12	252.52
741.45	252.22
741.78	251.89
742.11	251.61
742.44	251.29
742.77	251.01
743.10	250.70
743.43	250.41
743.75	250.01
744.08	249.85
744.41	249.52
744.74	249.25
745.07	248.95
745.40	248.70
745.73	248.48
746.06	248.20
746.39	247.94
746.71	247.65
747.04	247.39
747.37	247.13
747.70	246.86
748.03	246.63
748.36	246.40
748.68	246.15
749.01	245.90
749.34	245.65
749.67	245.39
750.00	245.18
750.33	245.06
750.65	244.85
750.98	244.48
751.31	244.33
751.64	244.11
751.97	243.98
752.29	243.75
752.62	243.50
752.95	243.31
753.28	243.10
753.60	242.91
753.93	242.74
754.26	242.56
754.59	242.38
754.91	242.15
755.24	241.95
755.57	241.79
755.90	241.60
756.22	241.40
756.55	241.24
756.88	241.04
757.20	240.81
757.53	240.61
757.86	240.48
758.19	240.33
758.51	240.19
758.84	239.98
759.17	239.79
759.49	239.61
759.82	239.50
760.15	239.35
760.47	239.22
760.80	239.01
761.13	238.89
761.45	238.74
761.78	238.63
762.11	238.52
762.43	238.37
762.76	238.23
763.08	238.14
763.41	238.00
763.74	237.90
764.06	237.72
764.39	237.60
764.71	237.46
765.04	237.29
765.37	237.16
765.69	237.05
766.02	236.94
766.34	236.85
766.67	236.69
767.00	236.60
767.32	236.52
767.65	236.49
767.97	236.35
768.30	236.23
768.62	236.10
768.95	235.96
769.27	235.83
769.60	235.72
769.92	235.58
770.25	235.45
770.57	235.29
770.90	235.20
771.22	235.07
771.55	234.96
771.87	234.87
772.20	234.76
772.52	234.74
772.85	234.74
773.17	234.66
773.50	234.53
773.82	234.42
774.15	234.27
774.47	234.11
774.80	234.01
775.12	233.91
775.45	233.80
775.77	233.70
776.09	233.66
776.42	233.59
776.74	233.52
777.07	233.44
777.39	233.38
777.72	233.30
778.04	233.23
778.36	233.16
778.69	233.09
779.01	233.05
779.33	232.85
779.66	232.67
779.98	232.56
780.31	232.51
780.63	232.45
780.95	232.38
781.28	232.31
781.60	232.23
781.92	232.16
782.25	232.12
782.57	232.02
782.89	231.90
783.22	231.82
783.54	231.74
783.86	231.66
784.19	231.55
784.51	231.50
784.83	231.43
785.16	231.37
785.48	231.27
785.80	231.23
786.12	231.19
786.45	231.15
786.77	231.13
787.09	231.04
787.42	230.97
787.74	230.94
788.06	230.89
788.38	230.87
788.71	230.80
789.03	230.75
789.35	230.72
789.67	230.71
789.99	230.65
790.32	230.60
790.64	230.59
790.96	230.64
791.28	230.56
791.61	230.51
791.93	230.48
792.25	230.43
792.57	230.41
792.89	230.39
793.21	230.34
793.54	230.28
793.86	230.25
794.18	230.20
794.50	230.13
794.82	230.09
795.14	230.05
795.47	230.06
795.79	230.03
796.11	229.95
796.43	229.92
796.75	229.90
797.07	229.89
797.39	229.86
797.71	229.80
798.04	229.79
798.36	229.81
798.68	229.80
799.00	229.81
799.32	229.76
799.64	229.74
799.96	229.71
800.28	229.71
800.60	229.70
800.92	229.71
801.24	229.67
801.56	229.67
801.89	229.63
802.21	229.60
802.53	229.54
802.85	229.57
803.17	229.58
803.49	229.54
803.81	229.53
804.13	229.51
804.45	229.47
804.77	229.45
805.09	229.42
805.41	229.36
805.73	229.30
806.05	229.23
806.37	229.21
806.69	229.18
807.01	229.15
807.33	229.11
807.65	229.05
807.97	229.07
808.28	229.03
808.60	229.02
808.92	229.00
809.24	229.06
809.56	229.03
809.88	228.95
810.20	228.94
810.52	228.92
810.84	228.88
811.16	228.83
811.48	228.78
811.80	228.79
812.12	228.78
812.43	228.75
812.75	228.74
813.07	228.69
813.39	228.66
813.71	228.62
814.03	228.58
814.35	228.53
814.67	228.48
814.98	228.44
815.30	228.41
815.62	228.38
815.94	228.28
816.26	228.29
816.58	228.25
816.89	228.23
817.21	228.19
817.53	228.14
817.85	228.13
818.17	228.10
818.48	228.03
818.80	227.99
819.12	227.98
819.44	227.96
819.76	227.94
820.07	227.92
820.39	227.89
820.71	227.85
821.03	227.83
821.34	227.80
821.66	227.79
821.98	227.77
822.30	227.73
822.61	227.76
822.93	227.72
823.25	227.73
823.57	227.69
823.88	227.68
824.20	227.68
824.52	227.67
824.83	227.68
825.15	227.66
825.47	227.66
825.79	227.66
826.10	227.65
826.42	227.60
826.74	227.60
827.05	227.59
827.37	227.62
827.69	227.62
828.00	227.60
828.32	227.60
828.64	227.58
828.95	227.62
829.27	227.59
829.58	227.58
829.90	227.57
830.22	227.59
830.53	227.56
830.85	227.55
831.17	227.55
831.48	227.52
831.80	227.52
832.11	227.49
832.43	227.47
832.75	227.42
833.06	227.49
833.38	227.48
833.69	227.48
834.01	227.49
834.32	227.50
834.64	227.48
834.96	227.48
835.27	227.48
835.59	227.44
835.90	227.44
836.22	227.44
836.53	227.45
836.85	227.44
837.16	227.55
837.48	227.56
837.79	227.58
838.11	227.59
838.42	227.58
838.74	227.64
839.05	227.64
839.37	227.64
839.68	227.59
840.00	227.57
840.31	227.61
840.63	227.62
840.94	227.62
841.26	227.60
841.57	227.63
841.88	227.63
842.20	227.63
842.51	227.60
842.83	227.58
843.14	227.64
843.46	227.62
843.77	227.58
844.08	227.54
844.40	227.53
844.71	227.50
845.03	227.48
845.34	227.44
845.65	227.47
845.97	227.47
846.28	227.47
846.60	227.50
846.91	227.47
847.22	227.44
847.54	227.47
847.85	227.48
848.16	227.45
848.48	227.42
848.79	227.47
849.10	227.48
849.42	227.50
849.73	227.41
850.04	227.42
850.36	227.37
850.67	227.38
850.98	227.33
851.30	227.34
851.61	227.35
851.92	227.30
852.23	227.28
852.55	227.29
852.86	227.28
853.17	227.27
853.49	227.28
853.80	227.28
854.11	227.26
854.42	227.26
854.74	227.25
855.05	227.26
855.36	227.17
855.67	227.18
855.99	227.17
856.30	227.28
856.61	227.27
856.92	227.23
857.23	227.23
857.55	227.25
857.86	227.27
858.17	227.25
858.48	227.26
858.79	227.24
859.11	227.26
859.42	227.25
859.73	227.21
860.04	227.19
860.35	227.13
860.66	227.06
860.98	227.09
861.29	227.06
861.60	227.05
861.91	227.08
862.22	227.05
862.53	227.04
862.84	226.91
863.16	226.91
863.47	226.91
863.78	226.91
864.09	226.92
864.40	226.88
864.71	226.90
865.02	226.93
865.33	226.92
865.64	226.90
865.95	226.90
866.27	226.97
866.58	226.98
866.89	227.01
867.20	227.03
867.51	226.98
867.82	227.00
868.13	227.03
868.44	226.98
868.75	227.01
869.06	227.01
869.37	227.02
869.68	227.00
869.99	227.02
870.30	227.04
870.61	227.02
870.92	227.01
871.23	226.99
871.54	226.99
871.85	227.01
872.16	227.01
872.47	226.99
872.78	226.91
873.09	226.94
873.40	226.93
873.71	226.96
874.02	226.97
874.33	226.96
874.64	226.93
874.95	226.97
875.26	226.95
875.56	226.94
875.87	226.94
876.18	226.91
876.49	227.02
876.80	226.99
877.11	227.00
877.42	227.00
877.73	226.97
878.04	226.93
878.35	226.92
878.66	226.90
878.96	226.91
879.27	226.91
879.58	226.89
879.89	226.87
880.20	226.89
880.51	226.88
880.82	226.86
881.12	226.85
881.43	226.81
881.74	226.79
882.05	226.77
882.36	226.73
882.67	226.76
882.97	226.65
883.28	226.62
883.59	226.60
883.90	226.62
884.21	226.64
884.51	226.63
884.82	226.62
885.13	226.64
885.44	226.65
885.74	226.64
886.05	226.62
886.36	226.63
886.67	226.59
886.98	226.64
887.28	226.64
887.59	226.62
887.90	226.64
888.20	226.63
888.51	226.64
888.82	226.64
889.13	226.63
889.43	226.68
889.74	226.64
890.05	226.65
890.35	226.64
890.66	226.65
890.97	226.68
891.28	226.66
891.58	226.64
891.89	226.61
892.20	226.60
892.50	226.55
892.81	226.56
893.12	226.55
893.42	226.52
893.73	226.54
894.04	226.54
894.34	226.54
894.65	226.54
894.95	226.56
895.26	226.57
895.57	226.58
895.87	226.51
896.18	226.55
896.48	226.54
896.79	226.53
897.10	226.53
897.40	226.51
897.71	226.51
898.01	226.52
898.32	226.54
898.63	226.55
898.93	226.61
899.24	226.61
899.54	226.59
899.85	226.60
900.15	226.60
900.46	226.63
900.76	226.65
901.07	226.66
901.38	226.64
901.68	226.66
901.99	226.64
902.29	226.65
902.60	226.66
902.90	226.65
903.21	226.67
903.51	226.68
903.82	226.70
904.12	226.71
904.43	226.69
904.73	226.72
905.03	226.72
905.34	226.81
905.64	226.82
905.95	226.84
906.25	226.84
906.56	226.84
906.86	226.82
907.17	226.80
907.47	226.80
907.77	226.83
908.08	226.82
908.38	226.82
908.69	226.85
908.99	226.89
909.30	226.92
909.60	226.91
909.90	226.94
910.21	226.93
910.51	226.90
910.81	226.93
911.12	226.92
911.42	226.90
911.73	226.78
912.03	226.80
912.33	226.81
912.64	226.79
912.94	226.80
913.24	226.82
913.55	226.81
913.85	226.79
914.15	226.78
914.46	226.80
914.76	226.81
915.06	226.80
915.37	226.77
915.67	226.76
915.97	226.77
916.27	226.74
916.58	226.75
916.88	226.76
917.18	226.75
917.49	226.77
917.79	226.80
918.09	226.80
918.39	226.82
918.70	226.82
919.00	226.81
919.30	226.81
919.60	226.79
919.91	226.79
920.21	226.80
920.51	226.76
920.81	226.71
921.12	226.73
921.42	226.71
921.72	226.71
922.02	226.68
922.32	226.68
922.63	226.66
922.93	226.68
923.23	226.71
923.53	226.70
923.83	226.67
924.13	226.65
924.44	226.68
924.74	226.65
925.04	226.63
925.34	226.63
925.64	226.60
925.94	226.60
926.24	226.62
926.55	226.62
926.85	226.64
927.15	226.68
927.45	226.64
927.75	226.63
928.05	226.63
928.35	226.63
928.65	226.64
928.95	226.64
929.26	226.62
929.56	226.62
929.86	226.61
930.16	226.59
930.46	226.59
930.76	226.56
931.06	226.50
931.36	226.50
931.66	226.52
931.96	226.51
932.26	226.48
932.56	226.46
932.86	226.45
933.16	226.47
933.46	226.43
933.76	226.43
934.06	226.45
934.36	226.46
934.66	226.47
934.96	226.46
935.26	226.46
935.56	226.48
935.86	226.43
936.16	226.41
936.46	226.42
936.76	226.39
937.06	226.39
937.36	226.43
937.66	226.43
937.96	226.41
938.26	226.40
938.56	226.39
938.86	226.38
939.16	226.41
939.46	226.39
939.76	226.42
940.06	226.43
940.35	226.43
940.65	226.40
940.95	226.39
941.25	226.33
941.55	226.32
941.85	226.32
942.15	226.36
942.45	226.39
942.75	226.41
943.04	226.44
943.34	226.43
943.64	226.41
943.94	226.42
944.24	226.42
944.54	226.45
944.84	226.49
945.13	226.49
945.43	226.50
945.73	226.50
946.03	226.49
946.33	226.46
946.62	226.45
946.92	226.43
947.22	226.45
947.52	226.49
947.82	226.54
948.11	226.50
948.41	226.47
948.71	226.43
949.01	226.43
949.31	226.40
949.60	226.43
949.90	226.48
950.20	226.48
950.50	226.49
950.79	226.49
951.09	226.50
951.39	226.50
951.69	226.47
951.98	226.49
952.28	226.49
952.58	226.51
952.87	226.53
953.17	226.57
953.47	226.54
953.76	226.54
954.06	226.49
954.36	226.54
954.66	226.53
954.95	226.62
955.25	226.61
955.55	226.62
955.84	226.59
956.14	226.57
956.44	226.58
956.73	226.59
957.03	226.58
957.32	226.56
957.62	226.55
957.92	226.56
958.21	226.55
958.51	226.64
958.81	226.65
959.10	226.64
959.40	226.66
959.69	226.66
959.99	226.69
960.29	226.68
960.58	226.63
960.88	226.67
961.17	226.63
961.47	226.64
961.76	226.67
962.06	226.71
962.36	226.71
962.65	226.71
962.95	226.69
963.24	226.69
963.54	226.68
963.83	226.71
964.13	226.69
964.42	226.62
964.72	226.56
965.01	226.57
965.31	226.56
965.60	226.52
965.90	226.59
966.19	226.51
966.49	226.52
966.78	226.53
967.08	226.47
967.37	226.45
967.67	226.41
967.96	226.42
968.26	226.38
968.55	226.36
968.85	226.34
969.14	226.32
969.43	226.30
969.73	226.31
970.02	226.27
970.32	226.27
970.61	226.31
970.91	226.29
971.20	226.23
971.49	226.20
971.79	226.21
972.08	226.13
972.38	226.16
972.67	226.17
972.96	226.18
973.26	226.17
973.55	226.21
973.85	226.18
974.14	226.14
974.43	226.16
974.73	226.13
975.02	226.12
975.31	226.14
975.61	226.14
975.90	226.12
976.19	226.13
976.49	226.14
976.78	226.14
977.07	226.15
977.37	226.15
977.66	226.19
977.95	226.17
978.24	226.18
978.54	226.18
978.83	226.18
979.12	226.17
979.42	226.19
979.71	226.16
980.00	226.20
980.29	226.24
980.59	226.21
980.88	226.28
981.17	226.30
981.46	226.30
981.76	226.31
982.05	226.35
982.34	226.38
982.63	226.37
982.93	226.38
983.22	226.41
983.51	226.44
983.80	226.47
984.09	226.51
984.39	226.53
984.68	226.55
984.97	226.58
985.26	226.56
985.55	226.60
985.85	226.59
986.14	226.61
986.43	226.61
986.72	226.64
987.01	226.58
987.30	226.59
987.59	226.59
987.89	226.61
988.18	226.57
988.47	226.52
988.76	226.59
989.05	226.60
989.34	226.59
989.63	226.61
989.92	226.58
990.22	226.58
990.51	226.59
990.80	226.57
991.09	226.54
991.38	226.57
991.67	226.54
991.96	226.55
992.25	226.54
992.54	226.52
992.83	226.50
993.12	226.54
993.41	226.52
993.70	226.57
993.99	226.60
994.28	226.64
994.58	226.68
994.87	226.65
995.16	226.66
995.45	226.65
995.74	226.61
996.03	226.61
996.32	226.65
996.61	226.64
996.90	226.61
997.19	226.65
997.48	226.66
997.77	226.67
998.06	226.67
998.34	226.69
998.63	226.69
998.92	226.71
999.21	226.73
999.50	226.75
999.79	226.69
1000.08	226.65
1000.37	226.65
1000.66	226.63
1000.95	226.62
1001.24	226.61
1001.53	226.62
1001.82	226.61
1002.11	226.60
1002.40	226.59
1002.68	226.59
1002.97	226.70
1003.26	226.69
1003.55	226.64
1003.84	226.63
1004.13	226.64
1004.42	226.60
1004.71	226.61
1004.99	226.59
1005.28	226.59
1005.57	226.54
1005.86	226.54
1006.15	226.53
1006.44	226.50
1006.72	226.52
1007.01	226.51
1007.30	226.48
1007.59	226.46
1007.88	226.44
1008.17	226.46
1008.45	226.41
1008.74	226.37
1009.03	226.27
1009.32	226.29
1009.60	226.31
1009.89	226.27
1010.18	226.25
1010.47	226.24
1010.76	226.25
1011.04	226.23
1011.33	226.24
1011.62	226.27
1011.91	226.29
1012.19	226.29
1012.48	226.29
1012.77	226.29
1013.05	226.32
1013.34	226.31
1013.63	226.31
1013.92	226.33
1014.20	226.28
1014.49	226.29
1014.78	226.33
1015.06	226.28
1015.35	226.24
1015.64	226.26
1015.92	226.32
1016.21	226.31
1016.50	226.30
1016.78	226.30
1017.07	226.31
1017.36	226.27
1017.64	226.26
1017.93	226.23
1018.22	226.21
1018.50	226.21
1018.79	226.18
1019.08	226.12
1019.36	226.14
1019.65	226.13
1019.93	226.14
1020.22	226.20
1020.51	226.24
1020.79	226.20
1021.08	225.56
1021.36	226.17
1021.65	225.94
1021.94	225.76
1022.22	226.65
1022.51	226.06
1022.79	226.33
1023.08	226.76
1023.36	227.43
1023.65	225.47
>>>>>End Processed Spectral Data<<<<<
