SpectraSuite Data File
++++++++++++++++++++++++++++++++++++
Date: Fri Feb 01 18:03:13 EST 2013
User: group
Dark Spectrum Present: No
Reference Spectrum Present: No
Number of Sampled Component Spectra: 1
Spectrometers: USB2E7196
Integration Time (usec): 35000 (USB2E7196)
Spectra Averaged: 100 (USB2E7196)
Boxcar Smoothing: 10 (USB2E7196)
Correct for Electrical Dark: No (USB2E7196)
Strobe/Lamp Enabled: No (USB2E7196)
Correct for Detector Non-linearity: No (USB2E7196)
Correct for Stray Light: No (USB2E7196)
Number of Pixels in Processed Spectrum: 2048
>>>>>Begin Processed Spectral Data<<<<<
339.09	0.00
339.48	212.36
339.86	213.99
340.24	215.69
340.63	217.02
341.01	219.69
341.39	220.12
341.78	220.75
342.16	222.24
342.54	222.81
342.93	211.18
343.31	221.85
343.69	222.40
344.07	222.88
344.46	223.29
344.84	223.67
345.22	223.91
345.60	224.13
345.99	224.33
346.37	224.45
346.75	224.55
347.13	224.61
347.52	224.68
347.90	224.73
348.28	224.78
348.66	224.80
349.05	224.81
349.43	224.87
349.81	224.94
350.19	224.98
350.57	225.10
350.96	225.15
351.34	225.26
351.72	225.38
352.10	225.49
352.48	225.56
352.87	225.63
353.25	225.71
353.63	225.80
354.01	225.86
354.39	225.95
354.77	226.03
355.15	226.13
355.54	226.19
355.92	226.26
356.30	226.34
356.68	226.49
357.06	226.57
357.44	226.63
357.82	226.67
358.20	226.76
358.58	226.78
358.97	226.89
359.35	227.02
359.73	227.09
360.11	227.14
360.49	227.25
360.87	227.30
361.25	227.38
361.63	227.47
362.01	227.55
362.39	227.58
362.77	227.66
363.15	227.71
363.53	227.74
363.91	227.75
364.29	227.79
364.67	227.74
365.05	227.75
365.43	227.79
365.81	227.86
366.19	227.92
366.57	228.00
366.95	227.98
367.33	227.91
367.71	227.89
368.09	227.89
368.47	227.89
368.85	227.86
369.23	227.87
369.61	227.82
369.99	227.82
370.37	227.83
370.75	227.84
371.13	227.78
371.51	227.73
371.89	227.75
372.27	227.72
372.65	227.67
373.03	227.66
373.41	227.59
373.78	227.55
374.16	227.42
374.54	227.34
374.92	227.28
375.30	227.23
375.68	227.17
376.06	227.15
376.44	227.06
376.82	227.04
377.19	226.97
377.57	226.90
377.95	226.82
378.33	226.73
378.71	226.60
379.09	226.58
379.47	226.54
379.84	226.48
380.22	226.40
380.60	226.33
380.98	226.24
381.36	226.20
381.73	226.12
382.11	226.11
382.49	226.02
382.87	225.95
383.25	225.88
383.62	225.92
384.00	225.85
384.38	225.79
384.76	225.76
385.13	225.73
385.51	225.69
385.89	225.63
386.27	225.59
386.64	225.59
387.02	225.53
387.40	225.48
387.78	225.41
388.15	225.36
388.53	225.34
388.91	225.30
389.29	225.25
389.66	225.22
390.04	225.18
390.42	225.16
390.79	225.13
391.17	225.14
391.55	225.02
391.92	225.00
392.30	224.98
392.68	224.91
393.05	224.89
393.43	224.87
393.81	224.86
394.18	224.84
394.56	224.82
394.94	224.85
395.31	224.85
395.69	224.90
396.06	224.95
396.44	224.97
396.82	224.99
397.19	225.08
397.57	225.09
397.95	225.15
398.32	225.17
398.70	225.25
399.07	225.28
399.45	225.31
399.82	225.33
400.20	225.41
400.58	225.49
400.95	225.49
401.33	225.60
401.70	225.78
402.08	225.89
402.45	225.99
402.83	226.13
403.20	226.24
403.58	226.34
403.95	226.44
404.33	226.60
404.71	226.73
405.08	226.89
405.46	227.04
405.83	227.18
406.21	227.35
406.58	227.54
406.96	227.78
407.33	228.01
407.70	228.29
408.08	228.60
408.45	228.88
408.83	229.16
409.20	229.43
409.58	229.66
409.95	229.99
410.33	230.30
410.70	230.60
411.08	230.99
411.45	231.39
411.82	231.79
412.20	232.20
412.57	232.76
412.95	233.20
413.32	233.75
413.69	234.30
414.07	234.91
414.44	235.53
414.82	236.13
415.19	236.84
415.56	237.55
415.94	238.26
416.31	239.10
416.68	239.98
417.06	240.92
417.43	241.84
417.81	242.84
418.18	243.91
418.55	245.03
418.93	246.21
419.30	247.40
419.67	248.64
420.04	249.94
420.42	251.25
420.79	252.79
421.16	254.33
421.54	255.93
421.91	257.56
422.28	259.23
422.66	261.03
423.03	262.79
423.40	264.58
423.77	266.52
424.15	268.45
424.52	270.45
424.89	272.65
425.26	274.73
425.64	276.71
426.01	278.86
426.38	281.08
426.75	283.31
427.13	285.64
427.50	288.15
427.87	290.67
428.24	293.22
428.61	295.63
428.99	298.28
429.36	301.14
429.73	303.97
430.10	306.74
430.47	309.53
430.85	312.41
431.22	315.46
431.59	318.66
431.96	321.67
432.33	325.04
432.70	328.22
433.08	332.05
433.45	335.65
433.82	339.20
434.19	343.11
434.56	346.89
434.93	350.52
435.30	354.04
435.68	358.01
436.05	361.84
436.42	365.66
436.79	369.07
437.16	372.75
437.53	376.56
437.90	380.35
438.27	384.05
438.64	387.90
439.01	391.39
439.38	394.49
439.75	397.45
440.13	400.80
440.50	403.99
440.87	406.48
441.24	409.15
441.61	412.07
441.98	414.14
442.35	416.64
442.72	419.19
443.09	421.64
443.46	422.99
443.83	423.79
444.20	424.47
444.57	425.66
444.94	426.08
445.31	426.57
445.68	427.10
446.05	427.23
446.42	426.74
446.79	426.24
447.16	425.61
447.53	425.20
447.90	423.71
448.27	422.16
448.64	420.01
449.01	418.42
449.37	415.75
449.74	413.20
450.11	410.12
450.48	406.76
450.85	403.33
451.22	400.45
451.59	397.76
451.96	395.13
452.33	391.55
452.70	388.31
453.07	384.44
453.43	380.49
453.80	376.77
454.17	373.14
454.54	369.64
454.91	365.95
455.28	362.33
455.65	358.90
456.02	355.51
456.38	352.57
456.75	348.95
457.12	345.87
457.49	342.79
457.86	339.90
458.23	337.35
458.59	334.58
458.96	331.69
459.33	329.08
459.70	326.48
460.07	324.42
460.43	322.02
460.80	319.76
461.17	317.75
461.54	315.68
461.91	313.69
462.27	311.71
462.64	309.97
463.01	308.10
463.38	306.34
463.74	304.52
464.11	302.98
464.48	301.60
464.85	300.09
465.21	298.90
465.58	297.62
465.95	296.13
466.32	294.87
466.68	293.64
467.05	292.42
467.42	291.25
467.78	289.97
468.15	288.77
468.52	287.91
468.88	286.74
469.25	285.69
469.62	284.81
469.98	283.91
470.35	283.02
470.72	282.19
471.08	281.27
471.45	280.52
471.82	279.72
472.18	278.86
472.55	278.24
472.92	277.51
473.28	276.84
473.65	276.23
474.02	275.59
474.38	275.06
474.75	274.59
475.11	274.06
475.48	273.67
475.85	273.37
476.21	273.03
476.58	272.75
476.94	272.48
477.31	272.19
477.67	271.91
478.04	271.73
478.41	271.59
478.77	271.54
479.14	271.37
479.50	271.32
479.87	271.36
480.23	271.39
480.60	271.42
480.96	271.46
481.33	271.62
481.69	271.79
482.06	271.96
482.42	272.12
482.79	272.36
483.15	272.62
483.52	272.94
483.88	273.24
484.25	273.59
484.61	273.99
484.98	274.47
485.34	274.99
485.71	275.55
486.07	276.14
486.44	276.71
486.80	277.46
487.17	278.18
487.53	278.96
487.90	279.81
488.26	280.77
488.62	281.83
488.99	282.78
489.35	283.89
489.72	285.05
490.08	286.32
490.44	287.57
490.81	288.97
491.17	290.38
491.54	291.93
491.90	293.53
492.26	295.26
492.63	297.07
492.99	298.97
493.36	300.98
493.72	303.18
494.08	305.44
494.45	307.81
494.81	310.32
495.17	312.90
495.54	315.60
495.90	318.42
496.26	321.33
496.63	324.45
496.99	327.75
497.35	331.23
497.72	334.82
498.08	338.59
498.44	342.48
498.80	346.61
499.17	350.90
499.53	355.35
499.89	359.97
500.26	364.74
500.62	369.72
500.98	374.98
501.34	380.37
501.71	385.98
502.07	391.75
502.43	397.70
502.79	403.91
503.16	410.39
503.52	417.13
503.88	423.93
504.24	431.03
504.60	438.32
504.97	445.88
505.33	453.64
505.69	461.88
506.05	470.21
506.41	478.64
506.78	487.30
507.14	496.38
507.50	505.69
507.86	515.33
508.22	525.13
508.59	534.93
508.95	545.13
509.31	555.60
509.67	566.36
510.03	577.41
510.39	588.69
510.75	600.23
511.12	611.87
511.48	623.97
511.84	636.19
512.20	648.59
512.56	661.44
512.92	674.48
513.28	687.80
513.64	701.20
514.00	714.85
514.37	728.79
514.73	742.79
515.09	756.82
515.45	771.13
515.81	785.74
516.17	800.84
516.53	816.19
516.89	831.63
517.25	846.96
517.61	862.58
517.97	878.38
518.33	893.99
518.69	910.01
519.05	926.33
519.41	942.90
519.77	959.74
520.13	976.57
520.49	993.34
520.85	1010.09
521.21	1027.23
521.57	1044.96
521.93	1062.21
522.29	1080.10
522.65	1097.99
523.01	1115.77
523.37	1133.48
523.73	1151.26
524.09	1168.90
524.45	1186.85
524.81	1205.22
525.17	1223.69
525.53	1242.23
525.89	1260.84
526.25	1279.55
526.61	1297.70
526.97	1316.28
527.33	1334.63
527.68	1352.94
528.04	1371.37
528.40	1389.80
528.76	1408.72
529.12	1427.27
529.48	1446.21
529.84	1464.21
530.20	1482.71
530.56	1501.79
530.91	1521.25
531.27	1540.09
531.63	1558.62
531.99	1577.16
532.35	1595.29
532.71	1613.38
533.07	1631.70
533.42	1649.68
533.78	1667.73
534.14	1686.06
534.50	1703.38
534.86	1721.37
535.21	1738.74
535.57	1756.92
535.93	1774.66
536.29	1791.63
536.65	1808.90
537.00	1825.63
537.36	1843.22
537.72	1859.94
538.08	1876.59
538.44	1892.57
538.79	1908.63
539.15	1924.41
539.51	1940.38
539.87	1956.87
540.22	1972.78
540.58	1988.78
540.94	2004.33
541.29	2019.48
541.65	2034.60
542.01	2050.22
542.37	2064.76
542.72	2079.48
543.08	2093.54
543.44	2108.18
543.79	2121.69
544.15	2134.79
544.51	2148.80
544.87	2161.99
545.22	2175.09
545.58	2187.45
545.94	2199.42
546.29	2211.52
546.65	2223.63
547.01	2235.16
547.36	2246.09
547.72	2256.53
548.07	2266.60
548.43	2277.03
548.79	2287.02
549.14	2296.52
549.50	2305.73
549.86	2315.49
550.21	2324.85
550.57	2333.95
550.92	2342.59
551.28	2351.60
551.64	2360.81
551.99	2369.30
552.35	2377.42
552.70	2385.52
553.06	2393.52
553.41	2401.84
553.77	2409.76
554.13	2417.79
554.48	2425.74
554.84	2433.20
555.19	2440.36
555.55	2447.47
555.90	2453.80
556.26	2460.81
556.61	2467.35
556.97	2473.80
557.32	2479.68
557.68	2485.63
558.03	2491.55
558.39	2496.74
558.74	2503.28
559.10	2508.74
559.45	2513.89
559.81	2519.59
560.16	2525.03
560.52	2529.68
560.87	2534.48
561.23	2538.45
561.58	2542.73
561.94	2546.69
562.29	2550.30
562.64	2554.41
563.00	2558.20
563.35	2563.05
563.71	2567.32
564.06	2571.76
564.42	2575.76
564.77	2579.57
565.12	2583.08
565.48	2586.25
565.83	2589.52
566.19	2591.98
566.54	2593.87
566.89	2596.15
567.25	2598.01
567.60	2600.35
567.96	2603.30
568.31	2605.19
568.66	2607.54
569.02	2609.07
569.37	2610.21
569.72	2612.03
570.08	2613.08
570.43	2613.83
570.78	2614.01
571.14	2613.25
571.49	2612.41
571.84	2612.71
572.20	2612.23
572.55	2611.63
572.90	2610.41
573.26	2609.39
573.61	2607.82
573.96	2606.70
574.31	2603.94
574.67	2601.11
575.02	2597.58
575.37	2594.17
575.72	2590.51
576.08	2587.03
576.43	2583.78
576.78	2580.16
577.13	2576.78
577.49	2573.64
577.84	2570.30
578.19	2566.49
578.54	2562.92
578.90	2558.86
579.25	2552.90
579.60	2547.58
579.95	2542.31
580.30	2537.21
580.66	2531.76
581.01	2526.64
581.36	2521.32
581.71	2517.03
582.06	2512.38
582.42	2507.67
582.77	2502.08
583.12	2497.24
583.47	2492.52
583.82	2487.33
584.17	2481.88
584.53	2476.11
584.88	2470.03
585.23	2463.86
585.58	2457.80
585.93	2451.55
586.28	2446.26
586.63	2440.95
586.98	2435.50
587.34	2430.36
587.69	2424.93
588.04	2419.21
588.39	2412.99
588.74	2405.75
589.09	2398.89
589.44	2391.32
589.79	2384.50
590.14	2378.21
590.49	2370.72
590.84	2363.29
591.19	2356.52
591.54	2349.16
591.89	2341.04
592.25	2333.42
592.60	2324.99
592.95	2316.57
593.30	2308.39
593.65	2299.68
594.00	2291.51
594.35	2283.15
594.70	2273.92
595.05	2265.81
595.40	2257.37
595.75	2248.73
596.10	2241.69
596.45	2234.01
596.80	2226.92
597.15	2219.42
597.50	2211.56
597.85	2204.15
598.19	2196.54
598.54	2188.36
598.89	2180.69
599.24	2173.69
599.59	2166.03
599.94	2158.87
600.29	2151.52
600.64	2143.85
600.99	2135.36
601.34	2127.48
601.69	2119.57
602.04	2111.78
602.39	2103.23
602.74	2095.41
603.08	2087.62
603.43	2079.68
603.78	2071.11
604.13	2062.74
604.48	2054.39
604.83	2046.20
605.18	2038.32
605.53	2029.20
605.87	2019.80
606.22	2011.30
606.57	2002.03
606.92	1993.27
607.27	1984.98
607.62	1976.82
607.96	1968.31
608.31	1960.60
608.66	1951.73
609.01	1942.82
609.36	1933.94
609.70	1924.49
610.05	1915.10
610.40	1906.04
610.75	1896.30
611.10	1887.49
611.44	1877.47
611.79	1867.98
612.14	1857.85
612.49	1846.82
612.83	1836.79
613.18	1827.27
613.53	1817.66
613.88	1807.52
614.22	1797.82
614.57	1787.61
614.92	1778.16
615.27	1769.32
615.61	1759.51
615.96	1750.01
616.31	1740.90
616.65	1732.11
617.00	1723.18
617.35	1713.92
617.70	1704.12
618.04	1694.15
618.39	1684.31
618.74	1675.47
619.08	1665.60
619.43	1656.57
619.78	1648.55
620.12	1640.05
620.47	1631.15
620.82	1621.60
621.16	1612.93
621.51	1603.93
621.85	1595.02
622.20	1584.91
622.55	1574.98
622.89	1565.69
623.24	1556.65
623.59	1547.90
623.93	1539.18
624.28	1530.65
624.62	1521.82
624.97	1513.26
625.32	1505.24
625.66	1496.90
626.01	1488.44
626.35	1479.82
626.70	1470.61
627.04	1461.47
627.39	1452.31
627.73	1443.57
628.08	1435.42
628.43	1426.83
628.77	1418.23
629.12	1409.38
629.46	1400.99
629.81	1392.15
630.15	1383.67
630.50	1375.00
630.84	1365.42
631.19	1356.02
631.53	1347.15
631.88	1338.23
632.22	1329.31
632.57	1320.61
632.91	1311.79
633.26	1302.95
633.60	1294.13
633.95	1285.77
634.29	1277.47
634.64	1269.65
634.98	1260.96
635.32	1252.59
635.67	1244.80
636.01	1237.01
636.36	1229.01
636.70	1221.25
637.05	1213.71
637.39	1206.02
637.73	1198.42
638.08	1191.44
638.42	1184.36
638.77	1176.81
639.11	1169.19
639.45	1161.74
639.80	1153.97
640.14	1146.46
640.49	1138.88
640.83	1131.63
641.17	1124.41
641.52	1116.93
641.86	1109.28
642.20	1102.45
642.55	1094.95
642.89	1087.43
643.23	1079.69
643.58	1072.97
643.92	1065.79
644.26	1058.66
644.61	1051.66
644.95	1044.63
645.29	1037.02
645.64	1029.10
645.98	1021.69
646.32	1014.81
646.66	1007.80
647.01	1001.09
647.35	994.37
647.69	987.52
648.04	980.98
648.38	974.20
648.72	967.36
649.06	960.40
649.41	953.48
649.75	946.64
650.09	939.72
650.43	933.14
650.78	925.86
651.12	918.97
651.46	912.31
651.80	905.59
652.14	899.26
652.49	893.04
652.83	887.05
653.17	880.47
653.51	873.91
653.85	867.62
654.20	861.07
654.54	854.16
654.88	847.47
655.22	840.60
655.56	833.99
655.90	827.60
656.25	821.51
656.59	815.29
656.93	809.37
657.27	803.42
657.61	797.10
657.95	791.31
658.29	785.39
658.64	779.31
658.98	773.16
659.32	766.90
659.66	760.74
660.00	754.63
660.34	748.89
660.68	743.15
661.02	737.31
661.36	731.78
661.70	726.57
662.05	721.53
662.39	716.54
662.73	711.27
663.07	706.20
663.41	701.09
663.75	695.92
664.09	690.61
664.43	685.51
664.77	680.73
665.11	675.73
665.45	670.88
665.79	666.16
666.13	661.36
666.47	656.61
666.81	651.92
667.15	647.13
667.49	642.58
667.83	638.13
668.17	633.62
668.51	628.99
668.85	624.29
669.19	619.84
669.53	615.46
669.87	611.07
670.21	606.73
670.55	602.48
670.89	598.55
671.23	594.56
671.57	590.46
671.91	586.34
672.25	582.26
672.58	578.22
672.92	574.14
673.26	570.48
673.60	566.76
673.94	563.13
674.28	559.76
674.62	556.38
674.96	552.86
675.30	549.41
675.64	545.99
675.97	542.79
676.31	539.49
676.65	536.01
676.99	532.89
677.33	529.58
677.67	526.35
678.01	522.84
678.34	519.39
678.68	516.06
679.02	512.80
679.36	509.68
679.70	506.51
680.04	503.37
680.37	500.09
680.71	496.88
681.05	493.86
681.39	490.74
681.73	487.64
682.06	484.69
682.40	481.79
682.74	478.87
683.08	475.93
683.42	472.98
683.75	470.18
684.09	467.18
684.43	464.33
684.77	461.48
685.10	458.72
685.44	456.04
685.78	453.42
686.12	450.83
686.45	448.11
686.79	445.49
687.13	442.97
687.46	440.46
687.80	437.95
688.14	435.33
688.48	432.93
688.81	430.36
689.15	427.88
689.49	425.38
689.82	422.99
690.16	420.50
690.50	418.19
690.83	415.92
691.17	413.61
691.51	411.39
691.84	409.25
692.18	407.05
692.52	404.79
692.85	402.49
693.19	400.25
693.52	398.14
693.86	396.03
694.20	393.95
694.53	391.83
694.87	389.67
695.21	387.62
695.54	385.44
695.88	383.41
696.21	381.38
696.55	379.41
696.88	377.40
697.22	375.52
697.56	373.61
697.89	371.67
698.23	369.83
698.56	367.99
698.90	366.12
699.23	364.16
699.57	362.35
699.90	360.58
700.24	358.82
700.58	357.05
700.91	355.31
701.25	353.62
701.58	352.03
701.92	350.44
702.25	348.83
702.59	347.21
702.92	345.65
703.26	344.17
703.59	342.73
703.93	341.37
704.26	339.93
704.60	338.46
704.93	337.00
705.26	335.53
705.60	334.11
705.93	332.75
706.27	331.55
706.60	330.31
706.94	329.01
707.27	327.67
707.61	326.42
707.94	325.19
708.27	323.93
708.61	322.66
708.94	321.50
709.28	320.37
709.61	319.27
709.94	318.17
710.28	316.93
710.61	315.72
710.95	314.44
711.28	313.33
711.61	312.16
711.95	311.10
712.28	310.01
712.61	308.86
712.95	307.75
713.28	306.70
713.61	305.65
713.95	304.69
714.28	303.69
714.61	302.69
714.95	301.73
715.28	300.71
715.61	299.69
715.95	298.66
716.28	297.59
716.61	296.63
716.95	295.64
717.28	294.77
717.61	293.84
717.94	292.97
718.28	292.03
718.61	291.22
718.94	290.35
719.27	289.57
719.61	288.80
719.94	288.04
720.27	287.25
720.60	286.46
720.94	285.67
721.27	284.99
721.60	284.32
721.93	283.61
722.27	282.99
722.60	282.34
722.93	281.70
723.26	281.13
723.59	280.50
723.93	279.90
724.26	279.29
724.59	278.68
724.92	278.10
725.25	277.56
725.59	276.95
725.92	276.42
726.25	275.82
726.58	275.26
726.91	274.71
727.24	274.16
727.57	273.62
727.91	273.08
728.24	272.56
728.57	271.98
728.90	271.46
729.23	270.89
729.56	270.40
729.89	269.84
730.22	269.26
730.55	268.73
730.89	268.23
731.22	267.67
731.55	267.19
731.88	266.68
732.21	266.17
732.54	265.70
732.87	265.19
733.20	264.72
733.53	264.27
733.86	263.81
734.19	263.36
734.52	262.91
734.85	262.52
735.18	262.02
735.51	261.60
735.84	261.17
736.17	260.79
736.50	260.33
736.83	260.06
737.16	259.72
737.49	259.31
737.82	258.91
738.15	258.56
738.48	258.15
738.81	257.79
739.14	257.40
739.47	257.01
739.80	256.64
740.13	256.25
740.46	255.90
740.79	255.52
741.12	255.14
741.45	254.77
741.78	254.36
742.11	254.04
742.44	253.64
742.77	253.29
743.10	252.91
743.43	252.57
743.75	252.13
744.08	251.89
744.41	251.58
744.74	251.24
745.07	250.89
745.40	250.60
745.73	250.29
746.06	249.98
746.39	249.69
746.71	249.36
747.04	249.08
747.37	248.76
747.70	248.49
748.03	248.20
748.36	247.96
748.68	247.70
749.01	247.41
749.34	247.16
749.67	246.91
750.00	246.64
750.33	246.44
750.65	246.22
750.98	245.85
751.31	245.59
751.64	245.41
751.97	245.21
752.29	244.97
752.62	244.71
752.95	244.48
753.28	244.22
753.60	244.00
753.93	243.76
754.26	243.53
754.59	243.25
754.91	243.00
755.24	242.74
755.57	242.52
755.90	242.30
756.22	242.05
756.55	241.79
756.88	241.55
757.20	241.30
757.53	241.01
757.86	240.82
758.19	240.63
758.51	240.39
758.84	240.16
759.17	239.94
759.49	239.74
759.82	239.58
760.15	239.39
760.47	239.19
760.80	239.00
761.13	238.88
761.45	238.70
761.78	238.54
762.11	238.36
762.43	238.19
762.76	238.03
763.08	237.86
763.41	237.70
763.74	237.56
764.06	237.39
764.39	237.26
764.71	237.12
765.04	236.94
765.37	236.76
765.69	236.61
766.02	236.45
766.34	236.33
766.67	236.16
767.00	236.01
767.32	235.94
767.65	235.87
767.97	235.68
768.30	235.55
768.62	235.41
768.95	235.26
769.27	235.12
769.60	235.01
769.92	234.91
770.25	234.78
770.57	234.63
770.90	234.51
771.22	234.38
771.55	234.24
771.87	234.14
772.20	234.03
772.52	234.02
772.85	234.03
773.17	233.92
773.50	233.80
773.82	233.69
774.15	233.54
774.47	233.39
774.80	233.29
775.12	233.19
775.45	233.09
775.77	233.01
776.09	232.92
776.42	232.81
776.74	232.74
777.07	232.64
777.39	232.54
777.72	232.43
778.04	232.34
778.36	232.25
778.69	232.21
779.01	232.16
779.33	231.95
779.66	231.73
779.98	231.63
780.31	231.55
780.63	231.49
780.95	231.40
781.28	231.33
781.60	231.26
781.92	231.20
782.25	231.12
782.57	231.04
782.89	230.96
783.22	230.89
783.54	230.79
783.86	230.72
784.19	230.69
784.51	230.68
784.83	230.60
785.16	230.55
785.48	230.45
785.80	230.32
786.12	230.30
786.45	230.27
786.77	230.22
787.09	230.15
787.42	230.12
787.74	230.09
788.06	230.03
788.38	229.97
788.71	229.93
789.03	229.91
789.35	229.87
789.67	229.80
789.99	229.77
790.32	229.74
790.64	229.72
790.96	229.77
791.28	229.68
791.61	229.63
791.93	229.57
792.25	229.54
792.57	229.62
792.89	229.54
793.21	229.51
793.54	229.47
793.86	229.43
794.18	229.33
794.50	229.27
794.82	229.23
795.14	229.15
795.47	229.10
795.79	229.03
796.11	228.99
796.43	228.98
796.75	228.93
797.07	228.89
797.39	228.84
797.71	228.72
798.04	228.70
798.36	228.70
798.68	228.68
799.00	228.65
799.32	228.56
799.64	228.56
799.96	228.54
800.28	228.54
800.60	228.49
800.92	228.49
801.24	228.44
801.56	228.44
801.89	228.44
802.21	228.43
802.53	228.41
802.85	228.39
803.17	228.41
803.49	228.32
803.81	228.27
804.13	228.24
804.45	228.18
804.77	228.15
805.09	228.09
805.41	228.05
805.73	227.98
806.05	227.92
806.37	227.89
806.69	227.83
807.01	227.80
807.33	227.78
807.65	227.74
807.97	227.80
808.28	227.74
808.60	227.71
808.92	227.64
809.24	227.67
809.56	227.62
809.88	227.52
810.20	227.54
810.52	227.53
810.84	227.45
811.16	227.40
811.48	227.40
811.80	227.40
812.12	227.38
812.43	227.37
812.75	227.37
813.07	227.36
813.39	227.34
813.71	227.28
814.03	227.27
814.35	227.25
814.67	227.12
814.98	227.12
815.30	227.09
815.62	227.06
815.94	226.98
816.26	227.00
816.58	226.96
816.89	226.95
817.21	226.90
817.53	226.93
817.85	226.94
818.17	226.92
818.48	226.85
818.80	226.85
819.12	226.84
819.44	226.79
819.76	226.71
820.07	226.69
820.39	226.69
820.71	226.68
821.03	226.67
821.34	226.69
821.66	226.66
821.98	226.67
822.30	226.68
822.61	226.68
822.93	226.62
823.25	226.64
823.57	226.64
823.88	226.65
824.20	226.62
824.52	226.62
824.83	226.57
825.15	226.57
825.47	226.53
825.79	226.52
826.10	226.50
826.42	226.51
826.74	226.50
827.05	226.48
827.37	226.48
827.69	226.45
828.00	226.41
828.32	226.38
828.64	226.33
828.95	226.38
829.27	226.37
829.58	226.35
829.90	226.36
830.22	226.30
830.53	226.28
830.85	226.28
831.17	226.26
831.48	226.26
831.80	226.24
832.11	226.25
832.43	226.20
832.75	226.20
833.06	226.26
833.38	226.24
833.69	226.22
834.01	226.20
834.32	226.21
834.64	226.23
834.96	226.25
835.27	226.27
835.59	226.25
835.90	226.22
836.22	226.24
836.53	226.20
836.85	226.21
837.16	226.29
837.48	226.29
837.79	226.30
838.11	226.30
838.42	226.29
838.74	226.30
839.05	226.28
839.37	226.26
839.68	226.22
840.00	226.17
840.31	226.17
840.63	226.16
840.94	226.13
841.26	226.12
841.57	226.10
841.88	226.06
842.20	226.00
842.51	225.97
842.83	225.97
843.14	226.04
843.46	226.06
843.77	225.98
844.08	225.96
844.40	225.91
844.71	225.90
845.03	225.91
845.34	225.86
845.65	225.87
845.97	225.87
846.28	225.87
846.60	225.89
846.91	225.88
847.22	225.88
847.54	225.89
847.85	225.85
848.16	225.80
848.48	225.81
848.79	225.83
849.10	225.85
849.42	225.83
849.73	225.76
850.04	225.73
850.36	225.72
850.67	225.73
850.98	225.71
851.30	225.73
851.61	225.74
851.92	225.73
852.23	225.79
852.55	225.80
852.86	225.79
853.17	225.80
853.49	225.82
853.80	225.80
854.11	225.78
854.42	225.84
854.74	225.83
855.05	225.82
855.36	225.79
855.67	225.78
855.99	225.75
856.30	225.85
856.61	225.81
856.92	225.80
857.23	225.78
857.55	225.81
857.86	225.77
858.17	225.79
858.48	225.77
858.79	225.72
859.11	225.69
859.42	225.66
859.73	225.63
860.04	225.62
860.35	225.60
860.66	225.59
860.98	225.56
861.29	225.57
861.60	225.59
861.91	225.63
862.22	225.60
862.53	225.62
862.84	225.52
863.16	225.58
863.47	225.57
863.78	225.55
864.09	225.52
864.40	225.50
864.71	225.47
865.02	225.50
865.33	225.46
865.64	225.42
865.95	225.41
866.27	225.49
866.58	225.44
866.89	225.47
867.20	225.43
867.51	225.41
867.82	225.41
868.13	225.41
868.44	225.36
868.75	225.38
869.06	225.37
869.37	225.34
869.68	225.29
869.99	225.27
870.30	225.27
870.61	225.29
870.92	225.30
871.23	225.30
871.54	225.29
871.85	225.34
872.16	225.37
872.47	225.37
872.78	225.28
873.09	225.29
873.40	225.27
873.71	225.31
874.02	225.32
874.33	225.31
874.64	225.28
874.95	225.28
875.26	225.23
875.56	225.24
875.87	225.22
876.18	225.19
876.49	225.30
876.80	225.30
877.11	225.28
877.42	225.30
877.73	225.26
878.04	225.29
878.35	225.26
878.66	225.24
878.96	225.26
879.27	225.24
879.58	225.25
879.89	225.20
880.20	225.20
880.51	225.17
880.82	225.18
881.12	225.19
881.43	225.17
881.74	225.14
882.05	225.11
882.36	225.14
882.67	225.17
882.97	225.06
883.28	225.03
883.59	225.00
883.90	224.95
884.21	224.98
884.51	224.94
884.82	224.93
885.13	224.94
885.44	224.92
885.74	224.93
886.05	224.91
886.36	224.92
886.67	224.89
886.98	224.93
887.28	224.95
887.59	224.93
887.90	224.94
888.20	224.98
888.51	225.01
888.82	224.97
889.13	224.96
889.43	225.03
889.74	225.05
890.05	225.07
890.35	225.10
890.66	225.08
890.97	225.07
891.28	225.05
891.58	225.05
891.89	225.08
892.20	225.10
892.50	225.08
892.81	225.09
893.12	225.09
893.42	225.05
893.73	225.03
894.04	225.04
894.34	225.02
894.65	225.02
894.95	224.99
895.26	225.01
895.57	225.07
895.87	225.00
896.18	225.01
896.48	225.04
896.79	225.07
897.10	225.11
897.40	225.11
897.71	225.13
898.01	225.13
898.32	225.16
898.63	225.15
898.93	225.16
899.24	225.20
899.54	225.21
899.85	225.21
900.15	225.21
900.46	225.23
900.76	225.26
901.07	225.26
901.38	225.29
901.68	225.30
901.99	225.26
902.29	225.27
902.60	225.28
902.90	225.26
903.21	225.23
903.51	225.22
903.82	225.28
904.12	225.29
904.43	225.29
904.73	225.23
905.03	225.24
905.34	225.33
905.64	225.30
905.95	225.31
906.25	225.30
906.56	225.31
906.86	225.31
907.17	225.30
907.47	225.32
907.77	225.33
908.08	225.31
908.38	225.30
908.69	225.30
908.99	225.31
909.30	225.31
909.60	225.30
909.90	225.28
910.21	225.23
910.51	225.21
910.81	225.22
911.12	225.27
911.42	225.24
911.73	225.17
912.03	225.19
912.33	225.20
912.64	225.23
912.94	225.20
913.24	225.21
913.55	225.20
913.85	225.20
914.15	225.19
914.46	225.20
914.76	225.19
915.06	225.19
915.37	225.17
915.67	225.14
915.97	225.12
916.27	225.09
916.58	225.08
916.88	225.09
917.18	225.07
917.49	225.10
917.79	225.10
918.09	225.11
918.39	225.13
918.70	225.11
919.00	225.07
919.30	225.09
919.60	225.08
919.91	225.07
920.21	225.04
920.51	225.01
920.81	225.01
921.12	225.02
921.42	225.01
921.72	225.01
922.02	225.01
922.32	225.06
922.63	225.04
922.93	225.10
923.23	225.10
923.53	225.05
923.83	224.97
924.13	225.01
924.44	224.98
924.74	224.98
925.04	224.99
925.34	225.01
925.64	224.97
925.94	224.95
926.24	224.98
926.55	224.99
926.85	224.99
927.15	224.99
927.45	224.98
927.75	224.97
928.05	224.95
928.35	224.98
928.65	224.97
928.95	224.99
929.26	224.94
929.56	224.95
929.86	224.97
930.16	224.99
930.46	224.98
930.76	224.96
931.06	224.92
931.36	224.88
931.66	224.90
931.96	224.87
932.26	224.88
932.56	224.87
932.86	224.88
933.16	224.87
933.46	224.88
933.76	224.87
934.06	224.90
934.36	224.94
934.66	224.92
934.96	224.91
935.26	224.91
935.56	224.95
935.86	224.94
936.16	224.95
936.46	224.93
936.76	224.92
937.06	224.93
937.36	224.95
937.66	224.96
937.96	224.92
938.26	224.98
938.56	224.98
938.86	224.98
939.16	224.98
939.46	224.99
939.76	225.01
940.06	224.99
940.35	224.96
940.65	224.90
940.95	224.91
941.25	224.88
941.55	224.87
941.85	224.84
942.15	224.85
942.45	224.90
942.75	224.90
943.04	224.90
943.34	224.90
943.64	224.88
943.94	224.85
944.24	224.90
944.54	224.92
944.84	224.93
945.13	224.89
945.43	224.89
945.73	224.94
946.03	224.94
946.33	224.95
946.62	224.96
946.92	224.98
947.22	224.97
947.52	224.97
947.82	225.01
948.11	225.01
948.41	224.98
948.71	224.93
949.01	224.94
949.31	224.94
949.60	224.92
949.90	224.96
950.20	224.97
950.50	224.94
950.79	224.91
951.09	224.90
951.39	224.93
951.69	224.92
951.98	224.87
952.28	224.87
952.58	224.85
952.87	224.83
953.17	224.88
953.47	224.88
953.76	224.88
954.06	224.83
954.36	224.80
954.66	224.83
954.95	224.84
955.25	224.83
955.55	224.82
955.84	224.82
956.14	224.79
956.44	224.80
956.73	224.81
957.03	224.78
957.32	224.78
957.62	224.77
957.92	224.78
958.21	224.77
958.51	224.90
958.81	224.92
959.10	224.92
959.40	224.92
959.69	224.93
959.99	224.97
960.29	224.97
960.58	224.97
960.88	225.00
961.17	225.00
961.47	225.03
961.76	225.03
962.06	225.03
962.36	225.01
962.65	225.02
962.95	225.00
963.24	225.00
963.54	224.99
963.83	225.00
964.13	224.97
964.42	224.97
964.72	224.87
965.01	224.86
965.31	224.87
965.60	224.82
965.90	224.86
966.19	224.81
966.49	224.83
966.78	224.84
967.08	224.83
967.37	224.83
967.67	224.79
967.96	224.84
968.26	224.86
968.55	224.86
968.85	224.88
969.14	224.90
969.43	224.92
969.73	224.93
970.02	224.94
970.32	224.95
970.61	224.95
970.91	224.92
971.20	224.90
971.49	224.89
971.79	224.91
972.08	224.84
972.38	224.89
972.67	224.90
972.96	224.90
973.26	224.86
973.55	224.90
973.85	224.92
974.14	224.89
974.43	224.89
974.73	224.91
975.02	224.87
975.31	224.83
975.61	224.82
975.90	224.82
976.19	224.80
976.49	224.84
976.78	224.86
977.07	224.84
977.37	224.85
977.66	224.87
977.95	224.89
978.24	224.92
978.54	224.92
978.83	224.90
979.12	224.89
979.42	224.91
979.71	224.90
980.00	224.90
980.29	224.90
980.59	224.89
980.88	224.88
981.17	224.92
981.46	224.96
981.76	224.96
982.05	224.94
982.34	224.94
982.63	224.91
982.93	224.89
983.22	224.91
983.51	224.95
983.80	224.93
984.09	224.90
984.39	224.86
984.68	224.81
984.97	224.82
985.26	224.83
985.55	224.85
985.85	224.82
986.14	224.81
986.43	224.82
986.72	224.78
987.01	224.76
987.30	224.72
987.59	224.70
987.89	224.68
988.18	224.66
988.47	224.63
988.76	224.64
989.05	224.65
989.34	224.62
989.63	224.62
989.92	224.61
990.22	224.58
990.51	224.59
990.80	224.63
991.09	224.62
991.38	224.62
991.67	224.58
991.96	224.57
992.25	224.57
992.54	224.55
992.83	224.55
993.12	224.56
993.41	224.55
993.70	224.57
993.99	224.59
994.28	224.59
994.58	224.62
994.87	224.58
995.16	224.57
995.45	224.58
995.74	224.56
996.03	224.59
996.32	224.61
996.61	224.61
996.90	224.57
997.19	224.57
997.48	224.56
997.77	224.55
998.06	224.55
998.34	224.55
998.63	224.54
998.92	224.56
999.21	224.59
999.50	224.62
999.79	224.58
1000.08	224.57
1000.37	224.59
1000.66	224.58
1000.95	224.62
1001.24	224.61
1001.53	224.63
1001.82	224.64
1002.11	224.58
1002.40	224.59
1002.68	224.62
1002.97	224.72
1003.26	224.72
1003.55	224.74
1003.84	224.75
1004.13	224.80
1004.42	224.81
1004.71	224.84
1004.99	224.81
1005.28	224.85
1005.57	224.83
1005.86	224.87
1006.15	224.86
1006.44	224.84
1006.72	224.86
1007.01	224.84
1007.30	224.84
1007.59	224.82
1007.88	224.85
1008.17	224.90
1008.45	224.87
1008.74	224.87
1009.03	224.81
1009.32	224.80
1009.60	224.80
1009.89	224.79
1010.18	224.75
1010.47	224.76
1010.76	224.77
1011.04	224.80
1011.33	224.81
1011.62	224.82
1011.91	224.82
1012.19	224.86
1012.48	224.85
1012.77	224.84
1013.05	224.91
1013.34	224.94
1013.63	224.95
1013.92	224.96
1014.20	224.97
1014.49	225.01
1014.78	224.99
1015.06	224.96
1015.35	224.99
1015.64	225.01
1015.92	225.02
1016.21	225.02
1016.50	225.01
1016.78	225.00
1017.07	225.02
1017.36	224.99
1017.64	224.97
1017.93	224.98
1018.22	224.97
1018.50	224.99
1018.79	225.01
1019.08	224.94
1019.36	224.95
1019.65	224.94
1019.93	224.92
1020.22	224.93
1020.51	224.96
1020.79	224.94
1021.08	224.96
1021.36	224.79
1021.65	225.12
1021.94	224.75
1022.22	225.35
1022.51	224.67
1022.79	224.83
1023.08	225.16
1023.36	225.96
1023.65	224.27
>>>>>End Processed Spectral Data<<<<<
