SpectraSuite Data File
++++++++++++++++++++++++++++++++++++
Date: Fri Feb 01 15:59:03 EST 2013
User: group
Dark Spectrum Present: No
Reference Spectrum Present: No
Number of Sampled Component Spectra: 1
Spectrometers: USB2E7196
Integration Time (usec): 35000 (USB2E7196)
Spectra Averaged: 100 (USB2E7196)
Boxcar Smoothing: 10 (USB2E7196)
Correct for Electrical Dark: No (USB2E7196)
Strobe/Lamp Enabled: No (USB2E7196)
Correct for Detector Non-linearity: No (USB2E7196)
Correct for Stray Light: No (USB2E7196)
Number of Pixels in Processed Spectrum: 2048
>>>>>Begin Processed Spectral Data<<<<<
339.09	0.00
339.48	214.78
339.86	217.08
340.24	216.98
340.63	219.50
341.01	222.16
341.39	221.55
341.78	223.54
342.16	224.16
342.54	224.62
342.93	213.16
343.31	223.93
343.69	224.48
344.07	224.92
344.46	225.36
344.84	225.71
345.22	225.93
345.60	226.18
345.99	226.35
346.37	226.49
346.75	226.59
347.13	226.61
347.52	226.63
347.90	226.69
348.28	226.76
348.66	226.81
349.05	226.81
349.43	226.86
349.81	226.89
350.19	226.93
350.57	226.98
350.96	227.05
351.34	227.17
351.72	227.21
352.10	227.27
352.48	227.36
352.87	227.43
353.25	227.50
353.63	227.56
354.01	227.61
354.39	227.69
354.77	227.75
355.15	227.86
355.54	227.95
355.92	227.99
356.30	228.08
356.68	228.22
357.06	228.33
357.44	228.35
357.82	228.47
358.20	228.54
358.58	228.62
358.97	228.69
359.35	228.72
359.73	228.81
360.11	228.89
360.49	228.92
360.87	228.97
361.25	229.02
361.63	229.10
362.01	229.14
362.39	229.15
362.77	229.21
363.15	229.23
363.53	229.27
363.91	229.32
364.29	229.28
364.67	229.21
365.05	229.20
365.43	229.23
365.81	229.24
366.19	229.27
366.57	229.31
366.95	229.30
367.33	229.27
367.71	229.25
368.09	229.27
368.47	229.27
368.85	229.24
369.23	229.26
369.61	229.21
369.99	229.22
370.37	229.22
370.75	229.24
371.13	229.16
371.51	229.10
371.89	229.06
372.27	229.03
372.65	229.00
373.03	228.95
373.41	228.91
373.78	228.81
374.16	228.71
374.54	228.62
374.92	228.55
375.30	228.50
375.68	228.45
376.06	228.37
376.44	228.31
376.82	228.23
377.19	228.12
377.57	228.02
377.95	227.91
378.33	227.82
378.71	227.69
379.09	227.65
379.47	227.61
379.84	227.50
380.22	227.41
380.60	227.32
380.98	227.26
381.36	227.18
381.73	227.14
382.11	227.12
382.49	227.07
382.87	226.98
383.25	226.93
383.62	226.97
384.00	226.90
384.38	226.87
384.76	226.83
385.13	226.83
385.51	226.80
385.89	226.76
386.27	226.76
386.64	226.69
387.02	226.65
387.40	226.62
387.78	226.58
388.15	226.55
388.53	226.51
388.91	226.50
389.29	226.45
389.66	226.43
390.04	226.38
390.42	226.36
390.79	226.37
391.17	226.35
391.55	226.22
391.92	226.22
392.30	226.19
392.68	226.17
393.05	226.14
393.43	226.15
393.81	226.18
394.18	226.14
394.56	226.22
394.94	226.24
395.31	226.24
395.69	226.32
396.06	226.38
396.44	226.41
396.82	226.39
397.19	226.50
397.57	226.52
397.95	226.56
398.32	226.57
398.70	226.61
399.07	226.69
399.45	226.77
399.82	226.82
400.20	226.88
400.58	226.98
400.95	227.01
401.33	227.10
401.70	227.22
402.08	227.33
402.45	227.40
402.83	227.54
403.20	227.62
403.58	227.68
403.95	227.79
404.33	227.93
404.71	228.06
405.08	228.21
405.46	228.33
405.83	228.47
406.21	228.63
406.58	228.78
406.96	228.94
407.33	229.09
407.70	229.27
408.08	229.56
408.45	229.75
408.83	230.02
409.20	230.20
409.58	230.36
409.95	230.60
410.33	230.88
410.70	231.12
411.08	231.42
411.45	231.76
411.82	232.09
412.20	232.45
412.57	232.86
412.95	233.15
413.32	233.56
413.69	233.97
414.07	234.42
414.44	234.90
414.82	235.36
415.19	235.93
415.56	236.49
415.94	237.01
416.31	237.70
416.68	238.34
417.06	239.06
417.43	239.76
417.81	240.55
418.18	241.33
418.55	242.16
418.93	243.04
419.30	243.92
419.67	244.85
420.04	245.82
420.42	246.81
420.79	248.00
421.16	249.19
421.54	250.44
421.91	251.67
422.28	252.94
422.66	254.29
423.03	255.60
423.40	256.94
423.77	258.38
424.15	259.77
424.52	261.24
424.89	262.87
425.26	264.43
425.64	265.88
426.01	267.44
426.38	269.13
426.75	270.80
427.13	272.55
427.50	274.36
427.87	276.21
428.24	278.10
428.61	279.83
428.99	281.79
429.36	283.87
429.73	285.93
430.10	287.94
430.47	290.02
430.85	292.12
431.22	294.34
431.59	296.75
431.96	299.01
432.33	301.55
432.70	303.91
433.08	306.73
433.45	309.37
433.82	311.97
434.19	314.85
434.56	317.66
434.93	320.29
435.30	322.91
435.68	325.81
436.05	328.63
436.42	331.43
436.79	333.90
437.16	336.57
437.53	339.37
437.90	342.17
438.27	344.88
438.64	347.75
439.01	350.32
439.38	352.50
439.75	354.66
440.13	357.11
440.50	359.44
440.87	361.26
441.24	363.19
441.61	365.33
441.98	366.81
442.35	368.61
442.72	370.44
443.09	372.23
443.46	373.18
443.83	373.76
444.20	374.29
444.57	375.12
444.94	375.43
445.31	375.78
445.68	376.15
446.05	376.22
446.42	375.83
446.79	375.46
447.16	375.01
447.53	374.69
447.90	373.51
448.27	372.35
448.64	370.81
449.01	369.67
449.37	367.72
449.74	365.82
450.11	363.59
450.48	361.16
450.85	358.60
451.22	356.48
451.59	354.49
451.96	352.53
452.33	349.94
452.70	347.58
453.07	344.75
453.43	341.85
453.80	339.04
454.17	336.35
454.54	333.81
454.91	331.12
455.28	328.43
455.65	325.99
456.02	323.57
456.38	321.38
456.75	318.74
457.12	316.50
457.49	314.25
457.86	312.06
458.23	310.17
458.59	308.17
458.96	306.14
459.33	304.25
459.70	302.38
460.07	300.85
460.43	299.09
460.80	297.48
461.17	296.03
461.54	294.58
461.91	293.13
462.27	291.66
462.64	290.40
463.01	289.02
463.38	287.69
463.74	286.32
464.11	285.14
464.48	284.10
464.85	282.99
465.21	282.13
465.58	281.21
465.95	280.12
466.32	279.23
466.68	278.30
467.05	277.45
467.42	276.58
467.78	275.64
468.15	274.79
468.52	274.10
468.88	273.24
469.25	272.46
469.62	271.85
469.98	271.20
470.35	270.56
470.72	270.00
471.08	269.34
471.45	268.82
471.82	268.32
472.18	267.77
472.55	267.32
472.92	266.84
473.28	266.37
473.65	265.93
474.02	265.47
474.38	265.09
474.75	264.74
475.11	264.37
475.48	264.11
475.85	263.86
476.21	263.67
476.58	263.50
476.94	263.35
477.31	263.19
477.67	263.02
478.04	262.93
478.41	262.84
478.77	262.90
479.14	262.81
479.50	262.80
479.87	262.82
480.23	262.90
480.60	262.97
480.96	263.08
481.33	263.30
481.69	263.51
482.06	263.77
482.42	263.99
482.79	264.26
483.15	264.59
483.52	264.97
483.88	265.34
484.25	265.78
484.61	266.28
484.98	266.72
485.34	267.29
485.71	267.85
486.07	268.48
486.44	269.03
486.80	269.76
487.17	270.48
487.53	271.32
487.90	272.17
488.26	273.10
488.62	274.08
488.99	275.05
489.35	276.11
489.72	277.18
490.08	278.37
490.44	279.61
490.81	280.93
491.17	282.31
491.54	283.80
491.90	285.29
492.26	286.87
492.63	288.56
492.99	290.33
493.36	292.24
493.72	294.28
494.08	296.38
494.45	298.61
494.81	301.01
495.17	303.43
495.54	306.02
495.90	308.74
496.26	311.50
496.63	314.47
496.99	317.56
497.35	320.80
497.72	324.16
498.08	327.68
498.44	331.40
498.80	335.34
499.17	339.35
499.53	343.55
499.89	347.92
500.26	352.45
500.62	357.12
500.98	362.12
501.34	367.22
501.71	372.57
502.07	378.07
502.43	383.63
502.79	389.47
503.16	395.59
503.52	401.86
503.88	408.31
504.24	414.95
504.60	421.86
504.97	429.04
505.33	436.44
505.69	444.21
506.05	452.02
506.41	459.89
506.78	468.10
507.14	476.56
507.50	485.30
507.86	494.37
508.22	503.64
508.59	512.82
508.95	522.37
509.31	532.25
509.67	542.33
510.03	552.72
510.39	563.30
510.75	574.09
511.12	584.99
511.48	596.31
511.84	607.86
512.20	619.35
512.56	631.36
512.92	643.54
513.28	655.84
513.64	668.26
514.00	680.99
514.37	693.85
514.73	706.88
515.09	719.99
515.45	733.27
515.81	746.76
516.17	760.80
516.53	774.95
516.89	789.04
517.25	803.15
517.61	817.48
517.97	831.88
518.33	846.25
518.69	860.93
519.05	875.96
519.41	891.06
519.77	906.59
520.13	921.99
520.49	937.32
520.85	952.75
521.21	968.47
521.57	984.69
521.93	1000.39
522.29	1016.80
522.65	1032.93
523.01	1049.21
523.37	1065.28
523.73	1081.34
524.09	1097.42
524.45	1113.74
524.81	1130.38
525.17	1147.26
525.53	1164.17
525.89	1181.06
526.25	1197.92
526.61	1214.25
526.97	1230.99
527.33	1247.44
527.68	1264.06
528.04	1280.51
528.40	1297.02
528.76	1314.05
529.12	1330.62
529.48	1347.57
529.84	1363.56
530.20	1380.25
530.56	1397.12
530.91	1414.51
531.27	1431.24
531.63	1447.65
531.99	1464.14
532.35	1480.05
532.71	1495.93
533.07	1512.12
533.42	1527.95
533.78	1543.97
534.14	1560.20
534.50	1575.50
534.86	1591.40
535.21	1606.41
535.57	1622.26
535.93	1637.71
536.29	1652.47
536.65	1667.35
537.00	1682.09
537.36	1697.28
537.72	1711.83
538.08	1726.26
538.44	1739.92
538.79	1753.69
539.15	1767.31
539.51	1780.91
539.87	1795.13
540.22	1808.69
540.58	1822.38
540.94	1835.83
541.29	1848.77
541.65	1861.45
542.01	1874.54
542.37	1886.68
542.72	1899.18
543.08	1910.88
543.44	1923.25
543.79	1934.34
544.15	1945.37
544.51	1956.86
544.87	1967.90
545.22	1978.56
545.58	1988.67
545.94	1998.53
546.29	2008.48
546.65	2018.35
547.01	2027.71
547.36	2036.54
547.72	2044.97
548.07	2052.74
548.43	2060.63
548.79	2068.66
549.14	2076.10
549.50	2083.37
549.86	2091.13
550.21	2098.48
550.57	2105.79
550.92	2112.33
551.28	2119.45
551.64	2126.60
551.99	2133.14
552.35	2139.21
552.70	2145.37
553.06	2151.35
553.41	2157.60
553.77	2163.59
554.13	2169.67
554.48	2175.78
554.84	2181.12
555.19	2186.55
555.55	2191.79
555.90	2196.44
556.26	2201.17
556.61	2206.05
556.97	2210.30
557.32	2214.31
557.68	2218.33
558.03	2222.50
558.39	2226.15
558.74	2230.85
559.10	2234.68
559.45	2238.35
559.81	2242.70
560.16	2246.59
560.52	2249.85
560.87	2253.20
561.23	2255.86
561.58	2258.86
561.94	2261.32
562.29	2263.69
562.64	2266.21
563.00	2268.79
563.35	2272.18
563.71	2275.41
564.06	2278.45
564.42	2281.49
564.77	2284.01
565.12	2286.16
565.48	2288.09
565.83	2290.16
566.19	2291.42
566.54	2292.31
566.89	2293.35
567.25	2293.90
567.60	2295.13
567.96	2296.79
568.31	2297.77
568.66	2298.84
569.02	2299.24
569.37	2299.62
569.72	2300.69
570.08	2301.00
570.43	2301.11
570.78	2300.59
571.14	2299.00
571.49	2297.59
571.84	2297.14
572.20	2296.17
572.55	2295.22
572.90	2293.65
573.26	2292.08
573.61	2290.32
573.96	2288.45
574.31	2285.59
574.67	2282.57
575.02	2279.05
575.37	2275.66
575.72	2271.80
576.08	2268.47
576.43	2265.31
576.78	2261.65
577.13	2258.43
577.49	2255.34
577.84	2251.81
578.19	2248.09
578.54	2244.56
578.90	2240.48
579.25	2235.01
579.60	2229.91
579.95	2224.93
580.30	2219.92
580.66	2214.99
581.01	2210.17
581.36	2205.35
581.71	2201.16
582.06	2196.76
582.42	2192.29
582.77	2187.19
583.12	2182.76
583.47	2178.15
583.82	2173.12
584.17	2167.86
584.53	2162.26
584.88	2156.53
585.23	2150.79
585.58	2145.28
585.93	2139.79
586.28	2135.00
586.63	2130.05
586.98	2125.05
587.34	2120.43
587.69	2115.62
588.04	2110.25
588.39	2104.45
588.74	2098.05
589.09	2091.95
589.44	2085.04
589.79	2079.03
590.14	2073.32
590.49	2066.62
590.84	2060.21
591.19	2054.21
591.54	2047.80
591.89	2040.55
592.25	2033.70
592.60	2026.50
592.95	2018.89
593.30	2011.58
593.65	2004.11
594.00	1996.88
594.35	1989.76
594.70	1981.68
595.05	1974.29
595.40	1967.10
595.75	1959.73
596.10	1953.48
596.45	1946.68
596.80	1940.54
597.15	1933.82
597.50	1926.60
597.85	1920.19
598.19	1913.52
598.54	1906.24
598.89	1899.66
599.24	1893.74
599.59	1887.05
599.94	1880.96
600.29	1874.75
600.64	1868.11
600.99	1860.54
601.34	1853.86
601.69	1846.86
602.04	1840.04
602.39	1832.86
602.74	1825.90
603.08	1819.21
603.43	1812.44
603.78	1805.23
604.13	1797.95
604.48	1790.56
604.83	1783.86
605.18	1776.79
605.53	1768.69
605.87	1760.74
606.22	1753.47
606.57	1745.41
606.92	1738.17
607.27	1730.88
607.62	1723.89
607.96	1716.61
608.31	1710.11
608.66	1702.37
609.01	1694.81
609.36	1687.21
609.70	1679.13
610.05	1671.07
610.40	1663.25
610.75	1654.99
611.10	1647.14
611.44	1638.93
611.79	1631.07
612.14	1622.32
612.49	1613.27
612.83	1605.02
613.18	1596.99
613.53	1588.92
613.88	1580.41
614.22	1572.12
614.57	1563.58
614.92	1555.47
615.27	1547.88
615.61	1539.53
615.96	1531.48
616.31	1523.83
616.65	1516.44
617.00	1508.95
617.35	1501.31
617.70	1492.96
618.04	1484.47
618.39	1476.28
618.74	1468.71
619.08	1460.41
619.43	1452.91
619.78	1445.98
620.12	1438.70
620.47	1431.11
620.82	1422.89
621.16	1415.66
621.51	1408.05
621.85	1400.38
622.20	1391.97
622.55	1383.66
622.89	1375.79
623.24	1368.40
623.59	1361.08
623.93	1353.56
624.28	1346.30
624.62	1338.79
624.97	1331.61
625.32	1324.78
625.66	1317.86
626.01	1310.65
626.35	1303.11
626.70	1295.37
627.04	1287.69
627.39	1280.12
627.73	1272.81
628.08	1265.90
628.43	1258.48
628.77	1251.07
629.12	1243.57
629.46	1236.38
629.81	1228.97
630.15	1221.75
630.50	1214.22
630.84	1205.95
631.19	1198.00
631.53	1190.53
631.88	1182.94
632.22	1175.38
632.57	1168.15
632.91	1160.57
633.26	1153.08
633.60	1145.81
633.95	1138.67
634.29	1131.57
634.64	1124.80
634.98	1117.42
635.32	1110.28
635.67	1103.61
636.01	1097.07
636.36	1090.15
636.70	1083.69
637.05	1077.11
637.39	1070.59
637.73	1064.05
638.08	1058.21
638.42	1052.27
638.77	1045.79
639.11	1039.22
639.45	1032.76
639.80	1026.07
640.14	1019.65
640.49	1013.16
640.83	1006.74
641.17	1000.55
641.52	994.22
641.86	987.73
642.20	981.83
642.55	975.54
642.89	969.07
643.23	962.49
643.58	956.78
643.92	950.43
644.26	944.28
644.61	938.32
644.95	932.27
645.29	925.61
645.64	918.85
645.98	912.48
646.32	906.64
646.66	900.62
647.01	894.80
647.35	889.07
647.69	883.27
648.04	877.81
648.38	871.96
648.72	865.89
649.06	859.84
649.41	853.96
649.75	847.96
650.09	842.12
650.43	836.33
650.78	830.19
651.12	824.35
651.46	818.62
651.80	812.73
652.14	807.35
652.49	801.97
652.83	796.79
653.17	791.08
653.51	785.36
653.85	779.96
654.20	774.36
654.54	768.37
654.88	762.57
655.22	756.71
655.56	751.00
655.90	745.62
656.25	740.37
656.59	734.99
656.93	729.99
657.27	724.77
657.61	719.34
657.95	714.21
658.29	709.08
658.64	703.93
658.98	698.69
659.32	693.18
659.66	688.01
660.00	682.76
660.34	677.87
660.68	672.98
661.02	667.94
661.36	663.22
661.70	658.76
662.05	654.41
662.39	650.07
662.73	645.67
663.07	641.30
663.41	636.86
663.75	632.38
664.09	627.72
664.43	623.29
664.77	619.15
665.11	614.93
665.45	610.85
665.79	606.72
666.13	602.56
666.47	598.53
666.81	594.36
667.15	590.22
667.49	586.34
667.83	582.53
668.17	578.65
668.51	574.58
668.85	570.52
669.19	566.69
669.53	562.79
669.87	558.92
670.21	555.22
670.55	551.58
670.89	548.21
671.23	544.81
671.57	541.35
671.91	537.84
672.25	534.32
672.58	530.80
672.92	527.38
673.26	524.29
673.60	521.09
673.94	517.95
674.28	515.05
674.62	512.05
674.96	508.94
675.30	506.05
675.64	503.11
675.97	500.38
676.31	497.55
676.65	494.68
676.99	491.99
677.33	489.13
677.67	486.33
678.01	483.24
678.34	480.25
678.68	477.40
679.02	474.62
679.36	471.85
679.70	469.13
680.04	466.38
680.37	463.47
680.71	460.72
681.05	458.14
681.39	455.40
681.73	452.78
682.06	450.25
682.40	447.65
682.74	445.14
683.08	442.62
683.42	439.98
683.75	437.51
684.09	434.91
684.43	432.42
684.77	429.96
685.10	427.64
685.44	425.39
685.78	423.07
686.12	420.77
686.45	418.45
686.79	416.13
687.13	413.95
687.46	411.84
687.80	409.72
688.14	407.48
688.48	405.40
688.81	403.12
689.15	400.91
689.49	398.81
689.82	396.74
690.16	394.61
690.50	392.66
690.83	390.65
691.17	388.67
691.51	386.80
691.84	384.96
692.18	383.00
692.52	380.95
692.85	379.05
693.19	377.18
693.52	375.39
693.86	373.59
694.20	371.79
694.53	369.98
694.87	368.08
695.21	366.30
695.54	364.48
695.88	362.81
696.21	361.11
696.55	359.44
696.88	357.68
697.22	356.04
697.56	354.42
697.89	352.80
698.23	351.22
698.56	349.57
698.90	347.96
699.23	346.34
699.57	344.83
699.90	343.26
700.24	341.68
700.58	340.15
700.91	338.69
701.25	337.26
701.58	335.83
701.92	334.50
702.25	333.15
702.59	331.79
702.92	330.43
703.26	329.12
703.59	327.82
703.93	326.67
704.26	325.41
704.60	324.10
704.93	322.82
705.26	321.56
705.60	320.41
705.93	319.28
706.27	318.25
706.60	317.17
706.94	316.08
707.27	314.95
707.61	313.87
707.94	312.82
708.27	311.75
708.61	310.70
708.94	309.66
709.28	308.67
709.61	307.68
709.94	306.73
710.28	305.70
710.61	304.73
710.95	303.62
711.28	302.72
711.61	301.80
711.95	300.88
712.28	299.88
712.61	298.93
712.95	297.96
713.28	297.02
713.61	296.17
713.95	295.30
714.28	294.52
714.61	293.66
714.95	292.82
715.28	291.95
715.61	291.08
715.95	290.27
716.28	289.40
716.61	288.56
716.95	287.76
717.28	287.04
717.61	286.26
717.94	285.55
718.28	284.74
718.61	283.98
718.94	283.31
719.27	282.70
719.61	282.03
719.94	281.39
720.27	280.69
720.60	279.97
720.94	279.34
721.27	278.71
721.60	278.12
721.93	277.52
722.27	276.99
722.60	276.43
722.93	275.84
723.26	275.30
723.59	274.77
723.93	274.23
724.26	273.64
724.59	273.11
724.92	272.58
725.25	272.06
725.59	271.56
725.92	271.03
726.25	270.49
726.58	269.97
726.91	269.47
727.24	269.02
727.57	268.55
727.91	268.05
728.24	267.59
728.57	267.11
728.90	266.61
729.23	266.08
729.56	265.66
729.89	265.19
730.22	264.69
730.55	264.21
730.89	263.74
731.22	263.28
731.55	262.82
731.88	262.40
732.21	261.95
732.54	261.50
732.87	261.09
733.20	260.69
733.53	260.35
733.86	259.97
734.19	259.56
734.52	259.19
734.85	258.88
735.18	258.44
735.51	258.08
735.84	257.74
736.17	257.45
736.50	257.03
736.83	256.80
737.16	256.51
737.49	256.17
737.82	255.85
738.15	255.56
738.48	255.25
738.81	254.93
739.14	254.63
739.47	254.35
739.80	254.04
740.13	253.77
740.46	253.43
740.79	253.11
741.12	252.82
741.45	252.48
741.78	252.16
742.11	251.89
742.44	251.58
742.77	251.28
743.10	250.95
743.43	250.66
743.75	250.26
744.08	250.10
744.41	249.85
744.74	249.57
745.07	249.30
745.40	249.05
745.73	248.79
746.06	248.51
746.39	248.22
746.71	247.96
747.04	247.65
747.37	247.41
747.70	247.18
748.03	246.93
748.36	246.74
748.68	246.52
749.01	246.27
749.34	246.03
749.67	245.84
750.00	245.64
750.33	245.50
750.65	245.31
750.98	244.96
751.31	244.71
751.64	244.50
751.97	244.31
752.29	244.08
752.62	243.86
752.95	243.66
753.28	243.44
753.60	243.22
753.93	243.06
754.26	242.85
754.59	242.61
754.91	242.42
755.24	242.21
755.57	242.00
755.90	241.82
756.22	241.62
756.55	241.40
756.88	241.16
757.20	240.92
757.53	240.74
757.86	240.57
758.19	240.41
758.51	240.23
758.84	240.05
759.17	239.88
759.49	239.70
759.82	239.59
760.15	239.44
760.47	239.29
760.80	239.10
761.13	238.96
761.45	238.81
761.78	238.67
762.11	238.50
762.43	238.37
762.76	238.24
763.08	238.08
763.41	237.96
763.74	237.83
764.06	237.68
764.39	237.55
764.71	237.40
765.04	237.28
765.37	237.18
765.69	237.01
766.02	236.88
766.34	236.79
766.67	236.62
767.00	236.54
767.32	236.48
767.65	236.45
767.97	236.34
768.30	236.23
768.62	236.07
768.95	235.96
769.27	235.83
769.60	235.72
769.92	235.65
770.25	235.52
770.57	235.42
770.90	235.33
771.22	235.22
771.55	235.13
771.87	235.04
772.20	234.90
772.52	234.90
772.85	234.94
773.17	234.85
773.50	234.74
773.82	234.63
774.15	234.47
774.47	234.33
774.80	234.19
775.12	234.14
775.45	234.09
775.77	234.03
776.09	233.93
776.42	233.85
776.74	233.79
777.07	233.71
777.39	233.64
777.72	233.55
778.04	233.49
778.36	233.42
778.69	233.36
779.01	233.33
779.33	233.18
779.66	232.97
779.98	232.90
780.31	232.85
780.63	232.84
780.95	232.84
781.28	232.75
781.60	232.76
781.92	232.67
782.25	232.62
782.57	232.55
782.89	232.50
783.22	232.43
783.54	232.36
783.86	232.34
784.19	232.26
784.51	232.23
784.83	232.17
785.16	232.11
785.48	232.04
785.80	232.00
786.12	231.97
786.45	231.94
786.77	231.88
787.09	231.82
787.42	231.71
787.74	231.66
788.06	231.64
788.38	231.56
788.71	231.49
789.03	231.41
789.35	231.41
789.67	231.35
789.99	231.28
790.32	231.21
790.64	231.15
790.96	231.21
791.28	231.14
791.61	231.08
791.93	231.04
792.25	230.99
792.57	231.02
792.89	230.96
793.21	230.96
793.54	230.93
793.86	230.90
794.18	230.84
794.50	230.79
794.82	230.73
795.14	230.70
795.47	230.67
795.79	230.62
796.11	230.53
796.43	230.49
796.75	230.51
797.07	230.47
797.39	230.45
797.71	230.33
798.04	230.32
798.36	230.29
798.68	230.26
799.00	230.22
799.32	230.10
799.64	230.09
799.96	230.04
800.28	229.99
800.60	229.94
800.92	229.95
801.24	229.87
801.56	229.83
801.89	229.81
802.21	229.82
802.53	229.81
802.85	229.85
803.17	229.87
803.49	229.79
803.81	229.78
804.13	229.76
804.45	229.72
804.77	229.70
805.09	229.65
805.41	229.60
805.73	229.59
806.05	229.55
806.37	229.52
806.69	229.47
807.01	229.42
807.33	229.42
807.65	229.35
807.97	229.38
808.28	229.35
808.60	229.32
808.92	229.28
809.24	229.31
809.56	229.26
809.88	229.22
810.20	229.23
810.52	229.21
810.84	229.16
811.16	229.15
811.48	229.11
811.80	229.13
812.12	229.12
812.43	229.10
812.75	229.12
813.07	229.09
813.39	229.09
813.71	229.06
814.03	229.01
814.35	229.02
814.67	228.98
814.98	228.94
815.30	228.93
815.62	228.89
815.94	228.83
816.26	228.83
816.58	228.80
816.89	228.79
817.21	228.76
817.53	228.77
817.85	228.75
818.17	228.74
818.48	228.72
818.80	228.74
819.12	228.72
819.44	228.68
819.76	228.64
820.07	228.64
820.39	228.64
820.71	228.67
821.03	228.69
821.34	228.69
821.66	228.71
821.98	228.71
822.30	228.70
822.61	228.75
822.93	228.70
823.25	228.70
823.57	228.70
823.88	228.73
824.20	228.65
824.52	228.65
824.83	228.64
825.15	228.62
825.47	228.59
825.79	228.59
826.10	228.57
826.42	228.57
826.74	228.55
827.05	228.55
827.37	228.56
827.69	228.52
828.00	228.49
828.32	228.46
828.64	228.42
828.95	228.45
829.27	228.40
829.58	228.37
829.90	228.32
830.22	228.26
830.53	228.17
830.85	228.17
831.17	228.14
831.48	228.12
831.80	228.08
832.11	228.07
832.43	228.02
832.75	227.98
833.06	228.02
833.38	227.99
833.69	227.96
834.01	227.89
834.32	227.85
834.64	227.80
834.96	227.79
835.27	227.80
835.59	227.74
835.90	227.67
836.22	227.66
836.53	227.67
836.85	227.66
837.16	227.81
837.48	227.79
837.79	227.83
838.11	227.81
838.42	227.78
838.74	227.79
839.05	227.79
839.37	227.79
839.68	227.71
840.00	227.71
840.31	227.72
840.63	227.70
840.94	227.70
841.26	227.70
841.57	227.68
841.88	227.66
842.20	227.64
842.51	227.67
842.83	227.64
843.14	227.71
843.46	227.71
843.77	227.61
844.08	227.60
844.40	227.52
844.71	227.53
845.03	227.54
845.34	227.50
845.65	227.46
845.97	227.44
846.28	227.44
846.60	227.43
846.91	227.39
847.22	227.41
847.54	227.41
847.85	227.41
848.16	227.40
848.48	227.39
848.79	227.42
849.10	227.44
849.42	227.44
849.73	227.33
850.04	227.33
850.36	227.30
850.67	227.31
850.98	227.35
851.30	227.32
851.61	227.31
851.92	227.30
852.23	227.36
852.55	227.38
852.86	227.38
853.17	227.38
853.49	227.40
853.80	227.40
854.11	227.38
854.42	227.40
854.74	227.42
855.05	227.43
855.36	227.39
855.67	227.37
855.99	227.40
856.30	227.48
856.61	227.50
856.92	227.50
857.23	227.50
857.55	227.48
857.86	227.49
858.17	227.52
858.48	227.51
858.79	227.48
859.11	227.48
859.42	227.47
859.73	227.44
860.04	227.42
860.35	227.40
860.66	227.41
860.98	227.38
861.29	227.36
861.60	227.35
861.91	227.36
862.22	227.33
862.53	227.30
862.84	227.19
863.16	227.23
863.47	227.21
863.78	227.20
864.09	227.21
864.40	227.23
864.71	227.17
865.02	227.20
865.33	227.18
865.64	227.16
865.95	227.15
866.27	227.23
866.58	227.20
866.89	227.17
867.20	227.14
867.51	227.12
867.82	227.12
868.13	227.12
868.44	227.08
868.75	227.11
869.06	227.11
869.37	227.11
869.68	227.03
869.99	227.02
870.30	227.01
870.61	227.00
870.92	226.98
871.23	226.98
871.54	226.98
871.85	227.01
872.16	227.04
872.47	227.02
872.78	226.95
873.09	226.98
873.40	226.98
873.71	226.99
874.02	227.04
874.33	227.01
874.64	226.99
874.95	226.99
875.26	226.97
875.56	226.96
875.87	226.97
876.18	226.98
876.49	227.06
876.80	227.02
877.11	227.01
877.42	226.99
877.73	227.01
878.04	226.99
878.35	227.00
878.66	226.97
878.96	226.99
879.27	226.99
879.58	227.01
879.89	226.99
880.20	226.99
880.51	226.96
880.82	226.96
881.12	226.95
881.43	226.94
881.74	226.95
882.05	226.96
882.36	226.96
882.67	226.96
882.97	226.86
883.28	226.89
883.59	226.86
883.90	226.87
884.21	226.83
884.51	226.83
884.82	226.78
885.13	226.78
885.44	226.79
885.74	226.78
886.05	226.74
886.36	226.76
886.67	226.74
886.98	226.77
887.28	226.79
887.59	226.79
887.90	226.81
888.20	226.78
888.51	226.81
888.82	226.81
889.13	226.80
889.43	226.90
889.74	226.89
890.05	226.89
890.35	226.89
890.66	226.92
890.97	226.87
891.28	226.86
891.58	226.86
891.89	226.86
892.20	226.84
892.50	226.87
892.81	226.88
893.12	226.91
893.42	226.87
893.73	226.87
894.04	226.89
894.34	226.91
894.65	226.92
894.95	226.92
895.26	226.91
895.57	226.96
895.87	226.85
896.18	226.89
896.48	226.91
896.79	226.93
897.10	226.96
897.40	226.98
897.71	227.01
898.01	227.00
898.32	227.02
898.63	227.06
898.93	227.06
899.24	227.07
899.54	227.07
899.85	227.09
900.15	227.08
900.46	227.07
900.76	227.07
901.07	227.02
901.38	227.04
901.68	227.09
901.99	227.06
902.29	227.11
902.60	227.09
902.90	227.07
903.21	227.07
903.51	227.07
903.82	227.10
904.12	227.09
904.43	227.11
904.73	227.10
905.03	227.08
905.34	227.13
905.64	227.15
905.95	227.12
906.25	227.09
906.56	227.08
906.86	227.11
907.17	227.08
907.47	227.11
907.77	227.05
908.08	227.00
908.38	226.99
908.69	227.01
908.99	227.04
909.30	227.05
909.60	227.03
909.90	227.03
910.21	227.00
910.51	226.99
910.81	226.96
911.12	226.97
911.42	226.94
911.73	226.86
912.03	226.86
912.33	226.89
912.64	226.91
912.94	226.88
913.24	226.85
913.55	226.87
913.85	226.84
914.15	226.89
914.46	226.87
914.76	226.84
915.06	226.81
915.37	226.79
915.67	226.78
915.97	226.77
916.27	226.74
916.58	226.75
916.88	226.74
917.18	226.74
917.49	226.79
917.79	226.82
918.09	226.81
918.39	226.82
918.70	226.79
919.00	226.78
919.30	226.83
919.60	226.83
919.91	226.80
920.21	226.83
920.51	226.77
920.81	226.78
921.12	226.81
921.42	226.78
921.72	226.75
922.02	226.77
922.32	226.80
922.63	226.79
922.93	226.81
923.23	226.84
923.53	226.86
923.83	226.77
924.13	226.78
924.44	226.78
924.74	226.81
925.04	226.84
925.34	226.84
925.64	226.79
925.94	226.79
926.24	226.83
926.55	226.85
926.85	226.88
927.15	226.90
927.45	226.88
927.75	226.93
928.05	226.92
928.35	226.89
928.65	226.89
928.95	226.93
929.26	226.91
929.56	226.93
929.86	226.92
930.16	226.93
930.46	226.94
930.76	226.98
931.06	226.95
931.36	226.95
931.66	226.96
931.96	227.02
932.26	227.03
932.56	227.01
932.86	227.01
933.16	226.98
933.46	226.98
933.76	227.02
934.06	227.03
934.36	227.08
934.66	227.10
934.96	227.10
935.26	227.09
935.56	227.07
935.86	227.05
936.16	227.02
936.46	227.00
936.76	226.97
937.06	226.96
937.36	226.95
937.66	226.92
937.96	226.95
938.26	226.91
938.56	226.90
938.86	226.89
939.16	226.90
939.46	226.93
939.76	226.95
940.06	226.93
940.35	226.88
940.65	226.83
940.95	226.86
941.25	226.82
941.55	226.80
941.85	226.80
942.15	226.83
942.45	226.86
942.75	226.86
943.04	226.91
943.34	226.90
943.64	226.87
943.94	226.85
944.24	226.79
944.54	226.80
944.84	226.78
945.13	226.76
945.43	226.75
945.73	226.75
946.03	226.72
946.33	226.70
946.62	226.70
946.92	226.69
947.22	226.67
947.52	226.73
947.82	226.75
948.11	226.77
948.41	226.77
948.71	226.77
949.01	226.77
949.31	226.71
949.60	226.69
949.90	226.73
950.20	226.76
950.50	226.77
950.79	226.78
951.09	226.78
951.39	226.81
951.69	226.79
951.98	226.82
952.28	226.87
952.58	226.88
952.87	226.86
953.17	226.91
953.47	226.91
953.76	226.87
954.06	226.85
954.36	226.80
954.66	226.77
954.95	226.78
955.25	226.83
955.55	226.86
955.84	226.83
956.14	226.80
956.44	226.82
956.73	226.81
957.03	226.84
957.32	226.85
957.62	226.83
957.92	226.86
958.21	226.84
958.51	226.89
958.81	226.88
959.10	226.89
959.40	226.91
959.69	226.90
959.99	226.93
960.29	226.98
960.58	226.99
960.88	227.04
961.17	227.06
961.47	227.04
961.76	227.02
962.06	227.08
962.36	227.14
962.65	227.15
962.95	227.17
963.24	227.13
963.54	227.15
963.83	227.16
964.13	227.15
964.42	227.15
964.72	227.11
965.01	227.14
965.31	227.19
965.60	227.14
965.90	227.21
966.19	227.18
966.49	227.16
966.78	227.16
967.08	227.14
967.37	227.12
967.67	227.10
967.96	227.13
968.26	227.13
968.55	227.10
968.85	227.09
969.14	227.08
969.43	227.08
969.73	227.06
970.02	227.07
970.32	227.06
970.61	227.03
970.91	227.00
971.20	226.99
971.49	226.95
971.79	226.96
972.08	226.88
972.38	226.89
972.67	226.89
972.96	226.91
973.26	226.92
973.55	226.94
973.85	226.96
974.14	226.95
974.43	226.96
974.73	226.95
975.02	226.90
975.31	226.90
975.61	226.90
975.90	226.90
976.19	226.89
976.49	226.88
976.78	226.90
977.07	226.84
977.37	226.83
977.66	226.85
977.95	226.81
978.24	226.81
978.54	226.83
978.83	226.78
979.12	226.74
979.42	226.73
979.71	226.67
980.00	226.63
980.29	226.64
980.59	226.60
980.88	226.60
981.17	226.61
981.46	226.60
981.76	226.58
982.05	226.63
982.34	226.61
982.63	226.63
982.93	226.63
983.22	226.70
983.51	226.72
983.80	226.71
984.09	226.74
984.39	226.74
984.68	226.71
984.97	226.75
985.26	226.76
985.55	226.75
985.85	226.77
986.14	226.78
986.43	226.75
986.72	226.75
987.01	226.72
987.30	226.70
987.59	226.70
987.89	226.72
988.18	226.64
988.47	226.65
988.76	226.60
989.05	226.57
989.34	226.52
989.63	226.52
989.92	226.51
990.22	226.49
990.51	226.46
990.80	226.45
991.09	226.42
991.38	226.43
991.67	226.38
991.96	226.37
992.25	226.39
992.54	226.39
992.83	226.36
993.12	226.39
993.41	226.43
993.70	226.47
993.99	226.46
994.28	226.46
994.58	226.47
994.87	226.46
995.16	226.44
995.45	226.45
995.74	226.43
996.03	226.41
996.32	226.45
996.61	226.51
996.90	226.53
997.19	226.54
997.48	226.55
997.77	226.57
998.06	226.58
998.34	226.57
998.63	226.56
998.92	226.61
999.21	226.61
999.50	226.59
999.79	226.58
1000.08	226.59
1000.37	226.61
1000.66	226.60
1000.95	226.64
1001.24	226.68
1001.53	226.74
1001.82	226.77
1002.11	226.76
1002.40	226.75
1002.68	226.76
1002.97	226.81
1003.26	226.82
1003.55	226.79
1003.84	226.81
1004.13	226.84
1004.42	226.87
1004.71	226.88
1004.99	226.88
1005.28	226.91
1005.57	226.93
1005.86	226.93
1006.15	226.94
1006.44	226.93
1006.72	226.96
1007.01	226.96
1007.30	226.95
1007.59	226.93
1007.88	226.90
1008.17	226.93
1008.45	226.91
1008.74	226.88
1009.03	226.84
1009.32	226.83
1009.60	226.83
1009.89	226.82
1010.18	226.78
1010.47	226.77
1010.76	226.77
1011.04	226.77
1011.33	226.81
1011.62	226.80
1011.91	226.78
1012.19	226.78
1012.48	226.80
1012.77	226.79
1013.05	226.83
1013.34	226.82
1013.63	226.82
1013.92	226.84
1014.20	226.83
1014.49	226.82
1014.78	226.82
1015.06	226.81
1015.35	226.81
1015.64	226.79
1015.92	226.81
1016.21	226.81
1016.50	226.81
1016.78	226.81
1017.07	226.79
1017.36	226.69
1017.64	226.66
1017.93	226.67
1018.22	226.66
1018.50	226.65
1018.79	226.64
1019.08	226.61
1019.36	226.61
1019.65	226.57
1019.93	226.56
1020.22	226.57
1020.51	226.61
1020.79	226.59
1021.08	226.44
1021.36	226.50
1021.65	226.67
1021.94	226.86
1022.22	226.58
1022.51	226.26
1022.79	226.82
1023.08	226.77
1023.36	227.27
1023.65	226.42
>>>>>End Processed Spectral Data<<<<<
