SpectraSuite Data File
++++++++++++++++++++++++++++++++++++
Date: Fri Feb 01 18:04:45 EST 2013
User: group
Dark Spectrum Present: No
Reference Spectrum Present: No
Number of Sampled Component Spectra: 1
Spectrometers: USB2E7196
Integration Time (usec): 35000 (USB2E7196)
Spectra Averaged: 100 (USB2E7196)
Boxcar Smoothing: 10 (USB2E7196)
Correct for Electrical Dark: No (USB2E7196)
Strobe/Lamp Enabled: No (USB2E7196)
Correct for Detector Non-linearity: No (USB2E7196)
Correct for Stray Light: No (USB2E7196)
Number of Pixels in Processed Spectrum: 2048
>>>>>Begin Processed Spectral Data<<<<<
339.09	0.00
339.48	212.45
339.86	214.13
340.24	215.80
340.63	216.90
341.01	219.60
341.39	219.38
341.78	221.30
342.16	222.05
342.54	222.76
342.93	211.21
343.31	221.90
343.69	222.47
344.07	222.95
344.46	223.36
344.84	223.75
345.22	224.02
345.60	224.28
345.99	224.47
346.37	224.60
346.75	224.74
347.13	224.80
347.52	224.88
347.90	224.93
348.28	224.97
348.66	225.00
349.05	225.01
349.43	225.08
349.81	225.14
350.19	225.18
350.57	225.24
350.96	225.33
351.34	225.42
351.72	225.51
352.10	225.58
352.48	225.68
352.87	225.73
353.25	225.78
353.63	225.88
354.01	225.94
354.39	226.01
354.77	226.09
355.15	226.21
355.54	226.26
355.92	226.29
356.30	226.36
356.68	226.53
357.06	226.59
357.44	226.60
357.82	226.70
358.20	226.80
358.58	226.89
358.97	226.99
359.35	227.07
359.73	227.12
360.11	227.20
360.49	227.27
360.87	227.34
361.25	227.40
361.63	227.48
362.01	227.54
362.39	227.62
362.77	227.65
363.15	227.67
363.53	227.73
363.91	227.75
364.29	227.78
364.67	227.69
365.05	227.74
365.43	227.79
365.81	227.80
366.19	227.83
366.57	227.87
366.95	227.84
367.33	227.80
367.71	227.83
368.09	227.83
368.47	227.84
368.85	227.82
369.23	227.85
369.61	227.76
369.99	227.75
370.37	227.70
370.75	227.70
371.13	227.64
371.51	227.57
371.89	227.57
372.27	227.55
372.65	227.53
373.03	227.43
373.41	227.39
373.78	227.32
374.16	227.22
374.54	227.12
374.92	227.04
375.30	227.01
375.68	226.94
376.06	226.88
376.44	226.78
376.82	226.75
377.19	226.67
377.57	226.62
377.95	226.53
378.33	226.48
378.71	226.38
379.09	226.34
379.47	226.31
379.84	226.22
380.22	226.13
380.60	226.07
380.98	226.02
381.36	225.96
381.73	225.87
382.11	225.84
382.49	225.76
382.87	225.70
383.25	225.66
383.62	225.68
384.00	225.62
384.38	225.55
384.76	225.50
385.13	225.46
385.51	225.41
385.89	225.36
386.27	225.32
386.64	225.26
387.02	225.20
387.40	225.16
387.78	225.11
388.15	225.10
388.53	225.05
388.91	225.03
389.29	224.95
389.66	224.96
390.04	224.88
390.42	224.88
390.79	224.86
391.17	224.81
391.55	224.71
391.92	224.67
392.30	224.71
392.68	224.69
393.05	224.67
393.43	224.68
393.81	224.70
394.18	224.72
394.56	224.73
394.94	224.76
395.31	224.74
395.69	224.82
396.06	224.87
396.44	224.90
396.82	224.95
397.19	225.06
397.57	225.10
397.95	225.21
398.32	225.26
398.70	225.32
399.07	225.41
399.45	225.47
399.82	225.57
400.20	225.57
400.58	225.64
400.95	225.68
401.33	225.78
401.70	225.90
402.08	226.02
402.45	226.15
402.83	226.31
403.20	226.42
403.58	226.52
403.95	226.62
404.33	226.76
404.71	226.92
405.08	227.12
405.46	227.29
405.83	227.42
406.21	227.61
406.58	227.80
406.96	228.00
407.33	228.19
407.70	228.41
408.08	228.75
408.45	229.02
408.83	229.30
409.20	229.56
409.58	229.85
409.95	230.12
410.33	230.45
410.70	230.75
411.08	231.11
411.45	231.49
411.82	231.90
412.20	232.34
412.57	232.84
412.95	233.24
413.32	233.78
413.69	234.33
414.07	234.88
414.44	235.52
414.82	236.14
415.19	236.91
415.56	237.66
415.94	238.39
416.31	239.24
416.68	240.09
417.06	241.07
417.43	241.94
417.81	242.98
418.18	244.06
418.55	245.20
418.93	246.41
419.30	247.63
419.67	248.91
420.04	250.22
420.42	251.56
420.79	253.13
421.16	254.66
421.54	256.27
421.91	257.91
422.28	259.58
422.66	261.39
423.03	263.12
423.40	264.90
423.77	266.84
424.15	268.78
424.52	270.78
424.89	272.98
425.26	275.08
425.64	277.07
426.01	279.21
426.38	281.45
426.75	283.69
427.13	286.03
427.50	288.49
427.87	291.04
428.24	293.59
428.61	295.98
428.99	298.63
429.36	301.52
429.73	304.33
430.10	307.11
430.47	309.88
430.85	312.78
431.22	315.82
431.59	319.01
431.96	322.03
432.33	325.43
432.70	328.64
433.08	332.47
433.45	336.06
433.82	339.58
434.19	343.47
434.56	347.30
434.93	350.88
435.30	354.42
435.68	358.37
436.05	362.20
436.42	366.03
436.79	369.44
437.16	373.05
437.53	376.91
437.90	380.72
438.27	384.45
438.64	388.29
439.01	391.85
439.38	394.93
439.75	397.90
440.13	401.32
440.50	404.50
440.87	407.05
441.24	409.70
441.61	412.70
441.98	414.74
442.35	417.22
442.72	419.76
443.09	422.23
443.46	423.59
443.83	424.41
444.20	425.13
444.57	426.26
444.94	426.70
445.31	427.13
445.68	427.51
446.05	427.62
446.42	427.06
446.79	426.51
447.16	425.89
447.53	425.46
447.90	423.88
448.27	422.32
448.64	420.15
449.01	418.62
449.37	415.92
449.74	413.38
450.11	410.29
450.48	406.95
450.85	403.53
451.22	400.62
451.59	397.86
451.96	395.20
452.33	391.67
452.70	388.46
453.07	384.64
453.43	380.84
453.80	377.11
454.17	373.48
454.54	369.99
454.91	366.31
455.28	362.66
455.65	359.25
456.02	355.83
456.38	352.89
456.75	349.25
457.12	346.18
457.49	343.14
457.86	340.18
458.23	337.62
458.59	334.81
458.96	331.95
459.33	329.40
459.70	326.83
460.07	324.80
460.43	322.45
460.80	320.21
461.17	318.23
461.54	316.16
461.91	314.21
462.27	312.22
462.64	310.49
463.01	308.64
463.38	306.86
463.74	305.04
464.11	303.44
464.48	301.98
464.85	300.42
465.21	299.18
465.58	297.92
465.95	296.45
466.32	295.23
466.68	294.00
467.05	292.80
467.42	291.58
467.78	290.24
468.15	289.03
468.52	288.12
468.88	286.91
469.25	285.87
469.62	285.05
469.98	284.13
470.35	283.26
470.72	282.45
471.08	281.55
471.45	280.81
471.82	280.04
472.18	279.25
472.55	278.65
472.92	277.99
473.28	277.34
473.65	276.71
474.02	276.06
474.38	275.51
474.75	275.03
475.11	274.53
475.48	274.15
475.85	273.83
476.21	273.51
476.58	273.17
476.94	272.92
477.31	272.60
477.67	272.34
478.04	272.12
478.41	271.96
478.77	271.90
479.14	271.77
479.50	271.71
479.87	271.70
480.23	271.71
480.60	271.67
480.96	271.70
481.33	271.88
481.69	272.03
482.06	272.19
482.42	272.29
482.79	272.48
483.15	272.77
483.52	273.10
483.88	273.38
484.25	273.76
484.61	274.15
484.98	274.62
485.34	275.18
485.71	275.75
486.07	276.38
486.44	276.97
486.80	277.69
487.17	278.40
487.53	279.23
487.90	280.08
488.26	281.02
488.62	282.05
488.99	283.07
489.35	284.12
489.72	285.25
490.08	286.52
490.44	287.82
490.81	289.21
491.17	290.60
491.54	292.20
491.90	293.82
492.26	295.51
492.63	297.32
492.99	299.21
493.36	301.22
493.72	303.36
494.08	305.56
494.45	307.90
494.81	310.40
495.17	312.97
495.54	315.70
495.90	318.57
496.26	321.51
496.63	324.64
496.99	327.96
497.35	331.43
497.72	335.05
498.08	338.80
498.44	342.71
498.80	346.88
499.17	351.11
499.53	355.52
499.89	360.19
500.26	364.91
500.62	369.85
500.98	375.11
501.34	380.52
501.71	386.15
502.07	391.98
502.43	397.96
502.79	404.14
503.16	410.60
503.52	417.22
503.88	424.03
504.24	431.06
504.60	438.35
504.97	445.96
505.33	453.73
505.69	461.89
506.05	470.17
506.41	478.57
506.78	487.29
507.14	496.35
507.50	505.69
507.86	515.37
508.22	525.16
508.59	534.99
508.95	545.15
509.31	555.64
509.67	566.45
510.03	577.43
510.39	588.74
510.75	600.30
511.12	612.06
511.48	624.16
511.84	636.46
512.20	648.90
512.56	661.69
512.92	674.86
513.28	688.26
513.64	701.59
514.00	715.26
514.37	729.12
514.73	743.15
515.09	757.17
515.45	771.50
515.81	786.23
516.17	801.33
516.53	816.73
516.89	832.13
517.25	847.50
517.61	863.19
517.97	878.89
518.33	894.57
518.69	910.67
519.05	926.95
519.41	943.44
519.77	960.26
520.13	977.12
520.49	993.85
520.85	1010.60
521.21	1027.87
521.57	1045.68
521.93	1063.08
522.29	1081.03
522.65	1098.91
523.01	1116.77
523.37	1134.45
523.73	1152.27
524.09	1169.87
524.45	1187.76
524.81	1206.14
525.17	1224.68
525.53	1243.37
525.89	1262.05
526.25	1280.67
526.61	1298.96
526.97	1317.52
527.33	1336.01
527.68	1354.50
528.04	1372.91
528.40	1391.30
528.76	1410.30
529.12	1428.83
529.48	1447.69
529.84	1465.53
530.20	1484.20
530.56	1503.21
530.91	1522.61
531.27	1541.42
531.63	1559.90
531.99	1578.57
532.35	1596.54
532.71	1614.44
533.07	1632.74
533.42	1650.81
533.78	1668.99
534.14	1687.40
534.50	1704.77
534.86	1722.65
535.21	1739.93
535.57	1757.96
535.93	1775.77
536.29	1792.63
536.65	1809.86
537.00	1826.78
537.36	1844.48
537.72	1861.03
538.08	1877.59
538.44	1893.55
538.79	1909.68
539.15	1925.55
539.51	1941.55
539.87	1958.27
540.22	1974.27
540.58	1990.29
540.94	2005.71
541.29	2020.85
541.65	2035.91
542.01	2051.54
542.37	2066.04
542.72	2080.75
543.08	2094.85
543.44	2109.65
543.79	2123.27
544.15	2136.46
544.51	2150.36
544.87	2163.46
545.22	2176.50
545.58	2189.00
545.94	2200.98
546.29	2213.05
546.65	2225.22
547.01	2236.70
547.36	2247.53
547.72	2258.16
548.07	2268.26
548.43	2278.64
548.79	2288.70
549.14	2298.33
549.50	2307.61
549.86	2317.56
550.21	2327.02
550.57	2336.29
550.92	2344.79
551.28	2353.88
551.64	2363.00
551.99	2371.49
552.35	2379.79
552.70	2387.98
553.06	2395.92
553.41	2404.26
553.77	2412.13
554.13	2420.07
554.48	2428.26
554.84	2435.74
555.19	2442.77
555.55	2449.79
555.90	2456.02
556.26	2462.79
556.61	2469.09
556.97	2475.33
557.32	2480.93
557.68	2486.67
558.03	2492.65
558.39	2497.79
558.74	2504.05
559.10	2509.57
559.45	2514.71
559.81	2520.46
560.16	2525.85
560.52	2530.65
560.87	2535.50
561.23	2539.51
561.58	2543.84
561.94	2547.63
562.29	2551.04
562.64	2555.24
563.00	2559.13
563.35	2564.00
563.71	2568.42
564.06	2573.05
564.42	2577.18
564.77	2581.15
565.12	2584.80
565.48	2587.98
565.83	2591.26
566.19	2593.86
566.54	2595.72
566.89	2598.12
567.25	2599.85
567.60	2602.22
567.96	2604.97
568.31	2606.83
568.66	2609.25
569.02	2610.74
569.37	2611.92
569.72	2613.98
570.08	2615.00
570.43	2615.84
570.78	2616.06
571.14	2615.03
571.49	2614.29
571.84	2614.56
572.20	2614.16
572.55	2613.51
572.90	2612.29
573.26	2611.46
573.61	2609.98
573.96	2608.86
574.31	2606.10
574.67	2603.40
575.02	2600.07
575.37	2596.92
575.72	2593.28
576.08	2589.80
576.43	2586.74
576.78	2583.16
577.13	2579.89
577.49	2576.67
577.84	2573.26
578.19	2569.51
578.54	2566.05
578.90	2561.79
579.25	2555.95
579.60	2550.80
579.95	2545.70
580.30	2540.37
580.66	2534.82
581.01	2529.61
581.36	2524.14
581.71	2519.70
582.06	2514.96
582.42	2510.09
582.77	2504.32
583.12	2499.42
583.47	2494.53
583.82	2489.21
584.17	2483.50
584.53	2477.41
584.88	2471.34
585.23	2464.91
585.58	2458.88
585.93	2452.85
586.28	2447.52
586.63	2442.07
586.98	2436.49
587.34	2431.18
587.69	2425.88
588.04	2420.09
588.39	2413.90
588.74	2406.87
589.09	2400.12
589.44	2392.58
589.79	2385.80
590.14	2379.62
590.49	2372.30
590.84	2365.02
591.19	2358.19
591.54	2350.97
591.89	2343.02
592.25	2335.43
592.60	2327.40
592.95	2318.95
593.30	2310.56
593.65	2301.95
594.00	2293.95
594.35	2285.48
594.70	2276.30
595.05	2268.26
595.40	2259.91
595.75	2251.32
596.10	2244.32
596.45	2236.64
596.80	2229.58
597.15	2222.10
597.50	2214.20
597.85	2206.72
598.19	2199.11
598.54	2190.96
598.89	2183.35
599.24	2176.38
599.59	2168.82
599.94	2161.55
600.29	2154.09
600.64	2146.51
600.99	2138.01
601.34	2130.06
601.69	2122.05
602.04	2114.30
602.39	2105.62
602.74	2097.68
603.08	2089.83
603.43	2081.93
603.78	2073.28
604.13	2064.96
604.48	2056.58
604.83	2048.37
605.18	2040.34
605.53	2031.19
605.87	2021.80
606.22	2013.18
606.57	2003.81
606.92	1994.97
607.27	1986.70
607.62	1978.66
607.96	1970.28
608.31	1962.48
608.66	1953.58
609.01	1944.78
609.36	1935.86
609.70	1926.43
610.05	1917.05
610.40	1908.11
610.75	1898.34
611.10	1889.53
611.44	1879.39
611.79	1869.86
612.14	1859.62
612.49	1848.75
612.83	1838.65
613.18	1829.08
613.53	1819.64
613.88	1809.67
614.22	1800.00
614.57	1789.66
614.92	1780.23
615.27	1771.22
615.61	1761.46
615.96	1751.88
616.31	1742.83
616.65	1734.06
617.00	1725.17
617.35	1716.11
617.70	1706.32
618.04	1696.20
618.39	1686.34
618.74	1677.46
619.08	1667.73
619.43	1658.83
619.78	1650.68
620.12	1642.27
620.47	1633.39
620.82	1623.64
621.16	1614.88
621.51	1605.82
621.85	1596.87
622.20	1586.76
622.55	1576.90
622.89	1567.63
623.24	1558.69
623.59	1549.97
623.93	1541.07
624.28	1532.61
624.62	1523.55
624.97	1514.94
625.32	1507.00
625.66	1498.71
626.01	1490.26
626.35	1481.52
626.70	1472.35
627.04	1463.22
627.39	1454.02
627.73	1445.33
628.08	1437.29
628.43	1428.64
628.77	1420.00
629.12	1411.11
629.46	1402.66
629.81	1393.76
630.15	1385.15
630.50	1376.39
630.84	1366.73
631.19	1357.26
631.53	1348.18
631.88	1339.37
632.22	1330.53
632.57	1321.86
632.91	1312.88
633.26	1304.09
633.60	1295.27
633.95	1286.80
634.29	1278.42
634.64	1270.52
634.98	1261.87
635.32	1253.42
635.67	1245.63
636.01	1237.85
636.36	1229.98
636.70	1222.18
637.05	1214.55
637.39	1206.92
637.73	1199.34
638.08	1192.25
638.42	1185.33
638.77	1177.87
639.11	1170.22
639.45	1162.60
639.80	1154.74
640.14	1147.31
640.49	1139.71
640.83	1132.24
641.17	1124.95
641.52	1117.65
641.86	1110.11
642.20	1103.27
642.55	1095.78
642.89	1088.20
643.23	1080.51
643.58	1073.66
643.92	1066.50
644.26	1059.44
644.61	1052.41
644.95	1045.44
645.29	1037.89
645.64	1029.96
645.98	1022.45
646.32	1015.52
646.66	1008.50
647.01	1001.85
647.35	995.15
647.69	988.34
648.04	981.90
648.38	975.24
648.72	968.25
649.06	961.25
649.41	954.36
649.75	947.50
650.09	940.64
650.43	933.95
650.78	926.76
651.12	919.81
651.46	913.17
651.80	906.47
652.14	900.12
652.49	893.81
652.83	887.83
653.17	881.36
653.51	874.78
653.85	868.42
654.20	861.81
654.54	854.75
654.88	847.95
655.22	841.12
655.56	834.36
655.90	827.98
656.25	821.89
656.59	815.60
656.93	809.68
657.27	803.68
657.61	797.37
657.95	791.48
658.29	785.56
658.64	779.38
658.98	773.17
659.32	766.86
659.66	760.85
660.00	754.66
660.34	748.88
660.68	743.15
661.02	737.38
661.36	731.89
661.70	726.79
662.05	721.82
662.39	716.84
662.73	711.70
663.07	706.69
663.41	701.53
663.75	696.42
664.09	691.10
664.43	685.98
664.77	681.20
665.11	676.27
665.45	671.55
665.79	666.89
666.13	662.15
666.47	657.36
666.81	652.55
667.15	647.82
667.49	643.33
667.83	638.87
668.17	634.29
668.51	629.61
668.85	624.93
669.19	620.38
669.53	615.94
669.87	611.56
670.21	607.19
670.55	602.95
670.89	598.94
671.23	594.99
671.57	590.97
671.91	586.85
672.25	582.81
672.58	578.71
672.92	574.73
673.26	571.13
673.60	567.46
673.94	563.91
674.28	560.54
674.62	557.09
674.96	553.50
675.30	550.13
675.64	546.77
675.97	543.53
676.31	540.23
676.65	536.84
676.99	533.68
677.33	530.32
677.67	527.08
678.01	523.57
678.34	520.16
678.68	516.77
679.02	513.56
679.36	510.32
679.70	507.11
680.04	503.93
680.37	500.61
680.71	497.35
681.05	494.30
681.39	491.12
681.73	488.05
682.06	485.14
682.40	482.15
682.74	479.13
683.08	476.15
683.42	473.15
683.75	470.24
684.09	467.31
684.43	464.47
684.77	461.57
685.10	458.81
685.44	456.05
685.78	453.42
686.12	450.79
686.45	448.13
686.79	445.49
687.13	442.95
687.46	440.41
687.80	437.90
688.14	435.29
688.48	432.92
688.81	430.34
689.15	427.81
689.49	425.33
689.82	422.96
690.16	420.51
690.50	418.20
690.83	415.98
691.17	413.60
691.51	411.34
691.84	409.17
692.18	406.93
692.52	404.71
692.85	402.42
693.19	400.19
693.52	398.08
693.86	395.97
694.20	393.86
694.53	391.72
694.87	389.57
695.21	387.46
695.54	385.30
695.88	383.29
696.21	381.26
696.55	379.29
696.88	377.28
697.22	375.38
697.56	373.53
697.89	371.57
698.23	369.70
698.56	367.87
698.90	366.07
699.23	364.16
699.57	362.36
699.90	360.57
700.24	358.82
700.58	357.03
700.91	355.31
701.25	353.62
701.58	352.04
701.92	350.50
702.25	348.96
702.59	347.38
702.92	345.82
703.26	344.30
703.59	342.85
703.93	341.51
704.26	340.11
704.60	338.60
704.93	337.14
705.26	335.71
705.60	334.33
705.93	332.98
706.27	331.76
706.60	330.51
706.94	329.30
707.27	327.96
707.61	326.72
707.94	325.51
708.27	324.22
708.61	322.91
708.94	321.73
709.28	320.57
709.61	319.48
709.94	318.36
710.28	317.19
710.61	316.03
710.95	314.76
711.28	313.64
711.61	312.56
711.95	311.46
712.28	310.37
712.61	309.26
712.95	308.20
713.28	307.18
713.61	306.15
713.95	305.08
714.28	304.16
714.61	303.15
714.95	302.17
715.28	301.20
715.61	300.23
715.95	299.23
716.28	298.21
716.61	297.22
716.95	296.26
717.28	295.37
717.61	294.48
717.94	293.66
718.28	292.73
718.61	291.87
718.94	291.05
719.27	290.29
719.61	289.52
719.94	288.75
720.27	287.88
720.60	287.10
720.94	286.35
721.27	285.60
721.60	284.93
721.93	284.20
722.27	283.58
722.60	282.93
722.93	282.25
723.26	281.60
723.59	280.92
723.93	280.26
724.26	279.62
724.59	278.95
724.92	278.29
725.25	277.71
725.59	277.11
725.92	276.54
726.25	275.95
726.58	275.34
726.91	274.72
727.24	274.17
727.57	273.59
727.91	273.00
728.24	272.48
728.57	271.86
728.90	271.33
729.23	270.72
729.56	270.19
729.89	269.66
730.22	269.09
730.55	268.54
730.89	268.07
731.22	267.58
731.55	267.06
731.88	266.58
732.21	266.05
732.54	265.51
732.87	265.00
733.20	264.53
733.53	264.04
733.86	263.62
734.19	263.18
734.52	262.73
734.85	262.35
735.18	261.80
735.51	261.38
735.84	260.96
736.17	260.54
736.50	260.11
736.83	259.80
737.16	259.44
737.49	259.07
737.82	258.68
738.15	258.25
738.48	257.87
738.81	257.46
739.14	257.06
739.47	256.68
739.80	256.31
740.13	255.91
740.46	255.58
740.79	255.21
741.12	254.84
741.45	254.46
741.78	254.04
742.11	253.75
742.44	253.36
742.77	253.01
743.10	252.64
743.43	252.25
743.75	251.82
744.08	251.61
744.41	251.31
744.74	250.94
745.07	250.62
745.40	250.33
745.73	250.03
746.06	249.76
746.39	249.46
746.71	249.19
747.04	248.85
747.37	248.53
747.70	248.20
748.03	247.89
748.36	247.63
748.68	247.36
749.01	247.05
749.34	246.79
749.67	246.56
750.00	246.33
750.33	246.16
750.65	245.92
750.98	245.52
751.31	245.27
751.64	245.03
751.97	244.80
752.29	244.53
752.62	244.26
752.95	244.03
753.28	243.79
753.60	243.52
753.93	243.36
754.26	243.12
754.59	242.86
754.91	242.65
755.24	242.40
755.57	242.20
755.90	242.01
756.22	241.79
756.55	241.56
756.88	241.32
757.20	241.04
757.53	240.81
757.86	240.66
758.19	240.49
758.51	240.31
758.84	240.10
759.17	239.94
759.49	239.81
759.82	239.66
760.15	239.50
760.47	239.35
760.80	239.13
761.13	238.96
761.45	238.85
761.78	238.69
762.11	238.56
762.43	238.39
762.76	238.22
763.08	238.11
763.41	237.96
763.74	237.84
764.06	237.70
764.39	237.55
764.71	237.33
765.04	237.12
765.37	236.93
765.69	236.81
766.02	236.65
766.34	236.47
766.67	236.30
767.00	236.15
767.32	236.07
767.65	235.99
767.97	235.89
768.30	235.72
768.62	235.59
768.95	235.44
769.27	235.29
769.60	235.17
769.92	235.01
770.25	234.86
770.57	234.72
770.90	234.61
771.22	234.49
771.55	234.40
771.87	234.31
772.20	234.23
772.52	234.18
772.85	234.19
773.17	234.09
773.50	233.95
773.82	233.82
774.15	233.67
774.47	233.50
774.80	233.41
775.12	233.33
775.45	233.20
775.77	233.12
776.09	233.02
776.42	232.91
776.74	232.87
777.07	232.76
777.39	232.66
777.72	232.56
778.04	232.49
778.36	232.41
778.69	232.31
779.01	232.22
779.33	232.08
779.66	231.87
779.98	231.76
780.31	231.71
780.63	231.72
780.95	231.62
781.28	231.55
781.60	231.45
781.92	231.37
782.25	231.30
782.57	231.23
782.89	231.20
783.22	231.12
783.54	230.99
783.86	230.93
784.19	230.82
784.51	230.77
784.83	230.71
785.16	230.63
785.48	230.60
785.80	230.54
786.12	230.47
786.45	230.43
786.77	230.43
787.09	230.41
787.42	230.30
787.74	230.29
788.06	230.27
788.38	230.19
788.71	230.16
789.03	230.12
789.35	230.07
789.67	230.00
789.99	229.97
790.32	229.93
790.64	229.92
790.96	230.02
791.28	229.92
791.61	229.85
791.93	229.84
792.25	229.79
792.57	229.85
792.89	229.79
793.21	229.71
793.54	229.67
793.86	229.57
794.18	229.54
794.50	229.48
794.82	229.42
795.14	229.42
795.47	229.39
795.79	229.37
796.11	229.31
796.43	229.26
796.75	229.23
797.07	229.21
797.39	229.18
797.71	229.06
798.04	229.04
798.36	229.01
798.68	228.93
799.00	228.91
799.32	228.80
799.64	228.79
799.96	228.78
800.28	228.73
800.60	228.70
800.92	228.69
801.24	228.66
801.56	228.65
801.89	228.59
802.21	228.56
802.53	228.50
802.85	228.51
803.17	228.52
803.49	228.46
803.81	228.41
804.13	228.34
804.45	228.31
804.77	228.29
805.09	228.25
805.41	228.23
805.73	228.18
806.05	228.14
806.37	228.08
806.69	228.06
807.01	228.03
807.33	228.02
807.65	227.93
807.97	227.94
808.28	227.89
808.60	227.85
808.92	227.82
809.24	227.85
809.56	227.82
809.88	227.78
810.20	227.76
810.52	227.77
810.84	227.76
811.16	227.74
811.48	227.70
811.80	227.72
812.12	227.64
812.43	227.64
812.75	227.61
813.07	227.60
813.39	227.59
813.71	227.57
814.03	227.52
814.35	227.50
814.67	227.43
814.98	227.42
815.30	227.43
815.62	227.37
815.94	227.30
816.26	227.31
816.58	227.27
816.89	227.26
817.21	227.22
817.53	227.20
817.85	227.19
818.17	227.15
818.48	227.10
818.80	227.15
819.12	227.09
819.44	227.07
819.76	227.01
820.07	226.99
820.39	226.94
820.71	226.95
821.03	226.93
821.34	226.93
821.66	226.91
821.98	226.88
822.30	226.89
822.61	226.95
822.93	226.87
823.25	226.86
823.57	226.81
823.88	226.81
824.20	226.79
824.52	226.77
824.83	226.76
825.15	226.75
825.47	226.74
825.79	226.77
826.10	226.75
826.42	226.75
826.74	226.68
827.05	226.69
827.37	226.67
827.69	226.66
828.00	226.63
828.32	226.62
828.64	226.59
828.95	226.59
829.27	226.52
829.58	226.51
829.90	226.52
830.22	226.49
830.53	226.50
830.85	226.44
831.17	226.40
831.48	226.42
831.80	226.39
832.11	226.38
832.43	226.35
832.75	226.35
833.06	226.41
833.38	226.43
833.69	226.40
834.01	226.38
834.32	226.37
834.64	226.34
834.96	226.33
835.27	226.31
835.59	226.28
835.90	226.28
836.22	226.26
836.53	226.20
836.85	226.22
837.16	226.27
837.48	226.27
837.79	226.28
838.11	226.26
838.42	226.25
838.74	226.25
839.05	226.20
839.37	226.17
839.68	226.10
840.00	226.06
840.31	226.09
840.63	226.10
840.94	226.08
841.26	226.06
841.57	226.03
841.88	226.05
842.20	226.04
842.51	226.02
842.83	226.02
843.14	226.10
843.46	226.10
843.77	226.03
844.08	226.04
844.40	226.01
844.71	225.98
845.03	225.96
845.34	225.93
845.65	225.97
845.97	225.98
846.28	225.95
846.60	225.97
846.91	225.95
847.22	225.94
847.54	225.93
847.85	225.95
848.16	225.95
848.48	225.91
848.79	225.95
849.10	225.96
849.42	225.97
849.73	225.91
850.04	225.88
850.36	225.83
850.67	225.80
850.98	225.81
851.30	225.82
851.61	225.81
851.92	225.84
852.23	225.85
852.55	225.85
852.86	225.87
853.17	225.87
853.49	225.89
853.80	225.91
854.11	225.92
854.42	225.90
854.74	225.92
855.05	225.92
855.36	225.83
855.67	225.81
855.99	225.80
856.30	225.88
856.61	225.89
856.92	225.92
857.23	225.96
857.55	225.94
857.86	225.96
858.17	225.97
858.48	225.91
858.79	225.88
859.11	225.88
859.42	225.83
859.73	225.80
860.04	225.77
860.35	225.72
860.66	225.70
860.98	225.70
861.29	225.66
861.60	225.65
861.91	225.70
862.22	225.68
862.53	225.65
862.84	225.54
863.16	225.58
863.47	225.55
863.78	225.51
864.09	225.53
864.40	225.52
864.71	225.51
865.02	225.50
865.33	225.47
865.64	225.45
865.95	225.48
866.27	225.55
866.58	225.54
866.89	225.52
867.20	225.52
867.51	225.50
867.82	225.52
868.13	225.54
868.44	225.50
868.75	225.51
869.06	225.53
869.37	225.56
869.68	225.51
869.99	225.49
870.30	225.47
870.61	225.44
870.92	225.41
871.23	225.41
871.54	225.42
871.85	225.44
872.16	225.46
872.47	225.48
872.78	225.40
873.09	225.43
873.40	225.44
873.71	225.43
874.02	225.41
874.33	225.38
874.64	225.36
874.95	225.39
875.26	225.37
875.56	225.35
875.87	225.29
876.18	225.27
876.49	225.39
876.80	225.40
877.11	225.40
877.42	225.40
877.73	225.42
878.04	225.41
878.35	225.41
878.66	225.40
878.96	225.39
879.27	225.39
879.58	225.37
879.89	225.40
880.20	225.41
880.51	225.43
880.82	225.46
881.12	225.47
881.43	225.46
881.74	225.42
882.05	225.41
882.36	225.43
882.67	225.45
882.97	225.30
883.28	225.29
883.59	225.29
883.90	225.30
884.21	225.27
884.51	225.25
884.82	225.21
885.13	225.23
885.44	225.21
885.74	225.19
886.05	225.17
886.36	225.14
886.67	225.11
886.98	225.15
887.28	225.13
887.59	225.12
887.90	225.13
888.20	225.14
888.51	225.19
888.82	225.19
889.13	225.19
889.43	225.28
889.74	225.31
890.05	225.29
890.35	225.27
890.66	225.27
890.97	225.31
891.28	225.32
891.58	225.28
891.89	225.28
892.20	225.32
892.50	225.33
892.81	225.35
893.12	225.36
893.42	225.31
893.73	225.33
894.04	225.33
894.34	225.33
894.65	225.30
894.95	225.26
895.26	225.28
895.57	225.34
895.87	225.30
896.18	225.30
896.48	225.33
896.79	225.37
897.10	225.38
897.40	225.37
897.71	225.38
898.01	225.40
898.32	225.41
898.63	225.42
898.93	225.41
899.24	225.42
899.54	225.41
899.85	225.41
900.15	225.39
900.46	225.41
900.76	225.41
901.07	225.45
901.38	225.48
901.68	225.47
901.99	225.38
902.29	225.39
902.60	225.36
902.90	225.34
903.21	225.28
903.51	225.31
903.82	225.34
904.12	225.31
904.43	225.30
904.73	225.27
905.03	225.23
905.34	225.30
905.64	225.29
905.95	225.29
906.25	225.30
906.56	225.30
906.86	225.26
907.17	225.24
907.47	225.23
907.77	225.19
908.08	225.15
908.38	225.15
908.69	225.13
908.99	225.13
909.30	225.12
909.60	225.13
909.90	225.09
910.21	225.05
910.51	225.04
910.81	225.07
911.12	225.05
911.42	225.08
911.73	224.99
912.03	224.99
912.33	225.02
912.64	225.00
912.94	225.00
913.24	224.98
913.55	224.98
913.85	224.97
914.15	224.99
914.46	225.03
914.76	225.05
915.06	225.06
915.37	225.06
915.67	225.08
915.97	225.10
916.27	225.07
916.58	225.08
916.88	225.08
917.18	225.06
917.49	225.15
917.79	225.14
918.09	225.13
918.39	225.15
918.70	225.13
919.00	225.14
919.30	225.19
919.60	225.21
919.91	225.19
920.21	225.22
920.51	225.19
920.81	225.17
921.12	225.20
921.42	225.16
921.72	225.19
922.02	225.20
922.32	225.23
922.63	225.21
922.93	225.25
923.23	225.29
923.53	225.26
923.83	225.19
924.13	225.21
924.44	225.21
924.74	225.22
925.04	225.26
925.34	225.25
925.64	225.20
925.94	225.19
926.24	225.23
926.55	225.21
926.85	225.24
927.15	225.21
927.45	225.19
927.75	225.22
928.05	225.22
928.35	225.22
928.65	225.22
928.95	225.26
929.26	225.20
929.56	225.18
929.86	225.18
930.16	225.18
930.46	225.15
930.76	225.16
931.06	225.12
931.36	225.10
931.66	225.10
931.96	225.11
932.26	225.15
932.56	225.12
932.86	225.14
933.16	225.09
933.46	225.11
933.76	225.08
934.06	225.10
934.36	225.14
934.66	225.10
934.96	225.08
935.26	225.12
935.56	225.16
935.86	225.13
936.16	225.11
936.46	225.08
936.76	225.08
937.06	225.09
937.36	225.07
937.66	225.06
937.96	225.07
938.26	225.02
938.56	224.96
938.86	224.95
939.16	224.95
939.46	224.99
939.76	224.97
940.06	224.99
940.35	224.95
940.65	224.87
940.95	224.90
941.25	224.87
941.55	224.82
941.85	224.81
942.15	224.83
942.45	224.89
942.75	224.91
943.04	224.92
943.34	224.94
943.64	224.96
943.94	224.95
944.24	224.96
944.54	225.02
944.84	225.03
945.13	225.02
945.43	225.03
945.73	225.04
946.03	225.08
946.33	225.07
946.62	225.06
946.92	225.05
947.22	225.02
947.52	225.00
947.82	225.02
948.11	225.00
948.41	224.99
948.71	224.94
949.01	224.96
949.31	224.94
949.60	224.87
949.90	224.86
950.20	224.88
950.50	224.88
950.79	224.86
951.09	224.84
951.39	224.84
951.69	224.80
951.98	224.80
952.28	224.78
952.58	224.79
952.87	224.79
953.17	224.81
953.47	224.80
953.76	224.79
954.06	224.75
954.36	224.74
954.66	224.72
954.95	224.73
955.25	224.71
955.55	224.71
955.84	224.69
956.14	224.73
956.44	224.73
956.73	224.70
957.03	224.71
957.32	224.71
957.62	224.73
957.92	224.76
958.21	224.74
958.51	224.85
958.81	224.86
959.10	224.86
959.40	224.86
959.69	224.87
959.99	224.92
960.29	224.96
960.58	224.94
960.88	224.96
961.17	224.98
961.47	224.99
961.76	225.00
962.06	225.06
962.36	225.04
962.65	225.00
962.95	224.97
963.24	224.98
963.54	224.97
963.83	224.98
964.13	224.94
964.42	224.93
964.72	224.84
965.01	224.82
965.31	224.82
965.60	224.77
965.90	224.84
966.19	224.80
966.49	224.77
966.78	224.80
967.08	224.79
967.37	224.77
967.67	224.78
967.96	224.79
968.26	224.77
968.55	224.75
968.85	224.76
969.14	224.79
969.43	224.77
969.73	224.77
970.02	224.76
970.32	224.77
970.61	224.76
970.91	224.72
971.20	224.72
971.49	224.71
971.79	224.75
972.08	224.69
972.38	224.71
972.67	224.73
972.96	224.73
973.26	224.74
973.55	224.76
973.85	224.73
974.14	224.71
974.43	224.71
974.73	224.69
975.02	224.69
975.31	224.67
975.61	224.67
975.90	224.68
976.19	224.67
976.49	224.67
976.78	224.69
977.07	224.70
977.37	224.72
977.66	224.73
977.95	224.75
978.24	224.76
978.54	224.78
978.83	224.76
979.12	224.78
979.42	224.76
979.71	224.75
980.00	224.77
980.29	224.78
980.59	224.79
980.88	224.83
981.17	224.85
981.46	224.87
981.76	224.85
982.05	224.89
982.34	224.88
982.63	224.89
982.93	224.90
983.22	224.92
983.51	224.91
983.80	224.95
984.09	224.94
984.39	224.93
984.68	224.90
984.97	224.91
985.26	224.89
985.55	224.92
985.85	224.91
986.14	224.92
986.43	224.96
986.72	224.92
987.01	224.87
987.30	224.86
987.59	224.85
987.89	224.90
988.18	224.82
988.47	224.83
988.76	224.81
989.05	224.79
989.34	224.77
989.63	224.80
989.92	224.73
990.22	224.74
990.51	224.72
990.80	224.76
991.09	224.78
991.38	224.79
991.67	224.77
991.96	224.81
992.25	224.81
992.54	224.78
992.83	224.80
993.12	224.83
993.41	224.84
993.70	224.87
993.99	224.85
994.28	224.93
994.58	224.95
994.87	224.94
995.16	224.94
995.45	224.95
995.74	224.90
996.03	224.96
996.32	224.94
996.61	225.00
996.90	224.98
997.19	224.99
997.48	224.97
997.77	224.95
998.06	224.94
998.34	224.93
998.63	224.92
998.92	224.94
999.21	224.96
999.50	224.99
999.79	224.97
1000.08	224.97
1000.37	224.97
1000.66	224.98
1000.95	225.02
1001.24	225.03
1001.53	225.05
1001.82	225.08
1002.11	225.03
1002.40	225.07
1002.68	225.07
1002.97	225.12
1003.26	225.09
1003.55	225.09
1003.84	225.07
1004.13	225.08
1004.42	225.06
1004.71	225.07
1004.99	225.06
1005.28	225.11
1005.57	225.06
1005.86	225.04
1006.15	225.05
1006.44	225.01
1006.72	224.99
1007.01	224.99
1007.30	224.98
1007.59	224.99
1007.88	224.98
1008.17	225.01
1008.45	224.97
1008.74	224.95
1009.03	224.91
1009.32	224.91
1009.60	224.93
1009.89	224.97
1010.18	224.94
1010.47	224.98
1010.76	224.97
1011.04	224.97
1011.33	224.94
1011.62	224.94
1011.91	224.98
1012.19	224.99
1012.48	224.98
1012.77	224.98
1013.05	225.03
1013.34	225.04
1013.63	225.02
1013.92	225.03
1014.20	225.03
1014.49	225.06
1014.78	225.03
1015.06	225.01
1015.35	225.02
1015.64	225.05
1015.92	225.05
1016.21	225.04
1016.50	225.00
1016.78	225.02
1017.07	225.05
1017.36	225.01
1017.64	225.01
1017.93	225.01
1018.22	224.99
1018.50	224.99
1018.79	224.98
1019.08	224.90
1019.36	224.87
1019.65	224.86
1019.93	224.89
1020.22	224.90
1020.51	224.93
1020.79	224.95
1021.08	224.84
1021.36	224.48
1021.65	224.85
1021.94	224.45
1022.22	224.32
1022.51	224.67
1022.79	225.68
1023.08	225.19
1023.36	225.98
1023.65	225.00
>>>>>End Processed Spectral Data<<<<<
