SpectraSuite Data File
++++++++++++++++++++++++++++++++++++
Date: Fri Feb 01 18:06:39 EST 2013
User: group
Dark Spectrum Present: No
Reference Spectrum Present: No
Number of Sampled Component Spectra: 1
Spectrometers: USB2E7196
Integration Time (usec): 35000 (USB2E7196)
Spectra Averaged: 100 (USB2E7196)
Boxcar Smoothing: 10 (USB2E7196)
Correct for Electrical Dark: No (USB2E7196)
Strobe/Lamp Enabled: No (USB2E7196)
Correct for Detector Non-linearity: No (USB2E7196)
Correct for Stray Light: No (USB2E7196)
Number of Pixels in Processed Spectrum: 2048
>>>>>Begin Processed Spectral Data<<<<<
339.09	0.00
339.48	213.29
339.86	214.01
340.24	215.66
340.63	217.30
341.01	220.01
341.39	220.28
341.78	221.69
342.16	222.65
342.54	223.16
342.93	211.56
343.31	222.25
343.69	222.77
344.07	223.25
344.46	223.67
344.84	224.08
345.22	224.31
345.60	224.53
345.99	224.70
346.37	224.86
346.75	224.94
347.13	225.01
347.52	225.06
347.90	225.15
348.28	225.17
348.66	225.18
349.05	225.16
349.43	225.20
349.81	225.27
350.19	225.31
350.57	225.37
350.96	225.44
351.34	225.50
351.72	225.61
352.10	225.71
352.48	225.81
352.87	225.88
353.25	225.96
353.63	226.05
354.01	226.10
354.39	226.16
354.77	226.27
355.15	226.36
355.54	226.46
355.92	226.47
356.30	226.53
356.68	226.68
357.06	226.74
357.44	226.73
357.82	226.79
358.20	226.87
358.58	226.91
358.97	226.98
359.35	227.08
359.73	227.14
360.11	227.15
360.49	227.19
360.87	227.20
361.25	227.25
361.63	227.31
362.01	227.36
362.39	227.39
362.77	227.40
363.15	227.42
363.53	227.44
363.91	227.49
364.29	227.51
364.67	227.40
365.05	227.44
365.43	227.49
365.81	227.51
366.19	227.54
366.57	227.59
366.95	227.54
367.33	227.50
367.71	227.50
368.09	227.56
368.47	227.55
368.85	227.53
369.23	227.52
369.61	227.47
369.99	227.48
370.37	227.44
370.75	227.49
371.13	227.44
371.51	227.37
371.89	227.34
372.27	227.31
372.65	227.29
373.03	227.26
373.41	227.21
373.78	227.16
374.16	227.09
374.54	227.05
374.92	227.02
375.30	226.99
375.68	226.93
376.06	226.84
376.44	226.76
376.82	226.68
377.19	226.64
377.57	226.58
377.95	226.49
378.33	226.44
378.71	226.30
379.09	226.26
379.47	226.25
379.84	226.19
380.22	226.15
380.60	226.06
380.98	225.99
381.36	225.94
381.73	225.85
382.11	225.78
382.49	225.69
382.87	225.62
383.25	225.53
383.62	225.61
384.00	225.58
384.38	225.56
384.76	225.52
385.13	225.51
385.51	225.46
385.89	225.41
386.27	225.39
386.64	225.36
387.02	225.31
387.40	225.26
387.78	225.22
388.15	225.16
388.53	225.14
388.91	225.11
389.29	225.07
389.66	225.08
390.04	225.04
390.42	225.06
390.79	225.03
391.17	225.05
391.55	224.91
391.92	224.89
392.30	224.90
392.68	224.89
393.05	224.87
393.43	224.87
393.81	224.92
394.18	224.92
394.56	224.91
394.94	224.94
395.31	224.96
395.69	225.02
396.06	225.04
396.44	225.07
396.82	225.09
397.19	225.13
397.57	225.17
397.95	225.23
398.32	225.22
398.70	225.29
399.07	225.35
399.45	225.41
399.82	225.48
400.20	225.52
400.58	225.59
400.95	225.63
401.33	225.77
401.70	225.90
402.08	225.96
402.45	226.06
402.83	226.17
403.20	226.27
403.58	226.40
403.95	226.56
404.33	226.72
404.71	226.86
405.08	227.09
405.46	227.22
405.83	227.41
406.21	227.60
406.58	227.77
406.96	227.97
407.33	228.17
407.70	228.40
408.08	228.72
408.45	228.97
408.83	229.24
409.20	229.45
409.58	229.66
409.95	229.97
410.33	230.35
410.70	230.66
411.08	231.01
411.45	231.36
411.82	231.78
412.20	232.21
412.57	232.74
412.95	233.11
413.32	233.61
413.69	234.11
414.07	234.65
414.44	235.30
414.82	235.89
415.19	236.58
415.56	237.31
415.94	238.05
416.31	238.91
416.68	239.73
417.06	240.70
417.43	241.58
417.81	242.65
418.18	243.69
418.55	244.84
418.93	246.02
419.30	247.24
419.67	248.47
420.04	249.79
420.42	251.12
420.79	252.74
421.16	254.35
421.54	255.99
421.91	257.67
422.28	259.36
422.66	261.19
423.03	262.97
423.40	264.77
423.77	266.69
424.15	268.61
424.52	270.70
424.89	272.83
425.26	275.02
425.64	277.00
426.01	279.13
426.38	281.39
426.75	283.68
427.13	286.05
427.50	288.57
427.87	291.11
428.24	293.66
428.61	296.07
428.99	298.68
429.36	301.58
429.73	304.41
430.10	307.16
430.47	309.96
430.85	312.90
431.22	315.98
431.59	319.19
431.96	322.29
432.33	325.66
432.70	328.94
433.08	332.76
433.45	336.37
433.82	339.98
434.19	343.89
434.56	347.70
434.93	351.29
435.30	354.80
435.68	358.79
436.05	362.63
436.42	366.41
436.79	369.82
437.16	373.48
437.53	377.30
437.90	381.18
438.27	384.90
438.64	388.77
439.01	392.27
439.38	395.35
439.75	398.27
440.13	401.76
440.50	404.95
440.87	407.46
441.24	410.09
441.61	413.00
441.98	415.05
442.35	417.54
442.72	420.09
443.09	422.63
443.46	423.98
443.83	424.82
444.20	425.53
444.57	426.76
444.94	427.17
445.31	427.66
445.68	428.08
446.05	428.18
446.42	427.64
446.79	427.07
447.16	426.49
447.53	426.08
447.90	424.43
448.27	422.87
448.64	420.75
449.01	419.20
449.37	416.49
449.74	413.92
450.11	410.84
450.48	407.46
450.85	403.97
451.22	401.02
451.59	398.25
451.96	395.59
452.33	391.96
452.70	388.73
453.07	384.88
453.43	380.98
453.80	377.27
454.17	373.62
454.54	370.15
454.91	366.41
455.28	362.75
455.65	359.30
456.02	355.89
456.38	352.89
456.75	349.24
457.12	346.18
457.49	343.14
457.86	340.13
458.23	337.61
458.59	334.79
458.96	331.94
459.33	329.37
459.70	326.82
460.07	324.73
460.43	322.35
460.80	320.10
461.17	318.08
461.54	315.96
461.91	313.97
462.27	311.98
462.64	310.25
463.01	308.41
463.38	306.65
463.74	304.81
464.11	303.23
464.48	301.81
464.85	300.29
465.21	299.03
465.58	297.79
465.95	296.28
466.32	295.01
466.68	293.77
467.05	292.54
467.42	291.31
467.78	290.08
468.15	288.87
468.52	287.96
468.88	286.82
469.25	285.74
469.62	284.89
469.98	283.99
470.35	283.13
470.72	282.33
471.08	281.43
471.45	280.64
471.82	279.87
472.18	279.00
472.55	278.37
472.92	277.65
473.28	277.01
473.65	276.37
474.02	275.77
474.38	275.23
474.75	274.76
475.11	274.28
475.48	273.90
475.85	273.59
476.21	273.23
476.58	272.93
476.94	272.74
477.31	272.48
477.67	272.22
478.04	272.03
478.41	271.88
478.77	271.84
479.14	271.73
479.50	271.69
479.87	271.77
480.23	271.85
480.60	271.89
480.96	271.91
481.33	272.05
481.69	272.24
482.06	272.40
482.42	272.60
482.79	272.78
483.15	273.05
483.52	273.39
483.88	273.72
484.25	274.07
484.61	274.46
484.98	274.90
485.34	275.47
485.71	276.04
486.07	276.65
486.44	277.19
486.80	277.85
487.17	278.60
487.53	279.37
487.90	280.22
488.26	281.21
488.62	282.26
488.99	283.30
489.35	284.37
489.72	285.53
490.08	286.76
490.44	288.08
490.81	289.44
491.17	290.88
491.54	292.42
491.90	294.05
492.26	295.79
492.63	297.62
492.99	299.51
493.36	301.51
493.72	303.66
494.08	305.89
494.45	308.28
494.81	310.79
495.17	313.37
495.54	316.11
495.90	318.88
496.26	321.85
496.63	324.99
496.99	328.24
497.35	331.69
497.72	335.23
498.08	338.94
498.44	342.87
498.80	346.99
499.17	351.26
499.53	355.71
499.89	360.34
500.26	365.08
500.62	369.98
500.98	375.23
501.34	380.59
501.71	386.25
502.07	392.10
502.43	398.09
502.79	404.30
503.16	410.74
503.52	417.44
503.88	424.27
504.24	431.29
504.60	438.68
504.97	446.28
505.33	454.11
505.69	462.30
506.05	470.61
506.41	479.00
506.78	487.74
507.14	496.76
507.50	506.07
507.86	515.66
508.22	525.52
508.59	535.40
508.95	545.66
509.31	556.23
509.67	567.00
510.03	578.00
510.39	589.33
510.75	600.85
511.12	612.56
511.48	624.62
511.84	636.88
512.20	649.20
512.56	662.06
512.92	675.17
513.28	688.54
513.64	701.95
514.00	715.62
514.37	729.52
514.73	743.54
515.09	757.54
515.45	771.91
515.81	786.63
516.17	801.75
516.53	817.02
516.89	832.39
517.25	847.77
517.61	863.36
517.97	879.08
518.33	894.86
518.69	910.90
519.05	927.21
519.41	943.76
519.77	960.72
520.13	977.64
520.49	994.52
520.85	1011.25
521.21	1028.44
521.57	1046.33
521.93	1063.63
522.29	1081.54
522.65	1099.49
523.01	1117.28
523.37	1134.93
523.73	1152.60
524.09	1170.33
524.45	1188.26
524.81	1206.62
525.17	1225.22
525.53	1243.88
525.89	1262.54
526.25	1281.26
526.61	1299.53
526.97	1318.07
527.33	1336.31
527.68	1354.73
528.04	1372.94
528.40	1391.52
528.76	1410.61
529.12	1429.06
529.48	1447.87
529.84	1465.86
530.20	1484.39
530.56	1503.39
530.91	1522.98
531.27	1541.92
531.63	1560.46
531.99	1579.15
532.35	1597.23
532.71	1615.14
533.07	1633.50
533.42	1651.52
533.78	1669.64
534.14	1688.11
534.50	1705.62
534.86	1723.63
535.21	1740.92
535.57	1759.17
535.93	1776.83
536.29	1793.71
536.65	1810.93
537.00	1827.88
537.36	1845.48
537.72	1862.15
538.08	1878.97
538.44	1894.94
538.79	1911.08
539.15	1926.98
539.51	1942.83
539.87	1959.32
540.22	1975.43
540.58	1991.57
540.94	2007.01
541.29	2022.15
541.65	2036.95
542.01	2052.55
542.37	2067.28
542.72	2082.00
543.08	2096.04
543.44	2110.98
543.79	2124.65
544.15	2137.97
544.51	2152.09
544.87	2165.28
545.22	2178.48
545.58	2190.94
545.94	2202.80
546.29	2214.86
546.65	2227.12
547.01	2238.83
547.36	2249.83
547.72	2260.52
548.07	2270.42
548.43	2280.71
548.79	2290.81
549.14	2300.45
549.50	2309.84
549.86	2319.58
550.21	2328.96
550.57	2338.18
550.92	2346.64
551.28	2355.69
551.64	2364.87
551.99	2373.21
552.35	2381.43
552.70	2389.58
553.06	2397.55
553.41	2405.89
553.77	2413.70
554.13	2421.57
554.48	2429.61
554.84	2437.12
555.19	2444.17
555.55	2451.03
555.90	2457.41
556.26	2464.36
556.61	2470.91
556.97	2476.97
557.32	2482.66
557.68	2488.54
558.03	2494.34
558.39	2499.61
558.74	2506.05
559.10	2511.42
559.45	2516.67
559.81	2522.68
560.16	2528.15
560.52	2532.82
560.87	2537.86
561.23	2542.02
561.58	2546.34
561.94	2550.20
562.29	2553.64
562.64	2557.82
563.00	2561.92
563.35	2566.86
563.71	2571.20
564.06	2575.87
564.42	2580.11
564.77	2584.11
565.12	2587.80
565.48	2591.22
565.83	2594.44
566.19	2596.80
566.54	2598.74
566.89	2601.13
567.25	2602.72
567.60	2604.96
567.96	2607.76
568.31	2609.43
568.66	2611.74
569.02	2613.39
569.37	2614.61
569.72	2616.55
570.08	2617.47
570.43	2618.41
570.78	2618.56
571.14	2617.62
571.49	2616.83
571.84	2617.20
572.20	2616.83
572.55	2616.30
572.90	2615.01
573.26	2614.03
573.61	2612.70
573.96	2611.54
574.31	2608.74
574.67	2605.94
575.02	2602.53
575.37	2599.35
575.72	2595.84
576.08	2592.42
576.43	2589.01
576.78	2585.42
577.13	2582.24
577.49	2579.08
577.84	2575.58
578.19	2571.91
578.54	2568.43
578.90	2564.25
579.25	2558.30
579.60	2552.97
579.95	2547.76
580.30	2542.50
580.66	2537.00
581.01	2531.73
581.36	2526.38
581.71	2522.07
582.06	2517.42
582.42	2512.57
582.77	2506.92
583.12	2502.03
583.47	2497.17
583.82	2491.90
584.17	2486.20
584.53	2480.28
584.88	2474.28
585.23	2467.97
585.58	2461.83
585.93	2455.82
586.28	2450.34
586.63	2444.98
586.98	2439.39
587.34	2434.05
587.69	2428.80
588.04	2423.11
588.39	2416.90
588.74	2409.69
589.09	2402.75
589.44	2395.18
589.79	2388.44
590.14	2382.20
590.49	2374.74
590.84	2367.44
591.19	2360.77
591.54	2353.58
591.89	2345.46
592.25	2337.78
592.60	2329.57
592.95	2321.09
593.30	2312.71
593.65	2304.28
594.00	2296.18
594.35	2287.87
594.70	2278.61
595.05	2270.54
595.40	2262.09
595.75	2253.45
596.10	2246.50
596.45	2238.84
596.80	2231.80
597.15	2224.27
597.50	2216.32
597.85	2208.75
598.19	2201.04
598.54	2192.82
598.89	2185.12
599.24	2178.23
599.59	2170.64
599.94	2163.52
600.29	2156.27
600.64	2148.66
600.99	2140.11
601.34	2132.27
601.69	2124.16
602.04	2116.39
602.39	2107.73
602.74	2099.89
603.08	2092.08
603.43	2084.11
603.78	2075.52
604.13	2067.08
604.48	2058.77
604.83	2050.53
605.18	2042.62
605.53	2033.39
605.87	2024.01
606.22	2015.44
606.57	2006.14
606.92	1997.44
607.27	1989.11
607.62	1980.96
607.96	1972.34
608.31	1964.51
608.66	1955.51
609.01	1946.80
609.36	1937.82
609.70	1928.36
610.05	1918.81
610.40	1909.78
610.75	1899.99
611.10	1891.06
611.44	1881.03
611.79	1871.34
612.14	1861.27
612.49	1850.42
612.83	1840.40
613.18	1830.81
613.53	1821.42
613.88	1811.29
614.22	1801.60
614.57	1791.35
614.92	1781.76
615.27	1772.83
615.61	1763.09
615.96	1753.62
616.31	1744.38
616.65	1735.69
617.00	1726.82
617.35	1717.85
617.70	1708.02
618.04	1698.06
618.39	1688.31
618.74	1679.36
619.08	1669.79
619.43	1660.69
619.78	1652.37
620.12	1643.98
620.47	1635.02
620.82	1625.15
621.16	1616.25
621.51	1607.08
621.85	1597.94
622.20	1587.88
622.55	1578.02
622.89	1568.62
623.24	1559.46
623.59	1550.78
623.93	1541.92
624.28	1533.32
624.62	1524.32
624.97	1515.68
625.32	1507.56
625.66	1499.31
626.01	1490.97
626.35	1482.14
626.70	1472.93
627.04	1463.93
627.39	1454.72
627.73	1446.07
628.08	1437.97
628.43	1429.51
628.77	1420.84
629.12	1411.97
629.46	1403.52
629.81	1394.77
630.15	1386.16
630.50	1377.50
630.84	1367.83
631.19	1358.40
631.53	1349.45
631.88	1340.45
632.22	1331.63
632.57	1322.98
632.91	1313.84
633.26	1304.99
633.60	1296.30
633.95	1287.93
634.29	1279.55
634.64	1271.65
634.98	1262.98
635.32	1254.64
635.67	1246.72
636.01	1238.88
636.36	1230.96
636.70	1223.18
637.05	1215.45
637.39	1207.84
637.73	1200.13
638.08	1193.22
638.42	1186.12
638.77	1178.55
639.11	1170.89
639.45	1163.38
639.80	1155.62
640.14	1148.24
640.49	1140.59
640.83	1133.08
641.17	1125.75
641.52	1118.30
641.86	1110.70
642.20	1103.89
642.55	1096.39
642.89	1088.93
643.23	1081.20
643.58	1074.39
643.92	1067.22
644.26	1060.18
644.61	1053.06
644.95	1046.03
645.29	1038.29
645.64	1030.48
645.98	1023.02
646.32	1016.20
646.66	1009.06
647.01	1002.29
647.35	995.56
647.69	988.65
648.04	982.14
648.38	975.39
648.72	968.53
649.06	961.51
649.41	954.57
649.75	947.61
650.09	940.67
650.43	934.07
650.78	926.95
651.12	920.00
651.46	913.22
651.80	906.66
652.14	900.39
652.49	894.18
652.83	888.15
653.17	881.62
653.51	875.01
653.85	868.71
654.20	862.16
654.54	855.19
654.88	848.54
655.22	841.70
655.56	835.05
655.90	828.60
656.25	822.54
656.59	816.31
656.93	810.45
657.27	804.46
657.61	798.09
657.95	792.10
658.29	786.18
658.64	780.13
658.98	773.96
659.32	767.69
659.66	761.65
660.00	755.47
660.34	749.76
660.68	744.05
661.02	738.23
661.36	732.82
661.70	727.63
662.05	722.62
662.39	717.70
662.73	712.57
663.07	707.52
663.41	702.29
663.75	697.08
664.09	691.79
664.43	686.66
664.77	681.89
665.11	677.01
665.45	672.28
665.79	667.54
666.13	662.67
666.47	657.88
666.81	653.07
667.15	648.33
667.49	643.75
667.83	639.22
668.17	634.73
668.51	629.96
668.85	625.21
669.19	620.73
669.53	616.28
669.87	611.77
670.21	607.46
670.55	603.33
670.89	599.31
671.23	595.35
671.57	591.30
671.91	587.22
672.25	583.14
672.58	578.99
672.92	575.06
673.26	571.40
673.60	567.70
673.94	564.06
674.28	560.73
674.62	557.36
674.96	553.81
675.30	550.37
675.64	546.99
675.97	543.76
676.31	540.36
676.65	536.95
676.99	533.83
677.33	530.52
677.67	527.22
678.01	523.75
678.34	520.23
678.68	516.93
679.02	513.66
679.36	510.43
679.70	507.29
680.04	504.14
680.37	500.82
680.71	497.62
681.05	494.65
681.39	491.46
681.73	488.31
682.06	485.30
682.40	482.43
682.74	479.48
683.08	476.52
683.42	473.54
683.75	470.58
684.09	467.59
684.43	464.70
684.77	461.83
685.10	459.07
685.44	456.44
685.78	453.65
686.12	451.00
686.45	448.33
686.79	445.66
687.13	443.00
687.46	440.47
687.80	437.91
688.14	435.30
688.48	432.85
688.81	430.21
689.15	427.74
689.49	425.17
689.82	422.75
690.16	420.38
690.50	418.11
690.83	415.89
691.17	413.58
691.51	411.36
691.84	409.18
692.18	406.95
692.52	404.53
692.85	402.35
693.19	400.16
693.52	397.99
693.86	395.85
694.20	393.80
694.53	391.70
694.87	389.56
695.21	387.50
695.54	385.35
695.88	383.41
696.21	381.42
696.55	379.46
696.88	377.44
697.22	375.47
697.56	373.52
697.89	371.61
698.23	369.76
698.56	367.91
698.90	366.13
699.23	364.23
699.57	362.49
699.90	360.68
700.24	358.91
700.58	357.19
700.91	355.49
701.25	353.78
701.58	352.19
701.92	350.61
702.25	348.96
702.59	347.45
702.92	345.89
703.26	344.38
703.59	342.90
703.93	341.56
704.26	340.15
704.60	338.70
704.93	337.20
705.26	335.79
705.60	334.42
705.93	333.06
706.27	331.81
706.60	330.59
706.94	329.33
707.27	328.02
707.61	326.77
707.94	325.53
708.27	324.33
708.61	323.03
708.94	321.86
709.28	320.73
709.61	319.60
709.94	318.49
710.28	317.30
710.61	316.14
710.95	314.88
711.28	313.84
711.61	312.75
711.95	311.69
712.28	310.53
712.61	309.39
712.95	308.27
713.28	307.25
713.61	306.24
713.95	305.22
714.28	304.21
714.61	303.19
714.95	302.22
715.28	301.23
715.61	300.21
715.95	299.21
716.28	298.17
716.61	297.18
716.95	296.21
717.28	295.37
717.61	294.47
717.94	293.64
718.28	292.66
718.61	291.76
718.94	290.97
719.27	290.22
719.61	289.47
719.94	288.72
720.27	287.89
720.60	287.10
720.94	286.35
721.27	285.66
721.60	284.93
721.93	284.26
722.27	283.60
722.60	282.98
722.93	282.37
723.26	281.79
723.59	281.14
723.93	280.53
724.26	279.87
724.59	279.20
724.92	278.57
725.25	277.97
725.59	277.37
725.92	276.76
726.25	276.13
726.58	275.55
726.91	275.02
727.24	274.46
727.57	273.89
727.91	273.32
728.24	272.75
728.57	272.23
728.90	271.65
729.23	271.06
729.56	270.56
729.89	269.94
730.22	269.41
730.55	268.82
730.89	268.33
731.22	267.81
731.55	267.32
731.88	266.84
732.21	266.36
732.54	265.87
732.87	265.38
733.20	264.93
733.53	264.45
733.86	263.96
734.19	263.50
734.52	263.02
734.85	262.60
735.18	262.17
735.51	261.75
735.84	261.31
736.17	260.91
736.50	260.41
736.83	260.15
737.16	259.74
737.49	259.39
737.82	258.94
738.15	258.57
738.48	258.17
738.81	257.77
739.14	257.38
739.47	257.05
739.80	256.69
740.13	256.35
740.46	255.97
740.79	255.60
741.12	255.21
741.45	254.89
741.78	254.50
742.11	254.15
742.44	253.75
742.77	253.41
743.10	253.04
743.43	252.70
743.75	252.28
744.08	252.09
744.41	251.74
744.74	251.45
745.07	251.11
745.40	250.82
745.73	250.53
746.06	250.21
746.39	249.88
746.71	249.54
747.04	249.22
747.37	248.92
747.70	248.65
748.03	248.38
748.36	248.12
748.68	247.85
749.01	247.56
749.34	247.29
749.67	247.00
750.00	246.76
750.33	246.59
750.65	246.35
750.98	245.97
751.31	245.72
751.64	245.46
751.97	245.27
752.29	245.00
752.62	244.71
752.95	244.47
753.28	244.21
753.60	243.97
753.93	243.73
754.26	243.53
754.59	243.24
754.91	242.99
755.24	242.72
755.57	242.47
755.90	242.27
756.22	242.05
756.55	241.81
756.88	241.56
757.20	241.24
757.53	241.03
757.86	240.81
758.19	240.61
758.51	240.41
758.84	240.11
759.17	239.91
759.49	239.72
759.82	239.58
760.15	239.40
760.47	239.19
760.80	239.00
761.13	238.84
761.45	238.62
761.78	238.44
762.11	238.30
762.43	238.14
762.76	237.97
763.08	237.83
763.41	237.68
763.74	237.54
764.06	237.41
764.39	237.18
764.71	237.01
765.04	236.88
765.37	236.70
765.69	236.61
766.02	236.49
766.34	236.35
766.67	236.15
767.00	236.00
767.32	235.93
767.65	235.87
767.97	235.74
768.30	235.66
768.62	235.56
768.95	235.39
769.27	235.28
769.60	235.16
769.92	235.02
770.25	234.90
770.57	234.74
770.90	234.60
771.22	234.49
771.55	234.40
771.87	234.29
772.20	234.19
772.52	234.15
772.85	234.17
773.17	234.06
773.50	233.93
773.82	233.82
774.15	233.66
774.47	233.48
774.80	233.35
775.12	233.24
775.45	233.09
775.77	233.02
776.09	232.92
776.42	232.84
776.74	232.79
777.07	232.70
777.39	232.66
777.72	232.60
778.04	232.53
778.36	232.42
778.69	232.34
779.01	232.27
779.33	232.09
779.66	231.87
779.98	231.82
780.31	231.78
780.63	231.74
780.95	231.73
781.28	231.66
781.60	231.60
781.92	231.52
782.25	231.49
782.57	231.43
782.89	231.35
783.22	231.27
783.54	231.16
783.86	231.09
784.19	231.00
784.51	230.96
784.83	230.90
785.16	230.81
785.48	230.76
785.80	230.72
786.12	230.66
786.45	230.61
786.77	230.53
787.09	230.47
787.42	230.42
787.74	230.35
788.06	230.33
788.38	230.28
788.71	230.26
789.03	230.20
789.35	230.17
789.67	230.13
789.99	230.07
790.32	230.04
790.64	230.03
790.96	230.05
791.28	229.99
791.61	229.91
791.93	229.94
792.25	229.87
792.57	229.86
792.89	229.83
793.21	229.81
793.54	229.79
793.86	229.74
794.18	229.69
794.50	229.63
794.82	229.55
795.14	229.54
795.47	229.52
795.79	229.51
796.11	229.44
796.43	229.38
796.75	229.36
797.07	229.31
797.39	229.23
797.71	229.15
798.04	229.11
798.36	229.07
798.68	229.01
799.00	229.01
799.32	228.93
799.64	228.91
799.96	228.87
800.28	228.83
800.60	228.79
800.92	228.77
801.24	228.77
801.56	228.76
801.89	228.70
802.21	228.66
802.53	228.59
802.85	228.55
803.17	228.60
803.49	228.55
803.81	228.53
804.13	228.50
804.45	228.45
804.77	228.45
805.09	228.44
805.41	228.40
805.73	228.33
806.05	228.26
806.37	228.22
806.69	228.16
807.01	228.13
807.33	228.13
807.65	228.02
807.97	228.03
808.28	227.98
808.60	227.92
808.92	227.90
809.24	227.93
809.56	227.91
809.88	227.80
810.20	227.80
810.52	227.77
810.84	227.73
811.16	227.70
811.48	227.65
811.80	227.65
812.12	227.64
812.43	227.63
812.75	227.62
813.07	227.55
813.39	227.54
813.71	227.51
814.03	227.47
814.35	227.47
814.67	227.36
814.98	227.32
815.30	227.28
815.62	227.20
815.94	227.10
816.26	227.14
816.58	227.09
816.89	227.08
817.21	227.07
817.53	227.06
817.85	227.07
818.17	227.06
818.48	226.99
818.80	226.99
819.12	226.93
819.44	226.87
819.76	226.85
820.07	226.82
820.39	226.79
820.71	226.76
821.03	226.72
821.34	226.72
821.66	226.71
821.98	226.72
822.30	226.71
822.61	226.76
822.93	226.66
823.25	226.67
823.57	226.62
823.88	226.62
824.20	226.61
824.52	226.57
824.83	226.54
825.15	226.54
825.47	226.47
825.79	226.51
826.10	226.51
826.42	226.51
826.74	226.51
827.05	226.50
827.37	226.49
827.69	226.50
828.00	226.51
828.32	226.50
828.64	226.47
828.95	226.51
829.27	226.46
829.58	226.44
829.90	226.43
830.22	226.43
830.53	226.37
830.85	226.33
831.17	226.30
831.48	226.28
831.80	226.24
832.11	226.26
832.43	226.20
832.75	226.22
833.06	226.25
833.38	226.22
833.69	226.19
834.01	226.20
834.32	226.18
834.64	226.13
834.96	226.15
835.27	226.14
835.59	226.08
835.90	226.06
836.22	226.05
836.53	226.04
836.85	226.02
837.16	226.13
837.48	226.14
837.79	226.15
838.11	226.15
838.42	226.18
838.74	226.16
839.05	226.15
839.37	226.11
839.68	226.04
840.00	226.03
840.31	226.05
840.63	226.02
840.94	226.02
841.26	226.01
841.57	225.98
841.88	225.98
842.20	225.98
842.51	225.97
842.83	225.98
843.14	226.07
843.46	226.07
843.77	225.99
844.08	225.96
844.40	225.94
844.71	225.96
845.03	225.92
845.34	225.92
845.65	225.92
845.97	225.91
846.28	225.91
846.60	225.91
846.91	225.90
847.22	225.88
847.54	225.91
847.85	225.93
848.16	225.92
848.48	225.94
848.79	225.97
849.10	225.96
849.42	225.97
849.73	225.88
850.04	225.85
850.36	225.77
850.67	225.81
850.98	225.80
851.30	225.79
851.61	225.80
851.92	225.79
852.23	225.83
852.55	225.86
852.86	225.87
853.17	225.91
853.49	225.94
853.80	225.98
854.11	225.99
854.42	225.99
854.74	225.97
855.05	225.97
855.36	225.90
855.67	225.89
855.99	225.88
856.30	225.97
856.61	225.99
856.92	226.04
857.23	226.06
857.55	226.04
857.86	226.02
858.17	226.04
858.48	226.05
858.79	226.03
859.11	226.04
859.42	226.04
859.73	226.00
860.04	225.97
860.35	225.95
860.66	225.91
860.98	225.91
861.29	225.93
861.60	225.93
861.91	225.95
862.22	225.93
862.53	225.89
862.84	225.78
863.16	225.78
863.47	225.77
863.78	225.73
864.09	225.76
864.40	225.74
864.71	225.75
865.02	225.74
865.33	225.72
865.64	225.71
865.95	225.73
866.27	225.80
866.58	225.76
866.89	225.76
867.20	225.74
867.51	225.73
867.82	225.70
868.13	225.68
868.44	225.66
868.75	225.70
869.06	225.70
869.37	225.70
869.68	225.70
869.99	225.72
870.30	225.72
870.61	225.70
870.92	225.71
871.23	225.66
871.54	225.68
871.85	225.71
872.16	225.67
872.47	225.65
872.78	225.54
873.09	225.56
873.40	225.56
873.71	225.55
874.02	225.57
874.33	225.56
874.64	225.54
874.95	225.56
875.26	225.52
875.56	225.55
875.87	225.56
876.18	225.52
876.49	225.61
876.80	225.59
877.11	225.58
877.42	225.57
877.73	225.60
878.04	225.55
878.35	225.52
878.66	225.51
878.96	225.47
879.27	225.51
879.58	225.51
879.89	225.50
880.20	225.52
880.51	225.48
880.82	225.52
881.12	225.53
881.43	225.51
881.74	225.51
882.05	225.49
882.36	225.49
882.67	225.50
882.97	225.38
883.28	225.39
883.59	225.37
883.90	225.35
884.21	225.34
884.51	225.32
884.82	225.34
885.13	225.37
885.44	225.35
885.74	225.35
886.05	225.33
886.36	225.31
886.67	225.28
886.98	225.33
887.28	225.32
887.59	225.28
887.90	225.30
888.20	225.28
888.51	225.30
888.82	225.30
889.13	225.28
889.43	225.36
889.74	225.35
890.05	225.36
890.35	225.40
890.66	225.36
890.97	225.35
891.28	225.31
891.58	225.28
891.89	225.32
892.20	225.30
892.50	225.29
892.81	225.29
893.12	225.29
893.42	225.22
893.73	225.22
894.04	225.23
894.34	225.22
894.65	225.22
894.95	225.21
895.26	225.17
895.57	225.23
895.87	225.15
896.18	225.14
896.48	225.14
896.79	225.12
897.10	225.12
897.40	225.14
897.71	225.15
898.01	225.17
898.32	225.14
898.63	225.16
898.93	225.15
899.24	225.13
899.54	225.11
899.85	225.12
900.15	225.13
900.46	225.12
900.76	225.11
901.07	225.11
901.38	225.09
901.68	225.10
901.99	225.04
902.29	225.03
902.60	225.00
902.90	224.99
903.21	224.96
903.51	224.94
903.82	224.96
904.12	224.94
904.43	224.92
904.73	224.91
905.03	224.87
905.34	224.96
905.64	224.97
905.95	224.97
906.25	224.97
906.56	224.89
906.86	224.88
907.17	224.84
907.47	224.81
907.77	224.78
908.08	224.77
908.38	224.78
908.69	224.77
908.99	224.79
909.30	224.79
909.60	224.80
909.90	224.84
910.21	224.80
910.51	224.78
910.81	224.82
911.12	224.86
911.42	224.89
911.73	224.81
912.03	224.81
912.33	224.80
912.64	224.79
912.94	224.82
913.24	224.80
913.55	224.81
913.85	224.82
914.15	224.88
914.46	224.85
914.76	224.84
915.06	224.87
915.37	224.84
915.67	224.83
915.97	224.85
916.27	224.80
916.58	224.79
916.88	224.81
917.18	224.77
917.49	224.79
917.79	224.77
918.09	224.76
918.39	224.76
918.70	224.76
919.00	224.77
919.30	224.82
919.60	224.84
919.91	224.84
920.21	224.86
920.51	224.81
920.81	224.82
921.12	224.82
921.42	224.81
921.72	224.81
922.02	224.80
922.32	224.80
922.63	224.79
922.93	224.82
923.23	224.85
923.53	224.85
923.83	224.78
924.13	224.80
924.44	224.78
924.74	224.83
925.04	224.86
925.34	224.85
925.64	224.80
925.94	224.79
926.24	224.83
926.55	224.80
926.85	224.81
927.15	224.82
927.45	224.83
927.75	224.81
928.05	224.82
928.35	224.83
928.65	224.83
928.95	224.87
929.26	224.86
929.56	224.87
929.86	224.89
930.16	224.92
930.46	224.91
930.76	224.93
931.06	224.85
931.36	224.81
931.66	224.83
931.96	224.86
932.26	224.87
932.56	224.86
932.86	224.88
933.16	224.87
933.46	224.88
933.76	224.84
934.06	224.86
934.36	224.89
934.66	224.90
934.96	224.88
935.26	224.89
935.56	224.93
935.86	224.88
936.16	224.86
936.46	224.86
936.76	224.84
937.06	224.81
937.36	224.85
937.66	224.88
937.96	224.88
938.26	224.85
938.56	224.81
938.86	224.82
939.16	224.86
939.46	224.90
939.76	224.91
940.06	224.97
940.35	225.00
940.65	224.95
940.95	225.00
941.25	225.01
941.55	225.00
941.85	225.01
942.15	225.07
942.45	225.11
942.75	225.10
943.04	225.13
943.34	225.17
943.64	225.17
943.94	225.18
944.24	225.19
944.54	225.19
944.84	225.23
945.13	225.20
945.43	225.17
945.73	225.17
946.03	225.17
946.33	225.13
946.62	225.10
946.92	225.11
947.22	225.06
947.52	225.07
947.82	225.04
948.11	225.00
948.41	224.95
948.71	224.90
949.01	224.91
949.31	224.88
949.60	224.87
949.90	224.89
950.20	224.89
950.50	224.89
950.79	224.89
951.09	224.91
951.39	224.93
951.69	224.92
951.98	224.93
952.28	224.94
952.58	224.92
952.87	224.94
953.17	224.96
953.47	224.99
953.76	224.99
954.06	224.99
954.36	224.97
954.66	224.97
954.95	225.00
955.25	225.00
955.55	225.02
955.84	225.03
956.14	225.01
956.44	224.99
956.73	224.96
957.03	224.93
957.32	224.91
957.62	224.91
957.92	224.90
958.21	224.85
958.51	224.93
958.81	224.94
959.10	224.96
959.40	225.00
959.69	224.99
959.99	225.01
960.29	225.00
960.58	225.00
960.88	225.04
961.17	225.02
961.47	225.00
961.76	224.96
962.06	224.96
962.36	224.95
962.65	224.95
962.95	224.95
963.24	224.95
963.54	224.93
963.83	224.92
964.13	224.95
964.42	224.94
964.72	224.87
965.01	224.83
965.31	224.80
965.60	224.74
965.90	224.78
966.19	224.76
966.49	224.77
966.78	224.78
967.08	224.75
967.37	224.72
967.67	224.71
967.96	224.76
968.26	224.74
968.55	224.78
968.85	224.78
969.14	224.76
969.43	224.78
969.73	224.83
970.02	224.84
970.32	224.81
970.61	224.83
970.91	224.81
971.20	224.83
971.49	224.84
971.79	224.84
972.08	224.80
972.38	224.79
972.67	224.79
972.96	224.78
973.26	224.74
973.55	224.84
973.85	224.89
974.14	224.89
974.43	224.92
974.73	224.87
975.02	224.88
975.31	224.93
975.61	224.93
975.90	224.91
976.19	224.92
976.49	224.95
976.78	224.95
977.07	224.97
977.37	225.02
977.66	225.04
977.95	225.06
978.24	225.07
978.54	225.11
978.83	225.14
979.12	225.15
979.42	225.22
979.71	225.21
980.00	225.17
980.29	225.17
980.59	225.15
980.88	225.20
981.17	225.20
981.46	225.19
981.76	225.19
982.05	225.23
982.34	225.26
982.63	225.27
982.93	225.29
983.22	225.32
983.51	225.32
983.80	225.34
984.09	225.38
984.39	225.36
984.68	225.36
984.97	225.35
985.26	225.38
985.55	225.37
985.85	225.32
986.14	225.35
986.43	225.34
986.72	225.31
987.01	225.30
987.30	225.29
987.59	225.28
987.89	225.28
988.18	225.24
988.47	225.19
988.76	225.16
989.05	225.13
989.34	225.12
989.63	225.14
989.92	225.09
990.22	225.07
990.51	225.09
990.80	225.08
991.09	225.06
991.38	225.06
991.67	225.05
991.96	225.03
992.25	225.04
992.54	225.05
992.83	225.06
993.12	225.02
993.41	225.03
993.70	225.07
993.99	225.10
994.28	225.10
994.58	225.11
994.87	225.10
995.16	225.08
995.45	225.05
995.74	224.99
996.03	225.02
996.32	225.03
996.61	225.00
996.90	224.98
997.19	224.97
997.48	224.92
997.77	224.89
998.06	224.91
998.34	224.85
998.63	224.84
998.92	224.84
999.21	224.84
999.50	224.84
999.79	224.80
1000.08	224.78
1000.37	224.78
1000.66	224.79
1000.95	224.80
1001.24	224.82
1001.53	224.82
1001.82	224.83
1002.11	224.81
1002.40	224.78
1002.68	224.84
1002.97	224.90
1003.26	224.89
1003.55	224.90
1003.84	224.92
1004.13	224.96
1004.42	224.97
1004.71	224.96
1004.99	224.96
1005.28	224.98
1005.57	224.97
1005.86	224.98
1006.15	224.97
1006.44	224.94
1006.72	224.97
1007.01	224.95
1007.30	224.96
1007.59	224.95
1007.88	224.98
1008.17	224.95
1008.45	224.94
1008.74	224.91
1009.03	224.87
1009.32	224.87
1009.60	224.89
1009.89	224.90
1010.18	224.86
1010.47	224.89
1010.76	224.90
1011.04	224.89
1011.33	224.91
1011.62	224.90
1011.91	224.91
1012.19	224.88
1012.48	224.91
1012.77	224.89
1013.05	224.97
1013.34	224.97
1013.63	224.96
1013.92	224.94
1014.20	224.97
1014.49	225.01
1014.78	225.03
1015.06	225.00
1015.35	225.02
1015.64	225.03
1015.92	225.01
1016.21	224.99
1016.50	224.96
1016.78	224.98
1017.07	224.97
1017.36	224.96
1017.64	224.97
1017.93	224.97
1018.22	224.96
1018.50	224.98
1018.79	224.96
1019.08	224.89
1019.36	224.86
1019.65	224.87
1019.93	224.87
1020.22	224.87
1020.51	224.88
1020.79	224.84
1021.08	224.45
1021.36	225.33
1021.65	224.55
1021.94	224.70
1022.22	224.35
1022.51	224.90
1022.79	225.08
1023.08	224.86
1023.36	225.68
1023.65	224.60
>>>>>End Processed Spectral Data<<<<<
