SpectraSuite Data File
++++++++++++++++++++++++++++++++++++
Date: Fri Feb 01 17:53:33 EST 2013
User: group
Dark Spectrum Present: No
Reference Spectrum Present: No
Number of Sampled Component Spectra: 1
Spectrometers: USB2E7196
Integration Time (usec): 35000 (USB2E7196)
Spectra Averaged: 100 (USB2E7196)
Boxcar Smoothing: 10 (USB2E7196)
Correct for Electrical Dark: No (USB2E7196)
Strobe/Lamp Enabled: No (USB2E7196)
Correct for Detector Non-linearity: No (USB2E7196)
Correct for Stray Light: No (USB2E7196)
Number of Pixels in Processed Spectrum: 2048
>>>>>Begin Processed Spectral Data<<<<<
339.09	0.00
339.48	212.39
339.86	214.15
340.24	215.37
340.63	217.17
341.01	219.30
341.39	219.70
341.78	220.68
342.16	221.88
342.54	222.63
342.93	210.98
343.31	221.65
343.69	222.21
344.07	222.69
344.46	223.12
344.84	223.49
345.22	223.75
345.60	223.97
345.99	224.16
346.37	224.28
346.75	224.37
347.13	224.45
347.52	224.52
347.90	224.60
348.28	224.61
348.66	224.68
349.05	224.70
349.43	224.76
349.81	224.80
350.19	224.85
350.57	224.92
350.96	225.01
351.34	225.09
351.72	225.16
352.10	225.23
352.48	225.29
352.87	225.34
353.25	225.39
353.63	225.49
354.01	225.56
354.39	225.68
354.77	225.77
355.15	225.87
355.54	225.91
355.92	225.94
356.30	226.02
356.68	226.15
357.06	226.23
357.44	226.27
357.82	226.33
358.20	226.39
358.58	226.47
358.97	226.52
359.35	226.63
359.73	226.72
360.11	226.79
360.49	226.82
360.87	226.87
361.25	226.93
361.63	226.99
362.01	227.08
362.39	227.08
362.77	227.13
363.15	227.15
363.53	227.20
363.91	227.22
364.29	227.27
364.67	227.18
365.05	227.19
365.43	227.22
365.81	227.26
366.19	227.29
366.57	227.33
366.95	227.32
367.33	227.27
367.71	227.27
368.09	227.29
368.47	227.31
368.85	227.32
369.23	227.30
369.61	227.26
369.99	227.26
370.37	227.24
370.75	227.27
371.13	227.21
371.51	227.15
371.89	227.17
372.27	227.14
372.65	227.14
373.03	227.11
373.41	227.05
373.78	226.99
374.16	226.93
374.54	226.86
374.92	226.80
375.30	226.76
375.68	226.67
376.06	226.64
376.44	226.58
376.82	226.55
377.19	226.52
377.57	226.47
377.95	226.34
378.33	226.28
378.71	226.15
379.09	226.10
379.47	226.06
379.84	225.98
380.22	225.95
380.60	225.84
380.98	225.78
381.36	225.76
381.73	225.69
382.11	225.63
382.49	225.59
382.87	225.55
383.25	225.52
383.62	225.61
384.00	225.54
384.38	225.53
384.76	225.46
385.13	225.45
385.51	225.42
385.89	225.39
386.27	225.34
386.64	225.34
387.02	225.31
387.40	225.26
387.78	225.22
388.15	225.15
388.53	225.13
388.91	225.11
389.29	225.07
389.66	225.05
390.04	225.02
390.42	225.02
390.79	224.99
391.17	224.97
391.55	224.84
391.92	224.79
392.30	224.74
392.68	224.72
393.05	224.70
393.43	224.69
393.81	224.72
394.18	224.76
394.56	224.72
394.94	224.74
395.31	224.73
395.69	224.75
396.06	224.76
396.44	224.77
396.82	224.77
397.19	224.83
397.57	224.86
397.95	224.90
398.32	224.87
398.70	224.92
399.07	224.98
399.45	225.02
399.82	225.09
400.20	225.14
400.58	225.20
400.95	225.23
401.33	225.30
401.70	225.42
402.08	225.46
402.45	225.59
402.83	225.73
403.20	225.87
403.58	225.99
403.95	226.14
404.33	226.27
404.71	226.40
405.08	226.60
405.46	226.79
405.83	226.96
406.21	227.14
406.58	227.34
406.96	227.51
407.33	227.70
407.70	227.94
408.08	228.24
408.45	228.52
408.83	228.83
409.20	229.09
409.58	229.32
409.95	229.64
410.33	229.95
410.70	230.25
411.08	230.59
411.45	230.98
411.82	231.39
412.20	231.83
412.57	232.36
412.95	232.71
413.32	233.20
413.69	233.72
414.07	234.26
414.44	234.86
414.82	235.48
415.19	236.20
415.56	236.89
415.94	237.63
416.31	238.48
416.68	239.27
417.06	240.22
417.43	241.07
417.81	242.09
418.18	243.12
418.55	244.23
418.93	245.38
419.30	246.58
419.67	247.81
420.04	249.10
420.42	250.41
420.79	251.97
421.16	253.50
421.54	255.10
421.91	256.71
422.28	258.40
422.66	260.13
423.03	261.84
423.40	263.60
423.77	265.43
424.15	267.33
424.52	269.34
424.89	271.43
425.26	273.55
425.64	275.45
426.01	277.61
426.38	279.82
426.75	282.07
427.13	284.34
427.50	286.74
427.87	289.23
428.24	291.69
428.61	294.06
428.99	296.61
429.36	299.42
429.73	302.17
430.10	304.87
430.47	307.65
430.85	310.50
431.22	313.51
431.59	316.65
431.96	319.59
432.33	322.87
432.70	326.01
433.08	329.77
433.45	333.28
433.82	336.69
434.19	340.50
434.56	344.22
434.93	347.73
435.30	351.21
435.68	355.03
436.05	358.84
436.42	362.55
436.79	365.93
437.16	369.51
437.53	373.30
437.90	377.02
438.27	380.66
438.64	384.38
439.01	387.80
439.38	390.78
439.75	393.69
440.13	397.02
440.50	400.19
440.87	402.62
441.24	405.23
441.61	408.10
441.98	410.11
442.35	412.50
442.72	414.98
443.09	417.42
443.46	418.73
443.83	419.46
444.20	420.16
444.57	421.30
444.94	421.70
445.31	422.13
445.68	422.54
446.05	422.60
446.42	422.16
446.79	421.62
447.16	421.07
447.53	420.67
447.90	419.09
448.27	417.50
448.64	415.40
449.01	413.88
449.37	411.20
449.74	408.66
450.11	405.66
450.48	402.38
450.85	398.96
451.22	396.15
451.59	393.46
451.96	390.84
452.33	387.32
452.70	384.17
453.07	380.36
453.43	376.50
453.80	372.84
454.17	369.25
454.54	365.82
454.91	362.19
455.28	358.64
455.65	355.34
456.02	352.05
456.38	349.19
456.75	345.62
457.12	342.69
457.49	339.71
457.86	336.84
458.23	334.35
458.59	331.61
458.96	328.82
459.33	326.33
459.70	323.84
460.07	321.86
460.43	319.53
460.80	317.38
461.17	315.48
461.54	313.47
461.91	311.57
462.27	309.63
462.64	307.90
463.01	306.03
463.38	304.30
463.74	302.49
464.11	300.93
464.48	299.54
464.85	298.07
465.21	296.91
465.58	295.63
465.95	294.18
466.32	292.98
466.68	291.76
467.05	290.59
467.42	289.38
467.78	288.11
468.15	286.95
468.52	286.07
468.88	284.93
469.25	283.93
469.62	283.09
469.98	282.21
470.35	281.40
470.72	280.64
471.08	279.75
471.45	279.05
471.82	278.31
472.18	277.51
472.55	276.90
472.92	276.22
473.28	275.62
473.65	274.99
474.02	274.38
474.38	273.90
474.75	273.44
475.11	272.97
475.48	272.61
475.85	272.29
476.21	271.95
476.58	271.71
476.94	271.47
477.31	271.22
477.67	271.00
478.04	270.81
478.41	270.66
478.77	270.68
479.14	270.53
479.50	270.44
479.87	270.49
480.23	270.54
480.60	270.56
480.96	270.59
481.33	270.78
481.69	270.93
482.06	271.06
482.42	271.23
482.79	271.44
483.15	271.74
483.52	272.10
483.88	272.42
484.25	272.74
484.61	273.12
484.98	273.53
485.34	274.11
485.71	274.67
486.07	275.25
486.44	275.77
486.80	276.50
487.17	277.26
487.53	278.06
487.90	278.88
488.26	279.82
488.62	280.84
488.99	281.85
489.35	282.96
489.72	284.13
490.08	285.39
490.44	286.69
490.81	288.06
491.17	289.40
491.54	290.93
491.90	292.49
492.26	294.24
492.63	296.05
492.99	297.89
493.36	299.89
493.72	302.01
494.08	304.22
494.45	306.54
494.81	309.03
495.17	311.54
495.54	314.26
495.90	317.08
496.26	320.01
496.63	323.09
496.99	326.33
497.35	329.77
497.72	333.28
498.08	336.99
498.44	340.87
498.80	345.03
499.17	349.31
499.53	353.74
499.89	358.39
500.26	363.15
500.62	368.03
500.98	373.25
501.34	378.60
501.71	384.24
502.07	390.01
502.43	395.97
502.79	402.14
503.16	408.56
503.52	415.14
503.88	421.84
504.24	428.84
504.60	436.08
504.97	443.67
505.33	451.41
505.69	459.59
506.05	467.83
506.41	476.18
506.78	484.83
507.14	493.75
507.50	502.92
507.86	512.50
508.22	522.31
508.59	532.09
508.95	542.28
509.31	552.69
509.67	563.37
510.03	574.26
510.39	585.49
510.75	596.95
511.12	608.62
511.48	620.68
511.84	632.94
512.20	645.35
512.56	658.05
512.92	671.07
513.28	684.24
513.64	697.59
514.00	711.16
514.37	725.02
514.73	739.06
515.09	753.03
515.45	767.29
515.81	781.74
516.17	796.73
516.53	811.99
516.89	827.27
517.25	842.49
517.61	857.99
517.97	873.56
518.33	889.13
518.69	905.16
519.05	921.33
519.41	937.71
519.77	954.43
520.13	971.13
520.49	987.80
520.85	1004.40
521.21	1021.41
521.57	1039.10
521.93	1056.22
522.29	1074.00
522.65	1091.76
523.01	1109.34
523.37	1127.03
523.73	1144.70
524.09	1162.25
524.45	1180.00
524.81	1198.26
525.17	1216.66
525.53	1235.06
525.89	1253.57
526.25	1271.95
526.61	1289.92
526.97	1308.31
527.33	1326.48
527.68	1344.76
528.04	1363.01
528.40	1381.38
528.76	1400.30
529.12	1418.55
529.48	1437.33
529.84	1454.94
530.20	1473.28
530.56	1492.08
530.91	1511.28
531.27	1529.88
531.63	1548.10
531.99	1566.51
532.35	1584.34
532.71	1602.13
533.07	1620.33
533.42	1638.25
533.78	1656.39
534.14	1674.67
534.50	1691.89
534.86	1709.73
535.21	1726.84
535.57	1744.72
535.93	1762.16
536.29	1778.66
536.65	1795.82
537.00	1812.46
537.36	1829.96
537.72	1846.39
538.08	1862.88
538.44	1878.65
538.79	1894.62
539.15	1910.21
539.51	1926.02
539.87	1942.53
540.22	1958.31
540.58	1974.24
540.94	1989.43
541.29	2004.10
541.65	2018.91
542.01	2034.28
542.37	2048.50
542.72	2063.03
543.08	2076.94
543.44	2091.49
543.79	2104.93
544.15	2117.89
544.51	2131.55
544.87	2144.53
545.22	2157.62
545.58	2169.92
545.94	2181.68
546.29	2193.57
546.65	2205.72
547.01	2217.07
547.36	2227.70
547.72	2238.13
548.07	2247.96
548.43	2258.09
548.79	2267.95
549.14	2277.41
549.50	2286.51
549.86	2296.15
550.21	2305.29
550.57	2314.21
550.92	2322.66
551.28	2331.60
551.64	2340.59
551.99	2349.03
552.35	2356.99
552.70	2364.90
553.06	2372.58
553.41	2380.57
553.77	2388.33
554.13	2396.06
554.48	2403.94
554.84	2411.20
555.19	2418.09
555.55	2425.05
555.90	2431.19
556.26	2438.10
556.61	2444.38
556.97	2450.57
557.32	2456.37
557.68	2462.12
558.03	2468.12
558.39	2473.24
558.74	2479.39
559.10	2484.71
559.45	2489.72
559.81	2495.44
560.16	2500.56
560.52	2505.29
560.87	2510.26
561.23	2514.15
561.58	2518.24
561.94	2522.16
562.29	2525.62
562.64	2529.71
563.00	2533.43
563.35	2538.28
563.71	2542.48
564.06	2547.01
564.42	2551.13
564.77	2555.05
565.12	2558.73
565.48	2561.76
565.83	2564.90
566.19	2567.52
566.54	2569.29
566.89	2571.44
567.25	2573.04
567.60	2575.39
567.96	2578.26
568.31	2580.06
568.66	2582.22
569.02	2583.60
569.37	2584.57
569.72	2586.48
570.08	2587.44
570.43	2588.11
570.78	2588.36
571.14	2587.39
571.49	2586.55
571.84	2586.73
572.20	2586.16
572.55	2585.42
572.90	2584.20
573.26	2583.34
573.61	2581.79
573.96	2580.69
574.31	2578.15
574.67	2575.50
575.02	2571.95
575.37	2568.55
575.72	2564.92
576.08	2561.61
576.43	2558.54
576.78	2555.16
577.13	2551.87
577.49	2548.68
577.84	2545.37
578.19	2541.40
578.54	2537.88
578.90	2533.75
579.25	2527.82
579.60	2522.56
579.95	2517.34
580.30	2512.11
580.66	2506.63
581.01	2501.32
581.36	2495.89
581.71	2491.45
582.06	2486.92
582.42	2482.48
582.77	2477.06
583.12	2472.13
583.47	2467.32
583.82	2462.18
584.17	2456.46
584.53	2450.63
584.88	2444.69
585.23	2438.57
585.58	2432.51
585.93	2426.54
586.28	2421.13
586.63	2415.70
586.98	2410.17
587.34	2405.04
587.69	2399.62
588.04	2393.94
588.39	2387.88
588.74	2380.83
589.09	2373.87
589.44	2366.23
589.79	2359.26
590.14	2352.86
590.49	2345.49
590.84	2338.10
591.19	2331.21
591.54	2324.04
591.89	2315.88
592.25	2308.47
592.60	2300.30
592.95	2291.94
593.30	2283.62
593.65	2275.13
594.00	2267.14
594.35	2258.76
594.70	2249.58
595.05	2241.68
595.40	2233.28
595.75	2224.71
596.10	2217.74
596.45	2210.38
596.80	2203.47
597.15	2196.08
597.50	2188.27
597.85	2180.99
598.19	2173.58
598.54	2165.69
598.89	2158.18
599.24	2151.33
599.59	2143.86
599.94	2136.66
600.29	2129.54
600.64	2122.08
600.99	2113.72
601.34	2105.99
601.69	2098.11
602.04	2090.33
602.39	2081.82
602.74	2074.16
603.08	2066.49
603.43	2058.66
603.78	2050.17
604.13	2041.85
604.48	2033.55
604.83	2025.45
605.18	2017.57
605.53	2008.48
605.87	1999.27
606.22	1990.86
606.57	1981.73
606.92	1972.82
607.27	1964.63
607.62	1956.74
607.96	1948.37
608.31	1940.80
608.66	1932.08
609.01	1923.38
609.36	1914.58
609.70	1905.30
610.05	1895.89
610.40	1887.14
610.75	1877.70
611.10	1868.78
611.44	1858.99
611.79	1849.72
612.14	1839.69
612.49	1828.99
612.83	1819.07
613.18	1809.52
613.53	1799.97
613.88	1790.16
614.22	1780.65
614.57	1770.60
614.92	1761.25
615.27	1752.56
615.61	1742.88
615.96	1733.40
616.31	1724.48
616.65	1715.93
617.00	1707.19
617.35	1698.21
617.70	1688.42
618.04	1678.40
618.39	1668.89
618.74	1660.03
619.08	1650.31
619.43	1641.51
619.78	1633.29
620.12	1625.06
620.47	1616.35
620.82	1606.91
621.16	1597.96
621.51	1588.98
621.85	1580.02
622.20	1570.02
622.55	1560.12
622.89	1550.83
623.24	1541.95
623.59	1533.21
623.93	1524.42
624.28	1515.92
624.62	1507.12
624.97	1498.63
625.32	1490.49
625.66	1482.16
626.01	1473.81
626.35	1465.31
626.70	1456.19
627.04	1447.28
627.39	1438.12
627.73	1429.25
628.08	1421.14
628.43	1412.96
628.77	1404.59
629.12	1395.92
629.46	1387.60
629.81	1378.83
630.15	1370.31
630.50	1361.68
630.84	1352.17
631.19	1342.93
631.53	1334.04
631.88	1325.21
632.22	1316.42
632.57	1308.05
632.91	1299.33
633.26	1290.72
633.60	1281.96
633.95	1273.55
634.29	1265.36
634.64	1257.63
634.98	1249.20
635.32	1240.90
635.67	1233.05
636.01	1225.17
636.36	1217.24
636.70	1209.65
637.05	1202.06
637.39	1194.59
637.73	1187.08
638.08	1180.27
638.42	1173.31
638.77	1165.86
639.11	1158.42
639.45	1150.99
639.80	1143.27
640.14	1135.85
640.49	1128.34
640.83	1121.09
641.17	1114.05
641.52	1106.75
641.86	1099.19
642.20	1092.52
642.55	1085.11
642.89	1077.68
643.23	1070.10
643.58	1063.52
643.92	1056.33
644.26	1049.51
644.61	1042.57
644.95	1035.68
645.29	1028.09
645.64	1020.35
645.98	1013.00
646.32	1005.98
646.66	998.98
647.01	992.32
647.35	985.74
647.69	978.79
648.04	972.36
648.38	965.67
648.72	958.85
649.06	951.95
649.41	945.02
649.75	938.33
650.09	931.48
650.43	924.82
650.78	917.61
651.12	910.74
651.46	904.04
651.80	897.53
652.14	891.24
652.49	885.19
652.83	879.27
653.17	872.98
653.51	866.60
653.85	860.40
654.20	853.95
654.54	847.08
654.88	840.57
655.22	833.76
655.56	827.18
655.90	820.80
656.25	814.82
656.59	808.77
656.93	802.84
657.27	797.00
657.61	790.78
657.95	784.98
658.29	779.15
658.64	773.07
658.98	766.84
659.32	760.54
659.66	754.57
660.00	748.51
660.34	742.71
660.68	737.05
661.02	731.29
661.36	725.94
661.70	720.75
662.05	715.77
662.39	710.90
662.73	705.77
663.07	700.76
663.41	695.62
663.75	690.53
664.09	685.33
664.43	680.26
664.77	675.63
665.11	670.72
665.45	666.01
665.79	661.45
666.13	656.80
666.47	652.21
666.81	647.37
667.15	642.64
667.49	638.18
667.83	633.73
668.17	629.24
668.51	624.59
668.85	620.00
669.19	615.52
669.53	611.14
669.87	606.78
670.21	602.53
670.55	598.34
670.89	594.31
671.23	590.40
671.57	586.31
671.91	582.25
672.25	578.29
672.58	574.30
672.92	570.33
673.26	566.64
673.60	562.98
673.94	559.47
674.28	556.06
674.62	552.64
674.96	549.13
675.30	545.82
675.64	542.50
675.97	539.24
676.31	535.99
676.65	532.62
676.99	529.47
677.33	526.23
677.67	523.02
678.01	519.66
678.34	516.26
678.68	513.02
679.02	509.79
679.36	506.62
679.70	503.38
680.04	500.26
680.37	497.06
680.71	493.79
681.05	490.83
681.39	487.78
681.73	484.82
682.06	481.94
682.40	479.06
682.74	476.11
683.08	473.23
683.42	470.21
683.75	467.37
684.09	464.41
684.43	461.58
684.77	458.79
685.10	456.04
685.44	453.38
685.78	450.79
686.12	448.17
686.45	445.48
686.79	442.98
687.13	440.41
687.46	437.91
687.80	435.46
688.14	432.88
688.48	430.49
688.81	427.95
689.15	425.46
689.49	422.92
689.82	420.54
690.16	418.17
690.50	415.94
690.83	413.68
691.17	411.39
691.51	409.20
691.84	407.04
692.18	404.82
692.52	402.59
692.85	400.30
693.19	398.13
693.52	396.04
693.86	393.84
694.20	391.75
694.53	389.66
694.87	387.58
695.21	385.51
695.54	383.39
695.88	381.33
696.21	379.33
696.55	377.41
696.88	375.45
697.22	373.48
697.56	371.61
697.89	369.74
698.23	367.98
698.56	366.09
698.90	364.28
699.23	362.43
699.57	360.60
699.90	358.83
700.24	357.02
700.58	355.26
700.91	353.64
701.25	351.99
701.58	350.43
701.92	348.85
702.25	347.28
702.59	345.73
702.92	344.25
703.26	342.77
703.59	341.35
703.93	340.01
704.26	338.61
704.60	337.11
704.93	335.61
705.26	334.16
705.60	332.82
705.93	331.46
706.27	330.24
706.60	329.05
706.94	327.80
707.27	326.54
707.61	325.30
707.94	324.05
708.27	322.77
708.61	321.49
708.94	320.28
709.28	319.08
709.61	317.93
709.94	316.81
710.28	315.64
710.61	314.44
710.95	313.14
711.28	312.06
711.61	310.98
711.95	309.93
712.28	308.86
712.61	307.73
712.95	306.67
713.28	305.60
713.61	304.54
713.95	303.52
714.28	302.55
714.61	301.56
714.95	300.57
715.28	299.62
715.61	298.63
715.95	297.64
716.28	296.73
716.61	295.76
716.95	294.77
717.28	293.84
717.61	292.99
717.94	292.16
718.28	291.21
718.61	290.34
718.94	289.53
719.27	288.76
719.61	287.99
719.94	287.21
720.27	286.37
720.60	285.60
720.94	284.85
721.27	284.14
721.60	283.46
721.93	282.77
722.27	282.14
722.60	281.49
722.93	280.86
723.26	280.21
723.59	279.59
723.93	278.95
724.26	278.33
724.59	277.69
724.92	277.07
725.25	276.52
725.59	275.93
725.92	275.33
726.25	274.74
726.58	274.16
726.91	273.58
727.24	273.06
727.57	272.51
727.91	271.94
728.24	271.39
728.57	270.83
728.90	270.33
729.23	269.70
729.56	269.22
729.89	268.67
730.22	268.09
730.55	267.54
730.89	267.05
731.22	266.55
731.55	266.03
731.88	265.55
732.21	265.08
732.54	264.61
732.87	264.16
733.20	263.66
733.53	263.23
733.86	262.78
734.19	262.33
734.52	261.89
734.85	261.55
735.18	261.07
735.51	260.64
735.84	260.23
736.17	259.86
736.50	259.39
736.83	259.11
737.16	258.77
737.49	258.38
737.82	257.97
738.15	257.59
738.48	257.21
738.81	256.82
739.14	256.44
739.47	256.07
739.80	255.73
740.13	255.44
740.46	255.04
740.79	254.71
741.12	254.32
741.45	253.96
741.78	253.55
742.11	253.27
742.44	252.90
742.77	252.54
743.10	252.19
743.43	251.85
743.75	251.44
744.08	251.23
744.41	250.90
744.74	250.62
745.07	250.31
745.40	250.01
745.73	249.75
746.06	249.43
746.39	249.11
746.71	248.77
747.04	248.45
747.37	248.16
747.70	247.88
748.03	247.62
748.36	247.39
748.68	247.11
749.01	246.78
749.34	246.51
749.67	246.25
750.00	246.01
750.33	245.85
750.65	245.60
750.98	245.25
751.31	245.04
751.64	244.78
751.97	244.59
752.29	244.34
752.62	244.05
752.95	243.82
753.28	243.60
753.60	243.36
753.93	243.13
754.26	242.93
754.59	242.68
754.91	242.44
755.24	242.21
755.57	241.98
755.90	241.79
756.22	241.59
756.55	241.34
756.88	241.10
757.20	240.80
757.53	240.54
757.86	240.32
758.19	240.12
758.51	239.92
758.84	239.67
759.17	239.48
759.49	239.33
759.82	239.15
760.15	238.97
760.47	238.81
760.80	238.62
761.13	238.46
761.45	238.29
761.78	238.13
762.11	237.95
762.43	237.78
762.76	237.60
763.08	237.44
763.41	237.29
763.74	237.16
764.06	237.05
764.39	236.91
764.71	236.77
765.04	236.60
765.37	236.49
765.69	236.34
766.02	236.16
766.34	236.01
766.67	235.85
767.00	235.75
767.32	235.69
767.65	235.61
767.97	235.47
768.30	235.33
768.62	235.21
768.95	235.10
769.27	235.00
769.60	234.90
769.92	234.77
770.25	234.67
770.57	234.50
770.90	234.34
771.22	234.22
771.55	234.11
771.87	234.02
772.20	233.87
772.52	233.86
772.85	233.87
773.17	233.74
773.50	233.62
773.82	233.49
774.15	233.31
774.47	233.19
774.80	233.06
775.12	232.93
775.45	232.80
775.77	232.70
776.09	232.61
776.42	232.51
776.74	232.45
777.07	232.31
777.39	232.23
777.72	232.11
778.04	232.04
778.36	231.94
778.69	231.86
779.01	231.79
779.33	231.59
779.66	231.46
779.98	231.39
780.31	231.34
780.63	231.30
780.95	231.25
781.28	231.15
781.60	231.07
781.92	231.02
782.25	230.99
782.57	230.90
782.89	230.80
783.22	230.72
783.54	230.64
783.86	230.61
784.19	230.58
784.51	230.57
784.83	230.47
785.16	230.41
785.48	230.32
785.80	230.27
786.12	230.25
786.45	230.18
786.77	230.12
787.09	230.04
787.42	229.94
787.74	229.89
788.06	229.82
788.38	229.79
788.71	229.73
789.03	229.65
789.35	229.66
789.67	229.61
789.99	229.60
790.32	229.53
790.64	229.50
790.96	229.51
791.28	229.42
791.61	229.41
791.93	229.40
792.25	229.35
792.57	229.37
792.89	229.33
793.21	229.27
793.54	229.22
793.86	229.18
794.18	229.17
794.50	229.10
794.82	229.03
795.14	228.98
795.47	228.96
795.79	228.97
796.11	228.89
796.43	228.84
796.75	228.80
797.07	228.77
797.39	228.73
797.71	228.61
798.04	228.57
798.36	228.54
798.68	228.48
799.00	228.47
799.32	228.40
799.64	228.34
799.96	228.33
800.28	228.31
800.60	228.27
800.92	228.24
801.24	228.22
801.56	228.22
801.89	228.19
802.21	228.19
802.53	228.11
802.85	228.08
803.17	228.09
803.49	228.04
803.81	228.00
804.13	227.97
804.45	227.95
804.77	227.93
805.09	227.90
805.41	227.85
805.73	227.80
806.05	227.76
806.37	227.71
806.69	227.67
807.01	227.64
807.33	227.62
807.65	227.54
807.97	227.54
808.28	227.50
808.60	227.45
808.92	227.38
809.24	227.40
809.56	227.38
809.88	227.30
810.20	227.27
810.52	227.26
810.84	227.21
811.16	227.18
811.48	227.16
811.80	227.11
812.12	227.07
812.43	227.02
812.75	226.95
813.07	226.92
813.39	226.90
813.71	226.86
814.03	226.80
814.35	226.81
814.67	226.75
814.98	226.72
815.30	226.71
815.62	226.69
815.94	226.62
816.26	226.61
816.58	226.60
816.89	226.58
817.21	226.55
817.53	226.53
817.85	226.51
818.17	226.51
818.48	226.47
818.80	226.46
819.12	226.46
819.44	226.44
819.76	226.44
820.07	226.39
820.39	226.36
820.71	226.35
821.03	226.32
821.34	226.29
821.66	226.27
821.98	226.26
822.30	226.24
822.61	226.29
822.93	226.24
823.25	226.24
823.57	226.25
823.88	226.23
824.20	226.22
824.52	226.18
824.83	226.14
825.15	226.12
825.47	226.13
825.79	226.12
826.10	226.11
826.42	226.09
826.74	226.09
827.05	226.11
827.37	226.10
827.69	226.07
828.00	226.07
828.32	226.06
828.64	226.01
828.95	226.06
829.27	226.00
829.58	225.98
829.90	225.97
830.22	225.95
830.53	225.92
830.85	225.91
831.17	225.92
831.48	225.95
831.80	225.96
832.11	225.93
832.43	225.92
832.75	225.91
833.06	225.96
833.38	225.95
833.69	225.95
834.01	225.95
834.32	225.95
834.64	225.93
834.96	225.92
835.27	225.91
835.59	225.84
835.90	225.84
836.22	225.82
836.53	225.78
836.85	225.76
837.16	225.87
837.48	225.87
837.79	225.88
838.11	225.87
838.42	225.83
838.74	225.87
839.05	225.84
839.37	225.84
839.68	225.77
840.00	225.75
840.31	225.72
840.63	225.67
840.94	225.62
841.26	225.62
841.57	225.62
841.88	225.63
842.20	225.64
842.51	225.61
842.83	225.61
843.14	225.69
843.46	225.68
843.77	225.60
844.08	225.58
844.40	225.56
844.71	225.52
845.03	225.52
845.34	225.47
845.65	225.46
845.97	225.44
846.28	225.43
846.60	225.43
846.91	225.43
847.22	225.44
847.54	225.50
847.85	225.46
848.16	225.42
848.48	225.40
848.79	225.43
849.10	225.47
849.42	225.43
849.73	225.36
850.04	225.35
850.36	225.30
850.67	225.34
850.98	225.34
851.30	225.37
851.61	225.36
851.92	225.37
852.23	225.43
852.55	225.43
852.86	225.42
853.17	225.43
853.49	225.45
853.80	225.47
854.11	225.46
854.42	225.45
854.74	225.48
855.05	225.48
855.36	225.41
855.67	225.40
855.99	225.40
856.30	225.51
856.61	225.49
856.92	225.51
857.23	225.48
857.55	225.42
857.86	225.40
858.17	225.41
858.48	225.36
858.79	225.31
859.11	225.34
859.42	225.34
859.73	225.34
860.04	225.34
860.35	225.33
860.66	225.33
860.98	225.38
861.29	225.37
861.60	225.36
861.91	225.38
862.22	225.35
862.53	225.34
862.84	225.24
863.16	225.26
863.47	225.22
863.78	225.21
864.09	225.24
864.40	225.23
864.71	225.24
865.02	225.28
865.33	225.27
865.64	225.27
865.95	225.27
866.27	225.31
866.58	225.31
866.89	225.33
867.20	225.31
867.51	225.29
867.82	225.29
868.13	225.32
868.44	225.29
868.75	225.33
869.06	225.38
869.37	225.38
869.68	225.38
869.99	225.39
870.30	225.42
870.61	225.38
870.92	225.41
871.23	225.39
871.54	225.40
871.85	225.43
872.16	225.46
872.47	225.47
872.78	225.41
873.09	225.39
873.40	225.36
873.71	225.38
874.02	225.36
874.33	225.33
874.64	225.32
874.95	225.33
875.26	225.31
875.56	225.29
875.87	225.27
876.18	225.27
876.49	225.37
876.80	225.33
877.11	225.36
877.42	225.36
877.73	225.37
878.04	225.31
878.35	225.28
878.66	225.22
878.96	225.21
879.27	225.21
879.58	225.19
879.89	225.18
880.20	225.17
880.51	225.16
880.82	225.18
881.12	225.16
881.43	225.16
881.74	225.10
882.05	225.09
882.36	225.09
882.67	225.08
882.97	224.95
883.28	224.94
883.59	224.93
883.90	224.91
884.21	224.91
884.51	224.91
884.82	224.86
885.13	224.88
885.44	224.91
885.74	224.89
886.05	224.89
886.36	224.87
886.67	224.86
886.98	224.90
887.28	224.91
887.59	224.92
887.90	224.89
888.20	224.90
888.51	224.88
888.82	224.87
889.13	224.85
889.43	224.91
889.74	224.87
890.05	224.87
890.35	224.81
890.66	224.77
890.97	224.75
891.28	224.77
891.58	224.76
891.89	224.73
892.20	224.71
892.50	224.71
892.81	224.69
893.12	224.71
893.42	224.66
893.73	224.63
894.04	224.60
894.34	224.64
894.65	224.65
894.95	224.64
895.26	224.61
895.57	224.69
895.87	224.62
896.18	224.67
896.48	224.66
896.79	224.67
897.10	224.70
897.40	224.77
897.71	224.76
898.01	224.75
898.32	224.75
898.63	224.78
898.93	224.76
899.24	224.76
899.54	224.70
899.85	224.72
900.15	224.70
900.46	224.73
900.76	224.70
901.07	224.68
901.38	224.69
901.68	224.74
901.99	224.68
902.29	224.68
902.60	224.64
902.90	224.63
903.21	224.65
903.51	224.64
903.82	224.61
904.12	224.61
904.43	224.64
904.73	224.65
905.03	224.64
905.34	224.73
905.64	224.74
905.95	224.75
906.25	224.72
906.56	224.73
906.86	224.77
907.17	224.76
907.47	224.80
907.77	224.79
908.08	224.77
908.38	224.79
908.69	224.81
908.99	224.86
909.30	224.89
909.60	224.90
909.90	224.91
910.21	224.90
910.51	224.90
910.81	224.89
911.12	224.87
911.42	224.84
911.73	224.75
912.03	224.80
912.33	224.85
912.64	224.87
912.94	224.86
913.24	224.79
913.55	224.79
913.85	224.75
914.15	224.79
914.46	224.81
914.76	224.78
915.06	224.76
915.37	224.73
915.67	224.67
915.97	224.66
916.27	224.64
916.58	224.62
916.88	224.63
917.18	224.62
917.49	224.69
917.79	224.69
918.09	224.71
918.39	224.71
918.70	224.66
919.00	224.67
919.30	224.69
919.60	224.71
919.91	224.70
920.21	224.73
920.51	224.71
920.81	224.69
921.12	224.69
921.42	224.71
921.72	224.71
922.02	224.76
922.32	224.74
922.63	224.72
922.93	224.78
923.23	224.78
923.53	224.76
923.83	224.69
924.13	224.71
924.44	224.70
924.74	224.70
925.04	224.72
925.34	224.72
925.64	224.72
925.94	224.70
926.24	224.75
926.55	224.72
926.85	224.72
927.15	224.70
927.45	224.72
927.75	224.72
928.05	224.72
928.35	224.72
928.65	224.75
928.95	224.74
929.26	224.68
929.56	224.69
929.86	224.70
930.16	224.67
930.46	224.65
930.76	224.65
931.06	224.58
931.36	224.56
931.66	224.56
931.96	224.56
932.26	224.58
932.56	224.54
932.86	224.56
933.16	224.53
933.46	224.54
933.76	224.52
934.06	224.53
934.36	224.54
934.66	224.53
934.96	224.50
935.26	224.55
935.56	224.55
935.86	224.54
936.16	224.54
936.46	224.55
936.76	224.56
937.06	224.53
937.36	224.58
937.66	224.60
937.96	224.58
938.26	224.58
938.56	224.54
938.86	224.51
939.16	224.52
939.46	224.54
939.76	224.59
940.06	224.57
940.35	224.53
940.65	224.45
940.95	224.45
941.25	224.43
941.55	224.43
941.85	224.44
942.15	224.44
942.45	224.47
942.75	224.48
943.04	224.46
943.34	224.50
943.64	224.46
943.94	224.44
944.24	224.43
944.54	224.44
944.84	224.48
945.13	224.52
945.43	224.50
945.73	224.48
946.03	224.45
946.33	224.45
946.62	224.47
946.92	224.49
947.22	224.53
947.52	224.55
947.82	224.54
948.11	224.53
948.41	224.52
948.71	224.50
949.01	224.51
949.31	224.52
949.60	224.51
949.90	224.54
950.20	224.53
950.50	224.55
950.79	224.54
951.09	224.53
951.39	224.53
951.69	224.51
951.98	224.55
952.28	224.55
952.58	224.58
952.87	224.56
953.17	224.61
953.47	224.59
953.76	224.58
954.06	224.58
954.36	224.56
954.66	224.57
954.95	224.59
955.25	224.61
955.55	224.58
955.84	224.57
956.14	224.58
956.44	224.60
956.73	224.61
957.03	224.63
957.32	224.63
957.62	224.63
957.92	224.65
958.21	224.65
958.51	224.75
958.81	224.74
959.10	224.78
959.40	224.79
959.69	224.80
959.99	224.82
960.29	224.82
960.58	224.84
960.88	224.86
961.17	224.86
961.47	224.85
961.76	224.87
962.06	224.90
962.36	224.89
962.65	224.86
962.95	224.85
963.24	224.81
963.54	224.78
963.83	224.78
964.13	224.77
964.42	224.75
964.72	224.68
965.01	224.68
965.31	224.65
965.60	224.63
965.90	224.70
966.19	224.66
966.49	224.66
966.78	224.64
967.08	224.64
967.37	224.60
967.67	224.59
967.96	224.61
968.26	224.64
968.55	224.60
968.85	224.60
969.14	224.57
969.43	224.57
969.73	224.60
970.02	224.60
970.32	224.61
970.61	224.58
970.91	224.56
971.20	224.55
971.49	224.54
971.79	224.54
972.08	224.45
972.38	224.46
972.67	224.44
972.96	224.45
973.26	224.41
973.55	224.46
973.85	224.43
974.14	224.42
974.43	224.41
974.73	224.43
975.02	224.43
975.31	224.45
975.61	224.47
975.90	224.45
976.19	224.41
976.49	224.42
976.78	224.45
977.07	224.45
977.37	224.45
977.66	224.45
977.95	224.42
978.24	224.46
978.54	224.49
978.83	224.49
979.12	224.50
979.42	224.52
979.71	224.51
980.00	224.53
980.29	224.52
980.59	224.51
980.88	224.55
981.17	224.58
981.46	224.59
981.76	224.59
982.05	224.59
982.34	224.65
982.63	224.63
982.93	224.63
983.22	224.64
983.51	224.64
983.80	224.67
984.09	224.70
984.39	224.69
984.68	224.67
984.97	224.69
985.26	224.69
985.55	224.68
985.85	224.66
986.14	224.69
986.43	224.74
986.72	224.72
987.01	224.66
987.30	224.64
987.59	224.64
987.89	224.64
988.18	224.63
988.47	224.59
988.76	224.61
989.05	224.62
989.34	224.60
989.63	224.65
989.92	224.65
990.22	224.69
990.51	224.70
990.80	224.69
991.09	224.72
991.38	224.70
991.67	224.67
991.96	224.68
992.25	224.65
992.54	224.64
992.83	224.64
993.12	224.66
993.41	224.69
993.70	224.74
993.99	224.76
994.28	224.76
994.58	224.78
994.87	224.79
995.16	224.77
995.45	224.76
995.74	224.70
996.03	224.70
996.32	224.67
996.61	224.67
996.90	224.65
997.19	224.63
997.48	224.65
997.77	224.65
998.06	224.65
998.34	224.64
998.63	224.61
998.92	224.62
999.21	224.63
999.50	224.61
999.79	224.54
1000.08	224.53
1000.37	224.52
1000.66	224.50
1000.95	224.47
1001.24	224.48
1001.53	224.47
1001.82	224.47
1002.11	224.44
1002.40	224.43
1002.68	224.42
1002.97	224.50
1003.26	224.49
1003.55	224.47
1003.84	224.47
1004.13	224.50
1004.42	224.50
1004.71	224.52
1004.99	224.48
1005.28	224.48
1005.57	224.47
1005.86	224.47
1006.15	224.45
1006.44	224.43
1006.72	224.45
1007.01	224.45
1007.30	224.47
1007.59	224.45
1007.88	224.47
1008.17	224.47
1008.45	224.45
1008.74	224.42
1009.03	224.36
1009.32	224.36
1009.60	224.37
1009.89	224.39
1010.18	224.36
1010.47	224.35
1010.76	224.35
1011.04	224.37
1011.33	224.37
1011.62	224.36
1011.91	224.39
1012.19	224.42
1012.48	224.42
1012.77	224.42
1013.05	224.45
1013.34	224.47
1013.63	224.48
1013.92	224.49
1014.20	224.47
1014.49	224.48
1014.78	224.47
1015.06	224.44
1015.35	224.42
1015.64	224.42
1015.92	224.44
1016.21	224.43
1016.50	224.45
1016.78	224.45
1017.07	224.48
1017.36	224.50
1017.64	224.51
1017.93	224.53
1018.22	224.52
1018.50	224.52
1018.79	224.55
1019.08	224.50
1019.36	224.47
1019.65	224.49
1019.93	224.52
1020.22	224.54
1020.51	224.60
1020.79	224.62
1021.08	224.62
1021.36	224.09
1021.65	224.98
1021.94	224.29
1022.22	224.50
1022.51	224.43
1022.79	225.06
1023.08	224.40
1023.36	225.84
1023.65	224.32
>>>>>End Processed Spectral Data<<<<<
