SpectraSuite Data File
++++++++++++++++++++++++++++++++++++
Date: Fri Feb 01 17:06:46 EST 2013
User: group
Dark Spectrum Present: No
Reference Spectrum Present: No
Number of Sampled Component Spectra: 1
Spectrometers: USB2E7196
Integration Time (usec): 35000 (USB2E7196)
Spectra Averaged: 100 (USB2E7196)
Boxcar Smoothing: 10 (USB2E7196)
Correct for Electrical Dark: No (USB2E7196)
Strobe/Lamp Enabled: No (USB2E7196)
Correct for Detector Non-linearity: No (USB2E7196)
Correct for Stray Light: No (USB2E7196)
Number of Pixels in Processed Spectrum: 2048
>>>>>Begin Processed Spectral Data<<<<<
339.09	0.00
339.48	213.47
339.86	214.27
340.24	215.75
340.63	217.35
341.01	220.32
341.39	220.09
341.78	221.42
342.16	222.97
342.54	223.27
342.93	211.68
343.31	222.39
343.69	222.92
344.07	223.40
344.46	223.87
344.84	224.26
345.22	224.50
345.60	224.75
345.99	224.94
346.37	225.06
346.75	225.16
347.13	225.22
347.52	225.28
347.90	225.39
348.28	225.41
348.66	225.41
349.05	225.41
349.43	225.43
349.81	225.46
350.19	225.50
350.57	225.53
350.96	225.59
351.34	225.68
351.72	225.77
352.10	225.84
352.48	225.86
352.87	225.94
353.25	226.02
353.63	226.07
354.01	226.12
354.39	226.21
354.77	226.30
355.15	226.40
355.54	226.46
355.92	226.47
356.30	226.59
356.68	226.74
357.06	226.82
357.44	226.91
357.82	226.98
358.20	227.05
358.58	227.12
358.97	227.22
359.35	227.29
359.73	227.37
360.11	227.45
360.49	227.53
360.87	227.56
361.25	227.57
361.63	227.66
362.01	227.71
362.39	227.72
362.77	227.72
363.15	227.73
363.53	227.78
363.91	227.82
364.29	227.84
364.67	227.76
365.05	227.80
365.43	227.83
365.81	227.83
366.19	227.89
366.57	227.90
366.95	227.85
367.33	227.80
367.71	227.77
368.09	227.79
368.47	227.79
368.85	227.77
369.23	227.80
369.61	227.75
369.99	227.77
370.37	227.77
370.75	227.80
371.13	227.74
371.51	227.65
371.89	227.62
372.27	227.57
372.65	227.53
373.03	227.50
373.41	227.42
373.78	227.36
374.16	227.25
374.54	227.21
374.92	227.17
375.30	227.11
375.68	227.03
376.06	226.97
376.44	226.91
376.82	226.86
377.19	226.79
377.57	226.71
377.95	226.63
378.33	226.56
378.71	226.46
379.09	226.41
379.47	226.39
379.84	226.26
380.22	226.18
380.60	226.12
380.98	226.03
381.36	225.97
381.73	225.93
382.11	225.89
382.49	225.82
382.87	225.77
383.25	225.70
383.62	225.77
384.00	225.69
384.38	225.60
384.76	225.55
385.13	225.52
385.51	225.49
385.89	225.43
386.27	225.38
386.64	225.32
387.02	225.28
387.40	225.24
387.78	225.25
388.15	225.21
388.53	225.15
388.91	225.11
389.29	225.07
389.66	225.05
390.04	225.02
390.42	225.01
390.79	225.00
391.17	224.99
391.55	224.85
391.92	224.85
392.30	224.88
392.68	224.86
393.05	224.84
393.43	224.82
393.81	224.81
394.18	224.81
394.56	224.86
394.94	224.89
395.31	224.92
395.69	224.96
396.06	225.00
396.44	225.06
396.82	225.07
397.19	225.15
397.57	225.18
397.95	225.23
398.32	225.25
398.70	225.28
399.07	225.37
399.45	225.41
399.82	225.47
400.20	225.53
400.58	225.59
400.95	225.63
401.33	225.73
401.70	225.87
402.08	225.96
402.45	226.00
402.83	226.09
403.20	226.18
403.58	226.24
403.95	226.37
404.33	226.48
404.71	226.59
405.08	226.74
405.46	226.84
405.83	226.99
406.21	227.10
406.58	227.24
406.96	227.40
407.33	227.55
407.70	227.73
408.08	227.99
408.45	228.20
408.83	228.45
409.20	228.68
409.58	228.86
409.95	229.13
410.33	229.41
410.70	229.65
411.08	229.93
411.45	230.23
411.82	230.53
412.20	230.87
412.57	231.30
412.95	231.61
413.32	232.02
413.69	232.41
414.07	232.86
414.44	233.31
414.82	233.79
415.19	234.38
415.56	234.91
415.94	235.42
416.31	236.06
416.68	236.68
417.06	237.38
417.43	238.04
417.81	238.79
418.18	239.55
418.55	240.39
418.93	241.26
419.30	242.17
419.67	243.12
420.04	244.09
420.42	245.10
420.79	246.27
421.16	247.44
421.54	248.60
421.91	249.83
422.28	251.11
422.66	252.41
423.03	253.68
423.40	255.01
423.77	256.43
424.15	257.82
424.52	259.32
424.89	260.92
425.26	262.50
425.64	263.91
426.01	265.53
426.38	267.17
426.75	268.81
427.13	270.48
427.50	272.22
427.87	274.09
428.24	275.90
428.61	277.62
428.99	279.53
429.36	281.64
429.73	283.71
430.10	285.69
430.47	287.73
430.85	289.86
431.22	292.09
431.59	294.46
431.96	296.71
432.33	299.11
432.70	301.46
433.08	304.23
433.45	306.88
433.82	309.41
434.19	312.29
434.56	315.11
434.93	317.79
435.30	320.41
435.68	323.29
436.05	326.11
436.42	328.88
436.79	331.38
437.16	334.00
437.53	336.76
437.90	339.53
438.27	342.26
438.64	345.06
439.01	347.64
439.38	349.83
439.75	351.98
440.13	354.50
440.50	356.81
440.87	358.66
441.24	360.56
441.61	362.74
441.98	364.23
442.35	366.03
442.72	367.90
443.09	369.70
443.46	370.67
443.83	371.25
444.20	371.76
444.57	372.60
444.94	372.94
445.31	373.37
445.68	373.74
446.05	373.82
446.42	373.47
446.79	373.04
447.16	372.59
447.53	372.28
447.90	371.15
448.27	370.01
448.64	368.44
449.01	367.35
449.37	365.41
449.74	363.53
450.11	361.29
450.48	358.81
450.85	356.35
451.22	354.25
451.59	352.28
451.96	350.39
452.33	347.81
452.70	345.51
453.07	342.66
453.43	339.81
453.80	337.06
454.17	334.38
454.54	331.86
454.91	329.21
455.28	326.56
455.65	324.06
456.02	321.65
456.38	319.52
456.75	316.88
457.12	314.62
457.49	312.41
457.86	310.28
458.23	308.45
458.59	306.38
458.96	304.30
459.33	302.47
459.70	300.64
460.07	299.16
460.43	297.44
460.80	295.86
461.17	294.45
461.54	292.98
461.91	291.59
462.27	290.17
462.64	288.92
463.01	287.60
463.38	286.34
463.74	285.00
464.11	283.87
464.48	282.84
464.85	281.74
465.21	280.92
465.58	280.01
465.95	278.93
466.32	278.08
466.68	277.15
467.05	276.26
467.42	275.39
467.78	274.47
468.15	273.60
468.52	272.94
468.88	272.08
469.25	271.32
469.62	270.70
469.98	270.03
470.35	269.42
470.72	268.82
471.08	268.18
471.45	267.66
471.82	267.12
472.18	266.54
472.55	266.13
472.92	265.61
473.28	265.15
473.65	264.70
474.02	264.27
474.38	263.95
474.75	263.60
475.11	263.21
475.48	262.93
475.85	262.70
476.21	262.45
476.58	262.30
476.94	262.18
477.31	262.04
477.67	261.91
478.04	261.78
478.41	261.72
478.77	261.78
479.14	261.70
479.50	261.72
479.87	261.83
480.23	261.90
480.60	261.98
480.96	262.08
481.33	262.34
481.69	262.48
482.06	262.70
482.42	262.92
482.79	263.20
483.15	263.55
483.52	263.94
483.88	264.31
484.25	264.69
484.61	265.11
484.98	265.55
485.34	266.12
485.71	266.71
486.07	267.36
486.44	267.91
486.80	268.63
487.17	269.36
487.53	270.17
487.90	271.02
488.26	271.96
488.62	272.96
488.99	273.93
489.35	275.01
489.72	276.15
490.08	277.37
490.44	278.60
490.81	279.93
491.17	281.29
491.54	282.74
491.90	284.28
492.26	285.92
492.63	287.66
492.99	289.44
493.36	291.33
493.72	293.31
494.08	295.41
494.45	297.61
494.81	299.94
495.17	302.35
495.54	304.87
495.90	307.54
496.26	310.34
496.63	313.26
496.99	316.38
497.35	319.57
497.72	322.93
498.08	326.42
498.44	330.09
498.80	333.97
499.17	337.99
499.53	342.12
499.89	346.47
500.26	350.93
500.62	355.55
500.98	360.46
501.34	365.47
501.71	370.75
502.07	376.18
502.43	381.74
502.79	387.50
503.16	393.54
503.52	399.69
503.88	406.08
504.24	412.65
504.60	419.43
504.97	426.53
505.33	433.74
505.69	441.42
506.05	449.07
506.41	456.82
506.78	464.92
507.14	473.30
507.50	481.88
507.86	490.79
508.22	499.93
508.59	509.08
508.95	518.57
509.31	528.26
509.67	538.18
510.03	548.39
510.39	558.73
510.75	569.36
511.12	580.14
511.48	591.19
511.84	602.45
512.20	613.75
512.56	625.50
512.92	637.60
513.28	649.80
513.64	662.12
514.00	674.63
514.37	687.28
514.73	700.10
515.09	712.93
515.45	725.91
515.81	739.24
516.17	753.00
516.53	766.84
516.89	780.83
517.25	794.78
517.61	808.85
517.97	823.12
518.33	837.21
518.69	851.74
519.05	866.31
519.41	881.13
519.77	896.43
520.13	911.56
520.49	926.59
520.85	941.54
521.21	956.88
521.57	972.87
521.93	988.32
522.29	1004.31
522.65	1020.26
523.01	1036.19
523.37	1051.83
523.73	1067.57
524.09	1083.33
524.45	1099.23
524.81	1115.64
525.17	1132.07
525.53	1148.51
525.89	1165.04
526.25	1181.58
526.61	1197.70
526.97	1214.17
527.33	1230.22
527.68	1246.36
528.04	1262.50
528.40	1278.66
528.76	1295.30
529.12	1311.49
529.48	1328.13
529.84	1343.76
530.20	1359.99
530.56	1376.53
530.91	1393.56
531.27	1410.07
531.63	1426.16
531.99	1442.47
532.35	1457.91
532.71	1473.49
533.07	1489.41
533.42	1505.02
533.78	1520.68
534.14	1536.53
534.50	1551.47
534.86	1566.82
535.21	1581.77
535.57	1597.28
535.93	1612.50
536.29	1627.04
536.65	1641.67
537.00	1655.93
537.36	1671.01
537.72	1685.15
538.08	1699.28
538.44	1712.77
538.79	1726.25
539.15	1739.57
539.51	1752.76
539.87	1766.76
540.22	1780.13
540.58	1793.46
540.94	1806.41
541.29	1818.82
541.65	1831.14
542.01	1843.96
542.37	1856.21
542.72	1868.25
543.08	1879.80
543.44	1891.96
543.79	1902.92
544.15	1913.53
544.51	1924.92
544.87	1935.47
545.22	1946.05
545.58	1956.12
545.94	1965.65
546.29	1975.23
546.65	1984.92
547.01	1994.10
547.36	2002.62
547.72	2010.86
548.07	2018.77
548.43	2026.76
548.79	2034.62
549.14	2042.23
549.50	2049.41
549.86	2056.79
550.21	2064.00
550.57	2071.02
550.92	2077.41
551.28	2084.40
551.64	2091.54
551.99	2097.81
552.35	2103.81
552.70	2109.98
553.06	2115.93
553.41	2122.16
553.77	2128.05
554.13	2134.05
554.48	2139.99
554.84	2145.65
555.19	2150.87
555.55	2155.95
555.90	2160.56
556.26	2165.46
556.61	2170.13
556.97	2174.55
557.32	2178.86
557.68	2183.10
558.03	2187.30
558.39	2191.07
558.74	2195.69
559.10	2199.51
559.45	2203.18
559.81	2207.59
560.16	2211.33
560.52	2214.61
560.87	2217.98
561.23	2220.84
561.58	2223.72
561.94	2226.46
562.29	2228.65
562.64	2231.62
563.00	2234.20
563.35	2237.57
563.71	2240.80
564.06	2243.93
564.42	2246.98
564.77	2249.52
565.12	2251.90
565.48	2253.96
565.83	2256.00
566.19	2257.53
566.54	2258.57
566.89	2259.99
567.25	2260.81
567.60	2262.22
567.96	2264.06
568.31	2265.24
568.66	2266.47
569.02	2267.41
569.37	2267.95
569.72	2269.12
570.08	2269.48
570.43	2269.69
570.78	2269.48
571.14	2268.20
571.49	2267.13
571.84	2266.92
572.20	2266.10
572.55	2265.11
572.90	2263.71
573.26	2262.61
573.61	2260.97
573.96	2259.61
574.31	2256.98
574.67	2254.28
575.02	2250.91
575.37	2247.76
575.72	2244.13
576.08	2240.88
576.43	2237.54
576.78	2234.16
577.13	2231.00
577.49	2228.08
577.84	2225.01
578.19	2221.39
578.54	2218.00
578.90	2214.23
579.25	2208.87
579.60	2204.23
579.95	2199.68
580.30	2194.95
580.66	2189.78
581.01	2185.01
581.36	2180.20
581.71	2176.27
582.06	2172.11
582.42	2168.02
582.77	2162.98
583.12	2158.81
583.47	2154.56
583.82	2150.01
584.17	2144.96
584.53	2139.94
584.88	2134.45
585.23	2129.00
585.58	2123.71
585.93	2118.42
586.28	2113.65
586.63	2108.80
586.98	2103.91
587.34	2099.21
587.69	2094.50
588.04	2089.73
588.39	2084.26
588.74	2078.01
589.09	2072.18
589.44	2065.59
589.79	2059.54
590.14	2054.09
590.49	2047.59
590.84	2041.24
591.19	2035.44
591.54	2029.20
591.89	2022.16
592.25	2015.68
592.60	2008.57
592.95	2001.51
593.30	1994.38
593.65	1987.00
594.00	1980.24
594.35	1973.13
594.70	1965.29
595.05	1958.48
595.40	1951.20
595.75	1944.05
596.10	1938.22
596.45	1931.60
596.80	1925.73
597.15	1919.51
597.50	1912.78
597.85	1906.41
598.19	1900.01
598.54	1893.07
598.89	1886.46
599.24	1880.60
599.59	1874.07
599.94	1867.96
600.29	1861.61
600.64	1855.09
600.99	1847.90
601.34	1841.20
601.69	1834.35
602.04	1827.78
602.39	1820.38
602.74	1813.77
603.08	1807.14
603.43	1800.33
603.78	1793.05
604.13	1785.80
604.48	1778.71
604.83	1771.79
605.18	1765.20
605.53	1757.49
605.87	1749.61
606.22	1742.58
606.57	1734.65
606.92	1727.34
607.27	1720.50
607.62	1713.79
607.96	1706.79
608.31	1700.34
608.66	1692.93
609.01	1685.51
609.36	1678.03
609.70	1670.29
610.05	1662.39
610.40	1654.85
610.75	1646.72
611.10	1639.29
611.44	1630.94
611.79	1622.92
612.14	1614.44
612.49	1605.15
612.83	1596.77
613.18	1588.61
613.53	1580.63
613.88	1572.20
614.22	1563.99
614.57	1555.25
614.92	1547.20
615.27	1539.86
615.61	1531.69
615.96	1523.73
616.31	1516.07
616.65	1508.80
617.00	1501.23
617.35	1493.55
617.70	1485.37
618.04	1476.90
618.39	1468.61
618.74	1461.18
619.08	1452.97
619.43	1445.50
619.78	1438.74
620.12	1431.61
620.47	1424.27
620.82	1416.12
621.16	1408.69
621.51	1401.10
621.85	1393.49
622.20	1385.06
622.55	1376.61
622.89	1368.68
623.24	1360.99
623.59	1353.69
623.93	1346.17
624.28	1339.03
624.62	1331.60
624.97	1324.34
625.32	1317.53
625.66	1310.54
626.01	1303.41
626.35	1296.06
626.70	1288.22
627.04	1280.56
627.39	1272.79
627.73	1265.39
628.08	1258.50
628.43	1251.47
628.77	1244.22
629.12	1236.77
629.46	1229.59
629.81	1222.09
630.15	1214.89
630.50	1207.60
630.84	1199.51
631.19	1191.45
631.53	1183.97
631.88	1176.40
632.22	1168.76
632.57	1161.36
632.91	1153.92
633.26	1146.54
633.60	1139.09
633.95	1131.93
634.29	1124.98
634.64	1118.36
634.98	1110.99
635.32	1103.91
635.67	1097.21
636.01	1090.60
636.36	1083.89
636.70	1077.44
637.05	1071.01
637.39	1064.55
637.73	1058.15
638.08	1052.22
638.42	1046.35
638.77	1039.91
639.11	1033.47
639.45	1027.14
639.80	1020.64
640.14	1014.18
640.49	1007.74
640.83	1001.48
641.17	995.44
641.52	989.10
641.86	982.64
642.20	976.85
642.55	970.47
642.89	964.03
643.23	957.46
643.58	951.71
643.92	945.55
644.26	939.57
644.61	933.55
644.95	927.60
645.29	921.15
645.64	914.50
645.98	908.16
646.32	902.22
646.66	896.26
647.01	890.59
647.35	885.01
647.69	879.13
648.04	873.63
648.38	867.86
648.72	861.97
649.06	856.03
649.41	850.05
649.75	844.28
650.09	838.41
650.43	832.68
650.78	826.55
651.12	820.67
651.46	814.93
651.80	809.31
652.14	803.87
652.49	798.52
652.83	793.39
653.17	787.82
653.51	782.30
653.85	776.88
654.20	771.25
654.54	765.26
654.88	759.55
655.22	753.65
655.56	747.93
655.90	742.42
656.25	737.19
656.59	731.94
656.93	726.77
657.27	721.67
657.61	716.36
657.95	711.25
658.29	706.18
658.64	700.94
658.98	695.59
659.32	690.18
659.66	685.05
660.00	679.84
660.34	674.92
660.68	669.96
661.02	665.07
661.36	660.41
661.70	655.96
662.05	651.61
662.39	647.40
662.73	643.00
663.07	638.68
663.41	634.23
663.75	629.83
664.09	625.31
664.43	620.86
664.77	616.76
665.11	612.57
665.45	608.41
665.79	604.43
666.13	600.38
666.47	596.27
666.81	592.08
667.15	587.92
667.49	584.03
667.83	580.16
668.17	576.20
668.51	572.16
668.85	568.13
669.19	564.25
669.53	560.42
669.87	556.61
670.21	552.90
670.55	549.27
670.89	545.88
671.23	542.46
671.57	538.97
671.91	535.45
672.25	531.93
672.58	528.50
672.92	525.03
673.26	521.81
673.60	518.66
673.94	515.60
674.28	512.68
674.62	509.74
674.96	506.74
675.30	503.88
675.64	501.01
675.97	498.25
676.31	495.44
676.65	492.54
676.99	489.82
677.33	486.95
677.67	484.13
678.01	481.09
678.34	478.19
678.68	475.35
679.02	472.59
679.36	469.85
679.70	467.10
680.04	464.38
680.37	461.54
680.71	458.71
681.05	456.07
681.39	453.35
681.73	450.71
682.06	448.13
682.40	445.55
682.74	442.96
683.08	440.38
683.42	437.80
683.75	435.29
684.09	432.69
684.43	430.26
684.77	427.86
685.10	425.50
685.44	423.13
685.78	420.85
686.12	418.54
686.45	416.21
686.79	413.97
687.13	411.76
687.46	409.63
687.80	407.55
688.14	405.32
688.48	403.29
688.81	401.03
689.15	398.94
689.49	396.83
689.82	394.77
690.16	392.70
690.50	390.72
690.83	388.76
691.17	386.81
691.51	384.93
691.84	383.09
692.18	381.19
692.52	379.24
692.85	377.28
693.19	375.42
693.52	373.61
693.86	371.75
694.20	370.01
694.53	368.20
694.87	366.34
695.21	364.56
695.54	362.74
695.88	361.02
696.21	359.27
696.55	357.60
696.88	355.91
697.22	354.22
697.56	352.59
697.89	350.98
698.23	349.42
698.56	347.79
698.90	346.21
699.23	344.57
699.57	343.02
699.90	341.50
700.24	339.98
700.58	338.48
700.91	337.04
701.25	335.55
701.58	334.19
701.92	332.81
702.25	331.44
702.59	330.10
702.92	328.78
703.26	327.49
703.59	326.23
703.93	325.06
704.26	323.85
704.60	322.59
704.93	321.29
705.26	320.00
705.60	318.82
705.93	317.62
706.27	316.59
706.60	315.57
706.94	314.50
707.27	313.39
707.61	312.34
707.94	311.27
708.27	310.19
708.61	309.11
708.94	308.13
709.28	307.16
709.61	306.16
709.94	305.22
710.28	304.24
710.61	303.22
710.95	302.12
711.28	301.18
711.61	300.23
711.95	299.33
712.28	298.44
712.61	297.45
712.95	296.53
713.28	295.60
713.61	294.69
713.95	293.83
714.28	292.97
714.61	292.08
714.95	291.24
715.28	290.39
715.61	289.56
715.95	288.70
716.28	287.84
716.61	287.03
716.95	286.19
717.28	285.41
717.61	284.63
717.94	283.91
718.28	283.15
718.61	282.46
718.94	281.75
719.27	281.07
719.61	280.46
719.94	279.78
720.27	279.11
720.60	278.44
720.94	277.78
721.27	277.16
721.60	276.58
721.93	276.02
722.27	275.45
722.60	274.88
722.93	274.30
723.26	273.78
723.59	273.23
723.93	272.67
724.26	272.12
724.59	271.61
724.92	271.05
725.25	270.54
725.59	269.98
725.92	269.48
726.25	268.97
726.58	268.48
726.91	267.99
727.24	267.49
727.57	267.02
727.91	266.51
728.24	266.05
728.57	265.59
728.90	265.10
729.23	264.63
729.56	264.22
729.89	263.78
730.22	263.28
730.55	262.79
730.89	262.35
731.22	261.93
731.55	261.48
731.88	261.08
732.21	260.69
732.54	260.28
732.87	259.85
733.20	259.45
733.53	259.03
733.86	258.69
734.19	258.31
734.52	257.91
734.85	257.61
735.18	257.18
735.51	256.81
735.84	256.44
736.17	256.08
736.50	255.68
736.83	255.45
737.16	255.12
737.49	254.80
737.82	254.48
738.15	254.14
738.48	253.79
738.81	253.47
739.14	253.10
739.47	252.79
739.80	252.50
740.13	252.19
740.46	251.90
740.79	251.58
741.12	251.30
741.45	251.01
741.78	250.66
742.11	250.38
742.44	250.06
742.77	249.77
743.10	249.48
743.43	249.19
743.75	248.82
744.08	248.67
744.41	248.40
744.74	248.16
745.07	247.85
745.40	247.63
745.73	247.40
746.06	247.14
746.39	246.87
746.71	246.57
747.04	246.29
747.37	245.99
747.70	245.71
748.03	245.44
748.36	245.19
748.68	244.95
749.01	244.74
749.34	244.50
749.67	244.28
750.00	244.03
750.33	243.88
750.65	243.65
750.98	243.34
751.31	243.10
751.64	242.86
751.97	242.68
752.29	242.41
752.62	242.17
752.95	241.98
753.28	241.78
753.60	241.60
753.93	241.40
754.26	241.25
754.59	241.03
754.91	240.85
755.24	240.65
755.57	240.46
755.90	240.29
756.22	240.12
756.55	239.93
756.88	239.74
757.20	239.48
757.53	239.26
757.86	239.07
758.19	238.94
758.51	238.73
758.84	238.57
759.17	238.44
759.49	238.28
759.82	238.14
760.15	237.98
760.47	237.81
760.80	237.65
761.13	237.51
761.45	237.37
761.78	237.22
762.11	237.09
762.43	236.95
762.76	236.79
763.08	236.66
763.41	236.52
763.74	236.40
764.06	236.26
764.39	236.14
764.71	236.00
765.04	235.85
765.37	235.76
765.69	235.63
766.02	235.51
766.34	235.34
766.67	235.17
767.00	235.07
767.32	235.07
767.65	235.01
767.97	234.88
768.30	234.78
768.62	234.69
768.95	234.55
769.27	234.43
769.60	234.34
769.92	234.20
770.25	234.07
770.57	233.96
770.90	233.89
771.22	233.77
771.55	233.67
771.87	233.58
772.20	233.47
772.52	233.43
772.85	233.46
773.17	233.41
773.50	233.31
773.82	233.20
774.15	233.04
774.47	232.89
774.80	232.80
775.12	232.71
775.45	232.65
775.77	232.60
776.09	232.54
776.42	232.48
776.74	232.45
777.07	232.36
777.39	232.28
777.72	232.17
778.04	232.09
778.36	232.03
778.69	231.94
779.01	231.93
779.33	231.78
779.66	231.57
779.98	231.50
780.31	231.48
780.63	231.46
780.95	231.39
781.28	231.34
781.60	231.31
781.92	231.24
782.25	231.13
782.57	231.05
782.89	230.98
783.22	230.90
783.54	230.81
783.86	230.80
784.19	230.76
784.51	230.74
784.83	230.74
785.16	230.67
785.48	230.61
785.80	230.52
786.12	230.52
786.45	230.46
786.77	230.42
787.09	230.34
787.42	230.27
787.74	230.21
788.06	230.14
788.38	230.06
788.71	230.02
789.03	229.97
789.35	229.94
789.67	229.88
789.99	229.85
790.32	229.78
790.64	229.75
790.96	229.80
791.28	229.73
791.61	229.64
791.93	229.61
792.25	229.57
792.57	229.61
792.89	229.51
793.21	229.51
793.54	229.46
793.86	229.40
794.18	229.36
794.50	229.33
794.82	229.32
795.14	229.29
795.47	229.26
795.79	229.25
796.11	229.20
796.43	229.15
796.75	229.11
797.07	229.09
797.39	229.02
797.71	228.89
798.04	228.88
798.36	228.83
798.68	228.80
799.00	228.77
799.32	228.67
799.64	228.67
799.96	228.59
800.28	228.55
800.60	228.51
800.92	228.49
801.24	228.44
801.56	228.40
801.89	228.37
802.21	228.32
802.53	228.25
802.85	228.21
803.17	228.20
803.49	228.17
803.81	228.11
804.13	228.05
804.45	228.01
804.77	227.96
805.09	227.94
805.41	227.90
805.73	227.87
806.05	227.82
806.37	227.78
806.69	227.80
807.01	227.80
807.33	227.76
807.65	227.71
807.97	227.74
808.28	227.70
808.60	227.67
808.92	227.64
809.24	227.68
809.56	227.66
809.88	227.60
810.20	227.56
810.52	227.58
810.84	227.57
811.16	227.55
811.48	227.52
811.80	227.56
812.12	227.52
812.43	227.49
812.75	227.51
813.07	227.50
813.39	227.46
813.71	227.42
814.03	227.41
814.35	227.39
814.67	227.34
814.98	227.31
815.30	227.31
815.62	227.26
815.94	227.21
816.26	227.24
816.58	227.20
816.89	227.21
817.21	227.15
817.53	227.15
817.85	227.16
818.17	227.18
818.48	227.14
818.80	227.16
819.12	227.18
819.44	227.15
819.76	227.13
820.07	227.11
820.39	227.10
820.71	227.09
821.03	227.10
821.34	227.10
821.66	227.16
821.98	227.17
822.30	227.20
822.61	227.28
822.93	227.23
823.25	227.26
823.57	227.29
823.88	227.30
824.20	227.27
824.52	227.25
824.83	227.22
825.15	227.17
825.47	227.16
825.79	227.15
826.10	227.12
826.42	227.10
826.74	227.12
827.05	227.10
827.37	227.09
827.69	227.04
828.00	226.99
828.32	226.93
828.64	226.91
828.95	226.93
829.27	226.83
829.58	226.82
829.90	226.81
830.22	226.78
830.53	226.76
830.85	226.76
831.17	226.71
831.48	226.68
831.80	226.67
832.11	226.66
832.43	226.63
832.75	226.61
833.06	226.63
833.38	226.59
833.69	226.57
834.01	226.53
834.32	226.52
834.64	226.51
834.96	226.50
835.27	226.46
835.59	226.42
835.90	226.42
836.22	226.39
836.53	226.35
836.85	226.30
837.16	226.38
837.48	226.34
837.79	226.36
838.11	226.34
838.42	226.31
838.74	226.28
839.05	226.24
839.37	226.22
839.68	226.13
840.00	226.10
840.31	226.07
840.63	226.08
840.94	226.06
841.26	226.05
841.57	226.00
841.88	225.98
842.20	225.95
842.51	225.90
842.83	225.89
843.14	225.96
843.46	225.96
843.77	225.87
844.08	225.84
844.40	225.80
844.71	225.82
845.03	225.79
845.34	225.76
845.65	225.74
845.97	225.75
846.28	225.79
846.60	225.80
846.91	225.79
847.22	225.77
847.54	225.76
847.85	225.76
848.16	225.78
848.48	225.79
848.79	225.84
849.10	225.87
849.42	225.87
849.73	225.79
850.04	225.75
850.36	225.72
850.67	225.77
850.98	225.79
851.30	225.79
851.61	225.80
851.92	225.81
852.23	225.85
852.55	225.85
852.86	225.82
853.17	225.83
853.49	225.88
853.80	225.91
854.11	225.92
854.42	225.93
854.74	225.92
855.05	225.92
855.36	225.84
855.67	225.83
855.99	225.84
856.30	225.97
856.61	225.99
856.92	226.01
857.23	225.97
857.55	225.94
857.86	225.93
858.17	225.95
858.48	225.92
858.79	225.92
859.11	225.90
859.42	225.93
859.73	225.92
860.04	225.94
860.35	225.88
860.66	225.87
860.98	225.87
861.29	225.90
861.60	225.91
861.91	225.95
862.22	225.95
862.53	225.96
862.84	225.85
863.16	225.85
863.47	225.85
863.78	225.85
864.09	225.90
864.40	225.91
864.71	225.93
865.02	225.99
865.33	225.94
865.64	225.96
865.95	225.95
866.27	226.00
866.58	225.97
866.89	226.02
867.20	225.99
867.51	225.96
867.82	225.94
868.13	225.96
868.44	225.93
868.75	225.93
869.06	225.89
869.37	225.87
869.68	225.84
869.99	225.84
870.30	225.85
870.61	225.85
870.92	225.86
871.23	225.79
871.54	225.74
871.85	225.78
872.16	225.79
872.47	225.77
872.78	225.75
873.09	225.75
873.40	225.74
873.71	225.76
874.02	225.76
874.33	225.74
874.64	225.72
874.95	225.72
875.26	225.72
875.56	225.75
875.87	225.77
876.18	225.81
876.49	225.89
876.80	225.90
877.11	225.89
877.42	225.87
877.73	225.91
878.04	225.94
878.35	225.91
878.66	225.89
878.96	225.90
879.27	225.85
879.58	225.84
879.89	225.86
880.20	225.86
880.51	225.87
880.82	225.87
881.12	225.87
881.43	225.84
881.74	225.83
882.05	225.83
882.36	225.79
882.67	225.76
882.97	225.67
883.28	225.64
883.59	225.59
883.90	225.60
884.21	225.62
884.51	225.60
884.82	225.58
885.13	225.55
885.44	225.53
885.74	225.55
886.05	225.52
886.36	225.51
886.67	225.51
886.98	225.57
887.28	225.57
887.59	225.55
887.90	225.56
888.20	225.54
888.51	225.52
888.82	225.50
889.13	225.53
889.43	225.57
889.74	225.57
890.05	225.60
890.35	225.60
890.66	225.56
890.97	225.54
891.28	225.56
891.58	225.59
891.89	225.58
892.20	225.56
892.50	225.56
892.81	225.52
893.12	225.52
893.42	225.47
893.73	225.47
894.04	225.48
894.34	225.49
894.65	225.51
894.95	225.52
895.26	225.53
895.57	225.56
895.87	225.50
896.18	225.53
896.48	225.53
896.79	225.51
897.10	225.52
897.40	225.54
897.71	225.56
898.01	225.53
898.32	225.56
898.63	225.56
898.93	225.58
899.24	225.59
899.54	225.54
899.85	225.52
900.15	225.49
900.46	225.52
900.76	225.53
901.07	225.51
901.38	225.47
901.68	225.49
901.99	225.45
902.29	225.45
902.60	225.42
902.90	225.40
903.21	225.39
903.51	225.38
903.82	225.38
904.12	225.34
904.43	225.35
904.73	225.37
905.03	225.35
905.34	225.39
905.64	225.39
905.95	225.41
906.25	225.40
906.56	225.40
906.86	225.37
907.17	225.35
907.47	225.35
907.77	225.36
908.08	225.33
908.38	225.35
908.69	225.33
908.99	225.32
909.30	225.32
909.60	225.34
909.90	225.33
910.21	225.33
910.51	225.35
910.81	225.35
911.12	225.36
911.42	225.37
911.73	225.28
912.03	225.29
912.33	225.32
912.64	225.36
912.94	225.36
913.24	225.35
913.55	225.35
913.85	225.34
914.15	225.37
914.46	225.40
914.76	225.37
915.06	225.38
915.37	225.35
915.67	225.36
915.97	225.35
916.27	225.36
916.58	225.36
916.88	225.38
917.18	225.36
917.49	225.39
917.79	225.38
918.09	225.40
918.39	225.43
918.70	225.40
919.00	225.38
919.30	225.42
919.60	225.44
919.91	225.44
920.21	225.45
920.51	225.43
920.81	225.42
921.12	225.45
921.42	225.43
921.72	225.48
922.02	225.50
922.32	225.50
922.63	225.50
922.93	225.53
923.23	225.52
923.53	225.51
923.83	225.45
924.13	225.50
924.44	225.51
924.74	225.50
925.04	225.54
925.34	225.54
925.64	225.53
925.94	225.51
926.24	225.59
926.55	225.58
926.85	225.60
927.15	225.57
927.45	225.56
927.75	225.58
928.05	225.56
928.35	225.55
928.65	225.59
928.95	225.56
929.26	225.52
929.56	225.57
929.86	225.59
930.16	225.59
930.46	225.52
930.76	225.53
931.06	225.50
931.36	225.49
931.66	225.50
931.96	225.49
932.26	225.49
932.56	225.40
932.86	225.40
933.16	225.40
933.46	225.41
933.76	225.38
934.06	225.40
934.36	225.43
934.66	225.37
934.96	225.36
935.26	225.41
935.56	225.45
935.86	225.38
936.16	225.37
936.46	225.36
936.76	225.38
937.06	225.35
937.36	225.33
937.66	225.32
937.96	225.29
938.26	225.28
938.56	225.25
938.86	225.26
939.16	225.24
939.46	225.24
939.76	225.23
940.06	225.24
940.35	225.19
940.65	225.16
940.95	225.18
941.25	225.16
941.55	225.12
941.85	225.10
942.15	225.12
942.45	225.12
942.75	225.10
943.04	225.11
943.34	225.13
943.64	225.14
943.94	225.12
944.24	225.13
944.54	225.10
944.84	225.10
945.13	225.12
945.43	225.11
945.73	225.09
946.03	225.08
946.33	225.08
946.62	225.10
946.92	225.11
947.22	225.12
947.52	225.12
947.82	225.12
948.11	225.06
948.41	225.06
948.71	225.06
949.01	225.08
949.31	225.06
949.60	225.07
949.90	225.09
950.20	225.11
950.50	225.08
950.79	225.11
951.09	225.15
951.39	225.13
951.69	225.12
951.98	225.15
952.28	225.13
952.58	225.10
952.87	225.10
953.17	225.11
953.47	225.09
953.76	225.08
954.06	225.08
954.36	225.11
954.66	225.10
954.95	225.12
955.25	225.11
955.55	225.13
955.84	225.10
956.14	225.07
956.44	225.02
956.73	225.03
957.03	225.04
957.32	225.01
957.62	225.01
957.92	225.05
958.21	225.03
958.51	225.18
958.81	225.22
959.10	225.23
959.40	225.24
959.69	225.28
959.99	225.29
960.29	225.29
960.58	225.28
960.88	225.30
961.17	225.31
961.47	225.33
961.76	225.29
962.06	225.29
962.36	225.31
962.65	225.33
962.95	225.33
963.24	225.35
963.54	225.37
963.83	225.38
964.13	225.37
964.42	225.36
964.72	225.32
965.01	225.33
965.31	225.31
965.60	225.28
965.90	225.34
966.19	225.33
966.49	225.37
966.78	225.35
967.08	225.37
967.37	225.36
967.67	225.36
967.96	225.40
968.26	225.41
968.55	225.42
968.85	225.42
969.14	225.43
969.43	225.43
969.73	225.42
970.02	225.41
970.32	225.41
970.61	225.41
970.91	225.35
971.20	225.34
971.49	225.35
971.79	225.36
972.08	225.29
972.38	225.28
972.67	225.25
972.96	225.28
973.26	225.23
973.55	225.28
973.85	225.27
974.14	225.26
974.43	225.26
974.73	225.25
975.02	225.25
975.31	225.26
975.61	225.20
975.90	225.22
976.19	225.22
976.49	225.21
976.78	225.22
977.07	225.21
977.37	225.20
977.66	225.22
977.95	225.21
978.24	225.24
978.54	225.25
978.83	225.27
979.12	225.28
979.42	225.30
979.71	225.27
980.00	225.28
980.29	225.29
980.59	225.27
980.88	225.31
981.17	225.33
981.46	225.29
981.76	225.32
982.05	225.31
982.34	225.29
982.63	225.28
982.93	225.26
983.22	225.27
983.51	225.26
983.80	225.26
984.09	225.30
984.39	225.27
984.68	225.26
984.97	225.25
985.26	225.22
985.55	225.23
985.85	225.20
986.14	225.21
986.43	225.22
986.72	225.22
987.01	225.17
987.30	225.13
987.59	225.17
987.89	225.14
988.18	225.11
988.47	225.11
988.76	225.12
989.05	225.12
989.34	225.10
989.63	225.13
989.92	225.11
990.22	225.07
990.51	225.10
990.80	225.09
991.09	225.10
991.38	225.13
991.67	225.10
991.96	225.05
992.25	225.04
992.54	225.01
992.83	225.03
993.12	225.05
993.41	225.08
993.70	225.11
993.99	225.17
994.28	225.18
994.58	225.19
994.87	225.16
995.16	225.18
995.45	225.14
995.74	225.10
996.03	225.10
996.32	225.12
996.61	225.13
996.90	225.11
997.19	225.08
997.48	225.04
997.77	225.01
998.06	225.04
998.34	225.01
998.63	225.04
998.92	225.04
999.21	225.04
999.50	225.04
999.79	225.01
1000.08	225.00
1000.37	225.02
1000.66	225.03
1000.95	225.04
1001.24	225.06
1001.53	225.12
1001.82	225.12
1002.11	225.11
1002.40	225.10
1002.68	225.11
1002.97	225.17
1003.26	225.16
1003.55	225.16
1003.84	225.18
1004.13	225.26
1004.42	225.30
1004.71	225.29
1004.99	225.28
1005.28	225.30
1005.57	225.30
1005.86	225.30
1006.15	225.30
1006.44	225.25
1006.72	225.28
1007.01	225.29
1007.30	225.29
1007.59	225.28
1007.88	225.25
1008.17	225.23
1008.45	225.26
1008.74	225.22
1009.03	225.21
1009.32	225.21
1009.60	225.25
1009.89	225.25
1010.18	225.18
1010.47	225.16
1010.76	225.16
1011.04	225.14
1011.33	225.14
1011.62	225.15
1011.91	225.15
1012.19	225.15
1012.48	225.21
1012.77	225.19
1013.05	225.24
1013.34	225.21
1013.63	225.19
1013.92	225.24
1014.20	225.27
1014.49	225.25
1014.78	225.25
1015.06	225.21
1015.35	225.23
1015.64	225.24
1015.92	225.27
1016.21	225.28
1016.50	225.29
1016.78	225.27
1017.07	225.30
1017.36	225.29
1017.64	225.25
1017.93	225.25
1018.22	225.25
1018.50	225.21
1018.79	225.21
1019.08	225.16
1019.36	225.18
1019.65	225.18
1019.93	225.19
1020.22	225.15
1020.51	225.21
1020.79	225.20
1021.08	225.25
1021.36	225.02
1021.65	225.29
1021.94	225.20
1022.22	225.41
1022.51	224.81
1022.79	225.62
1023.08	224.53
1023.36	226.35
1023.65	224.71
>>>>>End Processed Spectral Data<<<<<
