SpectraSuite Data File
++++++++++++++++++++++++++++++++++++
Date: Fri Feb 01 14:51:01 EST 2013
User: group
Dark Spectrum Present: No
Reference Spectrum Present: No
Number of Sampled Component Spectra: 1
Spectrometers: USB2E7196
Integration Time (usec): 35000 (USB2E7196)
Spectra Averaged: 100 (USB2E7196)
Boxcar Smoothing: 10 (USB2E7196)
Correct for Electrical Dark: No (USB2E7196)
Strobe/Lamp Enabled: No (USB2E7196)
Correct for Detector Non-linearity: No (USB2E7196)
Correct for Stray Light: No (USB2E7196)
Number of Pixels in Processed Spectrum: 2048
>>>>>Begin Processed Spectral Data<<<<<
339.09	0.00
339.48	215.46
339.86	217.23
340.24	218.76
340.63	220.21
341.01	223.05
341.39	222.95
341.78	223.74
342.16	225.41
342.54	226.18
342.93	214.10
343.31	224.91
343.69	225.45
344.07	225.91
344.46	226.33
344.84	226.69
345.22	226.92
345.60	227.16
345.99	227.36
346.37	227.46
346.75	227.53
347.13	227.58
347.52	227.65
347.90	227.73
348.28	227.76
348.66	227.83
349.05	227.82
349.43	227.87
349.81	227.91
350.19	227.93
350.57	227.99
350.96	228.04
351.34	228.13
351.72	228.23
352.10	228.34
352.48	228.39
352.87	228.44
353.25	228.51
353.63	228.59
354.01	228.63
354.39	228.71
354.77	228.82
355.15	228.93
355.54	228.96
355.92	228.99
356.30	229.05
356.68	229.15
357.06	229.22
357.44	229.26
357.82	229.33
358.20	229.38
358.58	229.39
358.97	229.45
359.35	229.50
359.73	229.57
360.11	229.60
360.49	229.63
360.87	229.67
361.25	229.68
361.63	229.70
362.01	229.75
362.39	229.76
362.77	229.76
363.15	229.77
363.53	229.77
363.91	229.80
364.29	229.82
364.67	229.75
365.05	229.76
365.43	229.74
365.81	229.73
366.19	229.75
366.57	229.81
366.95	229.73
367.33	229.68
367.71	229.63
368.09	229.63
368.47	229.62
368.85	229.56
369.23	229.56
369.61	229.49
369.99	229.49
370.37	229.46
370.75	229.47
371.13	229.39
371.51	229.31
371.89	229.27
372.27	229.18
372.65	229.14
373.03	229.04
373.41	228.99
373.78	228.91
374.16	228.81
374.54	228.71
374.92	228.69
375.30	228.60
375.68	228.52
376.06	228.41
376.44	228.32
376.82	228.27
377.19	228.19
377.57	228.15
377.95	228.02
378.33	227.93
378.71	227.77
379.09	227.72
379.47	227.68
379.84	227.60
380.22	227.54
380.60	227.46
380.98	227.40
381.36	227.33
381.73	227.26
382.11	227.20
382.49	227.14
382.87	227.06
383.25	227.03
383.62	227.09
384.00	227.06
384.38	227.02
384.76	226.99
385.13	226.99
385.51	226.94
385.89	226.91
386.27	226.90
386.64	226.88
387.02	226.83
387.40	226.78
387.78	226.76
388.15	226.73
388.53	226.68
388.91	226.66
389.29	226.62
389.66	226.66
390.04	226.64
390.42	226.63
390.79	226.66
391.17	226.68
391.55	226.59
391.92	226.57
392.30	226.60
392.68	226.60
393.05	226.59
393.43	226.61
393.81	226.63
394.18	226.66
394.56	226.70
394.94	226.77
395.31	226.82
395.69	226.89
396.06	226.96
396.44	227.04
396.82	227.09
397.19	227.21
397.57	227.24
397.95	227.31
398.32	227.38
398.70	227.43
399.07	227.52
399.45	227.61
399.82	227.70
400.20	227.77
400.58	227.88
400.95	227.95
401.33	228.06
401.70	228.21
402.08	228.33
402.45	228.47
402.83	228.61
403.20	228.71
403.58	228.85
403.95	228.97
404.33	229.13
404.71	229.30
405.08	229.48
405.46	229.64
405.83	229.80
406.21	229.99
406.58	230.15
406.96	230.29
407.33	230.45
407.70	230.62
408.08	230.95
408.45	231.16
408.83	231.40
409.20	231.61
409.58	231.76
409.95	232.02
410.33	232.23
410.70	232.47
411.08	232.78
411.45	233.08
411.82	233.36
412.20	233.70
412.57	234.11
412.95	234.37
413.32	234.75
413.69	235.18
414.07	235.57
414.44	236.02
414.82	236.51
415.19	237.08
415.56	237.61
415.94	238.11
416.31	238.71
416.68	239.31
417.06	240.01
417.43	240.69
417.81	241.43
418.18	242.23
418.55	243.07
418.93	243.91
419.30	244.76
419.67	245.71
420.04	246.67
420.42	247.60
420.79	248.81
421.16	249.96
421.54	251.10
421.91	252.32
422.28	253.62
422.66	254.94
423.03	256.16
423.40	257.49
423.77	258.87
424.15	260.28
424.52	261.77
424.89	263.38
425.26	264.93
425.64	266.36
426.01	267.94
426.38	269.53
426.75	271.19
427.13	272.93
427.50	274.71
427.87	276.56
428.24	278.46
428.61	280.16
428.99	282.10
429.36	284.21
429.73	286.24
430.10	288.23
430.47	290.29
430.85	292.41
431.22	294.67
431.59	297.06
431.96	299.33
432.33	301.81
432.70	304.17
433.08	306.97
433.45	309.62
433.82	312.23
434.19	315.12
434.56	317.93
434.93	320.60
435.30	323.20
435.68	326.12
436.05	328.92
436.42	331.73
436.79	334.26
437.16	336.99
437.53	339.86
437.90	342.69
438.27	345.44
438.64	348.34
439.01	350.95
439.38	353.18
439.75	355.36
440.13	357.86
440.50	360.20
440.87	362.05
441.24	363.98
441.61	366.17
441.98	367.73
442.35	369.55
442.72	371.43
443.09	373.29
443.46	374.29
443.83	374.89
444.20	375.37
444.57	376.19
444.94	376.49
445.31	376.82
445.68	377.14
446.05	377.24
446.42	376.84
446.79	376.42
447.16	375.98
447.53	375.72
447.90	374.60
448.27	373.46
448.64	371.89
449.01	370.83
449.37	368.87
449.74	366.95
450.11	364.73
450.48	362.25
450.85	359.72
451.22	357.60
451.59	355.60
451.96	353.68
452.33	351.12
452.70	348.77
453.07	345.92
453.43	343.05
453.80	340.27
454.17	337.57
454.54	335.04
454.91	332.30
455.28	329.61
455.65	327.07
456.02	324.63
456.38	322.49
456.75	319.79
457.12	317.57
457.49	315.36
457.86	313.19
458.23	311.31
458.59	309.25
458.96	307.16
459.33	305.33
459.70	303.46
460.07	301.94
460.43	300.17
460.80	298.57
461.17	297.14
461.54	295.65
461.91	294.21
462.27	292.74
462.64	291.49
463.01	290.09
463.38	288.80
463.74	287.37
464.11	286.17
464.48	285.13
464.85	283.94
465.21	283.05
465.58	282.13
465.95	281.03
466.32	280.13
466.68	279.19
467.05	278.25
467.42	277.38
467.78	276.41
468.15	275.54
468.52	274.82
468.88	273.94
469.25	273.12
469.62	272.48
469.98	271.77
470.35	271.10
470.72	270.47
471.08	269.78
471.45	269.26
471.82	268.70
472.18	268.06
472.55	267.65
472.92	267.12
473.28	266.57
473.65	266.09
474.02	265.61
474.38	265.19
474.75	264.86
475.11	264.49
475.48	264.20
475.85	263.96
476.21	263.75
476.58	263.57
476.94	263.40
477.31	263.24
477.67	263.08
478.04	262.99
478.41	262.89
478.77	262.91
479.14	262.82
479.50	262.80
479.87	262.88
480.23	262.91
480.60	262.94
480.96	263.05
481.33	263.27
481.69	263.46
482.06	263.68
482.42	263.84
482.79	264.10
483.15	264.43
483.52	264.75
483.88	265.10
484.25	265.45
484.61	265.88
484.98	266.32
485.34	266.89
485.71	267.50
486.07	268.16
486.44	268.75
486.80	269.45
487.17	270.17
487.53	271.03
487.90	271.91
488.26	272.82
488.62	273.81
488.99	274.76
489.35	275.79
489.72	276.95
490.08	278.17
490.44	279.39
490.81	280.71
491.17	282.06
491.54	283.52
491.90	285.05
492.26	286.70
492.63	288.43
492.99	290.23
493.36	292.06
493.72	294.07
494.08	296.14
494.45	298.39
494.81	300.76
495.17	303.16
495.54	305.72
495.90	308.41
496.26	311.19
496.63	314.18
496.99	317.26
497.35	320.47
497.72	323.85
498.08	327.36
498.44	331.01
498.80	334.91
499.17	338.94
499.53	343.06
499.89	347.43
500.26	351.95
500.62	356.57
500.98	361.53
501.34	366.57
501.71	371.88
502.07	377.28
502.43	382.85
502.79	388.61
503.16	394.59
503.52	400.79
503.88	407.14
504.24	413.66
504.60	420.54
504.97	427.56
505.33	434.82
505.69	442.43
506.05	450.11
506.41	457.98
506.78	466.07
507.14	474.49
507.50	483.08
507.86	491.94
508.22	501.06
508.59	510.17
508.95	519.65
509.31	529.41
509.67	539.43
510.03	549.64
510.39	560.12
510.75	570.86
511.12	581.79
511.48	593.04
511.84	604.42
512.20	615.84
512.56	627.93
512.92	640.06
513.28	652.34
513.64	664.82
514.00	677.43
514.37	690.35
514.73	703.37
515.09	716.46
515.45	729.73
515.81	743.27
516.17	757.26
516.53	771.45
516.89	785.62
517.25	799.81
517.61	814.23
517.97	828.70
518.33	843.05
518.69	857.79
519.05	872.75
519.41	887.93
519.77	903.51
520.13	918.86
520.49	934.27
520.85	949.70
521.21	965.41
521.57	981.72
521.93	997.63
522.29	1014.17
522.65	1030.43
523.01	1046.73
523.37	1062.89
523.73	1079.12
524.09	1095.22
524.45	1111.56
524.81	1128.32
525.17	1145.24
525.53	1162.31
525.89	1179.30
526.25	1196.19
526.61	1212.69
526.97	1229.56
527.33	1246.06
527.68	1262.75
528.04	1279.31
528.40	1296.00
528.76	1313.12
529.12	1329.79
529.48	1346.52
529.84	1362.52
530.20	1379.15
530.56	1396.26
530.91	1413.57
531.27	1430.43
531.63	1447.01
531.99	1463.71
532.35	1479.70
532.71	1495.56
533.07	1511.85
533.42	1527.82
533.78	1543.90
534.14	1560.18
534.50	1575.59
534.86	1591.52
535.21	1606.70
535.57	1622.69
535.93	1638.25
536.29	1653.23
536.65	1668.50
537.00	1683.52
537.36	1698.98
537.72	1713.56
538.08	1728.06
538.44	1742.02
538.79	1755.89
539.15	1769.65
539.51	1783.47
539.87	1797.93
540.22	1811.74
540.58	1825.53
540.94	1838.97
541.29	1851.86
541.65	1864.78
542.01	1878.03
542.37	1890.38
542.72	1902.99
543.08	1914.94
543.44	1927.38
543.79	1938.59
544.15	1949.49
544.51	1961.06
544.87	1971.92
545.22	1982.93
545.58	1993.18
545.94	2002.94
546.29	2012.86
546.65	2022.63
547.01	2031.73
547.36	2040.43
547.72	2049.00
548.07	2056.88
548.43	2064.99
548.79	2073.12
549.14	2080.62
549.50	2088.02
549.86	2095.83
550.21	2102.92
550.57	2109.95
550.92	2116.40
551.28	2123.34
551.64	2130.40
551.99	2136.86
552.35	2142.82
552.70	2148.89
553.06	2154.74
553.41	2160.99
553.77	2166.90
554.13	2172.88
554.48	2179.08
554.84	2184.36
555.19	2189.47
555.55	2194.39
555.90	2198.72
556.26	2203.45
556.61	2207.98
556.97	2211.92
557.32	2215.87
557.68	2220.04
558.03	2224.17
558.39	2227.82
558.74	2232.36
559.10	2236.05
559.45	2239.53
559.81	2243.86
560.16	2247.42
560.52	2250.42
560.87	2253.71
561.23	2256.15
561.58	2259.01
561.94	2261.36
562.29	2263.69
562.64	2266.28
563.00	2268.82
563.35	2272.31
563.71	2275.34
564.06	2278.35
564.42	2281.13
564.77	2283.50
565.12	2285.44
565.48	2287.27
565.83	2289.07
566.19	2290.25
566.54	2290.95
566.89	2291.85
567.25	2292.15
567.60	2293.37
567.96	2294.86
568.31	2295.43
568.66	2296.34
569.02	2296.63
569.37	2296.68
569.72	2297.19
570.08	2296.97
570.43	2296.65
570.78	2295.66
571.14	2293.86
571.49	2292.35
571.84	2291.91
572.20	2290.36
572.55	2289.12
572.90	2287.18
573.26	2285.46
573.61	2283.52
573.96	2281.57
574.31	2278.47
574.67	2275.28
575.02	2271.41
575.37	2267.94
575.72	2264.11
576.08	2260.69
576.43	2257.24
576.78	2253.48
577.13	2250.14
577.49	2246.94
577.84	2243.33
578.19	2239.53
578.54	2235.58
578.90	2230.90
579.25	2225.01
579.60	2219.95
579.95	2214.72
580.30	2209.52
580.66	2204.13
581.01	2198.97
581.36	2193.97
581.71	2189.43
582.06	2184.97
582.42	2180.26
582.77	2174.81
583.12	2169.93
583.47	2165.05
583.82	2159.96
584.17	2154.44
584.53	2148.85
584.88	2143.10
585.23	2137.15
585.58	2131.59
585.93	2126.12
586.28	2121.47
586.63	2116.34
586.98	2111.14
587.34	2106.49
587.69	2101.60
588.04	2096.28
588.39	2090.42
588.74	2083.75
589.09	2077.47
589.44	2070.38
589.79	2064.22
590.14	2058.37
590.49	2051.66
590.84	2045.14
591.19	2038.79
591.54	2032.30
591.89	2024.80
592.25	2017.78
592.60	2010.56
592.95	2002.73
593.30	1995.21
593.65	1987.47
594.00	1980.14
594.35	1972.81
594.70	1964.62
595.05	1957.26
595.40	1949.92
595.75	1942.49
596.10	1936.08
596.45	1929.20
596.80	1922.97
597.15	1916.28
597.50	1909.14
597.85	1902.68
598.19	1895.96
598.54	1889.00
598.89	1882.22
599.24	1876.21
599.59	1869.56
599.94	1863.14
600.29	1856.86
600.64	1850.13
600.99	1842.44
601.34	1835.71
601.69	1828.60
602.04	1821.56
602.39	1814.14
602.74	1807.24
603.08	1800.39
603.43	1793.63
603.78	1786.46
604.13	1779.19
604.48	1771.81
604.83	1765.00
605.18	1758.07
605.53	1750.00
605.87	1741.77
606.22	1734.58
606.57	1726.69
606.92	1719.39
607.27	1712.23
607.62	1705.31
607.96	1698.18
608.31	1691.72
608.66	1684.28
609.01	1677.00
609.36	1669.55
609.70	1661.66
610.05	1653.85
610.40	1646.22
610.75	1637.94
611.10	1630.23
611.44	1622.08
611.79	1614.18
612.14	1605.62
612.49	1596.68
612.83	1588.42
613.18	1580.49
613.53	1572.47
613.88	1563.93
614.22	1555.86
614.57	1547.42
614.92	1539.42
615.27	1531.98
615.61	1523.73
615.96	1515.70
616.31	1508.00
616.65	1500.74
617.00	1493.16
617.35	1485.34
617.70	1477.14
618.04	1468.81
618.39	1460.81
618.74	1453.25
619.08	1445.06
619.43	1437.55
619.78	1430.69
620.12	1423.52
620.47	1416.07
620.82	1407.97
621.16	1400.76
621.51	1393.16
621.85	1385.68
622.20	1377.30
622.55	1369.12
622.89	1361.44
623.24	1354.04
623.59	1346.77
623.93	1339.31
624.28	1332.23
624.62	1324.85
624.97	1317.72
625.32	1311.02
625.66	1304.04
626.01	1296.88
626.35	1289.61
626.70	1281.87
627.04	1274.02
627.39	1266.38
627.73	1259.08
628.08	1252.33
628.43	1245.03
628.77	1237.65
629.12	1230.17
629.46	1223.15
629.81	1215.80
630.15	1208.68
630.50	1201.30
630.84	1193.24
631.19	1185.43
631.53	1177.91
631.88	1170.45
632.22	1162.96
632.57	1155.74
632.91	1148.25
633.26	1141.05
633.60	1133.80
633.95	1126.92
634.29	1120.06
634.64	1113.49
634.98	1106.27
635.32	1099.29
635.67	1092.82
636.01	1086.31
636.36	1079.63
636.70	1073.26
637.05	1066.82
637.39	1060.52
637.73	1054.10
638.08	1048.38
638.42	1042.55
638.77	1036.30
639.11	1029.87
639.45	1023.55
639.80	1016.96
640.14	1010.66
640.49	1004.16
640.83	997.87
641.17	991.69
641.52	985.49
641.86	979.23
642.20	973.45
642.55	967.13
642.89	960.78
643.23	954.32
643.58	948.64
643.92	942.44
644.26	936.36
644.61	930.38
644.95	924.42
645.29	917.85
645.64	911.07
645.98	904.79
646.32	898.98
646.66	893.00
647.01	887.30
647.35	881.64
647.69	875.84
648.04	870.40
648.38	864.60
648.72	858.67
649.06	852.60
649.41	846.80
649.75	840.87
650.09	834.88
650.43	829.16
650.78	823.00
651.12	817.07
651.46	811.42
651.80	805.70
652.14	800.33
652.49	795.02
652.83	789.89
653.17	784.27
653.51	778.61
653.85	773.32
654.20	767.70
654.54	761.77
654.88	756.17
655.22	750.37
655.56	744.79
655.90	739.43
656.25	734.29
656.59	728.97
656.93	724.00
657.27	718.96
657.61	713.59
657.95	708.62
658.29	703.62
658.64	698.41
658.98	693.12
659.32	687.76
659.66	682.61
660.00	677.38
660.34	672.52
660.68	667.66
661.02	662.67
661.36	658.07
661.70	653.75
662.05	649.38
662.39	645.12
662.73	640.73
663.07	636.38
663.41	631.94
663.75	627.53
664.09	623.01
664.43	618.73
664.77	614.68
665.11	610.42
665.45	606.40
665.79	602.43
666.13	598.38
666.47	594.32
666.81	590.16
667.15	586.14
667.49	582.30
667.83	578.57
668.17	574.69
668.51	570.69
668.85	566.63
669.19	562.81
669.53	558.99
669.87	555.18
670.21	551.54
670.55	547.97
670.89	544.56
671.23	541.14
671.57	537.64
671.91	534.13
672.25	530.78
672.58	527.29
672.92	523.95
673.26	520.87
673.60	517.81
673.94	514.83
674.28	511.96
674.62	509.04
674.96	505.96
675.30	503.10
675.64	500.23
675.97	497.57
676.31	494.80
676.65	491.91
676.99	489.23
677.33	486.40
677.67	483.62
678.01	480.60
678.34	477.67
678.68	474.83
679.02	472.09
679.36	469.27
679.70	466.57
680.04	463.85
680.37	460.99
680.71	458.25
681.05	455.70
681.39	452.99
681.73	450.37
682.06	447.88
682.40	445.30
682.74	442.82
683.08	440.28
683.42	437.73
683.75	435.27
684.09	432.81
684.43	430.34
684.77	427.92
685.10	425.66
685.44	423.40
685.78	421.15
686.12	418.95
686.45	416.68
686.79	414.41
687.13	412.27
687.46	410.16
687.80	407.96
688.14	405.76
688.48	403.77
688.81	401.54
689.15	399.41
689.49	397.37
689.82	395.29
690.16	393.23
690.50	391.27
690.83	389.36
691.17	387.35
691.51	385.50
691.84	383.68
692.18	381.75
692.52	379.80
692.85	377.91
693.19	376.05
693.52	374.29
693.86	372.45
694.20	370.66
694.53	368.87
694.87	367.06
695.21	365.29
695.54	363.46
695.88	361.80
696.21	360.09
696.55	358.40
696.88	356.70
697.22	355.09
697.56	353.50
697.89	351.83
698.23	350.24
698.56	348.66
698.90	347.06
699.23	345.42
699.57	343.88
699.90	342.31
700.24	340.74
700.58	339.20
700.91	337.74
701.25	336.29
701.58	334.95
701.92	333.60
702.25	332.21
702.59	330.86
702.92	329.54
703.26	328.27
703.59	327.01
703.93	325.89
704.26	324.67
704.60	323.42
704.93	322.21
705.26	320.98
705.60	319.81
705.93	318.65
706.27	317.69
706.60	316.67
706.94	315.63
707.27	314.51
707.61	313.48
707.94	312.48
708.27	311.39
708.61	310.28
708.94	309.30
709.28	308.37
709.61	307.43
709.94	306.48
710.28	305.48
710.61	304.50
710.95	303.43
711.28	302.53
711.61	301.58
711.95	300.70
712.28	299.77
712.61	298.79
712.95	297.88
713.28	296.94
713.61	296.08
713.95	295.21
714.28	294.38
714.61	293.54
714.95	292.72
715.28	291.92
715.61	291.07
715.95	290.25
716.28	289.38
716.61	288.58
716.95	287.78
717.28	287.04
717.61	286.31
717.94	285.57
718.28	284.78
718.61	284.07
718.94	283.38
719.27	282.75
719.61	282.13
719.94	281.51
720.27	280.84
720.60	280.16
720.94	279.57
721.27	279.04
721.60	278.48
721.93	277.90
722.27	277.38
722.60	276.86
722.93	276.32
723.26	275.81
723.59	275.25
723.93	274.74
724.26	274.23
724.59	273.67
724.92	273.12
725.25	272.64
725.59	272.11
725.92	271.60
726.25	271.09
726.58	270.58
726.91	270.07
727.24	269.60
727.57	269.12
727.91	268.61
728.24	268.13
728.57	267.65
728.90	267.18
729.23	266.67
729.56	266.22
729.89	265.75
730.22	265.27
730.55	264.78
730.89	264.30
731.22	263.81
731.55	263.35
731.88	262.94
732.21	262.51
732.54	262.11
732.87	261.64
733.20	261.23
733.53	260.86
733.86	260.48
734.19	260.09
734.52	259.74
734.85	259.46
735.18	259.06
735.51	258.65
735.84	258.30
736.17	257.94
736.50	257.52
736.83	257.27
737.16	256.92
737.49	256.63
737.82	256.29
738.15	256.01
738.48	255.71
738.81	255.39
739.14	255.07
739.47	254.74
739.80	254.47
740.13	254.15
740.46	253.82
740.79	253.48
741.12	253.17
741.45	252.84
741.78	252.46
742.11	252.16
742.44	251.81
742.77	251.52
743.10	251.22
743.43	250.95
743.75	250.57
744.08	250.42
744.41	250.14
744.74	249.82
745.07	249.52
745.40	249.28
745.73	249.06
746.06	248.79
746.39	248.50
746.71	248.22
747.04	247.97
747.37	247.70
747.70	247.45
748.03	247.22
748.36	247.02
748.68	246.77
749.01	246.52
749.34	246.36
749.67	246.15
750.00	245.92
750.33	245.79
750.65	245.56
750.98	245.24
751.31	245.02
751.64	244.85
751.97	244.67
752.29	244.44
752.62	244.18
752.95	243.93
753.28	243.74
753.60	243.57
753.93	243.43
754.26	243.26
754.59	243.05
754.91	242.84
755.24	242.62
755.57	242.48
755.90	242.30
756.22	242.10
756.55	241.89
756.88	241.73
757.20	241.45
757.53	241.29
757.86	241.12
758.19	240.96
758.51	240.82
758.84	240.68
759.17	240.54
759.49	240.41
759.82	240.33
760.15	240.20
760.47	240.03
760.80	239.86
761.13	239.73
761.45	239.57
761.78	239.42
762.11	239.29
762.43	239.11
762.76	238.97
763.08	238.86
763.41	238.75
763.74	238.61
764.06	238.46
764.39	238.26
764.71	238.11
765.04	237.96
765.37	237.81
765.69	237.65
766.02	237.47
766.34	237.30
766.67	237.11
767.00	237.00
767.32	236.96
767.65	236.90
767.97	236.77
768.30	236.68
768.62	236.57
768.95	236.46
769.27	236.34
769.60	236.24
769.92	236.15
770.25	236.01
770.57	235.87
770.90	235.81
771.22	235.71
771.55	235.65
771.87	235.58
772.20	235.47
772.52	235.46
772.85	235.47
773.17	235.42
773.50	235.36
773.82	235.26
774.15	235.13
774.47	234.97
774.80	234.90
775.12	234.82
775.45	234.73
775.77	234.67
776.09	234.61
776.42	234.55
776.74	234.47
777.07	234.38
777.39	234.32
777.72	234.24
778.04	234.20
778.36	234.10
778.69	234.05
779.01	234.00
779.33	233.86
779.66	233.74
779.98	233.66
780.31	233.59
780.63	233.58
780.95	233.53
781.28	233.46
781.60	233.39
781.92	233.35
782.25	233.31
782.57	233.25
782.89	233.16
783.22	233.09
783.54	233.01
783.86	232.97
784.19	232.92
784.51	232.91
784.83	232.87
785.16	232.83
785.48	232.77
785.80	232.74
786.12	232.70
786.45	232.62
786.77	232.59
787.09	232.55
787.42	232.46
787.74	232.39
788.06	232.37
788.38	232.30
788.71	232.23
789.03	232.18
789.35	232.14
789.67	232.14
789.99	232.11
790.32	232.08
790.64	232.08
790.96	232.11
791.28	232.02
791.61	231.97
791.93	231.94
792.25	231.90
792.57	231.92
792.89	231.83
793.21	231.81
793.54	231.74
793.86	231.66
794.18	231.63
794.50	231.59
794.82	231.54
795.14	231.50
795.47	231.51
795.79	231.46
796.11	231.40
796.43	231.33
796.75	231.31
797.07	231.26
797.39	231.20
797.71	231.11
798.04	231.07
798.36	231.03
798.68	231.01
799.00	230.98
799.32	230.93
799.64	230.93
799.96	230.93
800.28	230.88
800.60	230.90
800.92	230.88
801.24	230.86
801.56	230.81
801.89	230.79
802.21	230.75
802.53	230.69
802.85	230.69
803.17	230.70
803.49	230.63
803.81	230.60
804.13	230.56
804.45	230.52
804.77	230.52
805.09	230.49
805.41	230.45
805.73	230.41
806.05	230.34
806.37	230.30
806.69	230.26
807.01	230.23
807.33	230.19
807.65	230.10
807.97	230.12
808.28	230.08
808.60	230.02
808.92	229.97
809.24	230.02
809.56	229.98
809.88	229.93
810.20	229.94
810.52	229.90
810.84	229.84
811.16	229.79
811.48	229.71
811.80	229.71
812.12	229.69
812.43	229.69
812.75	229.66
813.07	229.63
813.39	229.63
813.71	229.63
814.03	229.59
814.35	229.59
814.67	229.50
814.98	229.50
815.30	229.50
815.62	229.46
815.94	229.37
816.26	229.36
816.58	229.29
816.89	229.28
817.21	229.27
817.53	229.30
817.85	229.31
818.17	229.33
818.48	229.27
818.80	229.24
819.12	229.20
819.44	229.18
819.76	229.15
820.07	229.10
820.39	229.05
820.71	229.07
821.03	229.09
821.34	229.08
821.66	229.09
821.98	229.10
822.30	229.10
822.61	229.15
822.93	229.11
823.25	229.16
823.57	229.14
823.88	229.17
824.20	229.12
824.52	229.11
824.83	229.09
825.15	229.08
825.47	229.09
825.79	229.07
826.10	229.04
826.42	229.03
826.74	229.03
827.05	229.05
827.37	229.00
827.69	228.96
828.00	228.96
828.32	228.92
828.64	228.88
828.95	228.92
829.27	228.87
829.58	228.88
829.90	228.86
830.22	228.85
830.53	228.79
830.85	228.79
831.17	228.76
831.48	228.78
831.80	228.77
832.11	228.72
832.43	228.70
832.75	228.73
833.06	228.79
833.38	228.77
833.69	228.75
834.01	228.75
834.32	228.76
834.64	228.75
834.96	228.75
835.27	228.75
835.59	228.74
835.90	228.74
836.22	228.72
836.53	228.68
836.85	228.67
837.16	228.77
837.48	228.77
837.79	228.82
838.11	228.82
838.42	228.84
838.74	228.85
839.05	228.87
839.37	228.83
839.68	228.77
840.00	228.75
840.31	228.75
840.63	228.74
840.94	228.73
841.26	228.69
841.57	228.68
841.88	228.69
842.20	228.64
842.51	228.59
842.83	228.60
843.14	228.67
843.46	228.64
843.77	228.55
844.08	228.53
844.40	228.47
844.71	228.43
845.03	228.42
845.34	228.43
845.65	228.40
845.97	228.42
846.28	228.41
846.60	228.41
846.91	228.42
847.22	228.40
847.54	228.40
847.85	228.42
848.16	228.40
848.48	228.39
848.79	228.42
849.10	228.44
849.42	228.43
849.73	228.37
850.04	228.37
850.36	228.36
850.67	228.40
850.98	228.36
851.30	228.37
851.61	228.34
851.92	228.30
852.23	228.33
852.55	228.33
852.86	228.31
853.17	228.33
853.49	228.29
853.80	228.32
854.11	228.30
854.42	228.30
854.74	228.29
855.05	228.27
855.36	228.21
855.67	228.20
855.99	228.18
856.30	228.28
856.61	228.30
856.92	228.29
857.23	228.26
857.55	228.27
857.86	228.25
858.17	228.31
858.48	228.28
858.79	228.23
859.11	228.21
859.42	228.21
859.73	228.23
860.04	228.27
860.35	228.25
860.66	228.26
860.98	228.28
861.29	228.29
861.60	228.30
861.91	228.35
862.22	228.34
862.53	228.32
862.84	228.22
863.16	228.24
863.47	228.18
863.78	228.17
864.09	228.17
864.40	228.19
864.71	228.15
865.02	228.18
865.33	228.20
865.64	228.21
865.95	228.20
866.27	228.22
866.58	228.21
866.89	228.21
867.20	228.20
867.51	228.18
867.82	228.18
868.13	228.22
868.44	228.17
868.75	228.19
869.06	228.21
869.37	228.24
869.68	228.17
869.99	228.21
870.30	228.21
870.61	228.21
870.92	228.17
871.23	228.16
871.54	228.15
871.85	228.14
872.16	228.16
872.47	228.13
872.78	228.08
873.09	228.05
873.40	228.03
873.71	228.04
874.02	228.05
874.33	228.03
874.64	228.01
874.95	228.06
875.26	228.05
875.56	228.06
875.87	228.02
876.18	228.05
876.49	228.16
876.80	228.17
877.11	228.16
877.42	228.17
877.73	228.21
878.04	228.20
878.35	228.20
878.66	228.15
878.96	228.16
879.27	228.16
879.58	228.15
879.89	228.16
880.20	228.16
880.51	228.17
880.82	228.19
881.12	228.16
881.43	228.09
881.74	228.06
882.05	228.02
882.36	228.01
882.67	228.00
882.97	227.85
883.28	227.82
883.59	227.81
883.90	227.80
884.21	227.79
884.51	227.79
884.82	227.77
885.13	227.78
885.44	227.78
885.74	227.79
886.05	227.80
886.36	227.78
886.67	227.73
886.98	227.74
887.28	227.74
887.59	227.73
887.90	227.73
888.20	227.75
888.51	227.78
888.82	227.76
889.13	227.72
889.43	227.82
889.74	227.82
890.05	227.85
890.35	227.86
890.66	227.83
890.97	227.84
891.28	227.83
891.58	227.82
891.89	227.80
892.20	227.80
892.50	227.80
892.81	227.79
893.12	227.78
893.42	227.72
893.73	227.66
894.04	227.64
894.34	227.66
894.65	227.61
894.95	227.58
895.26	227.56
895.57	227.65
895.87	227.56
896.18	227.58
896.48	227.57
896.79	227.51
897.10	227.53
897.40	227.52
897.71	227.54
898.01	227.52
898.32	227.54
898.63	227.50
898.93	227.46
899.24	227.46
899.54	227.48
899.85	227.46
900.15	227.50
900.46	227.53
900.76	227.54
901.07	227.57
901.38	227.58
901.68	227.62
901.99	227.58
902.29	227.61
902.60	227.61
902.90	227.62
903.21	227.65
903.51	227.64
903.82	227.65
904.12	227.67
904.43	227.73
904.73	227.76
905.03	227.78
905.34	227.90
905.64	227.90
905.95	227.92
906.25	227.97
906.56	227.96
906.86	227.99
907.17	228.00
907.47	228.01
907.77	228.01
908.08	228.01
908.38	228.01
908.69	228.00
908.99	228.01
909.30	228.03
909.60	228.04
909.90	228.06
910.21	228.05
910.51	228.04
910.81	228.00
911.12	227.97
911.42	228.00
911.73	227.91
912.03	227.97
912.33	227.97
912.64	227.98
912.94	227.95
913.24	227.96
913.55	227.93
913.85	227.94
914.15	227.95
914.46	227.95
914.76	227.96
915.06	227.97
915.37	227.94
915.67	227.92
915.97	227.95
916.27	227.92
916.58	227.91
916.88	227.89
917.18	227.88
917.49	227.97
917.79	227.94
918.09	227.96
918.39	227.95
918.70	227.95
919.00	227.92
919.30	227.97
919.60	227.94
919.91	227.91
920.21	227.92
920.51	227.92
920.81	227.89
921.12	227.89
921.42	227.84
921.72	227.86
922.02	227.83
922.32	227.82
922.63	227.81
922.93	227.87
923.23	227.83
923.53	227.84
923.83	227.75
924.13	227.77
924.44	227.77
924.74	227.78
925.04	227.76
925.34	227.77
925.64	227.72
925.94	227.69
926.24	227.75
926.55	227.71
926.85	227.70
927.15	227.68
927.45	227.66
927.75	227.69
928.05	227.66
928.35	227.68
928.65	227.65
928.95	227.67
929.26	227.63
929.56	227.67
929.86	227.65
930.16	227.64
930.46	227.63
930.76	227.61
931.06	227.55
931.36	227.56
931.66	227.57
931.96	227.58
932.26	227.59
932.56	227.56
932.86	227.58
933.16	227.60
933.46	227.61
933.76	227.61
934.06	227.63
934.36	227.63
934.66	227.63
934.96	227.60
935.26	227.60
935.56	227.60
935.86	227.56
936.16	227.53
936.46	227.51
936.76	227.51
937.06	227.49
937.36	227.50
937.66	227.48
937.96	227.44
938.26	227.42
938.56	227.44
938.86	227.47
939.16	227.47
939.46	227.46
939.76	227.48
940.06	227.45
940.35	227.38
940.65	227.36
940.95	227.38
941.25	227.37
941.55	227.34
941.85	227.33
942.15	227.38
942.45	227.44
942.75	227.46
943.04	227.47
943.34	227.48
943.64	227.50
943.94	227.46
944.24	227.50
944.54	227.51
944.84	227.49
945.13	227.46
945.43	227.44
945.73	227.45
946.03	227.42
946.33	227.46
946.62	227.52
946.92	227.54
947.22	227.56
947.52	227.57
947.82	227.61
948.11	227.59
948.41	227.58
948.71	227.54
949.01	227.58
949.31	227.55
949.60	227.53
949.90	227.53
950.20	227.55
950.50	227.55
950.79	227.55
951.09	227.60
951.39	227.59
951.69	227.56
951.98	227.54
952.28	227.57
952.58	227.55
952.87	227.55
953.17	227.55
953.47	227.51
953.76	227.50
954.06	227.46
954.36	227.45
954.66	227.42
954.95	227.45
955.25	227.45
955.55	227.48
955.84	227.46
956.14	227.50
956.44	227.53
956.73	227.52
957.03	227.53
957.32	227.51
957.62	227.52
957.92	227.57
958.21	227.58
958.51	227.69
958.81	227.69
959.10	227.69
959.40	227.71
959.69	227.71
959.99	227.74
960.29	227.73
960.58	227.79
960.88	227.82
961.17	227.81
961.47	227.81
961.76	227.76
962.06	227.82
962.36	227.78
962.65	227.74
962.95	227.73
963.24	227.71
963.54	227.72
963.83	227.73
964.13	227.72
964.42	227.71
964.72	227.63
965.01	227.64
965.31	227.61
965.60	227.59
965.90	227.66
966.19	227.64
966.49	227.66
966.78	227.60
967.08	227.59
967.37	227.58
967.67	227.53
967.96	227.58
968.26	227.54
968.55	227.54
968.85	227.54
969.14	227.52
969.43	227.52
969.73	227.47
970.02	227.47
970.32	227.45
970.61	227.46
970.91	227.42
971.20	227.36
971.49	227.40
971.79	227.38
972.08	227.30
972.38	227.30
972.67	227.29
972.96	227.30
973.26	227.28
973.55	227.29
973.85	227.27
974.14	227.23
974.43	227.24
974.73	227.22
975.02	227.21
975.31	227.21
975.61	227.24
975.90	227.24
976.19	227.24
976.49	227.24
976.78	227.24
977.07	227.23
977.37	227.26
977.66	227.25
977.95	227.23
978.24	227.23
978.54	227.28
978.83	227.29
979.12	227.28
979.42	227.28
979.71	227.29
980.00	227.30
980.29	227.31
980.59	227.30
980.88	227.33
981.17	227.36
981.46	227.39
981.76	227.36
982.05	227.37
982.34	227.36
982.63	227.37
982.93	227.35
983.22	227.38
983.51	227.39
983.80	227.39
984.09	227.42
984.39	227.41
984.68	227.39
984.97	227.37
985.26	227.41
985.55	227.44
985.85	227.44
986.14	227.45
986.43	227.46
986.72	227.47
987.01	227.40
987.30	227.39
987.59	227.42
987.89	227.47
988.18	227.45
988.47	227.48
988.76	227.45
989.05	227.45
989.34	227.45
989.63	227.50
989.92	227.49
990.22	227.47
990.51	227.49
990.80	227.46
991.09	227.50
991.38	227.47
991.67	227.45
991.96	227.42
992.25	227.45
992.54	227.44
992.83	227.43
993.12	227.45
993.41	227.45
993.70	227.43
993.99	227.43
994.28	227.46
994.58	227.42
994.87	227.45
995.16	227.46
995.45	227.46
995.74	227.42
996.03	227.44
996.32	227.47
996.61	227.52
996.90	227.52
997.19	227.53
997.48	227.55
997.77	227.54
998.06	227.52
998.34	227.51
998.63	227.52
998.92	227.53
999.21	227.53
999.50	227.53
999.79	227.52
1000.08	227.51
1000.37	227.48
1000.66	227.47
1000.95	227.45
1001.24	227.44
1001.53	227.42
1001.82	227.40
1002.11	227.35
1002.40	227.32
1002.68	227.30
1002.97	227.37
1003.26	227.34
1003.55	227.30
1003.84	227.30
1004.13	227.34
1004.42	227.33
1004.71	227.31
1004.99	227.31
1005.28	227.37
1005.57	227.36
1005.86	227.34
1006.15	227.31
1006.44	227.32
1006.72	227.32
1007.01	227.31
1007.30	227.31
1007.59	227.33
1007.88	227.33
1008.17	227.32
1008.45	227.33
1008.74	227.28
1009.03	227.26
1009.32	227.25
1009.60	227.25
1009.89	227.24
1010.18	227.21
1010.47	227.19
1010.76	227.20
1011.04	227.17
1011.33	227.17
1011.62	227.19
1011.91	227.21
1012.19	227.21
1012.48	227.23
1012.77	227.25
1013.05	227.31
1013.34	227.30
1013.63	227.29
1013.92	227.30
1014.20	227.33
1014.49	227.31
1014.78	227.33
1015.06	227.27
1015.35	227.25
1015.64	227.28
1015.92	227.30
1016.21	227.28
1016.50	227.31
1016.78	227.31
1017.07	227.34
1017.36	227.30
1017.64	227.24
1017.93	227.21
1018.22	227.21
1018.50	227.20
1018.79	227.22
1019.08	227.16
1019.36	227.18
1019.65	227.13
1019.93	227.15
1020.22	227.15
1020.51	227.25
1020.79	227.24
1021.08	227.14
1021.36	227.11
1021.65	227.80
1021.94	227.18
1022.22	227.59
1022.51	226.27
1022.79	227.65
1023.08	227.38
1023.36	229.15
1023.65	227.16
>>>>>End Processed Spectral Data<<<<<
