SpectraSuite Data File
++++++++++++++++++++++++++++++++++++
Date: Fri Feb 01 15:51:40 EST 2013
User: group
Dark Spectrum Present: No
Reference Spectrum Present: No
Number of Sampled Component Spectra: 1
Spectrometers: USB2E7196
Integration Time (usec): 35000 (USB2E7196)
Spectra Averaged: 100 (USB2E7196)
Boxcar Smoothing: 10 (USB2E7196)
Correct for Electrical Dark: No (USB2E7196)
Strobe/Lamp Enabled: No (USB2E7196)
Correct for Detector Non-linearity: No (USB2E7196)
Correct for Stray Light: No (USB2E7196)
Number of Pixels in Processed Spectrum: 2048
>>>>>Begin Processed Spectral Data<<<<<
339.09	0.00
339.48	215.28
339.86	216.63
340.24	217.98
340.63	219.02
341.01	222.56
341.39	221.96
341.78	223.14
342.16	224.68
342.54	224.41
342.93	213.27
343.31	224.04
343.69	224.56
344.07	225.01
344.46	225.43
344.84	225.83
345.22	226.03
345.60	226.26
345.99	226.44
346.37	226.55
346.75	226.68
347.13	226.76
347.52	226.82
347.90	226.90
348.28	226.92
348.66	226.94
349.05	226.97
349.43	226.99
349.81	227.00
350.19	227.04
350.57	227.06
350.96	227.10
351.34	227.20
351.72	227.29
352.10	227.39
352.48	227.46
352.87	227.49
353.25	227.56
353.63	227.61
354.01	227.69
354.39	227.77
354.77	227.84
355.15	227.95
355.54	228.01
355.92	228.05
356.30	228.15
356.68	228.32
357.06	228.39
357.44	228.44
357.82	228.51
358.20	228.57
358.58	228.64
358.97	228.70
359.35	228.76
359.73	228.82
360.11	228.86
360.49	228.89
360.87	228.93
361.25	228.97
361.63	229.08
362.01	229.10
362.39	229.14
362.77	229.17
363.15	229.18
363.53	229.18
363.91	229.23
364.29	229.23
364.67	229.12
365.05	229.15
365.43	229.16
365.81	229.22
366.19	229.26
366.57	229.30
366.95	229.30
367.33	229.26
367.71	229.24
368.09	229.24
368.47	229.22
368.85	229.22
369.23	229.23
369.61	229.18
369.99	229.17
370.37	229.13
370.75	229.15
371.13	229.10
371.51	229.06
371.89	228.97
372.27	228.92
372.65	228.88
373.03	228.85
373.41	228.78
373.78	228.71
374.16	228.59
374.54	228.50
374.92	228.43
375.30	228.38
375.68	228.29
376.06	228.25
376.44	228.17
376.82	228.09
377.19	228.02
377.57	227.92
377.95	227.84
378.33	227.76
378.71	227.65
379.09	227.59
379.47	227.53
379.84	227.50
380.22	227.41
380.60	227.31
380.98	227.21
381.36	227.14
381.73	227.02
382.11	226.98
382.49	226.91
382.87	226.85
383.25	226.79
383.62	226.88
384.00	226.78
384.38	226.75
384.76	226.70
385.13	226.67
385.51	226.60
385.89	226.53
386.27	226.48
386.64	226.45
387.02	226.37
387.40	226.32
387.78	226.26
388.15	226.25
388.53	226.22
388.91	226.20
389.29	226.16
389.66	226.20
390.04	226.16
390.42	226.15
390.79	226.12
391.17	226.12
391.55	225.94
391.92	225.92
392.30	225.93
392.68	225.90
393.05	225.87
393.43	225.89
393.81	225.88
394.18	225.86
394.56	225.86
394.94	225.93
395.31	225.93
395.69	226.01
396.06	226.04
396.44	226.08
396.82	226.11
397.19	226.19
397.57	226.19
397.95	226.27
398.32	226.28
398.70	226.36
399.07	226.40
399.45	226.49
399.82	226.54
400.20	226.54
400.58	226.63
400.95	226.68
401.33	226.77
401.70	226.96
402.08	227.08
402.45	227.18
402.83	227.29
403.20	227.43
403.58	227.45
403.95	227.54
404.33	227.65
404.71	227.76
405.08	227.95
405.46	228.08
405.83	228.24
406.21	228.41
406.58	228.57
406.96	228.72
407.33	228.88
407.70	229.10
408.08	229.41
408.45	229.64
408.83	229.86
409.20	230.08
409.58	230.20
409.95	230.47
410.33	230.73
410.70	230.96
411.08	231.25
411.45	231.63
411.82	231.96
412.20	232.35
412.57	232.75
412.95	233.07
413.32	233.50
413.69	233.86
414.07	234.32
414.44	234.83
414.82	235.34
415.19	235.90
415.56	236.48
415.94	237.03
416.31	237.68
416.68	238.34
417.06	239.08
417.43	239.82
417.81	240.57
418.18	241.37
418.55	242.24
418.93	243.12
419.30	244.01
419.67	244.96
420.04	245.93
420.42	246.93
420.79	248.14
421.16	249.30
421.54	250.52
421.91	251.71
422.28	252.91
422.66	254.26
423.03	255.59
423.40	256.95
423.77	258.37
424.15	259.76
424.52	261.23
424.89	262.84
425.26	264.38
425.64	265.82
426.01	267.41
426.38	269.04
426.75	270.69
427.13	272.44
427.50	274.26
427.87	276.11
428.24	277.97
428.61	279.68
428.99	281.61
429.36	283.70
429.73	285.78
430.10	287.79
430.47	289.84
430.85	291.95
431.22	294.16
431.59	296.55
431.96	298.80
432.33	301.32
432.70	303.67
433.08	306.50
433.45	309.12
433.82	311.72
434.19	314.59
434.56	317.44
434.93	320.05
435.30	322.65
435.68	325.56
436.05	328.36
436.42	331.15
436.79	333.66
437.16	336.37
437.53	339.25
437.90	342.03
438.27	344.77
438.64	347.58
439.01	350.12
439.38	352.30
439.75	354.49
440.13	356.94
440.50	359.27
440.87	361.07
441.24	363.03
441.61	365.19
441.98	366.68
442.35	368.46
442.72	370.31
443.09	372.09
443.46	373.09
443.83	373.70
444.20	374.19
444.57	374.98
444.94	375.31
445.31	375.59
445.68	375.98
446.05	376.07
446.42	375.66
446.79	375.30
447.16	374.89
447.53	374.58
447.90	373.40
448.27	372.24
448.64	370.67
449.01	369.56
449.37	367.57
449.74	365.68
450.11	363.40
450.48	360.99
450.85	358.48
451.22	356.31
451.59	354.30
451.96	352.41
452.33	349.85
452.70	347.45
453.07	344.65
453.43	341.79
453.80	339.02
454.17	336.37
454.54	333.86
454.91	331.13
455.28	328.43
455.65	325.99
456.02	323.59
456.38	321.46
456.75	318.78
457.12	316.56
457.49	314.39
457.86	312.26
458.23	310.36
458.59	308.30
458.96	306.26
459.33	304.45
459.70	302.53
460.07	301.03
460.43	299.31
460.80	297.70
461.17	296.26
461.54	294.74
461.91	293.33
462.27	291.86
462.64	290.63
463.01	289.30
463.38	288.03
463.74	286.66
464.11	285.48
464.48	284.45
464.85	283.36
465.21	282.50
465.58	281.59
465.95	280.54
466.32	279.69
466.68	278.77
467.05	277.84
467.42	276.99
467.78	276.04
468.15	275.15
468.52	274.51
468.88	273.62
469.25	272.85
469.62	272.20
469.98	271.54
470.35	270.90
470.72	270.32
471.08	269.62
471.45	269.08
471.82	268.54
472.18	267.96
472.55	267.52
472.92	267.00
473.28	266.49
473.65	266.03
474.02	265.55
474.38	265.18
474.75	264.82
475.11	264.47
475.48	264.24
475.85	264.04
476.21	263.79
476.58	263.62
476.94	263.48
477.31	263.32
477.67	263.12
478.04	263.01
478.41	262.94
478.77	263.02
479.14	262.92
479.50	262.94
479.87	263.03
480.23	263.11
480.60	263.12
480.96	263.25
481.33	263.45
481.69	263.66
482.06	263.83
482.42	264.03
482.79	264.26
483.15	264.56
483.52	264.90
483.88	265.23
484.25	265.62
484.61	266.06
484.98	266.53
485.34	267.12
485.71	267.69
486.07	268.29
486.44	268.81
486.80	269.52
487.17	270.24
487.53	271.02
487.90	271.82
488.26	272.76
488.62	273.74
488.99	274.73
489.35	275.72
489.72	276.87
490.08	278.12
490.44	279.37
490.81	280.71
491.17	282.07
491.54	283.54
491.90	285.10
492.26	286.75
492.63	288.45
492.99	290.23
493.36	292.12
493.72	294.19
494.08	296.31
494.45	298.57
494.81	300.95
495.17	303.41
495.54	306.01
495.90	308.69
496.26	311.46
496.63	314.41
496.99	317.57
497.35	320.81
497.72	324.19
498.08	327.74
498.44	331.41
498.80	335.33
499.17	339.38
499.53	343.59
499.89	347.98
500.26	352.49
500.62	357.15
500.98	362.16
501.34	367.20
501.71	372.54
502.07	378.02
502.43	383.66
502.79	389.46
503.16	395.53
503.52	401.85
503.88	408.30
504.24	414.95
504.60	421.86
504.97	429.04
505.33	436.35
505.69	444.05
506.05	451.83
506.41	459.72
506.78	467.89
507.14	476.26
507.50	484.91
507.86	493.96
508.22	503.16
508.59	512.34
508.95	521.94
509.31	531.80
509.67	541.93
510.03	552.16
510.39	562.70
510.75	573.53
511.12	584.44
511.48	595.80
511.84	607.25
512.20	618.75
512.56	630.68
512.92	642.90
513.28	655.26
513.64	667.81
514.00	680.54
514.37	693.50
514.73	706.61
515.09	719.67
515.45	732.95
515.81	746.56
516.17	760.56
516.53	774.72
516.89	788.83
517.25	803.01
517.61	817.40
517.97	831.80
518.33	846.27
518.69	861.03
519.05	875.91
519.41	891.06
519.77	906.66
520.13	922.10
520.49	937.40
520.85	952.80
521.21	968.42
521.57	984.67
521.93	1000.30
522.29	1016.69
522.65	1032.99
523.01	1049.14
523.37	1065.22
523.73	1081.43
524.09	1097.44
524.45	1113.77
524.81	1130.34
525.17	1147.26
525.53	1164.28
525.89	1181.18
526.25	1198.10
526.61	1214.53
526.97	1231.19
527.33	1247.63
527.68	1264.20
528.04	1280.68
528.40	1297.25
528.76	1314.32
529.12	1330.90
529.48	1347.80
529.84	1363.83
530.20	1380.35
530.56	1397.51
530.91	1414.74
531.27	1431.30
531.63	1447.76
531.99	1464.31
532.35	1480.32
532.71	1496.20
533.07	1512.33
533.42	1528.11
533.78	1544.04
534.14	1560.30
534.50	1575.77
534.86	1591.58
535.21	1606.84
535.57	1622.83
535.93	1638.33
536.29	1653.07
536.65	1668.05
537.00	1682.93
537.36	1698.09
537.72	1712.61
538.08	1726.75
538.44	1740.56
538.79	1754.48
539.15	1768.18
539.51	1781.89
539.87	1796.10
540.22	1809.82
540.58	1823.62
540.94	1836.82
541.29	1849.71
541.65	1862.43
542.01	1875.56
542.37	1887.88
542.72	1900.24
543.08	1911.81
543.44	1924.11
543.79	1935.36
544.15	1946.31
544.51	1957.71
544.87	1968.82
545.22	1979.67
545.58	1990.06
545.94	1999.87
546.29	2009.85
546.65	2019.84
547.01	2029.09
547.36	2037.89
547.72	2046.41
548.07	2054.19
548.43	2062.49
548.79	2070.53
549.14	2077.93
549.50	2085.39
549.86	2093.03
550.21	2100.26
550.57	2107.55
550.92	2114.13
551.28	2121.11
551.64	2128.24
551.99	2134.79
552.35	2140.96
552.70	2147.11
553.06	2153.08
553.41	2159.49
553.77	2165.49
554.13	2171.38
554.48	2177.45
554.84	2182.77
555.19	2187.89
555.55	2193.01
555.90	2197.44
556.26	2202.35
556.61	2207.09
556.97	2211.21
557.32	2215.40
557.68	2219.56
558.03	2223.97
558.39	2227.76
558.74	2232.49
559.10	2236.28
559.45	2239.99
559.81	2244.31
560.16	2248.08
560.52	2251.25
560.87	2254.69
561.23	2257.25
561.58	2260.19
561.94	2262.72
562.29	2265.16
562.64	2267.92
563.00	2270.54
563.35	2273.99
563.71	2277.06
564.06	2280.34
564.42	2283.07
564.77	2285.46
565.12	2287.64
565.48	2289.35
565.83	2291.11
566.19	2292.42
566.54	2293.33
566.89	2294.44
567.25	2294.91
567.60	2296.24
567.96	2297.99
568.31	2298.71
568.66	2299.97
569.02	2300.50
569.37	2300.86
569.72	2301.69
570.08	2301.82
570.43	2301.85
570.78	2301.41
571.14	2299.86
571.49	2298.51
571.84	2298.24
572.20	2297.04
572.55	2296.07
572.90	2294.64
573.26	2293.23
573.61	2291.48
573.96	2289.69
574.31	2286.83
574.67	2283.89
575.02	2280.29
575.37	2276.87
575.72	2273.09
576.08	2269.63
576.43	2266.32
576.78	2262.49
577.13	2259.35
577.49	2256.24
577.84	2252.71
578.19	2249.00
578.54	2245.35
578.90	2241.01
579.25	2235.54
579.60	2230.65
579.95	2225.65
580.30	2220.57
580.66	2215.41
581.01	2210.51
581.36	2205.61
581.71	2201.31
582.06	2196.81
582.42	2192.21
582.77	2186.93
583.12	2182.35
583.47	2177.74
583.82	2172.81
584.17	2167.75
584.53	2162.18
584.88	2156.52
585.23	2150.82
585.58	2145.26
585.93	2139.81
586.28	2135.16
586.63	2130.10
586.98	2125.13
587.34	2120.42
587.69	2115.56
588.04	2110.23
588.39	2104.45
588.74	2098.05
589.09	2091.92
589.44	2085.06
589.79	2079.27
590.14	2073.65
590.49	2067.02
590.84	2060.55
591.19	2054.52
591.54	2048.11
591.89	2040.80
592.25	2034.01
592.60	2026.85
592.95	2019.12
593.30	2011.75
593.65	2004.25
594.00	1997.19
594.35	1989.96
594.70	1982.04
595.05	1974.79
595.40	1967.53
595.75	1960.04
596.10	1953.77
596.45	1946.94
596.80	1940.77
597.15	1934.05
597.50	1926.98
597.85	1920.71
598.19	1913.95
598.54	1906.66
598.89	1899.92
599.24	1894.06
599.59	1887.20
599.94	1880.98
600.29	1874.82
600.64	1868.39
600.99	1860.81
601.34	1854.08
601.69	1847.12
602.04	1840.07
602.39	1832.84
602.74	1826.09
603.08	1819.46
603.43	1812.72
603.78	1805.54
604.13	1798.32
604.48	1790.97
604.83	1784.07
605.18	1776.95
605.53	1769.12
605.87	1761.22
606.22	1754.03
606.57	1745.98
606.92	1738.89
607.27	1731.61
607.62	1724.64
607.96	1717.20
608.31	1710.58
608.66	1702.91
609.01	1695.25
609.36	1687.72
609.70	1679.58
610.05	1671.47
610.40	1663.71
610.75	1655.41
611.10	1647.68
611.44	1639.38
611.79	1631.43
612.14	1622.76
612.49	1613.76
612.83	1605.30
613.18	1597.16
613.53	1589.06
613.88	1580.55
614.22	1572.29
614.57	1563.78
614.92	1555.65
615.27	1548.04
615.61	1539.76
615.96	1531.73
616.31	1524.22
616.65	1516.80
617.00	1509.28
617.35	1501.66
617.70	1493.36
618.04	1484.87
618.39	1476.66
618.74	1468.94
619.08	1460.55
619.43	1452.97
619.78	1446.04
620.12	1438.84
620.47	1431.26
620.82	1423.08
621.16	1415.69
621.51	1408.01
621.85	1400.33
622.20	1391.90
622.55	1383.62
622.89	1375.78
623.24	1368.18
623.59	1360.78
623.93	1353.33
624.28	1346.01
624.62	1338.46
624.97	1331.30
625.32	1324.47
625.66	1317.45
626.01	1310.20
626.35	1302.85
626.70	1295.15
627.04	1287.38
627.39	1279.62
627.73	1272.32
628.08	1265.42
628.43	1258.09
628.77	1250.72
629.12	1243.17
629.46	1235.96
629.81	1228.60
630.15	1221.35
630.50	1213.91
630.84	1205.72
631.19	1197.77
631.53	1190.37
631.88	1182.76
632.22	1175.13
632.57	1167.88
632.91	1160.30
633.26	1152.91
633.60	1145.63
633.95	1138.54
634.29	1131.42
634.64	1124.75
634.98	1117.29
635.32	1110.18
635.67	1103.57
636.01	1096.87
636.36	1090.04
636.70	1083.56
637.05	1076.97
637.39	1070.50
637.73	1063.97
638.08	1057.99
638.42	1052.02
638.77	1045.63
639.11	1039.09
639.45	1032.72
639.80	1026.07
640.14	1019.70
640.49	1013.23
640.83	1006.82
641.17	1000.52
641.52	994.24
641.86	987.78
642.20	982.04
642.55	975.74
642.89	969.22
643.23	962.69
643.58	956.94
643.92	950.66
644.26	944.48
644.61	938.40
644.95	932.38
645.29	925.76
645.64	919.08
645.98	912.65
646.32	906.83
646.66	900.75
647.01	894.93
647.35	889.25
647.69	883.40
648.04	877.90
648.38	872.10
648.72	866.09
649.06	860.01
649.41	854.14
649.75	848.12
650.09	842.19
650.43	836.43
650.78	830.22
651.12	824.37
651.46	818.73
651.80	813.03
652.14	807.63
652.49	802.39
652.83	797.18
653.17	791.50
653.51	785.76
653.85	780.40
654.20	774.73
654.54	768.68
654.88	763.00
655.22	757.09
655.56	751.51
655.90	746.03
656.25	740.78
656.59	735.41
656.93	730.31
657.27	725.23
657.61	719.77
657.95	714.73
658.29	709.66
658.64	704.41
658.98	699.12
659.32	693.65
659.66	688.35
660.00	682.97
660.34	678.02
660.68	673.11
661.02	668.08
661.36	663.38
661.70	658.90
662.05	654.53
662.39	650.16
662.73	645.62
663.07	641.25
663.41	636.80
663.75	632.19
664.09	627.67
664.43	623.25
664.77	619.26
665.11	615.01
665.45	610.88
665.79	606.76
666.13	602.58
666.47	598.50
666.81	594.36
667.15	590.30
667.49	586.39
667.83	582.58
668.17	578.61
668.51	574.50
668.85	570.47
669.19	566.61
669.53	562.78
669.87	558.90
670.21	555.24
670.55	551.58
670.89	548.20
671.23	544.72
671.57	541.15
671.91	537.51
672.25	534.02
672.58	530.46
672.92	527.02
673.26	523.87
673.60	520.68
673.94	517.50
674.28	514.57
674.62	511.63
674.96	508.53
675.30	505.60
675.64	502.66
675.97	499.91
676.31	497.06
676.65	494.15
676.99	491.44
677.33	488.54
677.67	485.74
678.01	482.67
678.34	479.70
678.68	476.84
679.02	474.05
679.36	471.26
679.70	468.52
680.04	465.83
680.37	462.91
680.71	460.15
681.05	457.58
681.39	454.87
681.73	452.25
682.06	449.68
682.40	447.17
682.74	444.69
683.08	442.11
683.42	439.51
683.75	436.99
684.09	434.45
684.43	431.97
684.77	429.52
685.10	427.27
685.44	424.98
685.78	422.71
686.12	420.40
686.45	418.11
686.79	415.83
687.13	413.63
687.46	411.50
687.80	409.34
688.14	407.11
688.48	405.03
688.81	402.76
689.15	400.61
689.49	398.48
689.82	396.38
690.16	394.27
690.50	392.33
690.83	390.42
691.17	388.46
691.51	386.58
691.84	384.69
692.18	382.74
692.52	380.77
692.85	378.85
693.19	377.00
693.52	375.22
693.86	373.44
694.20	371.64
694.53	369.85
694.87	368.00
695.21	366.22
695.54	364.45
695.88	362.73
696.21	361.00
696.55	359.32
696.88	357.66
697.22	356.02
697.56	354.38
697.89	352.67
698.23	351.04
698.56	349.49
698.90	347.91
699.23	346.25
699.57	344.70
699.90	343.16
700.24	341.62
700.58	340.03
700.91	338.50
701.25	337.07
701.58	335.68
701.92	334.33
702.25	332.95
702.59	331.51
702.92	330.23
703.26	328.93
703.59	327.63
703.93	326.46
704.26	325.21
704.60	323.92
704.93	322.70
705.26	321.44
705.60	320.23
705.93	319.07
706.27	318.00
706.60	316.92
706.94	315.84
707.27	314.74
707.61	313.72
707.94	312.69
708.27	311.62
708.61	310.55
708.94	309.54
709.28	308.55
709.61	307.63
709.94	306.63
710.28	305.61
710.61	304.67
710.95	303.58
711.28	302.68
711.61	301.72
711.95	300.80
712.28	299.85
712.61	298.89
712.95	297.96
713.28	297.12
713.61	296.25
713.95	295.37
714.28	294.57
714.61	293.73
714.95	292.92
715.28	292.07
715.61	291.20
715.95	290.32
716.28	289.49
716.61	288.64
716.95	287.90
717.28	287.23
717.61	286.46
717.94	285.74
718.28	284.92
718.61	284.21
718.94	283.52
719.27	282.86
719.61	282.23
719.94	281.58
720.27	280.85
720.60	280.17
720.94	279.53
721.27	278.91
721.60	278.33
721.93	277.71
722.27	277.14
722.60	276.63
722.93	276.07
723.26	275.51
723.59	274.97
723.93	274.37
724.26	273.77
724.59	273.19
724.92	272.66
725.25	272.17
725.59	271.66
725.92	271.15
726.25	270.66
726.58	270.14
726.91	269.65
727.24	269.20
727.57	268.73
727.91	268.22
728.24	267.73
728.57	267.22
728.90	266.79
729.23	266.31
729.56	265.86
729.89	265.39
730.22	264.93
730.55	264.45
730.89	264.01
731.22	263.55
731.55	263.13
731.88	262.70
732.21	262.24
732.54	261.80
732.87	261.40
733.20	261.00
733.53	260.59
733.86	260.19
734.19	259.78
734.52	259.39
734.85	259.09
735.18	258.70
735.51	258.38
735.84	257.98
736.17	257.65
736.50	257.24
736.83	257.03
737.16	256.68
737.49	256.39
737.82	256.01
738.15	255.70
738.48	255.33
738.81	254.99
739.14	254.71
739.47	254.44
739.80	254.10
740.13	253.77
740.46	253.46
740.79	253.15
741.12	252.85
741.45	252.55
741.78	252.21
742.11	251.92
742.44	251.54
742.77	251.26
743.10	250.92
743.43	250.63
743.75	250.24
744.08	250.08
744.41	249.78
744.74	249.57
745.07	249.29
745.40	249.11
745.73	248.88
746.06	248.60
746.39	248.28
746.71	248.02
747.04	247.75
747.37	247.48
747.70	247.23
748.03	246.97
748.36	246.73
748.68	246.47
749.01	246.22
749.34	246.01
749.67	245.77
750.00	245.59
750.33	245.43
750.65	245.23
750.98	244.90
751.31	244.69
751.64	244.46
751.97	244.30
752.29	244.02
752.62	243.76
752.95	243.51
753.28	243.31
753.60	243.10
753.93	242.90
754.26	242.70
754.59	242.46
754.91	242.24
755.24	242.02
755.57	241.85
755.90	241.65
756.22	241.47
756.55	241.25
756.88	240.99
757.20	240.76
757.53	240.56
757.86	240.39
758.19	240.23
758.51	240.04
758.84	239.83
759.17	239.71
759.49	239.56
759.82	239.43
760.15	239.29
760.47	239.15
760.80	239.00
761.13	238.86
761.45	238.71
761.78	238.63
762.11	238.49
762.43	238.32
762.76	238.20
763.08	238.09
763.41	237.99
763.74	237.89
764.06	237.74
764.39	237.59
764.71	237.43
765.04	237.28
765.37	237.18
765.69	237.06
766.02	236.90
766.34	236.79
766.67	236.68
767.00	236.56
767.32	236.47
767.65	236.41
767.97	236.33
768.30	236.22
768.62	236.07
768.95	235.97
769.27	235.87
769.60	235.74
769.92	235.62
770.25	235.48
770.57	235.34
770.90	235.22
771.22	235.09
771.55	234.99
771.87	234.89
772.20	234.80
772.52	234.80
772.85	234.85
773.17	234.73
773.50	234.61
773.82	234.53
774.15	234.44
774.47	234.31
774.80	234.20
775.12	234.11
775.45	234.06
775.77	233.99
776.09	233.90
776.42	233.83
776.74	233.77
777.07	233.71
777.39	233.65
777.72	233.59
778.04	233.55
778.36	233.53
778.69	233.46
779.01	233.38
779.33	233.20
779.66	232.97
779.98	232.89
780.31	232.83
780.63	232.80
780.95	232.74
781.28	232.69
781.60	232.61
781.92	232.59
782.25	232.49
782.57	232.44
782.89	232.40
783.22	232.34
783.54	232.25
783.86	232.21
784.19	232.16
784.51	232.14
784.83	232.08
785.16	231.99
785.48	231.95
785.80	231.86
786.12	231.80
786.45	231.79
786.77	231.79
787.09	231.75
787.42	231.67
787.74	231.61
788.06	231.55
788.38	231.51
788.71	231.45
789.03	231.40
789.35	231.34
789.67	231.29
789.99	231.27
790.32	231.25
790.64	231.19
790.96	231.22
791.28	231.15
791.61	231.10
791.93	231.07
792.25	231.02
792.57	231.05
792.89	231.00
793.21	230.97
793.54	230.90
793.86	230.84
794.18	230.79
794.50	230.73
794.82	230.68
795.14	230.67
795.47	230.62
795.79	230.61
796.11	230.55
796.43	230.51
796.75	230.44
797.07	230.45
797.39	230.40
797.71	230.27
798.04	230.22
798.36	230.18
798.68	230.16
799.00	230.14
799.32	230.05
799.64	230.05
799.96	230.01
800.28	229.99
800.60	229.98
800.92	229.97
801.24	229.93
801.56	229.94
801.89	229.88
802.21	229.85
802.53	229.79
802.85	229.80
803.17	229.80
803.49	229.72
803.81	229.65
804.13	229.61
804.45	229.61
804.77	229.60
805.09	229.58
805.41	229.54
805.73	229.43
806.05	229.40
806.37	229.37
806.69	229.32
807.01	229.28
807.33	229.24
807.65	229.18
807.97	229.20
808.28	229.14
808.60	229.12
808.92	229.08
809.24	229.11
809.56	229.07
809.88	229.00
810.20	229.01
810.52	229.00
810.84	228.95
811.16	228.91
811.48	228.90
811.80	228.89
812.12	228.88
812.43	228.92
812.75	228.93
813.07	228.91
813.39	228.89
813.71	228.87
814.03	228.85
814.35	228.83
814.67	228.81
814.98	228.77
815.30	228.74
815.62	228.75
815.94	228.67
816.26	228.69
816.58	228.69
816.89	228.69
817.21	228.68
817.53	228.69
817.85	228.66
818.17	228.65
818.48	228.60
818.80	228.62
819.12	228.57
819.44	228.53
819.76	228.48
820.07	228.49
820.39	228.46
820.71	228.48
821.03	228.49
821.34	228.45
821.66	228.43
821.98	228.42
822.30	228.38
822.61	228.42
822.93	228.38
823.25	228.36
823.57	228.36
823.88	228.37
824.20	228.35
824.52	228.40
824.83	228.38
825.15	228.37
825.47	228.33
825.79	228.34
826.10	228.36
826.42	228.35
826.74	228.31
827.05	228.28
827.37	228.26
827.69	228.25
828.00	228.22
828.32	228.24
828.64	228.25
828.95	228.31
829.27	228.26
829.58	228.25
829.90	228.24
830.22	228.23
830.53	228.13
830.85	228.12
831.17	228.08
831.48	228.05
831.80	228.04
832.11	228.02
832.43	227.99
832.75	227.95
833.06	228.00
833.38	227.98
833.69	227.98
834.01	227.97
834.32	227.96
834.64	227.95
834.96	227.96
835.27	227.92
835.59	227.85
835.90	227.83
836.22	227.80
836.53	227.79
836.85	227.75
837.16	227.86
837.48	227.84
837.79	227.85
838.11	227.89
838.42	227.89
838.74	227.92
839.05	227.92
839.37	227.90
839.68	227.83
840.00	227.80
840.31	227.81
840.63	227.77
840.94	227.75
841.26	227.75
841.57	227.72
841.88	227.72
842.20	227.73
842.51	227.71
842.83	227.72
843.14	227.80
843.46	227.80
843.77	227.72
844.08	227.74
844.40	227.72
844.71	227.68
845.03	227.67
845.34	227.63
845.65	227.62
845.97	227.61
846.28	227.62
846.60	227.64
846.91	227.61
847.22	227.62
847.54	227.64
847.85	227.62
848.16	227.62
848.48	227.63
848.79	227.65
849.10	227.67
849.42	227.65
849.73	227.56
850.04	227.51
850.36	227.50
850.67	227.49
850.98	227.49
851.30	227.48
851.61	227.48
851.92	227.51
852.23	227.52
852.55	227.51
852.86	227.52
853.17	227.51
853.49	227.54
853.80	227.54
854.11	227.52
854.42	227.55
854.74	227.52
855.05	227.52
855.36	227.45
855.67	227.47
855.99	227.46
856.30	227.57
856.61	227.58
856.92	227.58
857.23	227.55
857.55	227.47
857.86	227.47
858.17	227.46
858.48	227.42
858.79	227.38
859.11	227.43
859.42	227.40
859.73	227.40
860.04	227.38
860.35	227.36
860.66	227.31
860.98	227.30
861.29	227.27
861.60	227.23
861.91	227.25
862.22	227.21
862.53	227.22
862.84	227.11
863.16	227.14
863.47	227.13
863.78	227.14
864.09	227.19
864.40	227.20
864.71	227.21
865.02	227.24
865.33	227.24
865.64	227.19
865.95	227.21
866.27	227.30
866.58	227.27
866.89	227.28
867.20	227.31
867.51	227.29
867.82	227.33
868.13	227.35
868.44	227.35
868.75	227.36
869.06	227.37
869.37	227.38
869.68	227.35
869.99	227.39
870.30	227.42
870.61	227.43
870.92	227.40
871.23	227.39
871.54	227.41
871.85	227.42
872.16	227.41
872.47	227.43
872.78	227.35
873.09	227.41
873.40	227.39
873.71	227.38
874.02	227.37
874.33	227.34
874.64	227.29
874.95	227.30
875.26	227.30
875.56	227.30
875.87	227.27
876.18	227.28
876.49	227.35
876.80	227.30
877.11	227.28
877.42	227.31
877.73	227.28
878.04	227.22
878.35	227.18
878.66	227.20
878.96	227.14
879.27	227.14
879.58	227.11
879.89	227.09
880.20	227.10
880.51	227.09
880.82	227.12
881.12	227.14
881.43	227.12
881.74	227.07
882.05	227.06
882.36	227.07
882.67	227.07
882.97	226.98
883.28	227.00
883.59	227.00
883.90	227.00
884.21	227.04
884.51	227.06
884.82	227.07
885.13	227.07
885.44	227.10
885.74	227.11
886.05	227.05
886.36	227.05
886.67	227.01
886.98	227.07
887.28	227.08
887.59	227.07
887.90	227.06
888.20	227.05
888.51	227.07
888.82	227.06
889.13	227.07
889.43	227.13
889.74	227.11
890.05	227.08
890.35	227.05
890.66	227.01
890.97	227.01
891.28	226.99
891.58	226.98
891.89	226.96
892.20	226.93
892.50	226.94
892.81	226.94
893.12	226.97
893.42	226.91
893.73	226.89
894.04	226.91
894.34	226.95
894.65	226.95
894.95	226.92
895.26	226.88
895.57	226.90
895.87	226.81
896.18	226.81
896.48	226.80
896.79	226.80
897.10	226.82
897.40	226.80
897.71	226.79
898.01	226.78
898.32	226.80
898.63	226.79
898.93	226.82
899.24	226.84
899.54	226.82
899.85	226.81
900.15	226.84
900.46	226.84
900.76	226.80
901.07	226.83
901.38	226.80
901.68	226.83
901.99	226.79
902.29	226.79
902.60	226.77
902.90	226.80
903.21	226.82
903.51	226.80
903.82	226.83
904.12	226.84
904.43	226.86
904.73	226.82
905.03	226.87
905.34	226.97
905.64	226.95
905.95	226.94
906.25	226.93
906.56	226.90
906.86	226.87
907.17	226.88
907.47	226.86
907.77	226.90
908.08	226.90
908.38	226.89
908.69	226.88
908.99	226.90
909.30	226.92
909.60	226.91
909.90	226.93
910.21	226.93
910.51	226.91
910.81	226.93
911.12	226.96
911.42	226.94
911.73	226.81
912.03	226.81
912.33	226.86
912.64	226.87
912.94	226.88
913.24	226.89
913.55	226.89
913.85	226.88
914.15	226.89
914.46	226.88
914.76	226.87
915.06	226.87
915.37	226.83
915.67	226.81
915.97	226.77
916.27	226.76
916.58	226.72
916.88	226.78
917.18	226.78
917.49	226.83
917.79	226.85
918.09	226.90
918.39	226.93
918.70	226.94
919.00	226.95
919.30	227.00
919.60	226.98
919.91	226.98
920.21	226.99
920.51	226.96
920.81	226.98
921.12	227.03
921.42	227.07
921.72	227.14
922.02	227.12
922.32	227.16
922.63	227.17
922.93	227.22
923.23	227.16
923.53	227.15
923.83	227.08
924.13	227.05
924.44	227.01
924.74	226.98
925.04	227.00
925.34	227.02
925.64	226.98
925.94	226.98
926.24	227.02
926.55	227.02
926.85	227.04
927.15	227.03
927.45	227.02
927.75	227.01
928.05	226.99
928.35	227.00
928.65	227.00
928.95	227.02
929.26	226.99
929.56	227.04
929.86	227.07
930.16	227.07
930.46	227.06
930.76	227.06
931.06	227.05
931.36	227.01
931.66	226.97
931.96	226.96
932.26	226.96
932.56	226.94
932.86	226.95
933.16	226.96
933.46	226.93
933.76	226.91
934.06	226.94
934.36	226.96
934.66	226.96
934.96	226.94
935.26	226.94
935.56	226.94
935.86	226.91
936.16	226.89
936.46	226.86
936.76	226.86
937.06	226.85
937.36	226.86
937.66	226.85
937.96	226.84
938.26	226.83
938.56	226.81
938.86	226.80
939.16	226.81
939.46	226.82
939.76	226.85
940.06	226.87
940.35	226.83
940.65	226.79
940.95	226.78
941.25	226.78
941.55	226.78
941.85	226.77
942.15	226.80
942.45	226.79
942.75	226.82
943.04	226.81
943.34	226.84
943.64	226.84
943.94	226.85
944.24	226.87
944.54	226.86
944.84	226.90
945.13	226.91
945.43	226.89
945.73	226.87
946.03	226.86
946.33	226.90
946.62	226.88
946.92	226.86
947.22	226.90
947.52	226.90
947.82	226.92
948.11	226.92
948.41	226.90
948.71	226.90
949.01	226.90
949.31	226.92
949.60	226.91
949.90	226.94
950.20	226.92
950.50	226.95
950.79	226.95
951.09	226.95
951.39	226.92
951.69	226.89
951.98	226.95
952.28	226.95
952.58	226.93
952.87	226.92
953.17	226.99
953.47	226.99
953.76	226.99
954.06	226.98
954.36	226.95
954.66	226.96
954.95	226.96
955.25	226.97
955.55	226.99
955.84	226.98
956.14	226.97
956.44	226.97
956.73	226.93
957.03	226.94
957.32	226.95
957.62	226.97
957.92	227.01
958.21	226.98
958.51	227.08
958.81	227.07
959.10	227.08
959.40	227.05
959.69	227.03
959.99	227.03
960.29	227.02
960.58	227.04
960.88	227.08
961.17	227.06
961.47	227.07
961.76	227.01
962.06	227.04
962.36	226.99
962.65	226.99
962.95	227.00
963.24	226.99
963.54	226.97
963.83	226.98
964.13	226.97
964.42	226.96
964.72	226.86
965.01	226.86
965.31	226.84
965.60	226.84
965.90	226.90
966.19	226.88
966.49	226.87
966.78	226.89
967.08	226.84
967.37	226.86
967.67	226.83
967.96	226.85
968.26	226.81
968.55	226.89
968.85	226.85
969.14	226.88
969.43	226.89
969.73	226.88
970.02	226.85
970.32	226.84
970.61	226.79
970.91	226.77
971.20	226.75
971.49	226.77
971.79	226.77
972.08	226.70
972.38	226.67
972.67	226.65
972.96	226.64
973.26	226.62
973.55	226.61
973.85	226.63
974.14	226.65
974.43	226.71
974.73	226.66
975.02	226.66
975.31	226.68
975.61	226.68
975.90	226.68
976.19	226.69
976.49	226.69
976.78	226.73
977.07	226.73
977.37	226.74
977.66	226.75
977.95	226.70
978.24	226.71
978.54	226.76
978.83	226.77
979.12	226.74
979.42	226.74
979.71	226.73
980.00	226.69
980.29	226.67
980.59	226.63
980.88	226.64
981.17	226.62
981.46	226.62
981.76	226.61
982.05	226.66
982.34	226.62
982.63	226.63
982.93	226.62
983.22	226.66
983.51	226.65
983.80	226.64
984.09	226.67
984.39	226.68
984.68	226.66
984.97	226.67
985.26	226.69
985.55	226.69
985.85	226.72
986.14	226.74
986.43	226.75
986.72	226.73
987.01	226.72
987.30	226.74
987.59	226.71
987.89	226.69
988.18	226.65
988.47	226.68
988.76	226.66
989.05	226.65
989.34	226.65
989.63	226.68
989.92	226.68
990.22	226.69
990.51	226.68
990.80	226.66
991.09	226.67
991.38	226.70
991.67	226.73
991.96	226.71
992.25	226.70
992.54	226.71
992.83	226.72
993.12	226.69
993.41	226.71
993.70	226.76
993.99	226.80
994.28	226.81
994.58	226.83
994.87	226.82
995.16	226.82
995.45	226.80
995.74	226.77
996.03	226.78
996.32	226.80
996.61	226.80
996.90	226.83
997.19	226.82
997.48	226.79
997.77	226.76
998.06	226.75
998.34	226.78
998.63	226.76
998.92	226.78
999.21	226.82
999.50	226.85
999.79	226.82
1000.08	226.79
1000.37	226.80
1000.66	226.78
1000.95	226.78
1001.24	226.79
1001.53	226.79
1001.82	226.78
1002.11	226.77
1002.40	226.80
1002.68	226.82
1002.97	226.88
1003.26	226.85
1003.55	226.83
1003.84	226.89
1004.13	226.93
1004.42	226.91
1004.71	226.91
1004.99	226.87
1005.28	226.89
1005.57	226.85
1005.86	226.84
1006.15	226.84
1006.44	226.81
1006.72	226.83
1007.01	226.84
1007.30	226.85
1007.59	226.85
1007.88	226.87
1008.17	226.85
1008.45	226.81
1008.74	226.81
1009.03	226.78
1009.32	226.79
1009.60	226.83
1009.89	226.80
1010.18	226.76
1010.47	226.76
1010.76	226.72
1011.04	226.75
1011.33	226.73
1011.62	226.74
1011.91	226.76
1012.19	226.75
1012.48	226.75
1012.77	226.77
1013.05	226.82
1013.34	226.83
1013.63	226.79
1013.92	226.78
1014.20	226.78
1014.49	226.79
1014.78	226.78
1015.06	226.74
1015.35	226.73
1015.64	226.71
1015.92	226.69
1016.21	226.68
1016.50	226.70
1016.78	226.74
1017.07	226.74
1017.36	226.76
1017.64	226.73
1017.93	226.73
1018.22	226.76
1018.50	226.77
1018.79	226.75
1019.08	226.66
1019.36	226.67
1019.65	226.67
1019.93	226.72
1020.22	226.73
1020.51	226.74
1020.79	226.74
1021.08	227.07
1021.36	226.75
1021.65	226.61
1021.94	226.21
1022.22	227.21
1022.51	226.29
1022.79	227.30
1023.08	226.76
1023.36	227.52
1023.65	226.66
>>>>>End Processed Spectral Data<<<<<
