SpectraSuite Data File
++++++++++++++++++++++++++++++++++++
Date: Fri Feb 01 14:58:11 EST 2013
User: group
Dark Spectrum Present: No
Reference Spectrum Present: No
Number of Sampled Component Spectra: 1
Spectrometers: USB2E7196
Integration Time (usec): 35000 (USB2E7196)
Spectra Averaged: 100 (USB2E7196)
Boxcar Smoothing: 10 (USB2E7196)
Correct for Electrical Dark: No (USB2E7196)
Strobe/Lamp Enabled: No (USB2E7196)
Correct for Detector Non-linearity: No (USB2E7196)
Correct for Stray Light: No (USB2E7196)
Number of Pixels in Processed Spectrum: 2048
>>>>>Begin Processed Spectral Data<<<<<
339.09	0.00
339.48	215.57
339.86	217.15
340.24	218.23
340.63	219.79
341.01	222.70
341.39	222.59
341.78	223.65
342.16	225.10
342.54	225.51
342.93	213.88
343.31	224.70
343.69	225.22
344.07	225.67
344.46	226.10
344.84	226.50
345.22	226.71
345.60	226.93
345.99	227.11
346.37	227.24
346.75	227.33
347.13	227.40
347.52	227.47
347.90	227.52
348.28	227.53
348.66	227.55
349.05	227.55
349.43	227.56
349.81	227.59
350.19	227.65
350.57	227.69
350.96	227.76
351.34	227.82
351.72	227.91
352.10	228.01
352.48	228.04
352.87	228.08
353.25	228.14
353.63	228.23
354.01	228.27
354.39	228.35
354.77	228.44
355.15	228.52
355.54	228.55
355.92	228.57
356.30	228.64
356.68	228.77
357.06	228.81
357.44	228.86
357.82	228.93
358.20	229.04
358.58	229.08
358.97	229.11
359.35	229.18
359.73	229.25
360.11	229.26
360.49	229.29
360.87	229.31
361.25	229.35
361.63	229.40
362.01	229.44
362.39	229.44
362.77	229.48
363.15	229.47
363.53	229.51
363.91	229.55
364.29	229.56
364.67	229.48
365.05	229.51
365.43	229.51
365.81	229.50
366.19	229.53
366.57	229.57
366.95	229.54
367.33	229.51
367.71	229.47
368.09	229.47
368.47	229.49
368.85	229.45
369.23	229.45
369.61	229.38
369.99	229.37
370.37	229.30
370.75	229.28
371.13	229.22
371.51	229.13
371.89	229.09
372.27	229.03
372.65	228.98
373.03	228.92
373.41	228.87
373.78	228.80
374.16	228.68
374.54	228.54
374.92	228.50
375.30	228.42
375.68	228.34
376.06	228.29
376.44	228.21
376.82	228.16
377.19	228.08
377.57	228.03
377.95	227.89
378.33	227.84
378.71	227.70
379.09	227.67
379.47	227.62
379.84	227.53
380.22	227.46
380.60	227.37
380.98	227.28
381.36	227.20
381.73	227.11
382.11	227.00
382.49	226.97
382.87	226.87
383.25	226.83
383.62	226.88
384.00	226.79
384.38	226.73
384.76	226.68
385.13	226.68
385.51	226.61
385.89	226.57
386.27	226.53
386.64	226.48
387.02	226.40
387.40	226.36
387.78	226.32
388.15	226.28
388.53	226.25
388.91	226.19
389.29	226.19
389.66	226.17
390.04	226.18
390.42	226.13
390.79	226.15
391.17	226.14
391.55	226.02
391.92	226.01
392.30	226.03
392.68	226.03
393.05	226.01
393.43	226.06
393.81	226.13
394.18	226.13
394.56	226.19
394.94	226.26
395.31	226.27
395.69	226.36
396.06	226.40
396.44	226.48
396.82	226.55
397.19	226.62
397.57	226.69
397.95	226.77
398.32	226.81
398.70	226.91
399.07	226.98
399.45	227.07
399.82	227.18
400.20	227.25
400.58	227.33
400.95	227.39
401.33	227.49
401.70	227.63
402.08	227.74
402.45	227.82
402.83	227.94
403.20	228.05
403.58	228.13
403.95	228.30
404.33	228.44
404.71	228.59
405.08	228.79
405.46	228.95
405.83	229.09
406.21	229.28
406.58	229.42
406.96	229.58
407.33	229.77
407.70	229.95
408.08	230.21
408.45	230.43
408.83	230.66
409.20	230.89
409.58	231.07
409.95	231.34
410.33	231.61
410.70	231.84
411.08	232.16
411.45	232.50
411.82	232.78
412.20	233.15
412.57	233.55
412.95	233.84
413.32	234.25
413.69	234.68
414.07	235.12
414.44	235.57
414.82	236.06
415.19	236.62
415.56	237.14
415.94	237.69
416.31	238.34
416.68	238.95
417.06	239.66
417.43	240.35
417.81	241.12
418.18	241.88
418.55	242.75
418.93	243.64
419.30	244.50
419.67	245.45
420.04	246.40
420.42	247.40
420.79	248.55
421.16	249.70
421.54	250.86
421.91	252.10
422.28	253.37
422.66	254.69
423.03	256.01
423.40	257.38
423.77	258.81
424.15	260.24
424.52	261.79
424.89	263.41
425.26	264.97
425.64	266.38
426.01	268.02
426.38	269.65
426.75	271.34
427.13	273.06
427.50	274.89
427.87	276.73
428.24	278.57
428.61	280.34
428.99	282.29
429.36	284.36
429.73	286.42
430.10	288.41
430.47	290.49
430.85	292.58
431.22	294.82
431.59	297.17
431.96	299.39
432.33	301.83
432.70	304.23
433.08	307.02
433.45	309.70
433.82	312.33
434.19	315.23
434.56	318.02
434.93	320.73
435.30	323.31
435.68	326.21
436.05	329.08
436.42	331.86
436.79	334.39
437.16	337.11
437.53	339.95
437.90	342.80
438.27	345.56
438.64	348.44
439.01	351.05
439.38	353.33
439.75	355.51
440.13	358.00
440.50	360.26
440.87	362.10
441.24	364.06
441.61	366.22
441.98	367.72
442.35	369.54
442.72	371.35
443.09	373.23
443.46	374.19
443.83	374.81
444.20	375.34
444.57	376.15
444.94	376.47
445.31	376.80
445.68	377.17
446.05	377.20
446.42	376.80
446.79	376.34
447.16	375.87
447.53	375.54
447.90	374.42
448.27	373.29
448.64	371.74
449.01	370.61
449.37	368.61
449.74	366.69
450.11	364.42
450.48	361.98
450.85	359.45
451.22	357.34
451.59	355.29
451.96	353.34
452.33	350.75
452.70	348.34
453.07	345.49
453.43	342.55
453.80	339.80
454.17	337.13
454.54	334.62
454.91	331.89
455.28	329.28
455.65	326.75
456.02	324.31
456.38	322.14
456.75	319.44
457.12	317.20
457.49	315.01
457.86	312.82
458.23	310.94
458.59	308.86
458.96	306.76
459.33	304.87
459.70	303.00
460.07	301.49
460.43	299.79
460.80	298.22
461.17	296.77
461.54	295.27
461.91	293.80
462.27	292.35
462.64	291.09
463.01	289.70
463.38	288.40
463.74	287.03
464.11	285.87
464.48	284.89
464.85	283.76
465.21	282.86
465.58	281.93
465.95	280.85
466.32	279.92
466.68	279.02
467.05	278.12
467.42	277.24
467.78	276.28
468.15	275.41
468.52	274.72
468.88	273.88
469.25	273.12
469.62	272.50
469.98	271.81
470.35	271.19
470.72	270.56
471.08	269.88
471.45	269.33
471.82	268.78
472.18	268.17
472.55	267.71
472.92	267.20
473.28	266.70
473.65	266.22
474.02	265.80
474.38	265.42
474.75	265.12
475.11	264.74
475.48	264.49
475.85	264.24
476.21	263.99
476.58	263.79
476.94	263.63
477.31	263.43
477.67	263.24
478.04	263.11
478.41	263.04
478.77	263.11
479.14	262.99
479.50	262.98
479.87	263.03
480.23	263.12
480.60	263.18
480.96	263.33
481.33	263.55
481.69	263.74
482.06	263.93
482.42	264.13
482.79	264.40
483.15	264.70
483.52	265.08
483.88	265.41
484.25	265.79
484.61	266.22
484.98	266.68
485.34	267.26
485.71	267.82
486.07	268.42
486.44	268.93
486.80	269.63
487.17	270.34
487.53	271.16
487.90	272.01
488.26	272.88
488.62	273.82
488.99	274.74
489.35	275.73
489.72	276.83
490.08	277.99
490.44	279.23
490.81	280.55
491.17	281.88
491.54	283.39
491.90	284.88
492.26	286.47
492.63	288.17
492.99	289.89
493.36	291.77
493.72	293.78
494.08	295.87
494.45	298.09
494.81	300.46
495.17	302.84
495.54	305.36
495.90	308.05
496.26	310.85
496.63	313.80
496.99	316.87
497.35	320.09
497.72	323.46
498.08	326.93
498.44	330.58
498.80	334.45
499.17	338.44
499.53	342.59
499.89	346.94
500.26	351.41
500.62	356.07
500.98	361.00
501.34	366.08
501.71	371.45
502.07	376.89
502.43	382.46
502.79	388.26
503.16	394.27
503.52	400.53
503.88	406.87
504.24	413.48
504.60	420.38
504.97	427.51
505.33	434.84
505.69	442.53
506.05	450.30
506.41	458.17
506.78	466.28
507.14	474.71
507.50	483.41
507.86	492.40
508.22	501.60
508.59	510.77
508.95	520.32
509.31	530.09
509.67	540.17
510.03	550.45
510.39	561.00
510.75	571.78
511.12	582.66
511.48	593.94
511.84	605.39
512.20	616.93
512.56	628.90
512.92	641.07
513.28	653.34
513.64	665.82
514.00	678.57
514.37	691.51
514.73	704.58
515.09	717.55
515.45	730.88
515.81	744.48
516.17	758.56
516.53	772.71
516.89	786.84
517.25	801.11
517.61	815.52
517.97	829.95
518.33	844.41
518.69	859.28
519.05	874.26
519.41	889.52
519.77	905.07
520.13	920.50
520.49	935.91
520.85	951.45
521.21	967.20
521.57	983.47
521.93	999.33
522.29	1015.71
522.65	1032.11
523.01	1048.33
523.37	1064.50
523.73	1080.76
524.09	1096.79
524.45	1113.22
524.81	1129.77
525.17	1146.80
525.53	1163.82
525.89	1180.76
526.25	1197.60
526.61	1214.06
526.97	1230.84
527.33	1247.33
527.68	1264.03
528.04	1280.61
528.40	1297.41
528.76	1314.58
529.12	1331.19
529.48	1348.00
529.84	1364.20
530.20	1381.00
530.56	1398.22
530.91	1415.60
531.27	1432.43
531.63	1449.03
531.99	1465.73
532.35	1481.93
532.71	1497.70
533.07	1514.04
533.42	1530.06
533.78	1546.16
534.14	1562.54
534.50	1577.96
534.86	1593.98
535.21	1609.17
535.57	1625.25
535.93	1640.71
536.29	1655.50
536.65	1670.82
537.00	1685.89
537.36	1701.27
537.72	1715.96
538.08	1730.39
538.44	1744.34
538.79	1758.16
539.15	1772.17
539.51	1785.94
539.87	1800.41
540.22	1814.27
540.58	1828.10
540.94	1841.63
541.29	1854.64
541.65	1867.48
542.01	1880.85
542.37	1893.28
542.72	1905.85
543.08	1917.56
543.44	1930.08
543.79	1941.40
544.15	1952.20
544.51	1963.81
544.87	1974.82
545.22	1985.55
545.58	1995.72
545.94	2005.58
546.29	2015.56
546.65	2025.22
547.01	2034.60
547.36	2043.26
547.72	2051.71
548.07	2059.57
548.43	2067.71
548.79	2075.77
549.14	2083.21
549.50	2090.58
549.86	2098.27
550.21	2105.54
550.57	2112.77
550.92	2119.21
551.28	2126.30
551.64	2133.53
551.99	2139.96
552.35	2146.09
552.70	2152.17
553.06	2158.14
553.41	2164.36
553.77	2170.49
554.13	2176.67
554.48	2182.63
554.84	2188.07
555.19	2193.44
555.55	2198.50
555.90	2202.85
556.26	2207.60
556.61	2212.45
556.97	2216.62
557.32	2220.61
557.68	2224.92
558.03	2229.21
558.39	2233.07
558.74	2237.58
559.10	2241.30
559.45	2245.00
559.81	2249.32
560.16	2253.08
560.52	2256.36
560.87	2259.74
561.23	2262.31
561.58	2265.14
561.94	2267.64
562.29	2269.96
562.64	2272.55
563.00	2275.21
563.35	2278.69
563.71	2281.86
564.06	2284.87
564.42	2287.55
564.77	2290.09
565.12	2291.91
565.48	2293.65
565.83	2295.21
566.19	2296.56
566.54	2297.54
566.89	2298.42
567.25	2298.71
567.60	2299.84
567.96	2301.29
568.31	2302.02
568.66	2302.84
569.02	2303.27
569.37	2303.39
569.72	2304.02
570.08	2304.03
570.43	2303.81
570.78	2302.96
571.14	2301.28
571.49	2299.76
571.84	2299.33
572.20	2297.95
572.55	2296.98
572.90	2295.23
573.26	2293.64
573.61	2291.55
573.96	2289.46
574.31	2286.29
574.67	2283.16
575.02	2279.45
575.37	2275.90
575.72	2271.96
576.08	2268.58
576.43	2265.15
576.78	2261.44
577.13	2258.20
577.49	2254.97
577.84	2251.37
578.19	2247.62
578.54	2243.75
578.90	2239.40
579.25	2233.71
579.60	2228.54
579.95	2223.28
580.30	2218.17
580.66	2212.91
581.01	2207.94
581.36	2202.85
581.71	2198.60
582.06	2194.02
582.42	2189.43
582.77	2184.01
583.12	2179.22
583.47	2174.08
583.82	2168.73
584.17	2163.36
584.53	2157.71
584.88	2151.83
585.23	2145.83
585.58	2140.22
585.93	2134.69
586.28	2129.82
586.63	2124.64
586.98	2119.48
587.34	2114.73
587.69	2109.76
588.04	2104.31
588.39	2098.43
588.74	2091.98
589.09	2085.73
589.44	2078.80
589.79	2072.66
590.14	2066.96
590.49	2060.27
590.84	2053.95
591.19	2047.84
591.54	2041.15
591.89	2033.51
592.25	2026.60
592.60	2019.40
592.95	2011.63
593.30	2004.15
593.65	1996.40
594.00	1989.20
594.35	1981.82
594.70	1973.66
595.05	1966.31
595.40	1958.94
595.75	1951.55
596.10	1945.06
596.45	1938.24
596.80	1931.91
597.15	1925.15
597.50	1918.05
597.85	1911.62
598.19	1904.87
598.54	1897.79
598.89	1891.17
599.24	1885.34
599.59	1878.65
599.94	1872.45
600.29	1866.13
600.64	1859.57
600.99	1852.04
601.34	1845.05
601.69	1838.07
602.04	1831.10
602.39	1823.67
602.74	1816.95
603.08	1810.00
603.43	1803.33
603.78	1796.02
604.13	1788.89
604.48	1781.49
604.83	1774.54
605.18	1767.41
605.53	1759.40
605.87	1751.33
606.22	1744.11
606.57	1736.14
606.92	1728.77
607.27	1721.38
607.62	1714.48
607.96	1707.15
608.31	1700.63
608.66	1692.94
609.01	1685.42
609.36	1677.91
609.70	1669.90
610.05	1661.82
610.40	1654.30
610.75	1646.04
611.10	1638.34
611.44	1630.04
611.79	1622.25
612.14	1613.58
612.49	1604.56
612.83	1596.41
613.18	1588.46
613.53	1580.38
613.88	1571.83
614.22	1563.58
614.57	1555.16
614.92	1547.11
615.27	1539.49
615.61	1531.18
615.96	1523.33
616.31	1515.71
616.65	1508.32
617.00	1500.89
617.35	1493.23
617.70	1484.65
618.04	1476.10
618.39	1467.91
618.74	1460.35
619.08	1452.09
619.43	1444.67
619.78	1437.77
620.12	1430.40
620.47	1422.82
620.82	1414.68
621.16	1407.36
621.51	1399.87
621.85	1392.28
622.20	1383.80
622.55	1375.61
622.89	1367.87
623.24	1360.34
623.59	1353.00
623.93	1345.54
624.28	1338.30
624.62	1330.85
624.97	1323.92
625.32	1317.35
625.66	1310.39
626.01	1303.13
626.35	1295.62
626.70	1287.87
627.04	1280.12
627.39	1272.54
627.73	1265.18
628.08	1258.32
628.43	1251.03
628.77	1243.65
629.12	1236.12
629.46	1228.93
629.81	1221.60
630.15	1214.35
630.50	1206.97
630.84	1198.82
631.19	1190.97
631.53	1183.56
631.88	1176.07
632.22	1168.46
632.57	1161.14
632.91	1153.63
633.26	1146.26
633.60	1139.00
633.95	1132.07
634.29	1125.21
634.64	1118.52
634.98	1111.14
635.32	1104.02
635.67	1097.48
636.01	1090.92
636.36	1084.16
636.70	1077.84
637.05	1071.27
637.39	1064.92
637.73	1058.54
638.08	1052.73
638.42	1046.76
638.77	1040.30
639.11	1033.61
639.45	1027.32
639.80	1020.65
640.14	1014.29
640.49	1007.79
640.83	1001.52
641.17	995.23
641.52	988.92
641.86	982.61
642.20	976.88
642.55	970.70
642.89	964.25
643.23	957.84
643.58	952.19
643.92	945.94
644.26	939.87
644.61	933.86
644.95	927.83
645.29	921.29
645.64	914.62
645.98	908.34
646.32	902.67
646.66	896.74
647.01	891.00
647.35	885.30
647.69	879.52
648.04	874.06
648.38	868.26
648.72	862.21
649.06	856.15
649.41	850.28
649.75	844.21
650.09	838.31
650.43	832.47
650.78	826.25
651.12	820.42
651.46	814.73
651.80	808.99
652.14	803.63
652.49	798.24
652.83	793.09
653.17	787.46
653.51	781.79
653.85	776.34
654.20	770.72
654.54	764.76
654.88	759.10
655.22	753.20
655.56	747.54
655.90	742.27
656.25	736.98
656.59	731.67
656.93	726.63
657.27	721.48
657.61	716.11
657.95	711.06
658.29	705.91
658.64	700.67
658.98	695.38
659.32	689.93
659.66	684.82
660.00	679.50
660.34	674.58
660.68	669.63
661.02	664.64
661.36	659.99
661.70	655.57
662.05	651.21
662.39	646.97
662.73	642.60
663.07	638.11
663.41	633.75
663.75	629.26
664.09	624.73
664.43	620.48
664.77	616.34
665.11	612.12
665.45	608.14
665.79	604.13
666.13	600.09
666.47	596.09
666.81	591.95
667.15	587.90
667.49	584.04
667.83	580.35
668.17	576.41
668.51	572.33
668.85	568.30
669.19	564.52
669.53	560.66
669.87	556.79
670.21	553.12
670.55	549.48
670.89	546.13
671.23	542.77
671.57	539.26
671.91	535.73
672.25	532.29
672.58	528.72
672.92	525.38
673.26	522.20
673.60	519.12
673.94	516.01
674.28	513.13
674.62	510.21
674.96	507.05
675.30	504.19
675.64	501.32
675.97	498.59
676.31	495.77
676.65	492.79
676.99	490.09
677.33	487.25
677.67	484.49
678.01	481.47
678.34	478.46
678.68	475.61
679.02	472.85
679.36	470.08
679.70	467.36
680.04	464.58
680.37	461.73
680.71	458.92
681.05	456.32
681.39	453.65
681.73	450.98
682.06	448.51
682.40	445.97
682.74	443.51
683.08	440.99
683.42	438.43
683.75	436.02
684.09	433.51
684.43	431.11
684.77	428.61
685.10	426.21
685.44	423.97
685.78	421.68
686.12	419.50
686.45	417.26
686.79	414.97
687.13	412.81
687.46	410.70
687.80	408.55
688.14	406.38
688.48	404.32
688.81	402.09
689.15	399.91
689.49	397.82
689.82	395.69
690.16	393.61
690.50	391.63
690.83	389.69
691.17	387.70
691.51	385.82
691.84	384.04
692.18	382.19
692.52	380.21
692.85	378.29
693.19	376.38
693.52	374.58
693.86	372.83
694.20	371.05
694.53	369.22
694.87	367.39
695.21	365.64
695.54	363.83
695.88	362.15
696.21	360.47
696.55	358.78
696.88	357.10
697.22	355.44
697.56	353.85
697.89	352.20
698.23	350.64
698.56	349.04
698.90	347.40
699.23	345.75
699.57	344.18
699.90	342.64
700.24	341.09
700.58	339.53
700.91	338.05
701.25	336.62
701.58	335.30
701.92	333.94
702.25	332.55
702.59	331.19
702.92	329.85
703.26	328.54
703.59	327.26
703.93	326.11
704.26	324.95
704.60	323.63
704.93	322.36
705.26	321.13
705.60	319.95
705.93	318.81
706.27	317.80
706.60	316.81
706.94	315.78
707.27	314.66
707.61	313.62
707.94	312.59
708.27	311.47
708.61	310.34
708.94	309.35
709.28	308.35
709.61	307.42
709.94	306.48
710.28	305.50
710.61	304.56
710.95	303.49
711.28	302.56
711.61	301.63
711.95	300.76
712.28	299.82
712.61	298.87
712.95	297.96
713.28	297.10
713.61	296.19
713.95	295.27
714.28	294.45
714.61	293.59
714.95	292.72
715.28	291.90
715.61	291.08
715.95	290.22
716.28	289.38
716.61	288.55
716.95	287.77
717.28	287.07
717.61	286.28
717.94	285.54
718.28	284.72
718.61	284.06
718.94	283.35
719.27	282.72
719.61	282.10
719.94	281.44
720.27	280.76
720.60	280.09
720.94	279.49
721.27	278.91
721.60	278.35
721.93	277.78
722.27	277.22
722.60	276.66
722.93	276.11
723.26	275.59
723.59	275.01
723.93	274.44
724.26	273.86
724.59	273.34
724.92	272.83
725.25	272.35
725.59	271.79
725.92	271.27
726.25	270.76
726.58	270.23
726.91	269.73
727.24	269.21
727.57	268.75
727.91	268.22
728.24	267.78
728.57	267.29
728.90	266.85
729.23	266.39
729.56	265.99
729.89	265.50
730.22	264.99
730.55	264.54
730.89	264.13
731.22	263.71
731.55	263.23
731.88	262.84
732.21	262.43
732.54	261.99
732.87	261.59
733.20	261.18
733.53	260.82
733.86	260.46
734.19	260.09
734.52	259.72
734.85	259.45
735.18	259.06
735.51	258.69
735.84	258.34
736.17	257.98
736.50	257.55
736.83	257.37
737.16	257.08
737.49	256.76
737.82	256.40
738.15	256.07
738.48	255.74
738.81	255.39
739.14	255.02
739.47	254.71
739.80	254.36
740.13	254.04
740.46	253.72
740.79	253.34
741.12	253.03
741.45	252.70
741.78	252.36
742.11	252.04
742.44	251.72
742.77	251.40
743.10	251.10
743.43	250.80
743.75	250.38
744.08	250.21
744.41	249.94
744.74	249.65
745.07	249.39
745.40	249.16
745.73	248.89
746.06	248.64
746.39	248.38
746.71	248.13
747.04	247.86
747.37	247.54
747.70	247.34
748.03	247.08
748.36	246.83
748.68	246.60
749.01	246.34
749.34	246.14
749.67	245.89
750.00	245.67
750.33	245.51
750.65	245.31
750.98	244.96
751.31	244.69
751.64	244.49
751.97	244.29
752.29	244.05
752.62	243.84
752.95	243.65
753.28	243.45
753.60	243.28
753.93	243.12
754.26	242.98
754.59	242.75
754.91	242.56
755.24	242.39
755.57	242.17
755.90	242.01
756.22	241.81
756.55	241.61
756.88	241.46
757.20	241.27
757.53	241.07
757.86	240.90
758.19	240.78
758.51	240.62
758.84	240.42
759.17	240.27
759.49	240.12
759.82	240.01
760.15	239.83
760.47	239.66
760.80	239.50
761.13	239.35
761.45	239.21
761.78	239.06
762.11	238.92
762.43	238.80
762.76	238.64
763.08	238.50
763.41	238.41
763.74	238.23
764.06	238.07
764.39	237.92
764.71	237.77
765.04	237.60
765.37	237.46
765.69	237.35
766.02	237.21
766.34	237.08
766.67	236.89
767.00	236.83
767.32	236.74
767.65	236.69
767.97	236.59
768.30	236.48
768.62	236.37
768.95	236.22
769.27	236.08
769.60	235.99
769.92	235.85
770.25	235.70
770.57	235.60
770.90	235.49
771.22	235.38
771.55	235.32
771.87	235.23
772.20	235.13
772.52	235.11
772.85	235.14
773.17	235.03
773.50	234.95
773.82	234.83
774.15	234.71
774.47	234.58
774.80	234.48
775.12	234.37
775.45	234.30
775.77	234.24
776.09	234.15
776.42	234.08
776.74	234.05
777.07	233.97
777.39	233.90
777.72	233.82
778.04	233.75
778.36	233.67
778.69	233.61
779.01	233.57
779.33	233.40
779.66	233.23
779.98	233.17
780.31	233.11
780.63	233.07
780.95	233.01
781.28	232.92
781.60	232.85
781.92	232.81
782.25	232.75
782.57	232.69
782.89	232.66
783.22	232.61
783.54	232.56
783.86	232.51
784.19	232.43
784.51	232.43
784.83	232.40
785.16	232.35
785.48	232.31
785.80	232.24
786.12	232.20
786.45	232.11
786.77	232.09
787.09	232.01
787.42	231.94
787.74	231.88
788.06	231.86
788.38	231.82
788.71	231.76
789.03	231.73
789.35	231.71
789.67	231.65
789.99	231.57
790.32	231.49
790.64	231.45
790.96	231.51
791.28	231.42
791.61	231.36
791.93	231.31
792.25	231.29
792.57	231.32
792.89	231.28
793.21	231.28
793.54	231.21
793.86	231.21
794.18	231.19
794.50	231.15
794.82	231.11
795.14	231.09
795.47	231.08
795.79	231.01
796.11	230.99
796.43	230.97
796.75	230.95
797.07	230.98
797.39	230.97
797.71	230.87
798.04	230.81
798.36	230.79
798.68	230.76
799.00	230.72
799.32	230.66
799.64	230.64
799.96	230.60
800.28	230.57
800.60	230.50
800.92	230.49
801.24	230.43
801.56	230.42
801.89	230.36
802.21	230.33
802.53	230.27
802.85	230.26
803.17	230.27
803.49	230.25
803.81	230.16
804.13	230.11
804.45	230.06
804.77	230.07
805.09	230.02
805.41	230.00
805.73	229.98
806.05	229.87
806.37	229.85
806.69	229.85
807.01	229.81
807.33	229.80
807.65	229.72
807.97	229.75
808.28	229.71
808.60	229.70
808.92	229.68
809.24	229.74
809.56	229.69
809.88	229.60
810.20	229.58
810.52	229.60
810.84	229.58
811.16	229.53
811.48	229.49
811.80	229.53
812.12	229.53
812.43	229.51
812.75	229.51
813.07	229.49
813.39	229.46
813.71	229.41
814.03	229.37
814.35	229.33
814.67	229.29
814.98	229.24
815.30	229.22
815.62	229.17
815.94	229.10
816.26	229.12
816.58	229.10
816.89	229.06
817.21	229.00
817.53	228.96
817.85	228.95
818.17	228.93
818.48	228.89
818.80	228.88
819.12	228.82
819.44	228.76
819.76	228.70
820.07	228.68
820.39	228.69
820.71	228.70
821.03	228.70
821.34	228.67
821.66	228.68
821.98	228.66
822.30	228.63
822.61	228.68
822.93	228.60
823.25	228.62
823.57	228.58
823.88	228.56
824.20	228.56
824.52	228.55
824.83	228.54
825.15	228.49
825.47	228.48
825.79	228.49
826.10	228.49
826.42	228.48
826.74	228.46
827.05	228.46
827.37	228.45
827.69	228.45
828.00	228.44
828.32	228.44
828.64	228.42
828.95	228.47
829.27	228.43
829.58	228.42
829.90	228.42
830.22	228.43
830.53	228.45
830.85	228.43
831.17	228.40
831.48	228.38
831.80	228.40
832.11	228.36
832.43	228.33
832.75	228.35
833.06	228.36
833.38	228.31
833.69	228.28
834.01	228.27
834.32	228.25
834.64	228.21
834.96	228.22
835.27	228.20
835.59	228.14
835.90	228.11
836.22	228.08
836.53	228.01
836.85	228.04
837.16	228.15
837.48	228.15
837.79	228.17
838.11	228.18
838.42	228.17
838.74	228.19
839.05	228.21
839.37	228.21
839.68	228.18
840.00	228.19
840.31	228.21
840.63	228.20
840.94	228.20
841.26	228.20
841.57	228.15
841.88	228.15
842.20	228.15
842.51	228.15
842.83	228.18
843.14	228.30
843.46	228.25
843.77	228.15
844.08	228.12
844.40	228.13
844.71	228.11
845.03	228.10
845.34	228.06
845.65	228.05
845.97	228.05
846.28	228.09
846.60	228.10
846.91	228.09
847.22	228.05
847.54	228.06
847.85	228.09
848.16	228.10
848.48	228.09
848.79	228.10
849.10	228.07
849.42	228.08
849.73	227.97
850.04	227.94
850.36	227.94
850.67	227.99
850.98	227.94
851.30	227.93
851.61	227.91
851.92	227.92
852.23	227.96
852.55	227.97
852.86	227.92
853.17	227.93
853.49	227.95
853.80	227.99
854.11	228.02
854.42	228.01
854.74	228.03
855.05	228.01
855.36	228.00
855.67	228.02
855.99	228.01
856.30	228.14
856.61	228.15
856.92	228.14
857.23	228.10
857.55	228.11
857.86	228.12
858.17	228.12
858.48	228.09
858.79	228.05
859.11	228.05
859.42	228.05
859.73	228.01
860.04	227.99
860.35	227.96
860.66	227.90
860.98	227.88
861.29	227.88
861.60	227.89
861.91	227.90
862.22	227.87
862.53	227.84
862.84	227.74
863.16	227.73
863.47	227.67
863.78	227.67
864.09	227.70
864.40	227.73
864.71	227.71
865.02	227.70
865.33	227.69
865.64	227.66
865.95	227.67
866.27	227.74
866.58	227.74
866.89	227.75
867.20	227.79
867.51	227.77
867.82	227.77
868.13	227.79
868.44	227.74
868.75	227.78
869.06	227.78
869.37	227.80
869.68	227.78
869.99	227.79
870.30	227.81
870.61	227.81
870.92	227.76
871.23	227.80
871.54	227.83
871.85	227.85
872.16	227.89
872.47	227.87
872.78	227.80
873.09	227.79
873.40	227.77
873.71	227.77
874.02	227.77
874.33	227.76
874.64	227.76
874.95	227.79
875.26	227.75
875.56	227.76
875.87	227.71
876.18	227.73
876.49	227.87
876.80	227.84
877.11	227.80
877.42	227.80
877.73	227.76
878.04	227.72
878.35	227.70
878.66	227.67
878.96	227.68
879.27	227.68
879.58	227.68
879.89	227.68
880.20	227.68
880.51	227.68
880.82	227.66
881.12	227.64
881.43	227.61
881.74	227.62
882.05	227.62
882.36	227.64
882.67	227.62
882.97	227.51
883.28	227.50
883.59	227.51
883.90	227.55
884.21	227.58
884.51	227.60
884.82	227.60
885.13	227.62
885.44	227.64
885.74	227.64
886.05	227.64
886.36	227.64
886.67	227.63
886.98	227.65
887.28	227.66
887.59	227.65
887.90	227.67
888.20	227.70
888.51	227.74
888.82	227.73
889.13	227.79
889.43	227.86
889.74	227.86
890.05	227.82
890.35	227.79
890.66	227.77
890.97	227.78
891.28	227.77
891.58	227.75
891.89	227.72
892.20	227.69
892.50	227.68
892.81	227.67
893.12	227.65
893.42	227.61
893.73	227.59
894.04	227.61
894.34	227.59
894.65	227.56
894.95	227.52
895.26	227.51
895.57	227.51
895.87	227.44
896.18	227.48
896.48	227.51
896.79	227.48
897.10	227.51
897.40	227.47
897.71	227.46
898.01	227.44
898.32	227.45
898.63	227.44
898.93	227.45
899.24	227.45
899.54	227.43
899.85	227.41
900.15	227.39
900.46	227.37
900.76	227.36
901.07	227.35
901.38	227.34
901.68	227.34
901.99	227.29
902.29	227.26
902.60	227.20
902.90	227.19
903.21	227.17
903.51	227.16
903.82	227.18
904.12	227.19
904.43	227.19
904.73	227.20
905.03	227.19
905.34	227.27
905.64	227.29
905.95	227.32
906.25	227.33
906.56	227.36
906.86	227.37
907.17	227.39
907.47	227.40
907.77	227.38
908.08	227.36
908.38	227.36
908.69	227.38
908.99	227.43
909.30	227.41
909.60	227.45
909.90	227.46
910.21	227.44
910.51	227.43
910.81	227.45
911.12	227.46
911.42	227.47
911.73	227.38
912.03	227.35
912.33	227.37
912.64	227.37
912.94	227.38
913.24	227.37
913.55	227.37
913.85	227.36
914.15	227.39
914.46	227.40
914.76	227.39
915.06	227.38
915.37	227.33
915.67	227.34
915.97	227.34
916.27	227.30
916.58	227.29
916.88	227.28
917.18	227.28
917.49	227.37
917.79	227.35
918.09	227.40
918.39	227.44
918.70	227.43
919.00	227.39
919.30	227.42
919.60	227.39
919.91	227.37
920.21	227.35
920.51	227.32
920.81	227.32
921.12	227.36
921.42	227.34
921.72	227.35
922.02	227.36
922.32	227.38
922.63	227.39
922.93	227.44
923.23	227.43
923.53	227.42
923.83	227.32
924.13	227.35
924.44	227.31
924.74	227.30
925.04	227.32
925.34	227.33
925.64	227.29
925.94	227.28
926.24	227.36
926.55	227.37
926.85	227.41
927.15	227.42
927.45	227.41
927.75	227.45
928.05	227.43
928.35	227.42
928.65	227.40
928.95	227.43
929.26	227.40
929.56	227.43
929.86	227.41
930.16	227.37
930.46	227.36
930.76	227.33
931.06	227.33
931.36	227.28
931.66	227.31
931.96	227.34
932.26	227.38
932.56	227.32
932.86	227.30
933.16	227.26
933.46	227.25
933.76	227.23
934.06	227.22
934.36	227.26
934.66	227.26
934.96	227.25
935.26	227.26
935.56	227.28
935.86	227.23
936.16	227.21
936.46	227.22
936.76	227.24
937.06	227.25
937.36	227.22
937.66	227.20
937.96	227.16
938.26	227.13
938.56	227.08
938.86	227.07
939.16	227.08
939.46	227.09
939.76	227.09
940.06	227.07
940.35	227.05
940.65	227.00
940.95	226.98
941.25	226.99
941.55	226.96
941.85	226.92
942.15	226.96
942.45	227.04
942.75	227.01
943.04	226.98
943.34	227.01
943.64	226.99
943.94	227.01
944.24	227.04
944.54	227.04
944.84	227.06
945.13	227.05
945.43	227.04
945.73	227.04
946.03	227.03
946.33	227.04
946.62	227.06
946.92	227.09
947.22	227.14
947.52	227.14
947.82	227.14
948.11	227.17
948.41	227.13
948.71	227.08
949.01	227.13
949.31	227.15
949.60	227.14
949.90	227.19
950.20	227.19
950.50	227.16
950.79	227.15
951.09	227.17
951.39	227.18
951.69	227.18
951.98	227.22
952.28	227.20
952.58	227.20
952.87	227.17
953.17	227.17
953.47	227.12
953.76	227.09
954.06	227.09
954.36	227.05
954.66	227.06
954.95	227.11
955.25	227.11
955.55	227.09
955.84	227.08
956.14	227.08
956.44	227.13
956.73	227.14
957.03	227.17
957.32	227.18
957.62	227.16
957.92	227.18
958.21	227.17
958.51	227.32
958.81	227.32
959.10	227.35
959.40	227.38
959.69	227.40
959.99	227.42
960.29	227.44
960.58	227.43
960.88	227.47
961.17	227.43
961.47	227.45
961.76	227.46
962.06	227.49
962.36	227.48
962.65	227.44
962.95	227.44
963.24	227.43
963.54	227.42
963.83	227.45
964.13	227.46
964.42	227.42
964.72	227.34
965.01	227.36
965.31	227.34
965.60	227.31
965.90	227.39
966.19	227.36
966.49	227.34
966.78	227.36
967.08	227.35
967.37	227.35
967.67	227.32
967.96	227.32
968.26	227.29
968.55	227.28
968.85	227.29
969.14	227.29
969.43	227.27
969.73	227.24
970.02	227.25
970.32	227.25
970.61	227.27
970.91	227.26
971.20	227.26
971.49	227.27
971.79	227.29
972.08	227.18
972.38	227.21
972.67	227.20
972.96	227.20
973.26	227.20
973.55	227.22
973.85	227.20
974.14	227.20
974.43	227.22
974.73	227.21
975.02	227.14
975.31	227.16
975.61	227.17
975.90	227.21
976.19	227.20
976.49	227.17
976.78	227.13
977.07	227.11
977.37	227.09
977.66	227.08
977.95	227.04
978.24	227.08
978.54	227.11
978.83	227.09
979.12	227.09
979.42	227.07
979.71	227.05
980.00	227.05
980.29	227.06
980.59	227.03
980.88	227.04
981.17	227.09
981.46	227.08
981.76	227.09
982.05	227.11
982.34	227.10
982.63	227.12
982.93	227.13
983.22	227.14
983.51	227.16
983.80	227.18
984.09	227.22
984.39	227.20
984.68	227.17
984.97	227.21
985.26	227.21
985.55	227.22
985.85	227.23
986.14	227.23
986.43	227.23
986.72	227.22
987.01	227.22
987.30	227.21
987.59	227.17
987.89	227.16
988.18	227.10
988.47	227.11
988.76	227.11
989.05	227.10
989.34	227.10
989.63	227.13
989.92	227.12
990.22	227.11
990.51	227.10
990.80	227.12
991.09	227.15
991.38	227.16
991.67	227.16
991.96	227.16
992.25	227.20
992.54	227.20
992.83	227.22
993.12	227.24
993.41	227.25
993.70	227.33
993.99	227.35
994.28	227.36
994.58	227.39
994.87	227.38
995.16	227.39
995.45	227.38
995.74	227.33
996.03	227.34
996.32	227.36
996.61	227.39
996.90	227.40
997.19	227.38
997.48	227.36
997.77	227.34
998.06	227.32
998.34	227.31
998.63	227.34
998.92	227.33
999.21	227.33
999.50	227.32
999.79	227.26
1000.08	227.29
1000.37	227.31
1000.66	227.29
1000.95	227.33
1001.24	227.32
1001.53	227.31
1001.82	227.31
1002.11	227.29
1002.40	227.28
1002.68	227.29
1002.97	227.32
1003.26	227.29
1003.55	227.27
1003.84	227.28
1004.13	227.30
1004.42	227.28
1004.71	227.23
1004.99	227.19
1005.28	227.21
1005.57	227.22
1005.86	227.23
1006.15	227.19
1006.44	227.17
1006.72	227.16
1007.01	227.10
1007.30	227.10
1007.59	227.09
1007.88	227.08
1008.17	227.09
1008.45	227.05
1008.74	227.03
1009.03	226.95
1009.32	226.97
1009.60	226.96
1009.89	226.95
1010.18	226.92
1010.47	226.94
1010.76	226.97
1011.04	226.99
1011.33	226.98
1011.62	226.95
1011.91	226.95
1012.19	226.96
1012.48	226.96
1012.77	226.96
1013.05	227.05
1013.34	227.04
1013.63	227.03
1013.92	227.02
1014.20	227.00
1014.49	226.98
1014.78	226.99
1015.06	226.96
1015.35	226.97
1015.64	227.01
1015.92	227.03
1016.21	227.03
1016.50	227.00
1016.78	227.00
1017.07	227.01
1017.36	227.01
1017.64	226.99
1017.93	226.98
1018.22	226.98
1018.50	226.96
1018.79	226.97
1019.08	226.91
1019.36	226.91
1019.65	226.94
1019.93	226.98
1020.22	227.00
1020.51	227.09
1020.79	227.07
1021.08	227.27
1021.36	226.69
1021.65	227.24
1021.94	227.02
1022.22	226.94
1022.51	227.05
1022.79	227.57
1023.08	226.86
1023.36	228.28
1023.65	227.02
>>>>>End Processed Spectral Data<<<<<
