SpectraSuite Data File
++++++++++++++++++++++++++++++++++++
Date: Fri Feb 01 15:18:34 EST 2013
User: group
Dark Spectrum Present: No
Reference Spectrum Present: No
Number of Sampled Component Spectra: 1
Spectrometers: USB2E7196
Integration Time (usec): 35000 (USB2E7196)
Spectra Averaged: 100 (USB2E7196)
Boxcar Smoothing: 10 (USB2E7196)
Correct for Electrical Dark: No (USB2E7196)
Strobe/Lamp Enabled: No (USB2E7196)
Correct for Detector Non-linearity: No (USB2E7196)
Correct for Stray Light: No (USB2E7196)
Number of Pixels in Processed Spectrum: 2048
>>>>>Begin Processed Spectral Data<<<<<
339.09	0.00
339.48	215.01
339.86	216.41
340.24	218.01
340.63	219.12
341.01	222.11
341.39	221.66
341.78	223.08
342.16	224.53
342.54	224.98
342.93	213.28
343.31	224.05
343.69	224.58
344.07	225.06
344.46	225.50
344.84	225.89
345.22	226.13
345.60	226.37
345.99	226.56
346.37	226.69
346.75	226.81
347.13	226.85
347.52	226.88
347.90	226.97
348.28	226.98
348.66	227.06
349.05	227.10
349.43	227.19
349.81	227.24
350.19	227.30
350.57	227.37
350.96	227.48
351.34	227.58
351.72	227.67
352.10	227.74
352.48	227.79
352.87	227.85
353.25	227.92
353.63	228.01
354.01	228.08
354.39	228.12
354.77	228.19
355.15	228.32
355.54	228.41
355.92	228.44
356.30	228.51
356.68	228.60
357.06	228.67
357.44	228.70
357.82	228.77
358.20	228.87
358.58	228.93
358.97	228.98
359.35	229.06
359.73	229.15
360.11	229.21
360.49	229.27
360.87	229.31
361.25	229.38
361.63	229.46
362.01	229.52
362.39	229.58
362.77	229.62
363.15	229.60
363.53	229.62
363.91	229.62
364.29	229.64
364.67	229.56
365.05	229.58
365.43	229.57
365.81	229.57
366.19	229.61
366.57	229.63
366.95	229.60
367.33	229.58
367.71	229.51
368.09	229.52
368.47	229.51
368.85	229.48
369.23	229.46
369.61	229.39
369.99	229.37
370.37	229.34
370.75	229.31
371.13	229.30
371.51	229.25
371.89	229.22
372.27	229.18
372.65	229.12
373.03	229.05
373.41	229.03
373.78	228.97
374.16	228.82
374.54	228.74
374.92	228.69
375.30	228.61
375.68	228.54
376.06	228.49
376.44	228.39
376.82	228.33
377.19	228.23
377.57	228.16
377.95	228.07
378.33	228.02
378.71	227.91
379.09	227.81
379.47	227.72
379.84	227.64
380.22	227.58
380.60	227.50
380.98	227.41
381.36	227.31
381.73	227.23
382.11	227.17
382.49	227.10
382.87	227.02
383.25	226.95
383.62	227.03
384.00	226.92
384.38	226.87
384.76	226.84
385.13	226.82
385.51	226.72
385.89	226.66
386.27	226.58
386.64	226.57
387.02	226.53
387.40	226.49
387.78	226.46
388.15	226.40
388.53	226.38
388.91	226.35
389.29	226.35
389.66	226.35
390.04	226.37
390.42	226.38
390.79	226.32
391.17	226.30
391.55	226.18
391.92	226.18
392.30	226.21
392.68	226.14
393.05	226.18
393.43	226.22
393.81	226.24
394.18	226.27
394.56	226.26
394.94	226.31
395.31	226.36
395.69	226.44
396.06	226.49
396.44	226.52
396.82	226.54
397.19	226.60
397.57	226.64
397.95	226.70
398.32	226.70
398.70	226.81
399.07	226.91
399.45	226.99
399.82	227.08
400.20	227.11
400.58	227.23
400.95	227.25
401.33	227.35
401.70	227.53
402.08	227.63
402.45	227.72
402.83	227.84
403.20	227.93
403.58	228.03
403.95	228.19
404.33	228.36
404.71	228.53
405.08	228.73
405.46	228.88
405.83	229.02
406.21	229.25
406.58	229.41
406.96	229.57
407.33	229.75
407.70	229.96
408.08	230.24
408.45	230.46
408.83	230.71
409.20	230.94
409.58	231.11
409.95	231.37
410.33	231.67
410.70	231.89
411.08	232.20
411.45	232.51
411.82	232.82
412.20	233.16
412.57	233.56
412.95	233.86
413.32	234.25
413.69	234.68
414.07	235.09
414.44	235.60
414.82	236.10
415.19	236.66
415.56	237.20
415.94	237.75
416.31	238.40
416.68	239.04
417.06	239.75
417.43	240.41
417.81	241.15
418.18	241.91
418.55	242.76
418.93	243.64
419.30	244.50
419.67	245.41
420.04	246.35
420.42	247.33
420.79	248.52
421.16	249.67
421.54	250.89
421.91	252.09
422.28	253.32
422.66	254.64
423.03	255.89
423.40	257.22
423.77	258.64
424.15	260.03
424.52	261.52
424.89	263.13
425.26	264.69
425.64	266.14
426.01	267.77
426.38	269.43
426.75	271.10
427.13	272.86
427.50	274.71
427.87	276.59
428.24	278.45
428.61	280.21
428.99	282.15
429.36	284.23
429.73	286.30
430.10	288.30
430.47	290.38
430.85	292.56
431.22	294.83
431.59	297.25
431.96	299.55
432.33	302.01
432.70	304.38
433.08	307.23
433.45	309.86
433.82	312.46
434.19	315.37
434.56	318.20
434.93	320.84
435.30	323.46
435.68	326.33
436.05	329.18
436.42	332.00
436.79	334.54
437.16	337.23
437.53	340.03
437.90	342.88
438.27	345.62
438.64	348.47
439.01	351.05
439.38	353.27
439.75	355.45
440.13	358.04
440.50	360.40
440.87	362.26
441.24	364.28
441.61	366.43
441.98	367.95
442.35	369.78
442.72	371.63
443.09	373.44
443.46	374.49
443.83	375.04
444.20	375.55
444.57	376.38
444.94	376.69
445.31	377.07
445.68	377.42
446.05	377.49
446.42	377.08
446.79	376.66
447.16	376.21
447.53	375.83
447.90	374.58
448.27	373.41
448.64	371.77
449.01	370.55
449.37	368.58
449.74	366.68
450.11	364.42
450.48	361.98
450.85	359.43
451.22	357.25
451.59	355.28
451.96	353.31
452.33	350.71
452.70	348.34
453.07	345.52
453.43	342.62
453.80	339.85
454.17	337.16
454.54	334.58
454.91	331.81
455.28	329.18
455.65	326.70
456.02	324.21
456.38	322.08
456.75	319.45
457.12	317.20
457.49	314.95
457.86	312.75
458.23	310.86
458.59	308.82
458.96	306.74
459.33	304.87
459.70	303.01
460.07	301.48
460.43	299.75
460.80	298.09
461.17	296.62
461.54	295.12
461.91	293.67
462.27	292.25
462.64	291.02
463.01	289.60
463.38	288.29
463.74	286.95
464.11	285.74
464.48	284.72
464.85	283.59
465.21	282.68
465.58	281.76
465.95	280.65
466.32	279.72
466.68	278.78
467.05	277.84
467.42	276.90
467.78	275.98
468.15	275.10
468.52	274.45
468.88	273.57
469.25	272.76
469.62	272.13
469.98	271.45
470.35	270.81
470.72	270.21
471.08	269.56
471.45	269.01
471.82	268.49
472.18	267.86
472.55	267.39
472.92	266.87
473.28	266.42
473.65	265.97
474.02	265.55
474.38	265.21
474.75	264.89
475.11	264.55
475.48	264.28
475.85	264.03
476.21	263.78
476.58	263.62
476.94	263.45
477.31	263.26
477.67	263.11
478.04	263.00
478.41	262.96
478.77	262.98
479.14	262.91
479.50	262.90
479.87	262.97
480.23	263.10
480.60	263.17
480.96	263.24
481.33	263.42
481.69	263.60
482.06	263.80
482.42	263.99
482.79	264.28
483.15	264.58
483.52	264.95
483.88	265.28
484.25	265.66
484.61	266.10
484.98	266.60
485.34	267.15
485.71	267.75
486.07	268.33
486.44	268.93
486.80	269.60
487.17	270.38
487.53	271.20
487.90	272.00
488.26	272.95
488.62	273.92
488.99	274.90
489.35	275.95
489.72	277.03
490.08	278.27
490.44	279.48
490.81	280.81
491.17	282.17
491.54	283.64
491.90	285.16
492.26	286.84
492.63	288.54
492.99	290.28
493.36	292.13
493.72	294.19
494.08	296.29
494.45	298.59
494.81	300.93
495.17	303.35
495.54	305.94
495.90	308.60
496.26	311.38
496.63	314.36
496.99	317.48
497.35	320.72
497.72	324.12
498.08	327.64
498.44	331.30
498.80	335.26
499.17	339.28
499.53	343.44
499.89	347.82
500.26	352.33
500.62	357.02
500.98	361.95
501.34	367.01
501.71	372.32
502.07	377.71
502.43	383.38
502.79	389.17
503.16	395.17
503.52	401.42
503.88	407.82
504.24	414.46
504.60	421.28
504.97	428.46
505.33	435.73
505.69	443.41
506.05	451.21
506.41	459.01
506.78	467.25
507.14	475.71
507.50	484.43
507.86	493.46
508.22	502.64
508.59	511.88
508.95	521.50
509.31	531.29
509.67	541.37
510.03	551.51
510.39	562.09
510.75	572.92
511.12	583.87
511.48	595.21
511.84	606.65
512.20	618.20
512.56	630.08
512.92	642.30
513.28	654.64
513.64	667.12
514.00	679.94
514.37	692.82
514.73	705.82
515.09	718.84
515.45	732.17
515.81	745.78
516.17	759.83
516.53	773.94
516.89	788.17
517.25	802.44
517.61	816.94
517.97	831.46
518.33	845.90
518.69	860.76
519.05	875.79
519.41	890.93
519.77	906.55
520.13	922.13
520.49	937.58
520.85	953.03
521.21	968.76
521.57	984.94
521.93	1000.80
522.29	1017.26
522.65	1033.53
523.01	1049.84
523.37	1066.00
523.73	1082.10
524.09	1098.27
524.45	1114.69
524.81	1131.40
525.17	1148.36
525.53	1165.17
525.89	1182.17
526.25	1198.97
526.61	1215.42
526.97	1232.28
527.33	1248.84
527.68	1265.51
528.04	1282.04
528.40	1298.79
528.76	1315.93
529.12	1332.60
529.48	1349.48
529.84	1365.61
530.20	1382.34
530.56	1399.36
530.91	1416.73
531.27	1433.70
531.63	1450.15
531.99	1466.71
532.35	1482.71
532.71	1498.58
533.07	1515.02
533.42	1531.00
533.78	1547.13
534.14	1563.44
534.50	1578.81
534.86	1594.71
535.21	1609.89
535.57	1625.99
535.93	1641.65
536.29	1656.54
536.65	1671.73
537.00	1686.75
537.36	1702.11
537.72	1716.72
538.08	1731.19
538.44	1745.04
538.79	1758.91
539.15	1772.77
539.51	1786.68
539.87	1800.98
540.22	1814.88
540.58	1828.83
540.94	1842.28
541.29	1855.27
541.65	1868.05
542.01	1881.47
542.37	1893.82
542.72	1906.39
543.08	1918.08
543.44	1930.50
543.79	1941.79
544.15	1952.75
544.51	1964.24
544.87	1975.30
545.22	1986.09
545.58	1996.23
545.94	2006.05
546.29	2016.12
546.65	2025.89
547.01	2035.14
547.36	2043.92
547.72	2052.43
548.07	2060.16
548.43	2068.42
548.79	2076.49
549.14	2084.03
549.50	2091.32
549.86	2099.12
550.21	2106.44
550.57	2113.66
550.92	2120.12
551.28	2127.12
551.64	2134.21
551.99	2140.73
552.35	2146.81
552.70	2153.08
553.06	2159.21
553.41	2165.63
553.77	2171.59
554.13	2177.70
554.48	2183.72
554.84	2189.22
555.19	2194.52
555.55	2199.60
555.90	2203.96
556.26	2208.74
556.61	2213.48
556.97	2217.65
557.32	2221.79
557.68	2225.81
558.03	2230.04
558.39	2233.81
558.74	2238.46
559.10	2242.37
559.45	2246.01
559.81	2250.41
560.16	2254.13
560.52	2257.23
560.87	2260.67
561.23	2263.18
561.58	2266.15
561.94	2268.72
562.29	2271.11
562.64	2273.86
563.00	2276.60
563.35	2280.15
563.71	2283.27
564.06	2286.46
564.42	2289.34
564.77	2291.75
565.12	2294.16
565.48	2296.08
565.83	2297.87
566.19	2299.07
566.54	2299.91
566.89	2301.05
567.25	2301.57
567.60	2302.94
567.96	2304.60
568.31	2305.34
568.66	2306.47
569.02	2307.13
569.37	2307.29
569.72	2308.17
570.08	2307.96
570.43	2307.73
570.78	2306.99
571.14	2305.37
571.49	2304.03
571.84	2303.63
572.20	2302.31
572.55	2301.09
572.90	2299.65
573.26	2298.20
573.61	2296.59
573.96	2294.71
574.31	2291.68
574.67	2288.55
575.02	2284.81
575.37	2281.29
575.72	2277.22
576.08	2273.82
576.43	2270.36
576.78	2266.77
577.13	2263.43
577.49	2260.30
577.84	2256.84
578.19	2253.06
578.54	2249.28
578.90	2244.88
579.25	2239.39
579.60	2234.49
579.95	2229.42
580.30	2224.06
580.66	2218.68
581.01	2213.55
581.36	2208.68
581.71	2204.41
582.06	2199.94
582.42	2195.26
582.77	2190.05
583.12	2185.55
583.47	2180.68
583.82	2175.46
584.17	2170.12
584.53	2164.50
584.88	2158.92
585.23	2153.06
585.58	2147.55
585.93	2142.08
586.28	2137.23
586.63	2131.78
586.98	2126.59
587.34	2121.79
587.69	2116.80
588.04	2111.66
588.39	2105.85
588.74	2099.27
589.09	2092.96
589.44	2085.84
589.79	2079.83
590.14	2074.13
590.49	2067.58
590.84	2061.16
591.19	2054.99
591.54	2048.49
591.89	2040.94
592.25	2034.03
592.60	2026.72
592.95	2018.90
593.30	2011.53
593.65	2003.88
594.00	1997.01
594.35	1989.73
594.70	1981.56
595.05	1974.37
595.40	1966.89
595.75	1959.36
596.10	1953.03
596.45	1946.14
596.80	1939.92
597.15	1933.26
597.50	1926.00
597.85	1919.45
598.19	1912.71
598.54	1905.63
598.89	1898.89
599.24	1893.09
599.59	1886.31
599.94	1880.13
600.29	1873.89
600.64	1867.25
600.99	1859.62
601.34	1852.65
601.69	1845.53
602.04	1838.53
602.39	1831.18
602.74	1824.38
603.08	1817.72
603.43	1810.95
603.78	1803.74
604.13	1796.56
604.48	1789.20
604.83	1782.38
605.18	1775.38
605.53	1767.30
605.87	1759.25
606.22	1752.02
606.57	1744.05
606.92	1736.77
607.27	1729.43
607.62	1722.45
607.96	1715.17
608.31	1708.49
608.66	1700.75
609.01	1693.16
609.36	1685.71
609.70	1677.57
610.05	1669.50
610.40	1661.71
610.75	1653.33
611.10	1645.73
611.44	1637.46
611.79	1629.57
612.14	1620.83
612.49	1611.68
612.83	1603.30
613.18	1595.27
613.53	1587.16
613.88	1578.58
614.22	1570.26
614.57	1561.76
614.92	1553.67
615.27	1546.04
615.61	1537.86
615.96	1530.00
616.31	1522.37
616.65	1514.92
617.00	1507.34
617.35	1499.67
617.70	1491.26
618.04	1482.67
618.39	1474.29
618.74	1466.53
619.08	1458.10
619.43	1450.61
619.78	1443.69
620.12	1436.54
620.47	1429.00
620.82	1420.76
621.16	1413.45
621.51	1405.85
621.85	1398.29
622.20	1389.76
622.55	1381.47
622.89	1373.58
623.24	1365.97
623.59	1358.67
623.93	1351.16
624.28	1343.94
624.62	1336.32
624.97	1329.17
625.32	1322.46
625.66	1315.53
626.01	1308.30
626.35	1300.84
626.70	1293.08
627.04	1285.24
627.39	1277.47
627.73	1269.93
628.08	1263.05
628.43	1255.51
628.77	1248.15
629.12	1240.48
629.46	1233.31
629.81	1225.86
630.15	1218.61
630.50	1211.14
630.84	1202.97
631.19	1195.15
631.53	1187.75
631.88	1180.25
632.22	1172.68
632.57	1165.43
632.91	1157.90
633.26	1150.61
633.60	1143.25
633.95	1136.23
634.29	1129.27
634.64	1122.60
634.98	1115.27
635.32	1108.13
635.67	1101.81
636.01	1095.13
636.36	1088.33
636.70	1081.91
637.05	1075.28
637.39	1068.92
637.73	1062.53
638.08	1056.61
638.42	1050.56
638.77	1044.04
639.11	1037.50
639.45	1031.13
639.80	1024.47
640.14	1018.05
640.49	1011.59
640.83	1005.37
641.17	999.01
641.52	992.66
641.86	986.33
642.20	980.57
642.55	974.27
642.89	967.67
643.23	961.24
643.58	955.50
643.92	949.22
644.26	943.18
644.61	937.18
644.95	931.07
645.29	924.46
645.64	917.79
645.98	911.44
646.32	905.57
646.66	899.52
647.01	893.70
647.35	888.00
647.69	882.14
648.04	876.64
648.38	870.91
648.72	864.95
649.06	858.87
649.41	852.94
649.75	846.98
650.09	841.02
650.43	835.12
650.78	828.99
651.12	823.05
651.46	817.36
651.80	811.60
652.14	806.25
652.49	800.90
652.83	795.76
653.17	790.16
653.51	784.44
653.85	779.07
654.20	773.50
654.54	767.53
654.88	761.83
655.22	755.89
655.56	750.26
655.90	744.84
656.25	739.56
656.59	734.24
656.93	729.18
657.27	723.95
657.61	718.52
657.95	713.43
658.29	708.42
658.64	703.19
658.98	697.91
659.32	692.44
659.66	687.18
660.00	681.77
660.34	676.80
660.68	671.84
661.02	666.83
661.36	662.09
661.70	657.61
662.05	653.19
662.39	648.87
662.73	644.38
663.07	639.96
663.41	635.50
663.75	630.98
664.09	626.35
664.43	622.10
664.77	618.05
665.11	613.81
665.45	609.68
665.79	605.66
666.13	601.53
666.47	597.44
666.81	593.32
667.15	589.24
667.49	585.38
667.83	581.65
668.17	577.74
668.51	573.66
668.85	569.62
669.19	565.81
669.53	561.94
669.87	558.05
670.21	554.37
670.55	550.76
670.89	547.33
671.23	543.96
671.57	540.45
671.91	536.85
672.25	533.40
672.58	529.86
672.92	526.50
673.26	523.30
673.60	520.13
673.94	517.03
674.28	514.15
674.62	511.22
674.96	508.11
675.30	505.16
675.64	502.30
675.97	499.53
676.31	496.64
676.65	493.71
676.99	491.01
677.33	488.20
677.67	485.45
678.01	482.47
678.34	479.46
678.68	476.60
679.02	473.87
679.36	471.08
679.70	468.38
680.04	465.59
680.37	462.71
680.71	459.97
681.05	457.39
681.39	454.68
681.73	452.01
682.06	449.46
682.40	446.94
682.74	444.48
683.08	441.94
683.42	439.38
683.75	436.98
684.09	434.41
684.43	431.90
684.77	429.39
685.10	427.09
685.44	424.83
685.78	422.52
686.12	420.26
686.45	418.00
686.79	415.71
687.13	413.54
687.46	411.41
687.80	409.29
688.14	407.10
688.48	405.09
688.81	402.83
689.15	400.74
689.49	398.66
689.82	396.50
690.16	394.46
690.50	392.49
690.83	390.50
691.17	388.56
691.51	386.70
691.84	384.86
692.18	382.89
692.52	380.91
692.85	379.01
693.19	377.15
693.52	375.33
693.86	373.57
694.20	371.74
694.53	369.92
694.87	368.06
695.21	366.27
695.54	364.44
695.88	362.73
696.21	360.98
696.55	359.28
696.88	357.61
697.22	355.99
697.56	354.39
697.89	352.72
698.23	351.11
698.56	349.48
698.90	347.84
699.23	346.21
699.57	344.67
699.90	343.16
700.24	341.58
700.58	340.02
700.91	338.51
701.25	337.08
701.58	335.72
701.92	334.36
702.25	332.97
702.59	331.57
702.92	330.25
703.26	328.95
703.59	327.64
703.93	326.47
704.26	325.17
704.60	323.87
704.93	322.64
705.26	321.41
705.60	320.26
705.93	319.16
706.27	318.15
706.60	317.10
706.94	316.00
707.27	314.90
707.61	313.84
707.94	312.80
708.27	311.71
708.61	310.64
708.94	309.64
709.28	308.67
709.61	307.74
709.94	306.78
710.28	305.75
710.61	304.73
710.95	303.65
711.28	302.79
711.61	301.85
711.95	300.93
712.28	299.99
712.61	299.00
712.95	298.06
713.28	297.14
713.61	296.26
713.95	295.39
714.28	294.57
714.61	293.71
714.95	292.88
715.28	292.03
715.61	291.17
715.95	290.29
716.28	289.45
716.61	288.63
716.95	287.82
717.28	287.10
717.61	286.41
717.94	285.66
718.28	284.82
718.61	284.14
718.94	283.45
719.27	282.82
719.61	282.20
719.94	281.57
720.27	280.90
720.60	280.24
720.94	279.61
721.27	279.00
721.60	278.42
721.93	277.85
722.27	277.35
722.60	276.81
722.93	276.27
723.26	275.73
723.59	275.19
723.93	274.70
724.26	274.19
724.59	273.62
724.92	273.09
725.25	272.60
725.59	272.04
725.92	271.57
726.25	271.05
726.58	270.55
726.91	270.05
727.24	269.54
727.57	269.07
727.91	268.58
728.24	268.15
728.57	267.64
728.90	267.16
729.23	266.67
729.56	266.23
729.89	265.79
730.22	265.29
730.55	264.83
730.89	264.34
731.22	263.86
731.55	263.43
731.88	263.03
732.21	262.61
732.54	262.21
732.87	261.76
733.20	261.37
733.53	260.99
733.86	260.60
734.19	260.20
734.52	259.82
734.85	259.52
735.18	259.08
735.51	258.73
735.84	258.37
736.17	258.00
736.50	257.59
736.83	257.34
737.16	257.00
737.49	256.65
737.82	256.30
738.15	255.97
738.48	255.64
738.81	255.29
739.14	254.96
739.47	254.65
739.80	254.31
740.13	254.01
740.46	253.67
740.79	253.36
741.12	253.08
741.45	252.74
741.78	252.35
742.11	252.06
742.44	251.75
742.77	251.45
743.10	251.15
743.43	250.85
743.75	250.48
744.08	250.32
744.41	250.04
744.74	249.78
745.07	249.48
745.40	249.25
745.73	249.01
746.06	248.74
746.39	248.43
746.71	248.16
747.04	247.86
747.37	247.57
747.70	247.30
748.03	247.02
748.36	246.78
748.68	246.54
749.01	246.31
749.34	246.07
749.67	245.84
750.00	245.60
750.33	245.44
750.65	245.18
750.98	244.85
751.31	244.58
751.64	244.36
751.97	244.22
752.29	243.96
752.62	243.70
752.95	243.46
753.28	243.26
753.60	243.07
753.93	242.92
754.26	242.74
754.59	242.53
754.91	242.32
755.24	242.14
755.57	241.94
755.90	241.75
756.22	241.56
756.55	241.36
756.88	241.16
757.20	240.92
757.53	240.73
757.86	240.60
758.19	240.50
758.51	240.34
758.84	240.14
759.17	239.99
759.49	239.87
759.82	239.80
760.15	239.67
760.47	239.54
760.80	239.38
761.13	239.25
761.45	239.10
761.78	238.98
762.11	238.88
762.43	238.74
762.76	238.59
763.08	238.47
763.41	238.36
763.74	238.25
764.06	238.12
764.39	238.02
764.71	237.84
765.04	237.68
765.37	237.54
765.69	237.41
766.02	237.30
766.34	237.16
766.67	237.02
767.00	236.90
767.32	236.83
767.65	236.78
767.97	236.67
768.30	236.58
768.62	236.47
768.95	236.36
769.27	236.22
769.60	236.15
769.92	236.05
770.25	235.95
770.57	235.82
770.90	235.76
771.22	235.66
771.55	235.60
771.87	235.52
772.20	235.42
772.52	235.38
772.85	235.40
773.17	235.31
773.50	235.19
773.82	235.08
774.15	234.98
774.47	234.81
774.80	234.73
775.12	234.63
775.45	234.53
775.77	234.43
776.09	234.38
776.42	234.28
776.74	234.22
777.07	234.10
777.39	234.04
777.72	233.91
778.04	233.83
778.36	233.75
778.69	233.68
779.01	233.62
779.33	233.50
779.66	233.30
779.98	233.19
780.31	233.10
780.63	233.08
780.95	232.98
781.28	232.90
781.60	232.81
781.92	232.75
782.25	232.69
782.57	232.64
782.89	232.55
783.22	232.51
783.54	232.43
783.86	232.39
784.19	232.32
784.51	232.30
784.83	232.23
785.16	232.17
785.48	232.11
785.80	232.04
786.12	231.96
786.45	231.93
786.77	231.92
787.09	231.89
787.42	231.83
787.74	231.73
788.06	231.68
788.38	231.63
788.71	231.55
789.03	231.49
789.35	231.42
789.67	231.36
789.99	231.28
790.32	231.20
790.64	231.16
790.96	231.18
791.28	231.10
791.61	231.06
791.93	231.03
792.25	230.97
792.57	231.00
792.89	230.93
793.21	230.88
793.54	230.82
793.86	230.76
794.18	230.71
794.50	230.68
794.82	230.66
795.14	230.63
795.47	230.63
795.79	230.61
796.11	230.58
796.43	230.56
796.75	230.52
797.07	230.49
797.39	230.45
797.71	230.36
798.04	230.34
798.36	230.28
798.68	230.26
799.00	230.23
799.32	230.15
799.64	230.16
799.96	230.14
800.28	230.15
800.60	230.14
800.92	230.11
801.24	230.08
801.56	230.04
801.89	230.01
802.21	229.97
802.53	229.91
802.85	229.90
803.17	229.90
803.49	229.89
803.81	229.87
804.13	229.86
804.45	229.82
804.77	229.82
805.09	229.79
805.41	229.75
805.73	229.70
806.05	229.65
806.37	229.62
806.69	229.58
807.01	229.57
807.33	229.54
807.65	229.49
807.97	229.52
808.28	229.55
808.60	229.52
808.92	229.53
809.24	229.59
809.56	229.54
809.88	229.49
810.20	229.45
810.52	229.44
810.84	229.41
811.16	229.38
811.48	229.31
811.80	229.32
812.12	229.28
812.43	229.28
812.75	229.25
813.07	229.24
813.39	229.22
813.71	229.20
814.03	229.14
814.35	229.13
814.67	229.08
814.98	229.03
815.30	228.98
815.62	228.90
815.94	228.79
816.26	228.81
816.58	228.77
816.89	228.77
817.21	228.73
817.53	228.70
817.85	228.69
818.17	228.68
818.48	228.66
818.80	228.63
819.12	228.63
819.44	228.59
819.76	228.52
820.07	228.50
820.39	228.44
820.71	228.44
821.03	228.40
821.34	228.36
821.66	228.33
821.98	228.35
822.30	228.32
822.61	228.37
822.93	228.29
823.25	228.28
823.57	228.23
823.88	228.26
824.20	228.24
824.52	228.24
824.83	228.22
825.15	228.20
825.47	228.20
825.79	228.18
826.10	228.16
826.42	228.15
826.74	228.13
827.05	228.14
827.37	228.14
827.69	228.12
828.00	228.12
828.32	228.10
828.64	228.06
828.95	228.14
829.27	228.10
829.58	228.12
829.90	228.12
830.22	228.12
830.53	228.10
830.85	228.08
831.17	228.04
831.48	228.03
831.80	228.03
832.11	228.03
832.43	228.03
832.75	228.03
833.06	228.11
833.38	228.11
833.69	228.09
834.01	228.06
834.32	228.07
834.64	228.02
834.96	228.02
835.27	228.02
835.59	227.97
835.90	227.94
836.22	227.92
836.53	227.89
836.85	227.83
837.16	227.91
837.48	227.90
837.79	227.94
838.11	227.97
838.42	227.93
838.74	227.91
839.05	227.90
839.37	227.89
839.68	227.82
840.00	227.81
840.31	227.82
840.63	227.80
840.94	227.77
841.26	227.76
841.57	227.75
841.88	227.73
842.20	227.75
842.51	227.75
842.83	227.77
843.14	227.88
843.46	227.93
843.77	227.85
844.08	227.85
844.40	227.82
844.71	227.81
845.03	227.82
845.34	227.83
845.65	227.81
845.97	227.82
846.28	227.83
846.60	227.84
846.91	227.83
847.22	227.86
847.54	227.91
847.85	227.93
848.16	227.94
848.48	227.93
848.79	227.96
849.10	227.95
849.42	227.95
849.73	227.87
850.04	227.86
850.36	227.83
850.67	227.81
850.98	227.84
851.30	227.81
851.61	227.84
851.92	227.81
852.23	227.85
852.55	227.85
852.86	227.84
853.17	227.82
853.49	227.84
853.80	227.86
854.11	227.86
854.42	227.86
854.74	227.87
855.05	227.87
855.36	227.83
855.67	227.84
855.99	227.85
856.30	227.93
856.61	227.90
856.92	227.92
857.23	227.92
857.55	227.86
857.86	227.87
858.17	227.86
858.48	227.84
858.79	227.81
859.11	227.83
859.42	227.80
859.73	227.81
860.04	227.79
860.35	227.74
860.66	227.70
860.98	227.73
861.29	227.74
861.60	227.78
861.91	227.77
862.22	227.76
862.53	227.73
862.84	227.63
863.16	227.68
863.47	227.66
863.78	227.65
864.09	227.70
864.40	227.69
864.71	227.68
865.02	227.69
865.33	227.65
865.64	227.64
865.95	227.64
866.27	227.70
866.58	227.69
866.89	227.70
867.20	227.70
867.51	227.66
867.82	227.66
868.13	227.64
868.44	227.61
868.75	227.64
869.06	227.68
869.37	227.69
869.68	227.65
869.99	227.66
870.30	227.68
870.61	227.68
870.92	227.68
871.23	227.67
871.54	227.67
871.85	227.73
872.16	227.72
872.47	227.71
872.78	227.64
873.09	227.63
873.40	227.61
873.71	227.62
874.02	227.59
874.33	227.55
874.64	227.53
874.95	227.54
875.26	227.48
875.56	227.48
875.87	227.48
876.18	227.46
876.49	227.56
876.80	227.56
877.11	227.53
877.42	227.51
877.73	227.52
878.04	227.55
878.35	227.53
878.66	227.50
878.96	227.52
879.27	227.53
879.58	227.55
879.89	227.56
880.20	227.55
880.51	227.57
880.82	227.59
881.12	227.59
881.43	227.57
881.74	227.58
882.05	227.56
882.36	227.55
882.67	227.56
882.97	227.42
883.28	227.40
883.59	227.39
883.90	227.45
884.21	227.45
884.51	227.43
884.82	227.43
885.13	227.44
885.44	227.44
885.74	227.40
886.05	227.38
886.36	227.39
886.67	227.37
886.98	227.43
887.28	227.44
887.59	227.46
887.90	227.51
888.20	227.53
888.51	227.54
888.82	227.51
889.13	227.53
889.43	227.64
889.74	227.63
890.05	227.64
890.35	227.60
890.66	227.59
890.97	227.59
891.28	227.57
891.58	227.59
891.89	227.60
892.20	227.61
892.50	227.61
892.81	227.58
893.12	227.62
893.42	227.57
893.73	227.55
894.04	227.56
894.34	227.52
894.65	227.49
894.95	227.45
895.26	227.45
895.57	227.45
895.87	227.34
896.18	227.40
896.48	227.40
896.79	227.39
897.10	227.39
897.40	227.38
897.71	227.38
898.01	227.36
898.32	227.36
898.63	227.35
898.93	227.36
899.24	227.39
899.54	227.36
899.85	227.34
900.15	227.32
900.46	227.30
900.76	227.33
901.07	227.36
901.38	227.37
901.68	227.39
901.99	227.35
902.29	227.35
902.60	227.28
902.90	227.29
903.21	227.27
903.51	227.25
903.82	227.25
904.12	227.26
904.43	227.28
904.73	227.25
905.03	227.26
905.34	227.34
905.64	227.33
905.95	227.32
906.25	227.32
906.56	227.36
906.86	227.33
907.17	227.32
907.47	227.30
907.77	227.31
908.08	227.29
908.38	227.29
908.69	227.30
908.99	227.32
909.30	227.30
909.60	227.34
909.90	227.38
910.21	227.37
910.51	227.36
910.81	227.34
911.12	227.36
911.42	227.35
911.73	227.26
912.03	227.25
912.33	227.26
912.64	227.27
912.94	227.26
913.24	227.25
913.55	227.23
913.85	227.22
914.15	227.20
914.46	227.20
914.76	227.21
915.06	227.22
915.37	227.21
915.67	227.20
915.97	227.18
916.27	227.13
916.58	227.13
916.88	227.11
917.18	227.09
917.49	227.16
917.79	227.15
918.09	227.17
918.39	227.19
918.70	227.18
919.00	227.15
919.30	227.18
919.60	227.18
919.91	227.15
920.21	227.17
920.51	227.16
920.81	227.18
921.12	227.17
921.42	227.16
921.72	227.17
922.02	227.18
922.32	227.22
922.63	227.20
922.93	227.24
923.23	227.30
923.53	227.29
923.83	227.21
924.13	227.23
924.44	227.22
924.74	227.22
925.04	227.24
925.34	227.23
925.64	227.20
925.94	227.20
926.24	227.29
926.55	227.27
926.85	227.28
927.15	227.26
927.45	227.26
927.75	227.25
928.05	227.23
928.35	227.21
928.65	227.20
928.95	227.23
929.26	227.19
929.56	227.22
929.86	227.24
930.16	227.23
930.46	227.23
930.76	227.21
931.06	227.18
931.36	227.19
931.66	227.22
931.96	227.21
932.26	227.21
932.56	227.15
932.86	227.14
933.16	227.14
933.46	227.15
933.76	227.15
934.06	227.19
934.36	227.21
934.66	227.23
934.96	227.23
935.26	227.24
935.56	227.24
935.86	227.20
936.16	227.17
936.46	227.19
936.76	227.20
937.06	227.20
937.36	227.20
937.66	227.18
937.96	227.17
938.26	227.21
938.56	227.21
938.86	227.23
939.16	227.28
939.46	227.30
939.76	227.30
940.06	227.31
940.35	227.28
940.65	227.24
940.95	227.24
941.25	227.20
941.55	227.17
941.85	227.17
942.15	227.18
942.45	227.20
942.75	227.18
943.04	227.16
943.34	227.19
943.64	227.20
943.94	227.17
944.24	227.19
944.54	227.15
944.84	227.16
945.13	227.12
945.43	227.08
945.73	227.05
946.03	227.05
946.33	227.04
946.62	227.05
946.92	227.02
947.22	227.03
947.52	227.05
947.82	227.03
948.11	227.04
948.41	227.03
948.71	227.00
949.01	227.01
949.31	227.02
949.60	226.97
949.90	226.96
950.20	226.95
950.50	226.94
950.79	226.94
951.09	226.96
951.39	226.95
951.69	226.97
951.98	227.01
952.28	226.98
952.58	226.95
952.87	226.94
953.17	226.97
953.47	226.97
953.76	226.97
954.06	226.98
954.36	226.95
954.66	226.92
954.95	226.96
955.25	226.96
955.55	226.95
955.84	226.95
956.14	226.92
956.44	226.93
956.73	226.92
957.03	226.92
957.32	226.89
957.62	226.92
957.92	226.87
958.21	226.85
958.51	226.99
958.81	227.02
959.10	227.02
959.40	227.04
959.69	227.04
959.99	227.03
960.29	227.02
960.58	227.02
960.88	227.04
961.17	227.00
961.47	227.01
961.76	226.97
962.06	227.02
962.36	227.02
962.65	227.02
962.95	227.00
963.24	227.00
963.54	226.99
963.83	226.96
964.13	227.00
964.42	226.97
964.72	226.91
965.01	226.91
965.31	226.92
965.60	226.90
965.90	226.95
966.19	226.96
966.49	227.00
966.78	227.02
967.08	227.02
967.37	227.05
967.67	227.00
967.96	227.04
968.26	227.01
968.55	227.05
968.85	227.03
969.14	227.06
969.43	227.04
969.73	227.01
970.02	227.06
970.32	227.04
970.61	227.05
970.91	227.01
971.20	226.99
971.49	226.99
971.79	226.99
972.08	226.93
972.38	226.92
972.67	226.89
972.96	226.91
973.26	226.90
973.55	226.92
973.85	226.93
974.14	226.95
974.43	226.97
974.73	226.96
975.02	227.00
975.31	227.00
975.61	227.01
975.90	227.05
976.19	227.03
976.49	227.06
976.78	227.05
977.07	227.06
977.37	227.06
977.66	227.07
977.95	227.06
978.24	227.09
978.54	227.13
978.83	227.13
979.12	227.14
979.42	227.12
979.71	227.09
980.00	227.12
980.29	227.10
980.59	227.08
980.88	227.08
981.17	227.03
981.46	227.01
981.76	227.01
982.05	227.04
982.34	227.02
982.63	227.03
982.93	227.04
983.22	227.02
983.51	227.06
983.80	227.04
984.09	227.07
984.39	227.03
984.68	226.97
984.97	226.99
985.26	226.94
985.55	226.98
985.85	226.98
986.14	226.96
986.43	226.96
986.72	226.95
987.01	226.91
987.30	226.95
987.59	226.96
987.89	226.96
988.18	226.92
988.47	226.90
988.76	226.86
989.05	226.86
989.34	226.84
989.63	226.84
989.92	226.84
990.22	226.80
990.51	226.80
990.80	226.81
991.09	226.80
991.38	226.83
991.67	226.78
991.96	226.74
992.25	226.73
992.54	226.71
992.83	226.72
993.12	226.71
993.41	226.73
993.70	226.76
993.99	226.73
994.28	226.73
994.58	226.78
994.87	226.79
995.16	226.79
995.45	226.77
995.74	226.73
996.03	226.72
996.32	226.76
996.61	226.78
996.90	226.77
997.19	226.77
997.48	226.77
997.77	226.76
998.06	226.79
998.34	226.81
998.63	226.81
998.92	226.82
999.21	226.84
999.50	226.81
999.79	226.80
1000.08	226.84
1000.37	226.83
1000.66	226.80
1000.95	226.81
1001.24	226.81
1001.53	226.85
1001.82	226.85
1002.11	226.82
1002.40	226.83
1002.68	226.88
1002.97	226.95
1003.26	226.93
1003.55	226.89
1003.84	226.94
1004.13	226.96
1004.42	226.95
1004.71	226.94
1004.99	226.94
1005.28	227.00
1005.57	226.99
1005.86	226.96
1006.15	226.95
1006.44	226.96
1006.72	226.97
1007.01	227.00
1007.30	227.02
1007.59	227.03
1007.88	227.06
1008.17	227.09
1008.45	227.09
1008.74	227.02
1009.03	226.97
1009.32	226.97
1009.60	226.97
1009.89	226.97
1010.18	226.95
1010.47	226.97
1010.76	226.96
1011.04	226.94
1011.33	226.91
1011.62	226.94
1011.91	226.95
1012.19	226.96
1012.48	226.97
1012.77	226.98
1013.05	227.01
1013.34	226.99
1013.63	226.96
1013.92	226.91
1014.20	226.90
1014.49	226.90
1014.78	226.92
1015.06	226.90
1015.35	226.92
1015.64	226.96
1015.92	226.97
1016.21	226.97
1016.50	226.96
1016.78	227.01
1017.07	227.05
1017.36	227.04
1017.64	227.01
1017.93	226.97
1018.22	226.97
1018.50	226.95
1018.79	226.95
1019.08	226.90
1019.36	226.91
1019.65	226.93
1019.93	226.97
1020.22	226.99
1020.51	227.04
1020.79	227.04
1021.08	226.79
1021.36	226.81
1021.65	227.19
1021.94	226.87
1022.22	227.23
1022.51	227.20
1022.79	227.10
1023.08	227.10
1023.36	228.52
1023.65	226.98
>>>>>End Processed Spectral Data<<<<<
