SpectraSuite Data File
++++++++++++++++++++++++++++++++++++
Date: Fri Feb 01 15:57:47 EST 2013
User: group
Dark Spectrum Present: No
Reference Spectrum Present: No
Number of Sampled Component Spectra: 1
Spectrometers: USB2E7196
Integration Time (usec): 35000 (USB2E7196)
Spectra Averaged: 100 (USB2E7196)
Boxcar Smoothing: 10 (USB2E7196)
Correct for Electrical Dark: No (USB2E7196)
Strobe/Lamp Enabled: No (USB2E7196)
Correct for Detector Non-linearity: No (USB2E7196)
Correct for Stray Light: No (USB2E7196)
Number of Pixels in Processed Spectrum: 2048
>>>>>Begin Processed Spectral Data<<<<<
339.09	0.00
339.48	214.82
339.86	216.46
340.24	218.07
340.63	218.72
341.01	222.17
341.39	222.12
341.78	222.89
342.16	224.80
342.54	224.97
342.93	213.19
343.31	223.95
343.69	224.48
344.07	224.94
344.46	225.36
344.84	225.77
345.22	226.00
345.60	226.23
345.99	226.43
346.37	226.53
346.75	226.60
347.13	226.64
347.52	226.70
347.90	226.74
348.28	226.79
348.66	226.86
349.05	226.85
349.43	226.89
349.81	226.93
350.19	227.00
350.57	227.04
350.96	227.12
351.34	227.21
351.72	227.31
352.10	227.41
352.48	227.50
352.87	227.52
353.25	227.59
353.63	227.64
354.01	227.70
354.39	227.78
354.77	227.87
355.15	228.00
355.54	228.07
355.92	228.12
356.30	228.18
356.68	228.33
357.06	228.40
357.44	228.46
357.82	228.53
358.20	228.59
358.58	228.68
358.97	228.69
359.35	228.80
359.73	228.88
360.11	228.91
360.49	228.94
360.87	229.00
361.25	229.04
361.63	229.12
362.01	229.16
362.39	229.20
362.77	229.22
363.15	229.23
363.53	229.25
363.91	229.31
364.29	229.32
364.67	229.20
365.05	229.24
365.43	229.26
365.81	229.28
366.19	229.28
366.57	229.32
366.95	229.38
367.33	229.32
367.71	229.33
368.09	229.33
368.47	229.32
368.85	229.32
369.23	229.33
369.61	229.26
369.99	229.27
370.37	229.27
370.75	229.30
371.13	229.28
371.51	229.23
371.89	229.19
372.27	229.15
372.65	229.15
373.03	229.10
373.41	229.07
373.78	229.01
374.16	228.94
374.54	228.84
374.92	228.76
375.30	228.71
375.68	228.60
376.06	228.56
376.44	228.49
376.82	228.38
377.19	228.31
377.57	228.26
377.95	228.15
378.33	228.09
378.71	227.97
379.09	227.91
379.47	227.89
379.84	227.78
380.22	227.74
380.60	227.65
380.98	227.59
381.36	227.49
381.73	227.42
382.11	227.36
382.49	227.27
382.87	227.21
383.25	227.13
383.62	227.19
384.00	227.07
384.38	227.02
384.76	227.04
385.13	227.00
385.51	226.95
385.89	226.92
386.27	226.84
386.64	226.80
387.02	226.74
387.40	226.66
387.78	226.64
388.15	226.59
388.53	226.52
388.91	226.47
389.29	226.45
389.66	226.44
390.04	226.44
390.42	226.47
390.79	226.42
391.17	226.40
391.55	226.25
391.92	226.26
392.30	226.24
392.68	226.20
393.05	226.22
393.43	226.24
393.81	226.25
394.18	226.24
394.56	226.24
394.94	226.29
395.31	226.29
395.69	226.37
396.06	226.41
396.44	226.48
396.82	226.52
397.19	226.57
397.57	226.59
397.95	226.63
398.32	226.62
398.70	226.73
399.07	226.84
399.45	226.93
399.82	226.98
400.20	227.06
400.58	227.12
400.95	227.15
401.33	227.25
401.70	227.39
402.08	227.51
402.45	227.60
402.83	227.70
403.20	227.86
403.58	227.94
403.95	228.06
404.33	228.19
404.71	228.30
405.08	228.49
405.46	228.66
405.83	228.81
406.21	228.98
406.58	229.11
406.96	229.24
407.33	229.39
407.70	229.60
408.08	229.90
408.45	230.15
408.83	230.35
409.20	230.56
409.58	230.73
409.95	231.00
410.33	231.29
410.70	231.54
411.08	231.83
411.45	232.12
411.82	232.42
412.20	232.80
412.57	233.26
412.95	233.54
413.32	233.93
413.69	234.32
414.07	234.77
414.44	235.26
414.82	235.78
415.19	236.34
415.56	236.92
415.94	237.45
416.31	238.06
416.68	238.73
417.06	239.41
417.43	240.10
417.81	240.86
418.18	241.66
418.55	242.53
418.93	243.42
419.30	244.33
419.67	245.27
420.04	246.19
420.42	247.17
420.79	248.33
421.16	249.50
421.54	250.69
421.91	251.88
422.28	253.13
422.66	254.44
423.03	255.75
423.40	257.07
423.77	258.47
424.15	259.90
424.52	261.40
424.89	263.00
425.26	264.55
425.64	265.98
426.01	267.52
426.38	269.14
426.75	270.77
427.13	272.43
427.50	274.25
427.87	276.12
428.24	277.93
428.61	279.68
428.99	281.62
429.36	283.72
429.73	285.82
430.10	287.83
430.47	289.88
430.85	291.95
431.22	294.14
431.59	296.51
431.96	298.74
432.33	301.20
432.70	303.58
433.08	306.33
433.45	308.96
433.82	311.55
434.19	314.38
434.56	317.16
434.93	319.87
435.30	322.48
435.68	325.35
436.05	328.17
436.42	330.93
436.79	333.42
437.16	336.14
437.53	339.00
437.90	341.76
438.27	344.46
438.64	347.32
439.01	349.89
439.38	352.15
439.75	354.33
440.13	356.79
440.50	359.13
440.87	361.00
441.24	362.95
441.61	365.11
441.98	366.65
442.35	368.48
442.72	370.32
443.09	372.07
443.46	373.05
443.83	373.66
444.20	374.21
444.57	375.08
444.94	375.31
445.31	375.60
445.68	375.97
446.05	376.04
446.42	375.63
446.79	375.26
447.16	374.78
447.53	374.43
447.90	373.27
448.27	372.15
448.64	370.55
449.01	369.40
449.37	367.42
449.74	365.52
450.11	363.25
450.48	360.78
450.85	358.29
451.22	356.17
451.59	354.16
451.96	352.19
452.33	349.55
452.70	347.19
453.07	344.40
453.43	341.53
453.80	338.82
454.17	336.20
454.54	333.68
454.91	331.00
455.28	328.35
455.65	325.87
456.02	323.38
456.38	321.28
456.75	318.61
457.12	316.43
457.49	314.23
457.86	312.11
458.23	310.26
458.59	308.22
458.96	306.15
459.33	304.30
459.70	302.44
460.07	300.95
460.43	299.24
460.80	297.61
461.17	296.15
461.54	294.64
461.91	293.18
462.27	291.70
462.64	290.44
463.01	289.08
463.38	287.80
463.74	286.42
464.11	285.24
464.48	284.29
464.85	283.14
465.21	282.28
465.58	281.31
465.95	280.22
466.32	279.32
466.68	278.41
467.05	277.50
467.42	276.63
467.78	275.74
468.15	274.84
468.52	274.16
468.88	273.31
469.25	272.56
469.62	271.95
469.98	271.29
470.35	270.65
470.72	270.08
471.08	269.40
471.45	268.89
471.82	268.33
472.18	267.64
472.55	267.26
472.92	266.70
473.28	266.25
473.65	265.84
474.02	265.42
474.38	265.05
474.75	264.73
475.11	264.37
475.48	264.10
475.85	263.90
476.21	263.68
476.58	263.54
476.94	263.35
477.31	263.19
477.67	263.03
478.04	262.90
478.41	262.81
478.77	262.87
479.14	262.76
479.50	262.80
479.87	262.93
480.23	262.97
480.60	263.05
480.96	263.14
481.33	263.28
481.69	263.46
482.06	263.69
482.42	263.84
482.79	264.08
483.15	264.38
483.52	264.76
483.88	265.10
484.25	265.45
484.61	265.91
484.98	266.35
485.34	266.88
485.71	267.48
486.07	268.09
486.44	268.64
486.80	269.40
487.17	270.13
487.53	270.91
487.90	271.74
488.26	272.70
488.62	273.68
488.99	274.66
489.35	275.71
489.72	276.83
490.08	278.10
490.44	279.38
490.81	280.73
491.17	282.11
491.54	283.59
491.90	285.11
492.26	286.75
492.63	288.52
492.99	290.32
493.36	292.24
493.72	294.31
494.08	296.48
494.45	298.71
494.81	301.06
495.17	303.54
495.54	306.13
495.90	308.80
496.26	311.65
496.63	314.64
496.99	317.76
497.35	320.97
497.72	324.36
498.08	327.88
498.44	331.54
498.80	335.49
499.17	339.54
499.53	343.73
499.89	348.10
500.26	352.57
500.62	357.26
500.98	362.23
501.34	367.27
501.71	372.57
502.07	378.02
502.43	383.65
502.79	389.41
503.16	395.52
503.52	401.81
503.88	408.25
504.24	414.85
504.60	421.72
504.97	428.87
505.33	436.23
505.69	443.95
506.05	451.74
506.41	459.61
506.78	467.83
507.14	476.30
507.50	484.97
507.86	494.06
508.22	503.26
508.59	512.49
508.95	522.15
509.31	532.04
509.67	542.16
510.03	552.43
510.39	562.99
510.75	573.75
511.12	584.68
511.48	595.88
511.84	607.34
512.20	618.89
512.56	630.83
512.92	643.01
513.28	655.30
513.64	667.74
514.00	680.43
514.37	693.33
514.73	706.33
515.09	719.42
515.45	732.68
515.81	746.26
516.17	760.21
516.53	774.26
516.89	788.46
517.25	802.62
517.61	817.09
517.97	831.55
518.33	845.89
518.69	860.60
519.05	875.60
519.41	890.77
519.77	906.21
520.13	921.67
520.49	936.95
520.85	952.45
521.21	968.22
521.57	984.42
521.93	1000.14
522.29	1016.56
522.65	1032.75
523.01	1048.99
523.37	1064.98
523.73	1081.13
524.09	1097.22
524.45	1113.45
524.81	1130.10
525.17	1146.78
525.53	1163.72
525.89	1180.66
526.25	1197.53
526.61	1213.84
526.97	1230.59
527.33	1247.09
527.68	1263.77
528.04	1280.40
528.40	1296.95
528.76	1313.96
529.12	1330.53
529.48	1347.35
529.84	1363.19
530.20	1379.86
530.56	1396.78
530.91	1414.14
531.27	1430.82
531.63	1447.21
531.99	1463.67
532.35	1479.50
532.71	1495.44
533.07	1511.57
533.42	1527.44
533.78	1543.54
534.14	1559.83
534.50	1575.17
534.86	1591.07
535.21	1606.19
535.57	1622.06
535.93	1637.50
536.29	1652.16
536.65	1667.13
537.00	1681.92
537.36	1697.31
537.72	1711.79
538.08	1726.22
538.44	1739.92
538.79	1753.84
539.15	1767.39
539.51	1781.17
539.87	1795.49
540.22	1809.28
540.58	1823.07
540.94	1836.41
541.29	1849.22
541.65	1861.83
542.01	1875.11
542.37	1887.33
542.72	1899.63
543.08	1911.29
543.44	1923.63
543.79	1934.98
544.15	1945.93
544.51	1957.48
544.87	1968.48
545.22	1979.23
545.58	1989.35
545.94	1999.14
546.29	2008.90
546.65	2018.78
547.01	2028.08
547.36	2036.76
547.72	2045.00
548.07	2052.70
548.43	2060.68
548.79	2068.62
549.14	2076.22
549.50	2083.41
549.86	2091.00
550.21	2098.14
550.57	2105.30
550.92	2111.93
551.28	2118.82
551.64	2125.86
551.99	2132.21
552.35	2138.24
552.70	2144.34
553.06	2150.44
553.41	2156.74
553.77	2162.83
554.13	2169.06
554.48	2175.12
554.84	2180.70
555.19	2186.18
555.55	2191.35
555.90	2195.90
556.26	2200.69
556.61	2205.42
556.97	2209.76
557.32	2213.94
557.68	2218.30
558.03	2222.53
558.39	2226.25
558.74	2231.03
559.10	2234.87
559.45	2238.68
559.81	2243.00
560.16	2246.89
560.52	2250.07
560.87	2253.56
561.23	2256.15
561.58	2259.01
561.94	2261.50
562.29	2263.84
562.64	2266.45
563.00	2269.11
563.35	2272.66
563.71	2275.81
564.06	2278.90
564.42	2281.65
564.77	2284.16
565.12	2286.42
565.48	2288.41
565.83	2290.12
566.19	2291.30
566.54	2292.22
566.89	2293.19
567.25	2293.89
567.60	2295.21
567.96	2296.80
568.31	2297.63
568.66	2298.77
569.02	2299.25
569.37	2299.54
569.72	2300.37
570.08	2300.34
570.43	2300.25
570.78	2299.61
571.14	2298.17
571.49	2296.86
571.84	2296.60
572.20	2295.52
572.55	2294.44
572.90	2292.80
573.26	2291.46
573.61	2289.71
573.96	2288.12
574.31	2285.27
574.67	2282.31
575.02	2278.61
575.37	2275.29
575.72	2271.41
576.08	2268.13
576.43	2264.91
576.78	2261.19
577.13	2258.06
577.49	2255.01
577.84	2251.56
578.19	2247.98
578.54	2244.29
578.90	2240.14
579.25	2234.55
579.60	2229.49
579.95	2224.46
580.30	2219.65
580.66	2214.44
581.01	2209.55
581.36	2204.53
581.71	2200.42
582.06	2195.89
582.42	2191.48
582.77	2186.20
583.12	2181.70
583.47	2176.90
583.82	2171.87
584.17	2166.83
584.53	2161.34
584.88	2155.65
585.23	2149.97
585.58	2144.32
585.93	2138.85
586.28	2134.14
586.63	2129.19
586.98	2124.15
587.34	2119.57
587.69	2114.51
588.04	2109.17
588.39	2103.53
588.74	2097.03
589.09	2090.76
589.44	2083.89
589.79	2077.94
590.14	2072.43
590.49	2065.93
590.84	2059.69
591.19	2053.71
591.54	2047.18
591.89	2039.77
592.25	2033.17
592.60	2026.02
592.95	2018.60
593.30	2011.24
593.65	2003.63
594.00	1996.53
594.35	1989.39
594.70	1981.36
595.05	1974.07
595.40	1966.86
595.75	1959.40
596.10	1953.19
596.45	1946.52
596.80	1940.46
597.15	1933.83
597.50	1926.62
597.85	1920.15
598.19	1913.36
598.54	1906.22
598.89	1899.59
599.24	1893.65
599.59	1886.88
599.94	1880.69
600.29	1874.23
600.64	1867.71
600.99	1860.19
601.34	1853.34
601.69	1846.40
602.04	1839.32
602.39	1832.10
602.74	1825.35
603.08	1818.58
603.43	1811.97
603.78	1804.64
604.13	1797.43
604.48	1790.05
604.83	1783.30
605.18	1776.27
605.53	1768.31
605.87	1760.33
606.22	1753.01
606.57	1745.17
606.92	1737.93
607.27	1730.69
607.62	1723.87
607.96	1716.56
608.31	1709.98
608.66	1702.29
609.01	1694.64
609.36	1687.17
609.70	1679.06
610.05	1670.90
610.40	1663.21
610.75	1654.85
611.10	1647.17
611.44	1638.75
611.79	1630.82
612.14	1622.06
612.49	1612.92
612.83	1604.68
613.18	1596.62
613.53	1588.56
613.88	1579.93
614.22	1571.56
614.57	1562.99
614.92	1554.95
615.27	1547.41
615.61	1539.21
615.96	1531.18
616.31	1523.63
616.65	1516.30
617.00	1508.83
617.35	1501.28
617.70	1492.90
618.04	1484.38
618.39	1476.20
618.74	1468.58
619.08	1460.28
619.43	1452.68
619.78	1445.74
620.12	1438.54
620.47	1430.92
620.82	1422.80
621.16	1415.48
621.51	1407.92
621.85	1400.37
622.20	1391.85
622.55	1383.57
622.89	1375.65
623.24	1368.08
623.59	1360.74
623.93	1353.24
624.28	1345.90
624.62	1338.36
624.97	1331.26
625.32	1324.55
625.66	1317.54
626.01	1310.30
626.35	1302.82
626.70	1295.21
627.04	1287.50
627.39	1279.64
627.73	1272.29
628.08	1265.38
628.43	1258.03
628.77	1250.68
629.12	1243.09
629.46	1235.89
629.81	1228.46
630.15	1221.18
630.50	1213.73
630.84	1205.41
631.19	1197.43
631.53	1189.97
631.88	1182.44
632.22	1174.84
632.57	1167.47
632.91	1159.94
633.26	1152.45
633.60	1145.04
633.95	1137.93
634.29	1130.96
634.64	1124.32
634.98	1117.00
635.32	1109.82
635.67	1103.24
636.01	1096.58
636.36	1089.74
636.70	1083.25
637.05	1076.65
637.39	1070.14
637.73	1063.69
638.08	1057.87
638.42	1051.93
638.77	1045.54
639.11	1038.95
639.45	1032.53
639.80	1025.95
640.14	1019.57
640.49	1013.21
640.83	1006.94
641.17	1000.66
641.52	994.26
641.86	987.80
642.20	981.89
642.55	975.61
642.89	969.11
643.23	962.61
643.58	956.89
643.92	950.66
644.26	944.62
644.61	938.71
644.95	932.60
645.29	926.06
645.64	919.27
645.98	912.91
646.32	907.07
646.66	901.03
647.01	895.14
647.35	889.39
647.69	883.44
648.04	877.94
648.38	872.08
648.72	866.16
649.06	860.02
649.41	854.16
649.75	848.14
650.09	842.28
650.43	836.47
650.78	830.22
651.12	824.31
651.46	818.60
651.80	812.79
652.14	807.45
652.49	802.07
652.83	796.94
653.17	791.28
653.51	785.55
653.85	780.16
654.20	774.54
654.54	768.53
654.88	762.85
655.22	756.97
655.56	751.31
655.90	745.85
656.25	740.63
656.59	735.30
656.93	730.24
657.27	725.03
657.61	719.62
657.95	714.61
658.29	709.54
658.64	704.28
658.98	698.87
659.32	693.42
659.66	688.12
660.00	682.77
660.34	677.82
660.68	672.90
661.02	667.87
661.36	663.13
661.70	658.65
662.05	654.29
662.39	649.93
662.73	645.48
663.07	641.07
663.41	636.62
663.75	632.03
664.09	627.50
664.43	623.12
664.77	618.94
665.11	614.62
665.45	610.53
665.79	606.44
666.13	602.43
666.47	598.32
666.81	594.17
667.15	590.03
667.49	586.12
667.83	582.34
668.17	578.40
668.51	574.36
668.85	570.29
669.19	566.43
669.53	562.60
669.87	558.72
670.21	554.99
670.55	551.38
670.89	548.04
671.23	544.57
671.57	541.00
671.91	537.42
672.25	533.97
672.58	530.41
672.92	526.95
673.26	523.73
673.60	520.59
673.94	517.50
674.28	514.65
674.62	511.66
674.96	508.55
675.30	505.67
675.64	502.74
675.97	500.04
676.31	497.19
676.65	494.26
676.99	491.61
677.33	488.80
677.67	485.96
678.01	482.88
678.34	479.92
678.68	477.09
679.02	474.33
679.36	471.55
679.70	468.81
680.04	466.06
680.37	463.21
680.71	460.45
681.05	457.87
681.39	455.15
681.73	452.50
682.06	449.95
682.40	447.41
682.74	444.93
683.08	442.36
683.42	439.75
683.75	437.28
684.09	434.69
684.43	432.18
684.77	429.72
685.10	427.41
685.44	425.13
685.78	422.84
686.12	420.61
686.45	418.34
686.79	416.04
687.13	413.88
687.46	411.70
687.80	409.60
688.14	407.40
688.48	405.34
688.81	403.13
689.15	400.98
689.49	398.86
689.82	396.78
690.16	394.68
690.50	392.78
690.83	390.84
691.17	388.86
691.51	386.98
691.84	385.14
692.18	383.18
692.52	381.14
692.85	379.23
693.19	377.35
693.52	375.51
693.86	373.68
694.20	371.91
694.53	370.15
694.87	368.24
695.21	366.42
695.54	364.59
695.88	362.86
696.21	361.14
696.55	359.41
696.88	357.72
697.22	356.08
697.56	354.42
697.89	352.76
698.23	351.17
698.56	349.61
698.90	348.00
699.23	346.38
699.57	344.86
699.90	343.32
700.24	341.79
700.58	340.25
700.91	338.80
701.25	337.32
701.58	335.96
701.92	334.63
702.25	333.25
702.59	331.89
702.92	330.59
703.26	329.27
703.59	328.00
703.93	326.80
704.26	325.59
704.60	324.28
704.93	322.98
705.26	321.76
705.60	320.57
705.93	319.43
706.27	318.40
706.60	317.35
706.94	316.27
707.27	315.12
707.61	314.08
707.94	313.02
708.27	311.93
708.61	310.82
708.94	309.78
709.28	308.83
709.61	307.85
709.94	306.91
710.28	305.89
710.61	304.85
710.95	303.77
711.28	302.85
711.61	301.90
711.95	301.03
712.28	300.06
712.61	299.07
712.95	298.15
713.28	297.22
713.61	296.31
713.95	295.39
714.28	294.57
714.61	293.71
714.95	292.87
715.28	292.02
715.61	291.14
715.95	290.32
716.28	289.42
716.61	288.54
716.95	287.72
717.28	287.00
717.61	286.26
717.94	285.54
718.28	284.70
718.61	283.99
718.94	283.27
719.27	282.63
719.61	281.99
719.94	281.29
720.27	280.58
720.60	279.87
720.94	279.25
721.27	278.63
721.60	278.04
721.93	277.47
722.27	276.93
722.60	276.37
722.93	275.79
723.26	275.29
723.59	274.76
723.93	274.20
724.26	273.67
724.59	273.13
724.92	272.58
725.25	272.13
725.59	271.59
725.92	271.09
726.25	270.54
726.58	270.03
726.91	269.54
727.24	269.08
727.57	268.63
727.91	268.12
728.24	267.64
728.57	267.13
728.90	266.68
729.23	266.24
729.56	265.84
729.89	265.39
730.22	264.93
730.55	264.45
730.89	264.02
731.22	263.59
731.55	263.15
731.88	262.72
732.21	262.29
732.54	261.82
732.87	261.39
733.20	261.01
733.53	260.60
733.86	260.26
734.19	259.85
734.52	259.47
734.85	259.18
735.18	258.79
735.51	258.44
735.84	258.05
736.17	257.67
736.50	257.24
736.83	256.97
737.16	256.64
737.49	256.30
737.82	255.97
738.15	255.64
738.48	255.35
738.81	255.01
739.14	254.67
739.47	254.39
739.80	254.10
740.13	253.81
740.46	253.50
740.79	253.14
741.12	252.83
741.45	252.52
741.78	252.15
742.11	251.88
742.44	251.57
742.77	251.26
743.10	250.96
743.43	250.66
743.75	250.30
744.08	250.13
744.41	249.87
744.74	249.60
745.07	249.30
745.40	249.08
745.73	248.85
746.06	248.59
746.39	248.34
746.71	248.06
747.04	247.80
747.37	247.54
747.70	247.33
748.03	247.11
748.36	246.88
748.68	246.66
749.01	246.38
749.34	246.14
749.67	245.93
750.00	245.71
750.33	245.57
750.65	245.35
750.98	245.01
751.31	244.80
751.64	244.55
751.97	244.39
752.29	244.12
752.62	243.87
752.95	243.64
753.28	243.40
753.60	243.18
753.93	242.99
754.26	242.79
754.59	242.56
754.91	242.34
755.24	242.16
755.57	241.95
755.90	241.76
756.22	241.57
756.55	241.36
756.88	241.16
757.20	240.92
757.53	240.69
757.86	240.54
758.19	240.39
758.51	240.23
758.84	240.00
759.17	239.82
759.49	239.67
759.82	239.56
760.15	239.41
760.47	239.28
760.80	239.10
761.13	238.96
761.45	238.80
761.78	238.66
762.11	238.48
762.43	238.34
762.76	238.23
763.08	238.12
763.41	238.01
763.74	237.87
764.06	237.73
764.39	237.61
764.71	237.43
765.04	237.27
765.37	237.14
765.69	237.01
766.02	236.87
766.34	236.75
766.67	236.60
767.00	236.49
767.32	236.43
767.65	236.38
767.97	236.25
768.30	236.14
768.62	236.05
768.95	235.95
769.27	235.88
769.60	235.74
769.92	235.57
770.25	235.46
770.57	235.35
770.90	235.26
771.22	235.15
771.55	235.08
771.87	234.98
772.20	234.89
772.52	234.88
772.85	234.93
773.17	234.83
773.50	234.70
773.82	234.59
774.15	234.45
774.47	234.29
774.80	234.16
775.12	234.08
775.45	233.96
775.77	233.86
776.09	233.75
776.42	233.69
776.74	233.66
777.07	233.53
777.39	233.45
777.72	233.37
778.04	233.33
778.36	233.25
778.69	233.17
779.01	233.11
779.33	232.96
779.66	232.79
779.98	232.72
780.31	232.68
780.63	232.65
780.95	232.60
781.28	232.54
781.60	232.51
781.92	232.44
782.25	232.38
782.57	232.32
782.89	232.25
783.22	232.19
783.54	232.14
783.86	232.10
784.19	232.02
784.51	232.00
784.83	231.93
785.16	231.87
785.48	231.82
785.80	231.77
786.12	231.70
786.45	231.64
786.77	231.59
787.09	231.54
787.42	231.47
787.74	231.45
788.06	231.39
788.38	231.35
788.71	231.32
789.03	231.31
789.35	231.27
789.67	231.24
789.99	231.15
790.32	231.07
790.64	231.05
790.96	231.07
791.28	230.98
791.61	230.91
791.93	230.86
792.25	230.80
792.57	230.82
792.89	230.82
793.21	230.77
793.54	230.74
793.86	230.69
794.18	230.68
794.50	230.58
794.82	230.56
795.14	230.50
795.47	230.47
795.79	230.40
796.11	230.33
796.43	230.31
796.75	230.31
797.07	230.30
797.39	230.28
797.71	230.20
798.04	230.18
798.36	230.19
798.68	230.16
799.00	230.16
799.32	230.08
799.64	230.06
799.96	230.05
800.28	230.05
800.60	230.00
800.92	229.96
801.24	229.92
801.56	229.90
801.89	229.89
802.21	229.86
802.53	229.86
802.85	229.87
803.17	229.87
803.49	229.83
803.81	229.78
804.13	229.75
804.45	229.72
804.77	229.68
805.09	229.65
805.41	229.61
805.73	229.54
806.05	229.50
806.37	229.43
806.69	229.38
807.01	229.32
807.33	229.31
807.65	229.27
807.97	229.30
808.28	229.22
808.60	229.22
808.92	229.16
809.24	229.15
809.56	229.11
809.88	229.05
810.20	229.06
810.52	229.07
810.84	229.03
811.16	229.02
811.48	228.99
811.80	228.99
812.12	228.95
812.43	228.98
812.75	228.94
813.07	228.91
813.39	228.91
813.71	228.86
814.03	228.88
814.35	228.82
814.67	228.77
814.98	228.77
815.30	228.75
815.62	228.74
815.94	228.65
816.26	228.64
816.58	228.60
816.89	228.57
817.21	228.53
817.53	228.52
817.85	228.49
818.17	228.46
818.48	228.41
818.80	228.42
819.12	228.39
819.44	228.38
819.76	228.36
820.07	228.33
820.39	228.31
820.71	228.22
821.03	228.19
821.34	228.16
821.66	228.17
821.98	228.15
822.30	228.13
822.61	228.22
822.93	228.19
823.25	228.17
823.57	228.14
823.88	228.13
824.20	228.13
824.52	228.11
824.83	228.14
825.15	228.11
825.47	228.08
825.79	228.09
826.10	228.10
826.42	228.11
826.74	228.11
827.05	228.13
827.37	228.17
827.69	228.19
828.00	228.16
828.32	228.16
828.64	228.15
828.95	228.18
829.27	228.13
829.58	228.11
829.90	228.12
830.22	228.10
830.53	228.09
830.85	228.07
831.17	228.07
831.48	228.04
831.80	228.03
832.11	228.02
832.43	227.99
832.75	227.98
833.06	228.01
833.38	227.99
833.69	227.94
834.01	227.97
834.32	227.94
834.64	227.94
834.96	227.92
835.27	227.91
835.59	227.88
835.90	227.86
836.22	227.86
836.53	227.84
836.85	227.86
837.16	227.94
837.48	227.92
837.79	227.95
838.11	227.93
838.42	227.97
838.74	227.97
839.05	227.95
839.37	227.94
839.68	227.88
840.00	227.88
840.31	227.91
840.63	227.87
840.94	227.86
841.26	227.85
841.57	227.83
841.88	227.84
842.20	227.82
842.51	227.80
842.83	227.79
843.14	227.87
843.46	227.83
843.77	227.79
844.08	227.77
844.40	227.72
844.71	227.70
845.03	227.68
845.34	227.68
845.65	227.70
845.97	227.66
846.28	227.66
846.60	227.67
846.91	227.66
847.22	227.64
847.54	227.68
847.85	227.70
848.16	227.71
848.48	227.66
848.79	227.71
849.10	227.72
849.42	227.74
849.73	227.65
850.04	227.66
850.36	227.62
850.67	227.67
850.98	227.69
851.30	227.70
851.61	227.69
851.92	227.64
852.23	227.69
852.55	227.68
852.86	227.67
853.17	227.65
853.49	227.66
853.80	227.67
854.11	227.65
854.42	227.65
854.74	227.63
855.05	227.64
855.36	227.55
855.67	227.53
855.99	227.50
856.30	227.61
856.61	227.60
856.92	227.62
857.23	227.57
857.55	227.54
857.86	227.53
858.17	227.54
858.48	227.53
858.79	227.47
859.11	227.49
859.42	227.46
859.73	227.46
860.04	227.43
860.35	227.39
860.66	227.36
860.98	227.37
861.29	227.34
861.60	227.32
861.91	227.39
862.22	227.38
862.53	227.36
862.84	227.23
863.16	227.23
863.47	227.21
863.78	227.22
864.09	227.24
864.40	227.24
864.71	227.23
865.02	227.29
865.33	227.27
865.64	227.23
865.95	227.25
866.27	227.29
866.58	227.28
866.89	227.30
867.20	227.32
867.51	227.30
867.82	227.33
868.13	227.37
868.44	227.31
868.75	227.31
869.06	227.33
869.37	227.33
869.68	227.32
869.99	227.32
870.30	227.31
870.61	227.32
870.92	227.33
871.23	227.29
871.54	227.31
871.85	227.38
872.16	227.38
872.47	227.38
872.78	227.35
873.09	227.36
873.40	227.38
873.71	227.35
874.02	227.33
874.33	227.29
874.64	227.28
874.95	227.33
875.26	227.35
875.56	227.34
875.87	227.34
876.18	227.34
876.49	227.43
876.80	227.43
877.11	227.37
877.42	227.36
877.73	227.39
878.04	227.34
878.35	227.31
878.66	227.33
878.96	227.29
879.27	227.29
879.58	227.29
879.89	227.27
880.20	227.30
880.51	227.32
880.82	227.33
881.12	227.35
881.43	227.32
881.74	227.28
882.05	227.30
882.36	227.30
882.67	227.32
882.97	227.20
883.28	227.21
883.59	227.21
883.90	227.19
884.21	227.20
884.51	227.18
884.82	227.15
885.13	227.18
885.44	227.20
885.74	227.22
886.05	227.22
886.36	227.23
886.67	227.19
886.98	227.24
887.28	227.22
887.59	227.19
887.90	227.17
888.20	227.18
888.51	227.17
888.82	227.14
889.13	227.15
889.43	227.22
889.74	227.17
890.05	227.17
890.35	227.17
890.66	227.12
890.97	227.14
891.28	227.11
891.58	227.05
891.89	227.04
892.20	227.02
892.50	226.99
892.81	226.93
893.12	226.92
893.42	226.88
893.73	226.90
894.04	226.89
894.34	226.89
894.65	226.87
894.95	226.86
895.26	226.88
895.57	226.87
895.87	226.79
896.18	226.82
896.48	226.80
896.79	226.79
897.10	226.82
897.40	226.81
897.71	226.85
898.01	226.87
898.32	226.84
898.63	226.82
898.93	226.82
899.24	226.85
899.54	226.87
899.85	226.86
900.15	226.85
900.46	226.85
900.76	226.88
901.07	226.84
901.38	226.80
901.68	226.79
901.99	226.79
902.29	226.79
902.60	226.80
902.90	226.82
903.21	226.80
903.51	226.78
903.82	226.78
904.12	226.78
904.43	226.75
904.73	226.75
905.03	226.78
905.34	226.88
905.64	226.87
905.95	226.83
906.25	226.82
906.56	226.81
906.86	226.81
907.17	226.78
907.47	226.83
907.77	226.85
908.08	226.84
908.38	226.82
908.69	226.85
908.99	226.87
909.30	226.89
909.60	226.89
909.90	226.94
910.21	226.91
910.51	226.91
910.81	226.89
911.12	226.92
911.42	226.91
911.73	226.82
912.03	226.84
912.33	226.85
912.64	226.87
912.94	226.85
913.24	226.85
913.55	226.84
913.85	226.83
914.15	226.86
914.46	226.86
914.76	226.84
915.06	226.79
915.37	226.77
915.67	226.76
915.97	226.78
916.27	226.73
916.58	226.73
916.88	226.72
917.18	226.75
917.49	226.80
917.79	226.81
918.09	226.82
918.39	226.81
918.70	226.83
919.00	226.81
919.30	226.86
919.60	226.86
919.91	226.86
920.21	226.85
920.51	226.82
920.81	226.84
921.12	226.86
921.42	226.87
921.72	226.87
922.02	226.87
922.32	226.87
922.63	226.88
922.93	226.91
923.23	226.91
923.53	226.93
923.83	226.88
924.13	226.86
924.44	226.88
924.74	226.94
925.04	226.94
925.34	226.98
925.64	226.95
925.94	226.93
926.24	226.97
926.55	226.99
926.85	227.00
927.15	226.97
927.45	226.96
927.75	226.98
928.05	226.94
928.35	226.92
928.65	226.98
928.95	226.94
929.26	226.93
929.56	226.95
929.86	226.93
930.16	226.91
930.46	226.90
930.76	226.87
931.06	226.82
931.36	226.83
931.66	226.80
931.96	226.81
932.26	226.82
932.56	226.80
932.86	226.81
933.16	226.83
933.46	226.85
933.76	226.84
934.06	226.86
934.36	226.91
934.66	226.92
934.96	226.88
935.26	226.93
935.56	226.95
935.86	226.92
936.16	226.91
936.46	226.91
936.76	226.94
937.06	226.96
937.36	226.98
937.66	227.00
937.96	227.01
938.26	227.02
938.56	227.01
938.86	227.03
939.16	227.02
939.46	227.03
939.76	227.06
940.06	227.04
940.35	227.03
940.65	226.97
940.95	226.97
941.25	226.94
941.55	226.91
941.85	226.89
942.15	226.90
942.45	226.93
942.75	226.95
943.04	226.98
943.34	226.97
943.64	226.92
943.94	226.89
944.24	226.88
944.54	226.86
944.84	226.89
945.13	226.86
945.43	226.87
945.73	226.85
946.03	226.82
946.33	226.87
946.62	226.84
946.92	226.85
947.22	226.88
947.52	226.89
947.82	226.91
948.11	226.90
948.41	226.90
948.71	226.89
949.01	226.87
949.31	226.83
949.60	226.84
949.90	226.86
950.20	226.88
950.50	226.90
950.79	226.90
951.09	226.88
951.39	226.84
951.69	226.81
951.98	226.84
952.28	226.83
952.58	226.83
952.87	226.84
953.17	226.84
953.47	226.82
953.76	226.81
954.06	226.79
954.36	226.79
954.66	226.77
954.95	226.77
955.25	226.78
955.55	226.78
955.84	226.75
956.14	226.75
956.44	226.75
956.73	226.72
957.03	226.72
957.32	226.74
957.62	226.75
957.92	226.77
958.21	226.76
958.51	226.85
958.81	226.85
959.10	226.85
959.40	226.89
959.69	226.89
959.99	226.91
960.29	226.93
960.58	226.88
960.88	226.91
961.17	226.89
961.47	226.90
961.76	226.92
962.06	226.94
962.36	226.92
962.65	226.91
962.95	226.90
963.24	226.88
963.54	226.91
963.83	226.90
964.13	226.90
964.42	226.86
964.72	226.78
965.01	226.81
965.31	226.81
965.60	226.76
965.90	226.83
966.19	226.81
966.49	226.78
966.78	226.82
967.08	226.82
967.37	226.83
967.67	226.81
967.96	226.83
968.26	226.83
968.55	226.84
968.85	226.84
969.14	226.85
969.43	226.84
969.73	226.81
970.02	226.86
970.32	226.87
970.61	226.87
970.91	226.86
971.20	226.82
971.49	226.80
971.79	226.80
972.08	226.70
972.38	226.73
972.67	226.70
972.96	226.70
973.26	226.66
973.55	226.68
973.85	226.68
974.14	226.67
974.43	226.65
974.73	226.66
975.02	226.66
975.31	226.66
975.61	226.70
975.90	226.65
976.19	226.62
976.49	226.59
976.78	226.66
977.07	226.65
977.37	226.67
977.66	226.69
977.95	226.69
978.24	226.70
978.54	226.66
978.83	226.69
979.12	226.71
979.42	226.72
979.71	226.72
980.00	226.72
980.29	226.73
980.59	226.74
980.88	226.72
981.17	226.70
981.46	226.70
981.76	226.69
982.05	226.78
982.34	226.79
982.63	226.82
982.93	226.76
983.22	226.79
983.51	226.81
983.80	226.85
984.09	226.86
984.39	226.88
984.68	226.89
984.97	226.86
985.26	226.85
985.55	226.88
985.85	226.85
986.14	226.85
986.43	226.86
986.72	226.87
987.01	226.86
987.30	226.89
987.59	226.87
987.89	226.84
988.18	226.79
988.47	226.79
988.76	226.81
989.05	226.84
989.34	226.84
989.63	226.86
989.92	226.82
990.22	226.84
990.51	226.83
990.80	226.84
991.09	226.85
991.38	226.86
991.67	226.82
991.96	226.80
992.25	226.76
992.54	226.74
992.83	226.69
993.12	226.68
993.41	226.70
993.70	226.74
993.99	226.75
994.28	226.73
994.58	226.75
994.87	226.72
995.16	226.67
995.45	226.65
995.74	226.61
996.03	226.64
996.32	226.63
996.61	226.62
996.90	226.61
997.19	226.66
997.48	226.63
997.77	226.65
998.06	226.67
998.34	226.70
998.63	226.69
998.92	226.73
999.21	226.75
999.50	226.74
999.79	226.68
1000.08	226.70
1000.37	226.73
1000.66	226.72
1000.95	226.73
1001.24	226.76
1001.53	226.75
1001.82	226.72
1002.11	226.69
1002.40	226.67
1002.68	226.70
1002.97	226.78
1003.26	226.75
1003.55	226.76
1003.84	226.74
1004.13	226.75
1004.42	226.73
1004.71	226.71
1004.99	226.71
1005.28	226.73
1005.57	226.72
1005.86	226.71
1006.15	226.69
1006.44	226.66
1006.72	226.65
1007.01	226.63
1007.30	226.61
1007.59	226.59
1007.88	226.58
1008.17	226.57
1008.45	226.57
1008.74	226.54
1009.03	226.46
1009.32	226.48
1009.60	226.46
1009.89	226.46
1010.18	226.44
1010.47	226.44
1010.76	226.46
1011.04	226.42
1011.33	226.43
1011.62	226.48
1011.91	226.50
1012.19	226.51
1012.48	226.55
1012.77	226.52
1013.05	226.60
1013.34	226.58
1013.63	226.62
1013.92	226.63
1014.20	226.62
1014.49	226.61
1014.78	226.60
1015.06	226.60
1015.35	226.58
1015.64	226.59
1015.92	226.64
1016.21	226.63
1016.50	226.65
1016.78	226.63
1017.07	226.67
1017.36	226.63
1017.64	226.61
1017.93	226.65
1018.22	226.63
1018.50	226.62
1018.79	226.61
1019.08	226.55
1019.36	226.59
1019.65	226.55
1019.93	226.59
1020.22	226.61
1020.51	226.65
1020.79	226.67
1021.08	226.48
1021.36	226.63
1021.65	225.94
1021.94	226.56
1022.22	227.10
1022.51	225.98
1022.79	227.03
1023.08	226.62
1023.36	227.31
1023.65	226.66
>>>>>End Processed Spectral Data<<<<<
