SpectraSuite Data File
++++++++++++++++++++++++++++++++++++
Date: Fri Feb 01 17:51:46 EST 2013
User: group
Dark Spectrum Present: No
Reference Spectrum Present: No
Number of Sampled Component Spectra: 1
Spectrometers: USB2E7196
Integration Time (usec): 35000 (USB2E7196)
Spectra Averaged: 100 (USB2E7196)
Boxcar Smoothing: 10 (USB2E7196)
Correct for Electrical Dark: No (USB2E7196)
Strobe/Lamp Enabled: No (USB2E7196)
Correct for Detector Non-linearity: No (USB2E7196)
Correct for Stray Light: No (USB2E7196)
Number of Pixels in Processed Spectrum: 2048
>>>>>Begin Processed Spectral Data<<<<<
339.09	0.00
339.48	212.71
339.86	214.22
340.24	215.81
340.63	217.16
341.01	219.33
341.39	220.24
341.78	221.15
342.16	222.65
342.54	223.19
342.93	211.38
343.31	222.06
343.69	222.62
344.07	223.10
344.46	223.50
344.84	223.89
345.22	224.17
345.60	224.40
345.99	224.60
346.37	224.72
346.75	224.84
347.13	224.86
347.52	224.89
347.90	224.92
348.28	224.96
348.66	224.98
349.05	224.95
349.43	224.95
349.81	224.98
350.19	224.99
350.57	225.06
350.96	225.11
351.34	225.19
351.72	225.25
352.10	225.34
352.48	225.37
352.87	225.40
353.25	225.42
353.63	225.45
354.01	225.46
354.39	225.54
354.77	225.56
355.15	225.66
355.54	225.73
355.92	225.76
356.30	225.82
356.68	225.97
357.06	226.04
357.44	226.11
357.82	226.18
358.20	226.26
358.58	226.31
358.97	226.35
359.35	226.41
359.73	226.48
360.11	226.53
360.49	226.63
360.87	226.70
361.25	226.77
361.63	226.88
362.01	226.95
362.39	226.94
362.77	226.99
363.15	227.03
363.53	227.05
363.91	227.06
364.29	227.10
364.67	227.03
365.05	227.04
365.43	227.05
365.81	227.07
366.19	227.13
366.57	227.20
366.95	227.24
367.33	227.20
367.71	227.20
368.09	227.23
368.47	227.24
368.85	227.21
369.23	227.23
369.61	227.19
369.99	227.21
370.37	227.22
370.75	227.24
371.13	227.18
371.51	227.16
371.89	227.17
372.27	227.12
372.65	227.08
373.03	227.02
373.41	227.00
373.78	226.97
374.16	226.86
374.54	226.78
374.92	226.74
375.30	226.70
375.68	226.63
376.06	226.57
376.44	226.51
376.82	226.45
377.19	226.41
377.57	226.35
377.95	226.24
378.33	226.20
378.71	226.08
379.09	226.04
379.47	226.00
379.84	225.92
380.22	225.87
380.60	225.80
380.98	225.76
381.36	225.71
381.73	225.64
382.11	225.62
382.49	225.58
382.87	225.53
383.25	225.48
383.62	225.57
384.00	225.53
384.38	225.48
384.76	225.46
385.13	225.42
385.51	225.35
385.89	225.30
386.27	225.22
386.64	225.23
387.02	225.20
387.40	225.12
387.78	225.08
388.15	225.05
388.53	225.01
388.91	224.98
389.29	224.91
389.66	224.89
390.04	224.84
390.42	224.81
390.79	224.76
391.17	224.75
391.55	224.63
391.92	224.59
392.30	224.60
392.68	224.56
393.05	224.55
393.43	224.59
393.81	224.62
394.18	224.63
394.56	224.61
394.94	224.65
395.31	224.66
395.69	224.74
396.06	224.74
396.44	224.80
396.82	224.86
397.19	224.97
397.57	224.99
397.95	225.02
398.32	225.06
398.70	225.13
399.07	225.23
399.45	225.24
399.82	225.25
400.20	225.27
400.58	225.36
400.95	225.42
401.33	225.48
401.70	225.62
402.08	225.68
402.45	225.81
402.83	225.89
403.20	226.01
403.58	226.05
403.95	226.21
404.33	226.34
404.71	226.42
405.08	226.58
405.46	226.75
405.83	226.95
406.21	227.10
406.58	227.28
406.96	227.40
407.33	227.62
407.70	227.86
408.08	228.18
408.45	228.44
408.83	228.69
409.20	228.95
409.58	229.16
409.95	229.50
410.33	229.78
410.70	230.13
411.08	230.51
411.45	230.92
411.82	231.29
412.20	231.71
412.57	232.24
412.95	232.65
413.32	233.14
413.69	233.64
414.07	234.21
414.44	234.84
414.82	235.45
415.19	236.18
415.56	236.92
415.94	237.64
416.31	238.46
416.68	239.27
417.06	240.20
417.43	241.09
417.81	242.10
418.18	243.13
418.55	244.23
418.93	245.38
419.30	246.59
419.67	247.83
420.04	249.12
420.42	250.42
420.79	251.95
421.16	253.53
421.54	255.10
421.91	256.72
422.28	258.37
422.66	260.17
423.03	261.88
423.40	263.62
423.77	265.47
424.15	267.35
424.52	269.32
424.89	271.41
425.26	273.46
425.64	275.35
426.01	277.47
426.38	279.66
426.75	281.89
427.13	284.15
427.50	286.53
427.87	289.00
428.24	291.47
428.61	293.80
428.99	296.31
429.36	299.06
429.73	301.80
430.10	304.45
430.47	307.18
430.85	309.98
431.22	312.96
431.59	316.09
431.96	319.04
432.33	322.29
432.70	325.43
433.08	329.13
433.45	332.61
433.82	336.04
434.19	339.84
434.56	343.48
434.93	346.99
435.30	350.44
435.68	354.21
436.05	357.94
436.42	361.57
436.79	364.87
437.16	368.44
437.53	372.14
437.90	375.86
438.27	379.44
438.64	383.12
439.01	386.55
439.38	389.52
439.75	392.36
440.13	395.67
440.50	398.78
440.87	401.26
441.24	403.90
441.61	406.77
441.98	408.76
442.35	411.24
442.72	413.72
443.09	416.11
443.46	417.46
443.83	418.21
444.20	418.89
444.57	420.08
444.94	420.47
445.31	420.96
445.68	421.40
446.05	421.54
446.42	421.08
446.79	420.50
447.16	419.91
447.53	419.54
447.90	417.99
448.27	416.44
448.64	414.30
449.01	412.76
449.37	410.13
449.74	407.59
450.11	404.51
450.48	401.23
450.85	397.88
451.22	395.10
451.59	392.44
451.96	389.90
452.33	386.43
452.70	383.36
453.07	379.59
453.43	375.80
453.80	372.13
454.17	368.59
454.54	365.24
454.91	361.68
455.28	358.12
455.65	354.88
456.02	351.58
456.38	348.75
456.75	345.24
457.12	342.27
457.49	339.33
457.86	336.50
458.23	334.04
458.59	331.32
458.96	328.52
459.33	326.07
459.70	323.63
460.07	321.62
460.43	319.31
460.80	317.18
461.17	315.24
461.54	313.26
461.91	311.40
462.27	309.48
462.64	307.78
463.01	305.98
463.38	304.25
463.74	302.50
464.11	300.92
464.48	299.57
464.85	298.12
465.21	296.96
465.58	295.73
465.95	294.25
466.32	293.04
466.68	291.87
467.05	290.68
467.42	289.48
467.78	288.27
468.15	287.08
468.52	286.12
468.88	284.98
469.25	283.97
469.62	283.08
469.98	282.15
470.35	281.34
470.72	280.54
471.08	279.66
471.45	278.96
471.82	278.24
472.18	277.42
472.55	276.83
472.92	276.09
473.28	275.46
473.65	274.82
474.02	274.23
474.38	273.71
474.75	273.26
475.11	272.79
475.48	272.41
475.85	272.04
476.21	271.73
476.58	271.46
476.94	271.18
477.31	270.93
477.67	270.70
478.04	270.47
478.41	270.34
478.77	270.33
479.14	270.19
479.50	270.18
479.87	270.20
480.23	270.20
480.60	270.21
480.96	270.24
481.33	270.48
481.69	270.65
482.06	270.79
482.42	270.90
482.79	271.08
483.15	271.35
483.52	271.71
483.88	272.04
484.25	272.41
484.61	272.83
484.98	273.24
485.34	273.81
485.71	274.38
486.07	274.96
486.44	275.49
486.80	276.17
487.17	276.89
487.53	277.70
487.90	278.57
488.26	279.51
488.62	280.52
488.99	281.49
489.35	282.55
489.72	283.70
490.08	284.97
490.44	286.29
490.81	287.65
491.17	289.03
491.54	290.57
491.90	292.16
492.26	293.83
492.63	295.64
492.99	297.50
493.36	299.48
493.72	301.64
494.08	303.79
494.45	306.17
494.81	308.58
495.17	311.17
495.54	313.82
495.90	316.67
496.26	319.61
496.63	322.70
496.99	325.97
497.35	329.38
497.72	332.94
498.08	336.60
498.44	340.49
498.80	344.65
499.17	348.89
499.53	353.28
499.89	357.91
500.26	362.67
500.62	367.57
500.98	372.77
501.34	378.15
501.71	383.81
502.07	389.55
502.43	395.52
502.79	401.63
503.16	408.09
503.52	414.66
503.88	421.43
504.24	428.45
504.60	435.70
504.97	443.25
505.33	450.98
505.69	459.12
506.05	467.38
506.41	475.70
506.78	484.36
507.14	493.25
507.50	502.46
507.86	511.95
508.22	521.69
508.59	531.52
508.95	541.65
509.31	552.08
509.67	562.80
510.03	573.71
510.39	584.90
510.75	596.40
511.12	608.10
511.48	620.17
511.84	632.36
512.20	644.64
512.56	657.32
512.92	670.29
513.28	683.49
513.64	696.80
514.00	710.41
514.37	724.27
514.73	738.37
515.09	752.38
515.45	766.59
515.81	781.12
516.17	796.03
516.53	811.17
516.89	826.38
517.25	841.57
517.61	857.13
517.97	872.66
518.33	888.20
518.69	904.03
519.05	920.00
519.41	936.44
519.77	953.19
520.13	969.89
520.49	986.62
520.85	1003.23
521.21	1020.24
521.57	1037.75
521.93	1054.80
522.29	1072.50
522.65	1090.19
523.01	1107.82
523.37	1125.40
523.73	1143.01
524.09	1160.57
524.45	1178.29
524.81	1196.42
525.17	1214.62
525.53	1232.99
525.89	1251.36
526.25	1269.81
526.61	1287.83
526.97	1306.10
527.33	1324.13
527.68	1342.34
528.04	1360.42
528.40	1378.64
528.76	1397.28
529.12	1415.53
529.48	1434.15
529.84	1451.81
530.20	1469.94
530.56	1488.68
530.91	1507.70
531.27	1526.25
531.63	1544.55
531.99	1562.93
532.35	1580.74
532.71	1598.60
533.07	1616.74
533.42	1634.50
533.78	1652.44
534.14	1670.65
534.50	1687.90
534.86	1705.76
535.21	1722.88
535.57	1740.76
535.93	1758.03
536.29	1774.81
536.65	1791.71
537.00	1808.29
537.36	1825.57
537.72	1842.04
538.08	1858.58
538.44	1874.38
538.79	1890.26
539.15	1905.72
539.51	1921.44
539.87	1937.81
540.22	1953.43
540.58	1969.18
540.94	1984.51
541.29	1999.29
541.65	2014.05
542.01	2029.29
542.37	2043.50
542.72	2057.87
543.08	2071.71
543.44	2086.30
543.79	2099.66
544.15	2112.74
544.51	2126.46
544.87	2139.49
545.22	2152.57
545.58	2164.70
545.94	2176.56
546.29	2188.45
546.65	2200.43
547.01	2211.74
547.36	2222.44
547.72	2232.86
548.07	2242.78
548.43	2252.85
548.79	2262.67
549.14	2272.01
549.50	2281.12
549.86	2290.74
550.21	2299.84
550.57	2308.68
550.92	2317.03
551.28	2325.80
551.64	2334.68
551.99	2342.94
552.35	2350.90
552.70	2358.55
553.06	2366.26
553.41	2374.29
553.77	2381.88
554.13	2389.71
554.48	2397.70
554.84	2404.95
555.19	2411.84
555.55	2418.83
555.90	2424.92
556.26	2431.67
556.61	2437.97
556.97	2444.05
557.32	2449.69
557.68	2455.43
558.03	2461.21
558.39	2466.32
558.74	2472.54
559.10	2477.89
559.45	2482.93
559.81	2488.55
560.16	2493.98
560.52	2498.72
560.87	2503.42
561.23	2507.38
561.58	2511.50
561.94	2515.14
562.29	2518.56
562.64	2522.50
563.00	2526.02
563.35	2530.68
563.71	2534.98
564.06	2539.41
564.42	2543.33
564.77	2547.01
565.12	2550.69
565.48	2553.87
565.83	2557.03
566.19	2559.46
566.54	2561.30
566.89	2563.56
567.25	2565.25
567.60	2567.37
567.96	2569.98
568.31	2571.78
568.66	2574.00
569.02	2575.31
569.37	2576.38
569.72	2578.16
570.08	2579.16
570.43	2580.00
570.78	2580.28
571.14	2579.31
571.49	2578.42
571.84	2578.74
572.20	2578.22
572.55	2577.48
572.90	2576.23
573.26	2575.34
573.61	2573.90
573.96	2572.83
574.31	2570.14
574.67	2567.41
575.02	2564.04
575.37	2560.77
575.72	2557.14
576.08	2553.62
576.43	2550.47
576.78	2547.03
577.13	2543.78
577.49	2540.67
577.84	2537.29
578.19	2533.43
578.54	2529.80
578.90	2525.76
579.25	2519.97
579.60	2515.02
579.95	2509.82
580.30	2504.68
580.66	2499.08
581.01	2493.85
581.36	2488.43
581.71	2484.16
582.06	2479.45
582.42	2474.92
582.77	2469.45
583.12	2464.62
583.47	2459.85
583.82	2454.72
584.17	2449.07
584.53	2443.41
584.88	2437.48
585.23	2431.31
585.58	2425.39
585.93	2419.54
586.28	2414.23
586.63	2408.71
586.98	2402.87
587.34	2397.62
587.69	2392.18
588.04	2386.79
588.39	2380.64
588.74	2373.55
589.09	2366.73
589.44	2359.31
589.79	2352.33
590.14	2346.06
590.49	2338.84
590.84	2331.65
591.19	2324.91
591.54	2317.84
591.89	2309.53
592.25	2302.06
592.60	2293.86
592.95	2285.56
593.30	2277.31
593.65	2268.75
594.00	2260.85
594.35	2252.84
594.70	2243.95
595.05	2236.10
595.40	2227.72
595.75	2219.18
596.10	2212.21
596.45	2204.63
596.80	2197.68
597.15	2190.43
597.50	2182.62
597.85	2175.08
598.19	2167.62
598.54	2159.69
598.89	2151.99
599.24	2145.37
599.59	2137.87
599.94	2130.76
600.29	2123.48
600.64	2115.88
600.99	2107.60
601.34	2099.82
601.69	2091.87
602.04	2084.04
602.39	2075.54
602.74	2067.67
603.08	2060.12
603.43	2052.42
603.78	2043.91
604.13	2035.45
604.48	2026.99
604.83	2018.96
605.18	2011.23
605.53	2002.17
605.87	1992.78
606.22	1984.51
606.57	1975.29
606.92	1966.53
607.27	1958.41
607.62	1950.45
607.96	1942.14
608.31	1934.38
608.66	1925.71
609.01	1917.04
609.36	1908.36
609.70	1899.11
610.05	1889.94
610.40	1880.89
610.75	1871.28
611.10	1862.39
611.44	1852.65
611.79	1843.48
612.14	1833.48
612.49	1822.85
612.83	1813.04
613.18	1803.81
613.53	1794.31
613.88	1784.49
614.22	1774.89
614.57	1764.79
614.92	1755.54
615.27	1746.91
615.61	1737.35
615.96	1727.96
616.31	1718.93
616.65	1710.32
617.00	1701.49
617.35	1692.51
617.70	1682.99
618.04	1673.23
618.39	1663.73
618.74	1654.93
619.08	1645.28
619.43	1636.40
619.78	1628.22
620.12	1619.96
620.47	1611.21
620.82	1601.65
621.16	1592.95
621.51	1584.11
621.85	1575.15
622.20	1565.09
622.55	1555.38
622.89	1546.19
623.24	1537.35
623.59	1528.76
623.93	1520.03
624.28	1511.61
624.62	1502.95
624.97	1494.52
625.32	1486.48
625.66	1478.23
626.01	1470.03
626.35	1461.48
626.70	1452.45
627.04	1443.57
627.39	1434.38
627.73	1425.70
628.08	1417.72
628.43	1409.30
628.77	1400.85
629.12	1392.23
629.46	1384.00
629.81	1375.24
630.15	1366.82
630.50	1358.18
630.84	1348.79
631.19	1339.59
631.53	1330.82
631.88	1321.88
632.22	1313.14
632.57	1304.74
632.91	1295.98
633.26	1287.38
633.60	1278.65
633.95	1270.34
634.29	1262.00
634.64	1254.32
634.98	1245.75
635.32	1237.54
635.67	1229.80
636.01	1222.05
636.36	1214.18
636.70	1206.55
637.05	1198.92
637.39	1191.42
637.73	1183.90
638.08	1177.04
638.42	1169.99
638.77	1162.59
639.11	1155.05
639.45	1147.57
639.80	1139.85
640.14	1132.57
640.49	1125.00
640.83	1117.81
641.17	1110.65
641.52	1103.51
641.86	1096.03
642.20	1089.33
642.55	1081.96
642.89	1074.57
643.23	1066.95
643.58	1060.29
643.92	1053.15
644.26	1046.22
644.61	1039.25
644.95	1032.40
645.29	1024.93
645.64	1017.18
645.98	1009.89
646.32	1003.03
646.66	996.19
647.01	989.54
647.35	982.94
647.69	976.16
648.04	969.76
648.38	963.17
648.72	956.35
649.06	949.46
649.41	942.65
649.75	935.96
650.09	929.21
650.43	922.66
650.78	915.57
651.12	908.86
651.46	902.37
651.80	895.87
652.14	889.51
652.49	883.39
652.83	877.50
653.17	871.05
653.51	864.64
653.85	858.35
654.20	851.92
654.54	845.11
654.88	838.54
655.22	831.84
655.56	825.33
655.90	819.02
656.25	813.03
656.59	806.98
656.93	801.09
657.27	795.17
657.61	788.96
657.95	783.20
658.29	777.33
658.64	771.25
658.98	765.23
659.32	759.02
659.66	753.01
660.00	747.01
660.34	741.32
660.68	735.68
661.02	730.00
661.36	724.63
661.70	719.52
662.05	714.59
662.39	709.67
662.73	704.56
663.07	699.52
663.41	694.49
663.75	689.32
664.09	684.06
664.43	679.01
664.77	674.35
665.11	669.45
665.45	664.77
665.79	660.16
666.13	655.42
666.47	650.75
666.81	646.07
667.15	641.36
667.49	636.95
667.83	632.61
668.17	628.14
668.51	623.43
668.85	618.74
669.19	614.31
669.53	609.99
669.87	605.61
670.21	601.45
670.55	597.25
670.89	593.29
671.23	589.39
671.57	585.34
671.91	581.24
672.25	577.24
672.58	573.16
672.92	569.23
673.26	565.53
673.60	561.94
673.94	558.39
674.28	555.05
674.62	551.70
674.96	548.18
675.30	544.89
675.64	541.61
675.97	538.47
676.31	535.26
676.65	531.85
676.99	528.70
677.33	525.34
677.67	522.13
678.01	518.72
678.34	515.38
678.68	512.13
679.02	508.92
679.36	505.74
679.70	502.68
680.04	499.56
680.37	496.35
680.71	493.19
681.05	490.16
681.39	487.04
681.73	483.96
682.06	481.08
682.40	478.19
682.74	475.30
683.08	472.36
683.42	469.32
683.75	466.48
684.09	463.56
684.43	460.76
684.77	457.97
685.10	455.23
685.44	452.55
685.78	449.95
686.12	447.34
686.45	444.71
686.79	442.08
687.13	439.48
687.46	436.98
687.80	434.48
688.14	431.92
688.48	429.59
688.81	427.05
689.15	424.56
689.49	421.99
689.82	419.57
690.16	417.12
690.50	414.91
690.83	412.65
691.17	410.39
691.51	408.22
691.84	406.08
692.18	403.91
692.52	401.68
692.85	399.44
693.19	397.31
693.52	395.20
693.86	393.06
694.20	391.08
694.53	389.04
694.87	386.91
695.21	384.84
695.54	382.70
695.88	380.67
696.21	378.70
696.55	376.77
696.88	374.81
697.22	372.92
697.56	371.04
697.89	369.14
698.23	367.28
698.56	365.40
698.90	363.56
699.23	361.65
699.57	359.87
699.90	358.04
700.24	356.26
700.58	354.57
700.91	352.90
701.25	351.24
701.58	349.64
701.92	348.11
702.25	346.58
702.59	345.03
702.92	343.56
703.26	342.06
703.59	340.63
703.93	339.28
704.26	337.92
704.60	336.43
704.93	335.00
705.26	333.59
705.60	332.27
705.93	330.94
706.27	329.79
706.60	328.56
706.94	327.35
707.27	326.07
707.61	324.82
707.94	323.66
708.27	322.38
708.61	321.15
708.94	319.96
709.28	318.80
709.61	317.70
709.94	316.60
710.28	315.43
710.61	314.27
710.95	313.05
711.28	311.96
711.61	310.90
711.95	309.84
712.28	308.79
712.61	307.65
712.95	306.53
713.28	305.53
713.61	304.48
713.95	303.51
714.28	302.56
714.61	301.58
714.95	300.57
715.28	299.61
715.61	298.58
715.95	297.59
716.28	296.63
716.61	295.67
716.95	294.72
717.28	293.86
717.61	293.01
717.94	292.15
718.28	291.20
718.61	290.36
718.94	289.57
719.27	288.78
719.61	288.07
719.94	287.32
720.27	286.46
720.60	285.74
720.94	285.00
721.27	284.32
721.60	283.65
721.93	282.94
722.27	282.32
722.60	281.71
722.93	281.10
723.26	280.51
723.59	279.90
723.93	279.25
724.26	278.60
724.59	277.95
724.92	277.35
725.25	276.80
725.59	276.15
725.92	275.56
726.25	274.98
726.58	274.39
726.91	273.83
727.24	273.32
727.57	272.76
727.91	272.19
728.24	271.63
728.57	271.05
728.90	270.53
729.23	269.96
729.56	269.44
729.89	268.87
730.22	268.28
730.55	267.70
730.89	267.20
731.22	266.71
731.55	266.17
731.88	265.70
732.21	265.23
732.54	264.79
732.87	264.31
733.20	263.85
733.53	263.40
733.86	263.00
734.19	262.55
734.52	262.11
734.85	261.75
735.18	261.29
735.51	260.92
735.84	260.51
736.17	260.11
736.50	259.68
736.83	259.41
737.16	259.04
737.49	258.66
737.82	258.24
738.15	257.82
738.48	257.48
738.81	257.06
739.14	256.66
739.47	256.28
739.80	255.87
740.13	255.53
740.46	255.17
740.79	254.80
741.12	254.43
741.45	254.04
741.78	253.65
742.11	253.30
742.44	252.92
742.77	252.60
743.10	252.25
743.43	251.89
743.75	251.43
744.08	251.26
744.41	250.95
744.74	250.64
745.07	250.35
745.40	250.05
745.73	249.80
746.06	249.50
746.39	249.20
746.71	248.91
747.04	248.58
747.37	248.28
747.70	247.96
748.03	247.67
748.36	247.40
748.68	247.12
749.01	246.84
749.34	246.59
749.67	246.31
750.00	246.08
750.33	245.88
750.65	245.68
750.98	245.27
751.31	245.03
751.64	244.78
751.97	244.61
752.29	244.36
752.62	244.08
752.95	243.85
753.28	243.62
753.60	243.36
753.93	243.16
754.26	242.92
754.59	242.68
754.91	242.44
755.24	242.21
755.57	242.00
755.90	241.76
756.22	241.52
756.55	241.29
756.88	240.99
757.20	240.74
757.53	240.49
757.86	240.34
758.19	240.11
758.51	239.94
758.84	239.67
759.17	239.50
759.49	239.32
759.82	239.19
760.15	239.01
760.47	238.86
760.80	238.66
761.13	238.52
761.45	238.32
761.78	238.15
762.11	238.00
762.43	237.81
762.76	237.65
763.08	237.50
763.41	237.37
763.74	237.25
764.06	237.09
764.39	236.95
764.71	236.74
765.04	236.56
765.37	236.38
765.69	236.23
766.02	236.06
766.34	235.91
766.67	235.71
767.00	235.59
767.32	235.52
767.65	235.44
767.97	235.30
768.30	235.20
768.62	235.08
768.95	234.93
769.27	234.84
769.60	234.73
769.92	234.56
770.25	234.41
770.57	234.28
770.90	234.14
771.22	234.01
771.55	233.94
771.87	233.85
772.20	233.74
772.52	233.71
772.85	233.74
773.17	233.59
773.50	233.47
773.82	233.38
774.15	233.23
774.47	233.08
774.80	232.95
775.12	232.83
775.45	232.74
775.77	232.65
776.09	232.56
776.42	232.47
776.74	232.47
777.07	232.36
777.39	232.28
777.72	232.19
778.04	232.12
778.36	232.01
778.69	231.93
779.01	231.88
779.33	231.71
779.66	231.50
779.98	231.42
780.31	231.35
780.63	231.28
780.95	231.23
781.28	231.14
781.60	231.06
781.92	231.00
782.25	230.92
782.57	230.86
782.89	230.77
783.22	230.71
783.54	230.59
783.86	230.56
784.19	230.52
784.51	230.50
784.83	230.43
785.16	230.36
785.48	230.35
785.80	230.31
786.12	230.24
786.45	230.19
786.77	230.20
787.09	230.13
787.42	230.06
787.74	229.99
788.06	229.97
788.38	229.94
788.71	229.87
789.03	229.84
789.35	229.83
789.67	229.77
789.99	229.75
790.32	229.74
790.64	229.71
790.96	229.74
791.28	229.67
791.61	229.65
791.93	229.61
792.25	229.52
792.57	229.53
792.89	229.49
793.21	229.49
793.54	229.41
793.86	229.38
794.18	229.34
794.50	229.28
794.82	229.25
795.14	229.20
795.47	229.22
795.79	229.15
796.11	229.08
796.43	229.06
796.75	228.99
797.07	228.93
797.39	228.88
797.71	228.78
798.04	228.76
798.36	228.75
798.68	228.72
799.00	228.70
799.32	228.62
799.64	228.64
799.96	228.59
800.28	228.57
800.60	228.54
800.92	228.51
801.24	228.49
801.56	228.47
801.89	228.43
802.21	228.41
802.53	228.39
802.85	228.35
803.17	228.36
803.49	228.35
803.81	228.32
804.13	228.30
804.45	228.24
804.77	228.20
805.09	228.13
805.41	228.07
805.73	228.04
806.05	228.00
806.37	227.95
806.69	227.92
807.01	227.89
807.33	227.88
807.65	227.80
807.97	227.79
808.28	227.72
808.60	227.69
808.92	227.64
809.24	227.68
809.56	227.66
809.88	227.60
810.20	227.56
810.52	227.52
810.84	227.46
811.16	227.42
811.48	227.35
811.80	227.36
812.12	227.37
812.43	227.34
812.75	227.28
813.07	227.22
813.39	227.16
813.71	227.09
814.03	227.05
814.35	227.03
814.67	226.96
814.98	226.93
815.30	226.88
815.62	226.81
815.94	226.71
816.26	226.73
816.58	226.68
816.89	226.63
817.21	226.59
817.53	226.54
817.85	226.51
818.17	226.51
818.48	226.44
818.80	226.41
819.12	226.34
819.44	226.33
819.76	226.32
820.07	226.29
820.39	226.29
820.71	226.27
821.03	226.24
821.34	226.23
821.66	226.22
821.98	226.22
822.30	226.23
822.61	226.26
822.93	226.20
823.25	226.18
823.57	226.17
823.88	226.16
824.20	226.18
824.52	226.19
824.83	226.18
825.15	226.17
825.47	226.16
825.79	226.19
826.10	226.17
826.42	226.13
826.74	226.10
827.05	226.05
827.37	226.02
827.69	226.04
828.00	226.03
828.32	226.00
828.64	225.95
828.95	226.00
829.27	225.98
829.58	225.95
829.90	225.96
830.22	225.97
830.53	225.93
830.85	225.92
831.17	225.91
831.48	225.89
831.80	225.90
832.11	225.88
832.43	225.83
832.75	225.83
833.06	225.90
833.38	225.91
833.69	225.90
834.01	225.90
834.32	225.86
834.64	225.84
834.96	225.87
835.27	225.91
835.59	225.86
835.90	225.82
836.22	225.82
836.53	225.81
836.85	225.76
837.16	225.87
837.48	225.85
837.79	225.87
838.11	225.90
838.42	225.83
838.74	225.85
839.05	225.84
839.37	225.85
839.68	225.77
840.00	225.79
840.31	225.82
840.63	225.83
840.94	225.83
841.26	225.83
841.57	225.76
841.88	225.75
842.20	225.72
842.51	225.66
842.83	225.66
843.14	225.73
843.46	225.73
843.77	225.67
844.08	225.65
844.40	225.59
844.71	225.56
845.03	225.59
845.34	225.60
845.65	225.60
845.97	225.59
846.28	225.59
846.60	225.58
846.91	225.57
847.22	225.54
847.54	225.55
847.85	225.55
848.16	225.57
848.48	225.58
848.79	225.59
849.10	225.61
849.42	225.60
849.73	225.50
850.04	225.52
850.36	225.48
850.67	225.49
850.98	225.51
851.30	225.51
851.61	225.49
851.92	225.45
852.23	225.45
852.55	225.41
852.86	225.40
853.17	225.39
853.49	225.41
853.80	225.45
854.11	225.45
854.42	225.47
854.74	225.46
855.05	225.41
855.36	225.37
855.67	225.39
855.99	225.39
856.30	225.49
856.61	225.49
856.92	225.48
857.23	225.47
857.55	225.46
857.86	225.42
858.17	225.44
858.48	225.37
858.79	225.37
859.11	225.38
859.42	225.38
859.73	225.30
860.04	225.26
860.35	225.22
860.66	225.20
860.98	225.17
861.29	225.17
861.60	225.14
861.91	225.16
862.22	225.15
862.53	225.12
862.84	225.03
863.16	225.03
863.47	225.02
863.78	225.04
864.09	225.02
864.40	225.00
864.71	224.99
865.02	225.03
865.33	225.02
865.64	225.02
865.95	225.03
866.27	225.15
866.58	225.14
866.89	225.15
867.20	225.13
867.51	225.12
867.82	225.11
868.13	225.16
868.44	225.16
868.75	225.20
869.06	225.21
869.37	225.20
869.68	225.17
869.99	225.18
870.30	225.16
870.61	225.17
870.92	225.21
871.23	225.25
871.54	225.27
871.85	225.27
872.16	225.29
872.47	225.30
872.78	225.21
873.09	225.21
873.40	225.19
873.71	225.23
874.02	225.27
874.33	225.28
874.64	225.23
874.95	225.24
875.26	225.20
875.56	225.20
875.87	225.19
876.18	225.20
876.49	225.26
876.80	225.27
877.11	225.23
877.42	225.20
877.73	225.18
878.04	225.18
878.35	225.18
878.66	225.17
878.96	225.15
879.27	225.18
879.58	225.15
879.89	225.20
880.20	225.21
880.51	225.18
880.82	225.16
881.12	225.16
881.43	225.15
881.74	225.14
882.05	225.14
882.36	225.15
882.67	225.13
882.97	225.03
883.28	225.03
883.59	225.04
883.90	225.07
884.21	225.09
884.51	225.10
884.82	225.08
885.13	225.07
885.44	225.07
885.74	225.04
886.05	225.06
886.36	225.04
886.67	225.02
886.98	225.05
887.28	225.07
887.59	225.06
887.90	225.03
888.20	225.05
888.51	225.08
888.82	225.03
889.13	225.05
889.43	225.13
889.74	225.10
890.05	225.09
890.35	225.03
890.66	225.00
890.97	224.98
891.28	224.97
891.58	224.99
891.89	224.98
892.20	224.96
892.50	224.94
892.81	224.91
893.12	224.88
893.42	224.81
893.73	224.81
894.04	224.82
894.34	224.86
894.65	224.81
894.95	224.76
895.26	224.83
895.57	224.86
895.87	224.79
896.18	224.78
896.48	224.78
896.79	224.80
897.10	224.78
897.40	224.76
897.71	224.74
898.01	224.69
898.32	224.72
898.63	224.73
898.93	224.72
899.24	224.74
899.54	224.72
899.85	224.77
900.15	224.75
900.46	224.77
900.76	224.78
901.07	224.79
901.38	224.80
901.68	224.77
901.99	224.73
902.29	224.74
902.60	224.78
902.90	224.80
903.21	224.80
903.51	224.84
903.82	224.89
904.12	224.94
904.43	224.96
904.73	224.95
905.03	224.98
905.34	225.09
905.64	225.09
905.95	225.12
906.25	225.11
906.56	225.13
906.86	225.13
907.17	225.11
907.47	225.15
907.77	225.12
908.08	225.10
908.38	225.12
908.69	225.12
908.99	225.10
909.30	225.10
909.60	225.13
909.90	225.11
910.21	225.07
910.51	225.04
910.81	225.05
911.12	225.03
911.42	225.01
911.73	224.90
912.03	224.89
912.33	224.88
912.64	224.85
912.94	224.83
913.24	224.79
913.55	224.77
913.85	224.75
914.15	224.79
914.46	224.82
914.76	224.81
915.06	224.79
915.37	224.82
915.67	224.81
915.97	224.79
916.27	224.77
916.58	224.77
916.88	224.76
917.18	224.76
917.49	224.86
917.79	224.87
918.09	224.87
918.39	224.90
918.70	224.93
919.00	224.92
919.30	224.96
919.60	224.96
919.91	224.95
920.21	224.95
920.51	224.90
920.81	224.87
921.12	224.87
921.42	224.87
921.72	224.82
922.02	224.83
922.32	224.83
922.63	224.81
922.93	224.87
923.23	224.85
923.53	224.83
923.83	224.73
924.13	224.71
924.44	224.70
924.74	224.70
925.04	224.67
925.34	224.69
925.64	224.65
925.94	224.64
926.24	224.69
926.55	224.66
926.85	224.70
927.15	224.69
927.45	224.70
927.75	224.68
928.05	224.71
928.35	224.67
928.65	224.69
928.95	224.70
929.26	224.65
929.56	224.70
929.86	224.68
930.16	224.70
930.46	224.68
930.76	224.72
931.06	224.69
931.36	224.69
931.66	224.66
931.96	224.68
932.26	224.69
932.56	224.67
932.86	224.69
933.16	224.69
933.46	224.72
933.76	224.68
934.06	224.70
934.36	224.73
934.66	224.73
934.96	224.70
935.26	224.70
935.56	224.68
935.86	224.65
936.16	224.65
936.46	224.64
936.76	224.66
937.06	224.65
937.36	224.63
937.66	224.63
937.96	224.67
938.26	224.66
938.56	224.64
938.86	224.62
939.16	224.65
939.46	224.66
939.76	224.66
940.06	224.65
940.35	224.65
940.65	224.62
940.95	224.67
941.25	224.67
941.55	224.71
941.85	224.73
942.15	224.78
942.45	224.84
942.75	224.81
943.04	224.83
943.34	224.84
943.64	224.84
943.94	224.83
944.24	224.84
944.54	224.83
944.84	224.87
945.13	224.88
945.43	224.85
945.73	224.84
946.03	224.80
946.33	224.82
946.62	224.79
946.92	224.80
947.22	224.78
947.52	224.78
947.82	224.76
948.11	224.75
948.41	224.71
948.71	224.67
949.01	224.75
949.31	224.71
949.60	224.70
949.90	224.76
950.20	224.73
950.50	224.72
950.79	224.72
951.09	224.74
951.39	224.72
951.69	224.73
951.98	224.75
952.28	224.76
952.58	224.74
952.87	224.77
953.17	224.78
953.47	224.79
953.76	224.78
954.06	224.76
954.36	224.75
954.66	224.75
954.95	224.78
955.25	224.77
955.55	224.78
955.84	224.79
956.14	224.76
956.44	224.78
956.73	224.74
957.03	224.74
957.32	224.72
957.62	224.68
957.92	224.68
958.21	224.67
958.51	224.77
958.81	224.77
959.10	224.75
959.40	224.76
959.69	224.72
959.99	224.72
960.29	224.74
960.58	224.73
960.88	224.73
961.17	224.69
961.47	224.67
961.76	224.66
962.06	224.62
962.36	224.60
962.65	224.59
962.95	224.58
963.24	224.56
963.54	224.56
963.83	224.60
964.13	224.60
964.42	224.55
964.72	224.50
965.01	224.49
965.31	224.48
965.60	224.43
965.90	224.50
966.19	224.48
966.49	224.45
966.78	224.46
967.08	224.46
967.37	224.46
967.67	224.43
967.96	224.41
968.26	224.40
968.55	224.42
968.85	224.45
969.14	224.47
969.43	224.49
969.73	224.49
970.02	224.45
970.32	224.42
970.61	224.43
970.91	224.37
971.20	224.36
971.49	224.37
971.79	224.37
972.08	224.30
972.38	224.30
972.67	224.35
972.96	224.33
973.26	224.31
973.55	224.35
973.85	224.33
974.14	224.36
974.43	224.38
974.73	224.37
975.02	224.33
975.31	224.32
975.61	224.31
975.90	224.31
976.19	224.36
976.49	224.39
976.78	224.40
977.07	224.40
977.37	224.43
977.66	224.42
977.95	224.40
978.24	224.42
978.54	224.44
978.83	224.41
979.12	224.41
979.42	224.43
979.71	224.41
980.00	224.43
980.29	224.45
980.59	224.44
980.88	224.46
981.17	224.44
981.46	224.47
981.76	224.47
982.05	224.50
982.34	224.49
982.63	224.48
982.93	224.46
983.22	224.49
983.51	224.49
983.80	224.55
984.09	224.60
984.39	224.63
984.68	224.63
984.97	224.64
985.26	224.65
985.55	224.66
985.85	224.67
986.14	224.68
986.43	224.69
986.72	224.70
987.01	224.70
987.30	224.73
987.59	224.73
987.89	224.75
988.18	224.73
988.47	224.74
988.76	224.78
989.05	224.81
989.34	224.81
989.63	224.85
989.92	224.82
990.22	224.79
990.51	224.73
990.80	224.75
991.09	224.74
991.38	224.78
991.67	224.81
991.96	224.78
992.25	224.79
992.54	224.75
992.83	224.76
993.12	224.77
993.41	224.78
993.70	224.83
993.99	224.84
994.28	224.86
994.58	224.84
994.87	224.82
995.16	224.82
995.45	224.81
995.74	224.77
996.03	224.77
996.32	224.79
996.61	224.84
996.90	224.82
997.19	224.83
997.48	224.80
997.77	224.76
998.06	224.79
998.34	224.79
998.63	224.79
998.92	224.80
999.21	224.79
999.50	224.76
999.79	224.70
1000.08	224.70
1000.37	224.69
1000.66	224.71
1000.95	224.72
1001.24	224.72
1001.53	224.72
1001.82	224.74
1002.11	224.72
1002.40	224.73
1002.68	224.78
1002.97	224.89
1003.26	224.88
1003.55	224.85
1003.84	224.87
1004.13	224.89
1004.42	224.91
1004.71	224.94
1004.99	224.92
1005.28	224.94
1005.57	224.96
1005.86	224.97
1006.15	224.95
1006.44	224.95
1006.72	224.97
1007.01	224.94
1007.30	224.94
1007.59	224.95
1007.88	224.93
1008.17	224.92
1008.45	224.92
1008.74	224.83
1009.03	224.76
1009.32	224.78
1009.60	224.77
1009.89	224.77
1010.18	224.73
1010.47	224.71
1010.76	224.70
1011.04	224.68
1011.33	224.71
1011.62	224.74
1011.91	224.74
1012.19	224.75
1012.48	224.71
1012.77	224.70
1013.05	224.78
1013.34	224.82
1013.63	224.83
1013.92	224.83
1014.20	224.83
1014.49	224.83
1014.78	224.84
1015.06	224.81
1015.35	224.80
1015.64	224.81
1015.92	224.80
1016.21	224.77
1016.50	224.75
1016.78	224.75
1017.07	224.76
1017.36	224.72
1017.64	224.68
1017.93	224.69
1018.22	224.70
1018.50	224.70
1018.79	224.69
1019.08	224.61
1019.36	224.58
1019.65	224.55
1019.93	224.55
1020.22	224.57
1020.51	224.63
1020.79	224.61
1021.08	225.00
1021.36	223.98
1021.65	224.59
1021.94	224.72
1022.22	224.72
1022.51	224.31
1022.79	224.82
1023.08	224.79
1023.36	226.12
1023.65	224.18
>>>>>End Processed Spectral Data<<<<<
