SpectraSuite Data File
++++++++++++++++++++++++++++++++++++
Date: Fri Feb 01 16:20:12 EST 2013
User: group
Dark Spectrum Present: No
Reference Spectrum Present: No
Number of Sampled Component Spectra: 1
Spectrometers: USB2E7196
Integration Time (usec): 35000 (USB2E7196)
Spectra Averaged: 100 (USB2E7196)
Boxcar Smoothing: 10 (USB2E7196)
Correct for Electrical Dark: No (USB2E7196)
Strobe/Lamp Enabled: No (USB2E7196)
Correct for Detector Non-linearity: No (USB2E7196)
Correct for Stray Light: No (USB2E7196)
Number of Pixels in Processed Spectrum: 2048
>>>>>Begin Processed Spectral Data<<<<<
339.09	0.00
339.48	214.22
339.86	215.66
340.24	216.84
340.63	218.38
341.01	221.51
341.39	221.14
341.78	221.94
342.16	223.80
342.54	223.92
342.93	212.49
343.31	223.24
343.69	223.76
344.07	224.24
344.46	224.67
344.84	225.04
345.22	225.24
345.60	225.50
345.99	225.73
346.37	225.82
346.75	225.92
347.13	226.00
347.52	226.05
347.90	226.12
348.28	226.12
348.66	226.18
349.05	226.18
349.43	226.21
349.81	226.23
350.19	226.30
350.57	226.33
350.96	226.41
351.34	226.47
351.72	226.57
352.10	226.64
352.48	226.70
352.87	226.77
353.25	226.86
353.63	226.91
354.01	226.95
354.39	227.05
354.77	227.14
355.15	227.25
355.54	227.33
355.92	227.39
356.30	227.49
356.68	227.62
357.06	227.66
357.44	227.72
357.82	227.79
358.20	227.87
358.58	227.95
358.97	228.01
359.35	228.09
359.73	228.14
360.11	228.20
360.49	228.25
360.87	228.27
361.25	228.31
361.63	228.37
362.01	228.42
362.39	228.45
362.77	228.49
363.15	228.49
363.53	228.51
363.91	228.53
364.29	228.55
364.67	228.46
365.05	228.51
365.43	228.53
365.81	228.56
366.19	228.59
366.57	228.60
366.95	228.56
367.33	228.54
367.71	228.54
368.09	228.53
368.47	228.52
368.85	228.53
369.23	228.54
369.61	228.49
369.99	228.50
370.37	228.47
370.75	228.47
371.13	228.41
371.51	228.35
371.89	228.31
372.27	228.23
372.65	228.19
373.03	228.14
373.41	228.06
373.78	228.01
374.16	227.90
374.54	227.83
374.92	227.76
375.30	227.73
375.68	227.64
376.06	227.59
376.44	227.53
376.82	227.45
377.19	227.36
377.57	227.27
377.95	227.15
378.33	227.08
378.71	226.97
379.09	226.94
379.47	226.86
379.84	226.81
380.22	226.74
380.60	226.65
380.98	226.60
381.36	226.57
381.73	226.48
382.11	226.46
382.49	226.40
382.87	226.35
383.25	226.29
383.62	226.35
384.00	226.28
384.38	226.20
384.76	226.18
385.13	226.14
385.51	226.10
385.89	226.05
386.27	226.01
386.64	225.97
387.02	225.89
387.40	225.89
387.78	225.83
388.15	225.81
388.53	225.80
388.91	225.77
389.29	225.71
389.66	225.71
390.04	225.67
390.42	225.64
390.79	225.59
391.17	225.56
391.55	225.43
391.92	225.42
392.30	225.46
392.68	225.45
393.05	225.47
393.43	225.48
393.81	225.49
394.18	225.48
394.56	225.50
394.94	225.55
395.31	225.55
395.69	225.60
396.06	225.64
396.44	225.67
396.82	225.65
397.19	225.73
397.57	225.76
397.95	225.82
398.32	225.85
398.70	225.95
399.07	226.03
399.45	226.07
399.82	226.11
400.20	226.15
400.58	226.20
400.95	226.23
401.33	226.33
401.70	226.45
402.08	226.55
402.45	226.64
402.83	226.75
403.20	226.85
403.58	226.92
403.95	227.02
404.33	227.16
404.71	227.32
405.08	227.51
405.46	227.63
405.83	227.75
406.21	227.90
406.58	228.04
406.96	228.18
407.33	228.39
407.70	228.59
408.08	228.86
408.45	229.08
408.83	229.33
409.20	229.53
409.58	229.71
409.95	229.97
410.33	230.24
410.70	230.49
411.08	230.80
411.45	231.15
411.82	231.46
412.20	231.80
412.57	232.20
412.95	232.49
413.32	232.92
413.69	233.32
414.07	233.76
414.44	234.21
414.82	234.67
415.19	235.25
415.56	235.82
415.94	236.36
416.31	236.99
416.68	237.62
417.06	238.34
417.43	239.01
417.81	239.78
418.18	240.57
418.55	241.39
418.93	242.26
419.30	243.14
419.67	244.11
420.04	245.06
420.42	246.05
420.79	247.23
421.16	248.36
421.54	249.54
421.91	250.76
422.28	252.03
422.66	253.37
423.03	254.64
423.40	255.98
423.77	257.39
424.15	258.82
424.52	260.32
424.89	261.97
425.26	263.54
425.64	264.97
426.01	266.54
426.38	268.22
426.75	269.88
427.13	271.59
427.50	273.42
427.87	275.27
428.24	277.15
428.61	278.92
428.99	280.85
429.36	282.96
429.73	285.00
430.10	287.07
430.47	289.13
430.85	291.25
431.22	293.49
431.59	295.90
431.96	298.14
432.33	300.60
432.70	302.91
433.08	305.75
433.45	308.41
433.82	311.02
434.19	313.86
434.56	316.69
434.93	319.34
435.30	321.92
435.68	324.86
436.05	327.64
436.42	330.39
436.79	332.94
437.16	335.68
437.53	338.48
437.90	341.27
438.27	343.99
438.64	346.77
439.01	349.37
439.38	351.54
439.75	353.68
440.13	356.15
440.50	358.48
440.87	360.27
441.24	362.24
441.61	364.39
441.98	365.88
442.35	367.64
442.72	369.51
443.09	371.31
443.46	372.25
443.83	372.84
444.20	373.36
444.57	374.14
444.94	374.41
445.31	374.73
445.68	375.09
446.05	375.14
446.42	374.74
446.79	374.30
447.16	373.88
447.53	373.57
447.90	372.44
448.27	371.28
448.64	369.70
449.01	368.49
449.37	366.51
449.74	364.59
450.11	362.33
450.48	359.81
450.85	357.23
451.22	355.10
451.59	353.08
451.96	351.11
452.33	348.52
452.70	346.15
453.07	343.37
453.43	340.46
453.80	337.72
454.17	335.08
454.54	332.58
454.91	329.82
455.28	327.17
455.65	324.68
456.02	322.25
456.38	320.17
456.75	317.54
457.12	315.32
457.49	313.12
457.86	310.97
458.23	309.15
458.59	307.19
458.96	305.09
459.33	303.25
459.70	301.41
460.07	299.93
460.43	298.21
460.80	296.58
461.17	295.13
461.54	293.67
461.91	292.22
462.27	290.75
462.64	289.56
463.01	288.20
463.38	286.91
463.74	285.55
464.11	284.39
464.48	283.35
464.85	282.26
465.21	281.41
465.58	280.49
465.95	279.40
466.32	278.48
466.68	277.61
467.05	276.75
467.42	275.87
467.78	274.96
468.15	274.12
468.52	273.49
468.88	272.64
469.25	271.84
469.62	271.24
469.98	270.57
470.35	269.90
470.72	269.33
471.08	268.70
471.45	268.17
471.82	267.61
472.18	267.03
472.55	266.57
472.92	266.07
473.28	265.62
473.65	265.18
474.02	264.75
474.38	264.39
474.75	264.07
475.11	263.73
475.48	263.50
475.85	263.29
476.21	263.03
476.58	262.89
476.94	262.78
477.31	262.61
477.67	262.48
478.04	262.39
478.41	262.32
478.77	262.36
479.14	262.29
479.50	262.32
479.87	262.39
480.23	262.49
480.60	262.56
480.96	262.63
481.33	262.83
481.69	263.07
482.06	263.28
482.42	263.47
482.79	263.74
483.15	264.06
483.52	264.43
483.88	264.77
484.25	265.16
484.61	265.59
484.98	266.06
485.34	266.67
485.71	267.29
486.07	267.90
486.44	268.48
486.80	269.20
487.17	269.92
487.53	270.75
487.90	271.65
488.26	272.59
488.62	273.60
488.99	274.59
489.35	275.60
489.72	276.71
490.08	277.91
490.44	279.18
490.81	280.51
491.17	281.84
491.54	283.35
491.90	284.89
492.26	286.51
492.63	288.26
492.99	289.96
493.36	291.82
493.72	293.84
494.08	295.96
494.45	298.19
494.81	300.58
495.17	303.03
495.54	305.52
495.90	308.19
496.26	310.95
496.63	313.91
496.99	317.02
497.35	320.28
497.72	323.68
498.08	327.18
498.44	330.88
498.80	334.83
499.17	338.86
499.53	343.05
499.89	347.43
500.26	351.97
500.62	356.68
500.98	361.68
501.34	366.80
501.71	372.15
502.07	377.60
502.43	383.27
502.79	389.10
503.16	395.22
503.52	401.51
503.88	407.96
504.24	414.60
504.60	421.52
504.97	428.69
505.33	435.98
505.69	443.63
506.05	451.39
506.41	459.27
506.78	467.47
507.14	475.92
507.50	484.66
507.86	493.67
508.22	502.93
508.59	512.17
508.95	521.73
509.31	531.50
509.67	541.64
510.03	551.86
510.39	562.35
510.75	573.16
511.12	584.13
511.48	595.44
511.84	606.88
512.20	618.38
512.56	630.24
512.92	642.49
513.28	654.92
513.64	667.35
514.00	680.08
514.37	692.93
514.73	705.99
515.09	718.98
515.45	732.33
515.81	745.85
516.17	759.76
516.53	773.93
516.89	788.10
517.25	802.23
517.61	816.71
517.97	831.19
518.33	845.67
518.69	860.36
519.05	875.35
519.41	890.55
519.77	906.06
520.13	921.58
520.49	936.92
520.85	952.26
521.21	967.93
521.57	984.08
521.93	999.86
522.29	1016.17
522.65	1032.45
523.01	1048.60
523.37	1064.67
523.73	1080.86
524.09	1096.91
524.45	1113.23
524.81	1129.78
525.17	1146.52
525.53	1163.43
525.89	1180.09
526.25	1196.95
526.61	1213.19
526.97	1229.94
527.33	1246.32
527.68	1262.78
528.04	1279.13
528.40	1295.64
528.76	1312.70
529.12	1329.31
529.48	1346.10
529.84	1362.07
530.20	1378.63
530.56	1395.43
530.91	1412.71
531.27	1429.37
531.63	1445.71
531.99	1462.15
532.35	1478.05
532.71	1493.87
533.07	1510.04
533.42	1525.85
533.78	1541.76
534.14	1558.09
534.50	1573.35
534.86	1589.21
535.21	1604.42
535.57	1620.34
535.93	1635.94
536.29	1650.60
536.65	1665.51
537.00	1680.27
537.36	1695.58
537.72	1710.01
538.08	1724.49
538.44	1738.19
538.79	1752.01
539.15	1765.66
539.51	1779.29
539.87	1793.58
540.22	1807.17
540.58	1820.81
540.94	1834.15
541.29	1847.05
541.65	1859.65
542.01	1872.68
542.37	1884.87
542.72	1897.27
543.08	1909.03
543.44	1921.22
543.79	1932.44
544.15	1943.39
544.51	1954.91
544.87	1965.71
545.22	1976.55
545.58	1986.77
545.94	1996.56
546.29	2006.31
546.65	2016.10
547.01	2025.36
547.36	2033.95
547.72	2042.46
548.07	2050.14
548.43	2058.18
548.79	2066.19
549.14	2073.69
549.50	2081.00
549.86	2088.71
550.21	2096.01
550.57	2103.07
550.92	2109.62
551.28	2116.62
551.64	2123.67
551.99	2130.22
552.35	2136.50
552.70	2142.48
553.06	2148.31
553.41	2154.51
553.77	2160.46
554.13	2166.43
554.48	2172.57
554.84	2178.17
555.19	2183.48
555.55	2188.79
555.90	2193.42
556.26	2198.30
556.61	2202.96
556.97	2207.30
557.32	2211.29
557.68	2215.35
558.03	2219.75
558.39	2223.33
558.74	2227.89
559.10	2231.67
559.45	2235.23
559.81	2239.46
560.16	2243.33
560.52	2246.49
560.87	2249.99
561.23	2252.71
561.58	2255.72
561.94	2258.26
562.29	2260.58
562.64	2263.31
563.00	2265.88
563.35	2269.31
563.71	2272.33
564.06	2275.48
564.42	2278.47
564.77	2281.08
565.12	2283.39
565.48	2285.27
565.83	2287.26
566.19	2288.68
566.54	2289.68
566.89	2290.75
567.25	2291.29
567.60	2292.66
567.96	2294.46
568.31	2295.35
568.66	2296.57
569.02	2297.17
569.37	2297.45
569.72	2298.21
570.08	2298.14
570.43	2298.19
570.78	2297.68
571.14	2296.27
571.49	2294.95
571.84	2294.54
572.20	2293.63
572.55	2292.65
572.90	2291.19
573.26	2289.83
573.61	2288.19
573.96	2286.53
574.31	2283.77
574.67	2280.77
575.02	2277.20
575.37	2273.82
575.72	2270.05
576.08	2266.72
576.43	2263.48
576.78	2259.93
577.13	2256.95
577.49	2253.94
577.84	2250.67
578.19	2246.98
578.54	2243.43
578.90	2239.37
579.25	2233.82
579.60	2228.83
579.95	2223.75
580.30	2218.83
580.66	2213.67
581.01	2208.63
581.36	2203.67
581.71	2199.54
582.06	2195.13
582.42	2190.83
582.77	2185.70
583.12	2181.25
583.47	2176.67
583.82	2171.74
584.17	2166.46
584.53	2160.93
584.88	2155.43
585.23	2149.59
585.58	2144.23
585.93	2138.79
586.28	2134.08
586.63	2129.13
586.98	2124.05
587.34	2119.52
587.69	2114.64
588.04	2109.48
588.39	2104.06
588.74	2097.65
589.09	2091.55
589.44	2084.92
589.79	2078.82
590.14	2073.33
590.49	2066.81
590.84	2060.37
591.19	2054.27
591.54	2047.90
591.89	2040.60
592.25	2033.82
592.60	2026.63
592.95	2019.07
593.30	2011.69
593.65	2004.13
594.00	1997.15
594.35	1989.91
594.70	1981.92
595.05	1974.71
595.40	1967.43
595.75	1959.91
596.10	1953.77
596.45	1947.10
596.80	1940.92
597.15	1934.33
597.50	1927.27
597.85	1920.80
598.19	1914.15
598.54	1907.02
598.89	1900.54
599.24	1894.78
599.59	1888.15
599.94	1882.08
600.29	1875.77
600.64	1869.34
600.99	1861.86
601.34	1855.06
601.69	1848.15
602.04	1841.32
602.39	1833.95
602.74	1827.31
603.08	1820.50
603.43	1813.79
603.78	1806.46
604.13	1799.40
604.48	1792.16
604.83	1785.23
605.18	1778.29
605.53	1770.25
605.87	1762.39
606.22	1755.06
606.57	1747.13
606.92	1739.82
607.27	1732.59
607.62	1725.63
607.96	1718.32
608.31	1711.78
608.66	1704.21
609.01	1696.58
609.36	1688.95
609.70	1680.95
610.05	1672.71
610.40	1665.13
610.75	1656.85
611.10	1649.23
611.44	1640.67
611.79	1632.67
612.14	1623.93
612.49	1614.80
612.83	1606.62
613.18	1598.52
613.53	1590.45
613.88	1581.83
614.22	1573.56
614.57	1564.92
614.92	1556.95
615.27	1549.30
615.61	1540.89
615.96	1532.79
616.31	1525.21
616.65	1517.92
617.00	1510.38
617.35	1502.80
617.70	1494.45
618.04	1485.98
618.39	1477.73
618.74	1470.10
619.08	1461.78
619.43	1454.34
619.78	1447.45
620.12	1440.17
620.47	1432.60
620.82	1424.37
621.16	1417.00
621.51	1409.37
621.85	1401.86
622.20	1393.32
622.55	1384.88
622.89	1377.06
623.24	1369.41
623.59	1362.04
623.93	1354.39
624.28	1347.22
624.62	1339.67
624.97	1332.52
625.32	1325.72
625.66	1318.63
626.01	1311.55
626.35	1304.12
626.70	1296.27
627.04	1288.39
627.39	1280.59
627.73	1273.17
628.08	1266.28
628.43	1258.98
628.77	1251.46
629.12	1243.86
629.46	1236.66
629.81	1229.38
630.15	1222.16
630.50	1214.71
630.84	1206.52
631.19	1198.62
631.53	1190.98
631.88	1183.43
632.22	1175.75
632.57	1168.33
632.91	1160.88
633.26	1153.44
633.60	1146.03
633.95	1138.97
634.29	1132.09
634.64	1125.42
634.98	1118.00
635.32	1110.81
635.67	1104.22
636.01	1097.63
636.36	1090.74
636.70	1084.16
637.05	1077.60
637.39	1071.14
637.73	1064.79
638.08	1058.92
638.42	1052.90
638.77	1046.48
639.11	1039.87
639.45	1033.55
639.80	1026.96
640.14	1020.46
640.49	1013.95
640.83	1007.62
641.17	1001.34
641.52	994.90
641.86	988.44
642.20	982.58
642.55	976.33
642.89	969.80
643.23	963.31
643.58	957.60
643.92	951.51
644.26	945.38
644.61	939.33
644.95	933.20
645.29	926.55
645.64	919.79
645.98	913.42
646.32	907.63
646.66	901.53
647.01	895.67
647.35	889.94
647.69	883.99
648.04	878.45
648.38	872.66
648.72	866.68
649.06	860.63
649.41	854.73
649.75	848.79
650.09	842.85
650.43	837.07
650.78	830.84
651.12	824.72
651.46	818.96
651.80	813.22
652.14	807.83
652.49	802.50
652.83	797.36
653.17	791.70
653.51	785.95
653.85	780.55
654.20	774.97
654.54	768.95
654.88	763.27
655.22	757.38
655.56	751.68
655.90	746.25
656.25	741.01
656.59	735.62
656.93	730.52
657.27	725.35
657.61	719.96
657.95	714.93
658.29	709.93
658.64	704.68
658.98	699.40
659.32	693.88
659.66	688.63
660.00	683.29
660.34	678.38
660.68	673.44
661.02	668.35
661.36	663.55
661.70	659.03
662.05	654.71
662.39	650.44
662.73	645.96
663.07	641.48
663.41	637.02
663.75	632.58
664.09	627.92
664.43	623.55
664.77	619.35
665.11	615.02
665.45	610.87
665.79	606.80
666.13	602.65
666.47	598.59
666.81	594.45
667.15	590.33
667.49	586.35
667.83	582.58
668.17	578.62
668.51	574.62
668.85	570.63
669.19	566.70
669.53	562.77
669.87	558.90
670.21	555.23
670.55	551.60
670.89	548.15
671.23	544.72
671.57	541.23
671.91	537.71
672.25	534.21
672.58	530.71
672.92	527.30
673.26	524.11
673.60	520.98
673.94	517.87
674.28	514.97
674.62	511.97
674.96	508.77
675.30	505.92
675.64	502.93
675.97	500.17
676.31	497.33
676.65	494.48
676.99	491.74
677.33	488.84
677.67	486.00
678.01	482.95
678.34	480.04
678.68	477.14
679.02	474.32
679.36	471.50
679.70	468.73
680.04	466.00
680.37	463.09
680.71	460.25
681.05	457.57
681.39	454.86
681.73	452.23
682.06	449.68
682.40	447.11
682.74	444.62
683.08	442.07
683.42	439.45
683.75	436.90
684.09	434.39
684.43	431.94
684.77	429.45
685.10	427.14
685.44	424.85
685.78	422.58
686.12	420.30
686.45	418.07
686.79	415.79
687.13	413.56
687.46	411.41
687.80	409.28
688.14	407.10
688.48	405.03
688.81	402.77
689.15	400.63
689.49	398.50
689.82	396.38
690.16	394.34
690.50	392.42
690.83	390.45
691.17	388.40
691.51	386.49
691.84	384.65
692.18	382.71
692.52	380.68
692.85	378.76
693.19	376.90
693.52	375.06
693.86	373.28
694.20	371.51
694.53	369.70
694.87	367.81
695.21	366.01
695.54	364.12
695.88	362.41
696.21	360.69
696.55	358.98
696.88	357.25
697.22	355.54
697.56	353.86
697.89	352.22
698.23	350.67
698.56	349.09
698.90	347.50
699.23	345.84
699.57	344.30
699.90	342.73
700.24	341.14
700.58	339.62
700.91	338.07
701.25	336.61
701.58	335.24
701.92	333.88
702.25	332.50
702.59	331.14
702.92	329.83
703.26	328.54
703.59	327.28
703.93	326.15
704.26	324.89
704.60	323.61
704.93	322.33
705.26	321.06
705.60	319.88
705.93	318.78
706.27	317.77
706.60	316.71
706.94	315.65
707.27	314.52
707.61	313.46
707.94	312.47
708.27	311.38
708.61	310.32
708.94	309.33
709.28	308.38
709.61	307.45
709.94	306.52
710.28	305.51
710.61	304.54
710.95	303.44
711.28	302.53
711.61	301.60
711.95	300.70
712.28	299.73
712.61	298.71
712.95	297.74
713.28	296.86
713.61	295.96
713.95	295.02
714.28	294.21
714.61	293.29
714.95	292.43
715.28	291.57
715.61	290.65
715.95	289.78
716.28	288.87
716.61	288.02
716.95	287.17
717.28	286.44
717.61	285.66
717.94	284.93
718.28	284.13
718.61	283.42
718.94	282.70
719.27	282.05
719.61	281.42
719.94	280.75
720.27	279.98
720.60	279.29
720.94	278.67
721.27	278.06
721.60	277.52
721.93	276.93
722.27	276.37
722.60	275.84
722.93	275.31
723.26	274.75
723.59	274.19
723.93	273.66
724.26	273.09
724.59	272.51
724.92	272.00
725.25	271.52
725.59	270.98
725.92	270.46
726.25	269.94
726.58	269.42
726.91	268.94
727.24	268.49
727.57	268.02
727.91	267.53
728.24	267.08
728.57	266.58
728.90	266.11
729.23	265.63
729.56	265.20
729.89	264.72
730.22	264.24
730.55	263.82
730.89	263.37
731.22	262.93
731.55	262.52
731.88	262.09
732.21	261.62
732.54	261.16
732.87	260.76
733.20	260.39
733.53	260.00
733.86	259.64
734.19	259.27
734.52	258.92
734.85	258.62
735.18	258.22
735.51	257.85
735.84	257.52
736.17	257.15
736.50	256.74
736.83	256.49
737.16	256.20
737.49	255.87
737.82	255.50
738.15	255.17
738.48	254.83
738.81	254.48
739.14	254.16
739.47	253.87
739.80	253.58
740.13	253.26
740.46	252.96
740.79	252.62
741.12	252.34
741.45	251.99
741.78	251.64
742.11	251.33
742.44	251.01
742.77	250.71
743.10	250.41
743.43	250.13
743.75	249.75
744.08	249.60
744.41	249.29
744.74	249.04
745.07	248.77
745.40	248.54
745.73	248.31
746.06	248.05
746.39	247.77
746.71	247.50
747.04	247.17
747.37	246.90
747.70	246.66
748.03	246.35
748.36	246.17
748.68	245.96
749.01	245.69
749.34	245.49
749.67	245.24
750.00	245.01
750.33	244.85
750.65	244.62
750.98	244.26
751.31	244.04
751.64	243.80
751.97	243.62
752.29	243.36
752.62	243.12
752.95	242.93
753.28	242.73
753.60	242.50
753.93	242.35
754.26	242.17
754.59	241.92
754.91	241.72
755.24	241.50
755.57	241.27
755.90	241.11
756.22	240.90
756.55	240.72
756.88	240.55
757.20	240.30
757.53	240.11
757.86	239.94
758.19	239.76
758.51	239.61
758.84	239.39
759.17	239.21
759.49	239.01
759.82	238.89
760.15	238.72
760.47	238.56
760.80	238.38
761.13	238.23
761.45	238.05
761.78	237.91
762.11	237.75
762.43	237.60
762.76	237.46
763.08	237.33
763.41	237.17
763.74	237.07
764.06	236.92
764.39	236.76
764.71	236.63
765.04	236.50
765.37	236.35
765.69	236.22
766.02	236.12
766.34	236.01
766.67	235.84
767.00	235.72
767.32	235.65
767.65	235.57
767.97	235.46
768.30	235.39
768.62	235.26
768.95	235.13
769.27	235.00
769.60	234.93
769.92	234.79
770.25	234.68
770.57	234.55
770.90	234.46
771.22	234.37
771.55	234.27
771.87	234.19
772.20	234.13
772.52	234.10
772.85	234.11
773.17	234.02
773.50	233.93
773.82	233.85
774.15	233.71
774.47	233.58
774.80	233.52
775.12	233.43
775.45	233.34
775.77	233.30
776.09	233.23
776.42	233.14
776.74	233.09
777.07	233.01
777.39	232.94
777.72	232.87
778.04	232.79
778.36	232.73
778.69	232.66
779.01	232.57
779.33	232.42
779.66	232.23
779.98	232.14
780.31	232.07
780.63	232.05
780.95	232.03
781.28	231.99
781.60	231.87
781.92	231.81
782.25	231.75
782.57	231.65
782.89	231.59
783.22	231.51
783.54	231.46
783.86	231.39
784.19	231.35
784.51	231.31
784.83	231.26
785.16	231.18
785.48	231.13
785.80	231.08
786.12	231.05
786.45	231.02
786.77	230.98
787.09	230.94
787.42	230.85
787.74	230.81
788.06	230.77
788.38	230.74
788.71	230.70
789.03	230.66
789.35	230.68
789.67	230.63
789.99	230.60
790.32	230.56
790.64	230.55
790.96	230.57
791.28	230.48
791.61	230.45
791.93	230.44
792.25	230.39
792.57	230.40
792.89	230.39
793.21	230.35
793.54	230.31
793.86	230.25
794.18	230.20
794.50	230.14
794.82	230.09
795.14	230.03
795.47	229.99
795.79	229.95
796.11	229.90
796.43	229.84
796.75	229.78
797.07	229.75
797.39	229.70
797.71	229.59
798.04	229.58
798.36	229.51
798.68	229.49
799.00	229.44
799.32	229.40
799.64	229.35
799.96	229.32
800.28	229.33
800.60	229.34
800.92	229.34
801.24	229.29
801.56	229.28
801.89	229.23
802.21	229.20
802.53	229.16
802.85	229.11
803.17	229.13
803.49	229.12
803.81	229.06
804.13	229.02
804.45	228.98
804.77	228.96
805.09	228.94
805.41	228.90
805.73	228.86
806.05	228.77
806.37	228.72
806.69	228.65
807.01	228.62
807.33	228.60
807.65	228.52
807.97	228.53
808.28	228.51
808.60	228.51
808.92	228.50
809.24	228.52
809.56	228.49
809.88	228.44
810.20	228.39
810.52	228.42
810.84	228.37
811.16	228.36
811.48	228.36
811.80	228.38
812.12	228.33
812.43	228.34
812.75	228.34
813.07	228.34
813.39	228.33
813.71	228.29
814.03	228.24
814.35	228.21
814.67	228.16
814.98	228.11
815.30	228.08
815.62	228.04
815.94	227.98
816.26	228.03
816.58	228.02
816.89	227.99
817.21	227.94
817.53	227.97
817.85	227.93
818.17	227.91
818.48	227.84
818.80	227.85
819.12	227.82
819.44	227.79
819.76	227.76
820.07	227.76
820.39	227.74
820.71	227.73
821.03	227.72
821.34	227.71
821.66	227.72
821.98	227.72
822.30	227.73
822.61	227.79
822.93	227.71
823.25	227.70
823.57	227.69
823.88	227.70
824.20	227.63
824.52	227.66
824.83	227.65
825.15	227.69
825.47	227.67
825.79	227.66
826.10	227.66
826.42	227.64
826.74	227.62
827.05	227.62
827.37	227.60
827.69	227.60
828.00	227.58
828.32	227.55
828.64	227.54
828.95	227.54
829.27	227.49
829.58	227.48
829.90	227.49
830.22	227.50
830.53	227.47
830.85	227.48
831.17	227.42
831.48	227.38
831.80	227.33
832.11	227.32
832.43	227.28
832.75	227.26
833.06	227.30
833.38	227.31
833.69	227.30
834.01	227.29
834.32	227.27
834.64	227.26
834.96	227.25
835.27	227.22
835.59	227.20
835.90	227.17
836.22	227.13
836.53	227.13
836.85	227.14
837.16	227.21
837.48	227.20
837.79	227.25
838.11	227.24
838.42	227.25
838.74	227.26
839.05	227.26
839.37	227.24
839.68	227.19
840.00	227.17
840.31	227.19
840.63	227.18
840.94	227.18
841.26	227.17
841.57	227.18
841.88	227.16
842.20	227.14
842.51	227.13
842.83	227.15
843.14	227.21
843.46	227.18
843.77	227.14
844.08	227.13
844.40	227.08
844.71	227.07
845.03	227.06
845.34	227.07
845.65	227.09
845.97	227.08
846.28	227.08
846.60	227.09
846.91	227.06
847.22	227.06
847.54	227.07
847.85	227.08
848.16	227.06
848.48	227.07
848.79	227.08
849.10	227.10
849.42	227.08
849.73	226.99
850.04	226.99
850.36	226.94
850.67	226.94
850.98	226.93
851.30	226.95
851.61	226.94
851.92	226.92
852.23	226.93
852.55	226.97
852.86	226.96
853.17	226.92
853.49	226.95
853.80	226.96
854.11	226.98
854.42	226.94
854.74	226.94
855.05	226.93
855.36	226.89
855.67	226.87
855.99	226.87
856.30	226.99
856.61	226.99
856.92	227.00
857.23	227.00
857.55	226.98
857.86	226.97
858.17	226.96
858.48	226.93
858.79	226.90
859.11	226.87
859.42	226.89
859.73	226.90
860.04	226.88
860.35	226.86
860.66	226.80
860.98	226.83
861.29	226.84
861.60	226.84
861.91	226.86
862.22	226.88
862.53	226.88
862.84	226.77
863.16	226.78
863.47	226.74
863.78	226.71
864.09	226.75
864.40	226.71
864.71	226.72
865.02	226.74
865.33	226.73
865.64	226.72
865.95	226.70
866.27	226.77
866.58	226.74
866.89	226.70
867.20	226.69
867.51	226.65
867.82	226.63
868.13	226.66
868.44	226.64
868.75	226.62
869.06	226.60
869.37	226.62
869.68	226.60
869.99	226.62
870.30	226.61
870.61	226.60
870.92	226.60
871.23	226.58
871.54	226.58
871.85	226.59
872.16	226.57
872.47	226.56
872.78	226.50
873.09	226.51
873.40	226.54
873.71	226.58
874.02	226.59
874.33	226.56
874.64	226.56
874.95	226.57
875.26	226.55
875.56	226.56
875.87	226.52
876.18	226.51
876.49	226.59
876.80	226.59
877.11	226.58
877.42	226.59
877.73	226.58
878.04	226.55
878.35	226.57
878.66	226.57
878.96	226.57
879.27	226.55
879.58	226.55
879.89	226.55
880.20	226.57
880.51	226.57
880.82	226.61
881.12	226.60
881.43	226.57
881.74	226.55
882.05	226.51
882.36	226.54
882.67	226.55
882.97	226.45
883.28	226.42
883.59	226.40
883.90	226.44
884.21	226.47
884.51	226.46
884.82	226.45
885.13	226.46
885.44	226.44
885.74	226.44
886.05	226.42
886.36	226.40
886.67	226.35
886.98	226.41
887.28	226.40
887.59	226.39
887.90	226.38
888.20	226.36
888.51	226.41
888.82	226.38
889.13	226.39
889.43	226.47
889.74	226.49
890.05	226.49
890.35	226.42
890.66	226.40
890.97	226.39
891.28	226.39
891.58	226.37
891.89	226.38
892.20	226.35
892.50	226.33
892.81	226.35
893.12	226.34
893.42	226.27
893.73	226.21
894.04	226.22
894.34	226.25
894.65	226.27
894.95	226.20
895.26	226.20
895.57	226.23
895.87	226.12
896.18	226.14
896.48	226.13
896.79	226.15
897.10	226.16
897.40	226.16
897.71	226.16
898.01	226.18
898.32	226.15
898.63	226.14
898.93	226.13
899.24	226.12
899.54	226.13
899.85	226.14
900.15	226.15
900.46	226.10
900.76	226.08
901.07	226.07
901.38	226.08
901.68	226.10
901.99	226.04
902.29	226.09
902.60	226.08
902.90	226.10
903.21	226.11
903.51	226.10
903.82	226.09
904.12	226.07
904.43	226.10
904.73	226.13
905.03	226.15
905.34	226.27
905.64	226.24
905.95	226.21
906.25	226.22
906.56	226.26
906.86	226.30
907.17	226.30
907.47	226.32
907.77	226.30
908.08	226.30
908.38	226.29
908.69	226.28
908.99	226.28
909.30	226.27
909.60	226.23
909.90	226.27
910.21	226.26
910.51	226.30
910.81	226.30
911.12	226.28
911.42	226.30
911.73	226.22
912.03	226.26
912.33	226.36
912.64	226.35
912.94	226.34
913.24	226.33
913.55	226.36
913.85	226.34
914.15	226.37
914.46	226.38
914.76	226.39
915.06	226.39
915.37	226.41
915.67	226.45
915.97	226.50
916.27	226.46
916.58	226.49
916.88	226.44
917.18	226.41
917.49	226.52
917.79	226.51
918.09	226.51
918.39	226.53
918.70	226.50
919.00	226.51
919.30	226.52
919.60	226.53
919.91	226.51
920.21	226.55
920.51	226.53
920.81	226.52
921.12	226.51
921.42	226.50
921.72	226.49
922.02	226.49
922.32	226.50
922.63	226.50
922.93	226.54
923.23	226.54
923.53	226.53
923.83	226.45
924.13	226.45
924.44	226.47
924.74	226.48
925.04	226.47
925.34	226.49
925.64	226.45
925.94	226.43
926.24	226.50
926.55	226.44
926.85	226.46
927.15	226.46
927.45	226.47
927.75	226.47
928.05	226.46
928.35	226.42
928.65	226.40
928.95	226.43
929.26	226.36
929.56	226.36
929.86	226.39
930.16	226.36
930.46	226.36
930.76	226.34
931.06	226.27
931.36	226.25
931.66	226.22
931.96	226.24
932.26	226.24
932.56	226.15
932.86	226.16
933.16	226.16
933.46	226.15
933.76	226.11
934.06	226.15
934.36	226.17
934.66	226.19
934.96	226.19
935.26	226.15
935.56	226.19
935.86	226.17
936.16	226.14
936.46	226.14
936.76	226.12
937.06	226.10
937.36	226.13
937.66	226.12
937.96	226.14
938.26	226.11
938.56	226.11
938.86	226.08
939.16	226.11
939.46	226.08
939.76	226.09
940.06	226.08
940.35	226.03
940.65	225.96
940.95	225.97
941.25	225.91
941.55	225.90
941.85	225.85
942.15	225.87
942.45	225.88
942.75	225.86
943.04	225.86
943.34	225.88
943.64	225.86
943.94	225.87
944.24	225.83
944.54	225.83
944.84	225.83
945.13	225.87
945.43	225.86
945.73	225.88
946.03	225.90
946.33	225.89
946.62	225.89
946.92	225.94
947.22	225.95
947.52	225.98
947.82	226.00
948.11	226.04
948.41	226.01
948.71	226.00
949.01	226.03
949.31	226.06
949.60	226.04
949.90	226.07
950.20	226.05
950.50	226.05
950.79	226.08
951.09	226.07
951.39	226.07
951.69	226.10
951.98	226.13
952.28	226.12
952.58	226.13
952.87	226.14
953.17	226.11
953.47	226.08
953.76	226.08
954.06	226.09
954.36	226.06
954.66	226.05
954.95	226.11
955.25	226.14
955.55	226.10
955.84	226.14
956.14	226.15
956.44	226.18
956.73	226.19
957.03	226.18
957.32	226.20
957.62	226.21
957.92	226.23
958.21	226.21
958.51	226.34
958.81	226.38
959.10	226.39
959.40	226.42
959.69	226.43
959.99	226.46
960.29	226.46
960.58	226.47
960.88	226.54
961.17	226.50
961.47	226.48
961.76	226.49
962.06	226.48
962.36	226.48
962.65	226.46
962.95	226.46
963.24	226.44
963.54	226.45
963.83	226.45
964.13	226.43
964.42	226.40
964.72	226.32
965.01	226.31
965.31	226.31
965.60	226.30
965.90	226.35
966.19	226.31
966.49	226.32
966.78	226.31
967.08	226.29
967.37	226.30
967.67	226.31
967.96	226.31
968.26	226.31
968.55	226.30
968.85	226.30
969.14	226.30
969.43	226.29
969.73	226.23
970.02	226.21
970.32	226.19
970.61	226.19
970.91	226.12
971.20	226.11
971.49	226.07
971.79	226.05
972.08	226.00
972.38	226.02
972.67	226.00
972.96	226.02
973.26	226.00
973.55	226.02
973.85	225.97
974.14	225.96
974.43	225.93
974.73	225.91
975.02	225.89
975.31	225.88
975.61	225.90
975.90	225.92
976.19	225.90
976.49	225.94
976.78	225.96
977.07	225.98
977.37	225.97
977.66	225.99
977.95	226.01
978.24	226.02
978.54	226.02
978.83	226.00
979.12	225.97
979.42	225.96
979.71	225.93
980.00	225.92
980.29	225.93
980.59	225.95
980.88	225.96
981.17	225.97
981.46	225.96
981.76	225.97
982.05	225.99
982.34	226.04
982.63	225.99
982.93	225.99
983.22	226.00
983.51	226.01
983.80	226.04
984.09	225.99
984.39	225.99
984.68	225.99
984.97	226.00
985.26	226.02
985.55	226.01
985.85	226.02
986.14	226.07
986.43	226.10
986.72	226.07
987.01	226.08
987.30	226.08
987.59	226.10
987.89	226.12
988.18	226.11
988.47	226.08
988.76	226.13
989.05	226.10
989.34	226.09
989.63	226.14
989.92	226.12
990.22	226.16
990.51	226.17
990.80	226.19
991.09	226.22
991.38	226.25
991.67	226.31
991.96	226.30
992.25	226.31
992.54	226.27
992.83	226.28
993.12	226.27
993.41	226.29
993.70	226.35
993.99	226.34
994.28	226.33
994.58	226.36
994.87	226.33
995.16	226.38
995.45	226.37
995.74	226.31
996.03	226.33
996.32	226.35
996.61	226.36
996.90	226.36
997.19	226.35
997.48	226.31
997.77	226.27
998.06	226.26
998.34	226.25
998.63	226.23
998.92	226.21
999.21	226.23
999.50	226.26
999.79	226.22
1000.08	226.25
1000.37	226.27
1000.66	226.26
1000.95	226.28
1001.24	226.27
1001.53	226.30
1001.82	226.33
1002.11	226.32
1002.40	226.33
1002.68	226.35
1002.97	226.42
1003.26	226.39
1003.55	226.40
1003.84	226.42
1004.13	226.47
1004.42	226.47
1004.71	226.47
1004.99	226.52
1005.28	226.50
1005.57	226.44
1005.86	226.42
1006.15	226.37
1006.44	226.37
1006.72	226.36
1007.01	226.34
1007.30	226.31
1007.59	226.29
1007.88	226.27
1008.17	226.23
1008.45	226.18
1008.74	226.12
1009.03	226.06
1009.32	226.06
1009.60	226.04
1009.89	226.00
1010.18	225.95
1010.47	225.92
1010.76	225.94
1011.04	225.91
1011.33	225.94
1011.62	225.97
1011.91	225.98
1012.19	226.01
1012.48	225.99
1012.77	226.00
1013.05	226.05
1013.34	226.05
1013.63	226.02
1013.92	226.04
1014.20	226.03
1014.49	226.05
1014.78	226.06
1015.06	226.02
1015.35	225.98
1015.64	225.99
1015.92	226.01
1016.21	226.00
1016.50	226.00
1016.78	226.00
1017.07	226.00
1017.36	225.97
1017.64	225.94
1017.93	225.96
1018.22	225.94
1018.50	225.93
1018.79	225.94
1019.08	225.88
1019.36	225.91
1019.65	225.90
1019.93	225.88
1020.22	225.93
1020.51	226.00
1020.79	226.01
1021.08	226.00
1021.36	225.86
1021.65	226.06
1021.94	226.14
1022.22	226.35
1022.51	225.41
1022.79	225.88
1023.08	226.36
1023.36	227.61
1023.65	226.23
>>>>>End Processed Spectral Data<<<<<
