SpectraSuite Data File
++++++++++++++++++++++++++++++++++++
Date: Fri Feb 01 15:21:33 EST 2013
User: group
Dark Spectrum Present: No
Reference Spectrum Present: No
Number of Sampled Component Spectra: 1
Spectrometers: USB2E7196
Integration Time (usec): 35000 (USB2E7196)
Spectra Averaged: 100 (USB2E7196)
Boxcar Smoothing: 10 (USB2E7196)
Correct for Electrical Dark: No (USB2E7196)
Strobe/Lamp Enabled: No (USB2E7196)
Correct for Detector Non-linearity: No (USB2E7196)
Correct for Stray Light: No (USB2E7196)
Number of Pixels in Processed Spectrum: 2048
>>>>>Begin Processed Spectral Data<<<<<
339.09	0.00
339.48	214.92
339.86	216.25
340.24	217.83
340.63	219.32
341.01	222.57
341.39	221.95
341.78	223.08
342.16	224.90
342.54	224.95
342.93	213.33
343.31	224.12
343.69	224.68
344.07	225.17
344.46	225.58
344.84	225.94
345.22	226.17
345.60	226.42
345.99	226.61
346.37	226.74
346.75	226.86
347.13	226.95
347.52	227.01
347.90	227.09
348.28	227.09
348.66	227.17
349.05	227.15
349.43	227.18
349.81	227.23
350.19	227.27
350.57	227.34
350.96	227.42
351.34	227.51
351.72	227.58
352.10	227.68
352.48	227.76
352.87	227.85
353.25	227.90
353.63	227.95
354.01	228.02
354.39	228.07
354.77	228.12
355.15	228.23
355.54	228.28
355.92	228.33
356.30	228.44
356.68	228.54
357.06	228.63
357.44	228.69
357.82	228.78
358.20	228.86
358.58	228.94
358.97	229.06
359.35	229.12
359.73	229.20
360.11	229.27
360.49	229.33
360.87	229.38
361.25	229.46
361.63	229.55
362.01	229.59
362.39	229.65
362.77	229.69
363.15	229.66
363.53	229.68
363.91	229.66
364.29	229.68
364.67	229.61
365.05	229.63
365.43	229.66
365.81	229.64
366.19	229.69
366.57	229.71
366.95	229.66
367.33	229.63
367.71	229.60
368.09	229.56
368.47	229.52
368.85	229.46
369.23	229.44
369.61	229.36
369.99	229.34
370.37	229.33
370.75	229.35
371.13	229.33
371.51	229.28
371.89	229.28
372.27	229.22
372.65	229.14
373.03	229.11
373.41	229.02
373.78	228.94
374.16	228.82
374.54	228.70
374.92	228.61
375.30	228.54
375.68	228.43
376.06	228.35
376.44	228.30
376.82	228.23
377.19	228.14
377.57	228.07
377.95	227.95
378.33	227.82
378.71	227.66
379.09	227.57
379.47	227.52
379.84	227.45
380.22	227.36
380.60	227.27
380.98	227.17
381.36	227.08
381.73	227.01
382.11	226.93
382.49	226.88
382.87	226.83
383.25	226.78
383.62	226.84
384.00	226.78
384.38	226.72
384.76	226.68
385.13	226.63
385.51	226.58
385.89	226.56
386.27	226.54
386.64	226.52
387.02	226.47
387.40	226.40
387.78	226.31
388.15	226.28
388.53	226.27
388.91	226.20
389.29	226.18
389.66	226.17
390.04	226.18
390.42	226.16
390.79	226.12
391.17	226.09
391.55	225.97
391.92	225.97
392.30	225.97
392.68	225.94
393.05	225.97
393.43	226.01
393.81	226.00
394.18	225.99
394.56	226.01
394.94	226.06
395.31	226.07
395.69	226.17
396.06	226.22
396.44	226.27
396.82	226.30
397.19	226.41
397.57	226.45
397.95	226.53
398.32	226.57
398.70	226.67
399.07	226.75
399.45	226.85
399.82	226.93
400.20	226.99
400.58	227.08
400.95	227.12
401.33	227.22
401.70	227.39
402.08	227.49
402.45	227.58
402.83	227.69
403.20	227.85
403.58	227.95
403.95	228.08
404.33	228.25
404.71	228.41
405.08	228.59
405.46	228.75
405.83	228.91
406.21	229.06
406.58	229.24
406.96	229.43
407.33	229.60
407.70	229.82
408.08	230.15
408.45	230.37
408.83	230.62
409.20	230.83
409.58	231.05
409.95	231.34
410.33	231.66
410.70	231.93
411.08	232.23
411.45	232.54
411.82	232.86
412.20	233.19
412.57	233.61
412.95	233.91
413.32	234.34
413.69	234.79
414.07	235.28
414.44	235.69
414.82	236.19
415.19	236.73
415.56	237.26
415.94	237.75
416.31	238.39
416.68	239.03
417.06	239.77
417.43	240.43
417.81	241.19
418.18	241.97
418.55	242.82
418.93	243.70
419.30	244.59
419.67	245.55
420.04	246.53
420.42	247.48
420.79	248.68
421.16	249.83
421.54	250.97
421.91	252.15
422.28	253.47
422.66	254.80
423.03	256.11
423.40	257.41
423.77	258.87
424.15	260.28
424.52	261.75
424.89	263.36
425.26	264.90
425.64	266.36
426.01	267.94
426.38	269.55
426.75	271.20
427.13	272.90
427.50	274.68
427.87	276.54
428.24	278.45
428.61	280.18
428.99	282.08
429.36	284.18
429.73	286.27
430.10	288.27
430.47	290.30
430.85	292.40
431.22	294.67
431.59	297.04
431.96	299.28
432.33	301.76
432.70	304.11
433.08	306.92
433.45	309.53
433.82	312.15
434.19	315.05
434.56	317.92
434.93	320.54
435.30	323.17
435.68	326.08
436.05	328.92
436.42	331.74
436.79	334.29
437.16	337.00
437.53	339.85
437.90	342.63
438.27	345.38
438.64	348.21
439.01	350.80
439.38	353.04
439.75	355.21
440.13	357.73
440.50	360.08
440.87	361.93
441.24	363.88
441.61	366.06
441.98	367.54
442.35	369.29
442.72	371.22
443.09	373.02
443.46	373.97
443.83	374.53
444.20	375.03
444.57	375.86
444.94	376.14
445.31	376.42
445.68	376.78
446.05	376.80
446.42	376.46
446.79	376.05
447.16	375.59
447.53	375.31
447.90	374.12
448.27	372.97
448.64	371.38
449.01	370.28
449.37	368.29
449.74	366.40
450.11	364.13
450.48	361.61
450.85	359.06
451.22	356.92
451.59	354.90
451.96	352.93
452.33	350.32
452.70	347.93
453.07	345.09
453.43	342.19
453.80	339.47
454.17	336.79
454.54	334.26
454.91	331.51
455.28	328.81
455.65	326.32
456.02	323.82
456.38	321.67
456.75	319.00
457.12	316.75
457.49	314.54
457.86	312.41
458.23	310.57
458.59	308.57
458.96	306.48
459.33	304.69
459.70	302.86
460.07	301.35
460.43	299.64
460.80	298.04
461.17	296.64
461.54	295.14
461.91	293.67
462.27	292.24
462.64	290.99
463.01	289.65
463.38	288.36
463.74	287.05
464.11	285.89
464.48	284.83
464.85	283.73
465.21	282.86
465.58	281.89
465.95	280.79
466.32	279.89
466.68	279.00
467.05	278.05
467.42	277.11
467.78	276.15
468.15	275.30
468.52	274.64
468.88	273.79
469.25	273.04
469.62	272.44
469.98	271.72
470.35	271.11
470.72	270.49
471.08	269.81
471.45	269.23
471.82	268.68
472.18	268.07
472.55	267.60
472.92	267.09
473.28	266.65
473.65	266.19
474.02	265.72
474.38	265.30
474.75	264.99
475.11	264.67
475.48	264.44
475.85	264.24
476.21	263.97
476.58	263.75
476.94	263.56
477.31	263.40
477.67	263.23
478.04	263.09
478.41	263.01
478.77	263.08
479.14	263.04
479.50	263.05
479.87	263.13
480.23	263.18
480.60	263.20
480.96	263.27
481.33	263.49
481.69	263.69
482.06	263.95
482.42	264.10
482.79	264.34
483.15	264.66
483.52	264.97
483.88	265.34
484.25	265.71
484.61	266.13
484.98	266.54
485.34	267.07
485.71	267.65
486.07	268.23
486.44	268.78
486.80	269.47
487.17	270.17
487.53	271.01
487.90	271.88
488.26	272.82
488.62	273.81
488.99	274.77
489.35	275.79
489.72	276.89
490.08	278.12
490.44	279.32
490.81	280.57
491.17	281.92
491.54	283.38
491.90	284.93
492.26	286.57
492.63	288.31
492.99	290.10
493.36	291.99
493.72	294.07
494.08	296.21
494.45	298.46
494.81	300.82
495.17	303.20
495.54	305.77
495.90	308.47
496.26	311.32
496.63	314.27
496.99	317.40
497.35	320.66
497.72	324.07
498.08	327.65
498.44	331.34
498.80	335.28
499.17	339.27
499.53	343.42
499.89	347.81
500.26	352.31
500.62	357.00
500.98	361.97
501.34	367.06
501.71	372.38
502.07	377.82
502.43	383.40
502.79	389.26
503.16	395.29
503.52	401.57
503.88	407.94
504.24	414.57
504.60	421.40
504.97	428.53
505.33	435.83
505.69	443.52
506.05	451.32
506.41	459.16
506.78	467.41
507.14	475.87
507.50	484.60
507.86	493.66
508.22	502.85
508.59	512.04
508.95	521.66
509.31	531.46
509.67	541.63
510.03	551.95
510.39	562.50
510.75	573.45
511.12	584.42
511.48	595.73
511.84	607.22
512.20	618.86
512.56	630.80
512.92	643.04
513.28	655.39
513.64	667.87
514.00	680.64
514.37	693.54
514.73	706.64
515.09	719.72
515.45	733.01
515.81	746.67
516.17	760.71
516.53	774.85
516.89	788.98
517.25	803.12
517.61	817.59
517.97	832.05
518.33	846.36
518.69	861.11
519.05	876.19
519.41	891.44
519.77	907.01
520.13	922.56
520.49	937.97
520.85	953.48
521.21	969.20
521.57	985.49
521.93	1001.32
522.29	1017.71
522.65	1034.00
523.01	1050.27
523.37	1066.37
523.73	1082.59
524.09	1098.75
524.45	1115.17
524.81	1131.80
525.17	1148.71
525.53	1165.68
525.89	1182.66
526.25	1199.57
526.61	1216.01
526.97	1232.80
527.33	1249.26
527.68	1265.98
528.04	1282.45
528.40	1298.95
528.76	1316.14
529.12	1332.69
529.48	1349.57
529.84	1365.74
530.20	1382.45
530.56	1399.55
530.91	1416.94
531.27	1433.73
531.63	1450.22
531.99	1466.87
532.35	1483.07
532.71	1498.96
533.07	1515.17
533.42	1531.04
533.78	1547.13
534.14	1563.43
534.50	1578.78
534.86	1594.70
535.21	1609.83
535.57	1625.93
535.93	1641.61
536.29	1656.34
536.65	1671.58
537.00	1686.58
537.36	1701.82
537.72	1716.43
538.08	1730.86
538.44	1744.81
538.79	1758.80
539.15	1772.70
539.51	1786.42
539.87	1800.74
540.22	1814.66
540.58	1828.62
540.94	1842.04
541.29	1855.02
541.65	1867.69
542.01	1881.05
542.37	1893.42
542.72	1905.84
543.08	1917.65
543.44	1930.10
543.79	1941.47
544.15	1952.53
544.51	1964.09
544.87	1975.14
545.22	1985.95
545.58	1996.16
545.94	2005.94
546.29	2015.85
546.65	2025.59
547.01	2034.90
547.36	2043.62
547.72	2052.05
548.07	2060.04
548.43	2068.22
548.79	2076.34
549.14	2083.92
549.50	2091.32
549.86	2099.07
550.21	2106.51
550.57	2113.69
550.92	2120.26
551.28	2127.35
551.64	2134.45
551.99	2141.04
552.35	2147.24
552.70	2153.25
553.06	2159.31
553.41	2165.63
553.77	2171.66
554.13	2177.69
554.48	2183.90
554.84	2189.31
555.19	2194.51
555.55	2199.50
555.90	2203.95
556.26	2208.84
556.61	2213.60
556.97	2217.69
557.32	2221.98
557.68	2226.11
558.03	2230.40
558.39	2234.16
558.74	2238.75
559.10	2242.51
559.45	2246.02
559.81	2250.32
560.16	2254.24
560.52	2257.56
560.87	2261.08
561.23	2263.71
561.58	2266.69
561.94	2269.21
562.29	2271.72
562.64	2274.51
563.00	2277.14
563.35	2280.65
563.71	2283.74
564.06	2286.95
564.42	2289.97
564.77	2292.33
565.12	2294.55
565.48	2296.44
565.83	2298.29
566.19	2299.59
566.54	2300.59
566.89	2301.67
567.25	2302.29
567.60	2303.53
567.96	2305.09
568.31	2305.83
568.66	2306.77
569.02	2307.29
569.37	2307.41
569.72	2308.14
570.08	2308.09
570.43	2308.00
570.78	2307.38
571.14	2305.63
571.49	2304.20
571.84	2303.70
572.20	2302.47
572.55	2301.39
572.90	2299.81
573.26	2298.38
573.61	2296.69
573.96	2294.77
574.31	2291.75
574.67	2288.64
575.02	2285.07
575.37	2281.54
575.72	2277.58
576.08	2274.27
576.43	2271.07
576.78	2267.38
577.13	2264.12
577.49	2261.06
577.84	2257.56
578.19	2253.79
578.54	2250.07
578.90	2245.78
579.25	2240.24
579.60	2235.16
579.95	2230.04
580.30	2224.91
580.66	2219.62
581.01	2214.51
581.36	2209.60
581.71	2205.37
582.06	2200.85
582.42	2196.35
582.77	2191.05
583.12	2186.38
583.47	2181.58
583.82	2176.26
584.17	2170.92
584.53	2165.25
584.88	2159.53
585.23	2153.70
585.58	2148.25
585.93	2142.79
586.28	2137.96
586.63	2132.68
586.98	2127.40
587.34	2122.67
587.69	2117.73
588.04	2112.36
588.39	2106.72
588.74	2100.11
589.09	2093.83
589.44	2086.94
589.79	2080.84
590.14	2075.21
590.49	2068.61
590.84	2062.24
591.19	2056.14
591.54	2049.72
591.89	2042.22
592.25	2035.30
592.60	2027.98
592.95	2020.13
593.30	2012.71
593.65	2004.94
594.00	1997.88
594.35	1990.68
594.70	1982.58
595.05	1975.19
595.40	1967.80
595.75	1960.10
596.10	1953.79
596.45	1946.92
596.80	1940.62
597.15	1933.83
597.50	1926.57
597.85	1920.03
598.19	1913.18
598.54	1906.03
598.89	1899.30
599.24	1893.59
599.59	1886.90
599.94	1880.66
600.29	1874.39
600.64	1867.87
600.99	1860.49
601.34	1853.63
601.69	1846.63
602.04	1839.64
602.39	1832.13
602.74	1825.21
603.08	1818.47
603.43	1811.67
603.78	1804.47
604.13	1797.28
604.48	1789.89
604.83	1783.05
605.18	1776.14
605.53	1768.26
605.87	1760.31
606.22	1753.01
606.57	1744.97
606.92	1737.57
607.27	1730.24
607.62	1723.24
607.96	1715.80
608.31	1709.03
608.66	1701.40
609.01	1693.79
609.36	1686.13
609.70	1678.23
610.05	1670.19
610.40	1662.44
610.75	1654.12
611.10	1646.43
611.44	1637.99
611.79	1630.08
612.14	1621.31
612.49	1612.08
612.83	1603.48
613.18	1595.29
613.53	1587.21
613.88	1578.66
614.22	1570.29
614.57	1561.83
614.92	1553.65
615.27	1546.09
615.61	1537.80
615.96	1529.78
616.31	1522.14
616.65	1514.78
617.00	1507.22
617.35	1499.64
617.70	1491.25
618.04	1482.71
618.39	1474.55
618.74	1466.89
619.08	1458.62
619.43	1451.12
619.78	1444.24
620.12	1437.18
620.47	1429.63
620.82	1421.50
621.16	1414.02
621.51	1406.43
621.85	1398.72
622.20	1390.37
622.55	1382.03
622.89	1374.26
623.24	1366.62
623.59	1359.24
623.93	1351.79
624.28	1344.55
624.62	1336.89
624.97	1329.84
625.32	1323.05
625.66	1315.97
626.01	1308.77
626.35	1301.21
626.70	1293.41
627.04	1285.64
627.39	1277.90
627.73	1270.54
628.08	1263.59
628.43	1256.33
628.77	1248.98
629.12	1241.46
629.46	1234.28
629.81	1226.89
630.15	1219.59
630.50	1212.34
630.84	1204.21
631.19	1196.24
631.53	1188.78
631.88	1181.22
632.22	1173.57
632.57	1166.34
632.91	1158.86
633.26	1151.48
633.60	1144.12
633.95	1137.18
634.29	1130.20
634.64	1123.43
634.98	1115.95
635.32	1108.80
635.67	1102.23
636.01	1095.69
636.36	1088.97
636.70	1082.46
637.05	1075.93
637.39	1069.42
637.73	1062.78
638.08	1056.94
638.42	1051.05
638.77	1044.60
639.11	1037.99
639.45	1031.56
639.80	1024.90
640.14	1018.42
640.49	1011.91
640.83	1005.60
641.17	999.27
641.52	992.96
641.86	986.66
642.20	980.88
642.55	974.62
642.89	968.05
643.23	961.52
643.58	955.66
643.92	949.36
644.26	943.24
644.61	937.31
644.95	931.31
645.29	924.64
645.64	917.83
645.98	911.42
646.32	905.68
646.66	899.68
647.01	893.86
647.35	888.19
647.69	882.44
648.04	876.97
648.38	871.26
648.72	865.16
649.06	859.00
649.41	853.12
649.75	847.06
650.09	841.15
650.43	835.29
650.78	829.18
651.12	823.31
651.46	817.62
651.80	811.85
652.14	806.40
652.49	801.05
652.83	795.90
653.17	790.27
653.51	784.55
653.85	779.23
654.20	773.62
654.54	767.57
654.88	761.80
655.22	755.90
655.56	750.12
655.90	744.66
656.25	739.46
656.59	734.19
656.93	729.17
657.27	724.02
657.61	718.53
657.95	713.44
658.29	708.39
658.64	703.11
658.98	697.78
659.32	692.27
659.66	687.13
660.00	681.83
660.34	676.88
660.68	671.94
661.02	666.84
661.36	662.13
661.70	657.64
662.05	653.21
662.39	648.91
662.73	644.52
663.07	640.24
663.41	635.79
663.75	631.22
664.09	626.64
664.43	622.30
664.77	618.25
665.11	613.97
665.45	609.83
665.79	605.77
666.13	601.74
666.47	597.77
666.81	593.52
667.15	589.36
667.49	585.46
667.83	581.68
668.17	577.81
668.51	573.73
668.85	569.72
669.19	565.95
669.53	562.07
669.87	558.16
670.21	554.42
670.55	550.72
670.89	547.30
671.23	543.85
671.57	540.35
671.91	536.81
672.25	533.38
672.58	529.89
672.92	526.49
673.26	523.30
673.60	520.12
673.94	517.04
674.28	514.22
674.62	511.28
674.96	508.19
675.30	505.29
675.64	502.40
675.97	499.67
676.31	496.75
676.65	493.85
676.99	491.13
677.33	488.31
677.67	485.51
678.01	482.48
678.34	479.54
678.68	476.68
679.02	473.89
679.36	471.06
679.70	468.27
680.04	465.50
680.37	462.62
680.71	459.87
681.05	457.30
681.39	454.55
681.73	451.92
682.06	449.39
682.40	446.84
682.74	444.27
683.08	441.73
683.42	439.16
683.75	436.69
684.09	434.19
684.43	431.76
684.77	429.34
685.10	427.05
685.44	424.79
685.78	422.49
686.12	420.27
686.45	418.01
686.79	415.79
687.13	413.66
687.46	411.48
687.80	409.32
688.14	407.13
688.48	405.08
688.81	402.84
689.15	400.70
689.49	398.59
689.82	396.58
690.16	394.50
690.50	392.56
690.83	390.59
691.17	388.65
691.51	386.74
691.84	384.90
692.18	382.95
692.52	380.96
692.85	379.02
693.19	377.13
693.52	375.37
693.86	373.60
694.20	371.80
694.53	370.04
694.87	368.23
695.21	366.44
695.54	364.60
695.88	362.89
696.21	361.20
696.55	359.52
696.88	357.81
697.22	356.18
697.56	354.55
697.89	352.94
698.23	351.29
698.56	349.64
698.90	348.02
699.23	346.36
699.57	344.81
699.90	343.33
700.24	341.78
700.58	340.24
700.91	338.72
701.25	337.29
701.58	335.93
701.92	334.53
702.25	333.13
702.59	331.79
702.92	330.43
703.26	329.11
703.59	327.83
703.93	326.63
704.26	325.39
704.60	324.09
704.93	322.82
705.26	321.57
705.60	320.45
705.93	319.31
706.27	318.30
706.60	317.26
706.94	316.17
707.27	315.05
707.61	313.98
707.94	312.94
708.27	311.84
708.61	310.74
708.94	309.72
709.28	308.76
709.61	307.77
709.94	306.82
710.28	305.77
710.61	304.77
710.95	303.72
711.28	302.78
711.61	301.86
711.95	300.92
712.28	299.96
712.61	298.93
712.95	297.99
713.28	297.08
713.61	296.16
713.95	295.24
714.28	294.44
714.61	293.55
714.95	292.72
715.28	291.84
715.61	290.98
715.95	290.14
716.28	289.26
716.61	288.44
716.95	287.65
717.28	286.94
717.61	286.16
717.94	285.42
718.28	284.65
718.61	283.91
718.94	283.25
719.27	282.62
719.61	282.01
719.94	281.35
720.27	280.65
720.60	279.98
720.94	279.37
721.27	278.73
721.60	278.15
721.93	277.56
722.27	277.03
722.60	276.48
722.93	275.92
723.26	275.43
723.59	274.87
723.93	274.35
724.26	273.77
724.59	273.26
724.92	272.75
725.25	272.26
725.59	271.77
725.92	271.26
726.25	270.76
726.58	270.27
726.91	269.79
727.24	269.37
727.57	268.92
727.91	268.43
728.24	268.01
728.57	267.54
728.90	267.10
729.23	266.61
729.56	266.19
729.89	265.75
730.22	265.26
730.55	264.84
730.89	264.38
731.22	263.95
731.55	263.49
731.88	263.07
732.21	262.63
732.54	262.19
732.87	261.77
733.20	261.36
733.53	260.97
733.86	260.60
734.19	260.20
734.52	259.82
734.85	259.50
735.18	259.07
735.51	258.74
735.84	258.40
736.17	258.07
736.50	257.69
736.83	257.48
737.16	257.13
737.49	256.80
737.82	256.46
738.15	256.16
738.48	255.83
738.81	255.53
739.14	255.20
739.47	254.86
739.80	254.53
740.13	254.18
740.46	253.85
740.79	253.50
741.12	253.19
741.45	252.89
741.78	252.50
742.11	252.22
742.44	251.87
742.77	251.52
743.10	251.17
743.43	250.85
743.75	250.41
744.08	250.23
744.41	249.92
744.74	249.62
745.07	249.32
745.40	249.06
745.73	248.76
746.06	248.45
746.39	248.20
746.71	247.93
747.04	247.70
747.37	247.44
747.70	247.19
748.03	246.91
748.36	246.67
748.68	246.45
749.01	246.20
749.34	245.98
749.67	245.75
750.00	245.52
750.33	245.32
750.65	245.13
750.98	244.78
751.31	244.57
751.64	244.39
751.97	244.23
752.29	244.00
752.62	243.77
752.95	243.56
753.28	243.33
753.60	243.12
753.93	242.91
754.26	242.74
754.59	242.53
754.91	242.33
755.24	242.10
755.57	241.90
755.90	241.69
756.22	241.50
756.55	241.31
756.88	241.13
757.20	240.93
757.53	240.76
757.86	240.60
758.19	240.44
758.51	240.26
758.84	240.04
759.17	239.89
759.49	239.75
759.82	239.65
760.15	239.51
760.47	239.37
760.80	239.20
761.13	239.05
761.45	238.90
761.78	238.73
762.11	238.62
762.43	238.49
762.76	238.37
763.08	238.24
763.41	238.11
763.74	237.97
764.06	237.83
764.39	237.66
764.71	237.56
765.04	237.41
765.37	237.27
765.69	237.16
766.02	237.01
766.34	236.87
766.67	236.69
767.00	236.62
767.32	236.59
767.65	236.55
767.97	236.43
768.30	236.37
768.62	236.30
768.95	236.22
769.27	236.11
769.60	236.01
769.92	235.88
770.25	235.81
770.57	235.71
770.90	235.61
771.22	235.52
771.55	235.42
771.87	235.32
772.20	235.23
772.52	235.22
772.85	235.25
773.17	235.17
773.50	235.06
773.82	234.96
774.15	234.82
774.47	234.66
774.80	234.59
775.12	234.46
775.45	234.36
775.77	234.24
776.09	234.16
776.42	234.08
776.74	234.05
777.07	233.93
777.39	233.89
777.72	233.82
778.04	233.79
778.36	233.70
778.69	233.63
779.01	233.57
779.33	233.40
779.66	233.23
779.98	233.15
780.31	233.13
780.63	233.07
780.95	233.03
781.28	232.98
781.60	232.88
781.92	232.83
782.25	232.76
782.57	232.71
782.89	232.66
783.22	232.61
783.54	232.52
783.86	232.45
784.19	232.38
784.51	232.35
784.83	232.26
785.16	232.24
785.48	232.22
785.80	232.19
786.12	232.15
786.45	232.07
786.77	232.01
787.09	231.94
787.42	231.85
787.74	231.76
788.06	231.71
788.38	231.67
788.71	231.60
789.03	231.58
789.35	231.55
789.67	231.46
789.99	231.41
790.32	231.32
790.64	231.29
790.96	231.31
791.28	231.22
791.61	231.14
791.93	231.07
792.25	231.00
792.57	231.02
792.89	230.96
793.21	230.93
793.54	230.89
793.86	230.84
794.18	230.80
794.50	230.76
794.82	230.73
795.14	230.70
795.47	230.64
795.79	230.63
796.11	230.60
796.43	230.60
796.75	230.55
797.07	230.54
797.39	230.48
797.71	230.37
798.04	230.35
798.36	230.34
798.68	230.30
799.00	230.28
799.32	230.17
799.64	230.17
799.96	230.14
800.28	230.15
800.60	230.14
800.92	230.15
801.24	230.11
801.56	230.10
801.89	230.03
802.21	230.05
802.53	229.97
802.85	229.95
803.17	229.94
803.49	229.91
803.81	229.87
804.13	229.86
804.45	229.83
804.77	229.79
805.09	229.76
805.41	229.76
805.73	229.70
806.05	229.70
806.37	229.65
806.69	229.61
807.01	229.59
807.33	229.59
807.65	229.52
807.97	229.56
808.28	229.51
808.60	229.51
808.92	229.47
809.24	229.53
809.56	229.50
809.88	229.47
810.20	229.47
810.52	229.46
810.84	229.45
811.16	229.44
811.48	229.44
811.80	229.44
812.12	229.41
812.43	229.42
812.75	229.42
813.07	229.40
813.39	229.43
813.71	229.38
814.03	229.32
814.35	229.32
814.67	229.27
814.98	229.29
815.30	229.26
815.62	229.25
815.94	229.16
816.26	229.17
816.58	229.09
816.89	229.12
817.21	229.10
817.53	229.09
817.85	229.07
818.17	229.05
818.48	229.04
818.80	229.04
819.12	228.99
819.44	228.95
819.76	228.92
820.07	228.88
820.39	228.86
820.71	228.84
821.03	228.81
821.34	228.80
821.66	228.77
821.98	228.79
822.30	228.74
822.61	228.79
822.93	228.71
823.25	228.73
823.57	228.66
823.88	228.68
824.20	228.66
824.52	228.69
824.83	228.67
825.15	228.64
825.47	228.60
825.79	228.63
826.10	228.60
826.42	228.56
826.74	228.55
827.05	228.52
827.37	228.50
827.69	228.46
828.00	228.42
828.32	228.41
828.64	228.38
828.95	228.40
829.27	228.36
829.58	228.36
829.90	228.37
830.22	228.34
830.53	228.29
830.85	228.25
831.17	228.21
831.48	228.18
831.80	228.19
832.11	228.18
832.43	228.13
832.75	228.12
833.06	228.17
833.38	228.12
833.69	228.13
834.01	228.12
834.32	228.15
834.64	228.12
834.96	228.07
835.27	228.04
835.59	228.02
835.90	227.98
836.22	227.97
836.53	227.94
836.85	227.91
837.16	228.00
837.48	227.98
837.79	228.00
838.11	228.00
838.42	227.95
838.74	227.95
839.05	227.92
839.37	227.94
839.68	227.89
840.00	227.92
840.31	227.94
840.63	227.96
840.94	227.93
841.26	227.94
841.57	227.99
841.88	228.05
842.20	228.02
842.51	228.03
842.83	228.03
843.14	228.11
843.46	228.14
843.77	228.10
844.08	228.11
844.40	228.08
844.71	228.11
845.03	228.14
845.34	228.13
845.65	228.18
845.97	228.16
846.28	228.16
846.60	228.17
846.91	228.12
847.22	228.09
847.54	228.13
847.85	228.17
848.16	228.13
848.48	228.08
848.79	228.11
849.10	228.13
849.42	228.13
849.73	228.06
850.04	228.06
850.36	228.00
850.67	228.01
850.98	228.02
851.30	228.00
851.61	227.96
851.92	227.95
852.23	227.96
852.55	227.96
852.86	227.94
853.17	227.97
853.49	228.00
853.80	228.05
854.11	228.07
854.42	228.04
854.74	228.05
855.05	228.05
855.36	227.97
855.67	227.95
855.99	227.95
856.30	228.06
856.61	228.03
856.92	228.02
857.23	228.01
857.55	227.96
857.86	227.96
858.17	227.98
858.48	227.96
858.79	227.93
859.11	227.94
859.42	227.96
859.73	227.89
860.04	227.87
860.35	227.82
860.66	227.75
860.98	227.73
861.29	227.72
861.60	227.72
861.91	227.77
862.22	227.74
862.53	227.70
862.84	227.58
863.16	227.61
863.47	227.61
863.78	227.59
864.09	227.62
864.40	227.60
864.71	227.59
865.02	227.60
865.33	227.56
865.64	227.53
865.95	227.50
866.27	227.56
866.58	227.53
866.89	227.48
867.20	227.48
867.51	227.45
867.82	227.41
868.13	227.44
868.44	227.40
868.75	227.43
869.06	227.42
869.37	227.43
869.68	227.40
869.99	227.40
870.30	227.41
870.61	227.39
870.92	227.37
871.23	227.37
871.54	227.39
871.85	227.43
872.16	227.42
872.47	227.40
872.78	227.31
873.09	227.32
873.40	227.33
873.71	227.32
874.02	227.33
874.33	227.34
874.64	227.30
874.95	227.33
875.26	227.31
875.56	227.32
875.87	227.29
876.18	227.28
876.49	227.38
876.80	227.32
877.11	227.31
877.42	227.31
877.73	227.30
878.04	227.23
878.35	227.22
878.66	227.23
878.96	227.22
879.27	227.22
879.58	227.22
879.89	227.21
880.20	227.22
880.51	227.21
880.82	227.22
881.12	227.22
881.43	227.20
881.74	227.17
882.05	227.14
882.36	227.14
882.67	227.14
882.97	227.02
883.28	227.08
883.59	227.09
883.90	227.10
884.21	227.12
884.51	227.19
884.82	227.19
885.13	227.18
885.44	227.22
885.74	227.26
886.05	227.25
886.36	227.26
886.67	227.26
886.98	227.29
887.28	227.31
887.59	227.30
887.90	227.31
888.20	227.30
888.51	227.33
888.82	227.33
889.13	227.35
889.43	227.44
889.74	227.40
890.05	227.40
890.35	227.39
890.66	227.34
890.97	227.31
891.28	227.29
891.58	227.31
891.89	227.31
892.20	227.27
892.50	227.31
892.81	227.30
893.12	227.30
893.42	227.24
893.73	227.25
894.04	227.27
894.34	227.27
894.65	227.29
894.95	227.26
895.26	227.25
895.57	227.30
895.87	227.22
896.18	227.26
896.48	227.28
896.79	227.28
897.10	227.29
897.40	227.29
897.71	227.30
898.01	227.30
898.32	227.31
898.63	227.34
898.93	227.32
899.24	227.33
899.54	227.32
899.85	227.34
900.15	227.34
900.46	227.33
900.76	227.34
901.07	227.30
901.38	227.32
901.68	227.35
901.99	227.30
902.29	227.30
902.60	227.27
902.90	227.26
903.21	227.25
903.51	227.28
903.82	227.29
904.12	227.29
904.43	227.31
904.73	227.30
905.03	227.32
905.34	227.41
905.64	227.43
905.95	227.41
906.25	227.44
906.56	227.38
906.86	227.38
907.17	227.39
907.47	227.44
907.77	227.44
908.08	227.40
908.38	227.41
908.69	227.38
908.99	227.39
909.30	227.38
909.60	227.38
909.90	227.36
910.21	227.31
910.51	227.27
910.81	227.21
911.12	227.21
911.42	227.22
911.73	227.12
912.03	227.07
912.33	227.10
912.64	227.07
912.94	227.10
913.24	227.10
913.55	227.08
913.85	227.03
914.15	227.07
914.46	227.10
914.76	227.10
915.06	227.10
915.37	227.10
915.67	227.09
915.97	227.07
916.27	227.09
916.58	227.09
916.88	227.11
917.18	227.12
917.49	227.19
917.79	227.16
918.09	227.18
918.39	227.24
918.70	227.19
919.00	227.17
919.30	227.22
919.60	227.21
919.91	227.19
920.21	227.23
920.51	227.17
920.81	227.15
921.12	227.14
921.42	227.18
921.72	227.19
922.02	227.21
922.32	227.24
922.63	227.22
922.93	227.27
923.23	227.24
923.53	227.24
923.83	227.17
924.13	227.16
924.44	227.17
924.74	227.17
925.04	227.23
925.34	227.24
925.64	227.18
925.94	227.18
926.24	227.22
926.55	227.21
926.85	227.22
927.15	227.23
927.45	227.22
927.75	227.21
928.05	227.17
928.35	227.14
928.65	227.16
928.95	227.17
929.26	227.14
929.56	227.19
929.86	227.18
930.16	227.15
930.46	227.16
930.76	227.13
931.06	227.07
931.36	227.00
931.66	227.00
931.96	227.01
932.26	227.00
932.56	226.96
932.86	226.90
933.16	226.93
933.46	226.94
933.76	226.92
934.06	226.88
934.36	226.96
934.66	226.99
934.96	226.96
935.26	226.96
935.56	226.99
935.86	226.97
936.16	226.96
936.46	226.96
936.76	226.96
937.06	226.95
937.36	226.96
937.66	226.99
937.96	226.97
938.26	226.95
938.56	226.93
938.86	226.96
939.16	227.03
939.46	227.05
939.76	226.99
940.06	227.00
940.35	227.02
940.65	226.92
940.95	226.90
941.25	226.89
941.55	226.87
941.85	226.86
942.15	226.88
942.45	226.90
942.75	226.90
943.04	226.90
943.34	226.94
943.64	226.93
943.94	226.90
944.24	226.93
944.54	226.97
944.84	227.00
945.13	226.99
945.43	226.96
945.73	226.96
946.03	226.96
946.33	226.95
946.62	226.93
946.92	226.96
947.22	226.97
947.52	226.97
947.82	226.98
948.11	226.92
948.41	226.89
948.71	226.89
949.01	226.91
949.31	226.88
949.60	226.88
949.90	226.87
950.20	226.90
950.50	226.91
950.79	226.87
951.09	226.84
951.39	226.83
951.69	226.82
951.98	226.82
952.28	226.82
952.58	226.82
952.87	226.83
953.17	226.83
953.47	226.82
953.76	226.80
954.06	226.79
954.36	226.81
954.66	226.83
954.95	226.84
955.25	226.85
955.55	226.91
955.84	226.85
956.14	226.87
956.44	226.87
956.73	226.84
957.03	226.84
957.32	226.91
957.62	226.89
957.92	226.90
958.21	226.88
958.51	227.02
958.81	227.04
959.10	227.05
959.40	227.05
959.69	227.06
959.99	227.06
960.29	227.03
960.58	227.05
960.88	227.10
961.17	227.10
961.47	227.10
961.76	227.05
962.06	227.11
962.36	227.10
962.65	227.14
962.95	227.17
963.24	227.15
963.54	227.13
963.83	227.15
964.13	227.15
964.42	227.13
964.72	227.06
965.01	227.05
965.31	227.05
965.60	227.03
965.90	227.07
966.19	227.07
966.49	227.11
966.78	227.08
967.08	227.02
967.37	227.04
967.67	227.03
967.96	227.04
968.26	227.04
968.55	227.05
968.85	226.99
969.14	226.96
969.43	226.95
969.73	226.93
970.02	226.93
970.32	226.94
970.61	226.94
970.91	226.91
971.20	226.89
971.49	226.88
971.79	226.91
972.08	226.87
972.38	226.87
972.67	226.84
972.96	226.83
973.26	226.82
973.55	226.82
973.85	226.82
974.14	226.80
974.43	226.75
974.73	226.76
975.02	226.77
975.31	226.79
975.61	226.81
975.90	226.82
976.19	226.79
976.49	226.79
976.78	226.80
977.07	226.77
977.37	226.79
977.66	226.82
977.95	226.82
978.24	226.79
978.54	226.83
978.83	226.85
979.12	226.90
979.42	226.93
979.71	226.91
980.00	226.88
980.29	226.91
980.59	226.95
980.88	226.95
981.17	226.94
981.46	226.94
981.76	226.95
982.05	226.99
982.34	227.02
982.63	227.06
982.93	227.09
983.22	227.13
983.51	227.15
983.80	227.14
984.09	227.16
984.39	227.19
984.68	227.17
984.97	227.18
985.26	227.18
985.55	227.20
985.85	227.22
986.14	227.25
986.43	227.27
986.72	227.29
987.01	227.27
987.30	227.26
987.59	227.26
987.89	227.26
988.18	227.21
988.47	227.22
988.76	227.19
989.05	227.15
989.34	227.13
989.63	227.16
989.92	227.16
990.22	227.16
990.51	227.14
990.80	227.15
991.09	227.16
991.38	227.14
991.67	227.11
991.96	227.10
992.25	227.10
992.54	227.07
992.83	227.06
993.12	227.06
993.41	227.11
993.70	227.15
993.99	227.19
994.28	227.22
994.58	227.20
994.87	227.17
995.16	227.19
995.45	227.22
995.74	227.17
996.03	227.18
996.32	227.19
996.61	227.24
996.90	227.25
997.19	227.25
997.48	227.23
997.77	227.24
998.06	227.24
998.34	227.20
998.63	227.21
998.92	227.21
999.21	227.22
999.50	227.21
999.79	227.18
1000.08	227.14
1000.37	227.13
1000.66	227.17
1000.95	227.21
1001.24	227.22
1001.53	227.21
1001.82	227.20
1002.11	227.17
1002.40	227.16
1002.68	227.15
1002.97	227.18
1003.26	227.14
1003.55	227.15
1003.84	227.18
1004.13	227.18
1004.42	227.21
1004.71	227.17
1004.99	227.15
1005.28	227.17
1005.57	227.19
1005.86	227.16
1006.15	227.15
1006.44	227.11
1006.72	227.12
1007.01	227.07
1007.30	227.06
1007.59	227.02
1007.88	227.01
1008.17	227.02
1008.45	226.98
1008.74	226.95
1009.03	226.93
1009.32	226.92
1009.60	226.90
1009.89	226.88
1010.18	226.86
1010.47	226.83
1010.76	226.82
1011.04	226.79
1011.33	226.77
1011.62	226.75
1011.91	226.74
1012.19	226.73
1012.48	226.72
1012.77	226.68
1013.05	226.70
1013.34	226.68
1013.63	226.70
1013.92	226.70
1014.20	226.69
1014.49	226.69
1014.78	226.68
1015.06	226.61
1015.35	226.64
1015.64	226.68
1015.92	226.64
1016.21	226.64
1016.50	226.67
1016.78	226.69
1017.07	226.75
1017.36	226.73
1017.64	226.73
1017.93	226.73
1018.22	226.75
1018.50	226.77
1018.79	226.76
1019.08	226.74
1019.36	226.74
1019.65	226.71
1019.93	226.77
1020.22	226.81
1020.51	226.87
1020.79	226.87
1021.08	226.88
1021.36	226.72
1021.65	226.48
1021.94	226.57
1022.22	226.54
1022.51	226.61
1022.79	227.56
1023.08	227.44
1023.36	228.04
1023.65	226.48
>>>>>End Processed Spectral Data<<<<<
