SpectraSuite Data File
++++++++++++++++++++++++++++++++++++
Date: Fri Feb 01 14:52:07 EST 2013
User: group
Dark Spectrum Present: No
Reference Spectrum Present: No
Number of Sampled Component Spectra: 1
Spectrometers: USB2E7196
Integration Time (usec): 35000 (USB2E7196)
Spectra Averaged: 100 (USB2E7196)
Boxcar Smoothing: 10 (USB2E7196)
Correct for Electrical Dark: No (USB2E7196)
Strobe/Lamp Enabled: No (USB2E7196)
Correct for Detector Non-linearity: No (USB2E7196)
Correct for Stray Light: No (USB2E7196)
Number of Pixels in Processed Spectrum: 2048
>>>>>Begin Processed Spectral Data<<<<<
339.09	0.00
339.48	215.68
339.86	217.11
340.24	217.90
340.63	219.22
341.01	222.57
341.39	222.13
341.78	223.72
342.16	224.55
342.54	225.90
342.93	213.73
343.31	224.51
343.69	225.06
344.07	225.52
344.46	225.99
344.84	226.39
345.22	226.63
345.60	226.90
345.99	227.09
346.37	227.25
346.75	227.35
347.13	227.39
347.52	227.43
347.90	227.56
348.28	227.60
348.66	227.63
349.05	227.59
349.43	227.62
349.81	227.67
350.19	227.74
350.57	227.82
350.96	227.91
351.34	228.02
351.72	228.09
352.10	228.16
352.48	228.21
352.87	228.28
353.25	228.37
353.63	228.45
354.01	228.54
354.39	228.59
354.77	228.67
355.15	228.83
355.54	228.92
355.92	228.93
356.30	229.01
356.68	229.15
357.06	229.27
357.44	229.32
357.82	229.39
358.20	229.46
358.58	229.52
358.97	229.56
359.35	229.65
359.73	229.74
360.11	229.82
360.49	229.88
360.87	229.92
361.25	229.94
361.63	230.01
362.01	230.05
362.39	230.10
362.77	230.13
363.15	230.15
363.53	230.17
363.91	230.19
364.29	230.19
364.67	230.12
365.05	230.15
365.43	230.22
365.81	230.24
366.19	230.27
366.57	230.28
366.95	230.25
367.33	230.21
367.71	230.18
368.09	230.17
368.47	230.14
368.85	230.12
369.23	230.11
369.61	230.04
369.99	230.02
370.37	230.00
370.75	230.01
371.13	229.94
371.51	229.88
371.89	229.82
372.27	229.77
372.65	229.72
373.03	229.66
373.41	229.55
373.78	229.44
374.16	229.33
374.54	229.24
374.92	229.19
375.30	229.13
375.68	229.03
376.06	228.96
376.44	228.88
376.82	228.82
377.19	228.71
377.57	228.63
377.95	228.51
378.33	228.39
378.71	228.25
379.09	228.16
379.47	228.09
379.84	228.00
380.22	227.90
380.60	227.82
380.98	227.69
381.36	227.60
381.73	227.54
382.11	227.45
382.49	227.40
382.87	227.27
383.25	227.18
383.62	227.22
384.00	227.11
384.38	227.04
384.76	226.98
385.13	226.98
385.51	226.86
385.89	226.81
386.27	226.79
386.64	226.78
387.02	226.76
387.40	226.69
387.78	226.66
388.15	226.66
388.53	226.57
388.91	226.56
389.29	226.55
389.66	226.57
390.04	226.56
390.42	226.53
390.79	226.55
391.17	226.56
391.55	226.43
391.92	226.45
392.30	226.45
392.68	226.44
393.05	226.41
393.43	226.49
393.81	226.52
394.18	226.50
394.56	226.50
394.94	226.52
395.31	226.54
395.69	226.65
396.06	226.65
396.44	226.74
396.82	226.78
397.19	226.89
397.57	226.89
397.95	226.99
398.32	227.05
398.70	227.14
399.07	227.21
399.45	227.30
399.82	227.40
400.20	227.51
400.58	227.58
400.95	227.69
401.33	227.79
401.70	227.94
402.08	228.08
402.45	228.18
402.83	228.30
403.20	228.45
403.58	228.54
403.95	228.72
404.33	228.87
404.71	229.04
405.08	229.23
405.46	229.39
405.83	229.55
406.21	229.73
406.58	229.90
406.96	230.07
407.33	230.25
407.70	230.45
408.08	230.73
408.45	231.00
408.83	231.23
409.20	231.45
409.58	231.66
409.95	231.94
410.33	232.23
410.70	232.51
411.08	232.81
411.45	233.13
411.82	233.45
412.20	233.81
412.57	234.19
412.95	234.47
413.32	234.89
413.69	235.26
414.07	235.67
414.44	236.11
414.82	236.62
415.19	237.16
415.56	237.69
415.94	238.21
416.31	238.85
416.68	239.45
417.06	240.16
417.43	240.80
417.81	241.53
418.18	242.33
418.55	243.17
418.93	244.04
419.30	244.92
419.67	245.84
420.04	246.79
420.42	247.77
420.79	248.93
421.16	250.06
421.54	251.28
421.91	252.45
422.28	253.73
422.66	255.04
423.03	256.32
423.40	257.64
423.77	259.01
424.15	260.41
424.52	261.86
424.89	263.46
425.26	265.00
425.64	266.42
426.01	267.98
426.38	269.61
426.75	271.21
427.13	272.88
427.50	274.66
427.87	276.48
428.24	278.32
428.61	280.06
428.99	282.00
429.36	284.08
429.73	286.15
430.10	288.12
430.47	290.18
430.85	292.27
431.22	294.49
431.59	296.90
431.96	299.14
432.33	301.67
432.70	304.06
433.08	306.87
433.45	309.51
433.82	312.12
434.19	314.98
434.56	317.80
434.93	320.50
435.30	323.14
435.68	326.08
436.05	328.90
436.42	331.67
436.79	334.18
437.16	336.89
437.53	339.75
437.90	342.59
438.27	345.35
438.64	348.23
439.01	350.88
439.38	353.09
439.75	355.23
440.13	357.71
440.50	360.03
440.87	361.89
441.24	363.85
441.61	366.02
441.98	367.58
442.35	369.39
442.72	371.21
443.09	373.02
443.46	374.02
443.83	374.60
444.20	375.19
444.57	375.99
444.94	376.29
445.31	376.65
445.68	377.04
446.05	377.12
446.42	376.72
446.79	376.31
447.16	375.88
447.53	375.55
447.90	374.43
448.27	373.31
448.64	371.75
449.01	370.59
449.37	368.61
449.74	366.68
450.11	364.44
450.48	361.98
450.85	359.43
451.22	357.28
451.59	355.26
451.96	353.28
452.33	350.73
452.70	348.35
453.07	345.49
453.43	342.60
453.80	339.80
454.17	337.14
454.54	334.59
454.91	331.88
455.28	329.24
455.65	326.72
456.02	324.26
456.38	322.11
456.75	319.47
457.12	317.23
457.49	315.03
457.86	312.86
458.23	311.02
458.59	308.97
458.96	306.89
459.33	305.06
459.70	303.17
460.07	301.67
460.43	299.96
460.80	298.34
461.17	296.83
461.54	295.37
461.91	293.99
462.27	292.52
462.64	291.29
463.01	289.96
463.38	288.64
463.74	287.29
464.11	286.12
464.48	285.09
464.85	283.96
465.21	283.06
465.58	282.14
465.95	281.03
466.32	280.13
466.68	279.23
467.05	278.31
467.42	277.42
467.78	276.48
468.15	275.59
468.52	274.93
468.88	274.09
469.25	273.29
469.62	272.62
469.98	271.94
470.35	271.24
470.72	270.59
471.08	269.92
471.45	269.34
471.82	268.77
472.18	268.14
472.55	267.70
472.92	267.19
473.28	266.72
473.65	266.24
474.02	265.80
474.38	265.42
474.75	265.10
475.11	264.78
475.48	264.50
475.85	264.26
476.21	264.02
476.58	263.81
476.94	263.63
477.31	263.46
477.67	263.31
478.04	263.17
478.41	263.12
478.77	263.17
479.14	263.10
479.50	263.13
479.87	263.19
480.23	263.27
480.60	263.30
480.96	263.35
481.33	263.54
481.69	263.68
482.06	263.88
482.42	264.06
482.79	264.31
483.15	264.61
483.52	264.98
483.88	265.30
484.25	265.65
484.61	266.08
484.98	266.53
485.34	267.04
485.71	267.64
486.07	268.22
486.44	268.76
486.80	269.46
487.17	270.17
487.53	270.97
487.90	271.80
488.26	272.71
488.62	273.70
488.99	274.66
489.35	275.73
489.72	276.83
490.08	278.02
490.44	279.23
490.81	280.58
491.17	281.90
491.54	283.35
491.90	284.92
492.26	286.54
492.63	288.21
492.99	290.01
493.36	291.90
493.72	293.96
494.08	296.06
494.45	298.27
494.81	300.61
495.17	303.05
495.54	305.58
495.90	308.23
496.26	311.00
496.63	314.00
496.99	317.05
497.35	320.27
497.72	323.66
498.08	327.15
498.44	330.76
498.80	334.68
499.17	338.71
499.53	342.81
499.89	347.15
500.26	351.67
500.62	356.34
500.98	361.27
501.34	366.28
501.71	371.58
502.07	376.98
502.43	382.60
502.79	388.36
503.16	394.39
503.52	400.61
503.88	406.94
504.24	413.48
504.60	420.31
504.97	427.39
505.33	434.67
505.69	442.31
506.05	450.08
506.41	457.90
506.78	466.00
507.14	474.42
507.50	483.10
507.86	492.04
508.22	501.20
508.59	510.35
508.95	519.90
509.31	529.64
509.67	539.68
510.03	549.93
510.39	560.47
510.75	571.26
511.12	582.17
511.48	593.46
511.84	604.91
512.20	616.40
512.56	628.32
512.92	640.48
513.28	652.83
513.64	665.26
514.00	677.92
514.37	690.81
514.73	703.95
515.09	716.94
515.45	730.20
515.81	743.77
516.17	757.68
516.53	771.78
516.89	786.06
517.25	800.29
517.61	814.63
517.97	829.04
518.33	843.48
518.69	858.29
519.05	873.30
519.41	888.59
519.77	904.20
520.13	919.67
520.49	935.04
520.85	950.40
521.21	966.09
521.57	982.41
521.93	998.29
522.29	1014.69
522.65	1031.02
523.01	1047.29
523.37	1063.43
523.73	1079.69
524.09	1095.77
524.45	1112.09
524.81	1128.79
525.17	1145.74
525.53	1162.62
525.89	1179.51
526.25	1196.33
526.61	1212.75
526.97	1229.53
527.33	1246.03
527.68	1262.64
528.04	1279.20
528.40	1296.06
528.76	1313.25
529.12	1329.94
529.48	1346.86
529.84	1362.90
530.20	1379.57
530.56	1396.55
530.91	1413.94
531.27	1430.83
531.63	1447.41
531.99	1464.13
532.35	1480.14
532.71	1496.04
533.07	1512.53
533.42	1528.60
533.78	1544.69
534.14	1561.10
534.50	1576.40
534.86	1592.35
535.21	1607.59
535.57	1623.56
535.93	1638.88
536.29	1653.74
536.65	1668.86
537.00	1683.67
537.36	1699.19
537.72	1713.86
538.08	1728.43
538.44	1742.16
538.79	1756.05
539.15	1769.90
539.51	1783.70
539.87	1798.21
540.22	1811.97
540.58	1825.68
540.94	1839.03
541.29	1852.06
541.65	1864.88
542.01	1878.28
542.37	1890.59
542.72	1903.13
543.08	1914.98
543.44	1927.55
543.79	1938.85
544.15	1949.84
544.51	1961.50
544.87	1972.41
545.22	1983.17
545.58	1993.42
545.94	2003.44
546.29	2013.41
546.65	2023.20
547.01	2032.35
547.36	2041.12
547.72	2049.70
548.07	2057.51
548.43	2065.61
548.79	2073.60
549.14	2081.13
549.50	2088.50
549.86	2096.26
550.21	2103.54
550.57	2110.76
550.92	2117.31
551.28	2124.41
551.64	2131.43
551.99	2137.91
552.35	2144.11
552.70	2150.15
553.06	2156.09
553.41	2162.28
553.77	2168.19
554.13	2174.25
554.48	2180.15
554.84	2185.19
555.19	2190.50
555.55	2195.62
555.90	2199.96
556.26	2204.68
556.61	2209.28
556.97	2213.36
557.32	2217.39
557.68	2221.48
558.03	2225.73
558.39	2229.42
558.74	2233.85
559.10	2237.51
559.45	2240.91
559.81	2244.91
560.16	2248.55
560.52	2251.69
560.87	2254.98
561.23	2257.44
561.58	2260.13
561.94	2262.67
562.29	2265.23
562.64	2267.66
563.00	2270.12
563.35	2273.61
563.71	2276.71
564.06	2279.50
564.42	2282.21
564.77	2284.58
565.12	2286.71
565.48	2288.20
565.83	2289.66
566.19	2290.76
566.54	2291.66
566.89	2292.74
567.25	2293.18
567.60	2294.50
567.96	2295.96
568.31	2296.58
568.66	2297.48
569.02	2297.97
569.37	2298.02
569.72	2298.61
570.08	2298.44
570.43	2298.20
570.78	2297.23
571.14	2295.35
571.49	2294.02
571.84	2293.33
572.20	2291.68
572.55	2290.35
572.90	2288.68
573.26	2287.10
573.61	2285.19
573.96	2283.09
574.31	2279.94
574.67	2276.77
575.02	2272.81
575.37	2269.17
575.72	2265.24
576.08	2261.75
576.43	2258.16
576.78	2254.33
577.13	2250.80
577.49	2247.56
577.84	2243.93
578.19	2240.21
578.54	2236.44
578.90	2231.95
579.25	2226.36
579.60	2221.43
579.95	2216.28
580.30	2211.12
580.66	2205.89
581.01	2200.74
581.36	2195.68
581.71	2191.31
582.06	2186.58
582.42	2181.92
582.77	2176.53
583.12	2171.83
583.47	2166.98
583.82	2161.79
584.17	2156.48
584.53	2151.00
584.88	2145.18
585.23	2139.24
585.58	2133.49
585.93	2127.97
586.28	2123.07
586.63	2117.84
586.98	2112.67
587.34	2107.82
587.69	2102.74
588.04	2097.29
588.39	2091.53
588.74	2084.95
589.09	2078.52
589.44	2071.58
589.79	2065.43
590.14	2059.67
590.49	2052.81
590.84	2046.21
591.19	2040.01
591.54	2033.37
591.89	2025.73
592.25	2018.84
592.60	2011.57
592.95	2003.88
593.30	1996.41
593.65	1988.69
594.00	1981.56
594.35	1974.22
594.70	1966.00
595.05	1958.88
595.40	1951.64
595.75	1944.14
596.10	1937.89
596.45	1931.11
596.80	1925.00
597.15	1918.46
597.50	1911.26
597.85	1904.86
598.19	1898.18
598.54	1891.18
598.89	1884.46
599.24	1878.59
599.59	1871.85
599.94	1865.55
600.29	1859.23
600.64	1852.63
600.99	1845.19
601.34	1838.24
601.69	1831.19
602.04	1824.35
602.39	1816.82
602.74	1809.90
603.08	1803.15
603.43	1796.33
603.78	1789.06
604.13	1781.69
604.48	1774.22
604.83	1767.38
605.18	1760.37
605.53	1752.41
605.87	1744.27
606.22	1737.05
606.57	1729.07
606.92	1721.81
607.27	1714.71
607.62	1707.76
607.96	1700.48
608.31	1693.95
608.66	1686.35
609.01	1678.80
609.36	1671.25
609.70	1663.30
610.05	1655.27
610.40	1647.68
610.75	1639.39
611.10	1631.79
611.44	1623.55
611.79	1615.70
612.14	1607.14
612.49	1598.05
612.83	1589.81
613.18	1581.75
613.53	1573.76
613.88	1565.38
614.22	1557.18
614.57	1548.76
614.92	1540.89
615.27	1533.36
615.61	1524.99
615.96	1517.10
616.31	1509.58
616.65	1502.33
617.00	1494.86
617.35	1487.17
617.70	1478.66
618.04	1470.21
618.39	1462.15
618.74	1454.61
619.08	1446.43
619.43	1438.95
619.78	1432.09
620.12	1424.95
620.47	1417.59
620.82	1409.51
621.16	1402.22
621.51	1394.69
621.85	1386.98
622.20	1378.53
622.55	1370.43
622.89	1362.74
623.24	1355.30
623.59	1347.98
623.93	1340.55
624.28	1333.46
624.62	1326.04
624.97	1319.13
625.32	1312.48
625.66	1305.59
626.01	1298.46
626.35	1291.03
626.70	1283.36
627.04	1275.69
627.39	1267.99
627.73	1260.69
628.08	1253.82
628.43	1246.50
628.77	1239.20
629.12	1231.87
629.46	1224.75
629.81	1217.31
630.15	1210.25
630.50	1202.78
630.84	1194.79
631.19	1186.88
631.53	1179.44
631.88	1172.05
632.22	1164.46
632.57	1157.28
632.91	1149.74
633.26	1142.47
633.60	1135.28
633.95	1128.34
634.29	1121.48
634.64	1114.78
634.98	1107.51
635.32	1100.57
635.67	1094.16
636.01	1087.63
636.36	1080.86
636.70	1074.41
637.05	1067.95
637.39	1061.54
637.73	1055.23
638.08	1049.44
638.42	1043.68
638.77	1037.19
639.11	1030.76
639.45	1024.51
639.80	1017.97
640.14	1011.58
640.49	1005.11
640.83	998.94
641.17	992.70
641.52	986.45
641.86	980.27
642.20	974.49
642.55	968.13
642.89	961.70
643.23	955.15
643.58	949.50
643.92	943.37
644.26	937.39
644.61	931.40
644.95	925.39
645.29	918.80
645.64	912.04
645.98	905.82
646.32	900.01
646.66	894.06
647.01	888.27
647.35	882.67
647.69	876.87
648.04	871.33
648.38	865.63
648.72	859.75
649.06	853.69
649.41	847.92
649.75	841.98
650.09	836.08
650.43	830.43
650.78	824.27
651.12	818.40
651.46	812.69
651.80	806.96
652.14	801.67
652.49	796.34
652.83	791.14
653.17	785.52
653.51	779.84
653.85	774.39
654.20	768.76
654.54	762.77
654.88	757.17
655.22	751.31
655.56	745.63
655.90	740.06
656.25	734.79
656.59	729.37
656.93	724.33
657.27	719.20
657.61	713.77
657.95	708.69
658.29	703.65
658.64	698.42
658.98	693.20
659.32	687.74
659.66	682.61
660.00	677.42
660.34	672.62
660.68	667.76
661.02	662.88
661.36	658.26
661.70	653.89
662.05	649.50
662.39	645.17
662.73	640.82
663.07	636.56
663.41	632.16
663.75	627.73
664.09	623.25
664.43	618.92
664.77	614.92
665.11	610.71
665.45	606.66
665.79	602.69
666.13	598.56
666.47	594.47
666.81	590.31
667.15	586.27
667.49	582.36
667.83	578.57
668.17	574.66
668.51	570.69
668.85	566.73
669.19	562.95
669.53	559.27
669.87	555.45
670.21	551.84
670.55	548.36
670.89	545.02
671.23	541.66
671.57	538.24
671.91	534.73
672.25	531.36
672.58	527.86
672.92	524.51
673.26	521.42
673.60	518.40
673.94	515.38
674.28	512.45
674.62	509.59
674.96	506.51
675.30	503.64
675.64	500.73
675.97	498.01
676.31	495.23
676.65	492.27
676.99	489.58
677.33	486.68
677.67	483.89
678.01	480.85
678.34	477.87
678.68	475.02
679.02	472.28
679.36	469.55
679.70	466.89
680.04	464.12
680.37	461.29
680.71	458.53
681.05	455.94
681.39	453.31
681.73	450.68
682.06	448.20
682.40	445.65
682.74	443.15
683.08	440.58
683.42	437.99
683.75	435.55
684.09	433.02
684.43	430.57
684.77	428.19
685.10	425.90
685.44	423.66
685.78	421.32
686.12	419.07
686.45	416.78
686.79	414.47
687.13	412.29
687.46	410.13
687.80	407.93
688.14	405.77
688.48	403.74
688.81	401.51
689.15	399.37
689.49	397.27
689.82	395.18
690.16	393.15
690.50	391.18
690.83	389.26
691.17	387.32
691.51	385.47
691.84	383.57
692.18	381.66
692.52	379.72
692.85	377.81
693.19	375.95
693.52	374.19
693.86	372.39
694.20	370.60
694.53	368.85
694.87	367.08
695.21	365.30
695.54	363.50
695.88	361.79
696.21	360.05
696.55	358.35
696.88	356.71
697.22	355.06
697.56	353.46
697.89	351.79
698.23	350.15
698.56	348.57
698.90	346.96
699.23	345.29
699.57	343.71
699.90	342.22
700.24	340.68
700.58	339.15
700.91	337.68
701.25	336.27
701.58	334.90
701.92	333.55
702.25	332.15
702.59	330.76
702.92	329.40
703.26	328.15
703.59	326.85
703.93	325.65
704.26	324.42
704.60	323.14
704.93	321.88
705.26	320.71
705.60	319.54
705.93	318.44
706.27	317.48
706.60	316.49
706.94	315.44
707.27	314.32
707.61	313.30
707.94	312.30
708.27	311.26
708.61	310.22
708.94	309.24
709.28	308.31
709.61	307.38
709.94	306.51
710.28	305.50
710.61	304.60
710.95	303.54
711.28	302.66
711.61	301.74
711.95	300.94
712.28	300.00
712.61	299.04
712.95	298.14
713.28	297.30
713.61	296.40
713.95	295.56
714.28	294.79
714.61	293.92
714.95	293.13
715.28	292.30
715.61	291.45
715.95	290.63
716.28	289.81
716.61	289.00
716.95	288.22
717.28	287.54
717.61	286.81
717.94	286.12
718.28	285.36
718.61	284.69
718.94	283.99
719.27	283.37
719.61	282.79
719.94	282.13
720.27	281.41
720.60	280.76
720.94	280.12
721.27	279.53
721.60	278.98
721.93	278.35
722.27	277.81
722.60	277.29
722.93	276.74
723.26	276.26
723.59	275.71
723.93	275.14
724.26	274.58
724.59	273.98
724.92	273.48
725.25	272.97
725.59	272.40
725.92	271.90
726.25	271.40
726.58	270.88
726.91	270.39
727.24	269.93
727.57	269.48
727.91	269.00
728.24	268.50
728.57	267.99
728.90	267.54
729.23	267.03
729.56	266.57
729.89	266.08
730.22	265.57
730.55	265.07
730.89	264.63
731.22	264.13
731.55	263.70
731.88	263.27
732.21	262.81
732.54	262.39
732.87	261.92
733.20	261.50
733.53	261.10
733.86	260.71
734.19	260.28
734.52	259.88
734.85	259.53
735.18	259.13
735.51	258.75
735.84	258.38
736.17	258.01
736.50	257.58
736.83	257.34
737.16	256.97
737.49	256.64
737.82	256.26
738.15	255.92
738.48	255.59
738.81	255.22
739.14	254.87
739.47	254.56
739.80	254.24
740.13	253.93
740.46	253.59
740.79	253.24
741.12	252.95
741.45	252.61
741.78	252.25
742.11	251.97
742.44	251.63
742.77	251.33
743.10	251.00
743.43	250.70
743.75	250.30
744.08	250.16
744.41	249.86
744.74	249.62
745.07	249.33
745.40	249.08
745.73	248.87
746.06	248.63
746.39	248.37
746.71	248.14
747.04	247.84
747.37	247.59
747.70	247.37
748.03	247.11
748.36	246.91
748.68	246.68
749.01	246.42
749.34	246.21
749.67	245.99
750.00	245.80
750.33	245.66
750.65	245.48
750.98	245.17
751.31	244.99
751.64	244.81
751.97	244.69
752.29	244.48
752.62	244.25
752.95	244.06
753.28	243.83
753.60	243.64
753.93	243.52
754.26	243.34
754.59	243.14
754.91	242.94
755.24	242.75
755.57	242.61
755.90	242.47
756.22	242.31
756.55	242.12
756.88	241.95
757.20	241.78
757.53	241.60
757.86	241.44
758.19	241.32
758.51	241.16
758.84	240.97
759.17	240.81
759.49	240.68
759.82	240.57
760.15	240.48
760.47	240.37
760.80	240.18
761.13	240.06
761.45	239.91
761.78	239.81
762.11	239.69
762.43	239.55
762.76	239.38
763.08	239.25
763.41	239.13
763.74	239.05
764.06	238.89
764.39	238.73
764.71	238.60
765.04	238.42
765.37	238.30
765.69	238.14
766.02	238.04
766.34	237.87
766.67	237.72
767.00	237.59
767.32	237.45
767.65	237.38
767.97	237.25
768.30	237.15
768.62	237.03
768.95	236.87
769.27	236.77
769.60	236.70
769.92	236.59
770.25	236.48
770.57	236.32
770.90	236.19
771.22	236.09
771.55	235.97
771.87	235.88
772.20	235.77
772.52	235.78
772.85	235.76
773.17	235.67
773.50	235.53
773.82	235.41
774.15	235.28
774.47	235.11
774.80	234.99
775.12	234.84
775.45	234.73
775.77	234.66
776.09	234.55
776.42	234.42
776.74	234.32
777.07	234.20
777.39	234.10
777.72	234.03
778.04	233.93
778.36	233.82
778.69	233.73
779.01	233.65
779.33	233.45
779.66	233.27
779.98	233.19
780.31	233.12
780.63	233.12
780.95	233.06
781.28	233.00
781.60	232.94
781.92	232.91
782.25	232.85
782.57	232.79
782.89	232.69
783.22	232.62
783.54	232.52
783.86	232.45
784.19	232.41
784.51	232.36
784.83	232.30
785.16	232.27
785.48	232.21
785.80	232.12
786.12	232.10
786.45	232.05
786.77	232.04
787.09	231.98
787.42	231.86
787.74	231.84
788.06	231.79
788.38	231.75
788.71	231.70
789.03	231.64
789.35	231.60
789.67	231.57
789.99	231.55
790.32	231.52
790.64	231.50
790.96	231.54
791.28	231.48
791.61	231.42
791.93	231.38
792.25	231.35
792.57	231.40
792.89	231.36
793.21	231.36
793.54	231.27
793.86	231.28
794.18	231.26
794.50	231.20
794.82	231.22
795.14	231.20
795.47	231.18
795.79	231.15
796.11	231.12
796.43	231.13
796.75	231.10
797.07	231.12
797.39	231.12
797.71	231.04
798.04	231.03
798.36	231.04
798.68	231.06
799.00	231.04
799.32	231.00
799.64	230.98
799.96	230.96
800.28	230.98
800.60	230.94
800.92	230.94
801.24	230.94
801.56	230.92
801.89	230.91
802.21	230.89
802.53	230.90
802.85	230.90
803.17	230.88
803.49	230.85
803.81	230.79
804.13	230.74
804.45	230.70
804.77	230.68
805.09	230.69
805.41	230.65
805.73	230.61
806.05	230.56
806.37	230.52
806.69	230.47
807.01	230.44
807.33	230.41
807.65	230.34
807.97	230.32
808.28	230.25
808.60	230.23
808.92	230.20
809.24	230.21
809.56	230.14
809.88	230.09
810.20	230.06
810.52	230.05
810.84	230.01
811.16	229.99
811.48	229.96
811.80	229.91
812.12	229.84
812.43	229.82
812.75	229.79
813.07	229.76
813.39	229.73
813.71	229.67
814.03	229.65
814.35	229.62
814.67	229.58
814.98	229.55
815.30	229.49
815.62	229.44
815.94	229.36
816.26	229.37
816.58	229.33
816.89	229.31
817.21	229.25
817.53	229.24
817.85	229.19
818.17	229.16
818.48	229.12
818.80	229.12
819.12	229.09
819.44	229.06
819.76	229.00
820.07	228.95
820.39	228.92
820.71	228.91
821.03	228.88
821.34	228.85
821.66	228.81
821.98	228.78
822.30	228.78
822.61	228.75
822.93	228.69
823.25	228.67
823.57	228.62
823.88	228.62
824.20	228.56
824.52	228.55
824.83	228.52
825.15	228.49
825.47	228.49
825.79	228.47
826.10	228.41
826.42	228.37
826.74	228.35
827.05	228.33
827.37	228.30
827.69	228.27
828.00	228.26
828.32	228.27
828.64	228.27
828.95	228.30
829.27	228.31
829.58	228.27
829.90	228.28
830.22	228.30
830.53	228.31
830.85	228.35
831.17	228.33
831.48	228.30
831.80	228.29
832.11	228.29
832.43	228.32
832.75	228.36
833.06	228.46
833.38	228.46
833.69	228.49
834.01	228.52
834.32	228.56
834.64	228.56
834.96	228.57
835.27	228.60
835.59	228.57
835.90	228.58
836.22	228.62
836.53	228.63
836.85	228.65
837.16	228.74
837.48	228.72
837.79	228.78
838.11	228.82
838.42	228.86
838.74	228.88
839.05	228.84
839.37	228.82
839.68	228.79
840.00	228.80
840.31	228.83
840.63	228.81
840.94	228.77
841.26	228.75
841.57	228.76
841.88	228.75
842.20	228.77
842.51	228.74
842.83	228.76
843.14	228.83
843.46	228.82
843.77	228.74
844.08	228.72
844.40	228.68
844.71	228.69
845.03	228.63
845.34	228.58
845.65	228.60
845.97	228.62
846.28	228.61
846.60	228.59
846.91	228.56
847.22	228.56
847.54	228.56
847.85	228.56
848.16	228.53
848.48	228.48
848.79	228.48
849.10	228.47
849.42	228.45
849.73	228.30
850.04	228.28
850.36	228.24
850.67	228.24
850.98	228.23
851.30	228.16
851.61	228.16
851.92	228.16
852.23	228.17
852.55	228.17
852.86	228.13
853.17	228.11
853.49	228.10
853.80	228.08
854.11	228.10
854.42	228.08
854.74	228.06
855.05	228.04
855.36	227.98
855.67	227.95
855.99	227.92
856.30	228.07
856.61	228.03
856.92	228.01
857.23	228.01
857.55	227.96
857.86	227.99
858.17	227.99
858.48	227.94
858.79	227.88
859.11	227.84
859.42	227.81
859.73	227.79
860.04	227.76
860.35	227.72
860.66	227.68
860.98	227.68
861.29	227.66
861.60	227.63
861.91	227.62
862.22	227.59
862.53	227.60
862.84	227.46
863.16	227.46
863.47	227.42
863.78	227.42
864.09	227.46
864.40	227.45
864.71	227.44
865.02	227.47
865.33	227.49
865.64	227.50
865.95	227.51
866.27	227.56
866.58	227.59
866.89	227.60
867.20	227.58
867.51	227.57
867.82	227.59
868.13	227.66
868.44	227.69
868.75	227.73
869.06	227.75
869.37	227.76
869.68	227.75
869.99	227.81
870.30	227.79
870.61	227.77
870.92	227.78
871.23	227.80
871.54	227.82
871.85	227.84
872.16	227.84
872.47	227.86
872.78	227.87
873.09	227.89
873.40	227.89
873.71	227.94
874.02	227.99
874.33	228.01
874.64	227.98
874.95	227.97
875.26	227.98
875.56	228.01
875.87	228.03
876.18	228.05
876.49	228.14
876.80	228.16
877.11	228.17
877.42	228.19
877.73	228.17
878.04	228.19
878.35	228.19
878.66	228.21
878.96	228.19
879.27	228.17
879.58	228.16
879.89	228.20
880.20	228.20
880.51	228.19
880.82	228.17
881.12	228.18
881.43	228.16
881.74	228.14
882.05	228.10
882.36	228.11
882.67	228.15
882.97	228.09
883.28	228.09
883.59	228.07
883.90	228.08
884.21	228.10
884.51	228.08
884.82	228.08
885.13	228.07
885.44	228.06
885.74	228.05
886.05	228.05
886.36	228.04
886.67	228.02
886.98	228.08
887.28	228.08
887.59	228.09
887.90	228.13
888.20	228.14
888.51	228.16
888.82	228.15
889.13	228.11
889.43	228.12
889.74	228.11
890.05	228.11
890.35	228.07
890.66	228.04
890.97	228.01
891.28	227.96
891.58	227.98
891.89	227.97
892.20	227.96
892.50	227.91
892.81	227.85
893.12	227.85
893.42	227.76
893.73	227.74
894.04	227.72
894.34	227.69
894.65	227.66
894.95	227.63
895.26	227.60
895.57	227.62
895.87	227.56
896.18	227.56
896.48	227.56
896.79	227.55
897.10	227.56
897.40	227.51
897.71	227.53
898.01	227.48
898.32	227.47
898.63	227.45
898.93	227.46
899.24	227.47
899.54	227.45
899.85	227.44
900.15	227.46
900.46	227.44
900.76	227.45
901.07	227.42
901.38	227.39
901.68	227.40
901.99	227.37
902.29	227.39
902.60	227.39
902.90	227.40
903.21	227.41
903.51	227.45
903.82	227.50
904.12	227.51
904.43	227.54
904.73	227.55
905.03	227.58
905.34	227.70
905.64	227.68
905.95	227.67
906.25	227.68
906.56	227.68
906.86	227.68
907.17	227.67
907.47	227.70
907.77	227.72
908.08	227.70
908.38	227.68
908.69	227.65
908.99	227.68
909.30	227.70
909.60	227.71
909.90	227.73
910.21	227.72
910.51	227.70
910.81	227.68
911.12	227.71
911.42	227.71
911.73	227.61
912.03	227.63
912.33	227.68
912.64	227.69
912.94	227.70
913.24	227.70
913.55	227.69
913.85	227.72
914.15	227.78
914.46	227.83
914.76	227.86
915.06	227.85
915.37	227.83
915.67	227.82
915.97	227.80
916.27	227.77
916.58	227.80
916.88	227.81
917.18	227.85
917.49	227.90
917.79	227.87
918.09	227.90
918.39	227.93
918.70	227.92
919.00	227.92
919.30	227.95
919.60	227.93
919.91	227.91
920.21	227.88
920.51	227.85
920.81	227.83
921.12	227.83
921.42	227.86
921.72	227.87
922.02	227.83
922.32	227.85
922.63	227.84
922.93	227.87
923.23	227.87
923.53	227.85
923.83	227.77
924.13	227.79
924.44	227.76
924.74	227.75
925.04	227.73
925.34	227.71
925.64	227.66
925.94	227.68
926.24	227.76
926.55	227.74
926.85	227.75
927.15	227.73
927.45	227.74
927.75	227.72
928.05	227.71
928.35	227.71
928.65	227.73
928.95	227.71
929.26	227.64
929.56	227.65
929.86	227.65
930.16	227.64
930.46	227.62
930.76	227.65
931.06	227.59
931.36	227.57
931.66	227.55
931.96	227.56
932.26	227.55
932.56	227.48
932.86	227.46
933.16	227.44
933.46	227.43
933.76	227.35
934.06	227.35
934.36	227.37
934.66	227.35
934.96	227.30
935.26	227.30
935.56	227.33
935.86	227.29
936.16	227.25
936.46	227.24
936.76	227.23
937.06	227.22
937.36	227.25
937.66	227.25
937.96	227.27
938.26	227.24
938.56	227.22
938.86	227.20
939.16	227.24
939.46	227.26
939.76	227.27
940.06	227.30
940.35	227.26
940.65	227.21
940.95	227.24
941.25	227.23
941.55	227.21
941.85	227.23
942.15	227.25
942.45	227.29
942.75	227.28
943.04	227.28
943.34	227.30
943.64	227.27
943.94	227.27
944.24	227.26
944.54	227.29
944.84	227.31
945.13	227.34
945.43	227.33
945.73	227.31
946.03	227.29
946.33	227.28
946.62	227.29
946.92	227.30
947.22	227.31
947.52	227.34
947.82	227.37
948.11	227.35
948.41	227.36
948.71	227.32
949.01	227.36
949.31	227.38
949.60	227.35
949.90	227.38
950.20	227.37
950.50	227.42
950.79	227.42
951.09	227.46
951.39	227.44
951.69	227.44
951.98	227.49
952.28	227.53
952.58	227.58
952.87	227.61
953.17	227.66
953.47	227.64
953.76	227.63
954.06	227.65
954.36	227.64
954.66	227.64
954.95	227.72
955.25	227.73
955.55	227.74
955.84	227.77
956.14	227.81
956.44	227.85
956.73	227.82
957.03	227.85
957.32	227.82
957.62	227.82
957.92	227.84
958.21	227.81
958.51	227.92
958.81	227.90
959.10	227.92
959.40	227.91
959.69	227.93
959.99	227.93
960.29	227.91
960.58	227.90
960.88	227.89
961.17	227.89
961.47	227.87
961.76	227.88
962.06	227.85
962.36	227.79
962.65	227.75
962.95	227.75
963.24	227.73
963.54	227.73
963.83	227.75
964.13	227.73
964.42	227.73
964.72	227.62
965.01	227.64
965.31	227.59
965.60	227.59
965.90	227.66
966.19	227.66
966.49	227.65
966.78	227.63
967.08	227.62
967.37	227.58
967.67	227.55
967.96	227.53
968.26	227.56
968.55	227.60
968.85	227.61
969.14	227.60
969.43	227.56
969.73	227.53
970.02	227.49
970.32	227.49
970.61	227.45
970.91	227.38
971.20	227.36
971.49	227.33
971.79	227.31
972.08	227.25
972.38	227.20
972.67	227.20
972.96	227.19
973.26	227.18
973.55	227.20
973.85	227.18
974.14	227.17
974.43	227.13
974.73	227.10
975.02	227.11
975.31	227.11
975.61	227.12
975.90	227.11
976.19	227.09
976.49	227.06
976.78	227.07
977.07	227.13
977.37	227.13
977.66	227.13
977.95	227.11
978.24	227.07
978.54	227.12
978.83	227.09
979.12	227.10
979.42	227.09
979.71	227.06
980.00	227.10
980.29	227.12
980.59	227.11
980.88	227.12
981.17	227.11
981.46	227.10
981.76	227.11
982.05	227.17
982.34	227.19
982.63	227.22
982.93	227.22
983.22	227.22
983.51	227.23
983.80	227.28
984.09	227.31
984.39	227.31
984.68	227.32
984.97	227.36
985.26	227.41
985.55	227.43
985.85	227.41
986.14	227.44
986.43	227.46
986.72	227.44
987.01	227.45
987.30	227.45
987.59	227.45
987.89	227.45
988.18	227.39
988.47	227.39
988.76	227.37
989.05	227.39
989.34	227.41
989.63	227.44
989.92	227.42
990.22	227.42
990.51	227.43
990.80	227.43
991.09	227.43
991.38	227.38
991.67	227.39
991.96	227.40
992.25	227.39
992.54	227.37
992.83	227.42
993.12	227.40
993.41	227.42
993.70	227.47
993.99	227.50
994.28	227.55
994.58	227.58
994.87	227.58
995.16	227.57
995.45	227.57
995.74	227.51
996.03	227.52
996.32	227.53
996.61	227.56
996.90	227.58
997.19	227.58
997.48	227.59
997.77	227.57
998.06	227.57
998.34	227.55
998.63	227.54
998.92	227.53
999.21	227.57
999.50	227.55
999.79	227.52
1000.08	227.51
1000.37	227.51
1000.66	227.51
1000.95	227.55
1001.24	227.58
1001.53	227.57
1001.82	227.56
1002.11	227.52
1002.40	227.50
1002.68	227.49
1002.97	227.54
1003.26	227.49
1003.55	227.46
1003.84	227.45
1004.13	227.48
1004.42	227.47
1004.71	227.47
1004.99	227.47
1005.28	227.47
1005.57	227.42
1005.86	227.38
1006.15	227.37
1006.44	227.33
1006.72	227.29
1007.01	227.22
1007.30	227.20
1007.59	227.16
1007.88	227.17
1008.17	227.20
1008.45	227.21
1008.74	227.18
1009.03	227.13
1009.32	227.17
1009.60	227.18
1009.89	227.21
1010.18	227.17
1010.47	227.18
1010.76	227.17
1011.04	227.16
1011.33	227.14
1011.62	227.17
1011.91	227.19
1012.19	227.18
1012.48	227.20
1012.77	227.23
1013.05	227.30
1013.34	227.27
1013.63	227.29
1013.92	227.30
1014.20	227.27
1014.49	227.26
1014.78	227.28
1015.06	227.23
1015.35	227.22
1015.64	227.25
1015.92	227.22
1016.21	227.18
1016.50	227.18
1016.78	227.16
1017.07	227.17
1017.36	227.17
1017.64	227.16
1017.93	227.18
1018.22	227.17
1018.50	227.19
1018.79	227.19
1019.08	227.16
1019.36	227.16
1019.65	227.13
1019.93	227.16
1020.22	227.18
1020.51	227.23
1020.79	227.20
1021.08	227.08
1021.36	227.26
1021.65	227.52
1021.94	227.59
1022.22	226.94
1022.51	226.78
1022.79	227.99
1023.08	227.05
1023.36	228.47
1023.65	226.77
>>>>>End Processed Spectral Data<<<<<
