SpectraSuite Data File
++++++++++++++++++++++++++++++++++++
Date: Fri Feb 01 15:58:30 EST 2013
User: group
Dark Spectrum Present: No
Reference Spectrum Present: No
Number of Sampled Component Spectra: 1
Spectrometers: USB2E7196
Integration Time (usec): 35000 (USB2E7196)
Spectra Averaged: 100 (USB2E7196)
Boxcar Smoothing: 10 (USB2E7196)
Correct for Electrical Dark: No (USB2E7196)
Strobe/Lamp Enabled: No (USB2E7196)
Correct for Detector Non-linearity: No (USB2E7196)
Correct for Stray Light: No (USB2E7196)
Number of Pixels in Processed Spectrum: 2048
>>>>>Begin Processed Spectral Data<<<<<
339.09	0.00
339.48	215.04
339.86	216.14
340.24	217.78
340.63	219.48
341.01	221.17
341.39	222.13
341.78	223.42
342.16	224.13
342.54	224.58
342.93	213.30
343.31	224.05
343.69	224.56
344.07	225.03
344.46	225.41
344.84	225.77
345.22	226.04
345.60	226.26
345.99	226.41
346.37	226.55
346.75	226.64
347.13	226.70
347.52	226.70
347.90	226.76
348.28	226.82
348.66	226.86
349.05	226.83
349.43	226.85
349.81	226.89
350.19	226.94
350.57	227.00
350.96	227.04
351.34	227.13
351.72	227.23
352.10	227.32
352.48	227.41
352.87	227.45
353.25	227.51
353.63	227.57
354.01	227.63
354.39	227.69
354.77	227.75
355.15	227.83
355.54	227.90
355.92	227.92
356.30	227.97
356.68	228.11
357.06	228.18
357.44	228.23
357.82	228.28
358.20	228.33
358.58	228.40
358.97	228.48
359.35	228.55
359.73	228.62
360.11	228.67
360.49	228.72
360.87	228.78
361.25	228.83
361.63	228.92
362.01	228.97
362.39	229.00
362.77	229.09
363.15	229.11
363.53	229.17
363.91	229.20
364.29	229.20
364.67	229.08
365.05	229.10
365.43	229.09
365.81	229.11
366.19	229.16
366.57	229.17
366.95	229.16
367.33	229.12
367.71	229.13
368.09	229.13
368.47	229.11
368.85	229.10
369.23	229.09
369.61	229.05
369.99	229.06
370.37	229.02
370.75	229.01
371.13	228.93
371.51	228.87
371.89	228.84
372.27	228.83
372.65	228.78
373.03	228.75
373.41	228.71
373.78	228.67
374.16	228.56
374.54	228.46
374.92	228.40
375.30	228.34
375.68	228.27
376.06	228.19
376.44	228.15
376.82	228.08
377.19	228.00
377.57	227.93
377.95	227.85
378.33	227.78
378.71	227.64
379.09	227.61
379.47	227.59
379.84	227.51
380.22	227.43
380.60	227.36
380.98	227.27
381.36	227.22
381.73	227.14
382.11	227.11
382.49	227.06
382.87	226.99
383.25	226.93
383.62	226.97
384.00	226.92
384.38	226.85
384.76	226.83
385.13	226.84
385.51	226.77
385.89	226.68
386.27	226.64
386.64	226.62
387.02	226.59
387.40	226.50
387.78	226.48
388.15	226.44
388.53	226.41
388.91	226.42
389.29	226.40
389.66	226.40
390.04	226.36
390.42	226.36
390.79	226.40
391.17	226.42
391.55	226.31
391.92	226.30
392.30	226.32
392.68	226.26
393.05	226.23
393.43	226.22
393.81	226.27
394.18	226.28
394.56	226.33
394.94	226.34
395.31	226.36
395.69	226.42
396.06	226.46
396.44	226.52
396.82	226.55
397.19	226.60
397.57	226.63
397.95	226.70
398.32	226.74
398.70	226.77
399.07	226.80
399.45	226.88
399.82	226.93
400.20	226.97
400.58	227.06
400.95	227.14
401.33	227.23
401.70	227.37
402.08	227.46
402.45	227.53
402.83	227.62
403.20	227.74
403.58	227.83
403.95	227.96
404.33	228.08
404.71	228.21
405.08	228.39
405.46	228.50
405.83	228.66
406.21	228.80
406.58	228.98
406.96	229.19
407.33	229.34
407.70	229.53
408.08	229.80
408.45	230.03
408.83	230.25
409.20	230.48
409.58	230.66
409.95	230.90
410.33	231.16
410.70	231.43
411.08	231.72
411.45	232.00
411.82	232.27
412.20	232.62
412.57	233.01
412.95	233.31
413.32	233.77
413.69	234.16
414.07	234.61
414.44	235.07
414.82	235.53
415.19	236.08
415.56	236.69
415.94	237.21
416.31	237.83
416.68	238.45
417.06	239.15
417.43	239.83
417.81	240.62
418.18	241.37
418.55	242.23
418.93	243.10
419.30	244.01
419.67	244.99
420.04	245.98
420.42	246.95
420.79	248.12
421.16	249.21
421.54	250.38
421.91	251.56
422.28	252.79
422.66	254.14
423.03	255.46
423.40	256.74
423.77	258.19
424.15	259.62
424.52	261.10
424.89	262.74
425.26	264.32
425.64	265.74
426.01	267.37
426.38	269.03
426.75	270.69
427.13	272.43
427.50	274.21
427.87	276.07
428.24	277.93
428.61	279.67
428.99	281.65
429.36	283.76
429.73	285.88
430.10	287.89
430.47	289.94
430.85	292.06
431.22	294.30
431.59	296.68
431.96	298.91
432.33	301.43
432.70	303.79
433.08	306.57
433.45	309.20
433.82	311.79
434.19	314.72
434.56	317.52
434.93	320.14
435.30	322.73
435.68	325.63
436.05	328.46
436.42	331.30
436.79	333.80
437.16	336.48
437.53	339.24
437.90	342.10
438.27	344.85
438.64	347.66
439.01	350.26
439.38	352.46
439.75	354.64
440.13	357.12
440.50	359.42
440.87	361.31
441.24	363.25
441.61	365.42
441.98	366.85
442.35	368.66
442.72	370.48
443.09	372.30
443.46	373.26
443.83	373.80
444.20	374.27
444.57	375.09
444.94	375.40
445.31	375.74
445.68	376.01
446.05	376.05
446.42	375.67
446.79	375.28
447.16	374.85
447.53	374.52
447.90	373.34
448.27	372.13
448.64	370.55
449.01	369.42
449.37	367.45
449.74	365.54
450.11	363.32
450.48	360.89
450.85	358.39
451.22	356.28
451.59	354.26
451.96	352.29
452.33	349.71
452.70	347.30
453.07	344.45
453.43	341.59
453.80	338.83
454.17	336.15
454.54	333.51
454.91	330.78
455.28	328.11
455.65	325.61
456.02	323.20
456.38	321.03
456.75	318.35
457.12	316.11
457.49	313.87
457.86	311.69
458.23	309.85
458.59	307.80
458.96	305.69
459.33	303.85
459.70	302.03
460.07	300.54
460.43	298.85
460.80	297.27
461.17	295.80
461.54	294.30
461.91	292.89
462.27	291.51
462.64	290.26
463.01	288.91
463.38	287.61
463.74	286.27
464.11	285.10
464.48	284.09
464.85	282.98
465.21	282.10
465.58	281.17
465.95	280.07
466.32	279.17
466.68	278.28
467.05	277.39
467.42	276.51
467.78	275.53
468.15	274.66
468.52	274.05
468.88	273.27
469.25	272.51
469.62	271.85
469.98	271.17
470.35	270.57
470.72	270.01
471.08	269.36
471.45	268.85
471.82	268.33
472.18	267.74
472.55	267.31
472.92	266.84
473.28	266.40
473.65	265.98
474.02	265.54
474.38	265.21
474.75	264.89
475.11	264.55
475.48	264.32
475.85	264.14
476.21	263.86
476.58	263.65
476.94	263.50
477.31	263.36
477.67	263.24
478.04	263.11
478.41	263.03
478.77	263.08
479.14	262.96
479.50	262.97
479.87	263.06
480.23	263.12
480.60	263.21
480.96	263.30
481.33	263.52
481.69	263.69
482.06	263.89
482.42	264.10
482.79	264.38
483.15	264.69
483.52	265.03
483.88	265.41
484.25	265.82
484.61	266.27
484.98	266.72
485.34	267.27
485.71	267.88
486.07	268.51
486.44	269.10
486.80	269.85
487.17	270.58
487.53	271.41
487.90	272.30
488.26	273.19
488.62	274.16
488.99	275.14
489.35	276.20
489.72	277.30
490.08	278.51
490.44	279.75
490.81	281.07
491.17	282.43
491.54	283.87
491.90	285.40
492.26	287.02
492.63	288.79
492.99	290.56
493.36	292.41
493.72	294.44
494.08	296.56
494.45	298.81
494.81	301.16
495.17	303.53
495.54	306.10
495.90	308.84
496.26	311.65
496.63	314.63
496.99	317.70
497.35	321.00
497.72	324.41
498.08	327.93
498.44	331.59
498.80	335.52
499.17	339.58
499.53	343.71
499.89	348.09
500.26	352.54
500.62	357.18
500.98	362.16
501.34	367.21
501.71	372.54
502.07	377.97
502.43	383.59
502.79	389.42
503.16	395.43
503.52	401.70
503.88	408.11
504.24	414.67
504.60	421.60
504.97	428.70
505.33	436.05
505.69	443.78
506.05	451.53
506.41	459.42
506.78	467.57
507.14	476.01
507.50	484.77
507.86	493.80
508.22	503.00
508.59	512.24
508.95	521.86
509.31	531.67
509.67	541.77
510.03	552.13
510.39	562.70
510.75	573.52
511.12	584.40
511.48	595.69
511.84	607.21
512.20	618.72
512.56	630.65
512.92	642.85
513.28	655.21
513.64	667.74
514.00	680.42
514.37	693.43
514.73	706.55
515.09	719.51
515.45	732.78
515.81	746.41
516.17	760.39
516.53	774.49
516.89	788.62
517.25	802.83
517.61	817.23
517.97	831.65
518.33	846.11
518.69	860.91
519.05	875.84
519.41	890.96
519.77	906.54
520.13	921.93
520.49	937.25
520.85	952.64
521.21	968.41
521.57	984.65
521.93	1000.32
522.29	1016.62
522.65	1032.84
523.01	1049.07
523.37	1065.06
523.73	1081.22
524.09	1097.29
524.45	1113.73
524.81	1130.28
525.17	1147.06
525.53	1164.00
525.89	1180.85
526.25	1197.64
526.61	1214.08
526.97	1230.83
527.33	1247.24
527.68	1263.86
528.04	1280.39
528.40	1296.96
528.76	1313.90
529.12	1330.47
529.48	1347.38
529.84	1363.47
530.20	1380.20
530.56	1397.16
530.91	1414.63
531.27	1431.42
531.63	1447.80
531.99	1464.27
532.35	1480.20
532.71	1496.06
533.07	1512.17
533.42	1528.01
533.78	1544.10
534.14	1560.42
534.50	1575.62
534.86	1591.45
535.21	1606.60
535.57	1622.40
535.93	1637.88
536.29	1652.67
536.65	1667.62
537.00	1682.30
537.36	1697.48
537.72	1711.88
538.08	1726.30
538.44	1740.03
538.79	1753.79
539.15	1767.47
539.51	1781.01
539.87	1795.27
540.22	1808.98
540.58	1822.74
540.94	1836.08
541.29	1848.96
541.65	1861.62
542.01	1874.81
542.37	1887.10
542.72	1899.54
543.08	1911.29
543.44	1923.52
543.79	1934.65
544.15	1945.64
544.51	1957.20
544.87	1968.22
545.22	1979.00
545.58	1989.14
545.94	1998.90
546.29	2008.65
546.65	2018.59
547.01	2027.85
547.36	2036.60
547.72	2044.94
548.07	2052.78
548.43	2060.73
548.79	2068.74
549.14	2076.04
549.50	2083.36
549.86	2090.97
550.21	2098.22
550.57	2105.42
550.92	2112.05
551.28	2119.15
551.64	2126.22
551.99	2132.71
552.35	2138.80
552.70	2144.96
553.06	2150.93
553.41	2157.15
553.77	2163.39
554.13	2169.38
554.48	2175.72
554.84	2181.14
555.19	2186.56
555.55	2191.63
555.90	2196.21
556.26	2200.95
556.61	2205.82
556.97	2210.02
557.32	2214.26
557.68	2218.41
558.03	2222.76
558.39	2226.48
558.74	2231.09
559.10	2235.07
559.45	2238.65
559.81	2243.01
560.16	2246.79
560.52	2250.01
560.87	2253.40
561.23	2255.92
561.58	2258.80
561.94	2261.17
562.29	2263.61
562.64	2266.26
563.00	2268.90
563.35	2272.52
563.71	2275.78
564.06	2278.99
564.42	2282.01
564.77	2284.35
565.12	2286.47
565.48	2288.22
565.83	2290.10
566.19	2291.46
566.54	2292.19
566.89	2293.42
567.25	2293.90
567.60	2295.21
567.96	2297.00
568.31	2297.96
568.66	2299.03
569.02	2299.55
569.37	2299.87
569.72	2300.68
570.08	2300.75
570.43	2300.94
570.78	2300.26
571.14	2298.70
571.49	2297.43
571.84	2297.12
572.20	2296.03
572.55	2295.17
572.90	2293.79
573.26	2292.39
573.61	2290.70
573.96	2289.03
574.31	2286.08
574.67	2283.19
575.02	2279.61
575.37	2276.18
575.72	2272.24
576.08	2269.01
576.43	2265.82
576.78	2262.17
577.13	2259.00
577.49	2255.86
577.84	2252.32
578.19	2248.73
578.54	2245.13
578.90	2240.79
579.25	2235.19
579.60	2230.21
579.95	2225.06
580.30	2219.98
580.66	2215.00
581.01	2210.04
581.36	2205.08
581.71	2200.91
582.06	2196.38
582.42	2191.96
582.77	2186.76
583.12	2182.31
583.47	2177.53
583.82	2172.57
584.17	2167.38
584.53	2161.76
584.88	2156.26
585.23	2150.52
585.58	2144.94
585.93	2139.48
586.28	2134.80
586.63	2129.81
586.98	2124.86
587.34	2120.33
587.69	2115.40
588.04	2109.90
588.39	2104.15
588.74	2097.73
589.09	2091.59
589.44	2084.88
589.79	2078.90
590.14	2073.40
590.49	2066.82
590.84	2060.52
591.19	2054.43
591.54	2047.91
591.89	2040.74
592.25	2033.91
592.60	2026.74
592.95	2019.15
593.30	2011.61
593.65	2003.97
594.00	1996.99
594.35	1989.58
594.70	1981.64
595.05	1974.48
595.40	1967.31
595.75	1959.84
596.10	1953.63
596.45	1946.87
596.80	1940.69
597.15	1934.04
597.50	1926.77
597.85	1920.34
598.19	1913.68
598.54	1906.48
598.89	1899.95
599.24	1893.99
599.59	1887.27
599.94	1881.00
600.29	1874.64
600.64	1868.24
600.99	1860.67
601.34	1853.72
601.69	1846.93
602.04	1839.90
602.39	1832.54
602.74	1825.64
603.08	1818.95
603.43	1812.11
603.78	1804.76
604.13	1797.42
604.48	1790.07
604.83	1783.17
605.18	1776.13
605.53	1767.95
605.87	1759.94
606.22	1752.65
606.57	1744.84
606.92	1737.53
607.27	1730.27
607.62	1723.40
607.96	1716.02
608.31	1709.48
608.66	1701.90
609.01	1694.33
609.36	1686.85
609.70	1678.79
610.05	1670.80
610.40	1663.03
610.75	1654.83
611.10	1647.24
611.44	1639.05
611.79	1631.12
612.14	1622.43
612.49	1613.40
612.83	1605.29
613.18	1597.13
613.53	1588.97
613.88	1580.30
614.22	1572.05
614.57	1563.50
614.92	1555.46
615.27	1547.94
615.61	1539.64
615.96	1531.75
616.31	1524.13
616.65	1516.71
617.00	1509.15
617.35	1501.47
617.70	1493.20
618.04	1484.69
618.39	1476.50
618.74	1468.83
619.08	1460.47
619.43	1453.05
619.78	1446.06
620.12	1438.74
620.47	1431.31
620.82	1423.20
621.16	1415.84
621.51	1408.19
621.85	1400.60
622.20	1392.15
622.55	1383.79
622.89	1375.96
623.24	1368.17
623.59	1360.84
623.93	1353.25
624.28	1346.18
624.62	1338.58
624.97	1331.40
625.32	1324.75
625.66	1317.70
626.01	1310.44
626.35	1303.00
626.70	1295.24
627.04	1287.51
627.39	1279.71
627.73	1272.30
628.08	1265.48
628.43	1258.09
628.77	1250.77
629.12	1243.21
629.46	1235.93
629.81	1228.55
630.15	1221.32
630.50	1213.97
630.84	1205.80
631.19	1197.95
631.53	1190.24
631.88	1182.76
632.22	1175.10
632.57	1167.68
632.91	1160.10
633.26	1152.68
633.60	1145.30
633.95	1138.17
634.29	1131.11
634.64	1124.43
634.98	1117.09
635.32	1109.83
635.67	1103.33
636.01	1096.66
636.36	1089.82
636.70	1083.34
637.05	1076.74
637.39	1070.26
637.73	1063.69
638.08	1057.77
638.42	1051.77
638.77	1045.43
639.11	1038.76
639.45	1032.45
639.80	1025.77
640.14	1019.39
640.49	1012.90
640.83	1006.61
641.17	1000.31
641.52	993.98
641.86	987.60
642.20	981.80
642.55	975.52
642.89	968.94
643.23	962.42
643.58	956.68
643.92	950.50
644.26	944.33
644.61	938.36
644.95	932.31
645.29	925.62
645.64	918.85
645.98	912.48
646.32	906.71
646.66	900.59
647.01	894.81
647.35	889.04
647.69	883.14
648.04	877.59
648.38	871.71
648.72	865.68
649.06	859.61
649.41	853.73
649.75	847.78
650.09	841.88
650.43	836.05
650.78	829.89
651.12	823.96
651.46	818.37
651.80	812.58
652.14	807.20
652.49	801.92
652.83	796.78
653.17	791.09
653.51	785.34
653.85	779.94
654.20	774.30
654.54	768.39
654.88	762.70
655.22	756.81
655.56	751.25
655.90	745.85
656.25	740.58
656.59	735.15
656.93	730.08
657.27	724.94
657.61	719.54
657.95	714.45
658.29	709.36
658.64	704.12
658.98	698.83
659.32	693.42
659.66	688.16
660.00	682.78
660.34	677.82
660.68	672.94
661.02	668.01
661.36	663.29
661.70	658.73
662.05	654.38
662.39	650.05
662.73	645.60
663.07	641.26
663.41	636.84
663.75	632.39
664.09	627.81
664.43	623.42
664.77	619.31
665.11	615.06
665.45	610.95
665.79	606.83
666.13	602.70
666.47	598.58
666.81	594.49
667.15	590.42
667.49	586.49
667.83	582.72
668.17	578.72
668.51	574.68
668.85	570.67
669.19	566.87
669.53	563.05
669.87	559.14
670.21	555.39
670.55	551.77
670.89	548.34
671.23	544.86
671.57	541.32
671.91	537.76
672.25	534.27
672.58	530.66
672.92	527.22
673.26	524.02
673.60	520.89
673.94	517.71
674.28	514.80
674.62	511.81
674.96	508.65
675.30	505.76
675.64	502.78
675.97	500.01
676.31	497.13
676.65	494.22
676.99	491.53
677.33	488.69
677.67	485.84
678.01	482.79
678.34	479.80
678.68	476.98
679.02	474.11
679.36	471.31
679.70	468.70
680.04	465.98
680.37	463.13
680.71	460.30
681.05	457.72
681.39	454.95
681.73	452.38
682.06	449.83
682.40	447.23
682.74	444.74
683.08	442.21
683.42	439.62
683.75	437.09
684.09	434.51
684.43	431.99
684.77	429.52
685.10	427.18
685.44	424.85
685.78	422.55
686.12	420.43
686.45	418.11
686.79	415.77
687.13	413.59
687.46	411.44
687.80	409.25
688.14	407.02
688.48	405.02
688.81	402.75
689.15	400.58
689.49	398.51
689.82	396.41
690.16	394.33
690.50	392.38
690.83	390.41
691.17	388.45
691.51	386.59
691.84	384.76
692.18	382.79
692.52	380.87
692.85	378.97
693.19	377.02
693.52	375.26
693.86	373.51
694.20	371.72
694.53	369.89
694.87	368.12
695.21	366.33
695.54	364.51
695.88	362.80
696.21	361.11
696.55	359.42
696.88	357.71
697.22	356.04
697.56	354.39
697.89	352.75
698.23	351.15
698.56	349.53
698.90	347.90
699.23	346.23
699.57	344.66
699.90	343.12
700.24	341.61
700.58	340.06
700.91	338.52
701.25	337.06
701.58	335.70
701.92	334.30
702.25	332.93
702.59	331.54
702.92	330.22
703.26	328.92
703.59	327.62
703.93	326.47
704.26	325.25
704.60	323.94
704.93	322.67
705.26	321.40
705.60	320.24
705.93	319.10
706.27	318.08
706.60	317.06
706.94	315.94
707.27	314.80
707.61	313.73
707.94	312.70
708.27	311.65
708.61	310.56
708.94	309.52
709.28	308.54
709.61	307.60
709.94	306.63
710.28	305.61
710.61	304.62
710.95	303.55
711.28	302.60
711.61	301.67
711.95	300.75
712.28	299.79
712.61	298.79
712.95	297.83
713.28	296.99
713.61	296.07
713.95	295.22
714.28	294.38
714.61	293.52
714.95	292.66
715.28	291.79
715.61	290.93
715.95	290.11
716.28	289.27
716.61	288.43
716.95	287.63
717.28	286.88
717.61	286.15
717.94	285.38
718.28	284.59
718.61	283.87
718.94	283.20
719.27	282.57
719.61	281.90
719.94	281.27
720.27	280.55
720.60	279.90
720.94	279.24
721.27	278.62
721.60	278.04
721.93	277.46
722.27	276.92
722.60	276.36
722.93	275.78
723.26	275.22
723.59	274.64
723.93	274.10
724.26	273.57
724.59	273.02
724.92	272.50
725.25	272.05
725.59	271.50
725.92	270.98
726.25	270.44
726.58	270.01
726.91	269.52
727.24	269.04
727.57	268.55
727.91	268.09
728.24	267.60
728.57	267.09
728.90	266.59
729.23	266.10
729.56	265.66
729.89	265.20
730.22	264.71
730.55	264.27
730.89	263.78
731.22	263.33
731.55	262.89
731.88	262.51
732.21	262.05
732.54	261.65
732.87	261.23
733.20	260.85
733.53	260.40
733.86	259.99
734.19	259.61
734.52	259.22
734.85	258.90
735.18	258.51
735.51	258.14
735.84	257.79
736.17	257.44
736.50	257.07
736.83	256.85
737.16	256.53
737.49	256.20
737.82	255.86
738.15	255.53
738.48	255.19
738.81	254.87
739.14	254.54
739.47	254.21
739.80	253.92
740.13	253.62
740.46	253.31
740.79	253.04
741.12	252.73
741.45	252.44
741.78	252.08
742.11	251.82
742.44	251.52
742.77	251.25
743.10	250.93
743.43	250.61
743.75	250.21
744.08	250.07
744.41	249.80
744.74	249.52
745.07	249.22
745.40	248.96
745.73	248.72
746.06	248.45
746.39	248.19
746.71	247.89
747.04	247.61
747.37	247.37
747.70	247.09
748.03	246.83
748.36	246.61
748.68	246.39
749.01	246.13
749.34	245.91
749.67	245.68
750.00	245.46
750.33	245.30
750.65	245.06
750.98	244.72
751.31	244.49
751.64	244.29
751.97	244.14
752.29	243.92
752.62	243.64
752.95	243.40
753.28	243.17
753.60	243.03
753.93	242.86
754.26	242.64
754.59	242.40
754.91	242.19
755.24	241.97
755.57	241.76
755.90	241.56
756.22	241.35
756.55	241.16
756.88	240.99
757.20	240.79
757.53	240.61
757.86	240.44
758.19	240.27
758.51	240.13
758.84	239.92
759.17	239.75
759.49	239.61
759.82	239.51
760.15	239.39
760.47	239.22
760.80	239.05
761.13	238.90
761.45	238.75
761.78	238.64
762.11	238.51
762.43	238.35
762.76	238.20
763.08	238.07
763.41	237.93
763.74	237.81
764.06	237.66
764.39	237.51
764.71	237.38
765.04	237.22
765.37	237.06
765.69	236.92
766.02	236.78
766.34	236.67
766.67	236.53
767.00	236.42
767.32	236.34
767.65	236.27
767.97	236.17
768.30	236.10
768.62	235.97
768.95	235.82
769.27	235.71
769.60	235.67
769.92	235.57
770.25	235.46
770.57	235.32
770.90	235.19
771.22	235.10
771.55	235.01
771.87	234.94
772.20	234.88
772.52	234.86
772.85	234.89
773.17	234.79
773.50	234.68
773.82	234.56
774.15	234.39
774.47	234.26
774.80	234.17
775.12	234.07
775.45	233.96
775.77	233.93
776.09	233.86
776.42	233.76
776.74	233.70
777.07	233.60
777.39	233.52
777.72	233.47
778.04	233.41
778.36	233.33
778.69	233.26
779.01	233.20
779.33	233.05
779.66	232.92
779.98	232.84
780.31	232.78
780.63	232.77
780.95	232.74
781.28	232.66
781.60	232.56
781.92	232.50
782.25	232.45
782.57	232.35
782.89	232.32
783.22	232.27
783.54	232.18
783.86	232.16
784.19	232.12
784.51	232.10
784.83	232.04
785.16	232.01
785.48	231.98
785.80	231.89
786.12	231.88
786.45	231.78
786.77	231.77
787.09	231.75
787.42	231.65
787.74	231.59
788.06	231.57
788.38	231.54
788.71	231.51
789.03	231.49
789.35	231.50
789.67	231.45
789.99	231.41
790.32	231.38
790.64	231.31
790.96	231.34
791.28	231.25
791.61	231.19
791.93	231.14
792.25	231.08
792.57	231.13
792.89	231.04
793.21	231.04
793.54	230.99
793.86	230.90
794.18	230.90
794.50	230.89
794.82	230.85
795.14	230.85
795.47	230.82
795.79	230.77
796.11	230.66
796.43	230.61
796.75	230.56
797.07	230.53
797.39	230.50
797.71	230.41
798.04	230.42
798.36	230.40
798.68	230.37
799.00	230.37
799.32	230.30
799.64	230.32
799.96	230.26
800.28	230.21
800.60	230.20
800.92	230.17
801.24	230.12
801.56	230.09
801.89	230.04
802.21	230.01
802.53	229.98
802.85	229.99
803.17	229.98
803.49	229.92
803.81	229.90
804.13	229.84
804.45	229.78
804.77	229.73
805.09	229.71
805.41	229.69
805.73	229.62
806.05	229.57
806.37	229.48
806.69	229.44
807.01	229.40
807.33	229.35
807.65	229.27
807.97	229.27
808.28	229.20
808.60	229.14
808.92	229.12
809.24	229.16
809.56	229.10
809.88	229.06
810.20	229.06
810.52	229.03
810.84	229.01
811.16	229.02
811.48	229.00
811.80	228.99
812.12	228.92
812.43	228.89
812.75	228.86
813.07	228.87
813.39	228.88
813.71	228.85
814.03	228.81
814.35	228.81
814.67	228.75
814.98	228.73
815.30	228.75
815.62	228.67
815.94	228.56
816.26	228.59
816.58	228.55
816.89	228.55
817.21	228.50
817.53	228.48
817.85	228.43
818.17	228.41
818.48	228.36
818.80	228.39
819.12	228.35
819.44	228.33
819.76	228.30
820.07	228.25
820.39	228.23
820.71	228.27
821.03	228.25
821.34	228.25
821.66	228.25
821.98	228.21
822.30	228.23
822.61	228.28
822.93	228.23
823.25	228.25
823.57	228.21
823.88	228.22
824.20	228.21
824.52	228.19
824.83	228.19
825.15	228.18
825.47	228.15
825.79	228.19
826.10	228.16
826.42	228.12
826.74	228.15
827.05	228.17
827.37	228.14
827.69	228.11
828.00	228.11
828.32	228.09
828.64	228.10
828.95	228.17
829.27	228.14
829.58	228.11
829.90	228.12
830.22	228.12
830.53	228.15
830.85	228.15
831.17	228.17
831.48	228.15
831.80	228.12
832.11	228.14
832.43	228.12
832.75	228.12
833.06	228.20
833.38	228.14
833.69	228.12
834.01	228.13
834.32	228.15
834.64	228.15
834.96	228.17
835.27	228.16
835.59	228.09
835.90	228.06
836.22	228.07
836.53	228.03
836.85	228.01
837.16	228.04
837.48	228.05
837.79	228.03
838.11	228.02
838.42	228.03
838.74	228.01
839.05	227.98
839.37	227.95
839.68	227.87
840.00	227.86
840.31	227.85
840.63	227.84
840.94	227.81
841.26	227.81
841.57	227.77
841.88	227.76
842.20	227.74
842.51	227.73
842.83	227.70
843.14	227.76
843.46	227.75
843.77	227.71
844.08	227.71
844.40	227.70
844.71	227.67
845.03	227.65
845.34	227.64
845.65	227.64
845.97	227.67
846.28	227.67
846.60	227.69
846.91	227.66
847.22	227.64
847.54	227.67
847.85	227.65
848.16	227.64
848.48	227.62
848.79	227.68
849.10	227.67
849.42	227.67
849.73	227.58
850.04	227.57
850.36	227.51
850.67	227.52
850.98	227.50
851.30	227.53
851.61	227.51
851.92	227.50
852.23	227.54
852.55	227.53
852.86	227.49
853.17	227.50
853.49	227.52
853.80	227.54
854.11	227.52
854.42	227.54
854.74	227.53
855.05	227.53
855.36	227.47
855.67	227.48
855.99	227.51
856.30	227.62
856.61	227.64
856.92	227.64
857.23	227.59
857.55	227.57
857.86	227.56
858.17	227.59
858.48	227.57
858.79	227.52
859.11	227.50
859.42	227.54
859.73	227.52
860.04	227.52
860.35	227.50
860.66	227.46
860.98	227.43
861.29	227.44
861.60	227.41
861.91	227.43
862.22	227.41
862.53	227.38
862.84	227.30
863.16	227.30
863.47	227.30
863.78	227.34
864.09	227.33
864.40	227.33
864.71	227.33
865.02	227.30
865.33	227.31
865.64	227.30
865.95	227.26
866.27	227.33
866.58	227.29
866.89	227.27
867.20	227.27
867.51	227.27
867.82	227.25
868.13	227.28
868.44	227.22
868.75	227.21
869.06	227.21
869.37	227.20
869.68	227.19
869.99	227.18
870.30	227.17
870.61	227.19
870.92	227.13
871.23	227.16
871.54	227.18
871.85	227.21
872.16	227.23
872.47	227.23
872.78	227.17
873.09	227.23
873.40	227.24
873.71	227.22
874.02	227.24
874.33	227.20
874.64	227.18
874.95	227.25
875.26	227.27
875.56	227.27
875.87	227.24
876.18	227.22
876.49	227.33
876.80	227.32
877.11	227.32
877.42	227.33
877.73	227.31
878.04	227.31
878.35	227.32
878.66	227.32
878.96	227.34
879.27	227.30
879.58	227.26
879.89	227.23
880.20	227.25
880.51	227.23
880.82	227.26
881.12	227.26
881.43	227.17
881.74	227.14
882.05	227.13
882.36	227.12
882.67	227.12
882.97	226.99
883.28	226.95
883.59	226.92
883.90	226.94
884.21	226.92
884.51	226.92
884.82	226.85
885.13	226.82
885.44	226.78
885.74	226.82
886.05	226.83
886.36	226.82
886.67	226.78
886.98	226.83
887.28	226.84
887.59	226.87
887.90	226.94
888.20	226.93
888.51	226.91
888.82	226.90
889.13	226.91
889.43	226.97
889.74	226.99
890.05	226.98
890.35	226.94
890.66	226.93
890.97	226.91
891.28	226.92
891.58	226.94
891.89	226.93
892.20	226.88
892.50	226.88
892.81	226.88
893.12	226.88
893.42	226.83
893.73	226.82
894.04	226.82
894.34	226.79
894.65	226.79
894.95	226.81
895.26	226.80
895.57	226.86
895.87	226.83
896.18	226.83
896.48	226.87
896.79	226.88
897.10	226.90
897.40	226.93
897.71	226.95
898.01	226.91
898.32	226.95
898.63	226.98
898.93	226.99
899.24	227.02
899.54	227.04
899.85	227.02
900.15	227.00
900.46	226.99
900.76	226.98
901.07	227.02
901.38	227.03
901.68	227.06
901.99	226.97
902.29	226.97
902.60	226.94
902.90	226.92
903.21	226.93
903.51	226.93
903.82	226.92
904.12	226.95
904.43	226.96
904.73	226.95
905.03	226.94
905.34	227.03
905.64	227.01
905.95	227.01
906.25	227.02
906.56	227.02
906.86	227.00
907.17	227.01
907.47	226.98
907.77	226.96
908.08	226.96
908.38	226.97
908.69	226.97
908.99	227.00
909.30	227.01
909.60	227.04
909.90	227.05
910.21	227.03
910.51	227.03
910.81	227.03
911.12	227.04
911.42	227.03
911.73	226.92
912.03	226.94
912.33	226.95
912.64	226.99
912.94	226.99
913.24	226.98
913.55	226.96
913.85	226.95
914.15	226.96
914.46	226.97
914.76	226.96
915.06	226.95
915.37	226.92
915.67	226.91
915.97	226.90
916.27	226.88
916.58	226.92
916.88	226.89
917.18	226.88
917.49	226.94
917.79	226.95
918.09	226.98
918.39	226.99
918.70	226.97
919.00	226.93
919.30	226.98
919.60	226.97
919.91	226.95
920.21	226.97
920.51	226.96
920.81	226.97
921.12	226.99
921.42	227.00
921.72	227.00
922.02	226.98
922.32	226.96
922.63	226.96
922.93	226.96
923.23	226.96
923.53	226.98
923.83	226.91
924.13	226.89
924.44	226.88
924.74	226.86
925.04	226.88
925.34	226.88
925.64	226.83
925.94	226.86
926.24	226.94
926.55	226.91
926.85	226.94
927.15	226.91
927.45	226.91
927.75	226.90
928.05	226.91
928.35	226.92
928.65	226.95
928.95	226.95
929.26	226.92
929.56	226.97
929.86	226.95
930.16	226.96
930.46	226.93
930.76	226.94
931.06	226.93
931.36	226.92
931.66	226.95
931.96	226.96
932.26	226.96
932.56	226.92
932.86	226.92
933.16	226.91
933.46	226.92
933.76	226.92
934.06	226.94
934.36	226.98
934.66	226.96
934.96	226.94
935.26	226.92
935.56	226.89
935.86	226.82
936.16	226.80
936.46	226.78
936.76	226.79
937.06	226.80
937.36	226.80
937.66	226.80
937.96	226.80
938.26	226.82
938.56	226.83
938.86	226.86
939.16	226.90
939.46	226.91
939.76	226.91
940.06	226.93
940.35	226.92
940.65	226.86
940.95	226.85
941.25	226.84
941.55	226.86
941.85	226.90
942.15	226.90
942.45	226.94
942.75	226.93
943.04	226.94
943.34	226.94
943.64	226.93
943.94	226.93
944.24	226.89
944.54	226.87
944.84	226.84
945.13	226.79
945.43	226.74
945.73	226.71
946.03	226.69
946.33	226.66
946.62	226.64
946.92	226.66
947.22	226.69
947.52	226.70
947.82	226.72
948.11	226.67
948.41	226.68
948.71	226.63
949.01	226.65
949.31	226.63
949.60	226.61
949.90	226.61
950.20	226.61
950.50	226.60
950.79	226.55
951.09	226.58
951.39	226.53
951.69	226.51
951.98	226.55
952.28	226.55
952.58	226.54
952.87	226.54
953.17	226.53
953.47	226.52
953.76	226.52
954.06	226.46
954.36	226.47
954.66	226.51
954.95	226.54
955.25	226.56
955.55	226.57
955.84	226.52
956.14	226.52
956.44	226.51
956.73	226.51
957.03	226.54
957.32	226.52
957.62	226.55
957.92	226.57
958.21	226.55
958.51	226.63
958.81	226.61
959.10	226.60
959.40	226.63
959.69	226.64
959.99	226.66
960.29	226.66
960.58	226.62
960.88	226.62
961.17	226.62
961.47	226.60
961.76	226.61
962.06	226.68
962.36	226.68
962.65	226.72
962.95	226.71
963.24	226.69
963.54	226.70
963.83	226.72
964.13	226.70
964.42	226.65
964.72	226.59
965.01	226.62
965.31	226.63
965.60	226.59
965.90	226.65
966.19	226.64
966.49	226.67
966.78	226.68
967.08	226.69
967.37	226.67
967.67	226.63
967.96	226.64
968.26	226.62
968.55	226.61
968.85	226.58
969.14	226.59
969.43	226.64
969.73	226.62
970.02	226.60
970.32	226.63
970.61	226.65
970.91	226.63
971.20	226.61
971.49	226.64
971.79	226.68
972.08	226.59
972.38	226.59
972.67	226.56
972.96	226.60
973.26	226.56
973.55	226.60
973.85	226.63
974.14	226.65
974.43	226.69
974.73	226.68
975.02	226.67
975.31	226.69
975.61	226.65
975.90	226.66
976.19	226.67
976.49	226.68
976.78	226.68
977.07	226.67
977.37	226.69
977.66	226.68
977.95	226.63
978.24	226.67
978.54	226.69
978.83	226.69
979.12	226.66
979.42	226.70
979.71	226.68
980.00	226.69
980.29	226.66
980.59	226.62
980.88	226.66
981.17	226.67
981.46	226.66
981.76	226.67
982.05	226.70
982.34	226.71
982.63	226.71
982.93	226.69
983.22	226.73
983.51	226.74
983.80	226.74
984.09	226.77
984.39	226.76
984.68	226.75
984.97	226.77
985.26	226.76
985.55	226.76
985.85	226.73
986.14	226.73
986.43	226.74
986.72	226.74
987.01	226.72
987.30	226.69
987.59	226.69
987.89	226.71
988.18	226.68
988.47	226.66
988.76	226.64
989.05	226.65
989.34	226.63
989.63	226.66
989.92	226.65
990.22	226.67
990.51	226.64
990.80	226.65
991.09	226.67
991.38	226.68
991.67	226.67
991.96	226.71
992.25	226.69
992.54	226.69
992.83	226.70
993.12	226.68
993.41	226.71
993.70	226.76
993.99	226.75
994.28	226.78
994.58	226.79
994.87	226.76
995.16	226.76
995.45	226.79
995.74	226.74
996.03	226.75
996.32	226.74
996.61	226.78
996.90	226.78
997.19	226.77
997.48	226.78
997.77	226.80
998.06	226.79
998.34	226.81
998.63	226.78
998.92	226.77
999.21	226.77
999.50	226.77
999.79	226.73
1000.08	226.73
1000.37	226.68
1000.66	226.66
1000.95	226.72
1001.24	226.69
1001.53	226.68
1001.82	226.66
1002.11	226.63
1002.40	226.63
1002.68	226.63
1002.97	226.68
1003.26	226.67
1003.55	226.64
1003.84	226.61
1004.13	226.64
1004.42	226.66
1004.71	226.67
1004.99	226.70
1005.28	226.75
1005.57	226.73
1005.86	226.72
1006.15	226.71
1006.44	226.74
1006.72	226.76
1007.01	226.74
1007.30	226.77
1007.59	226.74
1007.88	226.72
1008.17	226.74
1008.45	226.72
1008.74	226.66
1009.03	226.63
1009.32	226.65
1009.60	226.66
1009.89	226.67
1010.18	226.64
1010.47	226.61
1010.76	226.62
1011.04	226.59
1011.33	226.59
1011.62	226.60
1011.91	226.62
1012.19	226.62
1012.48	226.64
1012.77	226.65
1013.05	226.71
1013.34	226.71
1013.63	226.75
1013.92	226.79
1014.20	226.81
1014.49	226.81
1014.78	226.84
1015.06	226.82
1015.35	226.82
1015.64	226.82
1015.92	226.84
1016.21	226.85
1016.50	226.85
1016.78	226.86
1017.07	226.88
1017.36	226.88
1017.64	226.89
1017.93	226.87
1018.22	226.90
1018.50	226.87
1018.79	226.89
1019.08	226.84
1019.36	226.87
1019.65	226.86
1019.93	226.89
1020.22	226.89
1020.51	226.94
1020.79	226.96
1021.08	226.98
1021.36	226.39
1021.65	227.03
1021.94	227.09
1022.22	227.11
1022.51	226.83
1022.79	227.08
1023.08	227.17
1023.36	227.67
1023.65	226.79
>>>>>End Processed Spectral Data<<<<<
