SpectraSuite Data File
++++++++++++++++++++++++++++++++++++
Date: Fri Feb 01 15:37:27 EST 2013
User: group
Dark Spectrum Present: No
Reference Spectrum Present: No
Number of Sampled Component Spectra: 1
Spectrometers: USB2E7196
Integration Time (usec): 35000 (USB2E7196)
Spectra Averaged: 100 (USB2E7196)
Boxcar Smoothing: 10 (USB2E7196)
Correct for Electrical Dark: No (USB2E7196)
Strobe/Lamp Enabled: No (USB2E7196)
Correct for Detector Non-linearity: No (USB2E7196)
Correct for Stray Light: No (USB2E7196)
Number of Pixels in Processed Spectrum: 2048
>>>>>Begin Processed Spectral Data<<<<<
339.09	0.00
339.48	214.76
339.86	216.04
340.24	217.74
340.63	218.93
341.01	222.52
341.39	221.90
341.78	223.42
342.16	224.08
342.54	225.14
342.93	213.38
343.31	224.17
343.69	224.70
344.07	225.17
344.46	225.60
344.84	225.99
345.22	226.17
345.60	226.42
345.99	226.57
346.37	226.71
346.75	226.83
347.13	226.89
347.52	226.96
347.90	227.02
348.28	227.05
348.66	227.09
349.05	227.06
349.43	227.08
349.81	227.09
350.19	227.14
350.57	227.18
350.96	227.20
351.34	227.25
351.72	227.36
352.10	227.43
352.48	227.54
352.87	227.60
353.25	227.67
353.63	227.70
354.01	227.76
354.39	227.82
354.77	227.81
355.15	227.92
355.54	227.96
355.92	227.98
356.30	228.03
356.68	228.18
357.06	228.27
357.44	228.35
357.82	228.41
358.20	228.46
358.58	228.51
358.97	228.57
359.35	228.69
359.73	228.78
360.11	228.83
360.49	228.86
360.87	228.92
361.25	229.01
361.63	229.10
362.01	229.15
362.39	229.17
362.77	229.27
363.15	229.26
363.53	229.28
363.91	229.35
364.29	229.38
364.67	229.27
365.05	229.26
365.43	229.28
365.81	229.26
366.19	229.34
366.57	229.37
366.95	229.35
367.33	229.31
367.71	229.26
368.09	229.26
368.47	229.24
368.85	229.23
369.23	229.21
369.61	229.16
369.99	229.17
370.37	229.16
370.75	229.14
371.13	229.11
371.51	229.08
371.89	229.02
372.27	228.99
372.65	228.97
373.03	228.98
373.41	228.91
373.78	228.87
374.16	228.73
374.54	228.64
374.92	228.57
375.30	228.46
375.68	228.41
376.06	228.37
376.44	228.28
376.82	228.17
377.19	228.08
377.57	228.03
377.95	227.95
378.33	227.88
378.71	227.77
379.09	227.72
379.47	227.62
379.84	227.55
380.22	227.48
380.60	227.40
380.98	227.27
381.36	227.19
381.73	227.13
382.11	227.10
382.49	227.05
382.87	226.99
383.25	226.95
383.62	227.01
384.00	226.92
384.38	226.91
384.76	226.87
385.13	226.84
385.51	226.80
385.89	226.73
386.27	226.68
386.64	226.67
387.02	226.64
387.40	226.61
387.78	226.58
388.15	226.56
388.53	226.54
388.91	226.51
389.29	226.49
389.66	226.47
390.04	226.44
390.42	226.44
390.79	226.45
391.17	226.45
391.55	226.31
391.92	226.31
392.30	226.25
392.68	226.23
393.05	226.23
393.43	226.21
393.81	226.24
394.18	226.23
394.56	226.24
394.94	226.24
395.31	226.28
395.69	226.32
396.06	226.36
396.44	226.36
396.82	226.37
397.19	226.48
397.57	226.50
397.95	226.60
398.32	226.63
398.70	226.67
399.07	226.73
399.45	226.80
399.82	226.88
400.20	226.94
400.58	227.02
400.95	227.10
401.33	227.20
401.70	227.32
402.08	227.40
402.45	227.48
402.83	227.62
403.20	227.71
403.58	227.82
403.95	227.93
404.33	228.10
404.71	228.26
405.08	228.39
405.46	228.54
405.83	228.64
406.21	228.78
406.58	228.96
406.96	229.15
407.33	229.33
407.70	229.52
408.08	229.83
408.45	230.05
408.83	230.27
409.20	230.51
409.58	230.70
409.95	230.98
410.33	231.25
410.70	231.48
411.08	231.75
411.45	232.06
411.82	232.38
412.20	232.74
412.57	233.17
412.95	233.49
413.32	233.89
413.69	234.29
414.07	234.75
414.44	235.24
414.82	235.71
415.19	236.28
415.56	236.84
415.94	237.36
416.31	238.04
416.68	238.66
417.06	239.39
417.43	240.10
417.81	240.89
418.18	241.68
418.55	242.52
418.93	243.44
419.30	244.32
419.67	245.24
420.04	246.17
420.42	247.12
420.79	248.28
421.16	249.42
421.54	250.65
421.91	251.85
422.28	253.06
422.66	254.39
423.03	255.67
423.40	257.02
423.77	258.43
424.15	259.82
424.52	261.31
424.89	262.87
425.26	264.40
425.64	265.84
426.01	267.43
426.38	269.08
426.75	270.72
427.13	272.47
427.50	274.29
427.87	276.19
428.24	278.09
428.61	279.90
428.99	281.88
429.36	283.98
429.73	286.05
430.10	288.12
430.47	290.18
430.85	292.27
431.22	294.48
431.59	296.89
431.96	299.14
432.33	301.63
432.70	304.03
433.08	306.84
433.45	309.52
433.82	312.10
434.19	315.02
434.56	317.88
434.93	320.55
435.30	323.19
435.68	326.05
436.05	328.88
436.42	331.64
436.79	334.11
437.16	336.77
437.53	339.58
437.90	342.40
438.27	345.18
438.64	348.04
439.01	350.64
439.38	352.86
439.75	355.05
440.13	357.56
440.50	359.89
440.87	361.72
441.24	363.63
441.61	365.82
441.98	367.32
442.35	369.11
442.72	370.98
443.09	372.80
443.46	373.79
443.83	374.39
444.20	374.87
444.57	375.78
444.94	376.11
445.31	376.50
445.68	376.82
446.05	376.84
446.42	376.43
446.79	376.00
447.16	375.57
447.53	375.23
447.90	374.06
448.27	372.88
448.64	371.33
449.01	370.23
449.37	368.26
449.74	366.31
450.11	363.99
450.48	361.49
450.85	358.94
451.22	356.82
451.59	354.75
451.96	352.84
452.33	350.19
452.70	347.82
453.07	344.95
453.43	342.08
453.80	339.30
454.17	336.59
454.54	334.06
454.91	331.31
455.28	328.65
455.65	326.15
456.02	323.77
456.38	321.64
456.75	318.95
457.12	316.72
457.49	314.55
457.86	312.43
458.23	310.57
458.59	308.52
458.96	306.45
459.33	304.58
459.70	302.71
460.07	301.21
460.43	299.47
460.80	297.86
461.17	296.42
461.54	294.96
461.91	293.58
462.27	292.18
462.64	290.90
463.01	289.52
463.38	288.20
463.74	286.75
464.11	285.56
464.48	284.51
464.85	283.38
465.21	282.50
465.58	281.55
465.95	280.46
466.32	279.52
466.68	278.59
467.05	277.73
467.42	276.82
467.78	275.88
468.15	275.03
468.52	274.34
468.88	273.45
469.25	272.66
469.62	272.03
469.98	271.29
470.35	270.69
470.72	270.10
471.08	269.45
471.45	268.97
471.82	268.42
472.18	267.80
472.55	267.34
472.92	266.79
473.28	266.33
473.65	265.87
474.02	265.44
474.38	265.11
474.75	264.77
475.11	264.41
475.48	264.11
475.85	263.85
476.21	263.65
476.58	263.50
476.94	263.36
477.31	263.20
477.67	263.06
478.04	262.95
478.41	262.93
478.77	262.96
479.14	262.90
479.50	262.89
479.87	263.01
480.23	263.08
480.60	263.18
480.96	263.26
481.33	263.46
481.69	263.64
482.06	263.81
482.42	264.01
482.79	264.28
483.15	264.63
483.52	265.06
483.88	265.38
484.25	265.74
484.61	266.16
484.98	266.64
485.34	267.21
485.71	267.78
486.07	268.38
486.44	268.94
486.80	269.62
487.17	270.37
487.53	271.22
487.90	272.05
488.26	272.94
488.62	273.96
488.99	274.92
489.35	276.01
489.72	277.10
490.08	278.30
490.44	279.58
490.81	280.92
491.17	282.24
491.54	283.71
491.90	285.25
492.26	286.91
492.63	288.61
492.99	290.39
493.36	292.29
493.72	294.33
494.08	296.44
494.45	298.67
494.81	300.99
495.17	303.36
495.54	305.97
495.90	308.67
496.26	311.42
496.63	314.39
496.99	317.48
497.35	320.78
497.72	324.15
498.08	327.64
498.44	331.30
498.80	335.17
499.17	339.23
499.53	343.38
499.89	347.79
500.26	352.27
500.62	356.94
500.98	361.91
501.34	366.98
501.71	372.33
502.07	377.78
502.43	383.37
502.79	389.20
503.16	395.24
503.52	401.50
503.88	407.90
504.24	414.53
504.60	421.40
504.97	428.49
505.33	435.82
505.69	443.52
506.05	451.26
506.41	459.19
506.78	467.36
507.14	475.80
507.50	484.47
507.86	493.47
508.22	502.60
508.59	511.74
508.95	521.29
509.31	531.10
509.67	541.19
510.03	551.53
510.39	562.07
510.75	572.87
511.12	583.85
511.48	595.18
511.84	606.68
512.20	618.19
512.56	630.16
512.92	642.31
513.28	654.63
513.64	667.17
514.00	679.86
514.37	692.79
514.73	705.85
515.09	718.92
515.45	732.31
515.81	745.97
516.17	759.97
516.53	774.10
516.89	788.33
517.25	802.54
517.61	817.01
517.97	831.46
518.33	845.92
518.69	860.68
519.05	875.66
519.41	890.85
519.77	906.45
520.13	921.93
520.49	937.35
520.85	952.83
521.21	968.59
521.57	984.77
521.93	1000.59
522.29	1017.05
522.65	1033.28
523.01	1049.55
523.37	1065.59
523.73	1081.81
524.09	1097.94
524.45	1114.20
524.81	1130.86
525.17	1147.63
525.53	1164.54
525.89	1181.31
526.25	1198.21
526.61	1214.69
526.97	1231.42
527.33	1247.87
527.68	1264.51
528.04	1281.04
528.40	1297.65
528.76	1314.74
529.12	1331.54
529.48	1348.37
529.84	1364.38
530.20	1381.13
530.56	1398.08
530.91	1415.48
531.27	1432.30
531.63	1448.87
531.99	1465.56
532.35	1481.59
532.71	1497.58
533.07	1513.83
533.42	1529.87
533.78	1545.87
534.14	1562.11
534.50	1577.44
534.86	1593.43
535.21	1608.74
535.57	1624.66
535.93	1640.08
536.29	1654.87
536.65	1669.87
537.00	1684.73
537.36	1700.19
537.72	1714.63
538.08	1729.08
538.44	1742.93
538.79	1756.83
539.15	1770.50
539.51	1784.20
539.87	1798.43
540.22	1812.05
540.58	1825.92
540.94	1839.34
541.29	1852.33
541.65	1865.07
542.01	1878.42
542.37	1890.66
542.72	1903.06
543.08	1914.90
543.44	1927.42
543.79	1938.60
544.15	1949.63
544.51	1961.19
544.87	1972.08
545.22	1982.88
545.58	1993.04
545.94	2002.84
546.29	2012.74
546.65	2022.54
547.01	2031.72
547.36	2040.67
547.72	2049.15
548.07	2057.06
548.43	2065.20
548.79	2073.30
549.14	2080.87
549.50	2088.01
549.86	2095.73
550.21	2103.00
550.57	2110.14
550.92	2116.73
551.28	2123.86
551.64	2130.95
551.99	2137.44
552.35	2143.60
552.70	2149.81
553.06	2155.83
553.41	2162.10
553.77	2168.08
554.13	2174.20
554.48	2180.44
554.84	2185.81
555.19	2191.30
555.55	2196.43
555.90	2200.84
556.26	2205.53
556.61	2210.17
556.97	2214.57
557.32	2218.70
557.68	2222.75
558.03	2227.10
558.39	2230.74
558.74	2235.40
559.10	2239.27
559.45	2242.90
559.81	2247.21
560.16	2250.93
560.52	2254.12
560.87	2257.54
561.23	2260.11
561.58	2263.05
561.94	2265.55
562.29	2267.95
562.64	2270.43
563.00	2272.94
563.35	2276.48
563.71	2279.58
564.06	2282.88
564.42	2285.61
564.77	2288.08
565.12	2290.30
565.48	2292.05
565.83	2293.90
566.19	2295.13
566.54	2295.92
566.89	2296.95
567.25	2297.53
567.60	2298.85
567.96	2300.49
568.31	2301.34
568.66	2302.53
569.02	2302.97
569.37	2303.12
569.72	2303.79
570.08	2303.96
570.43	2304.02
570.78	2303.46
571.14	2301.86
571.49	2300.31
571.84	2299.96
572.20	2298.75
572.55	2297.74
572.90	2296.21
573.26	2294.80
573.61	2293.10
573.96	2291.36
574.31	2288.45
574.67	2285.50
575.02	2281.95
575.37	2278.71
575.72	2274.85
576.08	2271.49
576.43	2268.26
576.78	2264.56
577.13	2261.54
577.49	2258.38
577.84	2254.82
578.19	2250.97
578.54	2247.32
578.90	2243.11
579.25	2237.70
579.60	2232.63
579.95	2227.60
580.30	2222.62
580.66	2217.56
581.01	2212.48
581.36	2207.48
581.71	2203.30
582.06	2198.65
582.42	2194.06
582.77	2188.65
583.12	2184.04
583.47	2179.11
583.82	2174.02
584.17	2168.78
584.53	2163.04
584.88	2157.38
585.23	2151.61
585.58	2146.08
585.93	2140.67
586.28	2136.02
586.63	2130.91
586.98	2125.87
587.34	2121.11
587.69	2116.05
588.04	2110.62
588.39	2104.95
588.74	2098.48
589.09	2092.28
589.44	2085.42
589.79	2079.53
590.14	2073.94
590.49	2067.36
590.84	2061.08
591.19	2055.03
591.54	2048.40
591.89	2040.97
592.25	2034.18
592.60	2026.85
592.95	2019.34
593.30	2012.03
593.65	2004.34
594.00	1997.23
594.35	1989.90
594.70	1981.78
595.05	1974.50
595.40	1967.33
595.75	1959.82
596.10	1953.51
596.45	1946.74
596.80	1940.56
597.15	1933.73
597.50	1926.50
597.85	1920.08
598.19	1913.29
598.54	1906.14
598.89	1899.64
599.24	1893.90
599.59	1887.10
599.94	1881.06
600.29	1874.66
600.64	1867.89
600.99	1860.39
601.34	1853.52
601.69	1846.71
602.04	1839.70
602.39	1832.47
602.74	1825.44
603.08	1818.59
603.43	1811.87
603.78	1804.54
604.13	1797.33
604.48	1790.09
604.83	1783.31
605.18	1776.18
605.53	1768.39
605.87	1760.40
606.22	1753.19
606.57	1745.15
606.92	1737.96
607.27	1730.58
607.62	1723.69
607.96	1716.44
608.31	1709.79
608.66	1702.15
609.01	1694.51
609.36	1687.15
609.70	1679.04
610.05	1671.00
610.40	1663.33
610.75	1654.96
611.10	1647.27
611.44	1638.98
611.79	1631.00
612.14	1622.21
612.49	1613.19
612.83	1604.67
613.18	1596.51
613.53	1588.38
613.88	1579.93
614.22	1571.63
614.57	1563.06
614.92	1554.99
615.27	1547.37
615.61	1539.08
615.96	1531.02
616.31	1523.38
616.65	1516.00
617.00	1508.50
617.35	1500.74
617.70	1492.26
618.04	1483.75
618.39	1475.51
618.74	1467.69
619.08	1459.26
619.43	1451.76
619.78	1444.70
620.12	1437.45
620.47	1429.89
620.82	1421.74
621.16	1414.26
621.51	1406.59
621.85	1399.03
622.20	1390.42
622.55	1382.06
622.89	1374.18
623.24	1366.53
623.59	1359.20
623.93	1351.61
624.28	1344.31
624.62	1336.81
624.97	1329.77
625.32	1323.04
625.66	1316.08
626.01	1309.06
626.35	1301.65
626.70	1293.86
627.04	1286.15
627.39	1278.50
627.73	1271.19
628.08	1264.33
628.43	1256.97
628.77	1249.60
629.12	1241.92
629.46	1234.83
629.81	1227.58
630.15	1220.38
630.50	1213.13
630.84	1204.80
631.19	1196.93
631.53	1189.56
631.88	1182.13
632.22	1174.61
632.57	1167.42
632.91	1159.91
633.26	1152.42
633.60	1145.18
633.95	1138.15
634.29	1131.12
634.64	1124.40
634.98	1117.00
635.32	1109.72
635.67	1103.22
636.01	1096.61
636.36	1089.91
636.70	1083.33
637.05	1076.61
637.39	1070.11
637.73	1063.51
638.08	1057.74
638.42	1051.70
638.77	1045.24
639.11	1038.58
639.45	1032.14
639.80	1025.39
640.14	1018.94
640.49	1012.38
640.83	1006.01
641.17	999.78
641.52	993.53
641.86	987.13
642.20	981.24
642.55	975.09
642.89	968.59
643.23	962.07
643.58	956.22
643.92	950.01
644.26	943.98
644.61	938.00
644.95	931.96
645.29	925.29
645.64	918.55
645.98	912.17
646.32	906.43
646.66	900.39
647.01	894.68
647.35	888.98
647.69	883.23
648.04	877.63
648.38	871.79
648.72	865.72
649.06	859.66
649.41	853.80
649.75	847.74
650.09	841.74
650.43	835.89
650.78	829.75
651.12	823.84
651.46	818.12
651.80	812.30
652.14	806.96
652.49	801.59
652.83	796.41
653.17	790.67
653.51	784.83
653.85	779.46
654.20	773.78
654.54	767.71
654.88	761.92
655.22	756.03
655.56	750.36
655.90	744.97
656.25	739.66
656.59	734.27
656.93	729.25
657.27	724.13
657.61	718.79
657.95	713.72
658.29	708.63
658.64	703.43
658.98	698.15
659.32	692.67
659.66	687.51
660.00	682.25
660.34	677.40
660.68	672.49
661.02	667.51
661.36	662.76
661.70	658.30
662.05	653.96
662.39	649.70
662.73	645.27
663.07	640.87
663.41	636.43
663.75	631.93
664.09	627.31
664.43	622.93
664.77	618.77
665.11	614.45
665.45	610.35
665.79	606.24
666.13	602.18
666.47	598.08
666.81	593.96
667.15	589.86
667.49	585.96
667.83	582.19
668.17	578.23
668.51	574.18
668.85	570.22
669.19	566.38
669.53	562.50
669.87	558.62
670.21	554.97
670.55	551.40
670.89	548.05
671.23	544.64
671.57	541.13
671.91	537.54
672.25	534.19
672.58	530.64
672.92	527.29
673.26	524.08
673.60	520.94
673.94	517.74
674.28	514.85
674.62	511.94
674.96	508.81
675.30	505.91
675.64	502.98
675.97	500.18
676.31	497.31
676.65	494.41
676.99	491.71
677.33	488.81
677.67	485.94
678.01	482.89
678.34	479.85
678.68	476.99
679.02	474.23
679.36	471.43
679.70	468.75
680.04	465.99
680.37	463.11
680.71	460.34
681.05	457.75
681.39	455.00
681.73	452.30
682.06	449.79
682.40	447.22
682.74	444.69
683.08	442.14
683.42	439.55
683.75	437.06
684.09	434.54
684.43	432.09
684.77	429.68
685.10	427.30
685.44	425.09
685.78	422.77
686.12	420.46
686.45	418.13
686.79	415.78
687.13	413.54
687.46	411.41
687.80	409.23
688.14	407.01
688.48	404.98
688.81	402.69
689.15	400.53
689.49	398.40
689.82	396.31
690.16	394.29
690.50	392.33
690.83	390.40
691.17	388.41
691.51	386.47
691.84	384.61
692.18	382.71
692.52	380.67
692.85	378.75
693.19	376.92
693.52	375.15
693.86	373.39
694.20	371.64
694.53	369.82
694.87	368.01
695.21	366.25
695.54	364.41
695.88	362.73
696.21	361.04
696.55	359.36
696.88	357.70
697.22	356.01
697.56	354.38
697.89	352.67
698.23	351.09
698.56	349.48
698.90	347.88
699.23	346.24
699.57	344.68
699.90	343.17
700.24	341.63
700.58	340.06
700.91	338.55
701.25	337.05
701.58	335.71
701.92	334.33
702.25	332.95
702.59	331.57
702.92	330.23
703.26	328.89
703.59	327.56
703.93	326.39
704.26	325.13
704.60	323.85
704.93	322.59
705.26	321.31
705.60	320.16
705.93	319.01
706.27	317.93
706.60	316.92
706.94	315.86
707.27	314.72
707.61	313.66
707.94	312.65
708.27	311.61
708.61	310.49
708.94	309.47
709.28	308.50
709.61	307.56
709.94	306.65
710.28	305.66
710.61	304.72
710.95	303.63
711.28	302.73
711.61	301.79
711.95	300.90
712.28	299.95
712.61	298.95
712.95	298.04
713.28	297.15
713.61	296.23
713.95	295.33
714.28	294.48
714.61	293.64
714.95	292.81
715.28	291.97
715.61	291.13
715.95	290.31
716.28	289.45
716.61	288.60
716.95	287.78
717.28	287.03
717.61	286.21
717.94	285.45
718.28	284.66
718.61	283.93
718.94	283.22
719.27	282.57
719.61	281.93
719.94	281.27
720.27	280.57
720.60	279.91
720.94	279.25
721.27	278.66
721.60	278.08
721.93	277.45
722.27	276.86
722.60	276.27
722.93	275.67
723.26	275.16
723.59	274.63
723.93	274.09
724.26	273.50
724.59	272.99
724.92	272.47
725.25	271.94
725.59	271.43
725.92	270.92
726.25	270.37
726.58	269.87
726.91	269.34
727.24	268.87
727.57	268.37
727.91	267.87
728.24	267.41
728.57	266.92
728.90	266.48
729.23	266.01
729.56	265.59
729.89	265.12
730.22	264.61
730.55	264.11
730.89	263.66
731.22	263.26
731.55	262.82
731.88	262.39
732.21	261.97
732.54	261.52
732.87	261.10
733.20	260.71
733.53	260.29
733.86	259.96
734.19	259.56
734.52	259.20
734.85	258.89
735.18	258.48
735.51	258.11
735.84	257.76
736.17	257.44
736.50	257.03
736.83	256.80
737.16	256.47
737.49	256.16
737.82	255.80
738.15	255.46
738.48	255.10
738.81	254.77
739.14	254.46
739.47	254.13
739.80	253.83
740.13	253.52
740.46	253.22
740.79	252.89
741.12	252.59
741.45	252.25
741.78	251.93
742.11	251.63
742.44	251.28
742.77	250.99
743.10	250.64
743.43	250.36
743.75	249.97
744.08	249.81
744.41	249.50
744.74	249.27
745.07	249.00
745.40	248.75
745.73	248.52
746.06	248.25
746.39	248.02
746.71	247.73
747.04	247.48
747.37	247.23
747.70	247.00
748.03	246.74
748.36	246.56
748.68	246.31
749.01	246.08
749.34	245.88
749.67	245.66
750.00	245.44
750.33	245.28
750.65	245.07
750.98	244.75
751.31	244.54
751.64	244.30
751.97	244.11
752.29	243.94
752.62	243.67
752.95	243.45
753.28	243.22
753.60	243.05
753.93	242.86
754.26	242.66
754.59	242.45
754.91	242.27
755.24	242.07
755.57	241.88
755.90	241.74
756.22	241.54
756.55	241.32
756.88	241.13
757.20	240.90
757.53	240.74
757.86	240.59
758.19	240.45
758.51	240.32
758.84	240.15
759.17	239.97
759.49	239.85
759.82	239.73
760.15	239.62
760.47	239.44
760.80	239.27
761.13	239.11
761.45	238.92
761.78	238.78
762.11	238.62
762.43	238.48
762.76	238.30
763.08	238.18
763.41	238.08
763.74	237.97
764.06	237.80
764.39	237.64
764.71	237.48
765.04	237.33
765.37	237.15
765.69	237.00
766.02	236.87
766.34	236.71
766.67	236.58
767.00	236.48
767.32	236.44
767.65	236.38
767.97	236.27
768.30	236.19
768.62	236.04
768.95	235.91
769.27	235.78
769.60	235.68
769.92	235.56
770.25	235.42
770.57	235.28
770.90	235.20
771.22	235.11
771.55	234.99
771.87	234.89
772.20	234.81
772.52	234.80
772.85	234.81
773.17	234.73
773.50	234.61
773.82	234.47
774.15	234.31
774.47	234.17
774.80	234.06
775.12	233.99
775.45	233.90
775.77	233.83
776.09	233.76
776.42	233.67
776.74	233.61
777.07	233.55
777.39	233.50
777.72	233.40
778.04	233.30
778.36	233.26
778.69	233.22
779.01	233.17
779.33	233.01
779.66	232.85
779.98	232.79
780.31	232.72
780.63	232.72
780.95	232.67
781.28	232.59
781.60	232.55
781.92	232.45
782.25	232.39
782.57	232.35
782.89	232.25
783.22	232.21
783.54	232.14
783.86	232.06
784.19	231.99
784.51	231.99
784.83	231.94
785.16	231.87
785.48	231.79
785.80	231.73
786.12	231.69
786.45	231.65
786.77	231.63
787.09	231.59
787.42	231.49
787.74	231.47
788.06	231.42
788.38	231.36
788.71	231.34
789.03	231.29
789.35	231.25
789.67	231.20
789.99	231.14
790.32	231.08
790.64	231.10
790.96	231.14
791.28	231.06
791.61	231.04
791.93	230.99
792.25	230.97
792.57	230.99
792.89	230.97
793.21	230.94
793.54	230.85
793.86	230.80
794.18	230.81
794.50	230.76
794.82	230.76
795.14	230.74
795.47	230.70
795.79	230.70
796.11	230.64
796.43	230.62
796.75	230.64
797.07	230.61
797.39	230.56
797.71	230.45
798.04	230.42
798.36	230.39
798.68	230.37
799.00	230.33
799.32	230.26
799.64	230.21
799.96	230.17
800.28	230.16
800.60	230.12
800.92	230.05
801.24	230.00
801.56	229.96
801.89	229.90
802.21	229.87
802.53	229.81
802.85	229.82
803.17	229.86
803.49	229.80
803.81	229.76
804.13	229.69
804.45	229.69
804.77	229.68
805.09	229.66
805.41	229.62
805.73	229.55
806.05	229.50
806.37	229.47
806.69	229.44
807.01	229.42
807.33	229.43
807.65	229.38
807.97	229.40
808.28	229.35
808.60	229.34
808.92	229.33
809.24	229.36
809.56	229.28
809.88	229.20
810.20	229.14
810.52	229.13
810.84	229.11
811.16	229.05
811.48	229.00
811.80	229.00
812.12	229.00
812.43	229.03
812.75	229.00
813.07	228.99
813.39	228.97
813.71	228.90
814.03	228.84
814.35	228.81
814.67	228.78
814.98	228.75
815.30	228.76
815.62	228.71
815.94	228.63
816.26	228.68
816.58	228.65
816.89	228.65
817.21	228.60
817.53	228.60
817.85	228.60
818.17	228.59
818.48	228.54
818.80	228.52
819.12	228.48
819.44	228.46
819.76	228.43
820.07	228.42
820.39	228.42
820.71	228.42
821.03	228.42
821.34	228.38
821.66	228.36
821.98	228.33
822.30	228.32
822.61	228.39
822.93	228.34
823.25	228.31
823.57	228.31
823.88	228.34
824.20	228.31
824.52	228.30
824.83	228.28
825.15	228.28
825.47	228.30
825.79	228.29
826.10	228.29
826.42	228.24
826.74	228.24
827.05	228.25
827.37	228.28
827.69	228.24
828.00	228.23
828.32	228.24
828.64	228.25
828.95	228.31
829.27	228.28
829.58	228.26
829.90	228.29
830.22	228.29
830.53	228.27
830.85	228.27
831.17	228.23
831.48	228.23
831.80	228.19
832.11	228.17
832.43	228.14
832.75	228.12
833.06	228.19
833.38	228.17
833.69	228.12
834.01	228.08
834.32	228.09
834.64	228.07
834.96	228.07
835.27	228.05
835.59	227.98
835.90	227.97
836.22	227.92
836.53	227.90
836.85	227.84
837.16	227.93
837.48	227.92
837.79	227.94
838.11	227.94
838.42	227.96
838.74	227.95
839.05	227.97
839.37	227.94
839.68	227.88
840.00	227.89
840.31	227.92
840.63	227.92
840.94	227.92
841.26	227.91
841.57	227.87
841.88	227.88
842.20	227.85
842.51	227.82
842.83	227.84
843.14	227.94
843.46	227.95
843.77	227.87
844.08	227.86
844.40	227.86
844.71	227.84
845.03	227.83
845.34	227.83
845.65	227.79
845.97	227.78
846.28	227.79
846.60	227.78
846.91	227.77
847.22	227.74
847.54	227.73
847.85	227.72
848.16	227.73
848.48	227.68
848.79	227.72
849.10	227.74
849.42	227.73
849.73	227.63
850.04	227.63
850.36	227.58
850.67	227.61
850.98	227.61
851.30	227.60
851.61	227.62
851.92	227.60
852.23	227.62
852.55	227.64
852.86	227.64
853.17	227.62
853.49	227.61
853.80	227.64
854.11	227.67
854.42	227.68
854.74	227.67
855.05	227.68
855.36	227.62
855.67	227.59
855.99	227.58
856.30	227.70
856.61	227.68
856.92	227.70
857.23	227.64
857.55	227.60
857.86	227.59
858.17	227.55
858.48	227.53
858.79	227.46
859.11	227.45
859.42	227.42
859.73	227.40
860.04	227.41
860.35	227.36
860.66	227.33
860.98	227.33
861.29	227.32
861.60	227.32
861.91	227.36
862.22	227.33
862.53	227.36
862.84	227.23
863.16	227.26
863.47	227.22
863.78	227.23
864.09	227.26
864.40	227.26
864.71	227.26
865.02	227.27
865.33	227.34
865.64	227.30
865.95	227.31
866.27	227.39
866.58	227.40
866.89	227.39
867.20	227.34
867.51	227.35
867.82	227.34
868.13	227.37
868.44	227.34
868.75	227.36
869.06	227.32
869.37	227.33
869.68	227.29
869.99	227.29
870.30	227.28
870.61	227.26
870.92	227.28
871.23	227.30
871.54	227.32
871.85	227.29
872.16	227.33
872.47	227.34
872.78	227.28
873.09	227.28
873.40	227.29
873.71	227.33
874.02	227.31
874.33	227.28
874.64	227.27
874.95	227.30
875.26	227.28
875.56	227.29
875.87	227.30
876.18	227.31
876.49	227.41
876.80	227.44
877.11	227.45
877.42	227.41
877.73	227.38
878.04	227.39
878.35	227.42
878.66	227.42
878.96	227.40
879.27	227.40
879.58	227.38
879.89	227.40
880.20	227.43
880.51	227.42
880.82	227.43
881.12	227.42
881.43	227.44
881.74	227.44
882.05	227.44
882.36	227.41
882.67	227.42
882.97	227.37
883.28	227.34
883.59	227.31
883.90	227.35
884.21	227.37
884.51	227.36
884.82	227.36
885.13	227.32
885.44	227.35
885.74	227.34
886.05	227.34
886.36	227.33
886.67	227.29
886.98	227.33
887.28	227.35
887.59	227.39
887.90	227.34
888.20	227.34
888.51	227.32
888.82	227.33
889.13	227.36
889.43	227.42
889.74	227.44
890.05	227.49
890.35	227.46
890.66	227.44
890.97	227.44
891.28	227.38
891.58	227.42
891.89	227.40
892.20	227.39
892.50	227.39
892.81	227.40
893.12	227.40
893.42	227.37
893.73	227.35
894.04	227.32
894.34	227.34
894.65	227.35
894.95	227.36
895.26	227.34
895.57	227.33
895.87	227.21
896.18	227.21
896.48	227.17
896.79	227.17
897.10	227.15
897.40	227.10
897.71	227.14
898.01	227.13
898.32	227.15
898.63	227.14
898.93	227.11
899.24	227.12
899.54	227.09
899.85	227.06
900.15	227.06
900.46	227.05
900.76	227.02
901.07	226.98
901.38	226.99
901.68	227.00
901.99	226.96
902.29	226.97
902.60	226.94
902.90	226.95
903.21	226.99
903.51	226.99
903.82	227.02
904.12	227.02
904.43	227.00
904.73	226.98
905.03	226.98
905.34	227.08
905.64	227.04
905.95	227.05
906.25	227.07
906.56	227.05
906.86	227.06
907.17	227.09
907.47	227.11
907.77	227.09
908.08	227.08
908.38	227.06
908.69	227.08
908.99	227.08
909.30	227.08
909.60	227.03
909.90	227.02
910.21	227.02
910.51	226.99
910.81	227.02
911.12	227.01
911.42	227.02
911.73	226.94
912.03	226.99
912.33	227.01
912.64	227.02
912.94	227.02
913.24	227.02
913.55	227.01
913.85	227.02
914.15	227.06
914.46	227.09
914.76	227.11
915.06	227.09
915.37	227.09
915.67	227.06
915.97	227.08
916.27	227.05
916.58	227.02
916.88	226.99
917.18	226.96
917.49	227.03
917.79	227.03
918.09	227.04
918.39	227.05
918.70	227.02
919.00	227.01
919.30	227.03
919.60	227.04
919.91	227.03
920.21	227.02
920.51	227.00
920.81	226.98
921.12	227.00
921.42	227.00
921.72	227.02
922.02	227.04
922.32	227.04
922.63	227.08
922.93	227.14
923.23	227.15
923.53	227.13
923.83	227.08
924.13	227.06
924.44	227.05
924.74	227.06
925.04	227.08
925.34	227.08
925.64	227.06
925.94	227.05
926.24	227.09
926.55	227.06
926.85	227.06
927.15	227.04
927.45	227.02
927.75	227.04
928.05	227.05
928.35	227.04
928.65	227.05
928.95	227.06
929.26	227.03
929.56	227.04
929.86	227.03
930.16	227.02
930.46	227.03
930.76	227.04
931.06	226.97
931.36	226.93
931.66	226.94
931.96	226.95
932.26	226.95
932.56	226.88
932.86	226.88
933.16	226.85
933.46	226.85
933.76	226.84
934.06	226.82
934.36	226.84
934.66	226.82
934.96	226.84
935.26	226.81
935.56	226.82
935.86	226.82
936.16	226.84
936.46	226.80
936.76	226.80
937.06	226.79
937.36	226.81
937.66	226.83
937.96	226.82
938.26	226.79
938.56	226.76
938.86	226.77
939.16	226.80
939.46	226.82
939.76	226.81
940.06	226.81
940.35	226.79
940.65	226.74
940.95	226.77
941.25	226.70
941.55	226.69
941.85	226.68
942.15	226.69
942.45	226.70
942.75	226.66
943.04	226.67
943.34	226.67
943.64	226.66
943.94	226.64
944.24	226.62
944.54	226.62
944.84	226.60
945.13	226.58
945.43	226.58
945.73	226.56
946.03	226.53
946.33	226.50
946.62	226.51
946.92	226.55
947.22	226.52
947.52	226.55
947.82	226.57
948.11	226.55
948.41	226.56
948.71	226.55
949.01	226.61
949.31	226.59
949.60	226.57
949.90	226.59
950.20	226.60
950.50	226.64
950.79	226.65
951.09	226.71
951.39	226.72
951.69	226.72
951.98	226.76
952.28	226.83
952.58	226.85
952.87	226.86
953.17	226.88
953.47	226.92
953.76	226.92
954.06	226.91
954.36	226.92
954.66	226.93
954.95	226.93
955.25	226.96
955.55	226.98
955.84	226.97
956.14	226.97
956.44	226.96
956.73	226.93
957.03	226.94
957.32	226.93
957.62	226.94
957.92	226.94
958.21	226.95
958.51	227.02
958.81	227.04
959.10	227.04
959.40	227.04
959.69	227.04
959.99	227.04
960.29	227.05
960.58	227.03
960.88	227.03
961.17	227.05
961.47	227.04
961.76	227.03
962.06	227.04
962.36	227.03
962.65	227.04
962.95	227.04
963.24	227.03
963.54	227.04
963.83	227.06
964.13	227.04
964.42	227.01
964.72	226.94
965.01	226.93
965.31	226.92
965.60	226.90
965.90	226.96
966.19	226.93
966.49	226.95
966.78	226.94
967.08	226.96
967.37	226.96
967.67	226.94
967.96	226.96
968.26	226.96
968.55	226.98
968.85	226.98
969.14	226.99
969.43	226.98
969.73	226.96
970.02	226.95
970.32	226.93
970.61	226.91
970.91	226.88
971.20	226.86
971.49	226.83
971.79	226.80
972.08	226.73
972.38	226.74
972.67	226.71
972.96	226.74
973.26	226.71
973.55	226.75
973.85	226.75
974.14	226.74
974.43	226.74
974.73	226.72
975.02	226.68
975.31	226.66
975.61	226.67
975.90	226.66
976.19	226.64
976.49	226.67
976.78	226.64
977.07	226.65
977.37	226.65
977.66	226.68
977.95	226.69
978.24	226.68
978.54	226.71
978.83	226.72
979.12	226.68
979.42	226.67
979.71	226.64
980.00	226.66
980.29	226.61
980.59	226.61
980.88	226.62
981.17	226.66
981.46	226.66
981.76	226.64
982.05	226.65
982.34	226.67
982.63	226.66
982.93	226.69
983.22	226.70
983.51	226.70
983.80	226.73
984.09	226.75
984.39	226.76
984.68	226.73
984.97	226.69
985.26	226.71
985.55	226.71
985.85	226.70
986.14	226.69
986.43	226.74
986.72	226.75
987.01	226.78
987.30	226.77
987.59	226.80
987.89	226.82
988.18	226.81
988.47	226.82
988.76	226.85
989.05	226.82
989.34	226.82
989.63	226.84
989.92	226.79
990.22	226.79
990.51	226.80
990.80	226.78
991.09	226.80
991.38	226.81
991.67	226.79
991.96	226.77
992.25	226.77
992.54	226.74
992.83	226.72
993.12	226.69
993.41	226.70
993.70	226.73
993.99	226.74
994.28	226.76
994.58	226.78
994.87	226.75
995.16	226.76
995.45	226.74
995.74	226.72
996.03	226.74
996.32	226.78
996.61	226.78
996.90	226.80
997.19	226.81
997.48	226.81
997.77	226.83
998.06	226.83
998.34	226.81
998.63	226.81
998.92	226.85
999.21	226.86
999.50	226.88
999.79	226.85
1000.08	226.85
1000.37	226.83
1000.66	226.81
1000.95	226.85
1001.24	226.85
1001.53	226.90
1001.82	226.88
1002.11	226.86
1002.40	226.84
1002.68	226.88
1002.97	226.93
1003.26	226.91
1003.55	226.91
1003.84	226.91
1004.13	226.95
1004.42	226.96
1004.71	226.95
1004.99	226.89
1005.28	226.90
1005.57	226.85
1005.86	226.82
1006.15	226.81
1006.44	226.82
1006.72	226.82
1007.01	226.78
1007.30	226.78
1007.59	226.74
1007.88	226.75
1008.17	226.76
1008.45	226.74
1008.74	226.69
1009.03	226.66
1009.32	226.68
1009.60	226.67
1009.89	226.62
1010.18	226.56
1010.47	226.55
1010.76	226.55
1011.04	226.57
1011.33	226.54
1011.62	226.55
1011.91	226.56
1012.19	226.56
1012.48	226.55
1012.77	226.55
1013.05	226.60
1013.34	226.61
1013.63	226.61
1013.92	226.59
1014.20	226.58
1014.49	226.60
1014.78	226.61
1015.06	226.56
1015.35	226.58
1015.64	226.59
1015.92	226.63
1016.21	226.67
1016.50	226.69
1016.78	226.72
1017.07	226.72
1017.36	226.71
1017.64	226.70
1017.93	226.70
1018.22	226.70
1018.50	226.67
1018.79	226.65
1019.08	226.58
1019.36	226.57
1019.65	226.59
1019.93	226.63
1020.22	226.67
1020.51	226.70
1020.79	226.68
1021.08	226.86
1021.36	226.07
1021.65	226.41
1021.94	225.99
1022.22	226.55
1022.51	227.05
1022.79	227.20
1023.08	227.18
1023.36	227.75
1023.65	226.64
>>>>>End Processed Spectral Data<<<<<
