SpectraSuite Data File
++++++++++++++++++++++++++++++++++++
Date: Fri Feb 01 16:07:36 EST 2013
User: group
Dark Spectrum Present: No
Reference Spectrum Present: No
Number of Sampled Component Spectra: 1
Spectrometers: USB2E7196
Integration Time (usec): 35000 (USB2E7196)
Spectra Averaged: 100 (USB2E7196)
Boxcar Smoothing: 10 (USB2E7196)
Correct for Electrical Dark: No (USB2E7196)
Strobe/Lamp Enabled: No (USB2E7196)
Correct for Detector Non-linearity: No (USB2E7196)
Correct for Stray Light: No (USB2E7196)
Number of Pixels in Processed Spectrum: 2048
>>>>>Begin Processed Spectral Data<<<<<
339.09	0.00
339.48	214.38
339.86	215.59
340.24	216.85
340.63	218.53
341.01	221.83
341.39	220.94
341.78	222.78
342.16	223.73
342.54	224.63
342.93	212.88
343.31	223.63
343.69	224.20
344.07	224.71
344.46	225.16
344.84	225.55
345.22	225.76
345.60	226.04
345.99	226.22
346.37	226.36
346.75	226.44
347.13	226.53
347.52	226.60
347.90	226.67
348.28	226.72
348.66	226.76
349.05	226.77
349.43	226.81
349.81	226.86
350.19	226.96
350.57	227.00
350.96	227.07
351.34	227.15
351.72	227.21
352.10	227.26
352.48	227.36
352.87	227.36
353.25	227.46
353.63	227.53
354.01	227.59
354.39	227.67
354.77	227.78
355.15	227.89
355.54	227.93
355.92	227.98
356.30	228.04
356.68	228.19
357.06	228.27
357.44	228.33
357.82	228.37
358.20	228.42
358.58	228.47
358.97	228.54
359.35	228.64
359.73	228.71
360.11	228.80
360.49	228.85
360.87	228.95
361.25	228.98
361.63	229.06
362.01	229.11
362.39	229.15
362.77	229.17
363.15	229.15
363.53	229.18
363.91	229.17
364.29	229.21
364.67	229.12
365.05	229.11
365.43	229.12
365.81	229.10
366.19	229.11
366.57	229.13
366.95	229.11
367.33	229.07
367.71	229.07
368.09	229.03
368.47	228.99
368.85	228.96
369.23	228.93
369.61	228.85
369.99	228.84
370.37	228.80
370.75	228.82
371.13	228.75
371.51	228.69
371.89	228.67
372.27	228.58
372.65	228.53
373.03	228.49
373.41	228.42
373.78	228.37
374.16	228.29
374.54	228.20
374.92	228.14
375.30	228.08
375.68	228.00
376.06	227.95
376.44	227.90
376.82	227.85
377.19	227.80
377.57	227.74
377.95	227.64
378.33	227.57
378.71	227.43
379.09	227.39
379.47	227.36
379.84	227.25
380.22	227.21
380.60	227.12
380.98	227.03
381.36	226.96
381.73	226.88
382.11	226.83
382.49	226.77
382.87	226.71
383.25	226.62
383.62	226.64
384.00	226.59
384.38	226.51
384.76	226.48
385.13	226.46
385.51	226.41
385.89	226.35
386.27	226.30
386.64	226.28
387.02	226.22
387.40	226.16
387.78	226.19
388.15	226.17
388.53	226.12
388.91	226.09
389.29	226.08
389.66	226.10
390.04	226.08
390.42	226.08
390.79	226.06
391.17	226.02
391.55	225.92
391.92	225.90
392.30	225.93
392.68	225.89
393.05	225.92
393.43	225.94
393.81	225.99
394.18	225.98
394.56	226.00
394.94	226.05
395.31	226.08
395.69	226.09
396.06	226.16
396.44	226.22
396.82	226.25
397.19	226.30
397.57	226.32
397.95	226.41
398.32	226.46
398.70	226.48
399.07	226.59
399.45	226.68
399.82	226.73
400.20	226.78
400.58	226.83
400.95	226.85
401.33	226.96
401.70	227.09
402.08	227.22
402.45	227.32
402.83	227.46
403.20	227.54
403.58	227.65
403.95	227.74
404.33	227.89
404.71	228.06
405.08	228.25
405.46	228.40
405.83	228.50
406.21	228.61
406.58	228.80
406.96	228.98
407.33	229.14
407.70	229.36
408.08	229.60
408.45	229.84
408.83	230.07
409.20	230.24
409.58	230.44
409.95	230.71
410.33	230.97
410.70	231.22
411.08	231.55
411.45	231.84
411.82	232.13
412.20	232.46
412.57	232.85
412.95	233.13
413.32	233.55
413.69	233.96
414.07	234.40
414.44	234.86
414.82	235.33
415.19	235.85
415.56	236.38
415.94	236.93
416.31	237.56
416.68	238.18
417.06	238.91
417.43	239.56
417.81	240.28
418.18	241.07
418.55	241.89
418.93	242.76
419.30	243.62
419.67	244.55
420.04	245.51
420.42	246.47
420.79	247.64
421.16	248.77
421.54	249.94
421.91	251.18
422.28	252.45
422.66	253.78
423.03	255.10
423.40	256.44
423.77	257.85
424.15	259.31
424.52	260.76
424.89	262.37
425.26	263.91
425.64	265.38
426.01	266.92
426.38	268.56
426.75	270.24
427.13	271.99
427.50	273.84
427.87	275.71
428.24	277.58
428.61	279.32
428.99	281.23
429.36	283.33
429.73	285.37
430.10	287.35
430.47	289.41
430.85	291.48
431.22	293.72
431.59	296.08
431.96	298.32
432.33	300.79
432.70	303.14
433.08	305.95
433.45	308.56
433.82	311.17
434.19	314.07
434.56	316.86
434.93	319.48
435.30	322.09
435.68	324.97
436.05	327.77
436.42	330.59
436.79	333.15
437.16	335.86
437.53	338.71
437.90	341.59
438.27	344.34
438.64	347.20
439.01	349.81
439.38	352.02
439.75	354.17
440.13	356.72
440.50	359.09
440.87	360.97
441.24	362.90
441.61	365.06
441.98	366.52
442.35	368.29
442.72	370.19
443.09	371.95
443.46	372.94
443.83	373.58
444.20	374.04
444.57	374.88
444.94	375.15
445.31	375.47
445.68	375.81
446.05	375.90
446.42	375.50
446.79	375.08
447.16	374.65
447.53	374.33
447.90	373.17
448.27	371.99
448.64	370.39
449.01	369.30
449.37	367.36
449.74	365.49
450.11	363.26
450.48	360.77
450.85	358.28
451.22	356.16
451.59	354.16
451.96	352.26
452.33	349.66
452.70	347.29
453.07	344.49
453.43	341.59
453.80	338.80
454.17	336.17
454.54	333.64
454.91	330.93
455.28	328.25
455.65	325.77
456.02	323.32
456.38	321.15
456.75	318.48
457.12	316.23
457.49	313.98
457.86	311.83
458.23	310.00
458.59	307.95
458.96	305.87
459.33	304.00
459.70	302.15
460.07	300.62
460.43	298.93
460.80	297.30
461.17	295.87
461.54	294.39
461.91	292.93
462.27	291.47
462.64	290.24
463.01	288.89
463.38	287.55
463.74	286.20
464.11	285.06
464.48	284.02
464.85	282.87
465.21	282.04
465.58	281.10
465.95	280.01
466.32	279.13
466.68	278.22
467.05	277.34
467.42	276.40
467.78	275.50
468.15	274.64
468.52	273.96
468.88	273.08
469.25	272.29
469.62	271.66
469.98	270.98
470.35	270.30
470.72	269.73
471.08	269.09
471.45	268.53
471.82	267.99
472.18	267.39
472.55	266.99
472.92	266.41
473.28	265.93
473.65	265.46
474.02	264.98
474.38	264.63
474.75	264.27
475.11	263.94
475.48	263.68
475.85	263.44
476.21	263.20
476.58	263.02
476.94	262.88
477.31	262.76
477.67	262.59
478.04	262.48
478.41	262.42
478.77	262.48
479.14	262.45
479.50	262.45
479.87	262.54
480.23	262.64
480.60	262.76
480.96	262.88
481.33	263.08
481.69	263.30
482.06	263.49
482.42	263.72
482.79	263.96
483.15	264.29
483.52	264.68
483.88	265.05
484.25	265.46
484.61	265.87
484.98	266.28
485.34	266.89
485.71	267.53
486.07	268.12
486.44	268.69
486.80	269.38
487.17	270.08
487.53	270.88
487.90	271.70
488.26	272.66
488.62	273.65
488.99	274.63
489.35	275.63
489.72	276.76
490.08	277.96
490.44	279.23
490.81	280.54
491.17	281.92
491.54	283.41
491.90	284.97
492.26	286.66
492.63	288.42
492.99	290.19
493.36	292.08
493.72	294.16
494.08	296.27
494.45	298.54
494.81	300.97
495.17	303.41
495.54	306.04
495.90	308.72
496.26	311.52
496.63	314.47
496.99	317.62
497.35	320.87
497.72	324.25
498.08	327.81
498.44	331.49
498.80	335.39
499.17	339.45
499.53	343.62
499.89	348.02
500.26	352.50
500.62	357.16
500.98	362.16
501.34	367.18
501.71	372.51
502.07	377.95
502.43	383.63
502.79	389.45
503.16	395.47
503.52	401.78
503.88	408.24
504.24	414.91
504.60	421.82
504.97	428.98
505.33	436.35
505.69	444.02
506.05	451.81
506.41	459.69
506.78	467.82
507.14	476.29
507.50	485.00
507.86	494.09
508.22	503.32
508.59	512.51
508.95	522.14
509.31	531.96
509.67	542.04
510.03	552.25
510.39	562.75
510.75	573.51
511.12	584.44
511.48	595.66
511.84	607.11
512.20	618.66
512.56	630.59
512.92	642.76
513.28	655.09
513.64	667.52
514.00	680.18
514.37	693.07
514.73	706.08
515.09	719.13
515.45	732.38
515.81	745.89
516.17	759.84
516.53	773.91
516.89	788.10
517.25	802.31
517.61	816.73
517.97	831.22
518.33	845.76
518.69	860.44
519.05	875.41
519.41	890.53
519.77	905.96
520.13	921.35
520.49	936.65
520.85	952.04
521.21	967.75
521.57	983.95
521.93	999.81
522.29	1016.10
522.65	1032.31
523.01	1048.48
523.37	1064.58
523.73	1080.69
524.09	1096.91
524.45	1113.24
524.81	1129.81
525.17	1146.54
525.53	1163.35
525.89	1180.07
526.25	1196.92
526.61	1213.26
526.97	1229.98
527.33	1246.54
527.68	1263.07
528.04	1279.54
528.40	1296.05
528.76	1313.10
529.12	1329.67
529.48	1346.47
529.84	1362.51
530.20	1379.08
530.56	1395.95
530.91	1413.19
531.27	1429.97
531.63	1446.29
531.99	1462.78
532.35	1478.71
532.71	1494.53
533.07	1510.85
533.42	1526.74
533.78	1542.75
534.14	1559.02
534.50	1574.31
534.86	1589.98
535.21	1605.16
535.57	1621.05
535.93	1636.56
536.29	1651.17
536.65	1666.17
537.00	1680.79
537.36	1696.06
537.72	1710.51
538.08	1724.85
538.44	1738.62
538.79	1752.34
539.15	1765.82
539.51	1779.30
539.87	1793.65
540.22	1807.33
540.58	1820.87
540.94	1834.08
541.29	1846.81
541.65	1859.40
542.01	1872.50
542.37	1884.87
542.72	1897.18
543.08	1909.04
543.44	1921.25
543.79	1932.56
544.15	1943.34
544.51	1954.89
544.87	1965.73
545.22	1976.58
545.58	1986.85
545.94	1996.60
546.29	2006.52
546.65	2016.41
547.01	2025.79
547.36	2034.33
547.72	2042.89
548.07	2050.82
548.43	2058.81
548.79	2066.77
549.14	2074.29
549.50	2081.60
549.86	2089.24
550.21	2096.62
550.57	2103.60
550.92	2110.28
551.28	2117.29
551.64	2124.48
551.99	2131.05
552.35	2137.20
552.70	2143.29
553.06	2149.37
553.41	2155.73
553.77	2161.71
554.13	2167.69
554.48	2173.81
554.84	2179.29
555.19	2184.51
555.55	2189.68
555.90	2194.24
556.26	2199.27
556.61	2204.00
556.97	2208.49
557.32	2212.62
557.68	2216.73
558.03	2221.01
558.39	2224.59
558.74	2229.17
559.10	2233.05
559.45	2236.72
559.81	2241.00
560.16	2244.81
560.52	2247.89
560.87	2251.21
561.23	2253.92
561.58	2256.80
561.94	2259.29
562.29	2261.66
562.64	2264.39
563.00	2266.98
563.35	2270.54
563.71	2273.61
564.06	2276.85
564.42	2279.66
564.77	2282.26
565.12	2284.60
565.48	2286.67
565.83	2288.64
566.19	2290.16
566.54	2291.16
566.89	2292.27
567.25	2292.97
567.60	2294.17
567.96	2295.99
568.31	2296.89
568.66	2297.93
569.02	2298.69
569.37	2299.06
569.72	2299.98
570.08	2300.17
570.43	2300.21
570.78	2299.74
571.14	2298.18
571.49	2296.83
571.84	2296.43
572.20	2295.17
572.55	2294.13
572.90	2292.34
573.26	2291.00
573.61	2289.08
573.96	2287.28
574.31	2284.31
574.67	2281.20
575.02	2277.55
575.37	2274.08
575.72	2270.34
576.08	2266.90
576.43	2263.54
576.78	2259.91
577.13	2256.58
577.49	2253.30
577.84	2249.71
578.19	2245.86
578.54	2242.30
578.90	2238.11
579.25	2232.64
579.60	2227.80
579.95	2222.76
580.30	2217.80
580.66	2212.55
581.01	2207.74
581.36	2202.80
581.71	2198.76
582.06	2194.49
582.42	2190.31
582.77	2185.04
583.12	2180.55
583.47	2176.09
583.82	2171.23
584.17	2166.05
584.53	2160.74
584.88	2155.32
585.23	2149.64
585.58	2144.27
585.93	2138.77
586.28	2133.87
586.63	2128.72
586.98	2123.71
587.34	2118.99
587.69	2114.14
588.04	2108.98
588.39	2103.35
588.74	2096.87
589.09	2090.64
589.44	2083.88
589.79	2077.65
590.14	2072.05
590.49	2065.47
590.84	2058.90
591.19	2052.77
591.54	2046.12
591.89	2038.85
592.25	2032.06
592.60	2024.94
592.95	2017.41
593.30	2010.21
593.65	2002.54
594.00	1995.48
594.35	1988.10
594.70	1980.01
595.05	1972.85
595.40	1965.61
595.75	1957.99
596.10	1951.84
596.45	1945.14
596.80	1938.88
597.15	1932.37
597.50	1925.48
597.85	1918.90
598.19	1912.34
598.54	1905.44
598.89	1898.96
599.24	1893.05
599.59	1886.47
599.94	1880.23
600.29	1873.96
600.64	1867.23
600.99	1860.02
601.34	1853.25
601.69	1846.25
602.04	1839.50
602.39	1832.17
602.74	1825.46
603.08	1818.90
603.43	1812.22
603.78	1804.94
604.13	1797.73
604.48	1790.54
604.83	1783.61
605.18	1776.85
605.53	1768.97
605.87	1760.77
606.22	1753.50
606.57	1745.44
606.92	1737.95
607.27	1730.89
607.62	1723.87
607.96	1716.73
608.31	1710.17
608.66	1702.63
609.01	1695.29
609.36	1687.68
609.70	1679.77
610.05	1671.68
610.40	1663.90
610.75	1655.49
611.10	1647.82
611.44	1639.55
611.79	1631.46
612.14	1622.92
612.49	1613.68
612.83	1605.22
613.18	1597.15
613.53	1589.03
613.88	1580.64
614.22	1572.43
614.57	1563.74
614.92	1555.82
615.27	1548.37
615.61	1540.04
615.96	1531.90
616.31	1524.18
616.65	1516.83
617.00	1509.15
617.35	1501.42
617.70	1493.24
618.04	1484.84
618.39	1476.65
618.74	1468.99
619.08	1460.65
619.43	1452.99
619.78	1446.11
620.12	1439.03
620.47	1431.62
620.82	1423.49
621.16	1415.98
621.51	1408.34
621.85	1400.68
622.20	1392.12
622.55	1383.62
622.89	1375.73
623.24	1368.20
623.59	1360.83
623.93	1353.31
624.28	1346.14
624.62	1338.68
624.97	1331.43
625.32	1324.52
625.66	1317.47
626.01	1310.24
626.35	1302.82
626.70	1294.99
627.04	1287.20
627.39	1279.32
627.73	1271.93
628.08	1264.96
628.43	1257.76
628.77	1250.41
629.12	1243.00
629.46	1235.89
629.81	1228.41
630.15	1221.17
630.50	1213.86
630.84	1205.66
631.19	1197.75
631.53	1190.26
631.88	1182.61
632.22	1174.94
632.57	1167.70
632.91	1160.15
633.26	1152.76
633.60	1145.41
633.95	1138.24
634.29	1131.25
634.64	1124.58
634.98	1117.19
635.32	1110.04
635.67	1103.32
636.01	1096.68
636.36	1089.87
636.70	1083.22
637.05	1076.72
637.39	1070.25
637.73	1063.66
638.08	1057.71
638.42	1051.72
638.77	1045.21
639.11	1038.67
639.45	1032.32
639.80	1025.76
640.14	1019.37
640.49	1012.94
640.83	1006.68
641.17	1000.55
641.52	994.18
641.86	987.67
642.20	981.75
642.55	975.51
642.89	969.14
643.23	962.51
643.58	956.67
643.92	950.55
644.26	944.55
644.61	938.53
644.95	932.54
645.29	926.03
645.64	919.31
645.98	912.91
646.32	907.04
646.66	900.98
647.01	895.11
647.35	889.44
647.69	883.54
648.04	877.98
648.38	872.21
648.72	866.25
649.06	860.28
649.41	854.47
649.75	848.49
650.09	842.53
650.43	836.82
650.78	830.68
651.12	824.70
651.46	819.03
651.80	813.32
652.14	807.85
652.49	802.47
652.83	797.26
653.17	791.65
653.51	786.00
653.85	780.57
654.20	774.92
654.54	768.91
654.88	763.19
655.22	757.25
655.56	751.50
655.90	746.06
656.25	740.83
656.59	735.43
656.93	730.35
657.27	725.23
657.61	719.87
657.95	714.73
658.29	709.65
658.64	704.27
658.98	698.93
659.32	693.48
659.66	688.25
660.00	682.97
660.34	678.03
660.68	673.07
661.02	668.11
661.36	663.50
661.70	658.94
662.05	654.53
662.39	650.26
662.73	645.79
663.07	641.42
663.41	636.90
663.75	632.39
664.09	627.78
664.43	623.30
664.77	619.13
665.11	614.90
665.45	610.77
665.79	606.72
666.13	602.57
666.47	598.45
666.81	594.29
667.15	590.16
667.49	586.24
667.83	582.34
668.17	578.34
668.51	574.19
668.85	570.16
669.19	566.30
669.53	562.48
669.87	558.66
670.21	554.94
670.55	551.31
670.89	547.88
671.23	544.49
671.57	541.04
671.91	537.50
672.25	533.99
672.58	530.43
672.92	527.01
673.26	523.89
673.60	520.78
673.94	517.71
674.28	514.81
674.62	511.93
674.96	508.90
675.30	506.06
675.64	503.11
675.97	500.32
676.31	497.47
676.65	494.51
676.99	491.80
677.33	488.96
677.67	486.22
678.01	483.18
678.34	480.20
678.68	477.31
679.02	474.45
679.36	471.67
679.70	469.00
680.04	466.25
680.37	463.35
680.71	460.51
681.05	457.85
681.39	455.13
681.73	452.44
682.06	449.88
682.40	447.33
682.74	444.84
683.08	442.30
683.42	439.70
683.75	437.21
684.09	434.60
684.43	432.11
684.77	429.62
685.10	427.30
685.44	424.96
685.78	422.65
686.12	420.43
686.45	418.17
686.79	415.88
687.13	413.70
687.46	411.56
687.80	409.40
688.14	407.17
688.48	405.12
688.81	402.92
689.15	400.75
689.49	398.57
689.82	396.49
690.16	394.39
690.50	392.46
690.83	390.49
691.17	388.54
691.51	386.65
691.84	384.76
692.18	382.83
692.52	380.85
692.85	378.90
693.19	377.05
693.52	375.20
693.86	373.37
694.20	371.60
694.53	369.81
694.87	367.97
695.21	366.23
695.54	364.39
695.88	362.66
696.21	360.97
696.55	359.34
696.88	357.63
697.22	355.98
697.56	354.28
697.89	352.68
698.23	351.07
698.56	349.46
698.90	347.92
699.23	346.27
699.57	344.76
699.90	343.24
700.24	341.66
700.58	340.13
700.91	338.65
701.25	337.18
701.58	335.80
701.92	334.47
702.25	333.08
702.59	331.71
702.92	330.35
703.26	329.04
703.59	327.69
703.93	326.50
704.26	325.27
704.60	324.06
704.93	322.74
705.26	321.50
705.60	320.30
705.93	319.08
706.27	318.06
706.60	316.95
706.94	315.91
707.27	314.78
707.61	313.71
707.94	312.66
708.27	311.55
708.61	310.48
708.94	309.47
709.28	308.50
709.61	307.52
709.94	306.59
710.28	305.58
710.61	304.62
710.95	303.56
711.28	302.64
711.61	301.66
711.95	300.73
712.28	299.79
712.61	298.83
712.95	297.91
713.28	296.99
713.61	296.10
713.95	295.15
714.28	294.32
714.61	293.45
714.95	292.60
715.28	291.75
715.61	290.88
715.95	290.02
716.28	289.15
716.61	288.30
716.95	287.43
717.28	286.67
717.61	285.91
717.94	285.19
718.28	284.35
718.61	283.59
718.94	282.90
719.27	282.20
719.61	281.53
719.94	280.88
720.27	280.17
720.60	279.54
720.94	278.96
721.27	278.37
721.60	277.79
721.93	277.22
722.27	276.66
722.60	276.06
722.93	275.46
723.26	274.93
723.59	274.38
723.93	273.85
724.26	273.29
724.59	272.73
724.92	272.14
725.25	271.68
725.59	271.21
725.92	270.74
726.25	270.26
726.58	269.75
726.91	269.26
727.24	268.81
727.57	268.32
727.91	267.77
728.24	267.30
728.57	266.80
728.90	266.33
729.23	265.85
729.56	265.46
729.89	265.02
730.22	264.52
730.55	264.10
730.89	263.67
731.22	263.23
731.55	262.84
731.88	262.48
732.21	262.04
732.54	261.57
732.87	261.14
733.20	260.73
733.53	260.34
733.86	259.92
734.19	259.54
734.52	259.16
734.85	258.87
735.18	258.44
735.51	258.10
735.84	257.70
736.17	257.37
736.50	256.96
736.83	256.74
737.16	256.43
737.49	256.06
737.82	255.72
738.15	255.38
738.48	255.02
738.81	254.67
739.14	254.33
739.47	254.00
739.80	253.69
740.13	253.39
740.46	253.09
740.79	252.81
741.12	252.51
741.45	252.22
741.78	251.84
742.11	251.58
742.44	251.27
742.77	250.97
743.10	250.67
743.43	250.36
743.75	249.98
744.08	249.83
744.41	249.59
744.74	249.34
745.07	249.06
745.40	248.85
745.73	248.61
746.06	248.36
746.39	248.13
746.71	247.83
747.04	247.59
747.37	247.33
747.70	247.07
748.03	246.80
748.36	246.57
748.68	246.37
749.01	246.11
749.34	245.86
749.67	245.68
750.00	245.49
750.33	245.33
750.65	245.11
750.98	244.76
751.31	244.53
751.64	244.29
751.97	244.12
752.29	243.86
752.62	243.61
752.95	243.38
753.28	243.18
753.60	243.01
753.93	242.81
754.26	242.62
754.59	242.42
754.91	242.20
755.24	241.96
755.57	241.75
755.90	241.56
756.22	241.41
756.55	241.18
756.88	240.96
757.20	240.75
757.53	240.53
757.86	240.38
758.19	240.20
758.51	240.04
758.84	239.85
759.17	239.70
759.49	239.57
759.82	239.47
760.15	239.32
760.47	239.15
760.80	238.98
761.13	238.83
761.45	238.67
761.78	238.51
762.11	238.43
762.43	238.28
762.76	238.16
763.08	238.03
763.41	237.91
763.74	237.79
764.06	237.64
764.39	237.51
764.71	237.35
765.04	237.26
765.37	237.13
765.69	236.98
766.02	236.85
766.34	236.68
766.67	236.52
767.00	236.41
767.32	236.33
767.65	236.27
767.97	236.19
768.30	236.08
768.62	235.97
768.95	235.82
769.27	235.71
769.60	235.59
769.92	235.47
770.25	235.34
770.57	235.23
770.90	235.12
771.22	235.01
771.55	234.93
771.87	234.81
772.20	234.73
772.52	234.70
772.85	234.72
773.17	234.66
773.50	234.59
773.82	234.48
774.15	234.32
774.47	234.15
774.80	234.06
775.12	233.97
775.45	233.87
775.77	233.78
776.09	233.69
776.42	233.62
776.74	233.53
777.07	233.47
777.39	233.39
777.72	233.25
778.04	233.21
778.36	233.14
778.69	233.05
779.01	232.99
779.33	232.88
779.66	232.72
779.98	232.63
780.31	232.52
780.63	232.52
780.95	232.48
781.28	232.46
781.60	232.35
781.92	232.26
782.25	232.22
782.57	232.16
782.89	232.10
783.22	231.99
783.54	231.93
783.86	231.85
784.19	231.75
784.51	231.72
784.83	231.64
785.16	231.57
785.48	231.50
785.80	231.46
786.12	231.40
786.45	231.31
786.77	231.27
787.09	231.22
787.42	231.11
787.74	231.08
788.06	231.03
788.38	230.97
788.71	230.94
789.03	230.90
789.35	230.87
789.67	230.82
789.99	230.81
790.32	230.74
790.64	230.74
790.96	230.78
791.28	230.75
791.61	230.71
791.93	230.69
792.25	230.65
792.57	230.63
792.89	230.58
793.21	230.53
793.54	230.47
793.86	230.43
794.18	230.39
794.50	230.33
794.82	230.27
795.14	230.26
795.47	230.25
795.79	230.21
796.11	230.16
796.43	230.11
796.75	230.10
797.07	230.07
797.39	229.97
797.71	229.90
798.04	229.86
798.36	229.84
798.68	229.80
799.00	229.79
799.32	229.73
799.64	229.68
799.96	229.65
800.28	229.64
800.60	229.57
800.92	229.56
801.24	229.54
801.56	229.53
801.89	229.50
802.21	229.48
802.53	229.43
802.85	229.42
803.17	229.46
803.49	229.41
803.81	229.40
804.13	229.39
804.45	229.32
804.77	229.31
805.09	229.26
805.41	229.23
805.73	229.16
806.05	229.11
806.37	229.09
806.69	229.11
807.01	229.08
807.33	229.13
807.65	229.06
807.97	229.05
808.28	229.03
808.60	228.99
808.92	228.95
809.24	228.98
809.56	228.93
809.88	228.86
810.20	228.84
810.52	228.83
810.84	228.81
811.16	228.80
811.48	228.74
811.80	228.76
812.12	228.73
812.43	228.73
812.75	228.72
813.07	228.71
813.39	228.64
813.71	228.58
814.03	228.53
814.35	228.53
814.67	228.48
814.98	228.43
815.30	228.41
815.62	228.37
815.94	228.27
816.26	228.29
816.58	228.28
816.89	228.28
817.21	228.23
817.53	228.20
817.85	228.17
818.17	228.16
818.48	228.12
818.80	228.12
819.12	228.10
819.44	228.06
819.76	228.02
820.07	228.03
820.39	228.00
820.71	227.99
821.03	227.94
821.34	227.92
821.66	227.93
821.98	227.94
822.30	227.92
822.61	227.97
822.93	227.89
823.25	227.86
823.57	227.81
823.88	227.85
824.20	227.88
824.52	227.89
824.83	227.90
825.15	227.85
825.47	227.84
825.79	227.85
826.10	227.83
826.42	227.83
826.74	227.84
827.05	227.87
827.37	227.85
827.69	227.83
828.00	227.84
828.32	227.83
828.64	227.82
828.95	227.87
829.27	227.85
829.58	227.89
829.90	227.88
830.22	227.89
830.53	227.85
830.85	227.83
831.17	227.82
831.48	227.82
831.80	227.85
832.11	227.83
832.43	227.79
832.75	227.77
833.06	227.83
833.38	227.79
833.69	227.77
834.01	227.80
834.32	227.82
834.64	227.80
834.96	227.81
835.27	227.80
835.59	227.77
835.90	227.75
836.22	227.70
836.53	227.69
836.85	227.68
837.16	227.79
837.48	227.75
837.79	227.77
838.11	227.74
838.42	227.74
838.74	227.75
839.05	227.77
839.37	227.79
839.68	227.73
840.00	227.69
840.31	227.70
840.63	227.68
840.94	227.65
841.26	227.64
841.57	227.63
841.88	227.63
842.20	227.60
842.51	227.59
842.83	227.61
843.14	227.70
843.46	227.70
843.77	227.64
844.08	227.64
844.40	227.61
844.71	227.60
845.03	227.57
845.34	227.52
845.65	227.50
845.97	227.51
846.28	227.52
846.60	227.54
846.91	227.52
847.22	227.51
847.54	227.53
847.85	227.54
848.16	227.52
848.48	227.47
848.79	227.50
849.10	227.55
849.42	227.53
849.73	227.40
850.04	227.39
850.36	227.34
850.67	227.37
850.98	227.36
851.30	227.35
851.61	227.34
851.92	227.36
852.23	227.35
852.55	227.32
852.86	227.32
853.17	227.32
853.49	227.33
853.80	227.33
854.11	227.33
854.42	227.33
854.74	227.34
855.05	227.34
855.36	227.26
855.67	227.22
855.99	227.23
856.30	227.32
856.61	227.32
856.92	227.30
857.23	227.27
857.55	227.25
857.86	227.28
858.17	227.29
858.48	227.24
858.79	227.23
859.11	227.23
859.42	227.23
859.73	227.24
860.04	227.22
860.35	227.17
860.66	227.13
860.98	227.14
861.29	227.13
861.60	227.13
861.91	227.16
862.22	227.10
862.53	227.06
862.84	226.96
863.16	226.98
863.47	226.97
863.78	226.96
864.09	226.98
864.40	226.97
864.71	226.97
865.02	227.00
865.33	226.98
865.64	226.97
865.95	226.97
866.27	227.01
866.58	227.03
866.89	227.07
867.20	227.07
867.51	227.04
867.82	227.02
868.13	227.05
868.44	227.06
868.75	227.11
869.06	227.13
869.37	227.14
869.68	227.11
869.99	227.15
870.30	227.15
870.61	227.16
870.92	227.14
871.23	227.11
871.54	227.15
871.85	227.20
872.16	227.23
872.47	227.19
872.78	227.11
873.09	227.07
873.40	227.05
873.71	227.11
874.02	227.10
874.33	227.07
874.64	227.05
874.95	227.05
875.26	227.03
875.56	227.04
875.87	227.04
876.18	226.99
876.49	227.08
876.80	227.08
877.11	227.08
877.42	227.04
877.73	227.08
878.04	227.04
878.35	227.03
878.66	227.01
878.96	227.03
879.27	227.04
879.58	227.05
879.89	227.05
880.20	227.04
880.51	227.04
880.82	227.06
881.12	227.08
881.43	227.05
881.74	227.02
882.05	227.00
882.36	227.01
882.67	227.08
882.97	226.96
883.28	226.93
883.59	226.92
883.90	226.91
884.21	226.91
884.51	226.91
884.82	226.88
885.13	226.88
885.44	226.88
885.74	226.87
886.05	226.88
886.36	226.87
886.67	226.81
886.98	226.89
887.28	226.90
887.59	226.89
887.90	226.87
888.20	226.91
888.51	226.94
888.82	226.95
889.13	226.92
889.43	227.03
889.74	227.03
890.05	227.02
890.35	227.05
890.66	227.01
890.97	227.00
891.28	226.98
891.58	226.99
891.89	227.03
892.20	227.03
892.50	227.03
892.81	227.01
893.12	227.05
893.42	227.00
893.73	227.00
894.04	227.01
894.34	227.02
894.65	226.99
894.95	226.96
895.26	226.92
895.57	226.98
895.87	226.89
896.18	226.91
896.48	226.93
896.79	226.91
897.10	226.94
897.40	226.92
897.71	226.96
898.01	226.94
898.32	226.90
898.63	226.87
898.93	226.87
899.24	226.87
899.54	226.84
899.85	226.83
900.15	226.84
900.46	226.83
900.76	226.85
901.07	226.84
901.38	226.84
901.68	226.85
901.99	226.79
902.29	226.79
902.60	226.77
902.90	226.78
903.21	226.80
903.51	226.80
903.82	226.84
904.12	226.82
904.43	226.81
904.73	226.81
905.03	226.84
905.34	226.94
905.64	226.94
905.95	226.96
906.25	226.92
906.56	226.89
906.86	226.87
907.17	226.86
907.47	226.87
907.77	226.91
908.08	226.91
908.38	226.91
908.69	226.90
908.99	226.92
909.30	226.91
909.60	226.89
909.90	226.89
910.21	226.87
910.51	226.86
910.81	226.86
911.12	226.87
911.42	226.87
911.73	226.76
912.03	226.77
912.33	226.79
912.64	226.81
912.94	226.79
913.24	226.77
913.55	226.74
913.85	226.74
914.15	226.71
914.46	226.72
914.76	226.66
915.06	226.68
915.37	226.65
915.67	226.61
915.97	226.63
916.27	226.60
916.58	226.60
916.88	226.58
917.18	226.56
917.49	226.63
917.79	226.58
918.09	226.57
918.39	226.58
918.70	226.55
919.00	226.58
919.30	226.64
919.60	226.63
919.91	226.64
920.21	226.64
920.51	226.65
920.81	226.61
921.12	226.66
921.42	226.65
921.72	226.67
922.02	226.68
922.32	226.66
922.63	226.67
922.93	226.69
923.23	226.68
923.53	226.68
923.83	226.62
924.13	226.65
924.44	226.67
924.74	226.69
925.04	226.73
925.34	226.69
925.64	226.63
925.94	226.64
926.24	226.70
926.55	226.68
926.85	226.66
927.15	226.67
927.45	226.66
927.75	226.65
928.05	226.63
928.35	226.61
928.65	226.64
928.95	226.65
929.26	226.62
929.56	226.63
929.86	226.64
930.16	226.60
930.46	226.61
930.76	226.59
931.06	226.54
931.36	226.50
931.66	226.48
931.96	226.52
932.26	226.53
932.56	226.47
932.86	226.51
933.16	226.48
933.46	226.47
933.76	226.45
934.06	226.46
934.36	226.47
934.66	226.47
934.96	226.44
935.26	226.47
935.56	226.48
935.86	226.44
936.16	226.41
936.46	226.42
936.76	226.37
937.06	226.36
937.36	226.39
937.66	226.40
937.96	226.40
938.26	226.36
938.56	226.35
938.86	226.40
939.16	226.41
939.46	226.47
939.76	226.46
940.06	226.46
940.35	226.45
940.65	226.45
940.95	226.46
941.25	226.45
941.55	226.43
941.85	226.42
942.15	226.48
942.45	226.48
942.75	226.50
943.04	226.55
943.34	226.59
943.64	226.55
943.94	226.54
944.24	226.57
944.54	226.59
944.84	226.61
945.13	226.56
945.43	226.55
945.73	226.57
946.03	226.59
946.33	226.59
946.62	226.61
946.92	226.59
947.22	226.61
947.52	226.62
947.82	226.62
948.11	226.65
948.41	226.63
948.71	226.67
949.01	226.66
949.31	226.66
949.60	226.64
949.90	226.68
950.20	226.68
950.50	226.69
950.79	226.69
951.09	226.70
951.39	226.72
951.69	226.73
951.98	226.71
952.28	226.74
952.58	226.75
952.87	226.72
953.17	226.75
953.47	226.73
953.76	226.71
954.06	226.69
954.36	226.64
954.66	226.65
954.95	226.66
955.25	226.67
955.55	226.67
955.84	226.65
956.14	226.63
956.44	226.66
956.73	226.62
957.03	226.62
957.32	226.62
957.62	226.60
957.92	226.61
958.21	226.63
958.51	226.74
958.81	226.75
959.10	226.75
959.40	226.78
959.69	226.78
959.99	226.81
960.29	226.83
960.58	226.85
960.88	226.89
961.17	226.88
961.47	226.90
961.76	226.86
962.06	226.88
962.36	226.90
962.65	226.84
962.95	226.87
963.24	226.85
963.54	226.83
963.83	226.81
964.13	226.80
964.42	226.72
964.72	226.61
965.01	226.57
965.31	226.58
965.60	226.55
965.90	226.62
966.19	226.58
966.49	226.58
966.78	226.56
967.08	226.52
967.37	226.52
967.67	226.49
967.96	226.51
968.26	226.50
968.55	226.49
968.85	226.51
969.14	226.54
969.43	226.55
969.73	226.52
970.02	226.50
970.32	226.51
970.61	226.52
970.91	226.48
971.20	226.48
971.49	226.46
971.79	226.47
972.08	226.38
972.38	226.40
972.67	226.38
972.96	226.39
973.26	226.41
973.55	226.43
973.85	226.40
974.14	226.37
974.43	226.38
974.73	226.36
975.02	226.33
975.31	226.31
975.61	226.29
975.90	226.32
976.19	226.33
976.49	226.31
976.78	226.32
977.07	226.35
977.37	226.36
977.66	226.36
977.95	226.33
978.24	226.34
978.54	226.33
978.83	226.28
979.12	226.31
979.42	226.26
979.71	226.21
980.00	226.25
980.29	226.28
980.59	226.27
980.88	226.29
981.17	226.27
981.46	226.25
981.76	226.28
982.05	226.33
982.34	226.32
982.63	226.32
982.93	226.32
983.22	226.34
983.51	226.34
983.80	226.34
984.09	226.36
984.39	226.37
984.68	226.37
984.97	226.40
985.26	226.39
985.55	226.43
985.85	226.42
986.14	226.42
986.43	226.40
986.72	226.41
987.01	226.36
987.30	226.38
987.59	226.38
987.89	226.37
988.18	226.32
988.47	226.30
988.76	226.28
989.05	226.29
989.34	226.26
989.63	226.28
989.92	226.27
990.22	226.27
990.51	226.26
990.80	226.25
991.09	226.28
991.38	226.27
991.67	226.24
991.96	226.28
992.25	226.29
992.54	226.28
992.83	226.29
993.12	226.32
993.41	226.37
993.70	226.41
993.99	226.43
994.28	226.44
994.58	226.48
994.87	226.51
995.16	226.51
995.45	226.51
995.74	226.46
996.03	226.50
996.32	226.48
996.61	226.51
996.90	226.54
997.19	226.54
997.48	226.51
997.77	226.50
998.06	226.48
998.34	226.47
998.63	226.49
998.92	226.50
999.21	226.52
999.50	226.47
999.79	226.44
1000.08	226.41
1000.37	226.39
1000.66	226.39
1000.95	226.37
1001.24	226.34
1001.53	226.35
1001.82	226.37
1002.11	226.33
1002.40	226.37
1002.68	226.37
1002.97	226.39
1003.26	226.38
1003.55	226.37
1003.84	226.35
1004.13	226.37
1004.42	226.36
1004.71	226.32
1004.99	226.28
1005.28	226.29
1005.57	226.34
1005.86	226.32
1006.15	226.34
1006.44	226.34
1006.72	226.37
1007.01	226.38
1007.30	226.39
1007.59	226.38
1007.88	226.39
1008.17	226.40
1008.45	226.38
1008.74	226.32
1009.03	226.29
1009.32	226.27
1009.60	226.26
1009.89	226.28
1010.18	226.25
1010.47	226.27
1010.76	226.30
1011.04	226.31
1011.33	226.32
1011.62	226.32
1011.91	226.32
1012.19	226.30
1012.48	226.32
1012.77	226.33
1013.05	226.39
1013.34	226.39
1013.63	226.39
1013.92	226.39
1014.20	226.38
1014.49	226.39
1014.78	226.43
1015.06	226.39
1015.35	226.42
1015.64	226.47
1015.92	226.48
1016.21	226.47
1016.50	226.44
1016.78	226.42
1017.07	226.43
1017.36	226.42
1017.64	226.41
1017.93	226.43
1018.22	226.43
1018.50	226.41
1018.79	226.35
1019.08	226.28
1019.36	226.31
1019.65	226.31
1019.93	226.34
1020.22	226.36
1020.51	226.39
1020.79	226.37
1021.08	226.11
1021.36	226.15
1021.65	225.76
1021.94	226.31
1022.22	226.93
1022.51	226.29
1022.79	226.83
1023.08	226.38
1023.36	227.51
1023.65	226.27
>>>>>End Processed Spectral Data<<<<<
