SpectraSuite Data File
++++++++++++++++++++++++++++++++++++
Date: Fri Feb 01 15:08:58 EST 2013
User: group
Dark Spectrum Present: No
Reference Spectrum Present: No
Number of Sampled Component Spectra: 1
Spectrometers: USB2E7196
Integration Time (usec): 35000 (USB2E7196)
Spectra Averaged: 100 (USB2E7196)
Boxcar Smoothing: 10 (USB2E7196)
Correct for Electrical Dark: No (USB2E7196)
Strobe/Lamp Enabled: No (USB2E7196)
Correct for Detector Non-linearity: No (USB2E7196)
Correct for Stray Light: No (USB2E7196)
Number of Pixels in Processed Spectrum: 2048
>>>>>Begin Processed Spectral Data<<<<<
339.09	0.00
339.48	215.13
339.86	216.67
340.24	218.04
340.63	219.48
341.01	221.63
341.39	221.72
341.78	223.11
342.16	224.80
342.54	225.27
342.93	213.47
343.31	224.22
343.69	224.77
344.07	225.23
344.46	225.65
344.84	226.02
345.22	226.31
345.60	226.57
345.99	226.78
346.37	226.91
346.75	227.01
347.13	227.08
347.52	227.14
347.90	227.17
348.28	227.22
348.66	227.25
349.05	227.23
349.43	227.28
349.81	227.33
350.19	227.38
350.57	227.40
350.96	227.51
351.34	227.64
351.72	227.72
352.10	227.80
352.48	227.88
352.87	227.94
353.25	227.99
353.63	228.07
354.01	228.15
354.39	228.23
354.77	228.32
355.15	228.40
355.54	228.47
355.92	228.56
356.30	228.60
356.68	228.75
357.06	228.83
357.44	228.87
357.82	228.91
358.20	228.99
358.58	229.02
358.97	229.07
359.35	229.14
359.73	229.20
360.11	229.26
360.49	229.32
360.87	229.35
361.25	229.37
361.63	229.44
362.01	229.48
362.39	229.50
362.77	229.56
363.15	229.61
363.53	229.59
363.91	229.60
364.29	229.62
364.67	229.51
365.05	229.54
365.43	229.58
365.81	229.59
366.19	229.60
366.57	229.67
366.95	229.66
367.33	229.60
367.71	229.58
368.09	229.60
368.47	229.57
368.85	229.54
369.23	229.57
369.61	229.48
369.99	229.46
370.37	229.43
370.75	229.39
371.13	229.30
371.51	229.27
371.89	229.25
372.27	229.19
372.65	229.16
373.03	229.08
373.41	228.99
373.78	228.91
374.16	228.80
374.54	228.69
374.92	228.61
375.30	228.55
375.68	228.45
376.06	228.32
376.44	228.26
376.82	228.22
377.19	228.14
377.57	228.05
377.95	227.96
378.33	227.86
378.71	227.75
379.09	227.69
379.47	227.63
379.84	227.55
380.22	227.48
380.60	227.38
380.98	227.31
381.36	227.26
381.73	227.19
382.11	227.17
382.49	227.11
382.87	227.01
383.25	226.95
383.62	227.04
384.00	226.97
384.38	226.90
384.76	226.84
385.13	226.81
385.51	226.79
385.89	226.73
386.27	226.68
386.64	226.61
387.02	226.57
387.40	226.52
387.78	226.46
388.15	226.45
388.53	226.46
388.91	226.45
389.29	226.41
389.66	226.39
390.04	226.32
390.42	226.32
390.79	226.35
391.17	226.35
391.55	226.23
391.92	226.27
392.30	226.31
392.68	226.29
393.05	226.27
393.43	226.26
393.81	226.29
394.18	226.31
394.56	226.37
394.94	226.40
395.31	226.44
395.69	226.50
396.06	226.54
396.44	226.54
396.82	226.56
397.19	226.67
397.57	226.69
397.95	226.74
398.32	226.74
398.70	226.82
399.07	226.90
399.45	226.94
399.82	227.03
400.20	227.07
400.58	227.18
400.95	227.23
401.33	227.36
401.70	227.49
402.08	227.61
402.45	227.69
402.83	227.83
403.20	227.98
403.58	228.07
403.95	228.23
404.33	228.37
404.71	228.49
405.08	228.64
405.46	228.82
405.83	229.00
406.21	229.20
406.58	229.35
406.96	229.50
407.33	229.69
407.70	229.88
408.08	230.15
408.45	230.36
408.83	230.59
409.20	230.80
409.58	230.99
409.95	231.24
410.33	231.53
410.70	231.76
411.08	232.01
411.45	232.32
411.82	232.60
412.20	232.97
412.57	233.38
412.95	233.68
413.32	234.11
413.69	234.49
414.07	234.93
414.44	235.38
414.82	235.89
415.19	236.43
415.56	236.97
415.94	237.50
416.31	238.12
416.68	238.76
417.06	239.41
417.43	240.10
417.81	240.86
418.18	241.63
418.55	242.43
418.93	243.32
419.30	244.22
419.67	245.13
420.04	246.06
420.42	247.05
420.79	248.25
421.16	249.38
421.54	250.60
421.91	251.79
422.28	253.08
422.66	254.39
423.03	255.70
423.40	257.03
423.77	258.45
424.15	259.88
424.52	261.35
424.89	263.00
425.26	264.55
425.64	265.99
426.01	267.62
426.38	269.31
426.75	271.01
427.13	272.77
427.50	274.63
427.87	276.54
428.24	278.40
428.61	280.15
428.99	282.09
429.36	284.20
429.73	286.28
430.10	288.27
430.47	290.32
430.85	292.45
431.22	294.68
431.59	297.02
431.96	299.23
432.33	301.72
432.70	304.12
433.08	306.93
433.45	309.59
433.82	312.18
434.19	315.09
434.56	317.84
434.93	320.47
435.30	323.04
435.68	325.95
436.05	328.84
436.42	331.68
436.79	334.23
437.16	336.93
437.53	339.78
437.90	342.60
438.27	345.35
438.64	348.21
439.01	350.80
439.38	353.12
439.75	355.34
440.13	357.85
440.50	360.20
440.87	362.07
441.24	364.01
441.61	366.19
441.98	367.66
442.35	369.49
442.72	371.34
443.09	373.18
443.46	374.12
443.83	374.70
444.20	375.16
444.57	376.00
444.94	376.30
445.31	376.65
445.68	377.05
446.05	377.12
446.42	376.75
446.79	376.37
447.16	375.89
447.53	375.59
447.90	374.45
448.27	373.30
448.64	371.71
449.01	370.55
449.37	368.60
449.74	366.74
450.11	364.49
450.48	362.03
450.85	359.51
451.22	357.40
451.59	355.36
451.96	353.44
452.33	350.77
452.70	348.43
453.07	345.61
453.43	342.69
453.80	339.91
454.17	337.26
454.54	334.70
454.91	331.99
455.28	329.30
455.65	326.79
456.02	324.34
456.38	322.17
456.75	319.52
457.12	317.24
457.49	314.99
457.86	312.82
458.23	310.99
458.59	308.93
458.96	306.82
459.33	304.95
459.70	303.06
460.07	301.58
460.43	299.84
460.80	298.20
461.17	296.75
461.54	295.24
461.91	293.78
462.27	292.31
462.64	291.02
463.01	289.64
463.38	288.34
463.74	286.92
464.11	285.76
464.48	284.72
464.85	283.54
465.21	282.64
465.58	281.72
465.95	280.59
466.32	279.64
466.68	278.75
467.05	277.87
467.42	276.97
467.78	276.01
468.15	275.14
468.52	274.43
468.88	273.56
469.25	272.80
469.62	272.13
469.98	271.43
470.35	270.78
470.72	270.15
471.08	269.45
471.45	268.94
471.82	268.39
472.18	267.79
472.55	267.37
472.92	266.84
473.28	266.35
473.65	265.89
474.02	265.49
474.38	265.11
474.75	264.77
475.11	264.41
475.48	264.16
475.85	263.92
476.21	263.68
476.58	263.49
476.94	263.33
477.31	263.19
477.67	263.05
478.04	262.94
478.41	262.88
478.77	262.95
479.14	262.87
479.50	262.81
479.87	262.88
480.23	262.98
480.60	263.04
480.96	263.14
481.33	263.34
481.69	263.53
482.06	263.72
482.42	263.91
482.79	264.18
483.15	264.49
483.52	264.82
483.88	265.14
484.25	265.52
484.61	265.96
484.98	266.40
485.34	266.99
485.71	267.59
486.07	268.18
486.44	268.74
486.80	269.45
487.17	270.24
487.53	271.05
487.90	271.90
488.26	272.87
488.62	273.91
488.99	274.91
489.35	275.97
489.72	277.08
490.08	278.28
490.44	279.50
490.81	280.85
491.17	282.24
491.54	283.72
491.90	285.25
492.26	286.91
492.63	288.65
492.99	290.42
493.36	292.30
493.72	294.35
494.08	296.45
494.45	298.71
494.81	301.10
495.17	303.52
495.54	306.07
495.90	308.71
496.26	311.49
496.63	314.40
496.99	317.47
497.35	320.75
497.72	324.12
498.08	327.66
498.44	331.29
498.80	335.15
499.17	339.18
499.53	343.32
499.89	347.67
500.26	352.13
500.62	356.76
500.98	361.73
501.34	366.79
501.71	372.07
502.07	377.50
502.43	383.04
502.79	388.83
503.16	394.87
503.52	401.13
503.88	407.49
504.24	414.14
504.60	420.96
504.97	428.08
505.33	435.42
505.69	443.05
506.05	450.79
506.41	458.73
506.78	466.84
507.14	475.24
507.50	483.90
507.86	492.91
508.22	502.08
508.59	511.27
508.95	520.83
509.31	530.66
509.67	540.69
510.03	550.95
510.39	561.48
510.75	572.32
511.12	583.24
511.48	594.53
511.84	605.91
512.20	617.46
512.56	629.37
512.92	641.58
513.28	653.96
513.64	666.45
514.00	679.12
514.37	692.10
514.73	705.22
515.09	718.24
515.45	731.55
515.81	745.14
516.17	759.05
516.53	773.18
516.89	787.34
517.25	801.51
517.61	816.10
517.97	830.57
518.33	844.95
518.69	859.84
519.05	874.90
519.41	890.12
519.77	905.60
520.13	921.06
520.49	936.41
520.85	951.85
521.21	967.58
521.57	983.86
521.93	999.67
522.29	1016.11
522.65	1032.41
523.01	1048.56
523.37	1064.68
523.73	1080.98
524.09	1097.08
524.45	1113.56
524.81	1130.27
525.17	1147.08
525.53	1164.15
525.89	1181.16
526.25	1197.96
526.61	1214.36
526.97	1231.16
527.33	1247.84
527.68	1264.55
528.04	1281.14
528.40	1297.81
528.76	1315.02
529.12	1331.68
529.48	1348.65
529.84	1364.72
530.20	1381.49
530.56	1398.69
530.91	1416.09
531.27	1432.99
531.63	1449.57
531.99	1466.10
532.35	1482.15
532.71	1498.06
533.07	1514.32
533.42	1530.27
533.78	1546.31
534.14	1562.67
534.50	1578.11
534.86	1594.10
535.21	1609.22
535.57	1625.36
535.93	1640.96
536.29	1655.76
536.65	1670.88
537.00	1685.72
537.36	1701.07
537.72	1715.72
538.08	1730.16
538.44	1744.16
538.79	1757.99
539.15	1771.81
539.51	1785.70
539.87	1800.12
540.22	1813.94
540.58	1827.83
540.94	1841.29
541.29	1854.43
541.65	1867.34
542.01	1880.67
542.37	1893.04
542.72	1905.61
543.08	1917.26
543.44	1929.72
543.79	1941.04
544.15	1952.09
544.51	1963.69
544.87	1974.82
545.22	1985.52
545.58	1995.72
545.94	2005.48
546.29	2015.43
546.65	2025.24
547.01	2034.41
547.36	2043.19
547.72	2051.77
548.07	2059.56
548.43	2067.68
548.79	2075.81
549.14	2083.16
549.50	2090.62
549.86	2098.20
550.21	2105.38
550.57	2112.68
550.92	2119.29
551.28	2126.45
551.64	2133.43
551.99	2139.90
552.35	2145.94
552.70	2152.17
553.06	2158.17
553.41	2164.47
553.77	2170.43
554.13	2176.60
554.48	2182.85
554.84	2188.15
555.19	2193.31
555.55	2198.39
555.90	2202.87
556.26	2207.51
556.61	2212.38
556.97	2216.44
557.32	2220.60
557.68	2224.83
558.03	2229.01
558.39	2232.76
558.74	2237.14
559.10	2240.96
559.45	2244.67
559.81	2248.99
560.16	2252.69
560.52	2255.89
560.87	2259.32
561.23	2262.02
561.58	2264.83
561.94	2267.29
562.29	2269.82
562.64	2272.52
563.00	2275.21
563.35	2278.70
563.71	2281.94
564.06	2284.94
564.42	2287.81
564.77	2290.19
565.12	2292.28
565.48	2294.14
565.83	2295.76
566.19	2297.08
566.54	2298.14
566.89	2299.16
567.25	2299.52
567.60	2300.90
567.96	2302.61
568.31	2303.34
568.66	2304.19
569.02	2304.65
569.37	2304.91
569.72	2305.56
570.08	2305.45
570.43	2305.24
570.78	2304.51
571.14	2302.79
571.49	2301.36
571.84	2300.86
572.20	2299.65
572.55	2298.65
572.90	2297.06
573.26	2295.63
573.61	2293.77
573.96	2291.79
574.31	2288.67
574.67	2285.64
575.02	2281.87
575.37	2278.39
575.72	2274.39
576.08	2271.17
576.43	2267.91
576.78	2264.09
577.13	2260.90
577.49	2257.81
577.84	2254.24
578.19	2250.36
578.54	2246.41
578.90	2242.15
579.25	2236.48
579.60	2231.32
579.95	2226.20
580.30	2220.87
580.66	2215.53
581.01	2210.55
581.36	2205.61
581.71	2201.29
582.06	2196.69
582.42	2192.11
582.77	2186.73
583.12	2182.15
583.47	2177.13
583.82	2171.79
584.17	2166.44
584.53	2160.80
584.88	2155.04
585.23	2149.24
585.58	2143.72
585.93	2138.21
586.28	2133.34
586.63	2128.25
586.98	2123.20
587.34	2118.49
587.69	2113.64
588.04	2108.49
588.39	2102.70
588.74	2096.01
589.09	2089.80
589.44	2082.97
589.79	2076.91
590.14	2071.24
590.49	2064.55
590.84	2058.16
591.19	2052.22
591.54	2045.69
591.89	2038.04
592.25	2031.12
592.60	2023.78
592.95	2016.04
593.30	2008.66
593.65	2000.92
594.00	1993.75
594.35	1986.47
594.70	1978.21
595.05	1970.72
595.40	1963.23
595.75	1955.62
596.10	1949.33
596.45	1942.51
596.80	1936.36
597.15	1929.52
597.50	1922.20
597.85	1915.73
598.19	1909.09
598.54	1901.88
598.89	1895.15
599.24	1889.31
599.59	1882.66
599.94	1876.34
600.29	1870.01
600.64	1863.41
600.99	1855.98
601.34	1849.09
601.69	1842.05
602.04	1835.19
602.39	1827.95
602.74	1821.09
603.08	1814.42
603.43	1807.78
603.78	1800.51
604.13	1793.17
604.48	1785.90
604.83	1779.19
605.18	1772.13
605.53	1764.00
605.87	1755.88
606.22	1748.61
606.57	1740.68
606.92	1733.38
607.27	1726.19
607.62	1719.14
607.96	1711.76
608.31	1705.02
608.66	1697.35
609.01	1689.82
609.36	1682.30
609.70	1674.30
610.05	1666.12
610.40	1658.34
610.75	1649.97
611.10	1642.33
611.44	1634.00
611.79	1626.00
612.14	1617.13
612.49	1608.03
612.83	1599.70
613.18	1591.75
613.53	1583.69
613.88	1575.09
614.22	1566.70
614.57	1558.18
614.92	1550.17
615.27	1542.62
615.61	1534.30
615.96	1526.40
616.31	1518.74
616.65	1511.36
617.00	1503.82
617.35	1496.26
617.70	1487.91
618.04	1479.25
618.39	1470.99
618.74	1463.30
619.08	1455.02
619.43	1447.48
619.78	1440.63
620.12	1433.42
620.47	1425.84
620.82	1417.66
621.16	1410.46
621.51	1402.93
621.85	1395.36
622.20	1386.98
622.55	1378.75
622.89	1371.03
623.24	1363.52
623.59	1356.17
623.93	1348.62
624.28	1341.30
624.62	1333.74
624.97	1326.61
625.32	1320.02
625.66	1313.11
626.01	1306.10
626.35	1298.70
626.70	1291.03
627.04	1283.16
627.39	1275.54
627.73	1268.14
628.08	1261.34
628.43	1253.89
628.77	1246.51
629.12	1239.04
629.46	1231.84
629.81	1224.41
630.15	1217.14
630.50	1209.76
630.84	1201.59
631.19	1193.77
631.53	1186.38
631.88	1178.91
632.22	1171.37
632.57	1164.09
632.91	1156.53
633.26	1149.02
633.60	1141.65
633.95	1134.66
634.29	1127.76
634.64	1121.05
634.98	1113.74
635.32	1106.61
635.67	1100.18
636.01	1093.58
636.36	1086.76
636.70	1080.34
637.05	1073.85
637.39	1067.47
637.73	1060.96
638.08	1055.00
638.42	1049.03
638.77	1042.66
639.11	1036.09
639.45	1029.72
639.80	1023.09
640.14	1016.74
640.49	1010.25
640.83	1003.98
641.17	997.68
641.52	991.39
641.86	984.98
642.20	979.18
642.55	972.82
642.89	966.23
643.23	959.65
643.58	953.86
643.92	947.64
644.26	941.58
644.61	935.51
644.95	929.42
645.29	922.93
645.64	916.24
645.98	909.83
646.32	904.11
646.66	898.07
647.01	892.23
647.35	886.48
647.69	880.73
648.04	875.33
648.38	869.49
648.72	863.53
649.06	857.51
649.41	851.62
649.75	845.62
650.09	839.75
650.43	834.01
650.78	827.83
651.12	821.84
651.46	816.14
651.80	810.48
652.14	805.04
652.49	799.63
652.83	794.44
653.17	788.75
653.51	782.93
653.85	777.59
654.20	771.96
654.54	765.98
654.88	760.29
655.22	754.39
655.56	748.80
655.90	743.30
656.25	738.07
656.59	732.73
656.93	727.74
657.27	722.60
657.61	717.20
657.95	712.14
658.29	707.12
658.64	701.87
658.98	696.58
659.32	691.16
659.66	685.99
660.00	680.65
660.34	675.75
660.68	670.89
661.02	665.87
661.36	661.27
661.70	656.82
662.05	652.42
662.39	648.05
662.73	643.64
663.07	639.35
663.41	634.93
663.75	630.38
664.09	625.86
664.43	621.55
664.77	617.46
665.11	613.27
665.45	609.13
665.79	605.12
666.13	601.00
666.47	597.02
666.81	592.87
667.15	588.78
667.49	584.95
667.83	581.18
668.17	577.27
668.51	573.17
668.85	569.10
669.19	565.28
669.53	561.42
669.87	557.51
670.21	553.81
670.55	550.18
670.89	546.85
671.23	543.43
671.57	539.94
671.91	536.43
672.25	532.94
672.58	529.52
672.92	526.13
673.26	523.00
673.60	519.85
673.94	516.79
674.28	513.97
674.62	511.00
674.96	507.96
675.30	505.01
675.64	502.13
675.97	499.45
676.31	496.63
676.65	493.71
676.99	491.09
677.33	488.21
677.67	485.38
678.01	482.34
678.34	479.32
678.68	476.47
679.02	473.61
679.36	470.87
679.70	468.16
680.04	465.38
680.37	462.48
680.71	459.73
681.05	457.11
681.39	454.35
681.73	451.71
682.06	449.15
682.40	446.66
682.74	444.11
683.08	441.58
683.42	438.98
683.75	436.52
684.09	433.96
684.43	431.48
684.77	429.03
685.10	426.68
685.44	424.41
685.78	422.03
686.12	419.83
686.45	417.59
686.79	415.27
687.13	413.05
687.46	410.87
687.80	408.68
688.14	406.48
688.48	404.47
688.81	402.23
689.15	400.07
689.49	397.93
689.82	395.88
690.16	393.74
690.50	391.79
690.83	389.89
691.17	387.88
691.51	386.02
691.84	384.18
692.18	382.24
692.52	380.27
692.85	378.43
693.19	376.55
693.52	374.75
693.86	372.94
694.20	371.22
694.53	369.49
694.87	367.68
695.21	365.94
695.54	364.09
695.88	362.42
696.21	360.72
696.55	359.02
696.88	357.35
697.22	355.72
697.56	354.08
697.89	352.40
698.23	350.83
698.56	349.24
698.90	347.64
699.23	346.01
699.57	344.45
699.90	342.93
700.24	341.38
700.58	339.81
700.91	338.32
701.25	336.88
701.58	335.46
701.92	334.09
702.25	332.73
702.59	331.37
702.92	329.99
703.26	328.70
703.59	327.46
703.93	326.29
704.26	325.08
704.60	323.81
704.93	322.56
705.26	321.32
705.60	320.12
705.93	319.01
706.27	318.04
706.60	316.98
706.94	315.90
707.27	314.72
707.61	313.67
707.94	312.66
708.27	311.55
708.61	310.49
708.94	309.53
709.28	308.55
709.61	307.60
709.94	306.67
710.28	305.66
710.61	304.64
710.95	303.58
711.28	302.64
711.61	301.70
711.95	300.83
712.28	299.88
712.61	298.93
712.95	297.99
713.28	297.08
713.61	296.24
713.95	295.39
714.28	294.59
714.61	293.73
714.95	292.89
715.28	292.05
715.61	291.23
715.95	290.36
716.28	289.50
716.61	288.67
716.95	287.88
717.28	287.16
717.61	286.40
717.94	285.65
718.28	284.89
718.61	284.16
718.94	283.45
719.27	282.80
719.61	282.19
719.94	281.52
720.27	280.77
720.60	280.12
720.94	279.45
721.27	278.91
721.60	278.35
721.93	277.72
722.27	277.14
722.60	276.56
722.93	276.00
723.26	275.45
723.59	274.89
723.93	274.34
724.26	273.75
724.59	273.25
724.92	272.71
725.25	272.21
725.59	271.70
725.92	271.21
726.25	270.70
726.58	270.17
726.91	269.68
727.24	269.22
727.57	268.71
727.91	268.20
728.24	267.69
728.57	267.19
728.90	266.79
729.23	266.34
729.56	265.96
729.89	265.44
730.22	264.97
730.55	264.54
730.89	264.10
731.22	263.65
731.55	263.19
731.88	262.78
732.21	262.35
732.54	261.91
732.87	261.43
733.20	261.02
733.53	260.68
733.86	260.28
734.19	259.88
734.52	259.52
734.85	259.24
735.18	258.85
735.51	258.45
735.84	258.06
736.17	257.67
736.50	257.24
736.83	257.02
737.16	256.66
737.49	256.31
737.82	255.94
738.15	255.64
738.48	255.29
738.81	254.96
739.14	254.64
739.47	254.33
739.80	254.05
740.13	253.77
740.46	253.43
740.79	253.09
741.12	252.79
741.45	252.47
741.78	252.09
742.11	251.79
742.44	251.49
742.77	251.21
743.10	250.91
743.43	250.59
743.75	250.21
744.08	250.09
744.41	249.81
744.74	249.54
745.07	249.24
745.40	249.02
745.73	248.78
746.06	248.48
746.39	248.21
746.71	247.93
747.04	247.65
747.37	247.37
747.70	247.17
748.03	246.96
748.36	246.73
748.68	246.49
749.01	246.26
749.34	246.05
749.67	245.80
750.00	245.63
750.33	245.48
750.65	245.30
750.98	244.97
751.31	244.79
751.64	244.59
751.97	244.45
752.29	244.21
752.62	243.97
752.95	243.78
753.28	243.56
753.60	243.36
753.93	243.18
754.26	243.00
754.59	242.74
754.91	242.53
755.24	242.34
755.57	242.16
755.90	241.99
756.22	241.78
756.55	241.59
756.88	241.38
757.20	241.17
757.53	240.95
757.86	240.77
758.19	240.60
758.51	240.42
758.84	240.22
759.17	240.09
759.49	239.94
759.82	239.83
760.15	239.68
760.47	239.53
760.80	239.38
761.13	239.26
761.45	239.14
761.78	238.97
762.11	238.84
762.43	238.70
762.76	238.55
763.08	238.46
763.41	238.35
763.74	238.20
764.06	238.04
764.39	237.92
764.71	237.77
765.04	237.61
765.37	237.50
765.69	237.35
766.02	237.19
766.34	237.06
766.67	236.91
767.00	236.82
767.32	236.76
767.65	236.68
767.97	236.53
768.30	236.40
768.62	236.29
768.95	236.15
769.27	236.05
769.60	235.95
769.92	235.79
770.25	235.66
770.57	235.54
770.90	235.43
771.22	235.30
771.55	235.20
771.87	235.13
772.20	235.01
772.52	234.98
772.85	234.96
773.17	234.84
773.50	234.74
773.82	234.62
774.15	234.48
774.47	234.31
774.80	234.21
775.12	234.14
775.45	234.05
775.77	233.98
776.09	233.87
776.42	233.76
776.74	233.71
777.07	233.64
777.39	233.59
777.72	233.51
778.04	233.43
778.36	233.36
778.69	233.28
779.01	233.22
779.33	233.10
779.66	233.00
779.98	232.92
780.31	232.83
780.63	232.82
780.95	232.77
781.28	232.74
781.60	232.68
781.92	232.60
782.25	232.53
782.57	232.46
782.89	232.40
783.22	232.34
783.54	232.27
783.86	232.21
784.19	232.13
784.51	232.14
784.83	232.08
785.16	232.02
785.48	231.99
785.80	231.98
786.12	231.91
786.45	231.83
786.77	231.83
787.09	231.79
787.42	231.71
787.74	231.68
788.06	231.63
788.38	231.61
788.71	231.61
789.03	231.62
789.35	231.62
789.67	231.57
789.99	231.57
790.32	231.53
790.64	231.50
790.96	231.59
791.28	231.52
791.61	231.48
791.93	231.45
792.25	231.40
792.57	231.40
792.89	231.37
793.21	231.34
793.54	231.31
793.86	231.28
794.18	231.24
794.50	231.18
794.82	231.17
795.14	231.13
795.47	231.11
795.79	231.07
796.11	231.03
796.43	231.00
796.75	230.96
797.07	230.92
797.39	230.86
797.71	230.72
798.04	230.66
798.36	230.67
798.68	230.68
799.00	230.63
799.32	230.55
799.64	230.54
799.96	230.50
800.28	230.49
800.60	230.46
800.92	230.45
801.24	230.43
801.56	230.37
801.89	230.32
802.21	230.25
802.53	230.19
802.85	230.20
803.17	230.20
803.49	230.17
803.81	230.14
804.13	230.11
804.45	230.09
804.77	230.09
805.09	230.03
805.41	229.97
805.73	229.96
806.05	229.90
806.37	229.83
806.69	229.78
807.01	229.72
807.33	229.71
807.65	229.65
807.97	229.64
808.28	229.65
808.60	229.65
808.92	229.61
809.24	229.62
809.56	229.52
809.88	229.49
810.20	229.47
810.52	229.46
810.84	229.41
811.16	229.39
811.48	229.36
811.80	229.39
812.12	229.35
812.43	229.33
812.75	229.30
813.07	229.31
813.39	229.31
813.71	229.26
814.03	229.19
814.35	229.18
814.67	229.11
814.98	229.06
815.30	229.02
815.62	229.00
815.94	228.92
816.26	228.98
816.58	228.91
816.89	228.89
817.21	228.85
817.53	228.87
817.85	228.83
818.17	228.82
818.48	228.74
818.80	228.76
819.12	228.74
819.44	228.72
819.76	228.70
820.07	228.69
820.39	228.67
820.71	228.69
821.03	228.66
821.34	228.68
821.66	228.67
821.98	228.70
822.30	228.66
822.61	228.70
822.93	228.61
823.25	228.61
823.57	228.59
823.88	228.59
824.20	228.57
824.52	228.60
824.83	228.55
825.15	228.54
825.47	228.52
825.79	228.49
826.10	228.49
826.42	228.44
826.74	228.45
827.05	228.48
827.37	228.45
827.69	228.44
828.00	228.38
828.32	228.37
828.64	228.32
828.95	228.39
829.27	228.37
829.58	228.38
829.90	228.38
830.22	228.40
830.53	228.38
830.85	228.35
831.17	228.31
831.48	228.31
831.80	228.34
832.11	228.35
832.43	228.33
832.75	228.33
833.06	228.39
833.38	228.35
833.69	228.33
834.01	228.32
834.32	228.34
834.64	228.33
834.96	228.32
835.27	228.33
835.59	228.28
835.90	228.24
836.22	228.25
836.53	228.24
836.85	228.24
837.16	228.32
837.48	228.33
837.79	228.36
838.11	228.36
838.42	228.34
838.74	228.34
839.05	228.33
839.37	228.30
839.68	228.21
840.00	228.18
840.31	228.21
840.63	228.19
840.94	228.16
841.26	228.14
841.57	228.13
841.88	228.12
842.20	228.13
842.51	228.09
842.83	228.07
843.14	228.12
843.46	228.06
843.77	228.02
844.08	228.01
844.40	227.95
844.71	227.96
845.03	227.90
845.34	227.89
845.65	227.90
845.97	227.91
846.28	227.93
846.60	227.93
846.91	227.88
847.22	227.86
847.54	227.91
847.85	227.92
848.16	227.91
848.48	227.92
848.79	227.93
849.10	227.99
849.42	227.99
849.73	227.88
850.04	227.88
850.36	227.82
850.67	227.84
850.98	227.83
851.30	227.81
851.61	227.82
851.92	227.82
852.23	227.80
852.55	227.78
852.86	227.78
853.17	227.79
853.49	227.77
853.80	227.83
854.11	227.81
854.42	227.83
854.74	227.81
855.05	227.77
855.36	227.73
855.67	227.69
855.99	227.68
856.30	227.82
856.61	227.81
856.92	227.81
857.23	227.80
857.55	227.80
857.86	227.81
858.17	227.80
858.48	227.77
858.79	227.76
859.11	227.78
859.42	227.76
859.73	227.75
860.04	227.77
860.35	227.71
860.66	227.66
860.98	227.63
861.29	227.63
861.60	227.62
861.91	227.62
862.22	227.62
862.53	227.61
862.84	227.47
863.16	227.51
863.47	227.47
863.78	227.44
864.09	227.44
864.40	227.44
864.71	227.43
865.02	227.45
865.33	227.43
865.64	227.43
865.95	227.45
866.27	227.53
866.58	227.51
866.89	227.50
867.20	227.51
867.51	227.53
867.82	227.54
868.13	227.58
868.44	227.57
868.75	227.56
869.06	227.58
869.37	227.63
869.68	227.59
869.99	227.64
870.30	227.68
870.61	227.68
870.92	227.68
871.23	227.67
871.54	227.66
871.85	227.72
872.16	227.71
872.47	227.70
872.78	227.65
873.09	227.66
873.40	227.67
873.71	227.68
874.02	227.66
874.33	227.67
874.64	227.65
874.95	227.65
875.26	227.65
875.56	227.65
875.87	227.62
876.18	227.63
876.49	227.71
876.80	227.64
877.11	227.63
877.42	227.63
877.73	227.68
878.04	227.69
878.35	227.64
878.66	227.64
878.96	227.63
879.27	227.61
879.58	227.60
879.89	227.58
880.20	227.59
880.51	227.61
880.82	227.59
881.12	227.56
881.43	227.55
881.74	227.52
882.05	227.51
882.36	227.52
882.67	227.51
882.97	227.41
883.28	227.41
883.59	227.41
883.90	227.41
884.21	227.37
884.51	227.36
884.82	227.30
885.13	227.30
885.44	227.31
885.74	227.29
886.05	227.29
886.36	227.28
886.67	227.26
886.98	227.27
887.28	227.25
887.59	227.26
887.90	227.26
888.20	227.23
888.51	227.25
888.82	227.24
889.13	227.27
889.43	227.33
889.74	227.35
890.05	227.37
890.35	227.33
890.66	227.33
890.97	227.34
891.28	227.38
891.58	227.39
891.89	227.37
892.20	227.39
892.50	227.38
892.81	227.37
893.12	227.34
893.42	227.30
893.73	227.31
894.04	227.31
894.34	227.34
894.65	227.35
894.95	227.32
895.26	227.32
895.57	227.35
895.87	227.26
896.18	227.25
896.48	227.21
896.79	227.24
897.10	227.25
897.40	227.25
897.71	227.26
898.01	227.27
898.32	227.28
898.63	227.29
898.93	227.29
899.24	227.29
899.54	227.33
899.85	227.33
900.15	227.32
900.46	227.32
900.76	227.29
901.07	227.31
901.38	227.31
901.68	227.31
901.99	227.29
902.29	227.31
902.60	227.34
902.90	227.34
903.21	227.35
903.51	227.34
903.82	227.34
904.12	227.34
904.43	227.34
904.73	227.33
905.03	227.31
905.34	227.40
905.64	227.43
905.95	227.40
906.25	227.38
906.56	227.43
906.86	227.42
907.17	227.41
907.47	227.43
907.77	227.44
908.08	227.43
908.38	227.43
908.69	227.41
908.99	227.40
909.30	227.42
909.60	227.39
909.90	227.39
910.21	227.36
910.51	227.34
910.81	227.33
911.12	227.31
911.42	227.32
911.73	227.22
912.03	227.20
912.33	227.24
912.64	227.24
912.94	227.21
913.24	227.22
913.55	227.23
913.85	227.21
914.15	227.23
914.46	227.23
914.76	227.18
915.06	227.18
915.37	227.15
915.67	227.14
915.97	227.13
916.27	227.11
916.58	227.10
916.88	227.11
917.18	227.09
917.49	227.16
917.79	227.16
918.09	227.17
918.39	227.17
918.70	227.13
919.00	227.12
919.30	227.17
919.60	227.11
919.91	227.07
920.21	227.02
920.51	226.97
920.81	226.94
921.12	226.97
921.42	226.97
921.72	226.99
922.02	227.00
922.32	227.02
922.63	227.02
922.93	227.05
923.23	227.03
923.53	227.06
923.83	227.01
924.13	226.99
924.44	226.95
924.74	227.00
925.04	227.04
925.34	227.04
925.64	226.99
925.94	227.03
926.24	227.12
926.55	227.14
926.85	227.14
927.15	227.14
927.45	227.17
927.75	227.16
928.05	227.15
928.35	227.13
928.65	227.14
928.95	227.14
929.26	227.14
929.56	227.15
929.86	227.11
930.16	227.11
930.46	227.14
930.76	227.14
931.06	227.08
931.36	227.05
931.66	227.09
931.96	227.11
932.26	227.10
932.56	227.05
932.86	227.05
933.16	227.06
933.46	227.07
933.76	227.04
934.06	227.09
934.36	227.14
934.66	227.12
934.96	227.08
935.26	227.11
935.56	227.13
935.86	227.11
936.16	227.12
936.46	227.11
936.76	227.09
937.06	227.09
937.36	227.13
937.66	227.14
937.96	227.10
938.26	227.08
938.56	227.08
938.86	227.08
939.16	227.11
939.46	227.12
939.76	227.15
940.06	227.14
940.35	227.09
940.65	227.04
940.95	227.04
941.25	227.06
941.55	227.03
941.85	227.00
942.15	227.03
942.45	227.05
942.75	227.05
943.04	227.04
943.34	227.11
943.64	227.08
943.94	227.08
944.24	227.10
944.54	227.09
944.84	227.10
945.13	227.10
945.43	227.09
945.73	227.07
946.03	227.04
946.33	227.04
946.62	227.06
946.92	227.06
947.22	227.07
947.52	227.06
947.82	227.08
948.11	227.08
948.41	227.08
948.71	227.04
949.01	227.05
949.31	227.05
949.60	227.02
949.90	227.03
950.20	227.01
950.50	227.01
950.79	227.05
951.09	227.03
951.39	227.04
951.69	227.02
951.98	227.06
952.28	227.08
952.58	227.07
952.87	227.06
953.17	227.06
953.47	227.06
953.76	227.06
954.06	227.06
954.36	227.04
954.66	227.02
954.95	227.05
955.25	227.04
955.55	227.06
955.84	227.01
956.14	227.01
956.44	227.03
956.73	227.01
957.03	226.99
957.32	226.99
957.62	226.98
957.92	227.01
958.21	226.96
958.51	227.06
958.81	227.06
959.10	227.06
959.40	227.07
959.69	227.08
959.99	227.08
960.29	227.08
960.58	227.08
960.88	227.09
961.17	227.08
961.47	227.07
961.76	227.05
962.06	227.06
962.36	227.05
962.65	227.02
962.95	227.02
963.24	227.03
963.54	227.04
963.83	227.06
964.13	227.05
964.42	227.06
964.72	226.99
965.01	226.99
965.31	227.03
965.60	227.04
965.90	227.11
966.19	227.13
966.49	227.14
966.78	227.15
967.08	227.16
967.37	227.16
967.67	227.18
967.96	227.19
968.26	227.26
968.55	227.26
968.85	227.30
969.14	227.30
969.43	227.28
969.73	227.30
970.02	227.29
970.32	227.28
970.61	227.27
970.91	227.23
971.20	227.23
971.49	227.20
971.79	227.20
972.08	227.12
972.38	227.09
972.67	227.08
972.96	227.10
973.26	227.08
973.55	227.13
973.85	227.10
974.14	227.11
974.43	227.03
974.73	227.00
975.02	226.97
975.31	226.98
975.61	226.99
975.90	226.96
976.19	226.94
976.49	227.00
976.78	226.99
977.07	227.02
977.37	227.02
977.66	227.00
977.95	226.95
978.24	226.98
978.54	227.00
978.83	226.99
979.12	226.98
979.42	226.97
979.71	226.95
980.00	226.96
980.29	226.96
980.59	226.99
980.88	227.02
981.17	227.06
981.46	227.04
981.76	227.05
982.05	227.11
982.34	227.12
982.63	227.08
982.93	227.09
983.22	227.11
983.51	227.11
983.80	227.14
984.09	227.20
984.39	227.21
984.68	227.20
984.97	227.21
985.26	227.21
985.55	227.25
985.85	227.24
986.14	227.27
986.43	227.27
986.72	227.26
987.01	227.21
987.30	227.19
987.59	227.20
987.89	227.23
988.18	227.13
988.47	227.13
988.76	227.14
989.05	227.13
989.34	227.09
989.63	227.11
989.92	227.09
990.22	227.03
990.51	226.99
990.80	226.98
991.09	226.98
991.38	226.99
991.67	226.94
991.96	226.91
992.25	226.92
992.54	226.90
992.83	226.90
993.12	226.91
993.41	226.92
993.70	226.95
993.99	226.93
994.28	226.97
994.58	227.00
994.87	226.96
995.16	226.96
995.45	226.99
995.74	226.96
996.03	226.95
996.32	226.99
996.61	227.03
996.90	227.04
997.19	227.03
997.48	227.02
997.77	227.02
998.06	227.03
998.34	226.98
998.63	227.00
998.92	227.00
999.21	227.01
999.50	227.01
999.79	226.97
1000.08	226.99
1000.37	226.99
1000.66	226.98
1000.95	227.01
1001.24	227.03
1001.53	227.01
1001.82	227.01
1002.11	226.99
1002.40	227.01
1002.68	226.99
1002.97	227.06
1003.26	227.03
1003.55	227.02
1003.84	227.05
1004.13	227.10
1004.42	227.08
1004.71	227.08
1004.99	227.08
1005.28	227.10
1005.57	227.11
1005.86	227.10
1006.15	227.05
1006.44	227.01
1006.72	226.99
1007.01	226.94
1007.30	226.93
1007.59	226.92
1007.88	226.90
1008.17	226.94
1008.45	226.92
1008.74	226.91
1009.03	226.87
1009.32	226.92
1009.60	226.93
1009.89	226.91
1010.18	226.85
1010.47	226.90
1010.76	226.88
1011.04	226.88
1011.33	226.88
1011.62	226.91
1011.91	226.90
1012.19	226.90
1012.48	226.91
1012.77	226.93
1013.05	227.03
1013.34	227.08
1013.63	227.09
1013.92	227.08
1014.20	227.05
1014.49	227.06
1014.78	227.09
1015.06	227.02
1015.35	226.98
1015.64	227.01
1015.92	227.04
1016.21	227.07
1016.50	227.04
1016.78	227.07
1017.07	227.11
1017.36	227.12
1017.64	227.08
1017.93	227.09
1018.22	227.12
1018.50	227.16
1018.79	227.16
1019.08	227.10
1019.36	227.07
1019.65	227.06
1019.93	227.11
1020.22	227.12
1020.51	227.19
1020.79	227.17
1021.08	227.22
1021.36	227.23
1021.65	227.34
1021.94	227.02
1022.22	227.17
1022.51	226.89
1022.79	227.39
1023.08	227.10
1023.36	228.60
1023.65	226.83
>>>>>End Processed Spectral Data<<<<<
