SpectraSuite Data File
++++++++++++++++++++++++++++++++++++
Date: Fri Feb 01 16:24:16 EST 2013
User: group
Dark Spectrum Present: No
Reference Spectrum Present: No
Number of Sampled Component Spectra: 1
Spectrometers: USB2E7196
Integration Time (usec): 35000 (USB2E7196)
Spectra Averaged: 100 (USB2E7196)
Boxcar Smoothing: 10 (USB2E7196)
Correct for Electrical Dark: No (USB2E7196)
Strobe/Lamp Enabled: No (USB2E7196)
Correct for Detector Non-linearity: No (USB2E7196)
Correct for Stray Light: No (USB2E7196)
Number of Pixels in Processed Spectrum: 2048
>>>>>Begin Processed Spectral Data<<<<<
339.09	0.00
339.48	214.67
339.86	215.74
340.24	217.15
340.63	217.72
341.01	220.68
341.39	220.90
341.78	222.29
342.16	223.12
342.54	224.20
342.93	212.41
343.31	223.14
343.69	223.67
344.07	224.12
344.46	224.53
344.84	224.93
345.22	225.18
345.60	225.42
345.99	225.60
346.37	225.74
346.75	225.82
347.13	225.89
347.52	225.97
347.90	226.00
348.28	226.02
348.66	226.09
349.05	226.10
349.43	226.14
349.81	226.16
350.19	226.19
350.57	226.27
350.96	226.35
351.34	226.45
351.72	226.51
352.10	226.60
352.48	226.65
352.87	226.72
353.25	226.77
353.63	226.83
354.01	226.88
354.39	226.96
354.77	227.05
355.15	227.16
355.54	227.19
355.92	227.23
356.30	227.31
356.68	227.43
357.06	227.50
357.44	227.54
357.82	227.57
358.20	227.64
358.58	227.72
358.97	227.73
359.35	227.82
359.73	227.89
360.11	227.96
360.49	228.04
360.87	228.07
361.25	228.17
361.63	228.27
362.01	228.32
362.39	228.35
362.77	228.38
363.15	228.37
363.53	228.43
363.91	228.48
364.29	228.48
364.67	228.37
365.05	228.36
365.43	228.41
365.81	228.45
366.19	228.50
366.57	228.52
366.95	228.56
367.33	228.54
367.71	228.51
368.09	228.52
368.47	228.51
368.85	228.49
369.23	228.49
369.61	228.41
369.99	228.44
370.37	228.42
370.75	228.45
371.13	228.43
371.51	228.37
371.89	228.33
372.27	228.34
372.65	228.32
373.03	228.28
373.41	228.21
373.78	228.16
374.16	228.06
374.54	227.96
374.92	227.86
375.30	227.77
375.68	227.69
376.06	227.62
376.44	227.56
376.82	227.53
377.19	227.43
377.57	227.40
377.95	227.29
378.33	227.18
378.71	227.01
379.09	226.95
379.47	226.91
379.84	226.84
380.22	226.77
380.60	226.69
380.98	226.60
381.36	226.54
381.73	226.47
382.11	226.42
382.49	226.38
382.87	226.32
383.25	226.27
383.62	226.35
384.00	226.29
384.38	226.22
384.76	226.15
385.13	226.12
385.51	226.04
385.89	225.97
386.27	225.95
386.64	225.95
387.02	225.87
387.40	225.79
387.78	225.75
388.15	225.69
388.53	225.67
388.91	225.68
389.29	225.64
389.66	225.60
390.04	225.55
390.42	225.55
390.79	225.55
391.17	225.54
391.55	225.41
391.92	225.39
392.30	225.38
392.68	225.36
393.05	225.37
393.43	225.39
393.81	225.41
394.18	225.37
394.56	225.42
394.94	225.47
395.31	225.46
395.69	225.51
396.06	225.54
396.44	225.58
396.82	225.58
397.19	225.67
397.57	225.73
397.95	225.78
398.32	225.79
398.70	225.83
399.07	225.91
399.45	225.94
399.82	225.98
400.20	226.02
400.58	226.09
400.95	226.10
401.33	226.17
401.70	226.33
402.08	226.47
402.45	226.52
402.83	226.61
403.20	226.73
403.58	226.82
403.95	226.95
404.33	227.09
404.71	227.23
405.08	227.41
405.46	227.53
405.83	227.69
406.21	227.84
406.58	228.03
406.96	228.20
407.33	228.41
407.70	228.61
408.08	228.89
408.45	229.10
408.83	229.35
409.20	229.56
409.58	229.74
409.95	230.01
410.33	230.32
410.70	230.56
411.08	230.86
411.45	231.18
411.82	231.47
412.20	231.80
412.57	232.24
412.95	232.52
413.32	232.92
413.69	233.30
414.07	233.73
414.44	234.17
414.82	234.61
415.19	235.16
415.56	235.71
415.94	236.26
416.31	236.89
416.68	237.54
417.06	238.30
417.43	238.97
417.81	239.73
418.18	240.49
418.55	241.34
418.93	242.25
419.30	243.14
419.67	244.06
420.04	245.02
420.42	246.00
420.79	247.18
421.16	248.36
421.54	249.59
421.91	250.82
422.28	252.07
422.66	253.44
423.03	254.73
423.40	256.07
423.77	257.48
424.15	258.89
424.52	260.37
424.89	261.96
425.26	263.50
425.64	264.93
426.01	266.52
426.38	268.20
426.75	269.86
427.13	271.56
427.50	273.37
427.87	275.23
428.24	277.10
428.61	278.84
428.99	280.75
429.36	282.81
429.73	284.86
430.10	286.91
430.47	288.91
430.85	290.99
431.22	293.23
431.59	295.62
431.96	297.89
432.33	300.34
432.70	302.71
433.08	305.48
433.45	308.11
433.82	310.75
434.19	313.60
434.56	316.37
434.93	319.00
435.30	321.65
435.68	324.53
436.05	327.31
436.42	330.09
436.79	332.59
437.16	335.26
437.53	338.05
437.90	340.83
438.27	343.60
438.64	346.43
439.01	349.00
439.38	351.18
439.75	353.33
440.13	355.80
440.50	358.13
440.87	359.98
441.24	361.89
441.61	363.96
441.98	365.43
442.35	367.23
442.72	369.09
443.09	370.88
443.46	371.83
443.83	372.43
444.20	372.91
444.57	373.73
444.94	374.03
445.31	374.36
445.68	374.74
446.05	374.77
446.42	374.44
446.79	374.02
447.16	373.60
447.53	373.26
447.90	372.09
448.27	370.90
448.64	369.33
449.01	368.24
449.37	366.32
449.74	364.41
450.11	362.16
450.48	359.71
450.85	357.15
451.22	355.08
451.59	353.08
451.96	351.16
452.33	348.58
452.70	346.24
453.07	343.48
453.43	340.55
453.80	337.87
454.17	335.18
454.54	332.66
454.91	329.93
455.28	327.31
455.65	324.86
456.02	322.44
456.38	320.31
456.75	317.64
457.12	315.42
457.49	313.20
457.86	311.04
458.23	309.18
458.59	307.18
458.96	305.10
459.33	303.21
459.70	301.39
460.07	299.91
460.43	298.21
460.80	296.57
461.17	295.17
461.54	293.65
461.91	292.25
462.27	290.82
462.64	289.60
463.01	288.25
463.38	286.99
463.74	285.64
464.11	284.47
464.48	283.43
464.85	282.34
465.21	281.54
465.58	280.67
465.95	279.58
466.32	278.64
466.68	277.74
467.05	276.88
467.42	275.99
467.78	275.06
468.15	274.23
468.52	273.56
468.88	272.72
469.25	271.93
469.62	271.29
469.98	270.61
470.35	269.98
470.72	269.38
471.08	268.72
471.45	268.21
471.82	267.67
472.18	267.08
472.55	266.63
472.92	266.08
473.28	265.59
473.65	265.17
474.02	264.77
474.38	264.41
474.75	264.08
475.11	263.73
475.48	263.49
475.85	263.22
476.21	263.04
476.58	262.86
476.94	262.74
477.31	262.57
477.67	262.42
478.04	262.32
478.41	262.28
478.77	262.30
479.14	262.22
479.50	262.22
479.87	262.32
480.23	262.41
480.60	262.50
480.96	262.60
481.33	262.80
481.69	262.98
482.06	263.17
482.42	263.35
482.79	263.64
483.15	263.90
483.52	264.32
483.88	264.64
484.25	265.01
484.61	265.42
484.98	265.86
485.34	266.44
485.71	267.03
486.07	267.59
486.44	268.17
486.80	268.88
487.17	269.65
487.53	270.42
487.90	271.29
488.26	272.22
488.62	273.21
488.99	274.21
489.35	275.29
489.72	276.41
490.08	277.65
490.44	278.87
490.81	280.24
491.17	281.54
491.54	283.01
491.90	284.60
492.26	286.28
492.63	288.06
492.99	289.83
493.36	291.72
493.72	293.82
494.08	295.94
494.45	298.19
494.81	300.50
495.17	302.94
495.54	305.54
495.90	308.24
496.26	311.10
496.63	314.04
496.99	317.17
497.35	320.49
497.72	323.94
498.08	327.45
498.44	331.14
498.80	335.10
499.17	339.16
499.53	343.35
499.89	347.70
500.26	352.24
500.62	356.92
500.98	361.92
501.34	366.99
501.71	372.32
502.07	377.77
502.43	383.43
502.79	389.29
503.16	395.32
503.52	401.64
503.88	408.03
504.24	414.67
504.60	421.57
504.97	428.70
505.33	436.00
505.69	443.74
506.05	451.54
506.41	459.40
506.78	467.58
507.14	475.97
507.50	484.76
507.86	493.76
508.22	502.99
508.59	512.17
508.95	521.70
509.31	531.50
509.67	541.63
510.03	551.93
510.39	562.54
510.75	573.26
511.12	584.09
511.48	595.35
511.84	606.82
512.20	618.40
512.56	630.39
512.92	642.52
513.28	654.85
513.64	667.26
514.00	679.95
514.37	692.85
514.73	705.95
515.09	718.91
515.45	732.15
515.81	745.68
516.17	759.68
516.53	773.80
516.89	787.95
517.25	802.08
517.61	816.50
517.97	830.86
518.33	845.32
518.69	860.21
519.05	875.21
519.41	890.36
519.77	905.80
520.13	921.04
520.49	936.45
520.85	951.81
521.21	967.55
521.57	983.76
521.93	999.52
522.29	1015.77
522.65	1031.96
523.01	1048.11
523.37	1064.09
523.73	1080.14
524.09	1096.11
524.45	1112.41
524.81	1128.92
525.17	1145.59
525.53	1162.43
525.89	1179.24
526.25	1195.86
526.61	1212.14
526.97	1228.75
527.33	1245.12
527.68	1261.76
528.04	1278.16
528.40	1294.62
528.76	1311.57
529.12	1328.06
529.48	1344.86
529.84	1360.83
530.20	1377.29
530.56	1394.24
530.91	1411.63
531.27	1428.33
531.63	1444.79
531.99	1461.24
532.35	1477.24
532.71	1493.02
533.07	1509.29
533.42	1525.04
533.78	1541.03
534.14	1557.19
534.50	1572.49
534.86	1588.17
535.21	1603.24
535.57	1618.98
535.93	1634.38
536.29	1649.16
536.65	1664.12
537.00	1678.76
537.36	1694.05
537.72	1708.56
538.08	1722.89
538.44	1736.62
538.79	1750.39
539.15	1763.96
539.51	1777.55
539.87	1791.78
540.22	1805.47
540.58	1818.94
540.94	1832.27
541.29	1845.18
541.65	1857.87
542.01	1870.97
542.37	1883.33
542.72	1895.63
543.08	1907.33
543.44	1919.72
543.79	1930.94
544.15	1941.87
544.51	1953.54
544.87	1964.34
545.22	1975.20
545.58	1985.36
545.94	1994.99
546.29	2004.81
546.65	2014.75
547.01	2024.06
547.36	2032.79
547.72	2041.20
548.07	2049.10
548.43	2057.18
548.79	2065.08
549.14	2072.47
549.50	2079.62
549.86	2087.14
550.21	2094.51
550.57	2101.67
550.92	2108.15
551.28	2114.96
551.64	2122.10
551.99	2128.42
552.35	2134.54
552.70	2140.48
553.06	2146.43
553.41	2152.76
553.77	2158.81
554.13	2164.90
554.48	2171.09
554.84	2176.50
555.19	2181.72
555.55	2186.78
555.90	2191.26
556.26	2196.05
556.61	2200.76
556.97	2205.15
557.32	2209.36
557.68	2213.36
558.03	2217.76
558.39	2221.54
558.74	2226.21
559.10	2230.00
559.45	2233.71
559.81	2237.98
560.16	2242.06
560.52	2245.30
560.87	2248.64
561.23	2251.19
561.58	2254.01
561.94	2256.43
562.29	2258.70
562.64	2261.44
563.00	2263.99
563.35	2267.58
563.71	2270.83
564.06	2274.10
564.42	2276.97
564.77	2279.32
565.12	2281.60
565.48	2283.50
565.83	2285.46
566.19	2286.83
566.54	2287.69
566.89	2288.83
567.25	2289.48
567.60	2290.66
567.96	2292.36
568.31	2293.33
568.66	2294.66
569.02	2295.27
569.37	2295.59
569.72	2296.65
570.08	2296.78
570.43	2297.08
570.78	2296.38
571.14	2294.83
571.49	2293.52
571.84	2293.31
572.20	2292.35
572.55	2291.30
572.90	2289.67
573.26	2288.25
573.61	2286.67
573.96	2285.04
574.31	2282.21
574.67	2279.30
575.02	2275.77
575.37	2272.49
575.72	2268.74
576.08	2265.37
576.43	2261.96
576.78	2258.26
577.13	2255.09
577.49	2252.18
577.84	2248.72
578.19	2245.31
578.54	2241.78
578.90	2237.64
579.25	2232.24
579.60	2227.37
579.95	2222.60
580.30	2217.71
580.66	2212.61
581.01	2207.65
581.36	2202.76
581.71	2198.60
582.06	2194.16
582.42	2189.78
582.77	2184.52
583.12	2180.05
583.47	2175.40
583.82	2170.53
584.17	2165.49
584.53	2159.96
584.88	2154.27
585.23	2148.55
585.58	2143.09
585.93	2137.69
586.28	2132.87
586.63	2127.77
586.98	2122.89
587.34	2118.14
587.69	2113.23
588.04	2108.06
588.39	2102.44
588.74	2096.09
589.09	2089.96
589.44	2083.43
589.79	2077.45
590.14	2071.97
590.49	2065.42
590.84	2059.05
591.19	2052.99
591.54	2046.62
591.89	2039.34
592.25	2032.66
592.60	2025.54
592.95	2017.97
593.30	2010.73
593.65	2003.21
594.00	1996.22
594.35	1988.90
594.70	1980.91
595.05	1973.81
595.40	1966.52
595.75	1959.07
596.10	1952.93
596.45	1946.20
596.80	1939.97
597.15	1933.38
597.50	1926.28
597.85	1919.71
598.19	1913.11
598.54	1906.19
598.89	1899.52
599.24	1893.71
599.59	1886.98
599.94	1880.79
600.29	1874.41
600.64	1867.85
600.99	1860.56
601.34	1853.72
601.69	1846.80
602.04	1840.06
602.39	1832.84
602.74	1826.06
603.08	1819.23
603.43	1812.55
603.78	1805.29
604.13	1797.99
604.48	1790.63
604.83	1783.87
605.18	1777.09
605.53	1769.11
605.87	1761.07
606.22	1753.87
606.57	1745.86
606.92	1738.57
607.27	1731.39
607.62	1724.56
607.96	1717.27
608.31	1710.73
608.66	1703.11
609.01	1695.72
609.36	1688.15
609.70	1680.08
610.05	1672.01
610.40	1664.44
610.75	1655.91
611.10	1648.28
611.44	1639.98
611.79	1632.15
612.14	1623.31
612.49	1614.09
612.83	1605.85
613.18	1597.75
613.53	1589.55
613.88	1581.11
614.22	1572.86
614.57	1564.28
614.92	1556.11
615.27	1548.51
615.61	1540.14
615.96	1532.17
616.31	1524.36
616.65	1517.07
617.00	1509.40
617.35	1501.70
617.70	1493.37
618.04	1485.04
618.39	1476.80
618.74	1469.02
619.08	1460.66
619.43	1453.13
619.78	1446.23
620.12	1438.95
620.47	1431.53
620.82	1423.49
621.16	1416.13
621.51	1408.58
621.85	1400.79
622.20	1392.35
622.55	1383.99
622.89	1376.06
623.24	1368.38
623.59	1361.10
623.93	1353.49
624.28	1346.33
624.62	1338.84
624.97	1331.75
625.32	1324.84
625.66	1317.85
626.01	1310.77
626.35	1303.23
626.70	1295.47
627.04	1287.73
627.39	1279.94
627.73	1272.37
628.08	1265.44
628.43	1258.03
628.77	1250.51
629.12	1243.08
629.46	1236.04
629.81	1228.63
630.15	1221.40
630.50	1214.04
630.84	1205.72
631.19	1197.85
631.53	1190.30
631.88	1182.78
632.22	1175.10
632.57	1167.85
632.91	1160.22
633.26	1152.80
633.60	1145.51
633.95	1138.52
634.29	1131.47
634.64	1124.86
634.98	1117.50
635.32	1110.28
635.67	1103.65
636.01	1097.17
636.36	1090.33
636.70	1083.64
637.05	1076.98
637.39	1070.58
637.73	1064.03
638.08	1058.15
638.42	1052.12
638.77	1045.73
639.11	1039.09
639.45	1032.66
639.80	1025.95
640.14	1019.59
640.49	1013.12
640.83	1006.76
641.17	1000.47
641.52	994.14
641.86	987.61
642.20	981.84
642.55	975.56
642.89	969.14
643.23	962.52
643.58	956.70
643.92	950.56
644.26	944.50
644.61	938.40
644.95	932.34
645.29	925.73
645.64	919.03
645.98	912.59
646.32	906.77
646.66	900.72
647.01	895.01
647.35	889.27
647.69	883.37
648.04	877.81
648.38	871.98
648.72	866.03
649.06	859.89
649.41	853.99
649.75	847.97
650.09	842.01
650.43	836.20
650.78	830.10
651.12	824.17
651.46	818.49
651.80	812.69
652.14	807.31
652.49	802.04
652.83	796.75
653.17	791.11
653.51	785.39
653.85	780.01
654.20	774.36
654.54	768.27
654.88	762.55
655.22	756.74
655.56	751.16
655.90	745.65
656.25	740.54
656.59	735.18
656.93	730.14
657.27	724.99
657.61	719.67
657.95	714.62
658.29	709.51
658.64	704.25
658.98	698.97
659.32	693.56
659.66	688.28
660.00	682.99
660.34	678.04
660.68	673.10
661.02	668.07
661.36	663.33
661.70	658.84
662.05	654.47
662.39	650.09
662.73	645.54
663.07	641.19
663.41	636.71
663.75	632.20
664.09	627.57
664.43	623.16
664.77	619.00
665.11	614.69
665.45	610.56
665.79	606.48
666.13	602.37
666.47	598.26
666.81	594.08
667.15	589.94
667.49	586.04
667.83	582.22
668.17	578.23
668.51	574.19
668.85	570.24
669.19	566.44
669.53	562.58
669.87	558.68
670.21	554.97
670.55	551.25
670.89	547.82
671.23	544.40
671.57	540.85
671.91	537.26
672.25	533.77
672.58	530.25
672.92	526.85
673.26	523.67
673.60	520.49
673.94	517.40
674.28	514.49
674.62	511.53
674.96	508.43
675.30	505.62
675.64	502.65
675.97	499.83
676.31	496.89
676.65	493.90
676.99	491.19
677.33	488.40
677.67	485.62
678.01	482.61
678.34	479.68
678.68	476.89
679.02	474.09
679.36	471.32
679.70	468.57
680.04	465.86
680.37	463.00
680.71	460.23
681.05	457.60
681.39	454.90
681.73	452.25
682.06	449.75
682.40	447.12
682.74	444.61
683.08	442.07
683.42	439.55
683.75	437.12
684.09	434.55
684.43	432.03
684.77	429.58
685.10	427.21
685.44	424.88
685.78	422.52
686.12	420.22
686.45	417.90
686.79	415.55
687.13	413.30
687.46	411.13
687.80	408.95
688.14	406.74
688.48	404.68
688.81	402.47
689.15	400.31
689.49	398.17
689.82	396.08
690.16	394.03
690.50	392.04
690.83	390.10
691.17	388.13
691.51	386.18
691.84	384.29
692.18	382.37
692.52	380.35
692.85	378.39
693.19	376.52
693.52	374.72
693.86	372.96
694.20	371.14
694.53	369.34
694.87	367.47
695.21	365.68
695.54	363.84
695.88	362.08
696.21	360.29
696.55	358.60
696.88	356.91
697.22	355.20
697.56	353.60
697.89	351.94
698.23	350.30
698.56	348.68
698.90	347.11
699.23	345.41
699.57	343.90
699.90	342.37
700.24	340.78
700.58	339.25
700.91	337.72
701.25	336.31
701.58	334.94
701.92	333.58
702.25	332.22
702.59	330.84
702.92	329.53
703.26	328.23
703.59	326.96
703.93	325.78
704.26	324.54
704.60	323.23
704.93	321.95
705.26	320.77
705.60	319.59
705.93	318.43
706.27	317.42
706.60	316.39
706.94	315.34
707.27	314.26
707.61	313.22
707.94	312.22
708.27	311.08
708.61	309.98
708.94	308.97
709.28	308.00
709.61	307.07
709.94	306.13
710.28	305.13
710.61	304.19
710.95	303.10
711.28	302.21
711.61	301.23
711.95	300.34
712.28	299.37
712.61	298.43
712.95	297.50
713.28	296.59
713.61	295.66
713.95	294.77
714.28	293.94
714.61	293.03
714.95	292.21
715.28	291.41
715.61	290.57
715.95	289.72
716.28	288.83
716.61	287.99
716.95	287.20
717.28	286.45
717.61	285.64
717.94	284.96
718.28	284.09
718.61	283.39
718.94	282.69
719.27	282.04
719.61	281.37
719.94	280.69
720.27	280.02
720.60	279.34
720.94	278.72
721.27	278.12
721.60	277.56
721.93	276.96
722.27	276.40
722.60	275.84
722.93	275.27
723.26	274.77
723.59	274.21
723.93	273.62
724.26	273.08
724.59	272.50
724.92	271.92
725.25	271.48
725.59	270.94
725.92	270.41
726.25	269.86
726.58	269.34
726.91	268.84
727.24	268.38
727.57	267.91
727.91	267.40
728.24	266.94
728.57	266.42
728.90	265.95
729.23	265.44
729.56	264.99
729.89	264.51
730.22	264.02
730.55	263.55
730.89	263.10
731.22	262.65
731.55	262.24
731.88	261.85
732.21	261.40
732.54	260.99
732.87	260.53
733.20	260.19
733.53	259.83
733.86	259.50
734.19	259.06
734.52	258.70
734.85	258.35
735.18	257.93
735.51	257.60
735.84	257.22
736.17	256.89
736.50	256.49
736.83	256.30
737.16	255.96
737.49	255.61
737.82	255.26
738.15	254.90
738.48	254.57
738.81	254.22
739.14	253.89
739.47	253.57
739.80	253.27
740.13	252.91
740.46	252.58
740.79	252.21
741.12	251.92
741.45	251.59
741.78	251.26
742.11	250.96
742.44	250.63
742.77	250.36
743.10	250.06
743.43	249.77
743.75	249.34
744.08	249.21
744.41	248.95
744.74	248.72
745.07	248.46
745.40	248.22
745.73	248.00
746.06	247.73
746.39	247.47
746.71	247.24
747.04	246.98
747.37	246.73
747.70	246.50
748.03	246.25
748.36	246.03
748.68	245.80
749.01	245.56
749.34	245.37
749.67	245.17
750.00	244.94
750.33	244.79
750.65	244.59
750.98	244.23
751.31	244.02
751.64	243.79
751.97	243.66
752.29	243.41
752.62	243.13
752.95	242.92
753.28	242.72
753.60	242.50
753.93	242.33
754.26	242.13
754.59	241.91
754.91	241.69
755.24	241.49
755.57	241.28
755.90	241.08
756.22	240.85
756.55	240.64
756.88	240.41
757.20	240.18
757.53	240.00
757.86	239.85
758.19	239.68
758.51	239.53
758.84	239.31
759.17	239.14
759.49	239.00
759.82	238.92
760.15	238.77
760.47	238.61
760.80	238.44
761.13	238.28
761.45	238.12
761.78	237.97
762.11	237.82
762.43	237.68
762.76	237.56
763.08	237.42
763.41	237.29
763.74	237.18
764.06	237.01
764.39	236.85
764.71	236.70
765.04	236.55
765.37	236.37
765.69	236.23
766.02	236.10
766.34	235.96
766.67	235.74
767.00	235.61
767.32	235.56
767.65	235.49
767.97	235.36
768.30	235.26
768.62	235.15
768.95	235.02
769.27	234.91
769.60	234.80
769.92	234.70
770.25	234.56
770.57	234.46
770.90	234.38
771.22	234.27
771.55	234.14
771.87	234.06
772.20	233.97
772.52	233.96
772.85	233.99
773.17	233.88
773.50	233.82
773.82	233.78
774.15	233.62
774.47	233.49
774.80	233.40
775.12	233.34
775.45	233.27
775.77	233.21
776.09	233.15
776.42	233.08
776.74	233.02
777.07	232.95
777.39	232.87
777.72	232.81
778.04	232.77
778.36	232.71
778.69	232.65
779.01	232.62
779.33	232.48
779.66	232.29
779.98	232.22
780.31	232.19
780.63	232.10
780.95	232.07
781.28	231.99
781.60	231.93
781.92	231.89
782.25	231.83
782.57	231.77
782.89	231.71
783.22	231.66
783.54	231.58
783.86	231.54
784.19	231.49
784.51	231.44
784.83	231.38
785.16	231.33
785.48	231.31
785.80	231.24
786.12	231.19
786.45	231.13
786.77	231.12
787.09	231.02
787.42	230.97
787.74	230.91
788.06	230.88
788.38	230.86
788.71	230.78
789.03	230.70
789.35	230.70
789.67	230.68
789.99	230.63
790.32	230.58
790.64	230.55
790.96	230.58
791.28	230.54
791.61	230.49
791.93	230.44
792.25	230.36
792.57	230.40
792.89	230.34
793.21	230.32
793.54	230.26
793.86	230.19
794.18	230.14
794.50	230.09
794.82	230.06
795.14	229.99
795.47	230.01
795.79	229.99
796.11	229.89
796.43	229.81
796.75	229.76
797.07	229.72
797.39	229.71
797.71	229.61
798.04	229.57
798.36	229.57
798.68	229.58
799.00	229.55
799.32	229.47
799.64	229.46
799.96	229.42
800.28	229.42
800.60	229.40
800.92	229.38
801.24	229.34
801.56	229.31
801.89	229.29
802.21	229.24
802.53	229.22
802.85	229.23
803.17	229.27
803.49	229.23
803.81	229.21
804.13	229.14
804.45	229.08
804.77	229.03
805.09	229.00
805.41	228.94
805.73	228.88
806.05	228.82
806.37	228.76
806.69	228.73
807.01	228.66
807.33	228.66
807.65	228.61
807.97	228.62
808.28	228.60
808.60	228.56
808.92	228.49
809.24	228.52
809.56	228.47
809.88	228.41
810.20	228.37
810.52	228.36
810.84	228.31
811.16	228.28
811.48	228.26
811.80	228.25
812.12	228.21
812.43	228.23
812.75	228.19
813.07	228.20
813.39	228.18
813.71	228.14
814.03	228.11
814.35	228.10
814.67	228.05
814.98	228.00
815.30	227.98
815.62	227.96
815.94	227.86
816.26	227.88
816.58	227.85
816.89	227.89
817.21	227.83
817.53	227.82
817.85	227.79
818.17	227.77
818.48	227.71
818.80	227.71
819.12	227.68
819.44	227.66
819.76	227.62
820.07	227.58
820.39	227.60
820.71	227.59
821.03	227.55
821.34	227.51
821.66	227.50
821.98	227.50
822.30	227.49
822.61	227.54
822.93	227.45
823.25	227.40
823.57	227.33
823.88	227.34
824.20	227.33
824.52	227.33
824.83	227.32
825.15	227.30
825.47	227.29
825.79	227.27
826.10	227.28
826.42	227.26
826.74	227.26
827.05	227.25
827.37	227.24
827.69	227.25
828.00	227.29
828.32	227.30
828.64	227.28
828.95	227.31
829.27	227.28
829.58	227.31
829.90	227.33
830.22	227.35
830.53	227.33
830.85	227.30
831.17	227.29
831.48	227.27
831.80	227.24
832.11	227.23
832.43	227.19
832.75	227.18
833.06	227.25
833.38	227.26
833.69	227.25
834.01	227.26
834.32	227.24
834.64	227.19
834.96	227.18
835.27	227.14
835.59	227.10
835.90	227.08
836.22	227.05
836.53	227.02
836.85	226.96
837.16	227.05
837.48	227.07
837.79	227.09
838.11	227.11
838.42	227.15
838.74	227.19
839.05	227.22
839.37	227.15
839.68	227.08
840.00	227.02
840.31	227.02
840.63	226.99
840.94	226.98
841.26	226.98
841.57	226.95
841.88	226.97
842.20	226.96
842.51	226.93
842.83	226.93
843.14	227.03
843.46	227.06
843.77	226.97
844.08	226.97
844.40	226.91
844.71	226.89
845.03	226.83
845.34	226.77
845.65	226.75
845.97	226.81
846.28	226.81
846.60	226.85
846.91	226.79
847.22	226.79
847.54	226.78
847.85	226.79
848.16	226.80
848.48	226.77
848.79	226.82
849.10	226.82
849.42	226.80
849.73	226.70
850.04	226.69
850.36	226.67
850.67	226.64
850.98	226.66
851.30	226.67
851.61	226.66
851.92	226.64
852.23	226.66
852.55	226.65
852.86	226.63
853.17	226.63
853.49	226.64
853.80	226.68
854.11	226.70
854.42	226.69
854.74	226.65
855.05	226.66
855.36	226.61
855.67	226.62
855.99	226.66
856.30	226.79
856.61	226.80
856.92	226.80
857.23	226.81
857.55	226.79
857.86	226.77
858.17	226.80
858.48	226.81
858.79	226.79
859.11	226.81
859.42	226.83
859.73	226.79
860.04	226.84
860.35	226.80
860.66	226.77
860.98	226.76
861.29	226.76
861.60	226.76
861.91	226.77
862.22	226.76
862.53	226.68
862.84	226.53
863.16	226.52
863.47	226.53
863.78	226.53
864.09	226.53
864.40	226.55
864.71	226.55
865.02	226.54
865.33	226.51
865.64	226.47
865.95	226.45
866.27	226.54
866.58	226.50
866.89	226.53
867.20	226.52
867.51	226.52
867.82	226.57
868.13	226.57
868.44	226.52
868.75	226.53
869.06	226.57
869.37	226.57
869.68	226.53
869.99	226.53
870.30	226.56
870.61	226.58
870.92	226.55
871.23	226.52
871.54	226.56
871.85	226.59
872.16	226.59
872.47	226.59
872.78	226.51
873.09	226.51
873.40	226.49
873.71	226.50
874.02	226.50
874.33	226.45
874.64	226.44
874.95	226.47
875.26	226.46
875.56	226.46
875.87	226.47
876.18	226.45
876.49	226.54
876.80	226.50
877.11	226.48
877.42	226.48
877.73	226.52
878.04	226.48
878.35	226.47
878.66	226.50
878.96	226.46
879.27	226.46
879.58	226.44
879.89	226.43
880.20	226.45
880.51	226.44
880.82	226.42
881.12	226.44
881.43	226.41
881.74	226.37
882.05	226.37
882.36	226.39
882.67	226.46
882.97	226.35
883.28	226.34
883.59	226.28
883.90	226.28
884.21	226.30
884.51	226.29
884.82	226.28
885.13	226.26
885.44	226.29
885.74	226.28
886.05	226.27
886.36	226.24
886.67	226.21
886.98	226.22
887.28	226.22
887.59	226.23
887.90	226.25
888.20	226.27
888.51	226.28
888.82	226.27
889.13	226.26
889.43	226.33
889.74	226.33
890.05	226.34
890.35	226.33
890.66	226.28
890.97	226.28
891.28	226.23
891.58	226.24
891.89	226.25
892.20	226.23
892.50	226.21
892.81	226.23
893.12	226.22
893.42	226.22
893.73	226.25
894.04	226.27
894.34	226.26
894.65	226.25
894.95	226.24
895.26	226.23
895.57	226.26
895.87	226.15
896.18	226.20
896.48	226.22
896.79	226.24
897.10	226.26
897.40	226.28
897.71	226.33
898.01	226.32
898.32	226.31
898.63	226.33
898.93	226.33
899.24	226.32
899.54	226.32
899.85	226.31
900.15	226.28
900.46	226.25
900.76	226.23
901.07	226.24
901.38	226.25
901.68	226.28
901.99	226.24
902.29	226.27
902.60	226.23
902.90	226.21
903.21	226.18
903.51	226.15
903.82	226.16
904.12	226.15
904.43	226.16
904.73	226.12
905.03	226.11
905.34	226.25
905.64	226.25
905.95	226.22
906.25	226.21
906.56	226.23
906.86	226.22
907.17	226.20
907.47	226.17
907.77	226.13
908.08	226.10
908.38	226.07
908.69	226.03
908.99	226.04
909.30	226.06
909.60	226.08
909.90	226.08
910.21	226.05
910.51	226.03
910.81	226.04
911.12	226.06
911.42	226.03
911.73	225.92
912.03	225.92
912.33	225.97
912.64	225.98
912.94	225.98
913.24	225.95
913.55	225.98
913.85	226.01
914.15	226.01
914.46	226.04
914.76	226.03
915.06	226.07
915.37	226.05
915.67	226.03
915.97	226.03
916.27	226.05
916.58	226.04
916.88	226.05
917.18	226.02
917.49	226.07
917.79	226.10
918.09	226.08
918.39	226.12
918.70	226.10
919.00	226.11
919.30	226.12
919.60	226.15
919.91	226.13
920.21	226.10
920.51	226.08
920.81	226.06
921.12	226.08
921.42	226.07
921.72	226.07
922.02	226.08
922.32	226.07
922.63	226.07
922.93	226.12
923.23	226.11
923.53	226.13
923.83	226.05
924.13	226.08
924.44	226.08
924.74	226.08
925.04	226.08
925.34	226.06
925.64	226.03
925.94	226.02
926.24	226.12
926.55	226.12
926.85	226.12
927.15	226.14
927.45	226.16
927.75	226.17
928.05	226.17
928.35	226.17
928.65	226.20
928.95	226.17
929.26	226.16
929.56	226.18
929.86	226.18
930.16	226.23
930.46	226.22
930.76	226.24
931.06	226.19
931.36	226.15
931.66	226.18
931.96	226.17
932.26	226.19
932.56	226.14
932.86	226.15
933.16	226.18
933.46	226.16
933.76	226.14
934.06	226.14
934.36	226.21
934.66	226.20
934.96	226.20
935.26	226.22
935.56	226.24
935.86	226.23
936.16	226.20
936.46	226.14
936.76	226.14
937.06	226.09
937.36	226.10
937.66	226.15
937.96	226.17
938.26	226.18
938.56	226.19
938.86	226.20
939.16	226.18
939.46	226.21
939.76	226.24
940.06	226.24
940.35	226.22
940.65	226.12
940.95	226.15
941.25	226.12
941.55	226.08
941.85	226.06
942.15	226.05
942.45	226.09
942.75	226.15
943.04	226.15
943.34	226.23
943.64	226.22
943.94	226.19
944.24	226.15
944.54	226.13
944.84	226.10
945.13	226.05
945.43	226.08
945.73	226.05
946.03	226.02
946.33	226.00
946.62	226.00
946.92	226.01
947.22	225.97
947.52	225.99
947.82	226.02
948.11	226.00
948.41	226.03
948.71	225.98
949.01	225.93
949.31	225.93
949.60	225.88
949.90	225.88
950.20	225.84
950.50	225.83
950.79	225.82
951.09	225.82
951.39	225.82
951.69	225.80
951.98	225.83
952.28	225.82
952.58	225.83
952.87	225.83
953.17	225.84
953.47	225.84
953.76	225.82
954.06	225.80
954.36	225.79
954.66	225.79
954.95	225.81
955.25	225.84
955.55	225.86
955.84	225.86
956.14	225.89
956.44	225.91
956.73	225.91
957.03	225.91
957.32	225.92
957.62	225.95
957.92	225.97
958.21	225.92
958.51	226.03
958.81	226.05
959.10	226.03
959.40	226.07
959.69	226.08
959.99	226.06
960.29	226.06
960.58	226.07
960.88	226.07
961.17	226.08
961.47	226.07
961.76	226.03
962.06	226.05
962.36	226.05
962.65	226.08
962.95	226.09
963.24	226.12
963.54	226.13
963.83	226.13
964.13	226.12
964.42	226.12
964.72	226.03
965.01	226.02
965.31	226.07
965.60	226.04
965.90	226.09
966.19	226.13
966.49	226.14
966.78	226.13
967.08	226.15
967.37	226.13
967.67	226.10
967.96	226.15
968.26	226.12
968.55	226.14
968.85	226.11
969.14	226.07
969.43	226.07
969.73	226.08
970.02	226.07
970.32	226.08
970.61	226.06
970.91	226.07
971.20	226.05
971.49	226.03
971.79	226.05
972.08	226.00
972.38	226.00
972.67	225.98
972.96	226.01
973.26	225.98
973.55	226.03
973.85	226.02
974.14	225.98
974.43	226.02
974.73	226.00
975.02	226.01
975.31	226.04
975.61	226.05
975.90	226.02
976.19	225.98
976.49	225.98
976.78	226.00
977.07	225.97
977.37	226.00
977.66	226.01
977.95	225.99
978.24	226.02
978.54	226.02
978.83	226.03
979.12	226.02
979.42	226.00
979.71	225.96
980.00	225.98
980.29	226.00
980.59	225.97
980.88	225.98
981.17	225.94
981.46	225.98
981.76	225.94
982.05	225.97
982.34	226.02
982.63	225.99
982.93	225.99
983.22	226.03
983.51	226.01
983.80	226.02
984.09	226.06
984.39	226.00
984.68	225.99
984.97	225.98
985.26	225.95
985.55	225.96
985.85	225.98
986.14	225.99
986.43	226.02
986.72	226.01
987.01	225.96
987.30	225.96
987.59	225.92
987.89	225.93
988.18	225.88
988.47	225.85
988.76	225.89
989.05	225.89
989.34	225.83
989.63	225.87
989.92	225.83
990.22	225.78
990.51	225.81
990.80	225.80
991.09	225.78
991.38	225.80
991.67	225.80
991.96	225.76
992.25	225.75
992.54	225.72
992.83	225.71
993.12	225.74
993.41	225.79
993.70	225.81
993.99	225.81
994.28	225.84
994.58	225.85
994.87	225.81
995.16	225.81
995.45	225.86
995.74	225.77
996.03	225.82
996.32	225.85
996.61	225.86
996.90	225.84
997.19	225.89
997.48	225.90
997.77	225.94
998.06	225.97
998.34	225.99
998.63	226.00
998.92	226.01
999.21	226.01
999.50	226.00
999.79	225.98
1000.08	225.99
1000.37	226.01
1000.66	226.03
1000.95	226.04
1001.24	226.06
1001.53	226.04
1001.82	226.08
1002.11	226.05
1002.40	226.06
1002.68	226.08
1002.97	226.15
1003.26	226.13
1003.55	226.13
1003.84	226.10
1004.13	226.11
1004.42	226.10
1004.71	226.11
1004.99	226.09
1005.28	226.12
1005.57	226.12
1005.86	226.11
1006.15	226.11
1006.44	226.07
1006.72	226.08
1007.01	226.06
1007.30	226.04
1007.59	226.03
1007.88	226.04
1008.17	226.07
1008.45	226.06
1008.74	226.03
1009.03	225.97
1009.32	226.00
1009.60	225.96
1009.89	225.97
1010.18	225.92
1010.47	225.91
1010.76	225.88
1011.04	225.87
1011.33	225.84
1011.62	225.87
1011.91	225.90
1012.19	225.92
1012.48	225.92
1012.77	225.92
1013.05	225.99
1013.34	226.00
1013.63	226.01
1013.92	226.00
1014.20	225.97
1014.49	225.98
1014.78	225.98
1015.06	225.96
1015.35	225.94
1015.64	225.93
1015.92	225.92
1016.21	225.92
1016.50	225.90
1016.78	225.94
1017.07	225.98
1017.36	225.96
1017.64	225.94
1017.93	225.93
1018.22	225.87
1018.50	225.88
1018.79	225.87
1019.08	225.82
1019.36	225.82
1019.65	225.81
1019.93	225.84
1020.22	225.86
1020.51	225.90
1020.79	225.88
1021.08	225.31
1021.36	225.95
1021.65	225.69
1021.94	225.73
1022.22	226.15
1022.51	226.00
1022.79	226.39
1023.08	226.16
1023.36	227.22
1023.65	225.28
>>>>>End Processed Spectral Data<<<<<
