SpectraSuite Data File
++++++++++++++++++++++++++++++++++++
Date: Fri Feb 01 15:05:12 EST 2013
User: group
Dark Spectrum Present: No
Reference Spectrum Present: No
Number of Sampled Component Spectra: 1
Spectrometers: USB2E7196
Integration Time (usec): 35000 (USB2E7196)
Spectra Averaged: 100 (USB2E7196)
Boxcar Smoothing: 10 (USB2E7196)
Correct for Electrical Dark: No (USB2E7196)
Strobe/Lamp Enabled: No (USB2E7196)
Correct for Detector Non-linearity: No (USB2E7196)
Correct for Stray Light: No (USB2E7196)
Number of Pixels in Processed Spectrum: 2048
>>>>>Begin Processed Spectral Data<<<<<
339.09	0.00
339.48	214.73
339.86	216.80
340.24	218.00
340.63	219.00
341.01	222.66
341.39	221.98
341.78	223.83
342.16	224.69
342.54	224.82
342.93	213.41
343.31	224.20
343.69	224.75
344.07	225.20
344.46	225.62
344.84	226.01
345.22	226.24
345.60	226.50
345.99	226.66
346.37	226.79
346.75	226.93
347.13	226.99
347.52	227.03
347.90	227.10
348.28	227.12
348.66	227.15
349.05	227.17
349.43	227.23
349.81	227.26
350.19	227.36
350.57	227.38
350.96	227.41
351.34	227.51
351.72	227.60
352.10	227.70
352.48	227.78
352.87	227.82
353.25	227.86
353.63	227.89
354.01	227.94
354.39	228.01
354.77	228.03
355.15	228.15
355.54	228.22
355.92	228.24
356.30	228.31
356.68	228.44
357.06	228.49
357.44	228.55
357.82	228.62
358.20	228.68
358.58	228.75
358.97	228.82
359.35	228.87
359.73	228.94
360.11	228.96
360.49	229.02
360.87	229.09
361.25	229.14
361.63	229.23
362.01	229.26
362.39	229.27
362.77	229.33
363.15	229.36
363.53	229.39
363.91	229.39
364.29	229.39
364.67	229.31
365.05	229.29
365.43	229.28
365.81	229.26
366.19	229.28
366.57	229.34
366.95	229.36
367.33	229.32
367.71	229.25
368.09	229.30
368.47	229.26
368.85	229.23
369.23	229.24
369.61	229.18
369.99	229.18
370.37	229.17
370.75	229.16
371.13	229.06
371.51	229.00
371.89	228.99
372.27	228.91
372.65	228.88
373.03	228.87
373.41	228.81
373.78	228.72
374.16	228.63
374.54	228.54
374.92	228.43
375.30	228.38
375.68	228.35
376.06	228.23
376.44	228.16
376.82	228.08
377.19	227.98
377.57	227.89
377.95	227.81
378.33	227.71
378.71	227.58
379.09	227.53
379.47	227.46
379.84	227.38
380.22	227.33
380.60	227.26
380.98	227.19
381.36	227.11
381.73	227.07
382.11	226.99
382.49	226.94
382.87	226.90
383.25	226.86
383.62	226.90
384.00	226.83
384.38	226.79
384.76	226.76
385.13	226.77
385.51	226.73
385.89	226.66
386.27	226.62
386.64	226.60
387.02	226.59
387.40	226.56
387.78	226.53
388.15	226.48
388.53	226.46
388.91	226.40
389.29	226.37
389.66	226.37
390.04	226.34
390.42	226.32
390.79	226.32
391.17	226.29
391.55	226.18
391.92	226.18
392.30	226.18
392.68	226.16
393.05	226.14
393.43	226.17
393.81	226.21
394.18	226.23
394.56	226.26
394.94	226.27
395.31	226.29
395.69	226.35
396.06	226.46
396.44	226.50
396.82	226.58
397.19	226.71
397.57	226.79
397.95	226.87
398.32	226.94
398.70	227.02
399.07	227.10
399.45	227.17
399.82	227.24
400.20	227.33
400.58	227.41
400.95	227.48
401.33	227.59
401.70	227.75
402.08	227.85
402.45	227.96
402.83	228.07
403.20	228.18
403.58	228.30
403.95	228.40
404.33	228.54
404.71	228.66
405.08	228.79
405.46	228.89
405.83	229.08
406.21	229.21
406.58	229.36
406.96	229.53
407.33	229.73
407.70	229.92
408.08	230.19
408.45	230.38
408.83	230.64
409.20	230.83
409.58	230.97
409.95	231.24
410.33	231.50
410.70	231.76
411.08	232.06
411.45	232.35
411.82	232.64
412.20	232.99
412.57	233.40
412.95	233.69
413.32	234.10
413.69	234.48
414.07	234.91
414.44	235.36
414.82	235.83
415.19	236.36
415.56	236.90
415.94	237.44
416.31	238.09
416.68	238.70
417.06	239.42
417.43	240.15
417.81	240.89
418.18	241.69
418.55	242.56
418.93	243.41
419.30	244.30
419.67	245.23
420.04	246.19
420.42	247.19
420.79	248.39
421.16	249.53
421.54	250.71
421.91	251.92
422.28	253.19
422.66	254.55
423.03	255.88
423.40	257.21
423.77	258.62
424.15	260.08
424.52	261.58
424.89	263.17
425.26	264.68
425.64	266.15
426.01	267.74
426.38	269.36
426.75	271.01
427.13	272.73
427.50	274.58
427.87	276.46
428.24	278.34
428.61	280.08
428.99	282.06
429.36	284.18
429.73	286.23
430.10	288.27
430.47	290.30
430.85	292.38
431.22	294.65
431.59	297.01
431.96	299.20
432.33	301.68
432.70	304.05
433.08	306.88
433.45	309.56
433.82	312.18
434.19	315.11
434.56	317.94
434.93	320.64
435.30	323.25
435.68	326.14
436.05	328.96
436.42	331.77
436.79	334.27
437.16	336.97
437.53	339.83
437.90	342.66
438.27	345.45
438.64	348.29
439.01	350.88
439.38	353.15
439.75	355.36
440.13	357.91
440.50	360.29
440.87	362.14
441.24	364.06
441.61	366.19
441.98	367.67
442.35	369.48
442.72	371.32
443.09	373.10
443.46	374.13
443.83	374.75
444.20	375.24
444.57	376.11
444.94	376.36
445.31	376.72
445.68	377.07
446.05	377.09
446.42	376.74
446.79	376.36
447.16	375.91
447.53	375.54
447.90	374.37
448.27	373.19
448.64	371.60
449.01	370.45
449.37	368.46
449.74	366.60
450.11	364.39
450.48	361.90
450.85	359.39
451.22	357.23
451.59	355.18
451.96	353.24
452.33	350.62
452.70	348.29
453.07	345.47
453.43	342.54
453.80	339.77
454.17	337.08
454.54	334.52
454.91	331.77
455.28	329.10
455.65	326.54
456.02	324.07
456.38	321.95
456.75	319.30
457.12	317.08
457.49	314.80
457.86	312.60
458.23	310.77
458.59	308.70
458.96	306.62
459.33	304.76
459.70	302.89
460.07	301.40
460.43	299.64
460.80	297.97
461.17	296.54
461.54	295.09
461.91	293.60
462.27	292.13
462.64	290.85
463.01	289.51
463.38	288.24
463.74	286.89
464.11	285.73
464.48	284.66
464.85	283.50
465.21	282.67
465.58	281.73
465.95	280.63
466.32	279.71
466.68	278.79
467.05	277.87
467.42	276.98
467.78	276.03
468.15	275.17
468.52	274.56
468.88	273.69
469.25	272.89
469.62	272.28
469.98	271.60
470.35	270.98
470.72	270.42
471.08	269.74
471.45	269.18
471.82	268.61
472.18	268.02
472.55	267.61
472.92	267.05
473.28	266.55
473.65	266.08
474.02	265.62
474.38	265.23
474.75	264.91
475.11	264.55
475.48	264.27
475.85	264.04
476.21	263.79
476.58	263.56
476.94	263.41
477.31	263.25
477.67	263.11
478.04	263.03
478.41	262.92
478.77	262.97
479.14	262.88
479.50	262.88
479.87	262.97
480.23	263.03
480.60	263.11
480.96	263.20
481.33	263.40
481.69	263.65
482.06	263.84
482.42	264.01
482.79	264.27
483.15	264.58
483.52	264.96
483.88	265.30
484.25	265.72
484.61	266.15
484.98	266.61
485.34	267.14
485.71	267.74
486.07	268.33
486.44	268.89
486.80	269.61
487.17	270.35
487.53	271.16
487.90	272.05
488.26	272.98
488.62	274.01
488.99	274.96
489.35	275.99
489.72	277.14
490.08	278.35
490.44	279.60
490.81	280.92
491.17	282.23
491.54	283.69
491.90	285.18
492.26	286.82
492.63	288.53
492.99	290.28
493.36	292.13
493.72	294.14
494.08	296.22
494.45	298.48
494.81	300.82
495.17	303.22
495.54	305.78
495.90	308.45
496.26	311.25
496.63	314.22
496.99	317.30
497.35	320.51
497.72	323.89
498.08	327.37
498.44	331.01
498.80	334.93
499.17	338.97
499.53	343.17
499.89	347.50
500.26	352.00
500.62	356.73
500.98	361.67
501.34	366.75
501.71	372.07
502.07	377.44
502.43	383.07
502.79	388.85
503.16	394.90
503.52	401.13
503.88	407.51
504.24	414.12
504.60	421.03
504.97	428.21
505.33	435.57
505.69	443.26
506.05	451.03
506.41	458.92
506.78	467.05
507.14	475.45
507.50	484.14
507.86	493.13
508.22	502.27
508.59	511.42
508.95	520.93
509.31	530.71
509.67	540.79
510.03	551.02
510.39	561.56
510.75	572.34
511.12	583.30
511.48	594.56
511.84	606.01
512.20	617.50
512.56	629.39
512.92	641.57
513.28	653.86
513.64	666.35
514.00	679.08
514.37	691.94
514.73	704.99
515.09	717.99
515.45	731.29
515.81	744.93
516.17	758.95
516.53	773.20
516.89	787.43
517.25	801.65
517.61	816.11
517.97	830.61
518.33	845.07
518.69	859.95
519.05	875.01
519.41	890.23
519.77	905.83
520.13	921.34
520.49	936.72
520.85	952.18
521.21	968.01
521.57	984.25
521.93	1000.12
522.29	1016.56
522.65	1032.94
523.01	1049.24
523.37	1065.30
523.73	1081.58
524.09	1097.65
524.45	1114.03
524.81	1130.68
525.17	1147.62
525.53	1164.54
525.89	1181.53
526.25	1198.41
526.61	1214.79
526.97	1231.65
527.33	1248.14
527.68	1264.81
528.04	1281.32
528.40	1298.07
528.76	1315.05
529.12	1331.69
529.48	1348.59
529.84	1364.71
530.20	1381.39
530.56	1398.61
530.91	1416.03
531.27	1432.77
531.63	1449.36
531.99	1466.06
532.35	1482.10
532.71	1497.99
533.07	1514.31
533.42	1530.15
533.78	1546.15
534.14	1562.62
534.50	1577.99
534.86	1594.01
535.21	1609.26
535.57	1625.31
535.93	1640.81
536.29	1655.78
536.65	1671.03
537.00	1685.92
537.36	1701.44
537.72	1716.08
538.08	1730.42
538.44	1744.26
538.79	1758.37
539.15	1772.15
539.51	1785.98
539.87	1800.41
540.22	1814.27
540.58	1828.21
540.94	1841.72
541.29	1854.82
541.65	1867.55
542.01	1880.78
542.37	1893.01
542.72	1905.56
543.08	1917.40
543.44	1929.91
543.79	1941.26
544.15	1952.17
544.51	1963.77
544.87	1974.64
545.22	1985.44
545.58	1995.71
545.94	2005.43
546.29	2015.23
546.65	2024.94
547.01	2034.15
547.36	2042.87
547.72	2051.38
548.07	2059.05
548.43	2067.20
548.79	2075.27
549.14	2082.73
549.50	2090.28
549.86	2098.23
550.21	2105.45
550.57	2112.56
550.92	2119.10
551.28	2126.10
551.64	2133.13
551.99	2139.65
552.35	2145.76
552.70	2151.83
553.06	2157.83
553.41	2164.28
553.77	2170.31
554.13	2176.55
554.48	2182.58
554.84	2187.98
555.19	2193.32
555.55	2198.52
555.90	2202.97
556.26	2207.64
556.61	2212.39
556.97	2216.34
557.32	2220.36
557.68	2224.60
558.03	2228.99
558.39	2232.70
558.74	2237.27
559.10	2241.18
559.45	2244.98
559.81	2249.27
560.16	2253.18
560.52	2256.26
560.87	2259.68
561.23	2262.24
561.58	2265.12
561.94	2267.60
562.29	2270.02
562.64	2272.50
563.00	2275.12
563.35	2278.62
563.71	2281.68
564.06	2284.74
564.42	2287.63
564.77	2289.94
565.12	2291.88
565.48	2293.50
565.83	2295.25
566.19	2296.40
566.54	2297.39
566.89	2298.20
567.25	2298.66
567.60	2299.91
567.96	2301.64
568.31	2302.33
568.66	2303.36
569.02	2303.73
569.37	2303.98
569.72	2304.64
570.08	2304.70
570.43	2304.70
570.78	2303.85
571.14	2302.26
571.49	2300.88
571.84	2300.30
572.20	2299.05
572.55	2297.97
572.90	2296.46
573.26	2294.86
573.61	2293.03
573.96	2290.97
574.31	2287.98
574.67	2284.76
575.02	2280.98
575.37	2277.38
575.72	2273.47
576.08	2270.08
576.43	2266.72
576.78	2262.87
577.13	2259.68
577.49	2256.47
577.84	2252.79
578.19	2249.03
578.54	2245.24
578.90	2240.92
579.25	2235.48
579.60	2230.46
579.95	2225.39
580.30	2220.24
580.66	2215.10
581.01	2210.14
581.36	2205.02
581.71	2200.51
582.06	2196.02
582.42	2191.43
582.77	2186.07
583.12	2181.32
583.47	2176.37
583.82	2171.14
584.17	2165.91
584.53	2160.26
584.88	2154.62
585.23	2148.62
585.58	2143.03
585.93	2137.62
586.28	2132.66
586.63	2127.46
586.98	2122.14
587.34	2117.30
587.69	2112.35
588.04	2106.89
588.39	2101.10
588.74	2094.67
589.09	2088.57
589.44	2081.59
589.79	2075.48
590.14	2069.84
590.49	2063.18
590.84	2056.78
591.19	2050.69
591.54	2043.99
591.89	2036.33
592.25	2029.29
592.60	2022.15
592.95	2014.34
593.30	2006.69
593.65	1999.04
594.00	1991.96
594.35	1984.67
594.70	1976.51
595.05	1969.11
595.40	1961.76
595.75	1954.15
596.10	1947.67
596.45	1940.78
596.80	1934.63
597.15	1927.78
597.50	1920.40
597.85	1913.96
598.19	1907.24
598.54	1900.13
598.89	1893.62
599.24	1887.88
599.59	1881.16
599.94	1874.76
600.29	1868.51
600.64	1862.01
600.99	1854.45
601.34	1847.37
601.69	1840.43
602.04	1833.54
602.39	1826.12
602.74	1819.24
603.08	1812.42
603.43	1805.80
603.78	1798.59
604.13	1791.39
604.48	1784.08
604.83	1777.37
605.18	1770.31
605.53	1762.20
605.87	1754.20
606.22	1746.91
606.57	1739.03
606.92	1731.69
607.27	1724.56
607.62	1717.68
607.96	1710.32
608.31	1703.63
608.66	1696.12
609.01	1688.53
609.36	1680.97
609.70	1673.01
610.05	1665.04
610.40	1657.43
610.75	1649.06
611.10	1641.41
611.44	1633.05
611.79	1625.17
612.14	1616.47
612.49	1607.57
612.83	1599.37
613.18	1591.35
613.53	1583.15
613.88	1574.50
614.22	1566.28
614.57	1557.80
614.92	1549.73
615.27	1542.08
615.61	1533.93
615.96	1525.93
616.31	1518.36
616.65	1511.01
617.00	1503.52
617.35	1495.78
617.70	1487.44
618.04	1478.90
618.39	1470.66
618.74	1462.95
619.08	1454.61
619.43	1447.08
619.78	1440.04
620.12	1432.79
620.47	1425.20
620.82	1417.20
621.16	1409.84
621.51	1402.24
621.85	1394.59
622.20	1386.06
622.55	1377.96
622.89	1370.08
623.24	1362.50
623.59	1355.20
623.93	1347.63
624.28	1340.55
624.62	1333.04
624.97	1325.88
625.32	1319.19
625.66	1312.20
626.01	1305.21
626.35	1297.78
626.70	1290.05
627.04	1282.28
627.39	1274.60
627.73	1267.18
628.08	1260.18
628.43	1252.88
628.77	1245.48
629.12	1237.87
629.46	1230.80
629.81	1223.33
630.15	1216.14
630.50	1208.75
630.84	1200.51
631.19	1192.65
631.53	1185.07
631.88	1177.56
632.22	1169.94
632.57	1162.82
632.91	1155.33
633.26	1147.89
633.60	1140.70
633.95	1133.69
634.29	1126.82
634.64	1120.16
634.98	1112.89
635.32	1105.93
635.67	1099.45
636.01	1092.87
636.36	1086.18
636.70	1079.66
637.05	1073.17
637.39	1066.79
637.73	1060.37
638.08	1054.58
638.42	1048.68
638.77	1042.21
639.11	1035.67
639.45	1029.35
639.80	1022.61
640.14	1016.23
640.49	1009.79
640.83	1003.47
641.17	997.21
641.52	990.86
641.86	984.47
642.20	978.59
642.55	972.30
642.89	965.85
643.23	959.37
643.58	953.65
643.92	947.49
644.26	941.40
644.61	935.34
644.95	929.35
645.29	922.68
645.64	915.98
645.98	909.69
646.32	903.94
646.66	897.92
647.01	892.21
647.35	886.52
647.69	880.74
648.04	875.25
648.38	869.51
648.72	863.47
649.06	857.40
649.41	851.54
649.75	845.49
650.09	839.46
650.43	833.69
650.78	827.46
651.12	821.49
651.46	815.71
651.80	809.97
652.14	804.57
652.49	799.29
652.83	794.08
653.17	788.34
653.51	782.58
653.85	777.18
654.20	771.48
654.54	765.42
654.88	759.56
655.22	753.75
655.56	748.03
655.90	742.66
656.25	737.43
656.59	732.11
656.93	726.98
657.27	721.91
657.61	716.47
657.95	711.46
658.29	706.39
658.64	701.23
658.98	695.99
659.32	690.51
659.66	685.28
660.00	680.00
660.34	675.21
660.68	670.37
661.02	665.39
661.36	660.75
661.70	656.32
662.05	652.03
662.39	647.64
662.73	643.32
663.07	638.96
663.41	634.52
663.75	630.07
664.09	625.64
664.43	621.27
664.77	617.20
665.11	612.95
665.45	608.87
665.79	604.83
666.13	600.75
666.47	596.70
666.81	592.61
667.15	588.53
667.49	584.58
667.83	580.80
668.17	576.91
668.51	572.87
668.85	568.85
669.19	565.07
669.53	561.27
669.87	557.35
670.21	553.66
670.55	550.03
670.89	546.59
671.23	543.15
671.57	539.66
671.91	536.17
672.25	532.73
672.58	529.23
672.92	525.89
673.26	522.78
673.60	519.69
673.94	516.57
674.28	513.71
674.62	510.77
674.96	507.65
675.30	504.75
675.64	501.82
675.97	499.13
676.31	496.25
676.65	493.34
676.99	490.64
677.33	487.75
677.67	484.96
678.01	481.95
678.34	478.97
678.68	476.13
679.02	473.38
679.36	470.67
679.70	467.94
680.04	465.13
680.37	462.20
680.71	459.46
681.05	456.90
681.39	454.20
681.73	451.60
682.06	449.08
682.40	446.55
682.74	444.07
683.08	441.56
683.42	439.00
683.75	436.54
684.09	434.02
684.43	431.59
684.77	429.18
685.10	426.87
685.44	424.59
685.78	422.25
686.12	419.98
686.45	417.66
686.79	415.40
687.13	413.24
687.46	411.14
687.80	408.89
688.14	406.66
688.48	404.63
688.81	402.42
689.15	400.34
689.49	398.21
689.82	396.10
690.16	393.97
690.50	391.99
690.83	390.02
691.17	388.02
691.51	386.15
691.84	384.24
692.18	382.34
692.52	380.35
692.85	378.47
693.19	376.61
693.52	374.77
693.86	372.95
694.20	371.19
694.53	369.42
694.87	367.63
695.21	365.88
695.54	364.06
695.88	362.30
696.21	360.56
696.55	358.87
696.88	357.24
697.22	355.60
697.56	353.97
697.89	352.31
698.23	350.74
698.56	349.12
698.90	347.54
699.23	345.82
699.57	344.28
699.90	342.75
700.24	341.19
700.58	339.65
700.91	338.17
701.25	336.72
701.58	335.36
701.92	334.01
702.25	332.59
702.59	331.21
702.92	329.89
703.26	328.57
703.59	327.30
703.93	326.10
704.26	324.86
704.60	323.63
704.93	322.38
705.26	321.13
705.60	319.97
705.93	318.85
706.27	317.90
706.60	316.88
706.94	315.82
707.27	314.72
707.61	313.70
707.94	312.70
708.27	311.63
708.61	310.50
708.94	309.48
709.28	308.54
709.61	307.58
709.94	306.67
710.28	305.64
710.61	304.69
710.95	303.64
711.28	302.74
711.61	301.77
711.95	300.87
712.28	299.92
712.61	299.00
712.95	298.09
713.28	297.22
713.61	296.30
713.95	295.43
714.28	294.61
714.61	293.75
714.95	292.90
715.28	292.03
715.61	291.16
715.95	290.33
716.28	289.49
716.61	288.68
716.95	287.88
717.28	287.17
717.61	286.43
717.94	285.70
718.28	284.90
718.61	284.14
718.94	283.51
719.27	282.87
719.61	282.17
719.94	281.47
720.27	280.73
720.60	280.10
720.94	279.46
721.27	278.82
721.60	278.26
721.93	277.70
722.27	277.16
722.60	276.63
722.93	276.07
723.26	275.52
723.59	274.96
723.93	274.40
724.26	273.86
724.59	273.26
724.92	272.70
725.25	272.22
725.59	271.73
725.92	271.17
726.25	270.64
726.58	270.12
726.91	269.65
727.24	269.18
727.57	268.67
727.91	268.14
728.24	267.67
728.57	267.15
728.90	266.64
729.23	266.13
729.56	265.69
729.89	265.22
730.22	264.77
730.55	264.31
730.89	263.87
731.22	263.41
731.55	262.96
731.88	262.52
732.21	262.07
732.54	261.65
732.87	261.22
733.20	260.80
733.53	260.46
733.86	260.06
734.19	259.65
734.52	259.32
734.85	259.00
735.18	258.60
735.51	258.26
735.84	257.87
736.17	257.55
736.50	257.13
736.83	256.90
737.16	256.54
737.49	256.20
737.82	255.85
738.15	255.54
738.48	255.24
738.81	254.93
739.14	254.62
739.47	254.29
739.80	253.99
740.13	253.73
740.46	253.37
740.79	253.05
741.12	252.74
741.45	252.42
741.78	252.11
742.11	251.83
742.44	251.48
742.77	251.22
743.10	250.93
743.43	250.67
743.75	250.30
744.08	250.16
744.41	249.88
744.74	249.60
745.07	249.28
745.40	249.02
745.73	248.82
746.06	248.52
746.39	248.27
746.71	248.03
747.04	247.75
747.37	247.52
747.70	247.26
748.03	247.02
748.36	246.80
748.68	246.56
749.01	246.33
749.34	246.14
749.67	245.93
750.00	245.69
750.33	245.53
750.65	245.30
750.98	244.94
751.31	244.77
751.64	244.60
751.97	244.43
752.29	244.25
752.62	244.01
752.95	243.81
753.28	243.62
753.60	243.42
753.93	243.27
754.26	243.07
754.59	242.85
754.91	242.68
755.24	242.45
755.57	242.26
755.90	242.08
756.22	241.92
756.55	241.71
756.88	241.52
757.20	241.29
757.53	241.09
757.86	240.97
758.19	240.79
758.51	240.61
758.84	240.43
759.17	240.26
759.49	240.09
759.82	239.99
760.15	239.83
760.47	239.68
760.80	239.49
761.13	239.35
761.45	239.24
761.78	239.11
762.11	238.98
762.43	238.83
762.76	238.67
763.08	238.56
763.41	238.42
763.74	238.30
764.06	238.13
764.39	237.98
764.71	237.83
765.04	237.71
765.37	237.58
765.69	237.48
766.02	237.34
766.34	237.21
766.67	237.03
767.00	236.91
767.32	236.84
767.65	236.76
767.97	236.66
768.30	236.50
768.62	236.36
768.95	236.24
769.27	236.14
769.60	236.06
769.92	235.85
770.25	235.72
770.57	235.56
770.90	235.46
771.22	235.36
771.55	235.22
771.87	235.10
772.20	234.96
772.52	234.93
772.85	234.92
773.17	234.83
773.50	234.70
773.82	234.61
774.15	234.46
774.47	234.32
774.80	234.19
775.12	234.10
775.45	233.97
775.77	233.87
776.09	233.76
776.42	233.65
776.74	233.62
777.07	233.57
777.39	233.51
777.72	233.44
778.04	233.40
778.36	233.31
778.69	233.25
779.01	233.18
779.33	233.02
779.66	232.86
779.98	232.77
780.31	232.72
780.63	232.71
780.95	232.63
781.28	232.55
781.60	232.48
781.92	232.41
782.25	232.37
782.57	232.31
782.89	232.23
783.22	232.17
783.54	232.08
783.86	232.01
784.19	231.96
784.51	231.90
784.83	231.82
785.16	231.75
785.48	231.69
785.80	231.65
786.12	231.60
786.45	231.59
786.77	231.52
787.09	231.49
787.42	231.40
787.74	231.35
788.06	231.33
788.38	231.31
788.71	231.27
789.03	231.25
789.35	231.22
789.67	231.21
789.99	231.20
790.32	231.18
790.64	231.17
790.96	231.18
791.28	231.13
791.61	231.12
791.93	231.10
792.25	231.09
792.57	231.13
792.89	231.08
793.21	231.03
793.54	231.00
793.86	230.95
794.18	230.92
794.50	230.90
794.82	230.87
795.14	230.84
795.47	230.84
795.79	230.79
796.11	230.75
796.43	230.72
796.75	230.65
797.07	230.62
797.39	230.60
797.71	230.54
798.04	230.53
798.36	230.53
798.68	230.50
799.00	230.45
799.32	230.38
799.64	230.36
799.96	230.34
800.28	230.35
800.60	230.35
800.92	230.35
801.24	230.31
801.56	230.31
801.89	230.28
802.21	230.30
802.53	230.29
802.85	230.29
803.17	230.29
803.49	230.27
803.81	230.27
804.13	230.19
804.45	230.16
804.77	230.13
805.09	230.09
805.41	230.09
805.73	230.04
806.05	229.97
806.37	229.96
806.69	229.95
807.01	229.92
807.33	229.88
807.65	229.81
807.97	229.90
808.28	229.83
808.60	229.79
808.92	229.73
809.24	229.76
809.56	229.72
809.88	229.70
810.20	229.70
810.52	229.68
810.84	229.63
811.16	229.58
811.48	229.53
811.80	229.51
812.12	229.43
812.43	229.45
812.75	229.44
813.07	229.40
813.39	229.35
813.71	229.29
814.03	229.26
814.35	229.25
814.67	229.15
814.98	229.13
815.30	229.13
815.62	229.09
815.94	229.01
816.26	229.00
816.58	228.95
816.89	228.92
817.21	228.84
817.53	228.86
817.85	228.84
818.17	228.86
818.48	228.83
818.80	228.85
819.12	228.80
819.44	228.78
819.76	228.74
820.07	228.73
820.39	228.73
820.71	228.71
821.03	228.67
821.34	228.61
821.66	228.61
821.98	228.59
822.30	228.56
822.61	228.57
822.93	228.52
823.25	228.51
823.57	228.47
823.88	228.49
824.20	228.47
824.52	228.46
824.83	228.40
825.15	228.38
825.47	228.37
825.79	228.36
826.10	228.32
826.42	228.32
826.74	228.31
827.05	228.30
827.37	228.25
827.69	228.23
828.00	228.23
828.32	228.22
828.64	228.18
828.95	228.23
829.27	228.19
829.58	228.21
829.90	228.19
830.22	228.20
830.53	228.15
830.85	228.12
831.17	228.08
831.48	228.11
831.80	228.08
832.11	228.07
832.43	228.04
832.75	228.07
833.06	228.11
833.38	228.08
833.69	228.07
834.01	228.10
834.32	228.10
834.64	228.10
834.96	228.07
835.27	228.07
835.59	228.02
835.90	228.03
836.22	227.97
836.53	227.97
836.85	227.95
837.16	228.06
837.48	228.07
837.79	228.11
838.11	228.10
838.42	228.13
838.74	228.11
839.05	228.09
839.37	228.06
839.68	228.01
840.00	228.00
840.31	228.00
840.63	227.99
840.94	227.95
841.26	227.95
841.57	227.98
841.88	228.01
842.20	228.00
842.51	227.97
842.83	228.01
843.14	228.10
843.46	228.11
843.77	228.06
844.08	228.05
844.40	228.01
844.71	227.98
845.03	227.97
845.34	227.97
845.65	228.02
845.97	228.01
846.28	228.02
846.60	228.02
846.91	228.04
847.22	228.03
847.54	228.08
847.85	228.09
848.16	228.06
848.48	228.03
848.79	228.09
849.10	228.09
849.42	228.05
849.73	227.94
850.04	227.94
850.36	227.90
850.67	227.95
850.98	227.94
851.30	227.94
851.61	227.93
851.92	227.94
852.23	227.94
852.55	227.95
852.86	227.96
853.17	227.99
853.49	227.96
853.80	227.98
854.11	228.00
854.42	228.00
854.74	228.00
855.05	227.97
855.36	227.89
855.67	227.89
855.99	227.89
856.30	228.02
856.61	227.97
856.92	227.96
857.23	227.92
857.55	227.89
857.86	227.92
858.17	227.91
858.48	227.88
858.79	227.83
859.11	227.82
859.42	227.75
859.73	227.69
860.04	227.68
860.35	227.65
860.66	227.59
860.98	227.57
861.29	227.55
861.60	227.53
861.91	227.55
862.22	227.53
862.53	227.55
862.84	227.40
863.16	227.44
863.47	227.41
863.78	227.42
864.09	227.44
864.40	227.45
864.71	227.43
865.02	227.44
865.33	227.42
865.64	227.39
865.95	227.42
866.27	227.49
866.58	227.46
866.89	227.47
867.20	227.47
867.51	227.43
867.82	227.43
868.13	227.47
868.44	227.42
868.75	227.40
869.06	227.35
869.37	227.37
869.68	227.33
869.99	227.36
870.30	227.36
870.61	227.36
870.92	227.31
871.23	227.33
871.54	227.34
871.85	227.39
872.16	227.42
872.47	227.39
872.78	227.34
873.09	227.36
873.40	227.33
873.71	227.33
874.02	227.37
874.33	227.37
874.64	227.32
874.95	227.35
875.26	227.34
875.56	227.34
875.87	227.32
876.18	227.32
876.49	227.39
876.80	227.38
877.11	227.38
877.42	227.36
877.73	227.33
878.04	227.31
878.35	227.27
878.66	227.27
878.96	227.26
879.27	227.23
879.58	227.21
879.89	227.20
880.20	227.23
880.51	227.20
880.82	227.19
881.12	227.24
881.43	227.23
881.74	227.23
882.05	227.24
882.36	227.27
882.67	227.28
882.97	227.22
883.28	227.19
883.59	227.20
883.90	227.25
884.21	227.28
884.51	227.30
884.82	227.30
885.13	227.35
885.44	227.36
885.74	227.39
886.05	227.39
886.36	227.42
886.67	227.41
886.98	227.48
887.28	227.51
887.59	227.49
887.90	227.51
888.20	227.51
888.51	227.55
888.82	227.52
889.13	227.53
889.43	227.56
889.74	227.56
890.05	227.54
890.35	227.52
890.66	227.48
890.97	227.48
891.28	227.49
891.58	227.46
891.89	227.49
892.20	227.48
892.50	227.49
892.81	227.49
893.12	227.49
893.42	227.44
893.73	227.44
894.04	227.45
894.34	227.45
894.65	227.49
894.95	227.49
895.26	227.48
895.57	227.51
895.87	227.47
896.18	227.50
896.48	227.53
896.79	227.49
897.10	227.54
897.40	227.55
897.71	227.57
898.01	227.58
898.32	227.57
898.63	227.56
898.93	227.57
899.24	227.58
899.54	227.55
899.85	227.55
900.15	227.53
900.46	227.55
900.76	227.54
901.07	227.50
901.38	227.49
901.68	227.54
901.99	227.49
902.29	227.47
902.60	227.46
902.90	227.41
903.21	227.46
903.51	227.42
903.82	227.43
904.12	227.41
904.43	227.38
904.73	227.37
905.03	227.40
905.34	227.47
905.64	227.42
905.95	227.44
906.25	227.43
906.56	227.43
906.86	227.38
907.17	227.38
907.47	227.39
907.77	227.37
908.08	227.34
908.38	227.36
908.69	227.37
908.99	227.39
909.30	227.42
909.60	227.40
909.90	227.45
910.21	227.41
910.51	227.39
910.81	227.37
911.12	227.36
911.42	227.32
911.73	227.22
912.03	227.26
912.33	227.26
912.64	227.23
912.94	227.22
913.24	227.20
913.55	227.24
913.85	227.22
914.15	227.21
914.46	227.21
914.76	227.17
915.06	227.14
915.37	227.13
915.67	227.11
915.97	227.09
916.27	227.02
916.58	227.03
916.88	227.03
917.18	227.05
917.49	227.10
917.79	227.14
918.09	227.13
918.39	227.14
918.70	227.12
919.00	227.12
919.30	227.16
919.60	227.16
919.91	227.10
920.21	227.11
920.51	227.08
920.81	227.06
921.12	227.09
921.42	227.09
921.72	227.07
922.02	227.06
922.32	227.10
922.63	227.12
922.93	227.17
923.23	227.18
923.53	227.14
923.83	227.10
924.13	227.08
924.44	227.12
924.74	227.12
925.04	227.17
925.34	227.18
925.64	227.11
925.94	227.12
926.24	227.19
926.55	227.16
926.85	227.21
927.15	227.22
927.45	227.21
927.75	227.21
928.05	227.22
928.35	227.23
928.65	227.23
928.95	227.23
929.26	227.19
929.56	227.19
929.86	227.22
930.16	227.21
930.46	227.23
930.76	227.22
931.06	227.19
931.36	227.17
931.66	227.19
931.96	227.24
932.26	227.26
932.56	227.20
932.86	227.24
933.16	227.23
933.46	227.23
933.76	227.24
934.06	227.26
934.36	227.29
934.66	227.32
934.96	227.30
935.26	227.34
935.56	227.35
935.86	227.33
936.16	227.36
936.46	227.36
936.76	227.34
937.06	227.31
937.36	227.33
937.66	227.34
937.96	227.33
938.26	227.32
938.56	227.34
938.86	227.36
939.16	227.37
939.46	227.38
939.76	227.39
940.06	227.39
940.35	227.38
940.65	227.33
940.95	227.32
941.25	227.29
941.55	227.27
941.85	227.26
942.15	227.32
942.45	227.32
942.75	227.36
943.04	227.36
943.34	227.40
943.64	227.36
943.94	227.34
944.24	227.33
944.54	227.35
944.84	227.32
945.13	227.30
945.43	227.31
945.73	227.27
946.03	227.27
946.33	227.27
946.62	227.27
946.92	227.28
947.22	227.29
947.52	227.31
947.82	227.33
948.11	227.33
948.41	227.27
948.71	227.21
949.01	227.18
949.31	227.20
949.60	227.18
949.90	227.21
950.20	227.21
950.50	227.21
950.79	227.20
951.09	227.24
951.39	227.23
951.69	227.20
951.98	227.25
952.28	227.26
952.58	227.24
952.87	227.25
953.17	227.26
953.47	227.25
953.76	227.24
954.06	227.17
954.36	227.16
954.66	227.15
954.95	227.20
955.25	227.22
955.55	227.20
955.84	227.21
956.14	227.21
956.44	227.20
956.73	227.17
957.03	227.16
957.32	227.11
957.62	227.11
957.92	227.13
958.21	227.10
958.51	227.19
958.81	227.22
959.10	227.23
959.40	227.24
959.69	227.25
959.99	227.26
960.29	227.29
960.58	227.27
960.88	227.36
961.17	227.34
961.47	227.34
961.76	227.36
962.06	227.33
962.36	227.28
962.65	227.29
962.95	227.32
963.24	227.29
963.54	227.29
963.83	227.30
964.13	227.27
964.42	227.23
964.72	227.15
965.01	227.14
965.31	227.12
965.60	227.07
965.90	227.12
966.19	227.10
966.49	227.10
966.78	227.08
967.08	227.04
967.37	227.03
967.67	226.98
967.96	226.97
968.26	227.01
968.55	227.05
968.85	227.03
969.14	227.02
969.43	227.05
969.73	227.06
970.02	227.02
970.32	227.00
970.61	227.01
970.91	226.97
971.20	226.94
971.49	226.93
971.79	226.95
972.08	226.88
972.38	226.88
972.67	226.86
972.96	226.88
973.26	226.86
973.55	226.90
973.85	226.93
974.14	226.89
974.43	226.85
974.73	226.85
975.02	226.85
975.31	226.86
975.61	226.85
975.90	226.84
976.19	226.87
976.49	226.91
976.78	226.91
977.07	226.93
977.37	226.96
977.66	226.99
977.95	226.97
978.24	227.01
978.54	227.03
978.83	227.05
979.12	227.06
979.42	227.06
979.71	227.03
980.00	227.00
980.29	227.05
980.59	227.06
980.88	227.08
981.17	227.04
981.46	227.03
981.76	227.02
982.05	227.08
982.34	227.11
982.63	227.14
982.93	227.15
983.22	227.15
983.51	227.13
983.80	227.12
984.09	227.15
984.39	227.11
984.68	227.06
984.97	227.09
985.26	227.06
985.55	227.09
985.85	227.09
986.14	227.14
986.43	227.15
986.72	227.14
987.01	227.11
987.30	227.12
987.59	227.14
987.89	227.16
988.18	227.09
988.47	227.05
988.76	227.02
989.05	227.00
989.34	227.02
989.63	227.04
989.92	227.03
990.22	226.99
990.51	227.02
990.80	227.01
991.09	226.99
991.38	227.03
991.67	227.00
991.96	226.96
992.25	226.95
992.54	226.92
992.83	226.91
993.12	226.90
993.41	226.98
993.70	226.99
993.99	227.00
994.28	227.01
994.58	227.05
994.87	227.06
995.16	227.03
995.45	226.99
995.74	226.96
996.03	226.98
996.32	227.01
996.61	227.00
996.90	227.02
997.19	227.02
997.48	226.99
997.77	226.95
998.06	226.97
998.34	226.96
998.63	226.95
998.92	226.94
999.21	226.94
999.50	226.90
999.79	226.86
1000.08	226.81
1000.37	226.82
1000.66	226.76
1000.95	226.75
1001.24	226.77
1001.53	226.81
1001.82	226.79
1002.11	226.76
1002.40	226.77
1002.68	226.81
1002.97	226.84
1003.26	226.80
1003.55	226.79
1003.84	226.82
1004.13	226.84
1004.42	226.83
1004.71	226.84
1004.99	226.85
1005.28	226.87
1005.57	226.85
1005.86	226.84
1006.15	226.85
1006.44	226.84
1006.72	226.86
1007.01	226.84
1007.30	226.83
1007.59	226.81
1007.88	226.80
1008.17	226.81
1008.45	226.81
1008.74	226.77
1009.03	226.76
1009.32	226.77
1009.60	226.79
1009.89	226.78
1010.18	226.77
1010.47	226.76
1010.76	226.75
1011.04	226.73
1011.33	226.73
1011.62	226.76
1011.91	226.79
1012.19	226.81
1012.48	226.80
1012.77	226.81
1013.05	226.85
1013.34	226.85
1013.63	226.88
1013.92	226.93
1014.20	226.93
1014.49	226.91
1014.78	226.91
1015.06	226.89
1015.35	226.91
1015.64	226.90
1015.92	226.91
1016.21	226.91
1016.50	226.95
1016.78	226.96
1017.07	227.00
1017.36	226.99
1017.64	226.95
1017.93	226.97
1018.22	226.99
1018.50	227.03
1018.79	227.03
1019.08	227.01
1019.36	227.04
1019.65	227.00
1019.93	227.04
1020.22	227.04
1020.51	227.07
1020.79	227.07
1021.08	227.56
1021.36	227.20
1021.65	227.03
1021.94	227.09
1022.22	227.10
1022.51	226.38
1022.79	228.16
1023.08	226.96
1023.36	227.77
1023.65	226.61
>>>>>End Processed Spectral Data<<<<<
