SpectraSuite Data File
++++++++++++++++++++++++++++++++++++
Date: Fri Feb 01 15:24:05 EST 2013
User: group
Dark Spectrum Present: No
Reference Spectrum Present: No
Number of Sampled Component Spectra: 1
Spectrometers: USB2E7196
Integration Time (usec): 35000 (USB2E7196)
Spectra Averaged: 100 (USB2E7196)
Boxcar Smoothing: 10 (USB2E7196)
Correct for Electrical Dark: No (USB2E7196)
Strobe/Lamp Enabled: No (USB2E7196)
Correct for Detector Non-linearity: No (USB2E7196)
Correct for Stray Light: No (USB2E7196)
Number of Pixels in Processed Spectrum: 2048
>>>>>Begin Processed Spectral Data<<<<<
339.09	0.00
339.48	214.72
339.86	216.46
340.24	218.59
340.63	219.42
341.01	222.06
341.39	222.07
341.78	223.33
342.16	224.07
342.54	224.82
342.93	213.32
343.31	224.11
343.69	224.66
344.07	225.12
344.46	225.49
344.84	225.85
345.22	226.09
345.60	226.32
345.99	226.49
346.37	226.63
346.75	226.73
347.13	226.80
347.52	226.84
347.90	226.88
348.28	226.89
348.66	226.95
349.05	226.91
349.43	226.95
349.81	226.98
350.19	227.04
350.57	227.09
350.96	227.15
351.34	227.22
351.72	227.30
352.10	227.41
352.48	227.51
352.87	227.56
353.25	227.60
353.63	227.66
354.01	227.73
354.39	227.81
354.77	227.88
355.15	227.99
355.54	228.08
355.92	228.14
356.30	228.24
356.68	228.36
357.06	228.44
357.44	228.50
357.82	228.56
358.20	228.62
358.58	228.67
358.97	228.73
359.35	228.82
359.73	228.91
360.11	228.92
360.49	228.99
360.87	229.04
361.25	229.11
361.63	229.19
362.01	229.22
362.39	229.24
362.77	229.26
363.15	229.27
363.53	229.27
363.91	229.31
364.29	229.32
364.67	229.27
365.05	229.30
365.43	229.33
365.81	229.34
366.19	229.39
366.57	229.39
366.95	229.38
367.33	229.32
367.71	229.27
368.09	229.29
368.47	229.25
368.85	229.22
369.23	229.23
369.61	229.18
369.99	229.19
370.37	229.18
370.75	229.23
371.13	229.15
371.51	229.11
371.89	229.07
372.27	229.01
372.65	228.94
373.03	228.92
373.41	228.84
373.78	228.80
374.16	228.70
374.54	228.65
374.92	228.60
375.30	228.54
375.68	228.47
376.06	228.41
376.44	228.35
376.82	228.28
377.19	228.20
377.57	228.15
377.95	228.03
378.33	227.94
378.71	227.77
379.09	227.75
379.47	227.67
379.84	227.57
380.22	227.52
380.60	227.45
380.98	227.36
381.36	227.28
381.73	227.19
382.11	227.10
382.49	227.05
382.87	226.98
383.25	226.95
383.62	226.99
384.00	226.93
384.38	226.86
384.76	226.84
385.13	226.81
385.51	226.70
385.89	226.66
386.27	226.62
386.64	226.63
387.02	226.58
387.40	226.57
387.78	226.57
388.15	226.54
388.53	226.50
388.91	226.48
389.29	226.46
389.66	226.43
390.04	226.43
390.42	226.43
390.79	226.42
391.17	226.37
391.55	226.29
391.92	226.27
392.30	226.29
392.68	226.29
393.05	226.27
393.43	226.32
393.81	226.36
394.18	226.38
394.56	226.42
394.94	226.47
395.31	226.44
395.69	226.47
396.06	226.50
396.44	226.56
396.82	226.58
397.19	226.66
397.57	226.71
397.95	226.80
398.32	226.79
398.70	226.86
399.07	226.97
399.45	227.02
399.82	227.09
400.20	227.17
400.58	227.24
400.95	227.29
401.33	227.39
401.70	227.55
402.08	227.62
402.45	227.71
402.83	227.82
403.20	227.97
403.58	228.10
403.95	228.22
404.33	228.34
404.71	228.46
405.08	228.65
405.46	228.81
405.83	228.90
406.21	229.10
406.58	229.23
406.96	229.40
407.33	229.58
407.70	229.79
408.08	230.05
408.45	230.27
408.83	230.54
409.20	230.78
409.58	230.96
409.95	231.26
410.33	231.52
410.70	231.75
411.08	232.05
411.45	232.36
411.82	232.67
412.20	233.01
412.57	233.42
412.95	233.74
413.32	234.13
413.69	234.59
414.07	235.01
414.44	235.51
414.82	235.97
415.19	236.55
415.56	237.10
415.94	237.62
416.31	238.24
416.68	238.85
417.06	239.54
417.43	240.19
417.81	240.93
418.18	241.70
418.55	242.55
418.93	243.42
419.30	244.31
419.67	245.22
420.04	246.24
420.42	247.26
420.79	248.42
421.16	249.59
421.54	250.77
421.91	251.97
422.28	253.23
422.66	254.56
423.03	255.81
423.40	257.12
423.77	258.59
424.15	260.02
424.52	261.49
424.89	263.11
425.26	264.65
425.64	266.13
426.01	267.71
426.38	269.35
426.75	271.01
427.13	272.72
427.50	274.54
427.87	276.36
428.24	278.23
428.61	280.00
428.99	281.92
429.36	284.03
429.73	286.13
430.10	288.15
430.47	290.25
430.85	292.36
431.22	294.63
431.59	296.96
431.96	299.22
432.33	301.72
432.70	304.14
433.08	306.98
433.45	309.60
433.82	312.19
434.19	315.10
434.56	317.91
434.93	320.58
435.30	323.22
435.68	326.16
436.05	328.99
436.42	331.81
436.79	334.37
437.16	337.06
437.53	339.87
437.90	342.72
438.27	345.43
438.64	348.30
439.01	350.88
439.38	353.10
439.75	355.27
440.13	357.78
440.50	360.09
440.87	361.93
441.24	363.88
441.61	366.06
441.98	367.52
442.35	369.33
442.72	371.19
443.09	373.01
443.46	373.98
443.83	374.56
444.20	375.03
444.57	375.84
444.94	376.17
445.31	376.52
445.68	376.83
446.05	376.88
446.42	376.47
446.79	376.05
447.16	375.66
447.53	375.34
447.90	374.18
448.27	373.00
448.64	371.43
449.01	370.28
449.37	368.34
449.74	366.48
450.11	364.24
450.48	361.73
450.85	359.17
451.22	357.00
451.59	354.99
451.96	353.05
452.33	350.43
452.70	348.03
453.07	345.16
453.43	342.22
453.80	339.49
454.17	336.81
454.54	334.31
454.91	331.52
455.28	328.86
455.65	326.37
456.02	323.93
456.38	321.75
456.75	319.13
457.12	316.83
457.49	314.58
457.86	312.39
458.23	310.59
458.59	308.57
458.96	306.50
459.33	304.63
459.70	302.72
460.07	301.25
460.43	299.57
460.80	297.98
461.17	296.58
461.54	295.08
461.91	293.67
462.27	292.17
462.64	290.98
463.01	289.58
463.38	288.25
463.74	286.89
464.11	285.74
464.48	284.72
464.85	283.61
465.21	282.72
465.58	281.82
465.95	280.68
466.32	279.78
466.68	278.85
467.05	277.96
467.42	277.09
467.78	276.12
468.15	275.19
468.52	274.51
468.88	273.61
469.25	272.83
469.62	272.20
469.98	271.53
470.35	270.86
470.72	270.25
471.08	269.56
471.45	269.01
471.82	268.44
472.18	267.78
472.55	267.34
472.92	266.82
473.28	266.37
473.65	265.93
474.02	265.48
474.38	265.14
474.75	264.79
475.11	264.43
475.48	264.16
475.85	263.92
476.21	263.68
476.58	263.50
476.94	263.37
477.31	263.18
477.67	263.04
478.04	262.94
478.41	262.93
478.77	262.96
479.14	262.89
479.50	262.90
479.87	263.02
480.23	263.07
480.60	263.14
480.96	263.20
481.33	263.38
481.69	263.57
482.06	263.68
482.42	263.89
482.79	264.14
483.15	264.46
483.52	264.82
483.88	265.19
484.25	265.56
484.61	265.97
484.98	266.44
485.34	266.97
485.71	267.52
486.07	268.06
486.44	268.65
486.80	269.35
487.17	270.05
487.53	270.86
487.90	271.74
488.26	272.69
488.62	273.68
488.99	274.65
489.35	275.70
489.72	276.87
490.08	278.07
490.44	279.32
490.81	280.67
491.17	282.03
491.54	283.45
491.90	284.98
492.26	286.63
492.63	288.37
492.99	290.15
493.36	292.06
493.72	294.11
494.08	296.21
494.45	298.48
494.81	300.85
495.17	303.25
495.54	305.82
495.90	308.50
496.26	311.28
496.63	314.22
496.99	317.27
497.35	320.52
497.72	323.94
498.08	327.50
498.44	331.14
498.80	335.02
499.17	339.07
499.53	343.24
499.89	347.61
500.26	352.07
500.62	356.71
500.98	361.69
501.34	366.81
501.71	372.12
502.07	377.56
502.43	383.20
502.79	389.05
503.16	395.14
503.52	401.41
503.88	407.84
504.24	414.47
504.60	421.37
504.97	428.57
505.33	435.85
505.69	443.45
506.05	451.27
506.41	459.20
506.78	467.35
507.14	475.80
507.50	484.55
507.86	493.57
508.22	502.80
508.59	512.01
508.95	521.56
509.31	531.43
509.67	541.51
510.03	551.79
510.39	562.33
510.75	573.09
511.12	583.98
511.48	595.32
511.84	606.83
512.20	618.29
512.56	630.19
512.92	642.43
513.28	654.86
513.64	667.33
514.00	680.03
514.37	693.03
514.73	706.21
515.09	719.28
515.45	732.58
515.81	746.18
516.17	760.16
516.53	774.30
516.89	788.48
517.25	802.75
517.61	817.21
517.97	831.62
518.33	846.01
518.69	860.96
519.05	875.96
519.41	891.15
519.77	906.81
520.13	922.30
520.49	937.69
520.85	953.15
521.21	968.87
521.57	985.10
521.93	1000.92
522.29	1017.21
522.65	1033.49
523.01	1049.85
523.37	1065.86
523.73	1082.09
524.09	1098.19
524.45	1114.62
524.81	1131.27
525.17	1148.13
525.53	1165.06
525.89	1182.10
526.25	1198.85
526.61	1215.32
526.97	1232.14
527.33	1248.70
527.68	1265.36
528.04	1281.92
528.40	1298.61
528.76	1315.79
529.12	1332.40
529.48	1349.25
529.84	1365.40
530.20	1382.12
530.56	1399.13
530.91	1416.55
531.27	1433.46
531.63	1450.03
531.99	1466.65
532.35	1482.71
532.71	1498.67
533.07	1514.99
533.42	1530.85
533.78	1546.99
534.14	1563.23
534.50	1578.68
534.86	1594.62
535.21	1609.79
535.57	1625.87
535.93	1641.37
536.29	1656.19
536.65	1671.52
537.00	1686.52
537.36	1701.89
537.72	1716.36
538.08	1730.88
538.44	1744.79
538.79	1758.66
539.15	1772.60
539.51	1786.25
539.87	1800.65
540.22	1814.35
540.58	1828.35
540.94	1841.82
541.29	1854.83
541.65	1867.62
542.01	1880.89
542.37	1893.27
542.72	1905.76
543.08	1917.39
543.44	1929.86
543.79	1941.12
544.15	1952.09
544.51	1963.64
544.87	1974.64
545.22	1985.53
545.58	1995.74
545.94	2005.63
546.29	2015.57
546.65	2025.22
547.01	2034.54
547.36	2043.43
547.72	2052.05
548.07	2059.95
548.43	2068.16
548.79	2076.14
549.14	2083.62
549.50	2091.06
549.86	2098.84
550.21	2106.33
550.57	2113.58
550.92	2120.13
551.28	2127.28
551.64	2134.39
551.99	2140.93
552.35	2147.14
552.70	2153.39
553.06	2159.41
553.41	2165.79
553.77	2171.78
554.13	2177.85
554.48	2184.00
554.84	2189.19
555.19	2194.51
555.55	2199.60
555.90	2204.00
556.26	2208.88
556.61	2213.66
556.97	2217.73
557.32	2221.82
557.68	2225.73
558.03	2230.09
558.39	2233.85
558.74	2238.53
559.10	2242.31
559.45	2245.94
559.81	2250.34
560.16	2253.95
560.52	2257.17
560.87	2260.62
561.23	2263.18
561.58	2266.14
561.94	2268.64
562.29	2271.15
562.64	2273.74
563.00	2276.34
563.35	2279.94
563.71	2283.11
564.06	2286.34
564.42	2289.19
564.77	2291.65
565.12	2293.95
565.48	2295.64
565.83	2297.27
566.19	2298.34
566.54	2299.29
566.89	2300.41
567.25	2300.73
567.60	2302.39
567.96	2304.00
568.31	2304.87
568.66	2305.91
569.02	2306.51
569.37	2306.77
569.72	2307.42
570.08	2307.51
570.43	2307.57
570.78	2306.85
571.14	2305.17
571.49	2303.78
571.84	2303.56
572.20	2302.26
572.55	2301.19
572.90	2299.80
573.26	2298.56
573.61	2296.93
573.96	2294.92
574.31	2291.87
574.67	2288.81
575.02	2285.02
575.37	2281.48
575.72	2277.30
576.08	2273.98
576.43	2270.58
576.78	2266.89
577.13	2263.79
577.49	2260.71
577.84	2257.01
578.19	2253.11
578.54	2249.18
578.90	2244.81
579.25	2239.16
579.60	2234.04
579.95	2229.00
580.30	2223.84
580.66	2218.48
581.01	2213.42
581.36	2208.45
581.71	2204.16
582.06	2199.67
582.42	2195.07
582.77	2189.76
583.12	2185.12
583.47	2180.24
583.82	2175.06
584.17	2169.68
584.53	2164.06
584.88	2158.19
585.23	2152.26
585.58	2146.86
585.93	2141.63
586.28	2136.93
586.63	2131.73
586.98	2126.62
587.34	2121.78
587.69	2116.83
588.04	2111.52
588.39	2105.76
588.74	2099.28
589.09	2093.06
589.44	2086.25
589.79	2080.17
590.14	2074.47
590.49	2067.83
590.84	2061.57
591.19	2055.59
591.54	2049.11
591.89	2041.56
592.25	2034.65
592.60	2027.47
592.95	2019.73
593.30	2012.30
593.65	2004.46
594.00	1997.26
594.35	1990.14
594.70	1982.24
595.05	1974.82
595.40	1967.61
595.75	1960.12
596.10	1953.76
596.45	1946.85
596.80	1940.51
597.15	1933.64
597.50	1926.49
597.85	1920.18
598.19	1913.36
598.54	1906.26
598.89	1899.64
599.24	1893.91
599.59	1887.24
599.94	1880.97
600.29	1874.72
600.64	1868.02
600.99	1860.60
601.34	1853.79
601.69	1846.70
602.04	1839.53
602.39	1832.22
602.74	1825.28
603.08	1818.48
603.43	1811.75
603.78	1804.35
604.13	1797.16
604.48	1789.79
604.83	1782.90
605.18	1775.80
605.53	1767.67
605.87	1759.44
606.22	1752.11
606.57	1744.01
606.92	1736.66
607.27	1729.34
607.62	1722.29
607.96	1714.90
608.31	1708.23
608.66	1700.51
609.01	1692.95
609.36	1685.41
609.70	1677.42
610.05	1669.19
610.40	1661.38
610.75	1653.09
611.10	1645.48
611.44	1637.05
611.79	1629.11
612.14	1620.43
612.49	1611.34
612.83	1603.03
613.18	1594.89
613.53	1586.85
613.88	1578.37
614.22	1570.04
614.57	1561.57
614.92	1553.50
615.27	1546.02
615.61	1537.74
615.96	1529.90
616.31	1522.24
616.65	1514.87
617.00	1507.32
617.35	1499.80
617.70	1491.51
618.04	1482.96
618.39	1474.87
618.74	1467.25
619.08	1458.85
619.43	1451.25
619.78	1444.29
620.12	1437.16
620.47	1429.61
620.82	1421.41
621.16	1413.95
621.51	1406.46
621.85	1398.85
622.20	1390.35
622.55	1382.07
622.89	1374.18
623.24	1366.44
623.59	1359.05
623.93	1351.65
624.28	1344.37
624.62	1336.83
624.97	1329.73
625.32	1323.13
625.66	1316.14
626.01	1308.94
626.35	1301.52
626.70	1293.93
627.04	1286.11
627.39	1278.30
627.73	1270.97
628.08	1264.01
628.43	1256.65
628.77	1249.21
629.12	1241.52
629.46	1234.33
629.81	1226.90
630.15	1219.65
630.50	1212.20
630.84	1204.02
631.19	1195.99
631.53	1188.55
631.88	1181.02
632.22	1173.31
632.57	1165.88
632.91	1158.23
633.26	1150.93
633.60	1143.74
633.95	1136.68
634.29	1129.73
634.64	1123.03
634.98	1115.71
635.32	1108.57
635.67	1102.03
636.01	1095.44
636.36	1088.69
636.70	1082.27
637.05	1075.83
637.39	1069.46
637.73	1063.05
638.08	1057.30
638.42	1051.35
638.77	1044.86
639.11	1038.14
639.45	1031.80
639.80	1025.14
640.14	1018.76
640.49	1012.15
640.83	1005.84
641.17	999.47
641.52	993.06
641.86	986.71
642.20	980.90
642.55	974.58
642.89	968.08
643.23	961.57
643.58	955.77
643.92	949.51
644.26	943.25
644.61	937.21
644.95	931.12
645.29	924.29
645.64	917.49
645.98	911.24
646.32	905.56
646.66	899.63
647.01	893.84
647.35	888.13
647.69	882.33
648.04	876.78
648.38	870.99
648.72	865.05
649.06	858.97
649.41	853.01
649.75	846.98
650.09	841.07
650.43	835.23
650.78	829.04
651.12	823.09
651.46	817.41
651.80	811.64
652.14	806.20
652.49	800.99
652.83	795.86
653.17	790.11
653.51	784.27
653.85	778.84
654.20	773.24
654.54	767.28
654.88	761.61
655.22	755.72
655.56	750.02
655.90	744.58
656.25	739.30
656.59	734.03
656.93	729.05
657.27	723.83
657.61	718.45
657.95	713.44
658.29	708.31
658.64	703.09
658.98	697.76
659.32	692.34
659.66	687.03
660.00	681.69
660.34	676.75
660.68	671.90
661.02	666.78
661.36	662.00
661.70	657.51
662.05	653.13
662.39	648.76
662.73	644.36
663.07	639.98
663.41	635.48
663.75	630.92
664.09	626.35
664.43	622.05
664.77	617.88
665.11	613.65
665.45	609.66
665.79	605.60
666.13	601.47
666.47	597.43
666.81	593.34
667.15	589.27
667.49	585.44
667.83	581.55
668.17	577.68
668.51	573.63
668.85	569.57
669.19	565.71
669.53	561.84
669.87	557.97
670.21	554.27
670.55	550.72
670.89	547.32
671.23	543.91
671.57	540.40
671.91	536.85
672.25	533.39
672.58	529.86
672.92	526.45
673.26	523.35
673.60	520.23
673.94	517.09
674.28	514.24
674.62	511.26
674.96	508.23
675.30	505.34
675.64	502.45
675.97	499.76
676.31	496.94
676.65	494.10
676.99	491.36
677.33	488.54
677.67	485.66
678.01	482.64
678.34	479.64
678.68	476.75
679.02	474.00
679.36	471.22
679.70	468.47
680.04	465.68
680.37	462.75
680.71	459.98
681.05	457.45
681.39	454.68
681.73	451.99
682.06	449.48
682.40	446.91
682.74	444.42
683.08	441.87
683.42	439.25
683.75	436.76
684.09	434.24
684.43	431.80
684.77	429.41
685.10	427.08
685.44	424.78
685.78	422.51
686.12	420.30
686.45	418.06
686.79	415.76
687.13	413.57
687.46	411.47
687.80	409.30
688.14	407.05
688.48	405.00
688.81	402.79
689.15	400.66
689.49	398.54
689.82	396.44
690.16	394.33
690.50	392.33
690.83	390.38
691.17	388.44
691.51	386.54
691.84	384.64
692.18	382.74
692.52	380.77
692.85	378.89
693.19	376.99
693.52	375.16
693.86	373.39
694.20	371.64
694.53	369.82
694.87	367.95
695.21	366.14
695.54	364.28
695.88	362.59
696.21	360.84
696.55	359.17
696.88	357.47
697.22	355.84
697.56	354.29
697.89	352.63
698.23	351.02
698.56	349.37
698.90	347.80
699.23	346.12
699.57	344.60
699.90	343.01
700.24	341.46
700.58	339.91
700.91	338.37
701.25	336.89
701.58	335.53
701.92	334.20
702.25	332.80
702.59	331.50
702.92	330.12
703.26	328.83
703.59	327.57
703.93	326.46
704.26	325.20
704.60	323.89
704.93	322.63
705.26	321.36
705.60	320.24
705.93	319.10
706.27	318.07
706.60	316.99
706.94	315.96
707.27	314.83
707.61	313.75
707.94	312.75
708.27	311.65
708.61	310.58
708.94	309.58
709.28	308.64
709.61	307.65
709.94	306.74
710.28	305.70
710.61	304.68
710.95	303.59
711.28	302.65
711.61	301.74
711.95	300.82
712.28	299.88
712.61	298.86
712.95	297.90
713.28	297.02
713.61	296.11
713.95	295.21
714.28	294.40
714.61	293.54
714.95	292.65
715.28	291.81
715.61	290.91
715.95	290.02
716.28	289.17
716.61	288.35
716.95	287.55
717.28	286.82
717.61	286.07
717.94	285.32
718.28	284.50
718.61	283.74
718.94	283.05
719.27	282.42
719.61	281.83
719.94	281.21
720.27	280.52
720.60	279.85
720.94	279.19
721.27	278.60
721.60	278.05
721.93	277.50
722.27	276.98
722.60	276.46
722.93	275.93
723.26	275.41
723.59	274.86
723.93	274.27
724.26	273.75
724.59	273.22
724.92	272.70
725.25	272.20
725.59	271.71
725.92	271.21
726.25	270.68
726.58	270.17
726.91	269.64
727.24	269.16
727.57	268.72
727.91	268.23
728.24	267.77
728.57	267.28
728.90	266.85
729.23	266.32
729.56	265.91
729.89	265.44
730.22	264.94
730.55	264.48
730.89	264.04
731.22	263.55
731.55	263.08
731.88	262.65
732.21	262.27
732.54	261.83
732.87	261.41
733.20	261.02
733.53	260.62
733.86	260.24
734.19	259.84
734.52	259.44
734.85	259.14
735.18	258.69
735.51	258.32
735.84	257.96
736.17	257.65
736.50	257.23
736.83	256.98
737.16	256.65
737.49	256.31
737.82	255.96
738.15	255.61
738.48	255.30
738.81	254.98
739.14	254.64
739.47	254.34
739.80	254.04
740.13	253.73
740.46	253.40
740.79	253.12
741.12	252.83
741.45	252.53
741.78	252.15
742.11	251.87
742.44	251.52
742.77	251.18
743.10	250.86
743.43	250.58
743.75	250.18
744.08	250.04
744.41	249.74
744.74	249.49
745.07	249.25
745.40	249.00
745.73	248.79
746.06	248.53
746.39	248.22
746.71	247.96
747.04	247.70
747.37	247.43
747.70	247.15
748.03	246.90
748.36	246.68
748.68	246.47
749.01	246.26
749.34	246.08
749.67	245.88
750.00	245.67
750.33	245.52
750.65	245.32
750.98	244.99
751.31	244.81
751.64	244.59
751.97	244.44
752.29	244.24
752.62	243.96
752.95	243.72
753.28	243.55
753.60	243.34
753.93	243.17
754.26	243.00
754.59	242.77
754.91	242.57
755.24	242.38
755.57	242.19
755.90	242.00
756.22	241.80
756.55	241.58
756.88	241.37
757.20	241.14
757.53	240.96
757.86	240.79
758.19	240.64
758.51	240.49
758.84	240.27
759.17	240.07
759.49	239.90
759.82	239.81
760.15	239.64
760.47	239.53
760.80	239.34
761.13	239.21
761.45	239.09
761.78	238.94
762.11	238.80
762.43	238.66
762.76	238.51
763.08	238.37
763.41	238.25
763.74	238.14
764.06	237.98
764.39	237.84
764.71	237.68
765.04	237.51
765.37	237.38
765.69	237.25
766.02	237.13
766.34	236.96
766.67	236.80
767.00	236.69
767.32	236.59
767.65	236.50
767.97	236.36
768.30	236.25
768.62	236.13
768.95	235.99
769.27	235.89
769.60	235.80
769.92	235.68
770.25	235.55
770.57	235.43
770.90	235.33
771.22	235.23
771.55	235.13
771.87	235.06
772.20	234.95
772.52	234.90
772.85	234.91
773.17	234.88
773.50	234.79
773.82	234.70
774.15	234.54
774.47	234.42
774.80	234.33
775.12	234.21
775.45	234.15
775.77	234.05
776.09	233.95
776.42	233.85
776.74	233.80
777.07	233.72
777.39	233.62
777.72	233.54
778.04	233.50
778.36	233.44
778.69	233.36
779.01	233.34
779.33	233.23
779.66	233.07
779.98	232.99
780.31	232.87
780.63	232.87
780.95	232.83
781.28	232.75
781.60	232.67
781.92	232.65
782.25	232.59
782.57	232.56
782.89	232.46
783.22	232.38
783.54	232.28
783.86	232.26
784.19	232.18
784.51	232.14
784.83	232.02
785.16	231.97
785.48	231.92
785.80	231.82
786.12	231.77
786.45	231.71
786.77	231.67
787.09	231.66
787.42	231.56
787.74	231.52
788.06	231.49
788.38	231.46
788.71	231.38
789.03	231.36
789.35	231.33
789.67	231.30
789.99	231.28
790.32	231.25
790.64	231.21
790.96	231.27
791.28	231.24
791.61	231.23
791.93	231.19
792.25	231.14
792.57	231.24
792.89	231.21
793.21	231.23
793.54	231.18
793.86	231.12
794.18	231.10
794.50	231.05
794.82	231.01
795.14	230.96
795.47	230.94
795.79	230.88
796.11	230.81
796.43	230.78
796.75	230.75
797.07	230.71
797.39	230.69
797.71	230.57
798.04	230.52
798.36	230.45
798.68	230.41
799.00	230.39
799.32	230.28
799.64	230.25
799.96	230.17
800.28	230.15
800.60	230.16
800.92	230.11
801.24	230.09
801.56	230.08
801.89	230.05
802.21	230.07
802.53	230.02
802.85	230.03
803.17	230.03
803.49	229.97
803.81	229.95
804.13	229.90
804.45	229.89
804.77	229.87
805.09	229.87
805.41	229.86
805.73	229.78
806.05	229.71
806.37	229.68
806.69	229.68
807.01	229.63
807.33	229.59
807.65	229.52
807.97	229.50
808.28	229.49
808.60	229.47
808.92	229.41
809.24	229.45
809.56	229.43
809.88	229.41
810.20	229.38
810.52	229.38
810.84	229.36
811.16	229.33
811.48	229.29
811.80	229.29
812.12	229.26
812.43	229.25
812.75	229.25
813.07	229.19
813.39	229.11
813.71	229.08
814.03	229.03
814.35	229.05
814.67	229.02
814.98	228.95
815.30	228.92
815.62	228.88
815.94	228.81
816.26	228.84
816.58	228.78
816.89	228.80
817.21	228.77
817.53	228.75
817.85	228.72
818.17	228.74
818.48	228.71
818.80	228.69
819.12	228.68
819.44	228.67
819.76	228.65
820.07	228.67
820.39	228.67
820.71	228.71
821.03	228.68
821.34	228.68
821.66	228.69
821.98	228.72
822.30	228.68
822.61	228.72
822.93	228.66
823.25	228.66
823.57	228.61
823.88	228.62
824.20	228.61
824.52	228.62
824.83	228.56
825.15	228.54
825.47	228.55
825.79	228.55
826.10	228.55
826.42	228.55
826.74	228.56
827.05	228.57
827.37	228.53
827.69	228.51
828.00	228.49
828.32	228.48
828.64	228.43
828.95	228.49
829.27	228.45
829.58	228.44
829.90	228.45
830.22	228.45
830.53	228.37
830.85	228.36
831.17	228.33
831.48	228.34
831.80	228.36
832.11	228.33
832.43	228.31
832.75	228.29
833.06	228.33
833.38	228.28
833.69	228.29
834.01	228.31
834.32	228.30
834.64	228.29
834.96	228.30
835.27	228.29
835.59	228.25
835.90	228.25
836.22	228.21
836.53	228.15
836.85	228.12
837.16	228.27
837.48	228.24
837.79	228.26
838.11	228.26
838.42	228.23
838.74	228.24
839.05	228.21
839.37	228.20
839.68	228.11
840.00	228.07
840.31	228.04
840.63	227.98
840.94	227.97
841.26	227.93
841.57	227.90
841.88	227.92
842.20	227.93
842.51	227.91
842.83	227.90
843.14	228.00
843.46	228.01
843.77	227.94
844.08	227.95
844.40	227.89
844.71	227.85
845.03	227.85
845.34	227.82
845.65	227.82
845.97	227.80
846.28	227.84
846.60	227.86
846.91	227.87
847.22	227.89
847.54	227.92
847.85	227.91
848.16	227.93
848.48	227.92
848.79	227.90
849.10	227.88
849.42	227.93
849.73	227.81
850.04	227.79
850.36	227.73
850.67	227.73
850.98	227.74
851.30	227.76
851.61	227.73
851.92	227.73
852.23	227.78
852.55	227.78
852.86	227.74
853.17	227.73
853.49	227.75
853.80	227.76
854.11	227.71
854.42	227.74
854.74	227.70
855.05	227.67
855.36	227.66
855.67	227.65
855.99	227.61
856.30	227.77
856.61	227.75
856.92	227.79
857.23	227.78
857.55	227.76
857.86	227.74
858.17	227.75
858.48	227.76
858.79	227.72
859.11	227.71
859.42	227.71
859.73	227.71
860.04	227.69
860.35	227.62
860.66	227.64
860.98	227.65
861.29	227.66
861.60	227.65
861.91	227.66
862.22	227.66
862.53	227.66
862.84	227.53
863.16	227.55
863.47	227.52
863.78	227.52
864.09	227.53
864.40	227.55
864.71	227.55
865.02	227.55
865.33	227.55
865.64	227.56
865.95	227.59
866.27	227.70
866.58	227.67
866.89	227.72
867.20	227.75
867.51	227.69
867.82	227.69
868.13	227.71
868.44	227.68
868.75	227.70
869.06	227.69
869.37	227.68
869.68	227.67
869.99	227.69
870.30	227.70
870.61	227.72
870.92	227.70
871.23	227.69
871.54	227.69
871.85	227.73
872.16	227.72
872.47	227.68
872.78	227.60
873.09	227.63
873.40	227.60
873.71	227.59
874.02	227.64
874.33	227.63
874.64	227.64
874.95	227.64
875.26	227.59
875.56	227.58
875.87	227.56
876.18	227.55
876.49	227.64
876.80	227.60
877.11	227.60
877.42	227.61
877.73	227.60
878.04	227.59
878.35	227.60
878.66	227.61
878.96	227.58
879.27	227.54
879.58	227.53
879.89	227.52
880.20	227.52
880.51	227.48
880.82	227.45
881.12	227.44
881.43	227.40
881.74	227.40
882.05	227.40
882.36	227.39
882.67	227.39
882.97	227.26
883.28	227.27
883.59	227.23
883.90	227.23
884.21	227.23
884.51	227.24
884.82	227.18
885.13	227.15
885.44	227.19
885.74	227.20
886.05	227.19
886.36	227.19
886.67	227.15
886.98	227.20
887.28	227.21
887.59	227.18
887.90	227.19
888.20	227.18
888.51	227.15
888.82	227.13
889.13	227.13
889.43	227.18
889.74	227.18
890.05	227.18
890.35	227.15
890.66	227.14
890.97	227.10
891.28	227.12
891.58	227.14
891.89	227.11
892.20	227.04
892.50	227.03
892.81	227.02
893.12	227.03
893.42	226.99
893.73	227.03
894.04	227.02
894.34	227.02
894.65	227.04
894.95	227.04
895.26	227.05
895.57	227.11
895.87	227.02
896.18	227.03
896.48	227.05
896.79	227.07
897.10	227.10
897.40	227.12
897.71	227.09
898.01	227.05
898.32	227.10
898.63	227.14
898.93	227.19
899.24	227.19
899.54	227.22
899.85	227.20
900.15	227.17
900.46	227.20
900.76	227.22
901.07	227.22
901.38	227.23
901.68	227.26
901.99	227.22
902.29	227.25
902.60	227.23
902.90	227.22
903.21	227.22
903.51	227.24
903.82	227.25
904.12	227.25
904.43	227.30
904.73	227.29
905.03	227.28
905.34	227.34
905.64	227.33
905.95	227.30
906.25	227.31
906.56	227.33
906.86	227.37
907.17	227.36
907.47	227.34
907.77	227.36
908.08	227.31
908.38	227.33
908.69	227.33
908.99	227.38
909.30	227.36
909.60	227.33
909.90	227.35
910.21	227.32
910.51	227.33
910.81	227.30
911.12	227.30
911.42	227.30
911.73	227.20
912.03	227.21
912.33	227.23
912.64	227.23
912.94	227.22
913.24	227.17
913.55	227.17
913.85	227.17
914.15	227.18
914.46	227.20
914.76	227.16
915.06	227.15
915.37	227.09
915.67	227.14
915.97	227.14
916.27	227.11
916.58	227.10
916.88	227.08
917.18	227.06
917.49	227.09
917.79	227.08
918.09	227.11
918.39	227.12
918.70	227.10
919.00	227.10
919.30	227.13
919.60	227.13
919.91	227.10
920.21	227.11
920.51	227.07
920.81	227.08
921.12	227.11
921.42	227.11
921.72	227.14
922.02	227.11
922.32	227.15
922.63	227.12
922.93	227.17
923.23	227.17
923.53	227.16
923.83	227.10
924.13	227.09
924.44	227.06
924.74	227.09
925.04	227.11
925.34	227.08
925.64	227.06
925.94	227.05
926.24	227.09
926.55	227.06
926.85	227.08
927.15	227.06
927.45	227.04
927.75	227.03
928.05	227.03
928.35	227.01
928.65	226.99
928.95	227.00
929.26	226.97
929.56	226.99
929.86	227.00
930.16	227.00
930.46	227.02
930.76	227.04
931.06	226.99
931.36	226.97
931.66	227.02
931.96	227.00
932.26	227.00
932.56	226.97
932.86	227.00
933.16	227.00
933.46	227.03
933.76	227.03
934.06	227.07
934.36	227.11
934.66	227.12
934.96	227.13
935.26	227.13
935.56	227.15
935.86	227.14
936.16	227.14
936.46	227.10
936.76	227.10
937.06	227.09
937.36	227.07
937.66	227.08
937.96	227.07
938.26	227.05
938.56	227.07
938.86	227.10
939.16	227.13
939.46	227.15
939.76	227.10
940.06	227.11
940.35	227.09
940.65	227.03
940.95	227.05
941.25	227.05
941.55	227.05
941.85	227.03
942.15	227.04
942.45	227.08
942.75	227.12
943.04	227.12
943.34	227.15
943.64	227.17
943.94	227.17
944.24	227.16
944.54	227.16
944.84	227.15
945.13	227.12
945.43	227.09
945.73	227.12
946.03	227.13
946.33	227.09
946.62	227.08
946.92	227.08
947.22	227.08
947.52	227.07
947.82	227.10
948.11	227.09
948.41	227.09
948.71	227.05
949.01	227.03
949.31	227.06
949.60	227.01
949.90	227.02
950.20	227.03
950.50	227.03
950.79	227.03
951.09	227.05
951.39	227.06
951.69	227.04
951.98	227.03
952.28	227.01
952.58	227.04
952.87	227.06
953.17	227.06
953.47	227.01
953.76	227.00
954.06	226.96
954.36	226.94
954.66	226.92
954.95	226.95
955.25	226.94
955.55	226.90
955.84	226.93
956.14	226.93
956.44	226.90
956.73	226.86
957.03	226.88
957.32	226.85
957.62	226.86
957.92	226.86
958.21	226.84
958.51	226.97
958.81	226.93
959.10	226.91
959.40	226.94
959.69	226.93
959.99	226.94
960.29	226.95
960.58	226.90
960.88	226.93
961.17	226.91
961.47	226.90
961.76	226.90
962.06	226.90
962.36	226.88
962.65	226.85
962.95	226.89
963.24	226.87
963.54	226.89
963.83	226.85
964.13	226.84
964.42	226.82
964.72	226.74
965.01	226.75
965.31	226.74
965.60	226.71
965.90	226.81
966.19	226.78
966.49	226.79
966.78	226.84
967.08	226.85
967.37	226.85
967.67	226.87
967.96	226.89
968.26	226.90
968.55	226.89
968.85	226.91
969.14	226.89
969.43	226.90
969.73	226.88
970.02	226.90
970.32	226.93
970.61	226.94
970.91	226.91
971.20	226.92
971.49	226.94
971.79	226.98
972.08	226.93
972.38	226.95
972.67	226.96
972.96	227.02
973.26	227.02
973.55	227.07
973.85	227.09
974.14	227.10
974.43	227.10
974.73	227.13
975.02	227.13
975.31	227.15
975.61	227.17
975.90	227.17
976.19	227.16
976.49	227.16
976.78	227.13
977.07	227.16
977.37	227.18
977.66	227.18
977.95	227.15
978.24	227.14
978.54	227.16
978.83	227.15
979.12	227.09
979.42	227.09
979.71	227.10
980.00	227.09
980.29	227.10
980.59	227.09
980.88	227.09
981.17	227.08
981.46	227.10
981.76	227.07
982.05	227.11
982.34	227.14
982.63	227.18
982.93	227.23
983.22	227.22
983.51	227.21
983.80	227.23
984.09	227.22
984.39	227.21
984.68	227.22
984.97	227.21
985.26	227.20
985.55	227.19
985.85	227.12
986.14	227.14
986.43	227.13
986.72	227.12
987.01	227.10
987.30	227.11
987.59	227.08
987.89	227.11
988.18	227.07
988.47	227.02
988.76	227.00
989.05	226.99
989.34	226.97
989.63	227.01
989.92	226.97
990.22	226.97
990.51	226.95
990.80	226.91
991.09	226.92
991.38	226.92
991.67	226.91
991.96	226.90
992.25	226.85
992.54	226.85
992.83	226.83
993.12	226.81
993.41	226.83
993.70	226.87
993.99	226.87
994.28	226.90
994.58	226.92
994.87	226.90
995.16	226.88
995.45	226.88
995.74	226.84
996.03	226.88
996.32	226.86
996.61	226.89
996.90	226.89
997.19	226.90
997.48	226.91
997.77	226.87
998.06	226.89
998.34	226.92
998.63	226.90
998.92	226.90
999.21	226.94
999.50	226.93
999.79	226.88
1000.08	226.87
1000.37	226.84
1000.66	226.82
1000.95	226.86
1001.24	226.88
1001.53	226.91
1001.82	226.88
1002.11	226.86
1002.40	226.90
1002.68	226.89
1002.97	226.95
1003.26	226.94
1003.55	226.92
1003.84	226.93
1004.13	226.95
1004.42	226.92
1004.71	226.91
1004.99	226.90
1005.28	226.92
1005.57	226.93
1005.86	226.94
1006.15	226.95
1006.44	226.94
1006.72	226.95
1007.01	226.92
1007.30	226.92
1007.59	226.90
1007.88	226.90
1008.17	226.88
1008.45	226.86
1008.74	226.84
1009.03	226.79
1009.32	226.79
1009.60	226.82
1009.89	226.83
1010.18	226.77
1010.47	226.78
1010.76	226.81
1011.04	226.84
1011.33	226.84
1011.62	226.83
1011.91	226.82
1012.19	226.83
1012.48	226.85
1012.77	226.86
1013.05	226.91
1013.34	226.93
1013.63	226.93
1013.92	226.94
1014.20	226.93
1014.49	226.96
1014.78	226.98
1015.06	226.95
1015.35	226.97
1015.64	226.94
1015.92	226.95
1016.21	226.96
1016.50	226.97
1016.78	226.97
1017.07	226.98
1017.36	226.93
1017.64	226.92
1017.93	226.95
1018.22	226.94
1018.50	226.93
1018.79	226.93
1019.08	226.85
1019.36	226.82
1019.65	226.81
1019.93	226.85
1020.22	226.89
1020.51	226.92
1020.79	226.92
1021.08	226.97
1021.36	226.82
1021.65	227.24
1021.94	226.18
1022.22	226.96
1022.51	226.59
1022.79	227.48
1023.08	227.18
1023.36	228.41
1023.65	226.78
>>>>>End Processed Spectral Data<<<<<
