SpectraSuite Data File
++++++++++++++++++++++++++++++++++++
Date: Fri Feb 01 15:00:54 EST 2013
User: group
Dark Spectrum Present: No
Reference Spectrum Present: No
Number of Sampled Component Spectra: 1
Spectrometers: USB2E7196
Integration Time (usec): 35000 (USB2E7196)
Spectra Averaged: 100 (USB2E7196)
Boxcar Smoothing: 10 (USB2E7196)
Correct for Electrical Dark: No (USB2E7196)
Strobe/Lamp Enabled: No (USB2E7196)
Correct for Detector Non-linearity: No (USB2E7196)
Correct for Stray Light: No (USB2E7196)
Number of Pixels in Processed Spectrum: 2048
>>>>>Begin Processed Spectral Data<<<<<
339.09	0.00
339.48	215.40
339.86	216.40
340.24	218.35
340.63	219.56
341.01	222.37
341.39	222.23
341.78	223.04
342.16	224.46
342.54	225.52
342.93	213.54
343.31	224.34
343.69	224.85
344.07	225.32
344.46	225.71
344.84	226.09
345.22	226.32
345.60	226.55
345.99	226.75
346.37	226.93
346.75	227.01
347.13	227.10
347.52	227.15
347.90	227.21
348.28	227.25
348.66	227.28
349.05	227.27
349.43	227.27
349.81	227.30
350.19	227.32
350.57	227.41
350.96	227.49
351.34	227.56
351.72	227.69
352.10	227.78
352.48	227.90
352.87	227.95
353.25	228.03
353.63	228.15
354.01	228.24
354.39	228.28
354.77	228.37
355.15	228.47
355.54	228.53
355.92	228.58
356.30	228.68
356.68	228.81
357.06	228.89
357.44	228.99
357.82	229.10
358.20	229.18
358.58	229.23
358.97	229.28
359.35	229.36
359.73	229.42
360.11	229.48
360.49	229.50
360.87	229.53
361.25	229.61
361.63	229.64
362.01	229.68
362.39	229.70
362.77	229.73
363.15	229.74
363.53	229.77
363.91	229.78
364.29	229.76
364.67	229.68
365.05	229.68
365.43	229.68
365.81	229.66
366.19	229.72
366.57	229.74
366.95	229.74
367.33	229.70
367.71	229.68
368.09	229.68
368.47	229.66
368.85	229.68
369.23	229.63
369.61	229.56
369.99	229.55
370.37	229.54
370.75	229.53
371.13	229.46
371.51	229.38
371.89	229.36
372.27	229.33
372.65	229.30
373.03	229.25
373.41	229.18
373.78	229.10
374.16	228.96
374.54	228.88
374.92	228.79
375.30	228.74
375.68	228.63
376.06	228.56
376.44	228.48
376.82	228.38
377.19	228.33
377.57	228.25
377.95	228.17
378.33	228.07
378.71	227.93
379.09	227.88
379.47	227.83
379.84	227.73
380.22	227.64
380.60	227.54
380.98	227.47
381.36	227.39
381.73	227.30
382.11	227.25
382.49	227.16
382.87	227.08
383.25	226.99
383.62	227.07
384.00	226.96
384.38	226.87
384.76	226.83
385.13	226.79
385.51	226.74
385.89	226.65
386.27	226.61
386.64	226.56
387.02	226.52
387.40	226.45
387.78	226.44
388.15	226.41
388.53	226.36
388.91	226.34
389.29	226.31
389.66	226.31
390.04	226.31
390.42	226.29
390.79	226.27
391.17	226.26
391.55	226.15
391.92	226.18
392.30	226.24
392.68	226.22
393.05	226.20
393.43	226.20
393.81	226.21
394.18	226.22
394.56	226.23
394.94	226.26
395.31	226.30
395.69	226.33
396.06	226.36
396.44	226.42
396.82	226.45
397.19	226.53
397.57	226.60
397.95	226.64
398.32	226.69
398.70	226.73
399.07	226.81
399.45	226.87
399.82	226.93
400.20	227.01
400.58	227.09
400.95	227.15
401.33	227.26
401.70	227.44
402.08	227.54
402.45	227.68
402.83	227.82
403.20	227.93
403.58	228.05
403.95	228.19
404.33	228.35
404.71	228.48
405.08	228.67
405.46	228.82
405.83	229.01
406.21	229.17
406.58	229.43
406.96	229.61
407.33	229.82
407.70	230.05
408.08	230.29
408.45	230.56
408.83	230.81
409.20	231.03
409.58	231.21
409.95	231.50
410.33	231.79
410.70	232.04
411.08	232.39
411.45	232.72
411.82	233.06
412.20	233.41
412.57	233.85
412.95	234.12
413.32	234.52
413.69	234.93
414.07	235.39
414.44	235.84
414.82	236.32
415.19	236.88
415.56	237.43
415.94	238.00
416.31	238.60
416.68	239.24
417.06	240.00
417.43	240.70
417.81	241.44
418.18	242.23
418.55	243.09
418.93	243.95
419.30	244.83
419.67	245.76
420.04	246.73
420.42	247.69
420.79	248.89
421.16	250.08
421.54	251.26
421.91	252.46
422.28	253.66
422.66	254.99
423.03	256.26
423.40	257.58
423.77	258.99
424.15	260.42
424.52	261.90
424.89	263.50
425.26	265.05
425.64	266.49
426.01	268.03
426.38	269.63
426.75	271.26
427.13	272.97
427.50	274.75
427.87	276.62
428.24	278.49
428.61	280.20
428.99	282.11
429.36	284.20
429.73	286.27
430.10	288.34
430.47	290.42
430.85	292.54
431.22	294.81
431.59	297.17
431.96	299.42
432.33	301.88
432.70	304.25
433.08	307.05
433.45	309.69
433.82	312.35
434.19	315.28
434.56	318.10
434.93	320.82
435.30	323.45
435.68	326.34
436.05	329.20
436.42	331.99
436.79	334.53
437.16	337.20
437.53	340.08
437.90	342.81
438.27	345.53
438.64	348.36
439.01	350.95
439.38	353.19
439.75	355.32
440.13	357.84
440.50	360.20
440.87	362.06
441.24	364.02
441.61	366.21
441.98	367.66
442.35	369.50
442.72	371.34
443.09	373.19
443.46	374.17
443.83	374.72
444.20	375.23
444.57	376.05
444.94	376.36
445.31	376.69
445.68	377.09
446.05	377.15
446.42	376.75
446.79	376.31
447.16	375.84
447.53	375.53
447.90	374.37
448.27	373.20
448.64	371.59
449.01	370.42
449.37	368.42
449.74	366.55
450.11	364.26
450.48	361.77
450.85	359.26
451.22	357.13
451.59	355.12
451.96	353.18
452.33	350.60
452.70	348.23
453.07	345.38
453.43	342.51
453.80	339.74
454.17	337.04
454.54	334.50
454.91	331.80
455.28	329.16
455.65	326.63
456.02	324.19
456.38	322.03
456.75	319.37
457.12	317.11
457.49	314.87
457.86	312.70
458.23	310.82
458.59	308.73
458.96	306.65
459.33	304.79
459.70	302.97
460.07	301.44
460.43	299.74
460.80	298.10
461.17	296.64
461.54	295.18
461.91	293.80
462.27	292.38
462.64	291.14
463.01	289.78
463.38	288.53
463.74	287.11
464.11	285.96
464.48	284.94
464.85	283.82
465.21	282.99
465.58	282.04
465.95	280.91
466.32	279.99
466.68	279.06
467.05	278.14
467.42	277.25
467.78	276.31
468.15	275.47
468.52	274.79
468.88	273.91
469.25	273.11
469.62	272.48
469.98	271.76
470.35	271.07
470.72	270.45
471.08	269.77
471.45	269.23
471.82	268.70
472.18	268.07
472.55	267.64
472.92	267.08
473.28	266.62
473.65	266.19
474.02	265.73
474.38	265.40
474.75	265.08
475.11	264.72
475.48	264.46
475.85	264.17
476.21	263.89
476.58	263.72
476.94	263.54
477.31	263.30
477.67	263.15
478.04	263.05
478.41	262.94
478.77	262.98
479.14	262.93
479.50	262.92
479.87	263.01
480.23	263.02
480.60	263.06
480.96	263.19
481.33	263.40
481.69	263.61
482.06	263.76
482.42	263.96
482.79	264.17
483.15	264.48
483.52	264.84
483.88	265.22
484.25	265.60
484.61	266.01
484.98	266.44
485.34	266.98
485.71	267.55
486.07	268.17
486.44	268.69
486.80	269.37
487.17	270.07
487.53	270.82
487.90	271.70
488.26	272.66
488.62	273.58
488.99	274.53
489.35	275.57
489.72	276.68
490.08	277.85
490.44	279.09
490.81	280.42
491.17	281.78
491.54	283.25
491.90	284.78
492.26	286.47
492.63	288.23
492.99	289.99
493.36	291.87
493.72	293.94
494.08	296.10
494.45	298.31
494.81	300.68
495.17	303.12
495.54	305.67
495.90	308.29
496.26	311.10
496.63	314.05
496.99	317.12
497.35	320.35
497.72	323.72
498.08	327.24
498.44	330.87
498.80	334.74
499.17	338.74
499.53	342.93
499.89	347.23
500.26	351.70
500.62	356.37
500.98	361.35
501.34	366.39
501.71	371.65
502.07	377.09
502.43	382.67
502.79	388.48
503.16	394.54
503.52	400.83
503.88	407.24
504.24	413.82
504.60	420.71
504.97	427.86
505.33	435.19
505.69	442.84
506.05	450.63
506.41	458.55
506.78	466.67
507.14	475.02
507.50	483.69
507.86	492.75
508.22	501.88
508.59	511.07
508.95	520.64
509.31	530.45
509.67	540.60
510.03	550.86
510.39	561.40
510.75	572.18
511.12	583.14
511.48	594.36
511.84	605.78
512.20	617.28
512.56	629.27
512.92	641.44
513.28	653.75
513.64	666.24
514.00	678.94
514.37	691.91
514.73	705.02
515.09	718.18
515.45	731.39
515.81	745.03
516.17	759.03
516.53	773.17
516.89	787.35
517.25	801.54
517.61	816.00
517.97	830.45
518.33	844.85
518.69	859.61
519.05	874.65
519.41	889.90
519.77	905.45
520.13	920.87
520.49	936.30
520.85	951.82
521.21	967.51
521.57	983.74
521.93	999.63
522.29	1016.05
522.65	1032.32
523.01	1048.68
523.37	1064.82
523.73	1081.13
524.09	1097.30
524.45	1113.65
524.81	1130.29
525.17	1147.22
525.53	1164.13
525.89	1181.06
526.25	1197.88
526.61	1214.35
526.97	1231.14
527.33	1247.78
527.68	1264.40
528.04	1280.89
528.40	1297.62
528.76	1314.83
529.12	1331.54
529.48	1348.36
529.84	1364.51
530.20	1381.25
530.56	1398.28
530.91	1415.75
531.27	1432.56
531.63	1449.04
531.99	1465.77
532.35	1481.84
532.71	1497.67
533.07	1514.13
533.42	1530.19
533.78	1546.38
534.14	1562.83
534.50	1578.28
534.86	1594.23
535.21	1609.42
535.57	1625.55
535.93	1641.10
536.29	1655.99
536.65	1671.15
537.00	1686.06
537.36	1701.49
537.72	1716.02
538.08	1730.44
538.44	1744.25
538.79	1758.12
539.15	1772.03
539.51	1785.80
539.87	1800.26
540.22	1814.21
540.58	1827.97
540.94	1841.46
541.29	1854.62
541.65	1867.34
542.01	1880.65
542.37	1892.94
542.72	1905.62
543.08	1917.39
543.44	1929.89
543.79	1941.13
544.15	1952.19
544.51	1963.80
544.87	1974.74
545.22	1985.55
545.58	1995.87
545.94	2005.67
546.29	2015.57
546.65	2025.43
547.01	2034.77
547.36	2043.55
547.72	2052.02
548.07	2059.92
548.43	2068.18
548.79	2076.11
549.14	2083.69
549.50	2091.13
549.86	2098.89
550.21	2106.12
550.57	2113.39
550.92	2119.86
551.28	2127.08
551.64	2134.15
551.99	2140.80
552.35	2146.92
552.70	2153.16
553.06	2159.20
553.41	2165.76
553.77	2171.80
554.13	2177.84
554.48	2183.94
554.84	2189.21
555.19	2194.55
555.55	2199.73
555.90	2203.97
556.26	2208.74
556.61	2213.45
556.97	2217.42
557.32	2221.55
557.68	2225.78
558.03	2229.98
558.39	2233.74
558.74	2238.12
559.10	2241.79
559.45	2245.33
559.81	2249.72
560.16	2253.45
560.52	2256.57
560.87	2259.89
561.23	2262.38
561.58	2265.24
561.94	2267.70
562.29	2270.16
562.64	2272.59
563.00	2275.17
563.35	2278.76
563.71	2281.97
564.06	2285.08
564.42	2288.00
564.77	2290.15
565.12	2292.04
565.48	2293.72
565.83	2295.50
566.19	2296.85
566.54	2297.96
566.89	2299.00
567.25	2299.31
567.60	2300.56
567.96	2302.05
568.31	2302.65
568.66	2303.67
569.02	2304.06
569.37	2304.13
569.72	2304.75
570.08	2304.86
570.43	2304.64
570.78	2303.73
571.14	2301.92
571.49	2300.46
571.84	2299.92
572.20	2298.81
572.55	2297.84
572.90	2296.04
573.26	2294.36
573.61	2292.44
573.96	2290.29
574.31	2287.08
574.67	2284.04
575.02	2280.17
575.37	2276.72
575.72	2272.77
576.08	2269.34
576.43	2265.99
576.78	2262.19
577.13	2259.02
577.49	2255.81
577.84	2252.20
578.19	2248.50
578.54	2244.63
578.90	2240.16
579.25	2234.57
579.60	2229.59
579.95	2224.28
580.30	2219.36
580.66	2214.21
581.01	2209.26
581.36	2204.19
581.71	2199.92
582.06	2195.21
582.42	2190.64
582.77	2185.28
583.12	2180.54
583.47	2175.59
583.82	2170.30
584.17	2165.14
584.53	2159.40
584.88	2153.63
585.23	2147.72
585.58	2142.04
585.93	2136.60
586.28	2131.81
586.63	2126.57
586.98	2121.35
587.34	2116.78
587.69	2111.82
588.04	2106.39
588.39	2100.51
588.74	2094.10
589.09	2087.73
589.44	2080.95
589.79	2074.96
590.14	2069.15
590.49	2062.51
590.84	2056.09
591.19	2050.00
591.54	2043.35
591.89	2035.86
592.25	2028.89
592.60	2021.59
592.95	2013.91
593.30	2006.38
593.65	1998.67
594.00	1991.58
594.35	1984.28
594.70	1976.04
595.05	1968.55
595.40	1961.12
595.75	1953.44
596.10	1947.01
596.45	1940.19
596.80	1933.78
597.15	1926.93
597.50	1919.74
597.85	1913.34
598.19	1906.71
598.54	1899.63
598.89	1892.92
599.24	1887.04
599.59	1880.34
599.94	1874.16
600.29	1867.69
600.64	1861.17
600.99	1853.63
601.34	1846.75
601.69	1839.63
602.04	1832.65
602.39	1825.39
602.74	1818.57
603.08	1811.95
603.43	1805.36
603.78	1798.17
604.13	1790.98
604.48	1783.60
604.83	1776.89
605.18	1769.65
605.53	1761.48
605.87	1753.28
606.22	1746.10
606.57	1738.13
606.92	1730.81
607.27	1723.45
607.62	1716.63
607.96	1709.24
608.31	1702.60
608.66	1694.84
609.01	1687.37
609.36	1679.78
609.70	1671.80
610.05	1663.62
610.40	1655.78
610.75	1647.30
611.10	1639.75
611.44	1631.53
611.79	1623.61
612.14	1614.73
612.49	1605.70
612.83	1597.42
613.18	1589.42
613.53	1581.31
613.88	1572.75
614.22	1564.48
614.57	1556.03
614.92	1548.00
615.27	1540.42
615.61	1532.14
615.96	1524.26
616.31	1516.57
616.65	1509.24
617.00	1501.61
617.35	1494.12
617.70	1485.81
618.04	1477.25
618.39	1469.08
618.74	1461.42
619.08	1453.24
619.43	1445.87
619.78	1439.10
620.12	1431.92
620.47	1424.37
620.82	1416.15
621.16	1408.74
621.51	1401.22
621.85	1393.70
622.20	1385.19
622.55	1376.94
622.89	1369.14
623.24	1361.62
623.59	1354.36
623.93	1346.94
624.28	1339.79
624.62	1332.20
624.97	1325.12
625.32	1318.38
625.66	1311.21
626.01	1304.01
626.35	1296.53
626.70	1288.73
627.04	1280.99
627.39	1273.30
627.73	1265.95
628.08	1259.08
628.43	1251.81
628.77	1244.34
629.12	1236.73
629.46	1229.61
629.81	1222.19
630.15	1215.02
630.50	1207.60
630.84	1199.32
631.19	1191.40
631.53	1183.97
631.88	1176.60
632.22	1169.01
632.57	1161.91
632.91	1154.45
633.26	1147.10
633.60	1139.81
633.95	1132.83
634.29	1125.89
634.64	1119.30
634.98	1111.97
635.32	1104.94
635.67	1098.40
636.01	1091.80
636.36	1085.12
636.70	1078.61
637.05	1072.08
637.39	1065.64
637.73	1059.19
638.08	1053.48
638.42	1047.57
638.77	1041.15
639.11	1034.51
639.45	1028.26
639.80	1021.59
640.14	1015.22
640.49	1008.72
640.83	1002.53
641.17	996.35
641.52	990.02
641.86	983.67
642.20	977.86
642.55	971.61
642.89	965.16
643.23	958.75
643.58	952.95
643.92	946.82
644.26	940.83
644.61	934.88
644.95	928.85
645.29	922.19
645.64	915.44
645.98	909.11
646.32	903.34
646.66	897.30
647.01	891.46
647.35	885.81
647.69	880.02
648.04	874.42
648.38	868.62
648.72	862.53
649.06	856.41
649.41	850.57
649.75	844.53
650.09	838.62
650.43	832.86
650.78	826.69
651.12	820.75
651.46	815.03
651.80	809.16
652.14	803.76
652.49	798.48
652.83	793.36
653.17	787.64
653.51	781.92
653.85	776.49
654.20	770.92
654.54	764.95
654.88	759.28
655.22	753.46
655.56	747.78
655.90	742.40
656.25	737.15
656.59	731.88
656.93	726.84
657.27	721.73
657.61	716.32
657.95	711.23
658.29	706.18
658.64	701.02
658.98	695.85
659.32	690.47
659.66	685.30
660.00	679.97
660.34	675.11
660.68	670.24
661.02	665.23
661.36	660.56
661.70	656.06
662.05	651.66
662.39	647.39
662.73	642.93
663.07	638.57
663.41	634.11
663.75	629.58
664.09	625.04
664.43	620.68
664.77	616.57
665.11	612.33
665.45	608.27
665.79	604.18
666.13	600.12
666.47	596.03
666.81	591.87
667.15	587.85
667.49	583.98
667.83	580.24
668.17	576.33
668.51	572.24
668.85	568.23
669.19	564.47
669.53	560.59
669.87	556.79
670.21	553.14
670.55	549.61
670.89	546.22
671.23	542.74
671.57	539.26
671.91	535.75
672.25	532.31
672.58	528.81
672.92	525.46
673.26	522.27
673.60	519.21
673.94	516.15
674.28	513.20
674.62	510.29
674.96	507.19
675.30	504.30
675.64	501.41
675.97	498.71
676.31	495.82
676.65	492.94
676.99	490.23
677.33	487.42
677.67	484.59
678.01	481.59
678.34	478.68
678.68	475.83
679.02	473.04
679.36	470.35
679.70	467.62
680.04	464.87
680.37	462.07
680.71	459.26
681.05	456.67
681.39	454.02
681.73	451.41
682.06	448.90
682.40	446.41
682.74	443.94
683.08	441.38
683.42	438.81
683.75	436.36
684.09	433.87
684.43	431.39
684.77	428.95
685.10	426.62
685.44	424.41
685.78	422.13
686.12	419.91
686.45	417.63
686.79	415.38
687.13	413.22
687.46	411.08
687.80	408.97
688.14	406.74
688.48	404.69
688.81	402.41
689.15	400.26
689.49	398.10
689.82	396.04
690.16	394.00
690.50	392.08
690.83	390.12
691.17	388.17
691.51	386.30
691.84	384.49
692.18	382.54
692.52	380.56
692.85	378.66
693.19	376.79
693.52	374.94
693.86	373.15
694.20	371.34
694.53	369.53
694.87	367.69
695.21	365.94
695.54	364.12
695.88	362.41
696.21	360.68
696.55	359.01
696.88	357.30
697.22	355.63
697.56	354.03
697.89	352.36
698.23	350.72
698.56	349.11
698.90	347.47
699.23	345.85
699.57	344.27
699.90	342.74
700.24	341.23
700.58	339.72
700.91	338.20
701.25	336.76
701.58	335.37
701.92	333.99
702.25	332.61
702.59	331.24
702.92	329.94
703.26	328.68
703.59	327.40
703.93	326.25
704.26	325.06
704.60	323.71
704.93	322.44
705.26	321.20
705.60	320.04
705.93	318.91
706.27	317.90
706.60	316.85
706.94	315.78
707.27	314.63
707.61	313.58
707.94	312.63
708.27	311.53
708.61	310.49
708.94	309.53
709.28	308.60
709.61	307.67
709.94	306.72
710.28	305.68
710.61	304.73
710.95	303.66
711.28	302.71
711.61	301.76
711.95	300.85
712.28	299.91
712.61	298.96
712.95	298.05
713.28	297.19
713.61	296.32
713.95	295.42
714.28	294.59
714.61	293.73
714.95	292.85
715.28	292.02
715.61	291.12
715.95	290.27
716.28	289.35
716.61	288.50
716.95	287.69
717.28	287.00
717.61	286.23
717.94	285.49
718.28	284.71
718.61	284.04
718.94	283.38
719.27	282.75
719.61	282.08
719.94	281.43
720.27	280.66
720.60	280.02
720.94	279.42
721.27	278.82
721.60	278.26
721.93	277.70
722.27	277.15
722.60	276.62
722.93	276.01
723.26	275.52
723.59	274.99
723.93	274.50
724.26	273.93
724.59	273.38
724.92	272.86
725.25	272.36
725.59	271.84
725.92	271.36
726.25	270.87
726.58	270.39
726.91	269.91
727.24	269.48
727.57	268.99
727.91	268.50
728.24	268.06
728.57	267.59
728.90	267.09
729.23	266.61
729.56	266.22
729.89	265.78
730.22	265.28
730.55	264.80
730.89	264.34
731.22	263.83
731.55	263.39
731.88	262.97
732.21	262.55
732.54	262.11
732.87	261.69
733.20	261.30
733.53	260.88
733.86	260.50
734.19	260.08
734.52	259.68
734.85	259.36
735.18	258.96
735.51	258.54
735.84	258.19
736.17	257.84
736.50	257.38
736.83	257.12
737.16	256.78
737.49	256.43
737.82	256.07
738.15	255.78
738.48	255.43
738.81	255.11
739.14	254.76
739.47	254.45
739.80	254.09
740.13	253.75
740.46	253.43
740.79	253.08
741.12	252.78
741.45	252.50
741.78	252.12
742.11	251.80
742.44	251.51
742.77	251.20
743.10	250.85
743.43	250.57
743.75	250.16
744.08	250.05
744.41	249.78
744.74	249.51
745.07	249.22
745.40	248.96
745.73	248.75
746.06	248.46
746.39	248.17
746.71	247.93
747.04	247.67
747.37	247.41
747.70	247.21
748.03	246.95
748.36	246.73
748.68	246.51
749.01	246.28
749.34	246.06
749.67	245.84
750.00	245.65
750.33	245.48
750.65	245.28
750.98	244.93
751.31	244.72
751.64	244.49
751.97	244.33
752.29	244.14
752.62	243.90
752.95	243.73
753.28	243.53
753.60	243.34
753.93	243.17
754.26	242.96
754.59	242.74
754.91	242.51
755.24	242.31
755.57	242.13
755.90	241.96
756.22	241.75
756.55	241.59
756.88	241.43
757.20	241.22
757.53	241.08
757.86	240.94
758.19	240.75
758.51	240.60
758.84	240.38
759.17	240.21
759.49	240.03
759.82	239.92
760.15	239.79
760.47	239.65
760.80	239.47
761.13	239.35
761.45	239.19
761.78	239.09
762.11	238.95
762.43	238.79
762.76	238.66
763.08	238.54
763.41	238.35
763.74	238.22
764.06	238.09
764.39	237.94
764.71	237.80
765.04	237.67
765.37	237.52
765.69	237.40
766.02	237.28
766.34	237.18
766.67	236.99
767.00	236.90
767.32	236.84
767.65	236.81
767.97	236.72
768.30	236.60
768.62	236.50
768.95	236.39
769.27	236.27
769.60	236.16
769.92	236.07
770.25	235.97
770.57	235.80
770.90	235.71
771.22	235.61
771.55	235.48
771.87	235.40
772.20	235.30
772.52	235.31
772.85	235.32
773.17	235.21
773.50	235.10
773.82	234.98
774.15	234.79
774.47	234.61
774.80	234.48
775.12	234.40
775.45	234.29
775.77	234.20
776.09	234.14
776.42	234.06
776.74	233.98
777.07	233.90
777.39	233.87
777.72	233.75
778.04	233.64
778.36	233.58
778.69	233.52
779.01	233.45
779.33	233.28
779.66	233.12
779.98	233.03
780.31	233.00
780.63	232.98
780.95	232.94
781.28	232.90
781.60	232.85
781.92	232.77
782.25	232.74
782.57	232.69
782.89	232.62
783.22	232.56
783.54	232.50
783.86	232.47
784.19	232.40
784.51	232.38
784.83	232.33
785.16	232.30
785.48	232.26
785.80	232.21
786.12	232.18
786.45	232.11
786.77	232.08
787.09	232.06
787.42	231.99
787.74	231.95
788.06	231.90
788.38	231.85
788.71	231.80
789.03	231.75
789.35	231.71
789.67	231.65
789.99	231.62
790.32	231.56
790.64	231.56
790.96	231.57
791.28	231.53
791.61	231.50
791.93	231.44
792.25	231.40
792.57	231.47
792.89	231.39
793.21	231.39
793.54	231.32
793.86	231.25
794.18	231.21
794.50	231.18
794.82	231.13
795.14	231.15
795.47	231.12
795.79	231.11
796.11	231.05
796.43	231.01
796.75	230.98
797.07	230.96
797.39	230.88
797.71	230.78
798.04	230.77
798.36	230.77
798.68	230.75
799.00	230.73
799.32	230.63
799.64	230.64
799.96	230.61
800.28	230.61
800.60	230.56
800.92	230.52
801.24	230.48
801.56	230.48
801.89	230.42
802.21	230.42
802.53	230.35
802.85	230.35
803.17	230.37
803.49	230.33
803.81	230.30
804.13	230.28
804.45	230.25
804.77	230.20
805.09	230.15
805.41	230.14
805.73	230.10
806.05	230.08
806.37	230.05
806.69	230.02
807.01	230.00
807.33	230.00
807.65	229.96
807.97	229.95
808.28	229.93
808.60	229.88
808.92	229.84
809.24	229.89
809.56	229.86
809.88	229.79
810.20	229.76
810.52	229.77
810.84	229.72
811.16	229.68
811.48	229.63
811.80	229.63
812.12	229.60
812.43	229.56
812.75	229.51
813.07	229.43
813.39	229.39
813.71	229.34
814.03	229.31
814.35	229.25
814.67	229.20
814.98	229.14
815.30	229.12
815.62	229.04
815.94	228.96
816.26	228.97
816.58	228.95
816.89	228.92
817.21	228.86
817.53	228.88
817.85	228.91
818.17	228.89
818.48	228.83
818.80	228.80
819.12	228.75
819.44	228.71
819.76	228.70
820.07	228.69
820.39	228.68
820.71	228.67
821.03	228.66
821.34	228.64
821.66	228.60
821.98	228.63
822.30	228.64
822.61	228.68
822.93	228.63
823.25	228.61
823.57	228.57
823.88	228.58
824.20	228.52
824.52	228.49
824.83	228.45
825.15	228.44
825.47	228.41
825.79	228.44
826.10	228.42
826.42	228.41
826.74	228.39
827.05	228.37
827.37	228.33
827.69	228.34
828.00	228.30
828.32	228.32
828.64	228.30
828.95	228.34
829.27	228.31
829.58	228.31
829.90	228.30
830.22	228.31
830.53	228.30
830.85	228.31
831.17	228.27
831.48	228.29
831.80	228.27
832.11	228.28
832.43	228.30
832.75	228.29
833.06	228.35
833.38	228.35
833.69	228.33
834.01	228.35
834.32	228.35
834.64	228.38
834.96	228.33
835.27	228.32
835.59	228.29
835.90	228.27
836.22	228.26
836.53	228.25
836.85	228.23
837.16	228.33
837.48	228.34
837.79	228.36
838.11	228.38
838.42	228.38
838.74	228.38
839.05	228.36
839.37	228.37
839.68	228.30
840.00	228.26
840.31	228.28
840.63	228.24
840.94	228.24
841.26	228.22
841.57	228.24
841.88	228.22
842.20	228.20
842.51	228.17
842.83	228.15
843.14	228.23
843.46	228.22
843.77	228.13
844.08	228.11
844.40	228.07
844.71	228.03
845.03	228.00
845.34	228.01
845.65	227.99
845.97	227.97
846.28	227.97
846.60	228.00
846.91	227.99
847.22	227.97
847.54	227.95
847.85	227.93
848.16	227.94
848.48	227.94
848.79	227.96
849.10	227.96
849.42	227.97
849.73	227.87
850.04	227.85
850.36	227.83
850.67	227.82
850.98	227.81
851.30	227.80
851.61	227.84
851.92	227.82
852.23	227.85
852.55	227.86
852.86	227.86
853.17	227.85
853.49	227.84
853.80	227.85
854.11	227.88
854.42	227.89
854.74	227.87
855.05	227.86
855.36	227.81
855.67	227.81
855.99	227.81
856.30	227.91
856.61	227.91
856.92	227.92
857.23	227.92
857.55	227.91
857.86	227.90
858.17	227.89
858.48	227.85
858.79	227.80
859.11	227.78
859.42	227.76
859.73	227.75
860.04	227.76
860.35	227.75
860.66	227.71
860.98	227.70
861.29	227.71
861.60	227.68
861.91	227.69
862.22	227.68
862.53	227.64
862.84	227.52
863.16	227.59
863.47	227.56
863.78	227.55
864.09	227.57
864.40	227.59
864.71	227.56
865.02	227.60
865.33	227.58
865.64	227.56
865.95	227.56
866.27	227.64
866.58	227.62
866.89	227.67
867.20	227.66
867.51	227.64
867.82	227.66
868.13	227.70
868.44	227.71
868.75	227.72
869.06	227.73
869.37	227.73
869.68	227.65
869.99	227.68
870.30	227.68
870.61	227.70
870.92	227.67
871.23	227.67
871.54	227.70
871.85	227.74
872.16	227.75
872.47	227.77
872.78	227.71
873.09	227.72
873.40	227.65
873.71	227.66
874.02	227.68
874.33	227.63
874.64	227.62
874.95	227.63
875.26	227.63
875.56	227.65
875.87	227.65
876.18	227.65
876.49	227.73
876.80	227.70
877.11	227.67
877.42	227.69
877.73	227.69
878.04	227.65
878.35	227.67
878.66	227.66
878.96	227.65
879.27	227.64
879.58	227.60
879.89	227.63
880.20	227.66
880.51	227.65
880.82	227.67
881.12	227.68
881.43	227.64
881.74	227.65
882.05	227.62
882.36	227.63
882.67	227.64
882.97	227.52
883.28	227.51
883.59	227.52
883.90	227.52
884.21	227.56
884.51	227.56
884.82	227.53
885.13	227.54
885.44	227.54
885.74	227.53
886.05	227.55
886.36	227.55
886.67	227.53
886.98	227.60
887.28	227.59
887.59	227.56
887.90	227.56
888.20	227.55
888.51	227.59
888.82	227.56
889.13	227.57
889.43	227.67
889.74	227.66
890.05	227.65
890.35	227.63
890.66	227.58
890.97	227.57
891.28	227.57
891.58	227.58
891.89	227.59
892.20	227.57
892.50	227.59
892.81	227.55
893.12	227.53
893.42	227.44
893.73	227.44
894.04	227.43
894.34	227.44
894.65	227.40
894.95	227.37
895.26	227.36
895.57	227.41
895.87	227.34
896.18	227.34
896.48	227.36
896.79	227.36
897.10	227.36
897.40	227.35
897.71	227.35
898.01	227.32
898.32	227.28
898.63	227.28
898.93	227.26
899.24	227.28
899.54	227.26
899.85	227.27
900.15	227.24
900.46	227.25
900.76	227.26
901.07	227.29
901.38	227.26
901.68	227.27
901.99	227.18
902.29	227.17
902.60	227.18
902.90	227.18
903.21	227.20
903.51	227.19
903.82	227.22
904.12	227.20
904.43	227.21
904.73	227.24
905.03	227.25
905.34	227.34
905.64	227.37
905.95	227.37
906.25	227.36
906.56	227.39
906.86	227.43
907.17	227.40
907.47	227.39
907.77	227.36
908.08	227.35
908.38	227.39
908.69	227.40
908.99	227.43
909.30	227.43
909.60	227.40
909.90	227.40
910.21	227.37
910.51	227.36
910.81	227.34
911.12	227.36
911.42	227.36
911.73	227.25
912.03	227.23
912.33	227.25
912.64	227.24
912.94	227.21
913.24	227.16
913.55	227.15
913.85	227.17
914.15	227.22
914.46	227.25
914.76	227.24
915.06	227.23
915.37	227.18
915.67	227.17
915.97	227.20
916.27	227.19
916.58	227.20
916.88	227.19
917.18	227.17
917.49	227.23
917.79	227.25
918.09	227.28
918.39	227.27
918.70	227.32
919.00	227.33
919.30	227.40
919.60	227.42
919.91	227.42
920.21	227.44
920.51	227.44
920.81	227.43
921.12	227.47
921.42	227.47
921.72	227.50
922.02	227.54
922.32	227.53
922.63	227.55
922.93	227.63
923.23	227.65
923.53	227.66
923.83	227.58
924.13	227.54
924.44	227.53
924.74	227.57
925.04	227.55
925.34	227.55
925.64	227.53
925.94	227.53
926.24	227.60
926.55	227.56
926.85	227.57
927.15	227.57
927.45	227.53
927.75	227.54
928.05	227.54
928.35	227.51
928.65	227.56
928.95	227.57
929.26	227.51
929.56	227.54
929.86	227.55
930.16	227.52
930.46	227.54
930.76	227.55
931.06	227.50
931.36	227.50
931.66	227.50
931.96	227.49
932.26	227.48
932.56	227.43
932.86	227.44
933.16	227.47
933.46	227.43
933.76	227.44
934.06	227.43
934.36	227.47
934.66	227.48
934.96	227.44
935.26	227.45
935.56	227.46
935.86	227.40
936.16	227.42
936.46	227.43
936.76	227.43
937.06	227.40
937.36	227.39
937.66	227.39
937.96	227.39
938.26	227.38
938.56	227.37
938.86	227.38
939.16	227.38
939.46	227.34
939.76	227.34
940.06	227.29
940.35	227.29
940.65	227.24
940.95	227.24
941.25	227.24
941.55	227.21
941.85	227.19
942.15	227.21
942.45	227.20
942.75	227.17
943.04	227.14
943.34	227.19
943.64	227.20
943.94	227.16
944.24	227.17
944.54	227.14
944.84	227.14
945.13	227.10
945.43	227.10
945.73	227.11
946.03	227.11
946.33	227.14
946.62	227.11
946.92	227.10
947.22	227.07
947.52	227.01
947.82	227.03
948.11	227.01
948.41	227.01
948.71	226.98
949.01	227.00
949.31	227.00
949.60	226.98
949.90	226.98
950.20	226.97
950.50	226.97
950.79	227.00
951.09	227.00
951.39	227.01
951.69	226.99
951.98	227.00
952.28	227.01
952.58	226.99
952.87	227.01
953.17	227.02
953.47	227.03
953.76	227.05
954.06	227.04
954.36	227.02
954.66	227.00
954.95	227.03
955.25	227.05
955.55	227.08
955.84	227.07
956.14	227.09
956.44	227.13
956.73	227.13
957.03	227.11
957.32	227.12
957.62	227.12
957.92	227.16
958.21	227.13
958.51	227.24
958.81	227.26
959.10	227.26
959.40	227.27
959.69	227.28
959.99	227.30
960.29	227.31
960.58	227.32
960.88	227.39
961.17	227.38
961.47	227.35
961.76	227.37
962.06	227.38
962.36	227.35
962.65	227.34
962.95	227.34
963.24	227.38
963.54	227.38
963.83	227.38
964.13	227.37
964.42	227.36
964.72	227.30
965.01	227.30
965.31	227.32
965.60	227.32
965.90	227.37
966.19	227.34
966.49	227.32
966.78	227.30
967.08	227.26
967.37	227.26
967.67	227.24
967.96	227.21
968.26	227.21
968.55	227.23
968.85	227.22
969.14	227.19
969.43	227.14
969.73	227.11
970.02	227.11
970.32	227.09
970.61	227.08
970.91	227.03
971.20	227.01
971.49	226.97
971.79	226.96
972.08	226.92
972.38	226.95
972.67	226.97
972.96	226.99
973.26	226.98
973.55	227.03
973.85	227.05
974.14	227.03
974.43	227.03
974.73	226.99
975.02	227.00
975.31	227.01
975.61	227.02
975.90	227.04
976.19	227.01
976.49	227.03
976.78	227.03
977.07	227.04
977.37	227.04
977.66	227.04
977.95	227.00
978.24	226.99
978.54	226.99
978.83	226.98
979.12	226.97
979.42	227.00
979.71	226.95
980.00	226.91
980.29	226.99
980.59	226.98
980.88	227.03
981.17	227.04
981.46	227.04
981.76	227.03
982.05	227.07
982.34	227.11
982.63	227.11
982.93	227.12
983.22	227.14
983.51	227.18
983.80	227.21
984.09	227.26
984.39	227.28
984.68	227.29
984.97	227.29
985.26	227.28
985.55	227.28
985.85	227.28
986.14	227.35
986.43	227.33
986.72	227.34
987.01	227.31
987.30	227.31
987.59	227.32
987.89	227.31
988.18	227.28
988.47	227.28
988.76	227.27
989.05	227.26
989.34	227.25
989.63	227.23
989.92	227.24
990.22	227.23
990.51	227.23
990.80	227.22
991.09	227.22
991.38	227.24
991.67	227.23
991.96	227.22
992.25	227.20
992.54	227.18
992.83	227.18
993.12	227.17
993.41	227.17
993.70	227.21
993.99	227.24
994.28	227.26
994.58	227.25
994.87	227.28
995.16	227.27
995.45	227.28
995.74	227.26
996.03	227.26
996.32	227.27
996.61	227.27
996.90	227.28
997.19	227.30
997.48	227.30
997.77	227.30
998.06	227.33
998.34	227.31
998.63	227.26
998.92	227.27
999.21	227.27
999.50	227.28
999.79	227.23
1000.08	227.22
1000.37	227.21
1000.66	227.17
1000.95	227.17
1001.24	227.16
1001.53	227.15
1001.82	227.13
1002.11	227.07
1002.40	227.08
1002.68	227.11
1002.97	227.13
1003.26	227.09
1003.55	227.06
1003.84	227.06
1004.13	227.05
1004.42	227.05
1004.71	227.06
1004.99	227.02
1005.28	227.06
1005.57	227.04
1005.86	227.01
1006.15	226.97
1006.44	226.95
1006.72	226.96
1007.01	226.90
1007.30	226.91
1007.59	226.91
1007.88	226.91
1008.17	226.91
1008.45	226.87
1008.74	226.84
1009.03	226.81
1009.32	226.84
1009.60	226.85
1009.89	226.85
1010.18	226.83
1010.47	226.81
1010.76	226.83
1011.04	226.85
1011.33	226.80
1011.62	226.79
1011.91	226.82
1012.19	226.81
1012.48	226.84
1012.77	226.86
1013.05	226.94
1013.34	226.92
1013.63	226.90
1013.92	226.93
1014.20	226.90
1014.49	226.91
1014.78	226.89
1015.06	226.87
1015.35	226.88
1015.64	226.88
1015.92	226.89
1016.21	226.90
1016.50	226.89
1016.78	226.87
1017.07	226.88
1017.36	226.88
1017.64	226.88
1017.93	226.87
1018.22	226.90
1018.50	226.87
1018.79	226.84
1019.08	226.78
1019.36	226.81
1019.65	226.81
1019.93	226.81
1020.22	226.86
1020.51	226.91
1020.79	226.89
1021.08	227.00
1021.36	226.58
1021.65	226.53
1021.94	226.62
1022.22	227.08
1022.51	226.79
1022.79	227.09
1023.08	226.91
1023.36	227.88
1023.65	226.51
>>>>>End Processed Spectral Data<<<<<
