SpectraSuite Data File
++++++++++++++++++++++++++++++++++++
Date: Fri Feb 01 15:03:12 EST 2013
User: group
Dark Spectrum Present: No
Reference Spectrum Present: No
Number of Sampled Component Spectra: 1
Spectrometers: USB2E7196
Integration Time (usec): 35000 (USB2E7196)
Spectra Averaged: 100 (USB2E7196)
Boxcar Smoothing: 10 (USB2E7196)
Correct for Electrical Dark: No (USB2E7196)
Strobe/Lamp Enabled: No (USB2E7196)
Correct for Detector Non-linearity: No (USB2E7196)
Correct for Stray Light: No (USB2E7196)
Number of Pixels in Processed Spectrum: 2048
>>>>>Begin Processed Spectral Data<<<<<
339.09	0.00
339.48	214.45
339.86	216.44
340.24	217.73
340.63	219.08
341.01	221.57
341.39	221.83
341.78	223.70
342.16	224.97
342.54	224.69
342.93	213.29
343.31	224.06
343.69	224.64
344.07	225.12
344.46	225.56
344.84	225.96
345.22	226.20
345.60	226.46
345.99	226.64
346.37	226.74
346.75	226.82
347.13	226.90
347.52	226.96
347.90	227.07
348.28	227.10
348.66	227.17
349.05	227.17
349.43	227.22
349.81	227.27
350.19	227.30
350.57	227.43
350.96	227.44
351.34	227.55
351.72	227.62
352.10	227.71
352.48	227.78
352.87	227.84
353.25	227.94
353.63	228.00
354.01	228.07
354.39	228.14
354.77	228.26
355.15	228.36
355.54	228.42
355.92	228.42
356.30	228.51
356.68	228.61
357.06	228.69
357.44	228.73
357.82	228.81
358.20	228.88
358.58	228.92
358.97	229.00
359.35	229.07
359.73	229.18
360.11	229.22
360.49	229.23
360.87	229.28
361.25	229.35
361.63	229.41
362.01	229.46
362.39	229.49
362.77	229.52
363.15	229.54
363.53	229.56
363.91	229.61
364.29	229.62
364.67	229.53
365.05	229.54
365.43	229.53
365.81	229.53
366.19	229.53
366.57	229.55
366.95	229.54
367.33	229.51
367.71	229.42
368.09	229.42
368.47	229.40
368.85	229.36
369.23	229.30
369.61	229.22
369.99	229.19
370.37	229.15
370.75	229.17
371.13	229.11
371.51	229.06
371.89	229.02
372.27	228.97
372.65	228.92
373.03	228.86
373.41	228.80
373.78	228.74
374.16	228.65
374.54	228.55
374.92	228.47
375.30	228.40
375.68	228.35
376.06	228.29
376.44	228.22
376.82	228.14
377.19	228.05
377.57	227.99
377.95	227.89
378.33	227.81
378.71	227.69
379.09	227.61
379.47	227.54
379.84	227.46
380.22	227.39
380.60	227.32
380.98	227.24
381.36	227.16
381.73	227.06
382.11	226.99
382.49	226.93
382.87	226.88
383.25	226.78
383.62	226.81
384.00	226.72
384.38	226.67
384.76	226.67
385.13	226.67
385.51	226.61
385.89	226.53
386.27	226.50
386.64	226.46
387.02	226.42
387.40	226.36
387.78	226.31
388.15	226.25
388.53	226.24
388.91	226.22
389.29	226.17
389.66	226.15
390.04	226.14
390.42	226.12
390.79	226.10
391.17	226.14
391.55	226.01
391.92	226.02
392.30	226.04
392.68	226.01
393.05	226.03
393.43	226.08
393.81	226.10
394.18	226.11
394.56	226.13
394.94	226.19
395.31	226.20
395.69	226.28
396.06	226.34
396.44	226.37
396.82	226.43
397.19	226.52
397.57	226.59
397.95	226.63
398.32	226.69
398.70	226.78
399.07	226.83
399.45	226.96
399.82	227.02
400.20	227.09
400.58	227.17
400.95	227.21
401.33	227.30
401.70	227.49
402.08	227.56
402.45	227.69
402.83	227.79
403.20	227.95
403.58	228.06
403.95	228.23
404.33	228.36
404.71	228.48
405.08	228.69
405.46	228.82
405.83	228.98
406.21	229.12
406.58	229.27
406.96	229.48
407.33	229.64
407.70	229.84
408.08	230.13
408.45	230.37
408.83	230.63
409.20	230.86
409.58	231.05
409.95	231.33
410.33	231.58
410.70	231.85
411.08	232.14
411.45	232.42
411.82	232.69
412.20	233.05
412.57	233.47
412.95	233.77
413.32	234.21
413.69	234.61
414.07	235.11
414.44	235.59
414.82	236.08
415.19	236.62
415.56	237.17
415.94	237.66
416.31	238.28
416.68	238.86
417.06	239.58
417.43	240.23
417.81	240.99
418.18	241.78
418.55	242.60
418.93	243.49
419.30	244.41
419.67	245.36
420.04	246.32
420.42	247.29
420.79	248.48
421.16	249.61
421.54	250.82
421.91	251.98
422.28	253.24
422.66	254.53
423.03	255.81
423.40	257.16
423.77	258.58
424.15	260.02
424.52	261.54
424.89	263.12
425.26	264.68
425.64	266.13
426.01	267.70
426.38	269.36
426.75	270.96
427.13	272.69
427.50	274.46
427.87	276.36
428.24	278.25
428.61	280.00
428.99	281.97
429.36	284.07
429.73	286.15
430.10	288.17
430.47	290.26
430.85	292.39
431.22	294.63
431.59	297.04
431.96	299.30
432.33	301.78
432.70	304.17
433.08	307.00
433.45	309.64
433.82	312.25
434.19	315.13
434.56	317.97
434.93	320.64
435.30	323.31
435.68	326.21
436.05	329.06
436.42	331.86
436.79	334.41
437.16	337.09
437.53	339.96
437.90	342.80
438.27	345.54
438.64	348.40
439.01	350.98
439.38	353.21
439.75	355.36
440.13	357.88
440.50	360.23
440.87	362.11
441.24	364.07
441.61	366.25
441.98	367.74
442.35	369.54
442.72	371.40
443.09	373.23
443.46	374.20
443.83	374.79
444.20	375.29
444.57	376.09
444.94	376.39
445.31	376.70
445.68	377.02
446.05	377.07
446.42	376.69
446.79	376.32
447.16	375.88
447.53	375.56
447.90	374.40
448.27	373.21
448.64	371.59
449.01	370.43
449.37	368.46
449.74	366.58
450.11	364.37
450.48	361.88
450.85	359.33
451.22	357.20
451.59	355.15
451.96	353.22
452.33	350.64
452.70	348.29
453.07	345.44
453.43	342.54
453.80	339.83
454.17	337.11
454.54	334.54
454.91	331.81
455.28	329.09
455.65	326.59
456.02	324.15
456.38	322.03
456.75	319.38
457.12	317.09
457.49	314.84
457.86	312.66
458.23	310.80
458.59	308.72
458.96	306.62
459.33	304.78
459.70	302.88
460.07	301.34
460.43	299.61
460.80	297.94
461.17	296.54
461.54	295.00
461.91	293.60
462.27	292.11
462.64	290.85
463.01	289.49
463.38	288.21
463.74	286.83
464.11	285.63
464.48	284.59
464.85	283.50
465.21	282.66
465.58	281.74
465.95	280.64
466.32	279.74
466.68	278.82
467.05	277.91
467.42	277.01
467.78	276.06
468.15	275.16
468.52	274.51
468.88	273.59
469.25	272.81
469.62	272.18
469.98	271.54
470.35	270.87
470.72	270.31
471.08	269.60
471.45	269.08
471.82	268.53
472.18	267.96
472.55	267.52
472.92	266.95
473.28	266.45
473.65	265.98
474.02	265.51
474.38	265.16
474.75	264.80
475.11	264.45
475.48	264.22
475.85	264.01
476.21	263.78
476.58	263.58
476.94	263.40
477.31	263.24
477.67	263.06
478.04	262.97
478.41	262.86
478.77	262.91
479.14	262.79
479.50	262.79
479.87	262.84
480.23	262.89
480.60	262.95
480.96	263.04
481.33	263.25
481.69	263.46
482.06	263.64
482.42	263.84
482.79	264.09
483.15	264.37
483.52	264.72
483.88	265.07
484.25	265.44
484.61	265.88
484.98	266.27
485.34	266.90
485.71	267.50
486.07	268.11
486.44	268.66
486.80	269.36
487.17	270.06
487.53	270.85
487.90	271.70
488.26	272.66
488.62	273.63
488.99	274.60
489.35	275.61
489.72	276.76
490.08	277.94
490.44	279.21
490.81	280.55
491.17	281.89
491.54	283.35
491.90	284.91
492.26	286.54
492.63	288.29
492.99	290.03
493.36	291.88
493.72	293.91
494.08	296.00
494.45	298.27
494.81	300.65
495.17	303.09
495.54	305.65
495.90	308.33
496.26	311.17
496.63	314.11
496.99	317.23
497.35	320.46
497.72	323.90
498.08	327.37
498.44	331.01
498.80	334.95
499.17	339.00
499.53	343.19
499.89	347.55
500.26	352.06
500.62	356.68
500.98	361.64
501.34	366.74
501.71	372.04
502.07	377.51
502.43	383.08
502.79	388.86
503.16	394.91
503.52	401.19
503.88	407.58
504.24	414.21
504.60	421.12
504.97	428.22
505.33	435.46
505.69	443.15
506.05	450.98
506.41	458.76
506.78	466.90
507.14	475.31
507.50	483.99
507.86	492.99
508.22	502.16
508.59	511.34
508.95	520.91
509.31	530.72
509.67	540.76
510.03	551.04
510.39	561.60
510.75	572.36
511.12	583.24
511.48	594.50
511.84	605.94
512.20	617.37
512.56	629.34
512.92	641.52
513.28	653.82
513.64	666.29
514.00	679.00
514.37	691.88
514.73	704.93
515.09	718.08
515.45	731.30
515.81	744.89
516.17	758.98
516.53	773.03
516.89	787.16
517.25	801.30
517.61	815.81
517.97	830.34
518.33	844.83
518.69	859.65
519.05	874.60
519.41	889.78
519.77	905.42
520.13	920.88
520.49	936.27
520.85	951.84
521.21	967.59
521.57	983.93
521.93	999.87
522.29	1016.35
522.65	1032.53
523.01	1048.81
523.37	1064.88
523.73	1081.06
524.09	1097.35
524.45	1113.75
524.81	1130.44
525.17	1147.35
525.53	1164.25
525.89	1181.10
526.25	1197.98
526.61	1214.53
526.97	1231.34
527.33	1247.85
527.68	1264.53
528.04	1281.04
528.40	1297.76
528.76	1314.87
529.12	1331.54
529.48	1348.39
529.84	1364.47
530.20	1381.18
530.56	1398.42
530.91	1415.93
531.27	1432.82
531.63	1449.24
531.99	1465.89
532.35	1481.97
532.71	1497.69
533.07	1514.08
533.42	1530.13
533.78	1546.14
534.14	1562.41
534.50	1577.84
534.86	1593.81
535.21	1609.03
535.57	1625.14
535.93	1640.53
536.29	1655.34
536.65	1670.52
537.00	1685.43
537.36	1700.83
537.72	1715.56
538.08	1729.88
538.44	1743.70
538.79	1757.55
539.15	1771.42
539.51	1785.36
539.87	1799.85
540.22	1813.89
540.58	1827.87
540.94	1841.33
541.29	1854.42
541.65	1867.30
542.01	1880.64
542.37	1892.97
542.72	1905.45
543.08	1917.27
543.44	1929.79
543.79	1941.07
544.15	1952.00
544.51	1963.59
544.87	1974.70
545.22	1985.49
545.58	1995.86
545.94	2005.83
546.29	2015.80
546.65	2025.56
547.01	2034.83
547.36	2043.70
547.72	2052.12
548.07	2059.86
548.43	2068.04
548.79	2076.15
549.14	2083.69
549.50	2091.01
549.86	2098.87
550.21	2106.27
550.57	2113.37
550.92	2119.86
551.28	2126.96
551.64	2134.06
551.99	2140.62
552.35	2146.66
552.70	2152.74
553.06	2158.57
553.41	2164.77
553.77	2170.77
554.13	2176.99
554.48	2183.08
554.84	2188.36
555.19	2193.50
555.55	2198.45
555.90	2202.89
556.26	2207.60
556.61	2212.32
556.97	2216.33
557.32	2220.44
557.68	2224.55
558.03	2228.94
558.39	2232.80
558.74	2237.42
559.10	2241.27
559.45	2244.85
559.81	2249.10
560.16	2252.92
560.52	2256.26
560.87	2259.66
561.23	2262.20
561.58	2265.09
561.94	2267.46
562.29	2269.76
562.64	2272.56
563.00	2275.20
563.35	2278.65
563.71	2281.78
564.06	2284.86
564.42	2287.90
564.77	2290.11
565.12	2292.26
565.48	2293.86
565.83	2295.55
566.19	2296.72
566.54	2297.60
566.89	2298.59
567.25	2298.97
567.60	2300.20
567.96	2301.56
568.31	2302.36
568.66	2303.36
569.02	2303.64
569.37	2303.83
569.72	2304.40
570.08	2304.43
570.43	2304.35
570.78	2303.52
571.14	2301.91
571.49	2300.53
571.84	2300.00
572.20	2298.74
572.55	2297.51
572.90	2295.99
573.26	2294.49
573.61	2292.73
573.96	2290.76
574.31	2287.57
574.67	2284.54
575.02	2280.75
575.37	2277.45
575.72	2273.37
576.08	2269.90
576.43	2266.57
576.78	2262.78
577.13	2259.59
577.49	2256.32
577.84	2252.73
578.19	2248.99
578.54	2245.02
578.90	2240.59
579.25	2235.00
579.60	2229.99
579.95	2224.84
580.30	2219.70
580.66	2214.31
581.01	2209.14
581.36	2204.07
581.71	2199.99
582.06	2195.33
582.42	2190.68
582.77	2185.32
583.12	2180.64
583.47	2175.67
583.82	2170.36
584.17	2165.01
584.53	2159.37
584.88	2153.55
585.23	2147.59
585.58	2141.97
585.93	2136.67
586.28	2131.78
586.63	2126.49
586.98	2121.21
587.34	2116.45
587.69	2111.45
588.04	2106.03
588.39	2100.14
588.74	2093.60
589.09	2087.18
589.44	2080.31
589.79	2074.33
590.14	2068.70
590.49	2062.04
590.84	2055.73
591.19	2049.71
591.54	2043.29
591.89	2035.71
592.25	2028.82
592.60	2021.52
592.95	2013.74
593.30	2006.20
593.65	1998.57
594.00	1991.51
594.35	1984.17
594.70	1976.18
595.05	1968.75
595.40	1961.51
595.75	1954.10
596.10	1947.68
596.45	1940.83
596.80	1934.54
597.15	1927.67
597.50	1920.23
597.85	1913.77
598.19	1907.02
598.54	1899.84
598.89	1893.12
599.24	1887.19
599.59	1880.31
599.94	1874.06
600.29	1867.77
600.64	1861.12
600.99	1853.46
601.34	1846.48
601.69	1839.59
602.04	1832.45
602.39	1825.13
602.74	1818.20
603.08	1811.50
603.43	1805.00
603.78	1797.73
604.13	1790.47
604.48	1783.14
604.83	1776.33
605.18	1769.25
605.53	1761.14
605.87	1753.01
606.22	1745.71
606.57	1737.91
606.92	1730.78
607.27	1723.58
607.62	1716.56
607.96	1709.28
608.31	1702.69
608.66	1695.15
609.01	1687.51
609.36	1679.96
609.70	1671.96
610.05	1663.96
610.40	1656.16
610.75	1647.58
611.10	1639.98
611.44	1631.71
611.79	1623.82
612.14	1615.24
612.49	1606.22
612.83	1597.91
613.18	1589.98
613.53	1581.92
613.88	1573.37
614.22	1564.99
614.57	1556.57
614.92	1548.59
615.27	1540.98
615.61	1532.69
615.96	1524.71
616.31	1517.14
616.65	1509.89
617.00	1502.44
617.35	1494.78
617.70	1486.43
618.04	1478.00
618.39	1469.78
618.74	1462.10
619.08	1453.87
619.43	1446.30
619.78	1439.35
620.12	1432.23
620.47	1424.69
620.82	1416.47
621.16	1409.10
621.51	1401.75
621.85	1394.18
622.20	1385.74
622.55	1377.54
622.89	1369.80
623.24	1362.21
623.59	1354.86
623.93	1347.39
624.28	1340.12
624.62	1332.62
624.97	1325.55
625.32	1318.89
625.66	1311.83
626.01	1304.73
626.35	1297.18
626.70	1289.43
627.04	1281.74
627.39	1274.02
627.73	1266.68
628.08	1259.82
628.43	1252.53
628.77	1245.05
629.12	1237.43
629.46	1230.28
629.81	1222.83
630.15	1215.69
630.50	1208.29
630.84	1200.20
631.19	1192.33
631.53	1184.90
631.88	1177.33
632.22	1169.79
632.57	1162.54
632.91	1155.03
633.26	1147.71
633.60	1140.58
633.95	1133.67
634.29	1126.75
634.64	1120.11
634.98	1112.73
635.32	1105.69
635.67	1099.20
636.01	1092.60
636.36	1085.86
636.70	1079.41
637.05	1072.89
637.39	1066.42
637.73	1059.90
638.08	1053.97
638.42	1047.97
638.77	1041.62
639.11	1035.03
639.45	1028.67
639.80	1022.08
640.14	1015.71
640.49	1009.19
640.83	1002.80
641.17	996.42
641.52	990.10
641.86	983.71
642.20	977.98
642.55	971.80
642.89	965.28
643.23	958.77
643.58	952.94
643.92	946.69
644.26	940.50
644.61	934.52
644.95	928.51
645.29	921.90
645.64	915.19
645.98	908.77
646.32	903.03
646.66	896.97
647.01	891.13
647.35	885.47
647.69	879.63
648.04	874.24
648.38	868.42
648.72	862.41
649.06	856.38
649.41	850.48
649.75	844.33
650.09	838.40
650.43	832.64
650.78	826.53
651.12	820.62
651.46	814.94
651.80	809.12
652.14	803.70
652.49	798.36
652.83	793.28
653.17	787.62
653.51	781.85
653.85	776.52
654.20	770.87
654.54	764.93
654.88	759.25
655.22	753.38
655.56	747.86
655.90	742.39
656.25	737.11
656.59	731.79
656.93	726.79
657.27	721.72
657.61	716.33
657.95	711.21
658.29	706.13
658.64	701.04
658.98	695.78
659.32	690.40
659.66	685.22
660.00	679.85
660.34	674.95
660.68	670.08
661.02	665.07
661.36	660.47
661.70	656.03
662.05	651.67
662.39	647.28
662.73	642.80
663.07	638.40
663.41	633.97
663.75	629.48
664.09	624.99
664.43	620.62
664.77	616.52
665.11	612.32
665.45	608.27
665.79	604.20
666.13	600.14
666.47	596.09
666.81	591.98
667.15	587.95
667.49	584.12
667.83	580.42
668.17	576.53
668.51	572.46
668.85	568.42
669.19	564.61
669.53	560.81
669.87	556.98
670.21	553.43
670.55	549.90
670.89	546.48
671.23	543.07
671.57	539.57
671.91	536.11
672.25	532.72
672.58	529.24
672.92	525.90
673.26	522.80
673.60	519.71
673.94	516.61
674.28	513.68
674.62	510.71
674.96	507.60
675.30	504.68
675.64	501.78
675.97	499.05
676.31	496.27
676.65	493.34
676.99	490.63
677.33	487.69
677.67	484.87
678.01	481.84
678.34	478.82
678.68	476.01
679.02	473.13
679.36	470.35
679.70	467.61
680.04	464.86
680.37	461.93
680.71	459.15
681.05	456.51
681.39	453.83
681.73	451.25
682.06	448.74
682.40	446.16
682.74	443.64
683.08	441.10
683.42	438.50
683.75	436.04
684.09	433.51
684.43	431.11
684.77	428.61
685.10	426.33
685.44	424.00
685.78	421.66
686.12	419.43
686.45	417.17
686.79	414.89
687.13	412.71
687.46	410.56
687.80	408.44
688.14	406.32
688.48	404.27
688.81	401.98
689.15	399.81
689.49	397.74
689.82	395.65
690.16	393.59
690.50	391.64
690.83	389.66
691.17	387.73
691.51	385.80
691.84	384.04
692.18	382.05
692.52	380.11
692.85	378.20
693.19	376.31
693.52	374.50
693.86	372.71
694.20	370.90
694.53	369.15
694.87	367.34
695.21	365.53
695.54	363.71
695.88	362.02
696.21	360.35
696.55	358.65
696.88	356.94
697.22	355.26
697.56	353.67
697.89	352.05
698.23	350.40
698.56	348.83
698.90	347.21
699.23	345.59
699.57	344.05
699.90	342.53
700.24	341.02
700.58	339.47
700.91	337.96
701.25	336.53
701.58	335.14
701.92	333.74
702.25	332.40
702.59	331.09
702.92	329.78
703.26	328.43
703.59	327.18
703.93	326.04
704.26	324.83
704.60	323.52
704.93	322.26
705.26	321.04
705.60	319.91
705.93	318.77
706.27	317.76
706.60	316.74
706.94	315.72
707.27	314.58
707.61	313.53
707.94	312.54
708.27	311.48
708.61	310.44
708.94	309.47
709.28	308.48
709.61	307.53
709.94	306.61
710.28	305.65
710.61	304.74
710.95	303.66
711.28	302.75
711.61	301.83
711.95	300.93
712.28	300.00
712.61	298.99
712.95	298.09
713.28	297.22
713.61	296.32
713.95	295.42
714.28	294.66
714.61	293.81
714.95	292.98
715.28	292.11
715.61	291.23
715.95	290.42
716.28	289.57
716.61	288.77
716.95	287.94
717.28	287.18
717.61	286.37
717.94	285.65
718.28	284.87
718.61	284.17
718.94	283.50
719.27	282.87
719.61	282.24
719.94	281.54
720.27	280.85
720.60	280.20
720.94	279.57
721.27	278.90
721.60	278.36
721.93	277.76
722.27	277.25
722.60	276.65
722.93	276.04
723.26	275.50
723.59	274.93
723.93	274.40
724.26	273.89
724.59	273.30
724.92	272.77
725.25	272.27
725.59	271.70
725.92	271.19
726.25	270.65
726.58	270.15
726.91	269.65
727.24	269.18
727.57	268.69
727.91	268.22
728.24	267.78
728.57	267.27
728.90	266.82
729.23	266.31
729.56	265.95
729.89	265.50
730.22	264.99
730.55	264.49
730.89	264.01
731.22	263.49
731.55	263.09
731.88	262.68
732.21	262.23
732.54	261.80
732.87	261.36
733.20	260.98
733.53	260.60
733.86	260.22
734.19	259.81
734.52	259.46
734.85	259.09
735.18	258.65
735.51	258.29
735.84	257.88
736.17	257.50
736.50	257.09
736.83	256.85
737.16	256.51
737.49	256.16
737.82	255.82
738.15	255.52
738.48	255.16
738.81	254.86
739.14	254.56
739.47	254.22
739.80	253.92
740.13	253.59
740.46	253.24
740.79	252.95
741.12	252.64
741.45	252.31
741.78	251.98
742.11	251.72
742.44	251.39
742.77	251.14
743.10	250.88
743.43	250.56
743.75	250.20
744.08	250.07
744.41	249.82
744.74	249.56
745.07	249.31
745.40	249.09
745.73	248.82
746.06	248.53
746.39	248.31
746.71	248.04
747.04	247.75
747.37	247.52
747.70	247.27
748.03	247.05
748.36	246.83
748.68	246.61
749.01	246.35
749.34	246.12
749.67	245.89
750.00	245.67
750.33	245.53
750.65	245.30
750.98	244.96
751.31	244.75
751.64	244.56
751.97	244.40
752.29	244.18
752.62	243.95
752.95	243.72
753.28	243.51
753.60	243.34
753.93	243.19
754.26	242.99
754.59	242.78
754.91	242.55
755.24	242.33
755.57	242.17
755.90	241.98
756.22	241.81
756.55	241.59
756.88	241.41
757.20	241.21
757.53	241.03
757.86	240.86
758.19	240.68
758.51	240.51
758.84	240.28
759.17	240.12
759.49	239.98
759.82	239.87
760.15	239.72
760.47	239.58
760.80	239.42
761.13	239.27
761.45	239.13
761.78	238.98
762.11	238.85
762.43	238.69
762.76	238.53
763.08	238.38
763.41	238.27
763.74	238.15
764.06	237.97
764.39	237.83
764.71	237.69
765.04	237.56
765.37	237.43
765.69	237.32
766.02	237.21
766.34	237.04
766.67	236.89
767.00	236.77
767.32	236.67
767.65	236.61
767.97	236.50
768.30	236.36
768.62	236.26
768.95	236.14
769.27	235.99
769.60	235.91
769.92	235.79
770.25	235.64
770.57	235.50
770.90	235.40
771.22	235.28
771.55	235.16
771.87	235.07
772.20	234.93
772.52	234.90
772.85	234.87
773.17	234.82
773.50	234.71
773.82	234.61
774.15	234.45
774.47	234.27
774.80	234.15
775.12	234.06
775.45	233.99
775.77	233.91
776.09	233.85
776.42	233.81
776.74	233.77
777.07	233.71
777.39	233.64
777.72	233.54
778.04	233.50
778.36	233.46
778.69	233.41
779.01	233.35
779.33	233.20
779.66	233.04
779.98	232.96
780.31	232.90
780.63	232.89
780.95	232.84
781.28	232.81
781.60	232.77
781.92	232.72
782.25	232.64
782.57	232.56
782.89	232.51
783.22	232.42
783.54	232.33
783.86	232.26
784.19	232.21
784.51	232.20
784.83	232.13
785.16	232.07
785.48	232.00
785.80	231.93
786.12	231.91
786.45	231.87
786.77	231.82
787.09	231.78
787.42	231.69
787.74	231.65
788.06	231.61
788.38	231.59
788.71	231.54
789.03	231.52
789.35	231.50
789.67	231.46
789.99	231.45
790.32	231.39
790.64	231.38
790.96	231.41
791.28	231.34
791.61	231.31
791.93	231.27
792.25	231.23
792.57	231.30
792.89	231.25
793.21	231.21
793.54	231.16
793.86	231.11
794.18	231.10
794.50	231.07
794.82	231.03
795.14	230.97
795.47	230.98
795.79	230.95
796.11	230.91
796.43	230.86
796.75	230.80
797.07	230.78
797.39	230.76
797.71	230.65
798.04	230.62
798.36	230.62
798.68	230.59
799.00	230.57
799.32	230.50
799.64	230.46
799.96	230.45
800.28	230.46
800.60	230.43
800.92	230.37
801.24	230.31
801.56	230.33
801.89	230.28
802.21	230.24
802.53	230.18
802.85	230.12
803.17	230.14
803.49	230.08
803.81	230.07
804.13	230.02
804.45	229.97
804.77	229.98
805.09	229.88
805.41	229.85
805.73	229.79
806.05	229.73
806.37	229.72
806.69	229.64
807.01	229.58
807.33	229.57
807.65	229.54
807.97	229.57
808.28	229.51
808.60	229.50
808.92	229.47
809.24	229.51
809.56	229.49
809.88	229.43
810.20	229.40
810.52	229.38
810.84	229.34
811.16	229.32
811.48	229.27
811.80	229.33
812.12	229.30
812.43	229.31
812.75	229.26
813.07	229.22
813.39	229.23
813.71	229.18
814.03	229.12
814.35	229.09
814.67	229.02
814.98	229.00
815.30	228.97
815.62	228.91
815.94	228.82
816.26	228.88
816.58	228.85
816.89	228.88
817.21	228.85
817.53	228.85
817.85	228.84
818.17	228.80
818.48	228.74
818.80	228.74
819.12	228.70
819.44	228.66
819.76	228.62
820.07	228.63
820.39	228.66
820.71	228.68
821.03	228.68
821.34	228.65
821.66	228.62
821.98	228.61
822.30	228.60
822.61	228.68
822.93	228.63
823.25	228.61
823.57	228.58
823.88	228.59
824.20	228.59
824.52	228.60
824.83	228.59
825.15	228.57
825.47	228.56
825.79	228.56
826.10	228.59
826.42	228.61
826.74	228.59
827.05	228.56
827.37	228.55
827.69	228.53
828.00	228.53
828.32	228.52
828.64	228.48
828.95	228.56
829.27	228.49
829.58	228.44
829.90	228.44
830.22	228.46
830.53	228.43
830.85	228.41
831.17	228.40
831.48	228.42
831.80	228.42
832.11	228.41
832.43	228.42
832.75	228.40
833.06	228.43
833.38	228.40
833.69	228.38
834.01	228.38
834.32	228.38
834.64	228.40
834.96	228.42
835.27	228.44
835.59	228.38
835.90	228.37
836.22	228.38
836.53	228.37
836.85	228.35
837.16	228.41
837.48	228.37
837.79	228.37
838.11	228.35
838.42	228.32
838.74	228.36
839.05	228.31
839.37	228.30
839.68	228.23
840.00	228.23
840.31	228.26
840.63	228.24
840.94	228.22
841.26	228.19
841.57	228.19
841.88	228.17
842.20	228.18
842.51	228.15
842.83	228.18
843.14	228.23
843.46	228.18
843.77	228.11
844.08	228.13
844.40	228.10
844.71	228.05
845.03	228.04
845.34	227.99
845.65	228.02
845.97	227.99
846.28	228.00
846.60	228.00
846.91	227.96
847.22	227.94
847.54	227.95
847.85	227.93
848.16	227.90
848.48	227.87
848.79	227.85
849.10	227.84
849.42	227.83
849.73	227.73
850.04	227.75
850.36	227.74
850.67	227.72
850.98	227.72
851.30	227.74
851.61	227.70
851.92	227.70
852.23	227.68
852.55	227.68
852.86	227.64
853.17	227.62
853.49	227.63
853.80	227.67
854.11	227.68
854.42	227.70
854.74	227.69
855.05	227.71
855.36	227.68
855.67	227.67
855.99	227.64
856.30	227.75
856.61	227.74
856.92	227.74
857.23	227.75
857.55	227.74
857.86	227.71
858.17	227.77
858.48	227.74
858.79	227.73
859.11	227.74
859.42	227.75
859.73	227.72
860.04	227.71
860.35	227.63
860.66	227.58
860.98	227.58
861.29	227.59
861.60	227.56
861.91	227.57
862.22	227.59
862.53	227.57
862.84	227.48
863.16	227.49
863.47	227.45
863.78	227.45
864.09	227.42
864.40	227.44
864.71	227.43
865.02	227.43
865.33	227.42
865.64	227.40
865.95	227.39
866.27	227.50
866.58	227.48
866.89	227.52
867.20	227.52
867.51	227.49
867.82	227.50
868.13	227.55
868.44	227.55
868.75	227.55
869.06	227.56
869.37	227.53
869.68	227.52
869.99	227.56
870.30	227.56
870.61	227.58
870.92	227.54
871.23	227.53
871.54	227.53
871.85	227.54
872.16	227.57
872.47	227.54
872.78	227.50
873.09	227.51
873.40	227.51
873.71	227.51
874.02	227.53
874.33	227.51
874.64	227.47
874.95	227.44
875.26	227.42
875.56	227.43
875.87	227.46
876.18	227.43
876.49	227.52
876.80	227.50
877.11	227.47
877.42	227.49
877.73	227.47
878.04	227.47
878.35	227.48
878.66	227.46
878.96	227.47
879.27	227.43
879.58	227.41
879.89	227.39
880.20	227.42
880.51	227.41
880.82	227.40
881.12	227.42
881.43	227.42
881.74	227.40
882.05	227.39
882.36	227.38
882.67	227.39
882.97	227.27
883.28	227.29
883.59	227.30
883.90	227.31
884.21	227.33
884.51	227.31
884.82	227.28
885.13	227.28
885.44	227.30
885.74	227.32
886.05	227.33
886.36	227.34
886.67	227.30
886.98	227.34
887.28	227.33
887.59	227.33
887.90	227.31
888.20	227.31
888.51	227.31
888.82	227.28
889.13	227.28
889.43	227.39
889.74	227.35
890.05	227.38
890.35	227.38
890.66	227.36
890.97	227.37
891.28	227.36
891.58	227.37
891.89	227.37
892.20	227.34
892.50	227.34
892.81	227.30
893.12	227.31
893.42	227.26
893.73	227.28
894.04	227.24
894.34	227.27
894.65	227.26
894.95	227.27
895.26	227.27
895.57	227.32
895.87	227.18
896.18	227.22
896.48	227.18
896.79	227.17
897.10	227.22
897.40	227.19
897.71	227.20
898.01	227.19
898.32	227.21
898.63	227.17
898.93	227.15
899.24	227.19
899.54	227.18
899.85	227.16
900.15	227.16
900.46	227.22
900.76	227.21
901.07	227.21
901.38	227.21
901.68	227.23
901.99	227.17
902.29	227.18
902.60	227.20
902.90	227.22
903.21	227.17
903.51	227.14
903.82	227.21
904.12	227.19
904.43	227.20
904.73	227.20
905.03	227.23
905.34	227.34
905.64	227.33
905.95	227.35
906.25	227.35
906.56	227.34
906.86	227.30
907.17	227.30
907.47	227.32
907.77	227.30
908.08	227.35
908.38	227.39
908.69	227.42
908.99	227.40
909.30	227.40
909.60	227.43
909.90	227.42
910.21	227.36
910.51	227.41
910.81	227.39
911.12	227.37
911.42	227.37
911.73	227.30
912.03	227.31
912.33	227.32
912.64	227.35
912.94	227.36
913.24	227.35
913.55	227.38
913.85	227.40
914.15	227.41
914.46	227.37
914.76	227.33
915.06	227.31
915.37	227.31
915.67	227.32
915.97	227.36
916.27	227.33
916.58	227.33
916.88	227.32
917.18	227.32
917.49	227.40
917.79	227.41
918.09	227.41
918.39	227.44
918.70	227.43
919.00	227.43
919.30	227.46
919.60	227.50
919.91	227.46
920.21	227.44
920.51	227.40
920.81	227.41
921.12	227.44
921.42	227.45
921.72	227.48
922.02	227.50
922.32	227.49
922.63	227.53
922.93	227.61
923.23	227.61
923.53	227.61
923.83	227.52
924.13	227.58
924.44	227.56
924.74	227.58
925.04	227.60
925.34	227.61
925.64	227.59
925.94	227.55
926.24	227.58
926.55	227.57
926.85	227.61
927.15	227.61
927.45	227.61
927.75	227.61
928.05	227.59
928.35	227.57
928.65	227.58
928.95	227.60
929.26	227.55
929.56	227.54
929.86	227.55
930.16	227.55
930.46	227.50
930.76	227.51
931.06	227.45
931.36	227.42
931.66	227.43
931.96	227.40
932.26	227.43
932.56	227.39
932.86	227.41
933.16	227.41
933.46	227.38
933.76	227.34
934.06	227.35
934.36	227.38
934.66	227.35
934.96	227.33
935.26	227.32
935.56	227.34
935.86	227.34
936.16	227.33
936.46	227.32
936.76	227.29
937.06	227.28
937.36	227.26
937.66	227.26
937.96	227.24
938.26	227.24
938.56	227.22
938.86	227.25
939.16	227.27
939.46	227.27
939.76	227.28
940.06	227.27
940.35	227.25
940.65	227.18
940.95	227.19
941.25	227.15
941.55	227.15
941.85	227.10
942.15	227.14
942.45	227.13
942.75	227.12
943.04	227.14
943.34	227.12
943.64	227.16
943.94	227.15
944.24	227.15
944.54	227.14
944.84	227.11
945.13	227.10
945.43	227.06
945.73	227.03
946.03	227.03
946.33	227.04
946.62	227.02
946.92	227.02
947.22	227.03
947.52	227.06
947.82	227.06
948.11	227.07
948.41	227.02
948.71	227.05
949.01	227.09
949.31	227.05
949.60	227.04
949.90	227.06
950.20	227.04
950.50	227.02
950.79	227.00
951.09	227.03
951.39	227.03
951.69	227.03
951.98	227.06
952.28	227.06
952.58	227.06
952.87	227.08
953.17	227.10
953.47	227.06
953.76	227.06
954.06	227.03
954.36	227.02
954.66	227.02
954.95	227.00
955.25	226.98
955.55	226.99
955.84	226.98
956.14	226.96
956.44	226.97
956.73	226.93
957.03	226.96
957.32	226.95
957.62	226.93
957.92	226.95
958.21	226.93
958.51	227.05
958.81	227.05
959.10	227.05
959.40	227.09
959.69	227.10
959.99	227.09
960.29	227.09
960.58	227.05
960.88	227.10
961.17	227.08
961.47	227.08
961.76	227.11
962.06	227.13
962.36	227.12
962.65	227.14
962.95	227.18
963.24	227.19
963.54	227.17
963.83	227.19
964.13	227.23
964.42	227.20
964.72	227.09
965.01	227.08
965.31	227.08
965.60	227.04
965.90	227.11
966.19	227.11
966.49	227.13
966.78	227.14
967.08	227.12
967.37	227.16
967.67	227.16
967.96	227.15
968.26	227.16
968.55	227.19
968.85	227.19
969.14	227.20
969.43	227.19
969.73	227.22
970.02	227.22
970.32	227.16
970.61	227.19
970.91	227.19
971.20	227.19
971.49	227.20
971.79	227.22
972.08	227.16
972.38	227.15
972.67	227.16
972.96	227.23
973.26	227.20
973.55	227.19
973.85	227.17
974.14	227.19
974.43	227.19
974.73	227.15
975.02	227.13
975.31	227.11
975.61	227.13
975.90	227.14
976.19	227.16
976.49	227.20
976.78	227.18
977.07	227.19
977.37	227.21
977.66	227.21
977.95	227.18
978.24	227.16
978.54	227.19
978.83	227.16
979.12	227.12
979.42	227.12
979.71	227.09
980.00	227.10
980.29	227.11
980.59	227.09
980.88	227.12
981.17	227.13
981.46	227.12
981.76	227.12
982.05	227.10
982.34	227.08
982.63	227.05
982.93	227.07
983.22	227.08
983.51	227.06
983.80	227.08
984.09	227.07
984.39	227.11
984.68	227.08
984.97	227.11
985.26	227.08
985.55	227.09
985.85	227.08
986.14	227.12
986.43	227.09
986.72	227.08
987.01	227.06
987.30	227.03
987.59	227.04
987.89	227.00
988.18	226.98
988.47	226.95
988.76	226.95
989.05	226.91
989.34	226.87
989.63	226.91
989.92	226.87
990.22	226.90
990.51	226.88
990.80	226.91
991.09	226.90
991.38	226.92
991.67	226.91
991.96	226.93
992.25	226.92
992.54	226.92
992.83	226.94
993.12	226.95
993.41	226.98
993.70	226.99
993.99	227.05
994.28	227.10
994.58	227.14
994.87	227.12
995.16	227.16
995.45	227.15
995.74	227.09
996.03	227.11
996.32	227.13
996.61	227.15
996.90	227.13
997.19	227.11
997.48	227.12
997.77	227.11
998.06	227.08
998.34	227.08
998.63	227.09
998.92	227.10
999.21	227.09
999.50	227.08
999.79	227.06
1000.08	227.05
1000.37	227.04
1000.66	227.02
1000.95	227.04
1001.24	227.04
1001.53	227.06
1001.82	227.07
1002.11	227.03
1002.40	226.99
1002.68	226.99
1002.97	227.05
1003.26	227.05
1003.55	227.02
1003.84	227.04
1004.13	227.08
1004.42	227.06
1004.71	227.02
1004.99	227.01
1005.28	227.01
1005.57	226.99
1005.86	226.98
1006.15	226.98
1006.44	226.94
1006.72	226.97
1007.01	226.97
1007.30	226.99
1007.59	226.99
1007.88	227.01
1008.17	227.02
1008.45	227.00
1008.74	226.98
1009.03	226.96
1009.32	227.01
1009.60	227.02
1009.89	227.03
1010.18	227.00
1010.47	226.99
1010.76	226.99
1011.04	226.96
1011.33	226.99
1011.62	227.01
1011.91	227.03
1012.19	227.00
1012.48	227.00
1012.77	226.97
1013.05	227.01
1013.34	226.98
1013.63	226.98
1013.92	227.01
1014.20	227.03
1014.49	227.10
1014.78	227.10
1015.06	227.03
1015.35	227.02
1015.64	227.05
1015.92	227.04
1016.21	227.04
1016.50	227.05
1016.78	227.06
1017.07	227.11
1017.36	227.08
1017.64	227.08
1017.93	227.11
1018.22	227.13
1018.50	227.11
1018.79	227.13
1019.08	227.09
1019.36	227.08
1019.65	227.04
1019.93	227.02
1020.22	227.02
1020.51	227.02
1020.79	227.01
1021.08	226.87
1021.36	226.62
1021.65	227.16
1021.94	227.14
1022.22	226.69
1022.51	226.28
1022.79	227.01
1023.08	227.14
1023.36	227.96
1023.65	226.79
>>>>>End Processed Spectral Data<<<<<
