SpectraSuite Data File
++++++++++++++++++++++++++++++++++++
Date: Fri Feb 01 17:33:46 EST 2013
User: group
Dark Spectrum Present: No
Reference Spectrum Present: No
Number of Sampled Component Spectra: 1
Spectrometers: USB2E7196
Integration Time (usec): 35000 (USB2E7196)
Spectra Averaged: 100 (USB2E7196)
Boxcar Smoothing: 10 (USB2E7196)
Correct for Electrical Dark: No (USB2E7196)
Strobe/Lamp Enabled: No (USB2E7196)
Correct for Detector Non-linearity: No (USB2E7196)
Correct for Stray Light: No (USB2E7196)
Number of Pixels in Processed Spectrum: 2048
>>>>>Begin Processed Spectral Data<<<<<
339.09	0.00
339.48	213.36
339.86	213.91
340.24	215.54
340.63	216.86
341.01	219.31
341.39	219.46
341.78	221.09
342.16	221.98
342.54	222.69
342.93	211.25
343.31	221.91
343.69	222.45
344.07	222.94
344.46	223.37
344.84	223.77
345.22	224.04
345.60	224.31
345.99	224.51
346.37	224.65
346.75	224.77
347.13	224.84
347.52	224.91
347.90	225.03
348.28	225.05
348.66	225.09
349.05	225.12
349.43	225.17
349.81	225.21
350.19	225.22
350.57	225.26
350.96	225.34
351.34	225.45
351.72	225.52
352.10	225.59
352.48	225.69
352.87	225.75
353.25	225.81
353.63	225.86
354.01	225.92
354.39	226.01
354.77	226.06
355.15	226.17
355.54	226.25
355.92	226.29
356.30	226.38
356.68	226.49
357.06	226.55
357.44	226.62
357.82	226.72
358.20	226.82
358.58	226.92
358.97	226.97
359.35	227.04
359.73	227.12
360.11	227.22
360.49	227.27
360.87	227.32
361.25	227.39
361.63	227.47
362.01	227.50
362.39	227.54
362.77	227.60
363.15	227.59
363.53	227.57
363.91	227.58
364.29	227.62
364.67	227.52
365.05	227.54
365.43	227.56
365.81	227.56
366.19	227.61
366.57	227.63
366.95	227.59
367.33	227.55
367.71	227.53
368.09	227.51
368.47	227.49
368.85	227.47
369.23	227.46
369.61	227.43
369.99	227.42
370.37	227.41
370.75	227.39
371.13	227.35
371.51	227.30
371.89	227.23
372.27	227.18
372.65	227.16
373.03	227.10
373.41	227.02
373.78	226.95
374.16	226.84
374.54	226.76
374.92	226.70
375.30	226.64
375.68	226.55
376.06	226.49
376.44	226.41
376.82	226.35
377.19	226.26
377.57	226.15
377.95	226.07
378.33	225.95
378.71	225.84
379.09	225.80
379.47	225.78
379.84	225.73
380.22	225.61
380.60	225.50
380.98	225.46
381.36	225.40
381.73	225.34
382.11	225.29
382.49	225.26
382.87	225.19
383.25	225.17
383.62	225.27
384.00	225.18
384.38	225.13
384.76	225.11
385.13	225.11
385.51	225.09
385.89	225.04
386.27	225.02
386.64	225.05
387.02	224.95
387.40	224.89
387.78	224.86
388.15	224.90
388.53	224.88
388.91	224.81
389.29	224.75
389.66	224.73
390.04	224.72
390.42	224.70
390.79	224.72
391.17	224.69
391.55	224.55
391.92	224.58
392.30	224.60
392.68	224.56
393.05	224.53
393.43	224.52
393.81	224.53
394.18	224.51
394.56	224.49
394.94	224.58
395.31	224.60
395.69	224.65
396.06	224.64
396.44	224.69
396.82	224.72
397.19	224.82
397.57	224.84
397.95	224.91
398.32	224.91
398.70	224.94
399.07	225.00
399.45	225.06
399.82	225.11
400.20	225.14
400.58	225.23
400.95	225.30
401.33	225.41
401.70	225.57
402.08	225.68
402.45	225.76
402.83	225.87
403.20	226.00
403.58	226.09
403.95	226.24
404.33	226.40
404.71	226.54
405.08	226.72
405.46	226.88
405.83	226.98
406.21	227.15
406.58	227.31
406.96	227.43
407.33	227.59
407.70	227.77
408.08	228.07
408.45	228.24
408.83	228.47
409.20	228.71
409.58	228.87
409.95	229.11
410.33	229.40
410.70	229.63
411.08	229.91
411.45	230.22
411.82	230.51
412.20	230.85
412.57	231.28
412.95	231.58
413.32	231.98
413.69	232.38
414.07	232.82
414.44	233.28
414.82	233.79
415.19	234.35
415.56	234.89
415.94	235.41
416.31	236.09
416.68	236.72
417.06	237.45
417.43	238.16
417.81	238.99
418.18	239.77
418.55	240.63
418.93	241.54
419.30	242.47
419.67	243.45
420.04	244.43
420.42	245.44
420.79	246.67
421.16	247.87
421.54	249.14
421.91	250.44
422.28	251.78
422.66	253.19
423.03	254.57
423.40	255.98
423.77	257.48
424.15	258.94
424.52	260.50
424.89	262.15
425.26	263.79
425.64	265.31
426.01	266.99
426.38	268.71
426.75	270.44
427.13	272.24
427.50	274.12
427.87	276.09
428.24	278.02
428.61	279.82
428.99	281.84
429.36	284.05
429.73	286.16
430.10	288.27
430.47	290.43
430.85	292.60
431.22	294.95
431.59	297.42
431.96	299.78
432.33	302.39
432.70	304.88
433.08	307.79
433.45	310.51
433.82	313.22
434.19	316.26
434.56	319.23
434.93	321.97
435.30	324.70
435.68	327.76
436.05	330.74
436.42	333.64
436.79	336.28
437.16	339.06
437.53	342.03
437.90	344.97
438.27	347.81
438.64	350.80
439.01	353.53
439.38	355.86
439.75	358.14
440.13	360.64
440.50	363.05
440.87	364.98
441.24	367.01
441.61	369.22
441.98	370.75
442.35	372.58
442.72	374.61
443.09	376.49
443.46	377.49
443.83	378.10
444.20	378.67
444.57	379.60
444.94	379.95
445.31	380.33
445.68	380.67
446.05	380.78
446.42	380.34
446.79	379.91
447.16	379.45
447.53	379.13
447.90	378.03
448.27	376.83
448.64	375.25
449.01	374.13
449.37	372.12
449.74	370.19
450.11	367.88
450.48	365.27
450.85	362.60
451.22	360.42
451.59	358.30
451.96	356.26
452.33	353.52
452.70	351.01
453.07	348.05
453.43	345.03
453.80	342.16
454.17	339.41
454.54	336.74
454.91	333.90
455.28	331.12
455.65	328.51
456.02	325.95
456.38	323.66
456.75	320.85
457.12	318.52
457.49	316.20
457.86	313.91
458.23	311.95
458.59	309.88
458.96	307.66
459.33	305.75
459.70	303.82
460.07	302.25
460.43	300.45
460.80	298.78
461.17	297.28
461.54	295.71
461.91	294.23
462.27	292.73
462.64	291.43
463.01	289.98
463.38	288.64
463.74	287.22
464.11	285.99
464.48	284.90
464.85	283.75
465.21	282.86
465.58	281.90
465.95	280.75
466.32	279.78
466.68	278.89
467.05	277.95
467.42	277.00
467.78	276.01
468.15	275.13
468.52	274.43
468.88	273.51
469.25	272.72
469.62	272.04
469.98	271.33
470.35	270.68
470.72	270.10
471.08	269.41
471.45	268.88
471.82	268.35
472.18	267.74
472.55	267.28
472.92	266.67
473.28	266.22
473.65	265.77
474.02	265.29
474.38	264.90
474.75	264.57
475.11	264.23
475.48	263.95
475.85	263.74
476.21	263.48
476.58	263.34
476.94	263.17
477.31	263.01
477.67	262.85
478.04	262.73
478.41	262.66
478.77	262.71
479.14	262.62
479.50	262.60
479.87	262.70
480.23	262.79
480.60	262.87
480.96	262.96
481.33	263.19
481.69	263.45
482.06	263.65
482.42	263.84
482.79	264.08
483.15	264.43
483.52	264.77
483.88	265.12
484.25	265.51
484.61	265.93
484.98	266.38
485.34	266.98
485.71	267.57
486.07	268.18
486.44	268.75
486.80	269.48
487.17	270.22
487.53	271.04
487.90	271.88
488.26	272.82
488.62	273.80
488.99	274.74
489.35	275.75
489.72	276.86
490.08	278.07
490.44	279.31
490.81	280.64
491.17	281.98
491.54	283.48
491.90	284.97
492.26	286.64
492.63	288.38
492.99	290.12
493.36	292.01
493.72	294.04
494.08	296.16
494.45	298.38
494.81	300.73
495.17	303.14
495.54	305.65
495.90	308.34
496.26	311.14
496.63	314.06
496.99	317.20
497.35	320.44
497.72	323.83
498.08	327.33
498.44	330.98
498.80	334.87
499.17	338.86
499.53	343.03
499.89	347.35
500.26	351.82
500.62	356.43
500.98	361.27
501.34	366.28
501.71	371.48
502.07	376.84
502.43	382.37
502.79	388.07
503.16	394.09
503.52	400.27
503.88	406.53
504.24	413.09
504.60	419.75
504.97	426.78
505.33	433.98
505.69	441.58
506.05	449.19
506.41	456.97
506.78	464.95
507.14	473.21
507.50	481.76
507.86	490.61
508.22	499.67
508.59	508.76
508.95	518.03
509.31	527.69
509.67	537.63
510.03	547.65
510.39	557.94
510.75	568.47
511.12	579.06
511.48	590.12
511.84	601.30
512.20	612.51
512.56	624.10
512.92	635.91
513.28	647.88
513.64	660.04
514.00	672.41
514.37	685.03
514.73	697.74
515.09	710.37
515.45	723.20
515.81	736.37
516.17	749.89
516.53	763.72
516.89	777.52
517.25	791.14
517.61	805.24
517.97	819.29
518.33	833.33
518.69	847.85
519.05	862.34
519.41	877.07
519.77	892.20
520.13	907.20
520.49	922.18
520.85	937.14
521.21	952.34
521.57	968.08
521.93	983.29
522.29	999.10
522.65	1014.94
523.01	1030.62
523.37	1046.16
523.73	1061.93
524.09	1077.51
524.45	1093.24
524.81	1109.48
525.17	1125.64
525.53	1142.05
525.89	1158.36
526.25	1174.47
526.61	1190.39
526.97	1206.55
527.33	1222.64
527.68	1238.75
528.04	1254.70
528.40	1270.73
528.76	1287.26
529.12	1303.34
529.48	1319.80
529.84	1335.39
530.20	1351.50
530.56	1368.11
530.91	1385.00
531.27	1401.33
531.63	1417.29
531.99	1433.39
532.35	1448.98
532.71	1464.55
533.07	1480.39
533.42	1495.93
533.78	1511.75
534.14	1527.49
534.50	1542.48
534.86	1557.92
535.21	1572.73
535.57	1588.25
535.93	1603.40
536.29	1617.84
536.65	1632.50
537.00	1646.92
537.36	1661.92
537.72	1676.10
538.08	1690.29
538.44	1703.79
538.79	1717.43
539.15	1730.95
539.51	1744.51
539.87	1758.62
540.22	1772.13
540.58	1785.61
540.94	1798.59
541.29	1811.13
541.65	1823.72
542.01	1836.76
542.37	1848.86
542.72	1861.16
543.08	1872.91
543.44	1885.22
543.79	1896.43
544.15	1907.45
544.51	1919.11
544.87	1930.07
545.22	1940.91
545.58	1951.13
545.94	1960.94
546.29	1970.80
546.65	1980.75
547.01	1990.16
547.36	1998.86
547.72	2007.42
548.07	2015.60
548.43	2024.01
548.79	2031.95
549.14	2039.74
549.50	2047.15
549.86	2054.94
550.21	2062.37
550.57	2069.72
550.92	2076.49
551.28	2083.74
551.64	2090.84
551.99	2097.46
552.35	2103.83
552.70	2110.21
553.06	2116.36
553.41	2122.96
553.77	2129.02
554.13	2135.20
554.48	2141.40
554.84	2147.36
555.19	2152.71
555.55	2158.00
555.90	2162.72
556.26	2168.18
556.61	2173.10
556.97	2177.91
557.32	2182.46
557.68	2187.07
558.03	2191.56
558.39	2195.47
558.74	2200.49
559.10	2204.93
559.45	2208.85
559.81	2213.41
560.16	2217.60
560.52	2221.29
560.87	2225.03
561.23	2228.23
561.58	2231.42
561.94	2234.35
562.29	2236.91
562.64	2240.37
563.00	2243.25
563.35	2247.32
563.71	2250.77
564.06	2254.37
564.42	2257.63
564.77	2260.67
565.12	2263.45
565.48	2265.88
565.83	2268.38
566.19	2270.24
566.54	2271.43
566.89	2273.18
567.25	2274.26
567.60	2275.94
567.96	2278.13
568.31	2279.38
568.66	2281.01
569.02	2282.01
569.37	2282.90
569.72	2284.29
570.08	2284.67
570.43	2285.27
570.78	2285.15
571.14	2284.07
571.49	2283.22
571.84	2283.21
572.20	2282.61
572.55	2281.88
572.90	2280.70
573.26	2279.87
573.61	2278.38
573.96	2277.21
574.31	2274.70
574.67	2272.22
575.02	2268.99
575.37	2265.96
575.72	2262.67
576.08	2259.48
576.43	2256.53
576.78	2253.41
577.13	2250.47
577.49	2247.66
577.84	2244.57
578.19	2241.13
578.54	2238.05
578.90	2234.25
579.25	2229.08
579.60	2224.48
579.95	2219.91
580.30	2215.26
580.66	2210.30
581.01	2205.71
581.36	2200.99
581.71	2197.20
582.06	2193.17
582.42	2189.15
582.77	2184.22
583.12	2180.07
583.47	2176.03
583.82	2171.60
584.17	2166.53
584.53	2161.51
584.88	2156.28
585.23	2150.91
585.58	2145.73
585.93	2140.47
586.28	2135.73
586.63	2131.15
586.98	2126.20
587.34	2121.58
587.69	2117.05
588.04	2112.25
588.39	2106.91
588.74	2100.74
589.09	2094.78
589.44	2088.36
589.79	2082.45
590.14	2077.03
590.49	2070.52
590.84	2064.09
591.19	2058.30
591.54	2052.09
591.89	2045.03
592.25	2038.54
592.60	2031.59
592.95	2024.28
593.30	2017.17
593.65	2010.03
594.00	2003.00
594.35	1996.00
594.70	1988.12
595.05	1981.08
595.40	1973.79
595.75	1966.51
596.10	1960.57
596.45	1954.03
596.80	1947.93
597.15	1941.55
597.50	1934.88
597.85	1928.76
598.19	1922.43
598.54	1915.61
598.89	1909.14
599.24	1903.26
599.59	1896.89
599.94	1890.57
600.29	1884.31
600.64	1877.72
600.99	1870.39
601.34	1863.82
601.69	1856.91
602.04	1850.29
602.39	1843.04
602.74	1836.45
603.08	1829.80
603.43	1823.04
603.78	1815.80
604.13	1808.61
604.48	1801.57
604.83	1794.62
605.18	1787.77
605.53	1779.91
605.87	1771.89
606.22	1764.67
606.57	1756.76
606.92	1749.15
607.27	1742.22
607.62	1735.38
607.96	1728.40
608.31	1721.89
608.66	1714.34
609.01	1706.86
609.36	1699.36
609.70	1691.39
610.05	1683.27
610.40	1675.72
610.75	1667.51
611.10	1659.79
611.44	1651.28
611.79	1643.09
612.14	1634.36
612.49	1625.13
612.83	1616.57
613.18	1608.30
613.53	1600.21
613.88	1591.63
614.22	1583.35
614.57	1574.60
614.92	1566.47
615.27	1558.93
615.61	1550.53
615.96	1542.38
616.31	1534.66
616.65	1527.15
617.00	1519.54
617.35	1511.74
617.70	1503.26
618.04	1494.69
618.39	1486.33
618.74	1478.70
619.08	1470.28
619.43	1462.66
619.78	1455.56
620.12	1448.41
620.47	1440.89
620.82	1432.51
621.16	1424.94
621.51	1417.19
621.85	1409.45
622.20	1400.86
622.55	1392.26
622.89	1384.26
623.24	1376.43
623.59	1368.90
623.93	1361.17
624.28	1353.79
624.62	1346.31
624.97	1339.05
625.32	1332.11
625.66	1325.08
626.01	1317.87
626.35	1310.54
626.70	1302.68
627.04	1294.94
627.39	1286.99
627.73	1279.41
628.08	1272.56
628.43	1265.26
628.77	1258.03
629.12	1250.43
629.46	1243.15
629.81	1235.54
630.15	1228.25
630.50	1220.80
630.84	1212.58
631.19	1204.55
631.53	1196.96
631.88	1189.31
632.22	1181.52
632.57	1174.11
632.91	1166.45
633.26	1158.90
633.60	1151.33
633.95	1144.05
634.29	1136.85
634.64	1130.08
634.98	1122.69
635.32	1115.39
635.67	1108.76
636.01	1102.00
636.36	1095.12
636.70	1088.56
637.05	1081.95
637.39	1075.46
637.73	1068.92
638.08	1062.97
638.42	1057.00
638.77	1050.51
639.11	1043.87
639.45	1037.46
639.80	1030.83
640.14	1024.39
640.49	1017.92
640.83	1011.61
641.17	1005.46
641.52	999.17
641.86	992.61
642.20	986.71
642.55	980.23
642.89	973.67
643.23	966.94
643.58	961.23
643.92	955.07
644.26	949.16
644.61	943.00
644.95	937.03
645.29	930.40
645.64	923.74
645.98	917.36
646.32	911.36
646.66	905.33
647.01	899.53
647.35	893.81
647.69	887.84
648.04	882.22
648.38	876.36
648.72	870.45
649.06	864.51
649.41	858.51
649.75	852.64
650.09	846.68
650.43	840.99
650.78	834.79
651.12	828.76
651.46	822.91
651.80	817.28
652.14	811.79
652.49	806.47
652.83	801.21
653.17	795.61
653.51	789.97
653.85	784.52
654.20	778.91
654.54	772.87
654.88	767.10
655.22	761.19
655.56	755.52
655.90	749.90
656.25	744.58
656.59	739.27
656.93	734.17
657.27	729.05
657.61	723.50
657.95	718.37
658.29	713.24
658.64	707.90
658.98	702.49
659.32	697.00
659.66	691.73
660.00	686.43
660.34	681.46
660.68	676.48
661.02	671.42
661.36	666.61
661.70	662.17
662.05	657.83
662.39	653.53
662.73	649.00
663.07	644.66
663.41	640.25
663.75	635.74
664.09	631.14
664.43	626.71
664.77	622.65
665.11	618.37
665.45	614.19
665.79	610.11
666.13	606.01
666.47	601.88
666.81	597.72
667.15	593.58
667.49	589.59
667.83	585.68
668.17	581.74
668.51	577.69
668.85	573.60
669.19	569.63
669.53	565.81
669.87	561.95
670.21	558.20
670.55	554.48
670.89	551.05
671.23	547.59
671.57	544.01
671.91	540.46
672.25	537.01
672.58	533.53
672.92	530.11
673.26	526.93
673.60	523.77
673.94	520.65
674.28	517.65
674.62	514.73
674.96	511.61
675.30	508.71
675.64	505.77
675.97	502.86
676.31	500.05
676.65	497.09
676.99	494.32
677.33	491.39
677.67	488.58
678.01	485.54
678.34	482.60
678.68	479.70
679.02	476.86
679.36	474.01
679.70	471.24
680.04	468.47
680.37	465.57
680.71	462.74
681.05	460.01
681.39	457.27
681.73	454.51
682.06	452.00
682.40	449.36
682.74	446.77
683.08	444.24
683.42	441.64
683.75	439.11
684.09	436.53
684.43	434.05
684.77	431.57
685.10	429.14
685.44	426.77
685.78	424.42
686.12	422.06
686.45	419.71
686.79	417.42
687.13	415.16
687.46	412.95
687.80	410.77
688.14	408.56
688.48	406.54
688.81	404.31
689.15	402.10
689.49	399.98
689.82	397.86
690.16	395.69
690.50	393.66
690.83	391.68
691.17	389.65
691.51	387.71
691.84	385.80
692.18	383.90
692.52	381.90
692.85	379.92
693.19	378.11
693.52	376.21
693.86	374.31
694.20	372.48
694.53	370.68
694.87	368.78
695.21	366.93
695.54	365.05
695.88	363.30
696.21	361.56
696.55	359.83
696.88	358.13
697.22	356.45
697.56	354.78
697.89	353.10
698.23	351.46
698.56	349.86
698.90	348.26
699.23	346.58
699.57	345.04
699.90	343.47
700.24	341.90
700.58	340.43
700.91	338.96
701.25	337.51
701.58	336.08
701.92	334.73
702.25	333.37
702.59	332.03
702.92	330.71
703.26	329.39
703.59	328.13
703.93	326.90
704.26	325.66
704.60	324.39
704.93	323.14
705.26	321.92
705.60	320.68
705.93	319.50
706.27	318.42
706.60	317.35
706.94	316.32
707.27	315.13
707.61	314.00
707.94	312.94
708.27	311.87
708.61	310.76
708.94	309.70
709.28	308.72
709.61	307.70
709.94	306.76
710.28	305.75
710.61	304.77
710.95	303.66
711.28	302.74
711.61	301.75
711.95	300.78
712.28	299.80
712.61	298.81
712.95	297.84
713.28	296.98
713.61	296.06
713.95	295.14
714.28	294.32
714.61	293.47
714.95	292.59
715.28	291.68
715.61	290.80
715.95	289.94
716.28	289.04
716.61	288.18
716.95	287.25
717.28	286.47
717.61	285.65
717.94	284.91
718.28	284.05
718.61	283.30
718.94	282.59
719.27	281.90
719.61	281.27
719.94	280.60
720.27	279.84
720.60	279.15
720.94	278.48
721.27	277.86
721.60	277.25
721.93	276.63
722.27	276.07
722.60	275.48
722.93	274.90
723.26	274.35
723.59	273.79
723.93	273.23
724.26	272.67
724.59	272.07
724.92	271.56
725.25	271.08
725.59	270.56
725.92	270.05
726.25	269.54
726.58	269.00
726.91	268.46
727.24	268.00
727.57	267.53
727.91	266.97
728.24	266.52
728.57	266.00
728.90	265.56
729.23	265.07
729.56	264.72
729.89	264.26
730.22	263.73
730.55	263.24
730.89	262.80
731.22	262.34
731.55	261.93
731.88	261.49
732.21	261.05
732.54	260.60
732.87	260.11
733.20	259.69
733.53	259.31
733.86	258.97
734.19	258.55
734.52	258.15
734.85	257.85
735.18	257.40
735.51	257.07
735.84	256.70
736.17	256.36
736.50	255.91
736.83	255.67
737.16	255.37
737.49	255.05
737.82	254.73
738.15	254.38
738.48	254.04
738.81	253.68
739.14	253.36
739.47	253.07
739.80	252.78
740.13	252.46
740.46	252.11
740.79	251.77
741.12	251.48
741.45	251.16
741.78	250.83
742.11	250.54
742.44	250.18
742.77	249.88
743.10	249.56
743.43	249.25
743.75	248.86
744.08	248.71
744.41	248.37
744.74	248.11
745.07	247.82
745.40	247.57
745.73	247.37
746.06	247.12
746.39	246.87
746.71	246.59
747.04	246.33
747.37	246.12
747.70	245.85
748.03	245.57
748.36	245.37
748.68	245.12
749.01	244.87
749.34	244.64
749.67	244.42
750.00	244.15
750.33	244.04
750.65	243.81
750.98	243.44
751.31	243.26
751.64	242.99
751.97	242.82
752.29	242.58
752.62	242.30
752.95	242.07
753.28	241.84
753.60	241.66
753.93	241.46
754.26	241.23
754.59	241.00
754.91	240.77
755.24	240.56
755.57	240.37
755.90	240.17
756.22	239.98
756.55	239.77
756.88	239.57
757.20	239.30
757.53	239.07
757.86	238.90
758.19	238.75
758.51	238.62
758.84	238.42
759.17	238.25
759.49	238.08
759.82	237.92
760.15	237.74
760.47	237.55
760.80	237.37
761.13	237.23
761.45	237.12
761.78	236.99
762.11	236.81
762.43	236.65
762.76	236.54
763.08	236.41
763.41	236.25
763.74	236.14
764.06	235.97
764.39	235.85
764.71	235.70
765.04	235.55
765.37	235.39
765.69	235.22
766.02	235.10
766.34	234.98
766.67	234.84
767.00	234.76
767.32	234.70
767.65	234.68
767.97	234.54
768.30	234.39
768.62	234.27
768.95	234.16
769.27	234.07
769.60	233.95
769.92	233.83
770.25	233.71
770.57	233.57
770.90	233.49
771.22	233.39
771.55	233.30
771.87	233.19
772.20	233.12
772.52	233.11
772.85	233.13
773.17	233.01
773.50	232.91
773.82	232.79
774.15	232.68
774.47	232.48
774.80	232.37
775.12	232.31
775.45	232.23
775.77	232.16
776.09	232.05
776.42	232.01
776.74	231.95
777.07	231.86
777.39	231.82
777.72	231.75
778.04	231.71
778.36	231.64
778.69	231.62
779.01	231.55
779.33	231.44
779.66	231.27
779.98	231.21
780.31	231.14
780.63	231.12
780.95	231.06
781.28	231.02
781.60	230.97
781.92	230.90
782.25	230.81
782.57	230.73
782.89	230.69
783.22	230.57
783.54	230.48
783.86	230.46
784.19	230.37
784.51	230.31
784.83	230.23
785.16	230.20
785.48	230.10
785.80	230.04
786.12	229.96
786.45	229.93
786.77	229.91
787.09	229.86
787.42	229.78
787.74	229.75
788.06	229.70
788.38	229.64
788.71	229.60
789.03	229.56
789.35	229.56
789.67	229.45
789.99	229.44
790.32	229.41
790.64	229.37
790.96	229.39
791.28	229.35
791.61	229.30
791.93	229.23
792.25	229.20
792.57	229.19
792.89	229.14
793.21	229.08
793.54	228.99
793.86	228.93
794.18	228.93
794.50	228.85
794.82	228.80
795.14	228.79
795.47	228.77
795.79	228.76
796.11	228.69
796.43	228.68
796.75	228.61
797.07	228.59
797.39	228.56
797.71	228.47
798.04	228.41
798.36	228.40
798.68	228.38
799.00	228.35
799.32	228.26
799.64	228.24
799.96	228.21
800.28	228.23
800.60	228.22
800.92	228.19
801.24	228.15
801.56	228.10
801.89	228.06
802.21	228.00
802.53	227.93
802.85	227.93
803.17	227.95
803.49	227.92
803.81	227.86
804.13	227.81
804.45	227.74
804.77	227.72
805.09	227.69
805.41	227.63
805.73	227.56
806.05	227.53
806.37	227.55
806.69	227.49
807.01	227.44
807.33	227.42
807.65	227.34
807.97	227.37
808.28	227.35
808.60	227.33
808.92	227.29
809.24	227.35
809.56	227.31
809.88	227.27
810.20	227.22
810.52	227.24
810.84	227.18
811.16	227.21
811.48	227.18
811.80	227.18
812.12	227.13
812.43	227.16
812.75	227.15
813.07	227.07
813.39	227.08
813.71	227.03
814.03	226.99
814.35	226.97
814.67	226.90
814.98	226.88
815.30	226.85
815.62	226.83
815.94	226.75
816.26	226.76
816.58	226.71
816.89	226.72
817.21	226.68
817.53	226.69
817.85	226.65
818.17	226.62
818.48	226.57
818.80	226.57
819.12	226.53
819.44	226.52
819.76	226.50
820.07	226.46
820.39	226.46
820.71	226.48
821.03	226.44
821.34	226.45
821.66	226.40
821.98	226.40
822.30	226.40
822.61	226.44
822.93	226.37
823.25	226.37
823.57	226.31
823.88	226.30
824.20	226.28
824.52	226.29
824.83	226.30
825.15	226.28
825.47	226.27
825.79	226.24
826.10	226.19
826.42	226.18
826.74	226.18
827.05	226.17
827.37	226.13
827.69	226.13
828.00	226.08
828.32	226.11
828.64	226.06
828.95	226.09
829.27	226.04
829.58	226.05
829.90	226.04
830.22	226.09
830.53	226.08
830.85	226.05
831.17	225.97
831.48	225.97
831.80	225.95
832.11	225.93
832.43	225.92
832.75	225.91
833.06	225.98
833.38	225.97
833.69	225.96
834.01	225.97
834.32	225.95
834.64	225.94
834.96	225.93
835.27	225.93
835.59	225.91
835.90	225.89
836.22	225.85
836.53	225.85
836.85	225.79
837.16	225.89
837.48	225.91
837.79	225.98
838.11	226.00
838.42	226.02
838.74	226.07
839.05	226.06
839.37	226.08
839.68	226.01
840.00	226.03
840.31	226.07
840.63	226.06
840.94	226.06
841.26	226.02
841.57	226.03
841.88	226.05
842.20	226.04
842.51	226.04
842.83	226.06
843.14	226.15
843.46	226.17
843.77	226.09
844.08	226.07
844.40	226.03
844.71	225.96
845.03	225.92
845.34	225.89
845.65	225.85
845.97	225.83
846.28	225.83
846.60	225.81
846.91	225.77
847.22	225.77
847.54	225.78
847.85	225.84
848.16	225.84
848.48	225.78
848.79	225.79
849.10	225.77
849.42	225.74
849.73	225.63
850.04	225.62
850.36	225.58
850.67	225.58
850.98	225.58
851.30	225.63
851.61	225.67
851.92	225.66
852.23	225.72
852.55	225.71
852.86	225.69
853.17	225.66
853.49	225.65
853.80	225.64
854.11	225.67
854.42	225.64
854.74	225.62
855.05	225.66
855.36	225.63
855.67	225.67
855.99	225.69
856.30	225.80
856.61	225.79
856.92	225.75
857.23	225.77
857.55	225.73
857.86	225.70
858.17	225.67
858.48	225.65
858.79	225.61
859.11	225.61
859.42	225.62
859.73	225.64
860.04	225.63
860.35	225.63
860.66	225.55
860.98	225.55
861.29	225.54
861.60	225.48
861.91	225.49
862.22	225.45
862.53	225.41
862.84	225.29
863.16	225.31
863.47	225.33
863.78	225.34
864.09	225.36
864.40	225.34
864.71	225.33
865.02	225.34
865.33	225.32
865.64	225.32
865.95	225.30
866.27	225.33
866.58	225.30
866.89	225.30
867.20	225.33
867.51	225.30
867.82	225.30
868.13	225.34
868.44	225.29
868.75	225.31
869.06	225.33
869.37	225.35
869.68	225.31
869.99	225.31
870.30	225.29
870.61	225.29
870.92	225.29
871.23	225.29
871.54	225.31
871.85	225.32
872.16	225.31
872.47	225.32
872.78	225.26
873.09	225.29
873.40	225.24
873.71	225.24
874.02	225.26
874.33	225.23
874.64	225.20
874.95	225.23
875.26	225.20
875.56	225.19
875.87	225.17
876.18	225.17
876.49	225.27
876.80	225.25
877.11	225.23
877.42	225.24
877.73	225.26
878.04	225.27
878.35	225.30
878.66	225.30
878.96	225.28
879.27	225.33
879.58	225.33
879.89	225.36
880.20	225.40
880.51	225.41
880.82	225.43
881.12	225.46
881.43	225.43
881.74	225.42
882.05	225.42
882.36	225.43
882.67	225.45
882.97	225.34
883.28	225.32
883.59	225.33
883.90	225.33
884.21	225.33
884.51	225.31
884.82	225.29
885.13	225.30
885.44	225.31
885.74	225.27
886.05	225.28
886.36	225.26
886.67	225.23
886.98	225.27
887.28	225.28
887.59	225.26
887.90	225.27
888.20	225.27
888.51	225.29
888.82	225.28
889.13	225.28
889.43	225.38
889.74	225.38
890.05	225.38
890.35	225.37
890.66	225.34
890.97	225.30
891.28	225.29
891.58	225.29
891.89	225.29
892.20	225.30
892.50	225.26
892.81	225.24
893.12	225.20
893.42	225.15
893.73	225.15
894.04	225.18
894.34	225.18
894.65	225.16
894.95	225.14
895.26	225.13
895.57	225.18
895.87	225.05
896.18	225.08
896.48	225.10
896.79	225.10
897.10	225.11
897.40	225.14
897.71	225.15
898.01	225.12
898.32	225.13
898.63	225.14
898.93	225.13
899.24	225.12
899.54	225.11
899.85	225.10
900.15	225.07
900.46	225.03
900.76	225.06
901.07	225.07
901.38	225.05
901.68	225.05
901.99	224.98
902.29	225.00
902.60	224.98
902.90	224.96
903.21	224.97
903.51	224.95
903.82	224.94
904.12	224.95
904.43	224.96
904.73	224.98
905.03	224.95
905.34	225.08
905.64	225.07
905.95	225.10
906.25	225.11
906.56	225.09
906.86	225.09
907.17	225.07
907.47	225.09
907.77	225.10
908.08	225.09
908.38	225.11
908.69	225.11
908.99	225.11
909.30	225.13
909.60	225.10
909.90	225.10
910.21	225.09
910.51	225.05
910.81	225.05
911.12	225.02
911.42	225.05
911.73	224.92
912.03	224.93
912.33	224.96
912.64	224.92
912.94	224.94
913.24	224.93
913.55	224.90
913.85	224.88
914.15	224.89
914.46	224.90
914.76	224.91
915.06	224.90
915.37	224.91
915.67	224.91
915.97	224.93
916.27	224.95
916.58	224.96
916.88	224.98
917.18	224.98
917.49	225.10
917.79	225.07
918.09	225.09
918.39	225.11
918.70	225.11
919.00	225.13
919.30	225.21
919.60	225.21
919.91	225.25
920.21	225.25
920.51	225.24
920.81	225.22
921.12	225.21
921.42	225.23
921.72	225.22
922.02	225.25
922.32	225.28
922.63	225.26
922.93	225.32
923.23	225.33
923.53	225.30
923.83	225.19
924.13	225.22
924.44	225.24
924.74	225.31
925.04	225.31
925.34	225.33
925.64	225.26
925.94	225.27
926.24	225.30
926.55	225.31
926.85	225.32
927.15	225.32
927.45	225.33
927.75	225.29
928.05	225.29
928.35	225.22
928.65	225.20
928.95	225.22
929.26	225.14
929.56	225.15
929.86	225.17
930.16	225.17
930.46	225.12
930.76	225.11
931.06	225.04
931.36	225.02
931.66	225.03
931.96	225.03
932.26	225.03
932.56	225.02
932.86	225.01
933.16	225.00
933.46	224.99
933.76	224.98
934.06	225.03
934.36	225.02
934.66	225.04
934.96	225.02
935.26	225.00
935.56	224.97
935.86	224.94
936.16	224.93
936.46	224.92
936.76	224.95
937.06	224.92
937.36	224.88
937.66	224.89
937.96	224.87
938.26	224.85
938.56	224.83
938.86	224.80
939.16	224.82
939.46	224.83
939.76	224.81
940.06	224.78
940.35	224.76
940.65	224.76
940.95	224.76
941.25	224.75
941.55	224.77
941.85	224.80
942.15	224.80
942.45	224.78
942.75	224.76
943.04	224.74
943.34	224.76
943.64	224.72
943.94	224.70
944.24	224.69
944.54	224.73
944.84	224.69
945.13	224.67
945.43	224.62
945.73	224.58
946.03	224.61
946.33	224.65
946.62	224.63
946.92	224.59
947.22	224.60
947.52	224.59
947.82	224.57
948.11	224.55
948.41	224.57
948.71	224.58
949.01	224.59
949.31	224.58
949.60	224.56
949.90	224.63
950.20	224.64
950.50	224.64
950.79	224.62
951.09	224.70
951.39	224.70
951.69	224.72
951.98	224.79
952.28	224.79
952.58	224.77
952.87	224.80
953.17	224.85
953.47	224.84
953.76	224.86
954.06	224.89
954.36	224.88
954.66	224.86
954.95	224.89
955.25	224.91
955.55	224.96
955.84	224.98
956.14	224.99
956.44	225.00
956.73	225.00
957.03	225.02
957.32	225.03
957.62	225.06
957.92	225.08
958.21	225.03
958.51	225.13
958.81	225.14
959.10	225.13
959.40	225.16
959.69	225.16
959.99	225.19
960.29	225.16
960.58	225.19
960.88	225.25
961.17	225.21
961.47	225.20
961.76	225.19
962.06	225.18
962.36	225.17
962.65	225.16
962.95	225.17
963.24	225.16
963.54	225.14
963.83	225.16
964.13	225.15
964.42	225.15
964.72	225.06
965.01	225.05
965.31	225.06
965.60	225.01
965.90	225.09
966.19	225.07
966.49	225.08
966.78	225.05
967.08	225.07
967.37	225.07
967.67	225.10
967.96	225.11
968.26	225.12
968.55	225.12
968.85	225.12
969.14	225.11
969.43	225.12
969.73	225.10
970.02	225.08
970.32	225.09
970.61	225.11
970.91	225.12
971.20	225.11
971.49	225.08
971.79	225.11
972.08	225.00
972.38	225.01
972.67	225.03
972.96	225.05
973.26	224.98
973.55	225.01
973.85	224.99
974.14	224.97
974.43	225.01
974.73	225.02
975.02	225.03
975.31	225.05
975.61	225.04
975.90	225.02
976.19	224.97
976.49	224.98
976.78	224.98
977.07	224.98
977.37	225.00
977.66	225.03
977.95	225.00
978.24	225.04
978.54	225.04
978.83	225.00
979.12	225.02
979.42	225.06
979.71	225.04
980.00	225.01
980.29	225.01
980.59	224.94
980.88	224.95
981.17	224.95
981.46	224.92
981.76	224.90
982.05	224.95
982.34	224.99
982.63	225.00
982.93	224.96
983.22	224.95
983.51	224.94
983.80	224.95
984.09	224.97
984.39	224.92
984.68	224.93
984.97	224.92
985.26	224.90
985.55	224.88
985.85	224.86
986.14	224.90
986.43	224.89
986.72	224.89
987.01	224.81
987.30	224.78
987.59	224.76
987.89	224.74
988.18	224.68
988.47	224.64
988.76	224.60
989.05	224.60
989.34	224.56
989.63	224.61
989.92	224.57
990.22	224.54
990.51	224.57
990.80	224.55
991.09	224.56
991.38	224.56
991.67	224.55
991.96	224.54
992.25	224.54
992.54	224.54
992.83	224.54
993.12	224.57
993.41	224.56
993.70	224.62
993.99	224.65
994.28	224.67
994.58	224.70
994.87	224.69
995.16	224.69
995.45	224.69
995.74	224.63
996.03	224.65
996.32	224.67
996.61	224.68
996.90	224.67
997.19	224.65
997.48	224.65
997.77	224.63
998.06	224.63
998.34	224.63
998.63	224.60
998.92	224.61
999.21	224.63
999.50	224.64
999.79	224.60
1000.08	224.60
1000.37	224.62
1000.66	224.61
1000.95	224.65
1001.24	224.67
1001.53	224.70
1001.82	224.73
1002.11	224.69
1002.40	224.71
1002.68	224.72
1002.97	224.77
1003.26	224.76
1003.55	224.73
1003.84	224.80
1004.13	224.84
1004.42	224.85
1004.71	224.86
1004.99	224.88
1005.28	224.91
1005.57	224.91
1005.86	224.91
1006.15	224.92
1006.44	224.90
1006.72	224.90
1007.01	224.90
1007.30	224.90
1007.59	224.91
1007.88	224.91
1008.17	224.93
1008.45	224.91
1008.74	224.87
1009.03	224.84
1009.32	224.86
1009.60	224.89
1009.89	224.86
1010.18	224.80
1010.47	224.81
1010.76	224.80
1011.04	224.80
1011.33	224.84
1011.62	224.85
1011.91	224.86
1012.19	224.86
1012.48	224.88
1012.77	224.88
1013.05	224.91
1013.34	224.92
1013.63	224.92
1013.92	224.91
1014.20	224.92
1014.49	224.94
1014.78	224.98
1015.06	224.98
1015.35	225.01
1015.64	225.04
1015.92	225.08
1016.21	225.11
1016.50	225.11
1016.78	225.13
1017.07	225.12
1017.36	225.09
1017.64	225.09
1017.93	225.14
1018.22	225.12
1018.50	225.10
1018.79	225.11
1019.08	225.08
1019.36	225.09
1019.65	225.06
1019.93	225.11
1020.22	225.13
1020.51	225.15
1020.79	225.15
1021.08	224.57
1021.36	224.47
1021.65	225.07
1021.94	224.92
1022.22	225.32
1022.51	224.87
1022.79	225.56
1023.08	225.20
1023.36	225.79
1023.65	224.97
>>>>>End Processed Spectral Data<<<<<
