SpectraSuite Data File
++++++++++++++++++++++++++++++++++++
Date: Fri Feb 01 15:49:00 EST 2013
User: group
Dark Spectrum Present: No
Reference Spectrum Present: No
Number of Sampled Component Spectra: 1
Spectrometers: USB2E7196
Integration Time (usec): 35000 (USB2E7196)
Spectra Averaged: 100 (USB2E7196)
Boxcar Smoothing: 10 (USB2E7196)
Correct for Electrical Dark: No (USB2E7196)
Strobe/Lamp Enabled: No (USB2E7196)
Correct for Detector Non-linearity: No (USB2E7196)
Correct for Stray Light: No (USB2E7196)
Number of Pixels in Processed Spectrum: 2048
>>>>>Begin Processed Spectral Data<<<<<
339.09	0.00
339.48	215.07
339.86	216.53
340.24	218.06
340.63	218.77
341.01	221.95
341.39	222.49
341.78	223.33
342.16	224.32
342.54	225.26
342.93	213.31
343.31	224.07
343.69	224.59
344.07	225.03
344.46	225.44
344.84	225.86
345.22	226.13
345.60	226.35
345.99	226.52
346.37	226.67
346.75	226.73
347.13	226.81
347.52	226.88
347.90	226.94
348.28	226.93
348.66	226.96
349.05	226.97
349.43	227.00
349.81	227.07
350.19	227.13
350.57	227.15
350.96	227.21
351.34	227.29
351.72	227.36
352.10	227.47
352.48	227.53
352.87	227.56
353.25	227.57
353.63	227.62
354.01	227.69
354.39	227.76
354.77	227.85
355.15	227.94
355.54	227.99
355.92	228.02
356.30	228.10
356.68	228.25
357.06	228.34
357.44	228.40
357.82	228.45
358.20	228.54
358.58	228.63
358.97	228.67
359.35	228.77
359.73	228.88
360.11	228.93
360.49	229.00
360.87	229.05
361.25	229.14
361.63	229.23
362.01	229.28
362.39	229.28
362.77	229.31
363.15	229.35
363.53	229.41
363.91	229.46
364.29	229.47
364.67	229.39
365.05	229.41
365.43	229.42
365.81	229.44
366.19	229.45
366.57	229.48
366.95	229.46
367.33	229.44
367.71	229.41
368.09	229.41
368.47	229.38
368.85	229.36
369.23	229.33
369.61	229.26
369.99	229.28
370.37	229.27
370.75	229.30
371.13	229.21
371.51	229.16
371.89	229.13
372.27	229.10
372.65	229.07
373.03	229.01
373.41	228.98
373.78	228.90
374.16	228.79
374.54	228.71
374.92	228.67
375.30	228.60
375.68	228.49
376.06	228.41
376.44	228.36
376.82	228.30
377.19	228.23
377.57	228.17
377.95	228.05
378.33	227.98
378.71	227.84
379.09	227.82
379.47	227.75
379.84	227.65
380.22	227.55
380.60	227.45
380.98	227.38
381.36	227.31
381.73	227.20
382.11	227.19
382.49	227.12
382.87	227.03
383.25	226.97
383.62	227.05
384.00	226.95
384.38	226.89
384.76	226.81
385.13	226.79
385.51	226.72
385.89	226.67
386.27	226.60
386.64	226.59
387.02	226.53
387.40	226.47
387.78	226.44
388.15	226.39
388.53	226.33
388.91	226.28
389.29	226.21
389.66	226.25
390.04	226.18
390.42	226.17
390.79	226.17
391.17	226.17
391.55	226.07
391.92	226.08
392.30	226.08
392.68	226.11
393.05	226.09
393.43	226.11
393.81	226.13
394.18	226.14
394.56	226.12
394.94	226.16
395.31	226.18
395.69	226.25
396.06	226.29
396.44	226.35
396.82	226.40
397.19	226.54
397.57	226.54
397.95	226.64
398.32	226.67
398.70	226.72
399.07	226.77
399.45	226.85
399.82	226.90
400.20	226.97
400.58	227.03
400.95	227.08
401.33	227.19
401.70	227.34
402.08	227.46
402.45	227.57
402.83	227.64
403.20	227.73
403.58	227.81
403.95	227.96
404.33	228.09
404.71	228.21
405.08	228.35
405.46	228.49
405.83	228.62
406.21	228.76
406.58	228.94
406.96	229.12
407.33	229.28
407.70	229.47
408.08	229.75
408.45	229.97
408.83	230.19
409.20	230.40
409.58	230.58
409.95	230.83
410.33	231.13
410.70	231.43
411.08	231.76
411.45	232.04
411.82	232.36
412.20	232.74
412.57	233.20
412.95	233.47
413.32	233.90
413.69	234.30
414.07	234.76
414.44	235.24
414.82	235.70
415.19	236.26
415.56	236.86
415.94	237.39
416.31	238.04
416.68	238.70
417.06	239.40
417.43	240.09
417.81	240.86
418.18	241.63
418.55	242.46
418.93	243.34
419.30	244.26
419.67	245.20
420.04	246.14
420.42	247.13
420.79	248.33
421.16	249.46
421.54	250.68
421.91	251.91
422.28	253.16
422.66	254.53
423.03	255.80
423.40	257.09
423.77	258.52
424.15	259.96
424.52	261.45
424.89	263.10
425.26	264.67
425.64	266.10
426.01	267.70
426.38	269.36
426.75	271.07
427.13	272.85
427.50	274.70
427.87	276.58
428.24	278.43
428.61	280.20
428.99	282.14
429.36	284.22
429.73	286.26
430.10	288.30
430.47	290.35
430.85	292.49
431.22	294.74
431.59	297.09
431.96	299.30
432.33	301.79
432.70	304.13
433.08	306.94
433.45	309.58
433.82	312.19
434.19	315.07
434.56	317.86
434.93	320.44
435.30	323.02
435.68	325.91
436.05	328.73
436.42	331.52
436.79	334.05
437.16	336.80
437.53	339.64
437.90	342.40
438.27	345.12
438.64	347.96
439.01	350.60
439.38	352.83
439.75	355.07
440.13	357.50
440.50	359.85
440.87	361.66
441.24	363.61
441.61	365.71
441.98	367.18
442.35	368.94
442.72	370.82
443.09	372.58
443.46	373.54
443.83	374.15
444.20	374.62
444.57	375.43
444.94	375.70
445.31	376.10
445.68	376.44
446.05	376.56
446.42	376.15
446.79	375.65
447.16	375.20
447.53	374.81
447.90	373.70
448.27	372.52
448.64	370.95
449.01	369.78
449.37	367.84
449.74	365.93
450.11	363.67
450.48	361.23
450.85	358.70
451.22	356.57
451.59	354.56
451.96	352.65
452.33	350.05
452.70	347.67
453.07	344.75
453.43	341.89
453.80	339.08
454.17	336.40
454.54	333.86
454.91	331.16
455.28	328.51
455.65	326.02
456.02	323.56
456.38	321.39
456.75	318.75
457.12	316.50
457.49	314.30
457.86	312.13
458.23	310.24
458.59	308.21
458.96	306.13
459.33	304.22
459.70	302.34
460.07	300.85
460.43	299.15
460.80	297.56
461.17	296.12
461.54	294.64
461.91	293.23
462.27	291.77
462.64	290.51
463.01	289.10
463.38	287.82
463.74	286.46
464.11	285.30
464.48	284.29
464.85	283.17
465.21	282.31
465.58	281.43
465.95	280.32
466.32	279.45
466.68	278.51
467.05	277.66
467.42	276.75
467.78	275.80
468.15	274.92
468.52	274.28
468.88	273.43
469.25	272.64
469.62	272.01
469.98	271.38
470.35	270.76
470.72	270.21
471.08	269.55
471.45	269.02
471.82	268.48
472.18	267.87
472.55	267.44
472.92	266.94
473.28	266.46
473.65	266.03
474.02	265.56
474.38	265.22
474.75	264.87
475.11	264.53
475.48	264.28
475.85	264.05
476.21	263.76
476.58	263.54
476.94	263.39
477.31	263.21
477.67	263.05
478.04	262.96
478.41	262.91
478.77	262.98
479.14	262.95
479.50	262.97
479.87	263.05
480.23	263.15
480.60	263.22
480.96	263.32
481.33	263.53
481.69	263.76
482.06	263.97
482.42	264.17
482.79	264.47
483.15	264.74
483.52	265.13
483.88	265.49
484.25	265.92
484.61	266.37
484.98	266.79
485.34	267.32
485.71	267.90
486.07	268.49
486.44	269.02
486.80	269.70
487.17	270.44
487.53	271.23
487.90	272.06
488.26	272.99
488.62	273.98
488.99	274.95
489.35	275.99
489.72	277.10
490.08	278.29
490.44	279.51
490.81	280.89
491.17	282.21
491.54	283.72
491.90	285.21
492.26	286.87
492.63	288.62
492.99	290.40
493.36	292.31
493.72	294.35
494.08	296.45
494.45	298.72
494.81	301.05
495.17	303.47
495.54	306.07
495.90	308.75
496.26	311.56
496.63	314.46
496.99	317.51
497.35	320.76
497.72	324.19
498.08	327.68
498.44	331.34
498.80	335.29
499.17	339.33
499.53	343.53
499.89	347.91
500.26	352.42
500.62	357.14
500.98	362.05
501.34	367.15
501.71	372.53
502.07	377.94
502.43	383.54
502.79	389.37
503.16	395.38
503.52	401.63
503.88	408.00
504.24	414.66
504.60	421.60
504.97	428.73
505.33	436.07
505.69	443.79
506.05	451.52
506.41	459.39
506.78	467.53
507.14	475.92
507.50	484.63
507.86	493.69
508.22	502.84
508.59	512.08
508.95	521.60
509.31	531.41
509.67	541.56
510.03	551.87
510.39	562.44
510.75	573.27
511.12	584.22
511.48	595.53
511.84	606.97
512.20	618.47
512.56	630.43
512.92	642.68
513.28	655.07
513.64	667.56
514.00	680.29
514.37	693.26
514.73	706.41
515.09	719.43
515.45	732.78
515.81	746.43
516.17	760.41
516.53	774.49
516.89	788.64
517.25	802.81
517.61	817.23
517.97	831.72
518.33	846.21
518.69	860.95
519.05	875.97
519.41	891.16
519.77	906.76
520.13	922.29
520.49	937.64
520.85	953.07
521.21	968.81
521.57	985.06
521.93	1000.77
522.29	1017.21
522.65	1033.53
523.01	1049.69
523.37	1065.61
523.73	1081.77
524.09	1097.90
524.45	1114.12
524.81	1130.72
525.17	1147.54
525.53	1164.43
525.89	1181.28
526.25	1198.19
526.61	1214.60
526.97	1231.32
527.33	1247.68
527.68	1264.15
528.04	1280.53
528.40	1297.10
528.76	1314.03
529.12	1330.64
529.48	1347.62
529.84	1363.55
530.20	1380.14
530.56	1397.15
530.91	1414.64
531.27	1431.36
531.63	1447.87
531.99	1464.46
532.35	1480.42
532.71	1496.25
533.07	1512.57
533.42	1528.43
533.78	1544.46
534.14	1560.69
534.50	1575.98
534.86	1591.94
535.21	1607.12
535.57	1623.17
535.93	1638.64
536.29	1653.49
536.65	1668.58
537.00	1683.25
537.36	1698.51
537.72	1712.97
538.08	1727.32
538.44	1740.98
538.79	1754.79
539.15	1768.44
539.51	1782.25
539.87	1796.64
540.22	1810.32
540.58	1823.94
540.94	1837.25
541.29	1850.14
541.65	1862.77
542.01	1876.03
542.37	1888.26
542.72	1900.70
543.08	1912.32
543.44	1924.74
543.79	1935.87
544.15	1946.75
544.51	1958.33
544.87	1969.36
545.22	1980.23
545.58	1990.41
545.94	2000.31
546.29	2010.21
546.65	2020.21
547.01	2029.45
547.36	2038.15
547.72	2046.70
548.07	2054.53
548.43	2062.76
548.79	2070.77
549.14	2078.26
549.50	2085.65
549.86	2093.37
550.21	2100.69
550.57	2107.88
550.92	2114.34
551.28	2121.48
551.64	2128.56
551.99	2135.04
552.35	2141.09
552.70	2147.28
553.06	2153.27
553.41	2159.52
553.77	2165.61
554.13	2171.63
554.48	2177.82
554.84	2183.30
555.19	2188.61
555.55	2193.91
555.90	2198.39
556.26	2203.18
556.61	2207.96
556.97	2212.19
557.32	2216.36
557.68	2220.47
558.03	2224.86
558.39	2228.63
558.74	2233.34
559.10	2237.10
559.45	2240.83
559.81	2245.15
560.16	2248.87
560.52	2252.14
560.87	2255.59
561.23	2258.25
561.58	2261.12
561.94	2263.56
562.29	2265.93
562.64	2268.55
563.00	2271.03
563.35	2274.52
563.71	2277.68
564.06	2280.99
564.42	2283.77
564.77	2286.16
565.12	2288.41
565.48	2290.21
565.83	2292.10
566.19	2293.20
566.54	2294.12
566.89	2295.10
567.25	2295.66
567.60	2296.97
567.96	2298.61
568.31	2299.56
568.66	2300.60
569.02	2301.13
569.37	2301.40
569.72	2302.26
570.08	2302.37
570.43	2302.39
570.78	2301.72
571.14	2300.09
571.49	2298.70
571.84	2298.46
572.20	2297.48
572.55	2296.47
572.90	2294.90
573.26	2293.53
573.61	2292.03
573.96	2290.23
574.31	2287.32
574.67	2284.29
575.02	2280.72
575.37	2277.37
575.72	2273.41
576.08	2270.16
576.43	2266.80
576.78	2263.15
577.13	2259.85
577.49	2256.65
577.84	2253.29
578.19	2249.67
578.54	2246.16
578.90	2241.88
579.25	2236.30
579.60	2231.11
579.95	2226.06
580.30	2221.09
580.66	2215.83
581.01	2210.81
581.36	2205.93
581.71	2201.74
582.06	2197.23
582.42	2192.70
582.77	2187.52
583.12	2182.84
583.47	2177.98
583.82	2173.01
584.17	2167.80
584.53	2162.36
584.88	2156.78
585.23	2150.87
585.58	2145.24
585.93	2139.87
586.28	2135.06
586.63	2129.97
586.98	2125.13
587.34	2120.44
587.69	2115.68
588.04	2110.42
588.39	2104.75
588.74	2098.42
589.09	2092.39
589.44	2085.74
589.79	2079.77
590.14	2074.25
590.49	2067.82
590.84	2061.62
591.19	2055.59
591.54	2049.00
591.89	2041.54
592.25	2034.90
592.60	2027.68
592.95	2020.18
593.30	2012.67
593.65	2005.03
594.00	1998.04
594.35	1990.64
594.70	1982.68
595.05	1975.23
595.40	1968.02
595.75	1960.55
596.10	1954.05
596.45	1947.06
596.80	1940.89
597.15	1934.20
597.50	1926.96
597.85	1920.50
598.19	1913.75
598.54	1906.53
598.89	1899.95
599.24	1894.17
599.59	1887.33
599.94	1881.19
600.29	1874.89
600.64	1868.28
600.99	1860.90
601.34	1853.98
601.69	1847.12
602.04	1840.25
602.39	1832.99
602.74	1826.25
603.08	1819.49
603.43	1813.04
603.78	1805.82
604.13	1798.52
604.48	1791.12
604.83	1784.34
605.18	1777.40
605.53	1769.35
605.87	1761.51
606.22	1754.26
606.57	1746.22
606.92	1738.94
607.27	1731.58
607.62	1724.60
607.96	1717.33
608.31	1710.74
608.66	1703.13
609.01	1695.44
609.36	1687.83
609.70	1679.78
610.05	1671.51
610.40	1663.78
610.75	1655.30
611.10	1647.68
611.44	1639.33
611.79	1631.37
612.14	1622.64
612.49	1613.45
612.83	1605.13
613.18	1596.93
613.53	1588.92
613.88	1580.30
614.22	1572.01
614.57	1563.58
614.92	1555.48
615.27	1547.89
615.61	1539.47
615.96	1531.59
616.31	1523.93
616.65	1516.49
617.00	1508.95
617.35	1501.27
617.70	1493.02
618.04	1484.59
618.39	1476.39
618.74	1468.79
619.08	1460.44
619.43	1452.80
619.78	1445.85
620.12	1438.66
620.47	1431.10
620.82	1422.84
621.16	1415.57
621.51	1408.00
621.85	1400.33
622.20	1391.80
622.55	1383.47
622.89	1375.72
623.24	1368.01
623.59	1360.77
623.93	1353.19
624.28	1345.99
624.62	1338.52
624.97	1331.25
625.32	1324.51
625.66	1317.56
626.01	1310.31
626.35	1302.87
626.70	1295.21
627.04	1287.47
627.39	1279.72
627.73	1272.32
628.08	1265.55
628.43	1258.13
628.77	1250.70
629.12	1243.05
629.46	1235.93
629.81	1228.52
630.15	1221.24
630.50	1213.79
630.84	1205.48
631.19	1197.58
631.53	1190.01
631.88	1182.46
632.22	1174.88
632.57	1167.55
632.91	1159.93
633.26	1152.53
633.60	1145.25
633.95	1138.16
634.29	1131.14
634.64	1124.39
634.98	1117.02
635.32	1109.73
635.67	1103.20
636.01	1096.58
636.36	1089.84
636.70	1083.37
637.05	1076.82
637.39	1070.40
637.73	1063.88
638.08	1058.10
638.42	1052.19
638.77	1045.72
639.11	1039.09
639.45	1032.73
639.80	1026.14
640.14	1019.69
640.49	1013.15
640.83	1006.83
641.17	1000.50
641.52	994.17
641.86	987.80
642.20	981.89
642.55	975.60
642.89	969.13
643.23	962.59
643.58	956.82
643.92	950.53
644.26	944.49
644.61	938.45
644.95	932.51
645.29	925.84
645.64	918.99
645.98	912.70
646.32	906.96
646.66	900.86
647.01	894.95
647.35	889.31
647.69	883.48
648.04	877.94
648.38	872.17
648.72	866.13
649.06	859.99
649.41	854.16
649.75	848.24
650.09	842.33
650.43	836.58
650.78	830.42
651.12	824.51
651.46	818.77
651.80	813.00
652.14	807.64
652.49	802.26
652.83	797.16
653.17	791.43
653.51	785.67
653.85	780.34
654.20	774.72
654.54	768.69
654.88	763.07
655.22	757.27
655.56	751.55
655.90	746.14
656.25	740.87
656.59	735.59
656.93	730.48
657.27	725.28
657.61	719.79
657.95	714.70
658.29	709.63
658.64	704.30
658.98	698.99
659.32	693.42
659.66	688.23
660.00	682.91
660.34	678.01
660.68	673.18
661.02	668.11
661.36	663.43
661.70	658.95
662.05	654.49
662.39	650.13
662.73	645.72
663.07	641.35
663.41	636.97
663.75	632.39
664.09	627.83
664.43	623.42
664.77	619.34
665.11	615.14
665.45	611.00
665.79	607.02
666.13	602.93
666.47	598.89
666.81	594.74
667.15	590.60
667.49	586.67
667.83	582.81
668.17	578.88
668.51	574.79
668.85	570.71
669.19	566.92
669.53	563.07
669.87	559.15
670.21	555.41
670.55	551.78
670.89	548.38
671.23	544.93
671.57	541.43
671.91	537.87
672.25	534.34
672.58	530.83
672.92	527.43
673.26	524.20
673.60	521.04
673.94	517.90
674.28	514.99
674.62	512.03
674.96	508.88
675.30	505.92
675.64	502.99
675.97	500.25
676.31	497.36
676.65	494.33
676.99	491.62
677.33	488.77
677.67	485.90
678.01	482.90
678.34	479.97
678.68	477.09
679.02	474.28
679.36	471.52
679.70	468.81
680.04	466.01
680.37	463.13
680.71	460.30
681.05	457.73
681.39	454.98
681.73	452.32
682.06	449.78
682.40	447.31
682.74	444.76
683.08	442.19
683.42	439.66
683.75	437.23
684.09	434.66
684.43	432.19
684.77	429.75
685.10	427.37
685.44	425.01
685.78	422.74
686.12	420.52
686.45	418.20
686.79	415.90
687.13	413.68
687.46	411.58
687.80	409.48
688.14	407.23
688.48	405.22
688.81	402.95
689.15	400.83
689.49	398.66
689.82	396.58
690.16	394.50
690.50	392.46
690.83	390.53
691.17	388.56
691.51	386.65
691.84	384.80
692.18	382.87
692.52	380.86
692.85	378.92
693.19	377.03
693.52	375.20
693.86	373.38
694.20	371.67
694.53	369.81
694.87	367.99
695.21	366.22
695.54	364.43
695.88	362.73
696.21	361.05
696.55	359.33
696.88	357.65
697.22	356.02
697.56	354.40
697.89	352.71
698.23	351.16
698.56	349.52
698.90	347.95
699.23	346.33
699.57	344.85
699.90	343.33
700.24	341.80
700.58	340.25
700.91	338.72
701.25	337.21
701.58	335.86
701.92	334.45
702.25	333.09
702.59	331.64
702.92	330.35
703.26	329.06
703.59	327.82
703.93	326.64
704.26	325.40
704.60	324.14
704.93	322.88
705.26	321.61
705.60	320.50
705.93	319.33
706.27	318.29
706.60	317.25
706.94	316.15
707.27	315.01
707.61	313.98
707.94	312.98
708.27	311.90
708.61	310.82
708.94	309.82
709.28	308.82
709.61	307.90
709.94	306.93
710.28	305.87
710.61	304.86
710.95	303.83
711.28	302.93
711.61	301.97
711.95	301.05
712.28	300.10
712.61	299.12
712.95	298.18
713.28	297.28
713.61	296.34
713.95	295.44
714.28	294.63
714.61	293.78
714.95	292.90
715.28	292.04
715.61	291.18
715.95	290.31
716.28	289.46
716.61	288.62
716.95	287.79
717.28	287.02
717.61	286.27
717.94	285.48
718.28	284.63
718.61	283.91
718.94	283.20
719.27	282.54
719.61	281.87
719.94	281.19
720.27	280.52
720.60	279.88
720.94	279.25
721.27	278.65
721.60	278.05
721.93	277.48
722.27	276.94
722.60	276.39
722.93	275.83
723.26	275.29
723.59	274.72
723.93	274.18
724.26	273.62
724.59	273.04
724.92	272.53
725.25	272.03
725.59	271.51
725.92	271.02
726.25	270.52
726.58	270.01
726.91	269.53
727.24	269.03
727.57	268.55
727.91	268.04
728.24	267.52
728.57	267.04
728.90	266.62
729.23	266.12
729.56	265.69
729.89	265.26
730.22	264.79
730.55	264.34
730.89	263.86
731.22	263.45
731.55	263.04
731.88	262.65
732.21	262.22
732.54	261.79
732.87	261.36
733.20	260.97
733.53	260.59
733.86	260.20
734.19	259.81
734.52	259.46
734.85	259.20
735.18	258.81
735.51	258.46
735.84	258.06
736.17	257.73
736.50	257.33
736.83	257.06
737.16	256.73
737.49	256.39
737.82	256.04
738.15	255.70
738.48	255.34
738.81	255.01
739.14	254.66
739.47	254.35
739.80	254.05
740.13	253.72
740.46	253.41
740.79	253.10
741.12	252.76
741.45	252.44
741.78	252.07
742.11	251.76
742.44	251.44
742.77	251.15
743.10	250.85
743.43	250.57
743.75	250.23
744.08	250.08
744.41	249.85
744.74	249.60
745.07	249.34
745.40	249.13
745.73	248.88
746.06	248.62
746.39	248.36
746.71	248.04
747.04	247.79
747.37	247.52
747.70	247.30
748.03	247.07
748.36	246.85
748.68	246.63
749.01	246.40
749.34	246.16
749.67	245.95
750.00	245.72
750.33	245.56
750.65	245.32
750.98	244.99
751.31	244.75
751.64	244.52
751.97	244.34
752.29	244.10
752.62	243.87
752.95	243.67
753.28	243.47
753.60	243.28
753.93	243.08
754.26	242.92
754.59	242.65
754.91	242.45
755.24	242.22
755.57	242.00
755.90	241.82
756.22	241.61
756.55	241.37
756.88	241.15
757.20	240.91
757.53	240.71
757.86	240.54
758.19	240.35
758.51	240.17
758.84	239.94
759.17	239.79
759.49	239.61
759.82	239.46
760.15	239.33
760.47	239.19
760.80	239.02
761.13	238.86
761.45	238.72
761.78	238.58
762.11	238.44
762.43	238.28
762.76	238.12
763.08	238.03
763.41	237.91
763.74	237.81
764.06	237.64
764.39	237.49
764.71	237.29
765.04	237.17
765.37	237.06
765.69	236.95
766.02	236.79
766.34	236.68
766.67	236.56
767.00	236.45
767.32	236.39
767.65	236.37
767.97	236.23
768.30	236.16
768.62	236.05
768.95	235.95
769.27	235.88
769.60	235.79
769.92	235.64
770.25	235.54
770.57	235.42
770.90	235.33
771.22	235.25
771.55	235.22
771.87	235.14
772.20	235.06
772.52	235.05
772.85	235.09
773.17	235.02
773.50	234.89
773.82	234.75
774.15	234.62
774.47	234.47
774.80	234.39
775.12	234.29
775.45	234.23
775.77	234.16
776.09	234.10
776.42	234.04
776.74	234.01
777.07	233.95
777.39	233.90
777.72	233.82
778.04	233.76
778.36	233.69
778.69	233.63
779.01	233.56
779.33	233.42
779.66	233.22
779.98	233.19
780.31	233.15
780.63	233.14
780.95	233.09
781.28	233.00
781.60	232.93
781.92	232.88
782.25	232.78
782.57	232.72
782.89	232.65
783.22	232.56
783.54	232.47
783.86	232.42
784.19	232.37
784.51	232.33
784.83	232.27
785.16	232.21
785.48	232.14
785.80	232.09
786.12	232.07
786.45	232.05
786.77	231.96
787.09	231.91
787.42	231.85
787.74	231.81
788.06	231.79
788.38	231.76
788.71	231.70
789.03	231.69
789.35	231.64
789.67	231.57
789.99	231.52
790.32	231.48
790.64	231.42
790.96	231.45
791.28	231.39
791.61	231.33
791.93	231.30
792.25	231.26
792.57	231.29
792.89	231.20
793.21	231.14
793.54	231.09
793.86	231.00
794.18	230.93
794.50	230.88
794.82	230.84
795.14	230.80
795.47	230.76
795.79	230.69
796.11	230.63
796.43	230.60
796.75	230.55
797.07	230.49
797.39	230.46
797.71	230.32
798.04	230.29
798.36	230.21
798.68	230.16
799.00	230.13
799.32	230.05
799.64	230.03
799.96	230.01
800.28	229.98
800.60	229.97
800.92	229.96
801.24	229.93
801.56	229.88
801.89	229.83
802.21	229.83
802.53	229.77
802.85	229.76
803.17	229.77
803.49	229.75
803.81	229.75
804.13	229.69
804.45	229.67
804.77	229.64
805.09	229.65
805.41	229.64
805.73	229.58
806.05	229.53
806.37	229.53
806.69	229.48
807.01	229.47
807.33	229.46
807.65	229.41
807.97	229.42
808.28	229.38
808.60	229.33
808.92	229.26
809.24	229.34
809.56	229.33
809.88	229.27
810.20	229.25
810.52	229.24
810.84	229.22
811.16	229.20
811.48	229.17
811.80	229.18
812.12	229.16
812.43	229.18
812.75	229.15
813.07	229.13
813.39	229.12
813.71	229.08
814.03	229.04
814.35	229.01
814.67	228.95
814.98	228.95
815.30	228.96
815.62	228.94
815.94	228.83
816.26	228.84
816.58	228.83
816.89	228.80
817.21	228.77
817.53	228.77
817.85	228.75
818.17	228.76
818.48	228.74
818.80	228.71
819.12	228.67
819.44	228.63
819.76	228.61
820.07	228.58
820.39	228.55
820.71	228.55
821.03	228.57
821.34	228.58
821.66	228.58
821.98	228.59
822.30	228.60
822.61	228.68
822.93	228.60
823.25	228.60
823.57	228.57
823.88	228.58
824.20	228.58
824.52	228.59
824.83	228.53
825.15	228.48
825.47	228.46
825.79	228.45
826.10	228.45
826.42	228.41
826.74	228.42
827.05	228.42
827.37	228.39
827.69	228.36
828.00	228.30
828.32	228.29
828.64	228.26
828.95	228.27
829.27	228.18
829.58	228.16
829.90	228.12
830.22	228.13
830.53	228.10
830.85	228.05
831.17	228.02
831.48	228.01
831.80	228.05
832.11	228.01
832.43	228.01
832.75	227.98
833.06	227.99
833.38	227.95
833.69	227.92
834.01	227.91
834.32	227.87
834.64	227.85
834.96	227.85
835.27	227.81
835.59	227.77
835.90	227.74
836.22	227.74
836.53	227.70
836.85	227.67
837.16	227.75
837.48	227.73
837.79	227.73
838.11	227.74
838.42	227.69
838.74	227.69
839.05	227.68
839.37	227.67
839.68	227.60
840.00	227.59
840.31	227.60
840.63	227.57
840.94	227.56
841.26	227.57
841.57	227.53
841.88	227.53
842.20	227.48
842.51	227.47
842.83	227.46
843.14	227.54
843.46	227.53
843.77	227.44
844.08	227.44
844.40	227.42
844.71	227.40
845.03	227.37
845.34	227.39
845.65	227.35
845.97	227.37
846.28	227.39
846.60	227.40
846.91	227.36
847.22	227.37
847.54	227.39
847.85	227.38
848.16	227.38
848.48	227.35
848.79	227.40
849.10	227.44
849.42	227.46
849.73	227.37
850.04	227.38
850.36	227.36
850.67	227.39
850.98	227.39
851.30	227.43
851.61	227.45
851.92	227.41
852.23	227.47
852.55	227.50
852.86	227.52
853.17	227.56
853.49	227.61
853.80	227.65
854.11	227.67
854.42	227.70
854.74	227.74
855.05	227.76
855.36	227.77
855.67	227.75
855.99	227.74
856.30	227.84
856.61	227.86
856.92	227.87
857.23	227.88
857.55	227.87
857.86	227.85
858.17	227.86
858.48	227.84
858.79	227.82
859.11	227.81
859.42	227.77
859.73	227.74
860.04	227.71
860.35	227.69
860.66	227.65
860.98	227.63
861.29	227.61
861.60	227.61
861.91	227.61
862.22	227.59
862.53	227.60
862.84	227.52
863.16	227.55
863.47	227.54
863.78	227.47
864.09	227.49
864.40	227.50
864.71	227.47
865.02	227.48
865.33	227.43
865.64	227.42
865.95	227.43
866.27	227.48
866.58	227.47
866.89	227.47
867.20	227.45
867.51	227.44
867.82	227.42
868.13	227.47
868.44	227.44
868.75	227.44
869.06	227.41
869.37	227.40
869.68	227.35
869.99	227.34
870.30	227.35
870.61	227.33
870.92	227.31
871.23	227.33
871.54	227.34
871.85	227.40
872.16	227.39
872.47	227.37
872.78	227.32
873.09	227.34
873.40	227.34
873.71	227.36
874.02	227.34
874.33	227.31
874.64	227.27
874.95	227.26
875.26	227.22
875.56	227.23
875.87	227.22
876.18	227.21
876.49	227.32
876.80	227.33
877.11	227.34
877.42	227.32
877.73	227.31
878.04	227.26
878.35	227.22
878.66	227.22
878.96	227.22
879.27	227.20
879.58	227.20
879.89	227.16
880.20	227.20
880.51	227.20
880.82	227.21
881.12	227.20
881.43	227.19
881.74	227.18
882.05	227.17
882.36	227.15
882.67	227.16
882.97	227.06
883.28	227.05
883.59	227.01
883.90	227.03
884.21	227.05
884.51	227.10
884.82	227.10
885.13	227.07
885.44	227.08
885.74	227.09
886.05	227.06
886.36	227.08
886.67	227.04
886.98	227.11
887.28	227.09
887.59	227.12
887.90	227.12
888.20	227.13
888.51	227.14
888.82	227.16
889.13	227.15
889.43	227.22
889.74	227.20
890.05	227.26
890.35	227.25
890.66	227.22
890.97	227.22
891.28	227.23
891.58	227.23
891.89	227.24
892.20	227.23
892.50	227.23
892.81	227.25
893.12	227.22
893.42	227.17
893.73	227.20
894.04	227.16
894.34	227.16
894.65	227.14
894.95	227.13
895.26	227.12
895.57	227.13
895.87	227.05
896.18	227.09
896.48	227.07
896.79	227.09
897.10	227.12
897.40	227.12
897.71	227.15
898.01	227.20
898.32	227.21
898.63	227.21
898.93	227.24
899.24	227.21
899.54	227.22
899.85	227.25
900.15	227.27
900.46	227.31
900.76	227.32
901.07	227.35
901.38	227.37
901.68	227.39
901.99	227.37
902.29	227.41
902.60	227.39
902.90	227.36
903.21	227.38
903.51	227.36
903.82	227.35
904.12	227.32
904.43	227.28
904.73	227.26
905.03	227.29
905.34	227.33
905.64	227.32
905.95	227.32
906.25	227.28
906.56	227.24
906.86	227.21
907.17	227.20
907.47	227.21
907.77	227.21
908.08	227.18
908.38	227.19
908.69	227.15
908.99	227.18
909.30	227.20
909.60	227.17
909.90	227.15
910.21	227.12
910.51	227.11
910.81	227.11
911.12	227.09
911.42	227.05
911.73	226.98
912.03	226.98
912.33	226.99
912.64	226.99
912.94	226.96
913.24	226.95
913.55	226.89
913.85	226.87
914.15	226.83
914.46	226.84
914.76	226.83
915.06	226.83
915.37	226.76
915.67	226.68
915.97	226.65
916.27	226.61
916.58	226.61
916.88	226.57
917.18	226.53
917.49	226.58
917.79	226.58
918.09	226.56
918.39	226.57
918.70	226.54
919.00	226.55
919.30	226.59
919.60	226.58
919.91	226.61
920.21	226.62
920.51	226.63
920.81	226.60
921.12	226.59
921.42	226.55
921.72	226.56
922.02	226.61
922.32	226.63
922.63	226.64
922.93	226.68
923.23	226.72
923.53	226.72
923.83	226.70
924.13	226.69
924.44	226.72
924.74	226.74
925.04	226.77
925.34	226.79
925.64	226.78
925.94	226.78
926.24	226.84
926.55	226.83
926.85	226.84
927.15	226.85
927.45	226.88
927.75	226.88
928.05	226.93
928.35	226.93
928.65	226.96
928.95	227.01
929.26	226.99
929.56	227.01
929.86	227.04
930.16	227.03
930.46	227.04
930.76	227.07
931.06	227.05
931.36	227.06
931.66	227.08
931.96	227.11
932.26	227.13
932.56	227.09
932.86	227.11
933.16	227.14
933.46	227.13
933.76	227.11
934.06	227.19
934.36	227.22
934.66	227.23
934.96	227.22
935.26	227.21
935.56	227.24
935.86	227.24
936.16	227.22
936.46	227.25
936.76	227.27
937.06	227.27
937.36	227.27
937.66	227.26
937.96	227.22
938.26	227.18
938.56	227.20
938.86	227.22
939.16	227.25
939.46	227.24
939.76	227.27
940.06	227.28
940.35	227.24
940.65	227.20
940.95	227.21
941.25	227.20
941.55	227.19
941.85	227.15
942.15	227.16
942.45	227.20
942.75	227.18
943.04	227.17
943.34	227.17
943.64	227.13
943.94	227.12
944.24	227.14
944.54	227.14
944.84	227.09
945.13	227.07
945.43	227.03
945.73	227.03
946.03	226.98
946.33	226.96
946.62	226.94
946.92	226.91
947.22	226.92
947.52	226.89
947.82	226.89
948.11	226.88
948.41	226.87
948.71	226.84
949.01	226.83
949.31	226.81
949.60	226.76
949.90	226.77
950.20	226.74
950.50	226.70
950.79	226.70
951.09	226.71
951.39	226.68
951.69	226.63
951.98	226.63
952.28	226.62
952.58	226.59
952.87	226.60
953.17	226.56
953.47	226.56
953.76	226.57
954.06	226.54
954.36	226.51
954.66	226.47
954.95	226.47
955.25	226.45
955.55	226.45
955.84	226.44
956.14	226.47
956.44	226.47
956.73	226.48
957.03	226.50
957.32	226.51
957.62	226.51
957.92	226.55
958.21	226.52
958.51	226.65
958.81	226.66
959.10	226.68
959.40	226.72
959.69	226.73
959.99	226.75
960.29	226.78
960.58	226.78
960.88	226.83
961.17	226.83
961.47	226.84
961.76	226.85
962.06	226.86
962.36	226.84
962.65	226.86
962.95	226.83
963.24	226.79
963.54	226.77
963.83	226.81
964.13	226.79
964.42	226.79
964.72	226.73
965.01	226.74
965.31	226.73
965.60	226.70
965.90	226.77
966.19	226.76
966.49	226.78
966.78	226.81
967.08	226.80
967.37	226.78
967.67	226.78
967.96	226.80
968.26	226.80
968.55	226.86
968.85	226.87
969.14	226.88
969.43	226.92
969.73	226.93
970.02	226.92
970.32	226.95
970.61	226.95
970.91	226.93
971.20	226.93
971.49	226.90
971.79	226.95
972.08	226.86
972.38	226.88
972.67	226.88
972.96	226.90
973.26	226.89
973.55	226.95
973.85	226.96
974.14	226.97
974.43	226.97
974.73	226.95
975.02	226.97
975.31	226.99
975.61	226.98
975.90	226.98
976.19	226.96
976.49	226.97
976.78	227.00
977.07	227.00
977.37	227.03
977.66	227.03
977.95	227.00
978.24	227.01
978.54	227.03
978.83	227.00
979.12	227.00
979.42	226.99
979.71	226.95
980.00	226.92
980.29	226.90
980.59	226.90
980.88	226.92
981.17	226.85
981.46	226.83
981.76	226.79
982.05	226.82
982.34	226.81
982.63	226.79
982.93	226.76
983.22	226.76
983.51	226.75
983.80	226.78
984.09	226.82
984.39	226.82
984.68	226.77
984.97	226.76
985.26	226.71
985.55	226.71
985.85	226.69
986.14	226.68
986.43	226.69
986.72	226.67
987.01	226.60
987.30	226.61
987.59	226.58
987.89	226.60
988.18	226.54
988.47	226.53
988.76	226.51
989.05	226.51
989.34	226.47
989.63	226.49
989.92	226.45
990.22	226.39
990.51	226.37
990.80	226.34
991.09	226.32
991.38	226.33
991.67	226.31
991.96	226.29
992.25	226.30
992.54	226.28
992.83	226.31
993.12	226.32
993.41	226.34
993.70	226.40
993.99	226.42
994.28	226.46
994.58	226.47
994.87	226.46
995.16	226.41
995.45	226.43
995.74	226.38
996.03	226.42
996.32	226.46
996.61	226.52
996.90	226.55
997.19	226.56
997.48	226.58
997.77	226.62
998.06	226.64
998.34	226.64
998.63	226.65
998.92	226.62
999.21	226.64
999.50	226.66
999.79	226.61
1000.08	226.62
1000.37	226.62
1000.66	226.61
1000.95	226.65
1001.24	226.70
1001.53	226.73
1001.82	226.75
1002.11	226.73
1002.40	226.74
1002.68	226.74
1002.97	226.84
1003.26	226.88
1003.55	226.88
1003.84	226.89
1004.13	226.93
1004.42	226.93
1004.71	226.94
1004.99	226.96
1005.28	226.98
1005.57	226.98
1005.86	227.05
1006.15	227.09
1006.44	227.08
1006.72	227.13
1007.01	227.14
1007.30	227.18
1007.59	227.17
1007.88	227.20
1008.17	227.19
1008.45	227.20
1008.74	227.20
1009.03	227.12
1009.32	227.12
1009.60	227.14
1009.89	227.15
1010.18	227.12
1010.47	227.11
1010.76	227.14
1011.04	227.14
1011.33	227.20
1011.62	227.22
1011.91	227.18
1012.19	227.16
1012.48	227.16
1012.77	227.15
1013.05	227.20
1013.34	227.20
1013.63	227.17
1013.92	227.16
1014.20	227.18
1014.49	227.17
1014.78	227.17
1015.06	227.15
1015.35	227.17
1015.64	227.14
1015.92	227.13
1016.21	227.15
1016.50	227.17
1016.78	227.16
1017.07	227.15
1017.36	227.10
1017.64	227.09
1017.93	227.10
1018.22	227.11
1018.50	227.11
1018.79	227.12
1019.08	227.04
1019.36	227.00
1019.65	227.00
1019.93	227.00
1020.22	226.96
1020.51	227.00
1020.79	226.97
1021.08	227.29
1021.36	227.02
1021.65	227.21
1021.94	226.67
1022.22	226.76
1022.51	226.46
1022.79	226.97
1023.08	226.02
1023.36	228.06
1023.65	226.39
>>>>>End Processed Spectral Data<<<<<
