SpectraSuite Data File
++++++++++++++++++++++++++++++++++++
Date: Fri Feb 01 16:21:25 EST 2013
User: group
Dark Spectrum Present: No
Reference Spectrum Present: No
Number of Sampled Component Spectra: 1
Spectrometers: USB2E7196
Integration Time (usec): 35000 (USB2E7196)
Spectra Averaged: 100 (USB2E7196)
Boxcar Smoothing: 10 (USB2E7196)
Correct for Electrical Dark: No (USB2E7196)
Strobe/Lamp Enabled: No (USB2E7196)
Correct for Detector Non-linearity: No (USB2E7196)
Correct for Stray Light: No (USB2E7196)
Number of Pixels in Processed Spectrum: 2048
>>>>>Begin Processed Spectral Data<<<<<
339.09	0.00
339.48	213.90
339.86	216.29
340.24	216.44
340.63	217.53
341.01	221.15
341.39	220.77
341.78	222.20
342.16	223.37
342.54	223.37
342.93	212.24
343.31	222.98
343.69	223.51
344.07	223.92
344.46	224.38
344.84	224.78
345.22	225.01
345.60	225.31
345.99	225.50
346.37	225.62
346.75	225.74
347.13	225.84
347.52	225.89
347.90	225.99
348.28	226.05
348.66	226.09
349.05	226.07
349.43	226.11
349.81	226.16
350.19	226.20
350.57	226.26
350.96	226.34
351.34	226.41
351.72	226.52
352.10	226.64
352.48	226.70
352.87	226.75
353.25	226.82
353.63	226.86
354.01	226.94
354.39	227.05
354.77	227.14
355.15	227.22
355.54	227.29
355.92	227.33
356.30	227.41
356.68	227.57
357.06	227.66
357.44	227.70
357.82	227.76
358.20	227.84
358.58	227.92
358.97	228.00
359.35	228.07
359.73	228.15
360.11	228.16
360.49	228.25
360.87	228.32
361.25	228.38
361.63	228.47
362.01	228.50
362.39	228.50
362.77	228.53
363.15	228.55
363.53	228.61
363.91	228.62
364.29	228.62
364.67	228.55
365.05	228.55
365.43	228.60
365.81	228.64
366.19	228.67
366.57	228.69
366.95	228.67
367.33	228.65
367.71	228.65
368.09	228.67
368.47	228.63
368.85	228.61
369.23	228.59
369.61	228.49
369.99	228.51
370.37	228.49
370.75	228.50
371.13	228.45
371.51	228.39
371.89	228.37
372.27	228.32
372.65	228.26
373.03	228.20
373.41	228.14
373.78	228.09
374.16	227.98
374.54	227.89
374.92	227.81
375.30	227.74
375.68	227.65
376.06	227.59
376.44	227.52
376.82	227.43
377.19	227.37
377.57	227.33
377.95	227.23
378.33	227.14
378.71	227.01
379.09	226.95
379.47	226.86
379.84	226.76
380.22	226.69
380.60	226.63
380.98	226.59
381.36	226.53
381.73	226.42
382.11	226.37
382.49	226.30
382.87	226.23
383.25	226.17
383.62	226.21
384.00	226.14
384.38	226.09
384.76	226.09
385.13	226.08
385.51	226.00
385.89	225.94
386.27	225.91
386.64	225.91
387.02	225.86
387.40	225.84
387.78	225.83
388.15	225.81
388.53	225.75
388.91	225.70
389.29	225.66
389.66	225.65
390.04	225.62
390.42	225.65
390.79	225.65
391.17	225.68
391.55	225.55
391.92	225.54
392.30	225.52
392.68	225.48
393.05	225.45
393.43	225.46
393.81	225.47
394.18	225.45
394.56	225.44
394.94	225.45
395.31	225.47
395.69	225.50
396.06	225.54
396.44	225.57
396.82	225.61
397.19	225.71
397.57	225.72
397.95	225.79
398.32	225.82
398.70	225.88
399.07	225.92
399.45	226.01
399.82	226.11
400.20	226.20
400.58	226.26
400.95	226.31
401.33	226.40
401.70	226.55
402.08	226.65
402.45	226.75
402.83	226.91
403.20	226.98
403.58	227.07
403.95	227.18
404.33	227.32
404.71	227.44
405.08	227.62
405.46	227.78
405.83	227.91
406.21	228.04
406.58	228.20
406.96	228.39
407.33	228.57
407.70	228.74
408.08	229.02
408.45	229.27
408.83	229.52
409.20	229.75
409.58	229.92
409.95	230.17
410.33	230.45
410.70	230.70
411.08	231.00
411.45	231.32
411.82	231.60
412.20	231.95
412.57	232.36
412.95	232.64
413.32	233.05
413.69	233.46
414.07	233.89
414.44	234.35
414.82	234.77
415.19	235.27
415.56	235.81
415.94	236.33
416.31	236.96
416.68	237.56
417.06	238.24
417.43	238.91
417.81	239.70
418.18	240.43
418.55	241.24
418.93	242.12
419.30	243.00
419.67	243.94
420.04	244.91
420.42	245.88
420.79	247.03
421.16	248.14
421.54	249.32
421.91	250.53
422.28	251.78
422.66	253.12
423.03	254.43
423.40	255.73
423.77	257.13
424.15	258.51
424.52	259.98
424.89	261.57
425.26	263.13
425.64	264.57
426.01	266.20
426.38	267.82
426.75	269.47
427.13	271.20
427.50	273.00
427.87	274.84
428.24	276.70
428.61	278.43
428.99	280.38
429.36	282.48
429.73	284.53
430.10	286.57
430.47	288.66
430.85	290.76
431.22	292.99
431.59	295.35
431.96	297.61
432.33	300.11
432.70	302.53
433.08	305.33
433.45	307.95
433.82	310.54
434.19	313.45
434.56	316.25
434.93	318.89
435.30	321.49
435.68	324.40
436.05	327.22
436.42	330.02
436.79	332.57
437.16	335.26
437.53	338.07
437.90	340.86
438.27	343.60
438.64	346.44
439.01	349.08
439.38	351.28
439.75	353.41
440.13	355.87
440.50	358.20
440.87	360.04
441.24	361.97
441.61	364.12
441.98	365.59
442.35	367.38
442.72	369.22
443.09	371.03
443.46	372.02
443.83	372.62
444.20	373.12
444.57	373.90
444.94	374.16
445.31	374.52
445.68	374.85
446.05	374.90
446.42	374.50
446.79	374.05
447.16	373.63
447.53	373.34
447.90	372.22
448.27	371.06
448.64	369.47
449.01	368.34
449.37	366.40
449.74	364.52
450.11	362.37
450.48	359.91
450.85	357.38
451.22	355.24
451.59	353.22
451.96	351.31
452.33	348.75
452.70	346.45
453.07	343.66
453.43	340.79
453.80	338.04
454.17	335.38
454.54	332.87
454.91	330.13
455.28	327.47
455.65	324.95
456.02	322.48
456.38	320.32
456.75	317.66
457.12	315.42
457.49	313.21
457.86	310.97
458.23	309.17
458.59	307.14
458.96	305.09
459.33	303.23
459.70	301.36
460.07	299.90
460.43	298.19
460.80	296.56
461.17	295.14
461.54	293.66
461.91	292.28
462.27	290.81
462.64	289.55
463.01	288.23
463.38	286.96
463.74	285.60
464.11	284.48
464.48	283.48
464.85	282.34
465.21	281.53
465.58	280.65
465.95	279.52
466.32	278.62
466.68	277.70
467.05	276.80
467.42	275.94
467.78	274.97
468.15	274.07
468.52	273.43
468.88	272.55
469.25	271.77
469.62	271.11
469.98	270.45
470.35	269.87
470.72	269.27
471.08	268.66
471.45	268.15
471.82	267.60
472.18	267.01
472.55	266.61
472.92	266.04
473.28	265.55
473.65	265.15
474.02	264.72
474.38	264.33
474.75	264.02
475.11	263.66
475.48	263.45
475.85	263.26
476.21	263.00
476.58	262.84
476.94	262.73
477.31	262.56
477.67	262.44
478.04	262.32
478.41	262.24
478.77	262.27
479.14	262.19
479.50	262.20
479.87	262.28
480.23	262.39
480.60	262.48
480.96	262.58
481.33	262.73
481.69	262.94
482.06	263.14
482.42	263.36
482.79	263.62
483.15	263.93
483.52	264.30
483.88	264.69
484.25	265.06
484.61	265.45
484.98	265.92
485.34	266.48
485.71	267.09
486.07	267.69
486.44	268.23
486.80	268.96
487.17	269.66
487.53	270.46
487.90	271.26
488.26	272.18
488.62	273.16
488.99	274.16
489.35	275.18
489.72	276.32
490.08	277.56
490.44	278.81
490.81	280.15
491.17	281.51
491.54	282.97
491.90	284.49
492.26	286.16
492.63	287.90
492.99	289.66
493.36	291.51
493.72	293.59
494.08	295.68
494.45	297.93
494.81	300.33
495.17	302.80
495.54	305.45
495.90	308.15
496.26	310.98
496.63	313.98
496.99	317.14
497.35	320.38
497.72	323.76
498.08	327.26
498.44	330.89
498.80	334.76
499.17	338.85
499.53	343.07
499.89	347.44
500.26	351.97
500.62	356.72
500.98	361.77
501.34	366.86
501.71	372.25
502.07	377.74
502.43	383.36
502.79	389.16
503.16	395.18
503.52	401.48
503.88	407.92
504.24	414.55
504.60	421.45
504.97	428.63
505.33	435.99
505.69	443.75
506.05	451.58
506.41	459.53
506.78	467.66
507.14	476.15
507.50	484.88
507.86	493.90
508.22	503.07
508.59	512.26
508.95	521.85
509.31	531.71
509.67	541.83
510.03	552.15
510.39	562.70
510.75	573.45
511.12	584.40
511.48	595.74
511.84	607.17
512.20	618.64
512.56	630.56
512.92	642.69
513.28	654.97
513.64	667.41
514.00	680.05
514.37	693.04
514.73	706.08
515.09	719.13
515.45	732.43
515.81	745.95
516.17	759.92
516.53	774.02
516.89	788.15
517.25	802.29
517.61	816.66
517.97	831.17
518.33	845.65
518.69	860.39
519.05	875.25
519.41	890.43
519.77	905.99
520.13	921.47
520.49	936.82
520.85	952.26
521.21	967.93
521.57	984.11
521.93	999.79
522.29	1016.05
522.65	1032.21
523.01	1048.30
523.37	1064.31
523.73	1080.42
524.09	1096.41
524.45	1112.61
524.81	1129.15
525.17	1145.94
525.53	1162.78
525.89	1179.70
526.25	1196.47
526.61	1212.77
526.97	1229.39
527.33	1245.84
527.68	1262.23
528.04	1278.56
528.40	1295.08
528.76	1312.10
529.12	1328.70
529.48	1345.52
529.84	1361.45
530.20	1378.09
530.56	1395.15
530.91	1412.51
531.27	1429.20
531.63	1445.57
531.99	1462.12
532.35	1477.98
532.71	1493.62
533.07	1509.80
533.42	1525.54
533.78	1541.52
534.14	1557.77
534.50	1573.15
534.86	1588.88
535.21	1604.09
535.57	1620.14
535.93	1635.65
536.29	1650.28
536.65	1665.26
537.00	1679.99
537.36	1695.35
537.72	1709.75
538.08	1724.03
538.44	1737.76
538.79	1751.63
539.15	1765.29
539.51	1778.87
539.87	1793.22
540.22	1807.02
540.58	1820.68
540.94	1833.80
541.29	1846.65
541.65	1859.34
542.01	1872.41
542.37	1884.72
542.72	1897.09
543.08	1908.75
543.44	1921.00
543.79	1932.25
544.15	1943.27
544.51	1954.82
544.87	1965.73
545.22	1976.58
545.58	1986.75
545.94	1996.47
546.29	2006.28
546.65	2016.05
547.01	2025.45
547.36	2034.04
547.72	2042.48
548.07	2050.33
548.43	2058.60
548.79	2066.55
549.14	2074.10
549.50	2081.40
549.86	2088.96
550.21	2096.26
550.57	2103.39
550.92	2109.93
551.28	2117.01
551.64	2123.94
551.99	2130.35
552.35	2136.35
552.70	2142.48
553.06	2148.55
553.41	2154.94
553.77	2160.98
554.13	2167.03
554.48	2173.07
554.84	2178.61
555.19	2183.89
555.55	2189.02
555.90	2193.46
556.26	2198.21
556.61	2202.83
556.97	2207.14
557.32	2211.28
557.68	2215.29
558.03	2219.51
558.39	2223.18
558.74	2227.84
559.10	2231.73
559.45	2235.47
559.81	2239.92
560.16	2243.66
560.52	2246.74
560.87	2250.08
561.23	2252.62
561.58	2255.63
561.94	2258.08
562.29	2260.48
562.64	2263.10
563.00	2265.65
563.35	2269.16
563.71	2272.39
564.06	2275.53
564.42	2278.37
564.77	2280.93
565.12	2283.30
565.48	2285.23
565.83	2287.24
566.19	2288.44
566.54	2289.33
566.89	2290.44
567.25	2290.85
567.60	2292.16
567.96	2293.84
568.31	2294.69
568.66	2295.99
569.02	2296.55
569.37	2296.94
569.72	2297.78
570.08	2298.08
570.43	2298.17
570.78	2297.65
571.14	2296.14
571.49	2294.88
571.84	2294.68
572.20	2293.49
572.55	2292.51
572.90	2291.05
573.26	2289.68
573.61	2288.09
573.96	2286.49
574.31	2283.54
574.67	2280.72
575.02	2277.13
575.37	2273.88
575.72	2270.11
576.08	2266.68
576.43	2263.47
576.78	2259.76
577.13	2256.60
577.49	2253.53
577.84	2250.07
578.19	2246.50
578.54	2243.07
578.90	2238.83
579.25	2233.47
579.60	2228.60
579.95	2223.68
580.30	2218.72
580.66	2213.55
581.01	2208.57
581.36	2203.66
581.71	2199.53
582.06	2195.14
582.42	2190.78
582.77	2185.69
583.12	2181.32
583.47	2176.68
583.82	2171.72
584.17	2166.70
584.53	2161.38
584.88	2155.81
585.23	2150.11
585.58	2144.66
585.93	2139.18
586.28	2134.60
586.63	2129.44
586.98	2124.57
587.34	2119.90
587.69	2115.08
588.04	2109.80
588.39	2104.24
588.74	2097.80
589.09	2091.68
589.44	2084.89
589.79	2079.01
590.14	2073.32
590.49	2066.75
590.84	2060.39
591.19	2054.36
591.54	2047.92
591.89	2040.61
592.25	2033.84
592.60	2026.63
592.95	2018.94
593.30	2011.58
593.65	2003.95
594.00	1996.93
594.35	1989.56
594.70	1981.56
595.05	1974.43
595.40	1967.36
595.75	1959.92
596.10	1953.64
596.45	1947.10
596.80	1940.95
597.15	1934.26
597.50	1927.19
597.85	1920.73
598.19	1914.17
598.54	1907.17
598.89	1900.58
599.24	1894.64
599.59	1887.91
599.94	1881.90
600.29	1875.64
600.64	1869.09
600.99	1861.69
601.34	1854.93
601.69	1848.04
602.04	1841.12
602.39	1833.74
602.74	1826.70
603.08	1819.95
603.43	1813.24
603.78	1805.76
604.13	1798.62
604.48	1791.24
604.83	1784.37
605.18	1777.40
605.53	1769.34
605.87	1761.25
606.22	1753.92
606.57	1746.02
606.92	1738.73
607.27	1731.39
607.62	1724.51
607.96	1717.20
608.31	1710.64
608.66	1703.15
609.01	1695.47
609.36	1687.95
609.70	1679.95
610.05	1671.96
610.40	1664.23
610.75	1655.96
611.10	1648.29
611.44	1639.81
611.79	1631.97
612.14	1623.44
612.49	1614.22
612.83	1605.92
613.18	1597.74
613.53	1589.72
613.88	1581.08
614.22	1572.87
614.57	1564.29
614.92	1556.19
615.27	1548.72
615.61	1540.33
615.96	1532.13
616.31	1524.71
616.65	1517.37
617.00	1509.76
617.35	1502.07
617.70	1493.81
618.04	1485.36
618.39	1477.15
618.74	1469.64
619.08	1461.30
619.43	1453.57
619.78	1446.79
620.12	1439.55
620.47	1432.17
620.82	1424.04
621.16	1416.71
621.51	1409.02
621.85	1401.37
622.20	1392.97
622.55	1384.60
622.89	1376.77
623.24	1369.08
623.59	1361.67
623.93	1354.12
624.28	1346.91
624.62	1339.42
624.97	1332.31
625.32	1325.63
625.66	1318.73
626.01	1311.64
626.35	1304.19
626.70	1296.52
627.04	1288.65
627.39	1280.96
627.73	1273.37
628.08	1266.45
628.43	1259.04
628.77	1251.65
629.12	1244.10
629.46	1236.85
629.81	1229.29
630.15	1222.10
630.50	1214.73
630.84	1206.48
631.19	1198.59
631.53	1191.18
631.88	1183.66
632.22	1175.96
632.57	1168.54
632.91	1160.97
633.26	1153.34
633.60	1145.93
633.95	1138.74
634.29	1131.71
634.64	1125.04
634.98	1117.81
635.32	1110.59
635.67	1104.07
636.01	1097.39
636.36	1090.68
636.70	1084.11
637.05	1077.59
637.39	1071.06
637.73	1064.58
638.08	1058.69
638.42	1052.55
638.77	1045.98
639.11	1039.33
639.45	1032.88
639.80	1026.16
640.14	1019.76
640.49	1013.31
640.83	1007.05
641.17	1000.77
641.52	994.48
641.86	987.82
642.20	981.93
642.55	975.61
642.89	969.15
643.23	962.61
643.58	956.79
643.92	950.73
644.26	944.73
644.61	938.79
644.95	932.70
645.29	926.11
645.64	919.42
645.98	913.08
646.32	907.29
646.66	901.33
647.01	895.59
647.35	889.83
647.69	884.03
648.04	878.43
648.38	872.67
648.72	866.57
649.06	860.58
649.41	854.72
649.75	848.76
650.09	842.78
650.43	837.02
650.78	830.84
651.12	824.78
651.46	819.05
651.80	813.13
652.14	807.74
652.49	802.30
652.83	797.17
653.17	791.47
653.51	785.71
653.85	780.26
654.20	774.59
654.54	768.58
654.88	762.83
655.22	756.98
655.56	751.31
655.90	745.93
656.25	740.72
656.59	735.25
656.93	730.13
657.27	724.98
657.61	719.55
657.95	714.51
658.29	709.43
658.64	704.07
658.98	698.82
659.32	693.32
659.66	688.12
660.00	682.81
660.34	677.93
660.68	672.97
661.02	667.96
661.36	663.28
661.70	658.75
662.05	654.35
662.39	650.06
662.73	645.59
663.07	641.23
663.41	636.76
663.75	632.34
664.09	627.82
664.43	623.37
664.77	619.28
665.11	615.01
665.45	610.85
665.79	606.74
666.13	602.58
666.47	598.56
666.81	594.45
667.15	590.31
667.49	586.38
667.83	582.62
668.17	578.67
668.51	574.57
668.85	570.57
669.19	566.70
669.53	562.79
669.87	558.88
670.21	555.14
670.55	551.53
670.89	548.13
671.23	544.65
671.57	541.14
671.91	537.57
672.25	534.03
672.58	530.50
672.92	527.17
673.26	524.06
673.60	520.83
673.94	517.65
674.28	514.74
674.62	511.77
674.96	508.59
675.30	505.71
675.64	502.77
675.97	499.97
676.31	497.05
676.65	494.13
676.99	491.44
677.33	488.62
677.67	485.76
678.01	482.65
678.34	479.67
678.68	476.77
679.02	473.99
679.36	471.22
679.70	468.53
680.04	465.78
680.37	462.90
680.71	460.13
681.05	457.55
681.39	454.79
681.73	452.12
682.06	449.62
682.40	447.06
682.74	444.53
683.08	441.93
683.42	439.38
683.75	436.84
684.09	434.28
684.43	431.74
684.77	429.31
685.10	426.96
685.44	424.73
685.78	422.47
686.12	420.17
686.45	417.86
686.79	415.51
687.13	413.31
687.46	411.17
687.80	409.02
688.14	406.83
688.48	404.75
688.81	402.48
689.15	400.37
689.49	398.20
689.82	396.11
690.16	394.08
690.50	392.14
690.83	390.22
691.17	388.21
691.51	386.33
691.84	384.44
692.18	382.50
692.52	380.41
692.85	378.44
693.19	376.59
693.52	374.76
693.86	372.98
694.20	371.18
694.53	369.33
694.87	367.47
695.21	365.66
695.54	363.82
695.88	362.13
696.21	360.36
696.55	358.65
696.88	356.93
697.22	355.23
697.56	353.61
697.89	351.94
698.23	350.36
698.56	348.77
698.90	347.18
699.23	345.54
699.57	344.06
699.90	342.52
700.24	340.97
700.58	339.40
700.91	337.87
701.25	336.38
701.58	335.00
701.92	333.65
702.25	332.27
702.59	330.94
702.92	329.59
703.26	328.30
703.59	327.02
703.93	325.93
704.26	324.67
704.60	323.35
704.93	322.10
705.26	320.84
705.60	319.65
705.93	318.48
706.27	317.45
706.60	316.39
706.94	315.34
707.27	314.18
707.61	313.15
707.94	312.12
708.27	311.06
708.61	309.99
708.94	309.01
709.28	308.03
709.61	307.04
709.94	306.13
710.28	305.12
710.61	304.17
710.95	303.05
711.28	302.15
711.61	301.24
711.95	300.31
712.28	299.36
712.61	298.36
712.95	297.44
713.28	296.56
713.61	295.66
713.95	294.74
714.28	293.93
714.61	293.09
714.95	292.26
715.28	291.43
715.61	290.58
715.95	289.69
716.28	288.82
716.61	287.99
716.95	287.13
717.28	286.38
717.61	285.62
717.94	284.85
718.28	284.06
718.61	283.35
718.94	282.67
719.27	282.05
719.61	281.40
719.94	280.75
720.27	280.04
720.60	279.39
720.94	278.79
721.27	278.17
721.60	277.59
721.93	276.97
722.27	276.44
722.60	275.87
722.93	275.32
723.26	274.80
723.59	274.28
723.93	273.75
724.26	273.19
724.59	272.59
724.92	272.10
725.25	271.58
725.59	271.02
725.92	270.51
726.25	269.97
726.58	269.51
726.91	269.01
727.24	268.52
727.57	268.05
727.91	267.55
728.24	267.07
728.57	266.59
728.90	266.15
729.23	265.60
729.56	265.17
729.89	264.69
730.22	264.17
730.55	263.68
730.89	263.22
731.22	262.78
731.55	262.38
731.88	261.92
732.21	261.53
732.54	261.10
732.87	260.63
733.20	260.23
733.53	259.82
733.86	259.44
734.19	259.06
734.52	258.65
734.85	258.32
735.18	257.94
735.51	257.58
735.84	257.19
736.17	256.87
736.50	256.44
736.83	256.18
737.16	255.85
737.49	255.54
737.82	255.19
738.15	254.84
738.48	254.50
738.81	254.18
739.14	253.82
739.47	253.49
739.80	253.21
740.13	252.92
740.46	252.58
740.79	252.24
741.12	251.94
741.45	251.65
741.78	251.30
742.11	250.98
742.44	250.64
742.77	250.37
743.10	250.08
743.43	249.80
743.75	249.44
744.08	249.29
744.41	249.01
744.74	248.73
745.07	248.46
745.40	248.23
745.73	248.00
746.06	247.72
746.39	247.52
746.71	247.22
747.04	246.94
747.37	246.73
747.70	246.49
748.03	246.22
748.36	245.97
748.68	245.73
749.01	245.49
749.34	245.27
749.67	245.03
750.00	244.76
750.33	244.59
750.65	244.36
750.98	244.03
751.31	243.79
751.64	243.60
751.97	243.45
752.29	243.19
752.62	242.96
752.95	242.76
753.28	242.51
753.60	242.33
753.93	242.17
754.26	242.00
754.59	241.78
754.91	241.59
755.24	241.38
755.57	241.19
755.90	241.03
756.22	240.86
756.55	240.63
756.88	240.48
757.20	240.24
757.53	240.09
757.86	239.92
758.19	239.77
758.51	239.61
758.84	239.39
759.17	239.22
759.49	239.03
759.82	238.92
760.15	238.80
760.47	238.68
760.80	238.47
761.13	238.30
761.45	238.14
761.78	237.97
762.11	237.84
762.43	237.72
762.76	237.58
763.08	237.42
763.41	237.30
763.74	237.18
764.06	237.05
764.39	236.91
764.71	236.76
765.04	236.61
765.37	236.46
765.69	236.32
766.02	236.17
766.34	236.10
766.67	235.95
767.00	235.81
767.32	235.72
767.65	235.68
767.97	235.59
768.30	235.48
768.62	235.37
768.95	235.24
769.27	235.11
769.60	234.99
769.92	234.87
770.25	234.75
770.57	234.61
770.90	234.52
771.22	234.41
771.55	234.32
771.87	234.25
772.20	234.12
772.52	234.13
772.85	234.18
773.17	234.05
773.50	233.96
773.82	233.86
774.15	233.69
774.47	233.53
774.80	233.41
775.12	233.36
775.45	233.26
775.77	233.19
776.09	233.14
776.42	233.05
776.74	233.02
777.07	232.97
777.39	232.90
777.72	232.81
778.04	232.76
778.36	232.68
778.69	232.58
779.01	232.57
779.33	232.43
779.66	232.23
779.98	232.14
780.31	232.10
780.63	232.07
780.95	232.04
781.28	232.00
781.60	231.93
781.92	231.83
782.25	231.76
782.57	231.69
782.89	231.62
783.22	231.56
783.54	231.43
783.86	231.39
784.19	231.35
784.51	231.30
784.83	231.19
785.16	231.12
785.48	231.07
785.80	231.01
786.12	230.96
786.45	230.91
786.77	230.87
787.09	230.78
787.42	230.70
787.74	230.66
788.06	230.59
788.38	230.51
788.71	230.46
789.03	230.45
789.35	230.44
789.67	230.35
789.99	230.29
790.32	230.26
790.64	230.21
790.96	230.21
791.28	230.15
791.61	230.11
791.93	230.08
792.25	230.01
792.57	230.03
792.89	229.98
793.21	229.97
793.54	229.94
793.86	229.90
794.18	229.86
794.50	229.81
794.82	229.77
795.14	229.76
795.47	229.77
795.79	229.73
796.11	229.67
796.43	229.67
796.75	229.66
797.07	229.63
797.39	229.58
797.71	229.50
798.04	229.50
798.36	229.50
798.68	229.46
799.00	229.43
799.32	229.34
799.64	229.30
799.96	229.23
800.28	229.20
800.60	229.20
800.92	229.18
801.24	229.11
801.56	229.11
801.89	229.08
802.21	229.01
802.53	228.95
802.85	228.94
803.17	228.93
803.49	228.89
803.81	228.86
804.13	228.84
804.45	228.81
804.77	228.77
805.09	228.75
805.41	228.71
805.73	228.67
806.05	228.60
806.37	228.56
806.69	228.54
807.01	228.51
807.33	228.47
807.65	228.41
807.97	228.45
808.28	228.43
808.60	228.40
808.92	228.40
809.24	228.43
809.56	228.40
809.88	228.34
810.20	228.32
810.52	228.33
810.84	228.30
811.16	228.23
811.48	228.19
811.80	228.19
812.12	228.18
812.43	228.21
812.75	228.23
813.07	228.20
813.39	228.22
813.71	228.20
814.03	228.17
814.35	228.16
814.67	228.10
814.98	228.02
815.30	228.00
815.62	228.00
815.94	227.91
816.26	227.92
816.58	227.90
816.89	227.88
817.21	227.81
817.53	227.77
817.85	227.80
818.17	227.81
818.48	227.77
818.80	227.77
819.12	227.71
819.44	227.68
819.76	227.65
820.07	227.61
820.39	227.58
820.71	227.58
821.03	227.55
821.34	227.52
821.66	227.56
821.98	227.53
822.30	227.50
822.61	227.57
822.93	227.53
823.25	227.53
823.57	227.52
823.88	227.56
824.20	227.53
824.52	227.52
824.83	227.51
825.15	227.48
825.47	227.45
825.79	227.47
826.10	227.47
826.42	227.48
826.74	227.49
827.05	227.51
827.37	227.48
827.69	227.46
828.00	227.45
828.32	227.43
828.64	227.44
828.95	227.43
829.27	227.37
829.58	227.33
829.90	227.34
830.22	227.31
830.53	227.27
830.85	227.27
831.17	227.22
831.48	227.20
831.80	227.20
832.11	227.18
832.43	227.13
832.75	227.07
833.06	227.12
833.38	227.09
833.69	227.03
834.01	227.04
834.32	227.02
834.64	227.02
834.96	227.03
835.27	227.01
835.59	226.99
835.90	226.94
836.22	226.93
836.53	226.88
836.85	226.83
837.16	226.92
837.48	226.91
837.79	226.95
838.11	226.95
838.42	226.92
838.74	226.93
839.05	226.94
839.37	226.92
839.68	226.83
840.00	226.79
840.31	226.79
840.63	226.80
840.94	226.78
841.26	226.75
841.57	226.70
841.88	226.69
842.20	226.67
842.51	226.66
842.83	226.65
843.14	226.73
843.46	226.77
843.77	226.71
844.08	226.73
844.40	226.67
844.71	226.64
845.03	226.63
845.34	226.62
845.65	226.59
845.97	226.62
846.28	226.60
846.60	226.63
846.91	226.62
847.22	226.62
847.54	226.60
847.85	226.61
848.16	226.60
848.48	226.57
848.79	226.62
849.10	226.62
849.42	226.62
849.73	226.53
850.04	226.50
850.36	226.45
850.67	226.43
850.98	226.40
851.30	226.45
851.61	226.45
851.92	226.44
852.23	226.45
852.55	226.43
852.86	226.47
853.17	226.43
853.49	226.46
853.80	226.46
854.11	226.47
854.42	226.48
854.74	226.48
855.05	226.51
855.36	226.45
855.67	226.49
855.99	226.50
856.30	226.61
856.61	226.61
856.92	226.61
857.23	226.60
857.55	226.62
857.86	226.56
858.17	226.62
858.48	226.58
858.79	226.58
859.11	226.62
859.42	226.62
859.73	226.62
860.04	226.60
860.35	226.56
860.66	226.54
860.98	226.54
861.29	226.55
861.60	226.50
861.91	226.49
862.22	226.41
862.53	226.40
862.84	226.30
863.16	226.32
863.47	226.34
863.78	226.36
864.09	226.32
864.40	226.37
864.71	226.34
865.02	226.37
865.33	226.39
865.64	226.35
865.95	226.36
866.27	226.41
866.58	226.37
866.89	226.40
867.20	226.41
867.51	226.41
867.82	226.40
868.13	226.46
868.44	226.46
868.75	226.50
869.06	226.47
869.37	226.45
869.68	226.42
869.99	226.41
870.30	226.40
870.61	226.43
870.92	226.38
871.23	226.32
871.54	226.32
871.85	226.28
872.16	226.30
872.47	226.29
872.78	226.24
873.09	226.28
873.40	226.24
873.71	226.26
874.02	226.26
874.33	226.25
874.64	226.20
874.95	226.23
875.26	226.21
875.56	226.20
875.87	226.22
876.18	226.19
876.49	226.26
876.80	226.24
877.11	226.22
877.42	226.23
877.73	226.29
878.04	226.26
878.35	226.28
878.66	226.29
878.96	226.26
879.27	226.25
879.58	226.22
879.89	226.20
880.20	226.24
880.51	226.24
880.82	226.24
881.12	226.23
881.43	226.19
881.74	226.17
882.05	226.20
882.36	226.19
882.67	226.21
882.97	226.07
883.28	226.06
883.59	226.08
883.90	226.08
884.21	226.06
884.51	226.05
884.82	226.05
885.13	226.05
885.44	226.07
885.74	226.06
886.05	226.04
886.36	226.06
886.67	226.02
886.98	226.02
887.28	226.03
887.59	226.06
887.90	226.06
888.20	226.06
888.51	226.09
888.82	226.06
889.13	226.05
889.43	226.16
889.74	226.18
890.05	226.16
890.35	226.15
890.66	226.13
890.97	226.17
891.28	226.14
891.58	226.12
891.89	226.12
892.20	226.10
892.50	226.14
892.81	226.13
893.12	226.13
893.42	226.09
893.73	226.10
894.04	226.08
894.34	226.12
894.65	226.11
894.95	226.10
895.26	226.14
895.57	226.21
895.87	226.14
896.18	226.12
896.48	226.16
896.79	226.16
897.10	226.18
897.40	226.15
897.71	226.15
898.01	226.14
898.32	226.13
898.63	226.17
898.93	226.16
899.24	226.16
899.54	226.15
899.85	226.15
900.15	226.13
900.46	226.13
900.76	226.12
901.07	226.16
901.38	226.15
901.68	226.15
901.99	226.10
902.29	226.12
902.60	226.16
902.90	226.15
903.21	226.14
903.51	226.15
903.82	226.18
904.12	226.20
904.43	226.24
904.73	226.26
905.03	226.24
905.34	226.31
905.64	226.32
905.95	226.33
906.25	226.34
906.56	226.36
906.86	226.38
907.17	226.36
907.47	226.35
907.77	226.34
908.08	226.34
908.38	226.32
908.69	226.34
908.99	226.36
909.30	226.36
909.60	226.36
909.90	226.31
910.21	226.27
910.51	226.23
910.81	226.18
911.12	226.14
911.42	226.16
911.73	226.06
912.03	226.05
912.33	226.10
912.64	226.12
912.94	226.10
913.24	226.06
913.55	226.06
913.85	226.07
914.15	226.07
914.46	226.06
914.76	226.05
915.06	226.01
915.37	225.97
915.67	225.96
915.97	225.94
916.27	225.96
916.58	226.01
916.88	226.05
917.18	226.07
917.49	226.16
917.79	226.14
918.09	226.20
918.39	226.22
918.70	226.19
919.00	226.18
919.30	226.23
919.60	226.22
919.91	226.23
920.21	226.21
920.51	226.20
920.81	226.23
921.12	226.23
921.42	226.24
921.72	226.27
922.02	226.29
922.32	226.35
922.63	226.35
922.93	226.36
923.23	226.34
923.53	226.33
923.83	226.27
924.13	226.28
924.44	226.26
924.74	226.29
925.04	226.30
925.34	226.33
925.64	226.29
925.94	226.33
926.24	226.39
926.55	226.37
926.85	226.39
927.15	226.40
927.45	226.43
927.75	226.40
928.05	226.38
928.35	226.35
928.65	226.32
928.95	226.31
929.26	226.28
929.56	226.33
929.86	226.37
930.16	226.34
930.46	226.36
930.76	226.35
931.06	226.29
931.36	226.26
931.66	226.23
931.96	226.23
932.26	226.21
932.56	226.14
932.86	226.18
933.16	226.19
933.46	226.16
933.76	226.13
934.06	226.17
934.36	226.19
934.66	226.18
934.96	226.17
935.26	226.18
935.56	226.20
935.86	226.16
936.16	226.13
936.46	226.11
936.76	226.06
937.06	226.06
937.36	226.08
937.66	226.10
937.96	226.14
938.26	226.12
938.56	226.12
938.86	226.13
939.16	226.14
939.46	226.13
939.76	226.13
940.06	226.15
940.35	226.11
940.65	226.06
940.95	226.09
941.25	226.08
941.55	226.08
941.85	226.08
942.15	226.11
942.45	226.15
942.75	226.17
943.04	226.22
943.34	226.20
943.64	226.15
943.94	226.11
944.24	226.11
944.54	226.11
944.84	226.10
945.13	226.07
945.43	226.06
945.73	226.06
946.03	226.06
946.33	226.04
946.62	226.04
946.92	226.05
947.22	226.07
947.52	226.11
947.82	226.13
948.11	226.12
948.41	226.08
948.71	226.04
949.01	226.06
949.31	226.02
949.60	226.03
949.90	226.09
950.20	226.10
950.50	226.08
950.79	226.08
951.09	226.07
951.39	226.09
951.69	226.05
951.98	226.08
952.28	226.07
952.58	226.08
952.87	226.07
953.17	226.06
953.47	226.04
953.76	226.03
954.06	225.99
954.36	225.96
954.66	226.01
954.95	226.04
955.25	226.02
955.55	226.04
955.84	226.03
956.14	226.02
956.44	226.02
956.73	226.02
957.03	226.00
957.32	226.02
957.62	226.02
957.92	226.06
958.21	226.05
958.51	226.12
958.81	226.11
959.10	226.13
959.40	226.18
959.69	226.16
959.99	226.15
960.29	226.10
960.58	226.12
960.88	226.13
961.17	226.14
961.47	226.15
961.76	226.14
962.06	226.18
962.36	226.16
962.65	226.14
962.95	226.17
963.24	226.17
963.54	226.17
963.83	226.15
964.13	226.14
964.42	226.12
964.72	226.04
965.01	226.05
965.31	226.03
965.60	226.00
965.90	226.06
966.19	226.06
966.49	226.12
966.78	226.10
967.08	226.09
967.37	226.03
967.67	226.00
967.96	226.03
968.26	226.00
968.55	226.04
968.85	226.05
969.14	226.03
969.43	226.02
969.73	225.99
970.02	225.96
970.32	225.95
970.61	225.90
970.91	225.88
971.20	225.88
971.49	225.87
971.79	225.86
972.08	225.77
972.38	225.78
972.67	225.73
972.96	225.73
973.26	225.69
973.55	225.71
973.85	225.70
974.14	225.68
974.43	225.68
974.73	225.59
975.02	225.56
975.31	225.58
975.61	225.58
975.90	225.56
976.19	225.55
976.49	225.55
976.78	225.60
977.07	225.60
977.37	225.60
977.66	225.63
977.95	225.58
978.24	225.61
978.54	225.60
978.83	225.60
979.12	225.65
979.42	225.65
979.71	225.66
980.00	225.71
980.29	225.70
980.59	225.69
980.88	225.70
981.17	225.72
981.46	225.68
981.76	225.66
982.05	225.69
982.34	225.70
982.63	225.68
982.93	225.68
983.22	225.72
983.51	225.74
983.80	225.73
984.09	225.76
984.39	225.76
984.68	225.77
984.97	225.80
985.26	225.77
985.55	225.77
985.85	225.73
986.14	225.69
986.43	225.69
986.72	225.69
987.01	225.68
987.30	225.68
987.59	225.70
987.89	225.70
988.18	225.70
988.47	225.73
988.76	225.71
989.05	225.71
989.34	225.68
989.63	225.70
989.92	225.68
990.22	225.68
990.51	225.70
990.80	225.68
991.09	225.70
991.38	225.70
991.67	225.69
991.96	225.71
992.25	225.75
992.54	225.74
992.83	225.76
993.12	225.75
993.41	225.82
993.70	225.83
993.99	225.85
994.28	225.83
994.58	225.85
994.87	225.88
995.16	225.91
995.45	225.93
995.74	225.90
996.03	225.92
996.32	225.94
996.61	225.98
996.90	225.99
997.19	225.97
997.48	226.01
997.77	225.98
998.06	225.99
998.34	225.97
998.63	226.00
998.92	226.00
999.21	226.07
999.50	226.03
999.79	226.02
1000.08	226.03
1000.37	226.07
1000.66	226.05
1000.95	226.08
1001.24	226.06
1001.53	226.07
1001.82	226.07
1002.11	226.04
1002.40	226.07
1002.68	226.08
1002.97	226.15
1003.26	226.13
1003.55	226.11
1003.84	226.13
1004.13	226.16
1004.42	226.15
1004.71	226.14
1004.99	226.15
1005.28	226.15
1005.57	226.16
1005.86	226.16
1006.15	226.17
1006.44	226.15
1006.72	226.15
1007.01	226.13
1007.30	226.15
1007.59	226.15
1007.88	226.13
1008.17	226.13
1008.45	226.07
1008.74	226.02
1009.03	225.96
1009.32	225.96
1009.60	225.98
1009.89	225.96
1010.18	225.89
1010.47	225.88
1010.76	225.88
1011.04	225.87
1011.33	225.87
1011.62	225.89
1011.91	225.86
1012.19	225.87
1012.48	225.87
1012.77	225.87
1013.05	225.89
1013.34	225.85
1013.63	225.84
1013.92	225.88
1014.20	225.87
1014.49	225.89
1014.78	225.89
1015.06	225.86
1015.35	225.85
1015.64	225.84
1015.92	225.90
1016.21	225.94
1016.50	225.97
1016.78	225.95
1017.07	225.94
1017.36	225.91
1017.64	225.87
1017.93	225.89
1018.22	225.86
1018.50	225.85
1018.79	225.85
1019.08	225.77
1019.36	225.76
1019.65	225.74
1019.93	225.75
1020.22	225.77
1020.51	225.80
1020.79	225.80
1021.08	225.48
1021.36	225.63
1021.65	225.61
1021.94	224.96
1022.22	225.36
1022.51	225.48
1022.79	226.64
1023.08	225.84
1023.36	226.33
1023.65	225.97
>>>>>End Processed Spectral Data<<<<<
