SpectraSuite Data File
++++++++++++++++++++++++++++++++++++
Date: Fri Feb 01 15:53:40 EST 2013
User: group
Dark Spectrum Present: No
Reference Spectrum Present: No
Number of Sampled Component Spectra: 1
Spectrometers: USB2E7196
Integration Time (usec): 35000 (USB2E7196)
Spectra Averaged: 100 (USB2E7196)
Boxcar Smoothing: 10 (USB2E7196)
Correct for Electrical Dark: No (USB2E7196)
Strobe/Lamp Enabled: No (USB2E7196)
Correct for Detector Non-linearity: No (USB2E7196)
Correct for Stray Light: No (USB2E7196)
Number of Pixels in Processed Spectrum: 2048
>>>>>Begin Processed Spectral Data<<<<<
339.09	0.00
339.48	214.64
339.86	216.02
340.24	217.60
340.63	218.89
341.01	221.13
341.39	221.43
341.78	222.68
342.16	224.10
342.54	225.18
342.93	212.99
343.31	223.76
343.69	224.30
344.07	224.79
344.46	225.20
344.84	225.61
345.22	225.90
345.60	226.14
345.99	226.35
346.37	226.47
346.75	226.56
347.13	226.60
347.52	226.70
347.90	226.83
348.28	226.86
348.66	226.90
349.05	226.92
349.43	226.95
349.81	227.04
350.19	227.09
350.57	227.12
350.96	227.17
351.34	227.25
351.72	227.35
352.10	227.42
352.48	227.51
352.87	227.52
353.25	227.56
353.63	227.67
354.01	227.76
354.39	227.87
354.77	227.96
355.15	228.11
355.54	228.14
355.92	228.18
356.30	228.25
356.68	228.39
357.06	228.47
357.44	228.52
357.82	228.55
358.20	228.66
358.58	228.74
358.97	228.82
359.35	228.91
359.73	228.99
360.11	229.07
360.49	229.13
360.87	229.21
361.25	229.28
361.63	229.31
362.01	229.33
362.39	229.34
362.77	229.36
363.15	229.37
363.53	229.38
363.91	229.40
364.29	229.41
364.67	229.33
365.05	229.37
365.43	229.38
365.81	229.38
366.19	229.41
366.57	229.44
366.95	229.41
367.33	229.37
367.71	229.36
368.09	229.34
368.47	229.32
368.85	229.26
369.23	229.26
369.61	229.23
369.99	229.22
370.37	229.23
370.75	229.26
371.13	229.19
371.51	229.15
371.89	229.09
372.27	229.03
372.65	229.00
373.03	228.93
373.41	228.86
373.78	228.82
374.16	228.69
374.54	228.60
374.92	228.53
375.30	228.47
375.68	228.36
376.06	228.27
376.44	228.19
376.82	228.13
377.19	228.03
377.57	227.93
377.95	227.85
378.33	227.72
378.71	227.54
379.09	227.48
379.47	227.43
379.84	227.35
380.22	227.27
380.60	227.16
380.98	227.05
381.36	226.98
381.73	226.88
382.11	226.81
382.49	226.76
382.87	226.69
383.25	226.63
383.62	226.66
384.00	226.59
384.38	226.53
384.76	226.46
385.13	226.45
385.51	226.42
385.89	226.34
386.27	226.26
386.64	226.24
387.02	226.20
387.40	226.12
387.78	226.11
388.15	226.05
388.53	226.03
388.91	226.01
389.29	225.97
389.66	225.94
390.04	225.94
390.42	225.93
390.79	225.93
391.17	225.91
391.55	225.82
391.92	225.81
392.30	225.82
392.68	225.85
393.05	225.86
393.43	225.85
393.81	225.87
394.18	225.87
394.56	225.92
394.94	225.95
395.31	225.99
395.69	226.02
396.06	226.09
396.44	226.14
396.82	226.18
397.19	226.30
397.57	226.37
397.95	226.44
398.32	226.46
398.70	226.53
399.07	226.60
399.45	226.65
399.82	226.75
400.20	226.80
400.58	226.87
400.95	226.89
401.33	227.01
401.70	227.17
402.08	227.30
402.45	227.41
402.83	227.54
403.20	227.64
403.58	227.78
403.95	227.92
404.33	228.07
404.71	228.21
405.08	228.38
405.46	228.51
405.83	228.65
406.21	228.80
406.58	228.95
406.96	229.14
407.33	229.31
407.70	229.50
408.08	229.79
408.45	229.99
408.83	230.26
409.20	230.45
409.58	230.62
409.95	230.87
410.33	231.09
410.70	231.35
411.08	231.66
411.45	231.96
411.82	232.24
412.20	232.61
412.57	233.02
412.95	233.33
413.32	233.73
413.69	234.13
414.07	234.58
414.44	235.06
414.82	235.55
415.19	236.13
415.56	236.67
415.94	237.19
416.31	237.85
416.68	238.46
417.06	239.19
417.43	239.89
417.81	240.65
418.18	241.44
418.55	242.27
418.93	243.13
419.30	244.02
419.67	244.97
420.04	245.91
420.42	246.88
420.79	248.08
421.16	249.20
421.54	250.40
421.91	251.60
422.28	252.87
422.66	254.18
423.03	255.47
423.40	256.81
423.77	258.24
424.15	259.69
424.52	261.20
424.89	262.81
425.26	264.34
425.64	265.78
426.01	267.39
426.38	269.01
426.75	270.71
427.13	272.45
427.50	274.24
427.87	276.10
428.24	277.96
428.61	279.64
428.99	281.61
429.36	283.77
429.73	285.82
430.10	287.89
430.47	289.92
430.85	292.03
431.22	294.28
431.59	296.65
431.96	298.87
432.33	301.31
432.70	303.67
433.08	306.47
433.45	309.11
433.82	311.70
434.19	314.60
434.56	317.40
434.93	320.07
435.30	322.65
435.68	325.52
436.05	328.38
436.42	331.20
436.79	333.70
437.16	336.33
437.53	339.17
437.90	341.92
438.27	344.71
438.64	347.53
439.01	350.08
439.38	352.34
439.75	354.48
440.13	356.97
440.50	359.33
440.87	361.19
441.24	363.13
441.61	365.31
441.98	366.83
442.35	368.57
442.72	370.45
443.09	372.30
443.46	373.33
443.83	373.86
444.20	374.36
444.57	375.21
444.94	375.51
445.31	375.86
445.68	376.23
446.05	376.21
446.42	375.79
446.79	375.43
447.16	374.93
447.53	374.58
447.90	373.44
448.27	372.25
448.64	370.67
449.01	369.55
449.37	367.57
449.74	365.65
450.11	363.42
450.48	360.89
450.85	358.35
451.22	356.24
451.59	354.24
451.96	352.29
452.33	349.65
452.70	347.29
453.07	344.48
453.43	341.56
453.80	338.86
454.17	336.24
454.54	333.70
454.91	331.01
455.28	328.40
455.65	325.92
456.02	323.53
456.38	321.37
456.75	318.71
457.12	316.47
457.49	314.27
457.86	312.14
458.23	310.27
458.59	308.23
458.96	306.11
459.33	304.29
459.70	302.44
460.07	300.94
460.43	299.23
460.80	297.59
461.17	296.14
461.54	294.63
461.91	293.19
462.27	291.70
462.64	290.43
463.01	289.08
463.38	287.78
463.74	286.36
464.11	285.21
464.48	284.19
464.85	283.04
465.21	282.15
465.58	281.22
465.95	280.13
466.32	279.25
466.68	278.38
467.05	277.47
467.42	276.58
467.78	275.62
468.15	274.73
468.52	274.11
468.88	273.30
469.25	272.54
469.62	271.91
469.98	271.25
470.35	270.65
470.72	270.03
471.08	269.36
471.45	268.81
471.82	268.27
472.18	267.65
472.55	267.24
472.92	266.73
473.28	266.27
473.65	265.82
474.02	265.34
474.38	264.93
474.75	264.57
475.11	264.20
475.48	264.03
475.85	263.81
476.21	263.53
476.58	263.35
476.94	263.20
477.31	263.06
477.67	262.91
478.04	262.80
478.41	262.71
478.77	262.78
479.14	262.75
479.50	262.74
479.87	262.87
480.23	262.98
480.60	263.06
480.96	263.13
481.33	263.34
481.69	263.56
482.06	263.80
482.42	264.03
482.79	264.32
483.15	264.61
483.52	264.98
483.88	265.33
484.25	265.68
484.61	266.10
484.98	266.56
485.34	267.14
485.71	267.69
486.07	268.33
486.44	268.91
486.80	269.60
487.17	270.32
487.53	271.11
487.90	271.93
488.26	272.87
488.62	273.86
488.99	274.84
489.35	275.86
489.72	276.99
490.08	278.15
490.44	279.39
490.81	280.71
491.17	282.07
491.54	283.58
491.90	285.16
492.26	286.81
492.63	288.51
492.99	290.29
493.36	292.20
493.72	294.28
494.08	296.39
494.45	298.64
494.81	301.02
495.17	303.48
495.54	306.07
495.90	308.76
496.26	311.59
496.63	314.60
496.99	317.76
497.35	321.01
497.72	324.43
498.08	327.93
498.44	331.67
498.80	335.62
499.17	339.62
499.53	343.81
499.89	348.20
500.26	352.72
500.62	357.40
500.98	362.36
501.34	367.41
501.71	372.72
502.07	378.17
502.43	383.77
502.79	389.57
503.16	395.67
503.52	401.94
503.88	408.39
504.24	414.95
504.60	421.84
504.97	428.93
505.33	436.27
505.69	444.02
506.05	451.81
506.41	459.69
506.78	467.91
507.14	476.27
507.50	485.03
507.86	494.06
508.22	503.30
508.59	512.55
508.95	522.15
509.31	532.01
509.67	542.09
510.03	552.42
510.39	562.96
510.75	573.77
511.12	584.71
511.48	595.95
511.84	607.45
512.20	618.93
512.56	630.87
512.92	643.10
513.28	655.39
513.64	667.81
514.00	680.45
514.37	693.32
514.73	706.38
515.09	719.38
515.45	732.68
515.81	746.18
516.17	760.18
516.53	774.30
516.89	788.39
517.25	802.62
517.61	816.99
517.97	831.54
518.33	845.96
518.69	860.76
519.05	875.71
519.41	890.91
519.77	906.53
520.13	922.04
520.49	937.35
520.85	952.74
521.21	968.50
521.57	984.69
521.93	1000.55
522.29	1016.95
522.65	1033.15
523.01	1049.33
523.37	1065.41
523.73	1081.47
524.09	1097.49
524.45	1113.92
524.81	1130.48
525.17	1147.26
525.53	1164.07
525.89	1180.88
526.25	1197.66
526.61	1214.15
526.97	1230.82
527.33	1247.18
527.68	1263.76
528.04	1280.21
528.40	1296.78
528.76	1313.87
529.12	1330.50
529.48	1347.33
529.84	1363.38
530.20	1380.04
530.56	1397.00
530.91	1414.39
531.27	1431.16
531.63	1447.59
531.99	1464.10
532.35	1480.12
532.71	1496.11
533.07	1512.32
533.42	1528.19
533.78	1544.12
534.14	1560.23
534.50	1575.56
534.86	1591.48
535.21	1606.61
535.57	1622.65
535.93	1638.03
536.29	1652.76
536.65	1667.68
537.00	1682.40
537.36	1697.63
537.72	1712.15
538.08	1726.54
538.44	1740.27
538.79	1754.08
539.15	1767.79
539.51	1781.47
539.87	1795.68
540.22	1809.33
540.58	1822.98
540.94	1836.29
541.29	1849.18
541.65	1861.86
542.01	1874.99
542.37	1887.25
542.72	1899.68
543.08	1911.26
543.44	1923.73
543.79	1934.85
544.15	1945.87
544.51	1957.36
544.87	1968.28
545.22	1979.04
545.58	1989.28
545.94	1998.98
546.29	2008.75
546.65	2018.58
547.01	2027.86
547.36	2036.60
547.72	2045.03
548.07	2052.90
548.43	2061.01
548.79	2069.13
549.14	2076.74
549.50	2084.19
549.86	2091.94
550.21	2099.30
550.57	2106.47
550.92	2113.04
551.28	2120.02
551.64	2127.05
551.99	2133.65
552.35	2139.92
552.70	2146.14
553.06	2152.15
553.41	2158.56
553.77	2164.72
554.13	2170.80
554.48	2176.84
554.84	2182.19
555.19	2187.57
555.55	2192.84
555.90	2197.35
556.26	2202.16
556.61	2206.82
556.97	2210.94
557.32	2214.86
557.68	2218.90
558.03	2223.28
558.39	2227.11
558.74	2231.85
559.10	2235.73
559.45	2239.40
559.81	2243.64
560.16	2247.34
560.52	2250.48
560.87	2253.86
561.23	2256.50
561.58	2259.45
561.94	2261.99
562.29	2264.44
562.64	2266.93
563.00	2269.44
563.35	2272.99
563.71	2276.16
564.06	2279.53
564.42	2282.39
564.77	2284.91
565.12	2287.30
565.48	2289.13
565.83	2290.86
566.19	2292.10
566.54	2293.11
566.89	2294.15
567.25	2294.64
567.60	2295.91
567.96	2297.64
568.31	2298.51
568.66	2299.73
569.02	2300.19
569.37	2300.56
569.72	2301.44
570.08	2301.83
570.43	2301.88
570.78	2301.33
571.14	2299.72
571.49	2298.37
571.84	2298.02
572.20	2297.02
572.55	2295.81
572.90	2294.30
573.26	2292.99
573.61	2291.36
573.96	2289.52
574.31	2286.52
574.67	2283.54
575.02	2279.92
575.37	2276.61
575.72	2272.74
576.08	2269.44
576.43	2266.16
576.78	2262.41
577.13	2259.24
577.49	2256.00
577.84	2252.49
578.19	2248.63
578.54	2245.02
578.90	2240.62
579.25	2235.11
579.60	2230.06
579.95	2225.12
580.30	2220.13
580.66	2214.97
581.01	2209.99
581.36	2205.08
581.71	2200.98
582.06	2196.57
582.42	2192.05
582.77	2186.78
583.12	2182.23
583.47	2177.27
583.82	2172.28
584.17	2166.93
584.53	2161.41
584.88	2155.81
585.23	2150.01
585.58	2144.58
585.93	2139.20
586.28	2134.44
586.63	2129.44
586.98	2124.36
587.34	2119.53
587.69	2114.62
588.04	2109.39
588.39	2103.77
588.74	2097.52
589.09	2091.36
589.44	2084.72
589.79	2078.81
590.14	2073.22
590.49	2066.66
590.84	2060.31
591.19	2054.28
591.54	2048.02
591.89	2040.67
592.25	2033.79
592.60	2026.64
592.95	2019.11
593.30	2011.76
593.65	2004.31
594.00	1997.23
594.35	1990.02
594.70	1982.07
595.05	1974.80
595.40	1967.53
595.75	1960.05
596.10	1953.57
596.45	1946.86
596.80	1940.62
597.15	1934.06
597.50	1926.88
597.85	1920.59
598.19	1914.03
598.54	1906.87
598.89	1900.16
599.24	1894.39
599.59	1887.74
599.94	1881.58
600.29	1875.31
600.64	1868.68
600.99	1861.14
601.34	1854.28
601.69	1847.42
602.04	1840.50
602.39	1833.20
602.74	1826.31
603.08	1819.50
603.43	1813.00
603.78	1805.63
604.13	1798.37
604.48	1790.96
604.83	1784.04
605.18	1776.84
605.53	1768.81
605.87	1760.77
606.22	1753.58
606.57	1745.60
606.92	1738.33
607.27	1731.09
607.62	1724.10
607.96	1716.70
608.31	1710.17
608.66	1702.62
609.01	1695.04
609.36	1687.59
609.70	1679.64
610.05	1671.61
610.40	1663.90
610.75	1655.47
611.10	1647.82
611.44	1639.49
611.79	1631.59
612.14	1622.97
612.49	1613.94
612.83	1605.58
613.18	1597.55
613.53	1589.48
613.88	1580.81
614.22	1572.41
614.57	1563.82
614.92	1555.77
615.27	1548.19
615.61	1539.80
615.96	1531.75
616.31	1524.11
616.65	1516.72
617.00	1509.17
617.35	1501.46
617.70	1493.03
618.04	1484.59
618.39	1476.42
618.74	1468.69
619.08	1460.36
619.43	1452.82
619.78	1446.05
620.12	1438.88
620.47	1431.37
620.82	1423.06
621.16	1415.69
621.51	1408.13
621.85	1400.51
622.20	1391.91
622.55	1383.63
622.89	1375.85
623.24	1368.22
623.59	1360.85
623.93	1353.23
624.28	1345.89
624.62	1338.36
624.97	1331.28
625.32	1324.43
625.66	1317.42
626.01	1310.30
626.35	1302.83
626.70	1295.06
627.04	1287.14
627.39	1279.35
627.73	1272.05
628.08	1265.22
628.43	1257.86
628.77	1250.47
629.12	1242.94
629.46	1235.76
629.81	1228.47
630.15	1221.27
630.50	1213.91
630.84	1205.65
631.19	1197.78
631.53	1190.26
631.88	1182.70
632.22	1175.08
632.57	1167.78
632.91	1160.10
633.26	1152.60
633.60	1145.37
633.95	1138.30
634.29	1131.37
634.64	1124.65
634.98	1117.24
635.32	1110.04
635.67	1103.60
636.01	1097.05
636.36	1090.27
636.70	1083.85
637.05	1077.25
637.39	1070.73
637.73	1064.17
638.08	1058.24
638.42	1052.29
638.77	1045.91
639.11	1039.36
639.45	1033.07
639.80	1026.43
640.14	1020.07
640.49	1013.62
640.83	1007.21
641.17	1000.89
641.52	994.43
641.86	988.00
642.20	982.06
642.55	975.84
642.89	969.28
643.23	962.62
643.58	956.80
643.92	950.61
644.26	944.42
644.61	938.38
644.95	932.34
645.29	925.84
645.64	919.03
645.98	912.68
646.32	906.85
646.66	900.80
647.01	895.06
647.35	889.37
647.69	883.48
648.04	877.89
648.38	872.12
648.72	866.15
649.06	860.10
649.41	854.24
649.75	848.19
650.09	842.27
650.43	836.58
650.78	830.41
651.12	824.44
651.46	818.77
651.80	812.95
652.14	807.57
652.49	802.14
652.83	796.99
653.17	791.19
653.51	785.53
653.85	780.11
654.20	774.40
654.54	768.39
654.88	762.70
655.22	756.86
655.56	751.23
655.90	745.80
656.25	740.54
656.59	735.20
656.93	730.18
657.27	725.00
657.61	719.55
657.95	714.46
658.29	709.48
658.64	704.23
658.98	698.95
659.32	693.51
659.66	688.35
660.00	682.96
660.34	678.16
660.68	673.13
661.02	668.08
661.36	663.32
661.70	658.83
662.05	654.46
662.39	650.10
662.73	645.68
663.07	641.31
663.41	636.89
663.75	632.38
664.09	627.77
664.43	623.34
664.77	619.17
665.11	614.90
665.45	610.65
665.79	606.48
666.13	602.37
666.47	598.32
666.81	594.13
667.15	590.06
667.49	586.15
667.83	582.34
668.17	578.44
668.51	574.42
668.85	570.41
669.19	566.59
669.53	562.71
669.87	558.78
670.21	555.04
670.55	551.42
670.89	548.04
671.23	544.62
671.57	541.12
671.91	537.62
672.25	534.22
672.58	530.73
672.92	527.35
673.26	524.17
673.60	521.01
673.94	517.90
674.28	515.03
674.62	512.06
674.96	508.89
675.30	505.94
675.64	502.97
675.97	500.22
676.31	497.28
676.65	494.41
676.99	491.67
677.33	488.83
677.67	486.02
678.01	482.91
678.34	479.98
678.68	477.13
679.02	474.30
679.36	471.45
679.70	468.72
680.04	466.03
680.37	463.19
680.71	460.35
681.05	457.71
681.39	454.99
681.73	452.34
682.06	449.85
682.40	447.34
682.74	444.84
683.08	442.31
683.42	439.71
683.75	437.23
684.09	434.74
684.43	432.29
684.77	429.82
685.10	427.53
685.44	425.18
685.78	422.89
686.12	420.66
686.45	418.40
686.79	416.13
687.13	413.88
687.46	411.69
687.80	409.55
688.14	407.39
688.48	405.28
688.81	402.97
689.15	400.86
689.49	398.67
689.82	396.61
690.16	394.51
690.50	392.58
690.83	390.63
691.17	388.62
691.51	386.72
691.84	384.87
692.18	382.92
692.52	380.91
692.85	378.99
693.19	377.11
693.52	375.29
693.86	373.49
694.20	371.75
694.53	369.98
694.87	368.13
695.21	366.34
695.54	364.53
695.88	362.87
696.21	361.10
696.55	359.47
696.88	357.78
697.22	356.14
697.56	354.54
697.89	352.86
698.23	351.26
698.56	349.64
698.90	348.01
699.23	346.37
699.57	344.82
699.90	343.22
700.24	341.66
700.58	340.06
700.91	338.54
701.25	337.04
701.58	335.61
701.92	334.25
702.25	332.84
702.59	331.46
702.92	330.11
703.26	328.85
703.59	327.55
703.93	326.35
704.26	325.11
704.60	323.77
704.93	322.49
705.26	321.21
705.60	320.04
705.93	318.90
706.27	317.86
706.60	316.82
706.94	315.76
707.27	314.61
707.61	313.59
707.94	312.58
708.27	311.53
708.61	310.47
708.94	309.42
709.28	308.45
709.61	307.52
709.94	306.57
710.28	305.52
710.61	304.53
710.95	303.44
711.28	302.50
711.61	301.56
711.95	300.66
712.28	299.76
712.61	298.76
712.95	297.79
713.28	296.97
713.61	296.06
713.95	295.19
714.28	294.33
714.61	293.49
714.95	292.64
715.28	291.77
715.61	290.95
715.95	290.14
716.28	289.32
716.61	288.49
716.95	287.65
717.28	286.93
717.61	286.15
717.94	285.40
718.28	284.59
718.61	283.89
718.94	283.15
719.27	282.47
719.61	281.80
719.94	281.17
720.27	280.40
720.60	279.74
720.94	279.09
721.27	278.55
721.60	277.99
721.93	277.39
722.27	276.82
722.60	276.25
722.93	275.68
723.26	275.11
723.59	274.56
723.93	274.06
724.26	273.49
724.59	272.94
724.92	272.44
725.25	271.93
725.59	271.37
725.92	270.89
726.25	270.40
726.58	269.95
726.91	269.46
727.24	269.00
727.57	268.54
727.91	268.05
728.24	267.59
728.57	267.06
728.90	266.62
729.23	266.13
729.56	265.69
729.89	265.19
730.22	264.70
730.55	264.22
730.89	263.74
731.22	263.31
731.55	262.89
731.88	262.46
732.21	262.04
732.54	261.61
732.87	261.17
733.20	260.77
733.53	260.37
733.86	259.99
734.19	259.62
734.52	259.27
734.85	258.94
735.18	258.51
735.51	258.17
735.84	257.79
736.17	257.46
736.50	257.05
736.83	256.86
737.16	256.53
737.49	256.21
737.82	255.86
738.15	255.53
738.48	255.21
738.81	254.90
739.14	254.61
739.47	254.33
739.80	254.03
740.13	253.70
740.46	253.35
740.79	253.02
741.12	252.70
741.45	252.34
741.78	252.02
742.11	251.76
742.44	251.43
742.77	251.14
743.10	250.84
743.43	250.58
743.75	250.20
744.08	250.11
744.41	249.82
744.74	249.56
745.07	249.30
745.40	249.02
745.73	248.77
746.06	248.48
746.39	248.22
746.71	247.95
747.04	247.69
747.37	247.45
747.70	247.21
748.03	246.93
748.36	246.74
748.68	246.47
749.01	246.21
749.34	245.99
749.67	245.76
750.00	245.52
750.33	245.36
750.65	245.15
750.98	244.74
751.31	244.49
751.64	244.26
751.97	244.06
752.29	243.86
752.62	243.60
752.95	243.41
753.28	243.18
753.60	242.95
753.93	242.79
754.26	242.60
754.59	242.38
754.91	242.18
755.24	241.93
755.57	241.75
755.90	241.57
756.22	241.39
756.55	241.17
756.88	240.96
757.20	240.73
757.53	240.55
757.86	240.39
758.19	240.25
758.51	240.08
758.84	239.85
759.17	239.65
759.49	239.49
759.82	239.37
760.15	239.24
760.47	239.11
760.80	238.94
761.13	238.80
761.45	238.66
761.78	238.51
762.11	238.40
762.43	238.26
762.76	238.07
763.08	237.94
763.41	237.82
763.74	237.70
764.06	237.55
764.39	237.38
764.71	237.26
765.04	237.09
765.37	236.96
765.69	236.86
766.02	236.75
766.34	236.65
766.67	236.49
767.00	236.37
767.32	236.30
767.65	236.26
767.97	236.12
768.30	236.02
768.62	235.90
768.95	235.76
769.27	235.67
769.60	235.60
769.92	235.47
770.25	235.34
770.57	235.24
770.90	235.13
771.22	235.04
771.55	234.95
771.87	234.90
772.20	234.80
772.52	234.79
772.85	234.82
773.17	234.72
773.50	234.58
773.82	234.49
774.15	234.34
774.47	234.19
774.80	234.07
775.12	233.97
775.45	233.90
775.77	233.83
776.09	233.75
776.42	233.68
776.74	233.66
777.07	233.59
777.39	233.53
777.72	233.45
778.04	233.38
778.36	233.28
778.69	233.22
779.01	233.15
779.33	232.99
779.66	232.81
779.98	232.72
780.31	232.68
780.63	232.66
780.95	232.60
781.28	232.52
781.60	232.46
781.92	232.37
782.25	232.30
782.57	232.26
782.89	232.16
783.22	232.06
783.54	231.97
783.86	231.94
784.19	231.84
784.51	231.81
784.83	231.76
785.16	231.72
785.48	231.65
785.80	231.62
786.12	231.59
786.45	231.52
786.77	231.51
787.09	231.46
787.42	231.37
787.74	231.38
788.06	231.31
788.38	231.27
788.71	231.24
789.03	231.22
789.35	231.15
789.67	231.08
789.99	231.07
790.32	231.00
790.64	230.92
790.96	230.95
791.28	230.87
791.61	230.83
791.93	230.81
792.25	230.78
792.57	230.78
792.89	230.74
793.21	230.70
793.54	230.63
793.86	230.58
794.18	230.56
794.50	230.47
794.82	230.48
795.14	230.49
795.47	230.49
795.79	230.46
796.11	230.41
796.43	230.41
796.75	230.41
797.07	230.36
797.39	230.32
797.71	230.24
798.04	230.22
798.36	230.19
798.68	230.13
799.00	230.12
799.32	230.02
799.64	229.97
799.96	230.00
800.28	230.00
800.60	229.98
800.92	229.98
801.24	229.97
801.56	229.92
801.89	229.88
802.21	229.86
802.53	229.82
802.85	229.82
803.17	229.87
803.49	229.78
803.81	229.75
804.13	229.74
804.45	229.70
804.77	229.67
805.09	229.65
805.41	229.63
805.73	229.57
806.05	229.56
806.37	229.58
806.69	229.58
807.01	229.52
807.33	229.53
807.65	229.45
807.97	229.45
808.28	229.43
808.60	229.39
808.92	229.36
809.24	229.42
809.56	229.40
809.88	229.32
810.20	229.29
810.52	229.30
810.84	229.27
811.16	229.23
811.48	229.22
811.80	229.20
812.12	229.19
812.43	229.21
812.75	229.20
813.07	229.12
813.39	229.05
813.71	229.02
814.03	228.96
814.35	228.94
814.67	228.88
814.98	228.86
815.30	228.86
815.62	228.82
815.94	228.70
816.26	228.71
816.58	228.66
816.89	228.68
817.21	228.65
817.53	228.64
817.85	228.67
818.17	228.63
818.48	228.60
818.80	228.55
819.12	228.50
819.44	228.46
819.76	228.45
820.07	228.44
820.39	228.40
820.71	228.39
821.03	228.36
821.34	228.32
821.66	228.29
821.98	228.25
822.30	228.24
822.61	228.26
822.93	228.19
823.25	228.15
823.57	228.11
823.88	228.09
824.20	228.05
824.52	228.04
824.83	228.03
825.15	227.99
825.47	228.00
825.79	227.98
826.10	227.96
826.42	227.95
826.74	227.92
827.05	227.95
827.37	227.90
827.69	227.88
828.00	227.86
828.32	227.85
828.64	227.82
828.95	227.83
829.27	227.78
829.58	227.76
829.90	227.79
830.22	227.80
830.53	227.78
830.85	227.77
831.17	227.69
831.48	227.67
831.80	227.66
832.11	227.65
832.43	227.66
832.75	227.64
833.06	227.68
833.38	227.65
833.69	227.62
834.01	227.64
834.32	227.65
834.64	227.64
834.96	227.62
835.27	227.62
835.59	227.59
835.90	227.59
836.22	227.61
836.53	227.59
836.85	227.56
837.16	227.63
837.48	227.63
837.79	227.66
838.11	227.67
838.42	227.71
838.74	227.71
839.05	227.70
839.37	227.70
839.68	227.65
840.00	227.64
840.31	227.64
840.63	227.66
840.94	227.66
841.26	227.71
841.57	227.73
841.88	227.79
842.20	227.78
842.51	227.79
842.83	227.78
843.14	227.87
843.46	227.88
843.77	227.81
844.08	227.83
844.40	227.82
844.71	227.80
845.03	227.77
845.34	227.75
845.65	227.76
845.97	227.77
846.28	227.77
846.60	227.81
846.91	227.78
847.22	227.76
847.54	227.78
847.85	227.78
848.16	227.77
848.48	227.72
848.79	227.76
849.10	227.76
849.42	227.76
849.73	227.68
850.04	227.66
850.36	227.66
850.67	227.65
850.98	227.65
851.30	227.67
851.61	227.64
851.92	227.67
852.23	227.66
852.55	227.64
852.86	227.62
853.17	227.59
853.49	227.62
853.80	227.66
854.11	227.63
854.42	227.62
854.74	227.60
855.05	227.57
855.36	227.53
855.67	227.53
855.99	227.49
856.30	227.57
856.61	227.56
856.92	227.54
857.23	227.56
857.55	227.55
857.86	227.53
858.17	227.57
858.48	227.49
858.79	227.49
859.11	227.50
859.42	227.50
859.73	227.48
860.04	227.44
860.35	227.42
860.66	227.38
860.98	227.35
861.29	227.36
861.60	227.36
861.91	227.33
862.22	227.26
862.53	227.27
862.84	227.15
863.16	227.18
863.47	227.21
863.78	227.17
864.09	227.15
864.40	227.14
864.71	227.09
865.02	227.12
865.33	227.09
865.64	227.06
865.95	227.06
866.27	227.11
866.58	227.12
866.89	227.07
867.20	227.05
867.51	227.05
867.82	227.04
868.13	227.06
868.44	227.05
868.75	227.09
869.06	227.09
869.37	227.11
869.68	227.07
869.99	227.04
870.30	227.05
870.61	227.06
870.92	227.02
871.23	227.04
871.54	227.01
871.85	227.03
872.16	227.05
872.47	227.02
872.78	226.97
873.09	226.95
873.40	226.98
873.71	226.99
874.02	226.99
874.33	226.97
874.64	226.92
874.95	226.94
875.26	226.90
875.56	226.89
875.87	226.88
876.18	226.89
876.49	226.99
876.80	226.98
877.11	226.98
877.42	227.03
877.73	227.03
878.04	227.05
878.35	227.06
878.66	227.06
878.96	227.08
879.27	227.07
879.58	227.07
879.89	227.03
880.20	227.09
880.51	227.06
880.82	227.08
881.12	227.10
881.43	227.11
881.74	227.10
882.05	227.10
882.36	227.12
882.67	227.12
882.97	227.04
883.28	227.01
883.59	227.00
883.90	226.99
884.21	227.02
884.51	227.00
884.82	226.99
885.13	227.01
885.44	227.02
885.74	227.04
886.05	227.03
886.36	227.05
886.67	227.01
886.98	227.08
887.28	227.09
887.59	227.10
887.90	227.09
888.20	227.12
888.51	227.15
888.82	227.13
889.13	227.15
889.43	227.21
889.74	227.22
890.05	227.25
890.35	227.21
890.66	227.20
890.97	227.20
891.28	227.21
891.58	227.21
891.89	227.18
892.20	227.17
892.50	227.19
892.81	227.18
893.12	227.18
893.42	227.12
893.73	227.12
894.04	227.13
894.34	227.15
894.65	227.15
894.95	227.15
895.26	227.14
895.57	227.18
895.87	227.10
896.18	227.14
896.48	227.11
896.79	227.15
897.10	227.17
897.40	227.19
897.71	227.17
898.01	227.14
898.32	227.17
898.63	227.20
898.93	227.19
899.24	227.19
899.54	227.17
899.85	227.18
900.15	227.17
900.46	227.16
900.76	227.14
901.07	227.15
901.38	227.14
901.68	227.16
901.99	227.09
902.29	227.10
902.60	227.07
902.90	227.08
903.21	227.05
903.51	227.08
903.82	227.05
904.12	227.03
904.43	227.04
904.73	227.02
905.03	227.00
905.34	227.11
905.64	227.08
905.95	227.06
906.25	227.04
906.56	227.02
906.86	227.00
907.17	227.01
907.47	227.00
907.77	226.97
908.08	226.96
908.38	226.97
908.69	226.94
908.99	226.94
909.30	226.92
909.60	226.92
909.90	226.90
910.21	226.89
910.51	226.90
910.81	226.88
911.12	226.85
911.42	226.85
911.73	226.73
912.03	226.79
912.33	226.82
912.64	226.83
912.94	226.80
913.24	226.77
913.55	226.73
913.85	226.70
914.15	226.71
914.46	226.72
914.76	226.68
915.06	226.69
915.37	226.66
915.67	226.65
915.97	226.64
916.27	226.58
916.58	226.58
916.88	226.57
917.18	226.57
917.49	226.63
917.79	226.61
918.09	226.61
918.39	226.64
918.70	226.65
919.00	226.65
919.30	226.72
919.60	226.75
919.91	226.75
920.21	226.77
920.51	226.74
920.81	226.71
921.12	226.76
921.42	226.74
921.72	226.76
922.02	226.78
922.32	226.81
922.63	226.81
922.93	226.88
923.23	226.87
923.53	226.87
923.83	226.83
924.13	226.84
924.44	226.85
924.74	226.82
925.04	226.79
925.34	226.77
925.64	226.75
925.94	226.73
926.24	226.76
926.55	226.73
926.85	226.76
927.15	226.77
927.45	226.78
927.75	226.79
928.05	226.80
928.35	226.80
928.65	226.82
928.95	226.86
929.26	226.81
929.56	226.86
929.86	226.86
930.16	226.87
930.46	226.86
930.76	226.89
931.06	226.86
931.36	226.85
931.66	226.89
931.96	226.87
932.26	226.92
932.56	226.91
932.86	226.95
933.16	226.94
933.46	226.94
933.76	226.90
934.06	226.92
934.36	226.96
934.66	226.98
934.96	226.98
935.26	226.95
935.56	226.95
935.86	226.91
936.16	226.91
936.46	226.91
936.76	226.93
937.06	226.90
937.36	226.90
937.66	226.92
937.96	226.96
938.26	226.95
938.56	226.94
938.86	226.94
939.16	226.97
939.46	226.99
939.76	227.00
940.06	227.00
940.35	227.01
940.65	226.94
940.95	226.93
941.25	226.90
941.55	226.91
941.85	226.94
942.15	226.96
942.45	226.97
942.75	226.96
943.04	226.98
943.34	226.99
943.64	226.97
943.94	226.93
944.24	226.90
944.54	226.93
944.84	226.89
945.13	226.88
945.43	226.84
945.73	226.81
946.03	226.80
946.33	226.79
946.62	226.76
946.92	226.77
947.22	226.74
947.52	226.72
947.82	226.69
948.11	226.66
948.41	226.65
948.71	226.64
949.01	226.67
949.31	226.62
949.60	226.61
949.90	226.64
950.20	226.64
950.50	226.63
950.79	226.58
951.09	226.62
951.39	226.62
951.69	226.64
951.98	226.68
952.28	226.66
952.58	226.62
952.87	226.64
953.17	226.63
953.47	226.65
953.76	226.65
954.06	226.67
954.36	226.66
954.66	226.63
954.95	226.64
955.25	226.61
955.55	226.64
955.84	226.60
956.14	226.60
956.44	226.64
956.73	226.62
957.03	226.66
957.32	226.67
957.62	226.66
957.92	226.65
958.21	226.65
958.51	226.78
958.81	226.83
959.10	226.83
959.40	226.83
959.69	226.85
959.99	226.87
960.29	226.88
960.58	226.87
960.88	226.94
961.17	226.93
961.47	226.97
961.76	226.96
962.06	227.02
962.36	227.03
962.65	227.04
962.95	227.06
963.24	227.04
963.54	227.03
963.83	227.04
964.13	227.03
964.42	227.00
964.72	226.90
965.01	226.90
965.31	226.92
965.60	226.95
965.90	226.99
966.19	226.99
966.49	227.00
966.78	227.01
967.08	226.96
967.37	226.95
967.67	226.94
967.96	226.97
968.26	226.95
968.55	226.93
968.85	226.94
969.14	226.95
969.43	226.95
969.73	226.96
970.02	226.97
970.32	226.99
970.61	227.00
970.91	226.99
971.20	226.97
971.49	226.97
971.79	226.95
972.08	226.89
972.38	226.90
972.67	226.90
972.96	226.91
973.26	226.91
973.55	226.98
973.85	226.96
974.14	226.91
974.43	226.91
974.73	226.93
975.02	226.91
975.31	226.90
975.61	226.90
975.90	226.85
976.19	226.81
976.49	226.81
976.78	226.80
977.07	226.82
977.37	226.80
977.66	226.80
977.95	226.81
978.24	226.81
978.54	226.82
978.83	226.82
979.12	226.81
979.42	226.80
979.71	226.78
980.00	226.76
980.29	226.78
980.59	226.76
980.88	226.76
981.17	226.73
981.46	226.72
981.76	226.72
982.05	226.73
982.34	226.74
982.63	226.74
982.93	226.76
983.22	226.75
983.51	226.77
983.80	226.78
984.09	226.79
984.39	226.78
984.68	226.75
984.97	226.72
985.26	226.72
985.55	226.75
985.85	226.71
986.14	226.72
986.43	226.72
986.72	226.74
987.01	226.73
987.30	226.75
987.59	226.72
987.89	226.71
988.18	226.72
988.47	226.70
988.76	226.68
989.05	226.67
989.34	226.68
989.63	226.72
989.92	226.71
990.22	226.69
990.51	226.67
990.80	226.69
991.09	226.70
991.38	226.68
991.67	226.62
991.96	226.61
992.25	226.62
992.54	226.61
992.83	226.62
993.12	226.60
993.41	226.64
993.70	226.67
993.99	226.71
994.28	226.70
994.58	226.70
994.87	226.69
995.16	226.69
995.45	226.65
995.74	226.57
996.03	226.56
996.32	226.62
996.61	226.63
996.90	226.63
997.19	226.66
997.48	226.67
997.77	226.72
998.06	226.73
998.34	226.73
998.63	226.74
998.92	226.72
999.21	226.72
999.50	226.70
999.79	226.68
1000.08	226.68
1000.37	226.70
1000.66	226.73
1000.95	226.76
1001.24	226.76
1001.53	226.78
1001.82	226.77
1002.11	226.77
1002.40	226.74
1002.68	226.78
1002.97	226.86
1003.26	226.85
1003.55	226.83
1003.84	226.80
1004.13	226.86
1004.42	226.87
1004.71	226.86
1004.99	226.88
1005.28	226.90
1005.57	226.89
1005.86	226.88
1006.15	226.88
1006.44	226.85
1006.72	226.86
1007.01	226.85
1007.30	226.85
1007.59	226.86
1007.88	226.87
1008.17	226.88
1008.45	226.84
1008.74	226.81
1009.03	226.74
1009.32	226.73
1009.60	226.71
1009.89	226.74
1010.18	226.66
1010.47	226.66
1010.76	226.64
1011.04	226.64
1011.33	226.64
1011.62	226.67
1011.91	226.69
1012.19	226.68
1012.48	226.69
1012.77	226.67
1013.05	226.66
1013.34	226.67
1013.63	226.65
1013.92	226.65
1014.20	226.62
1014.49	226.63
1014.78	226.62
1015.06	226.58
1015.35	226.57
1015.64	226.60
1015.92	226.59
1016.21	226.57
1016.50	226.58
1016.78	226.58
1017.07	226.56
1017.36	226.54
1017.64	226.49
1017.93	226.46
1018.22	226.43
1018.50	226.44
1018.79	226.41
1019.08	226.40
1019.36	226.37
1019.65	226.37
1019.93	226.44
1020.22	226.46
1020.51	226.49
1020.79	226.49
1021.08	226.04
1021.36	226.68
1021.65	226.09
1021.94	226.50
1022.22	226.35
1022.51	226.33
1022.79	227.58
1023.08	226.58
1023.36	227.17
1023.65	226.55
>>>>>End Processed Spectral Data<<<<<
