SpectraSuite Data File
++++++++++++++++++++++++++++++++++++
Date: Fri Feb 01 15:19:58 EST 2013
User: group
Dark Spectrum Present: No
Reference Spectrum Present: No
Number of Sampled Component Spectra: 1
Spectrometers: USB2E7196
Integration Time (usec): 35000 (USB2E7196)
Spectra Averaged: 100 (USB2E7196)
Boxcar Smoothing: 10 (USB2E7196)
Correct for Electrical Dark: No (USB2E7196)
Strobe/Lamp Enabled: No (USB2E7196)
Correct for Detector Non-linearity: No (USB2E7196)
Correct for Stray Light: No (USB2E7196)
Number of Pixels in Processed Spectrum: 2048
>>>>>Begin Processed Spectral Data<<<<<
339.09	0.00
339.48	215.10
339.86	216.26
340.24	217.23
340.63	218.81
341.01	221.89
341.39	221.66
341.78	222.84
342.16	224.04
342.54	225.18
342.93	213.30
343.31	224.06
343.69	224.59
344.07	225.07
344.46	225.51
344.84	225.89
345.22	226.11
345.60	226.33
345.99	226.53
346.37	226.68
346.75	226.77
347.13	226.84
347.52	226.86
347.90	226.91
348.28	226.92
348.66	226.94
349.05	226.92
349.43	226.96
349.81	227.01
350.19	227.08
350.57	227.10
350.96	227.19
351.34	227.27
351.72	227.36
352.10	227.43
352.48	227.50
352.87	227.60
353.25	227.69
353.63	227.80
354.01	227.93
354.39	228.00
354.77	228.06
355.15	228.18
355.54	228.28
355.92	228.32
356.30	228.41
356.68	228.58
357.06	228.66
357.44	228.73
357.82	228.80
358.20	228.86
358.58	228.93
358.97	229.00
359.35	229.12
359.73	229.23
360.11	229.30
360.49	229.38
360.87	229.41
361.25	229.46
361.63	229.56
362.01	229.55
362.39	229.58
362.77	229.67
363.15	229.71
363.53	229.72
363.91	229.75
364.29	229.78
364.67	229.70
365.05	229.68
365.43	229.71
365.81	229.74
366.19	229.76
366.57	229.79
366.95	229.76
367.33	229.74
367.71	229.70
368.09	229.69
368.47	229.67
368.85	229.66
369.23	229.68
369.61	229.59
369.99	229.59
370.37	229.61
370.75	229.59
371.13	229.53
371.51	229.49
371.89	229.47
372.27	229.39
372.65	229.36
373.03	229.33
373.41	229.26
373.78	229.16
374.16	229.08
374.54	229.01
374.92	228.93
375.30	228.87
375.68	228.78
376.06	228.73
376.44	228.67
376.82	228.59
377.19	228.48
377.57	228.39
377.95	228.30
378.33	228.19
378.71	228.05
379.09	227.99
379.47	227.94
379.84	227.84
380.22	227.76
380.60	227.66
380.98	227.60
381.36	227.52
381.73	227.45
382.11	227.41
382.49	227.34
382.87	227.29
383.25	227.20
383.62	227.23
384.00	227.12
384.38	227.04
384.76	227.02
385.13	227.02
385.51	226.95
385.89	226.89
386.27	226.84
386.64	226.81
387.02	226.76
387.40	226.69
387.78	226.64
388.15	226.62
388.53	226.60
388.91	226.55
389.29	226.54
389.66	226.53
390.04	226.46
390.42	226.45
390.79	226.40
391.17	226.39
391.55	226.26
391.92	226.28
392.30	226.31
392.68	226.29
393.05	226.25
393.43	226.28
393.81	226.30
394.18	226.32
394.56	226.38
394.94	226.41
395.31	226.44
395.69	226.50
396.06	226.54
396.44	226.58
396.82	226.63
397.19	226.68
397.57	226.74
397.95	226.83
398.32	226.86
398.70	226.97
399.07	227.06
399.45	227.11
399.82	227.18
400.20	227.22
400.58	227.32
400.95	227.36
401.33	227.48
401.70	227.63
402.08	227.75
402.45	227.79
402.83	227.92
403.20	228.03
403.58	228.15
403.95	228.27
404.33	228.37
404.71	228.51
405.08	228.71
405.46	228.86
405.83	229.00
406.21	229.15
406.58	229.28
406.96	229.47
407.33	229.68
407.70	229.89
408.08	230.18
408.45	230.37
408.83	230.66
409.20	230.89
409.58	231.07
409.95	231.30
410.33	231.58
410.70	231.84
411.08	232.15
411.45	232.44
411.82	232.79
412.20	233.15
412.57	233.55
412.95	233.84
413.32	234.23
413.69	234.65
414.07	235.08
414.44	235.57
414.82	236.03
415.19	236.58
415.56	237.13
415.94	237.66
416.31	238.32
416.68	238.89
417.06	239.62
417.43	240.28
417.81	241.05
418.18	241.81
418.55	242.63
418.93	243.48
419.30	244.33
419.67	245.25
420.04	246.18
420.42	247.14
420.79	248.32
421.16	249.45
421.54	250.61
421.91	251.83
422.28	253.04
422.66	254.35
423.03	255.60
423.40	256.88
423.77	258.29
424.15	259.69
424.52	261.19
424.89	262.75
425.26	264.30
425.64	265.77
426.01	267.38
426.38	269.04
426.75	270.74
427.13	272.50
427.50	274.32
427.87	276.21
428.24	278.08
428.61	279.80
428.99	281.76
429.36	283.88
429.73	285.95
430.10	288.02
430.47	290.09
430.85	292.23
431.22	294.52
431.59	296.97
431.96	299.27
432.33	301.75
432.70	304.12
433.08	307.01
433.45	309.67
433.82	312.27
434.19	315.14
434.56	317.98
434.93	320.67
435.30	323.29
435.68	326.22
436.05	329.08
436.42	331.94
436.79	334.44
437.16	337.16
437.53	340.03
437.90	342.82
438.27	345.54
438.64	348.43
439.01	351.04
439.38	353.19
439.75	355.34
440.13	357.88
440.50	360.24
440.87	362.05
441.24	364.00
441.61	366.18
441.98	367.74
442.35	369.54
442.72	371.40
443.09	373.19
443.46	374.18
443.83	374.80
444.20	375.29
444.57	376.17
444.94	376.44
445.31	376.76
445.68	377.15
446.05	377.22
446.42	376.80
446.79	376.38
447.16	375.97
447.53	375.61
447.90	374.43
448.27	373.27
448.64	371.71
449.01	370.56
449.37	368.60
449.74	366.65
450.11	364.34
450.48	361.84
450.85	359.33
451.22	357.20
451.59	355.16
451.96	353.18
452.33	350.54
452.70	348.18
453.07	345.37
453.43	342.47
453.80	339.74
454.17	337.08
454.54	334.53
454.91	331.78
455.28	329.13
455.65	326.64
456.02	324.16
456.38	321.99
456.75	319.31
457.12	317.02
457.49	314.77
457.86	312.62
458.23	310.80
458.59	308.74
458.96	306.62
459.33	304.74
459.70	302.87
460.07	301.37
460.43	299.62
460.80	297.95
461.17	296.47
461.54	294.94
461.91	293.48
462.27	291.99
462.64	290.72
463.01	289.37
463.38	288.09
463.74	286.78
464.11	285.58
464.48	284.57
464.85	283.47
465.21	282.65
465.58	281.72
465.95	280.58
466.32	279.67
466.68	278.75
467.05	277.85
467.42	276.98
467.78	276.04
468.15	275.19
468.52	274.58
468.88	273.72
469.25	272.98
469.62	272.38
469.98	271.73
470.35	271.11
470.72	270.49
471.08	269.82
471.45	269.21
471.82	268.66
472.18	268.02
472.55	267.58
472.92	267.04
473.28	266.57
473.65	266.12
474.02	265.68
474.38	265.33
474.75	264.95
475.11	264.58
475.48	264.30
475.85	264.06
476.21	263.81
476.58	263.60
476.94	263.42
477.31	263.24
477.67	263.06
478.04	262.93
478.41	262.87
478.77	262.87
479.14	262.79
479.50	262.79
479.87	262.87
480.23	262.91
480.60	262.95
480.96	263.02
481.33	263.21
481.69	263.34
482.06	263.55
482.42	263.79
482.79	264.06
483.15	264.39
483.52	264.77
483.88	265.10
484.25	265.47
484.61	265.91
484.98	266.34
485.34	266.89
485.71	267.49
486.07	268.10
486.44	268.71
486.80	269.45
487.17	270.18
487.53	270.99
487.90	271.86
488.26	272.78
488.62	273.78
488.99	274.83
489.35	275.90
489.72	277.03
490.08	278.18
490.44	279.41
490.81	280.74
491.17	282.05
491.54	283.53
491.90	285.12
492.26	286.79
492.63	288.55
492.99	290.35
493.36	292.23
493.72	294.30
494.08	296.43
494.45	298.66
494.81	301.04
495.17	303.45
495.54	306.04
495.90	308.76
496.26	311.55
496.63	314.44
496.99	317.57
497.35	320.87
497.72	324.28
498.08	327.79
498.44	331.47
498.80	335.40
499.17	339.41
499.53	343.55
499.89	347.85
500.26	352.32
500.62	357.02
500.98	361.99
501.34	367.01
501.71	372.29
502.07	377.73
502.43	383.29
502.79	389.15
503.16	395.20
503.52	401.48
503.88	407.93
504.24	414.59
504.60	421.51
504.97	428.58
505.33	435.89
505.69	443.64
506.05	451.41
506.41	459.34
506.78	467.49
507.14	475.93
507.50	484.71
507.86	493.77
508.22	503.02
508.59	512.26
508.95	521.83
509.31	531.63
509.67	541.73
510.03	552.09
510.39	562.60
510.75	573.38
511.12	584.35
511.48	595.59
511.84	607.03
512.20	618.53
512.56	630.51
512.92	642.81
513.28	655.14
513.64	667.66
514.00	680.36
514.37	693.39
514.73	706.55
515.09	719.56
515.45	732.84
515.81	746.34
516.17	760.30
516.53	774.43
516.89	788.61
517.25	802.76
517.61	817.17
517.97	831.76
518.33	846.15
518.69	860.84
519.05	875.90
519.41	891.07
519.77	906.61
520.13	922.11
520.49	937.54
520.85	952.95
521.21	968.67
521.57	984.99
521.93	1000.79
522.29	1017.06
522.65	1033.40
523.01	1049.66
523.37	1065.83
523.73	1082.16
524.09	1098.26
524.45	1114.64
524.81	1131.41
525.17	1148.31
525.53	1165.20
525.89	1182.20
526.25	1199.13
526.61	1215.45
526.97	1232.38
527.33	1248.86
527.68	1265.55
528.04	1282.01
528.40	1298.79
528.76	1315.94
529.12	1332.53
529.48	1349.45
529.84	1365.65
530.20	1382.33
530.56	1399.45
530.91	1416.76
531.27	1433.51
531.63	1450.03
531.99	1466.61
532.35	1482.64
532.71	1498.45
533.07	1514.81
533.42	1530.81
533.78	1546.95
534.14	1563.32
534.50	1578.62
534.86	1594.58
535.21	1609.70
535.57	1625.66
535.93	1641.12
536.29	1655.97
536.65	1671.24
537.00	1686.09
537.36	1701.46
537.72	1716.13
538.08	1730.60
538.44	1744.54
538.79	1758.42
539.15	1772.43
539.51	1786.34
539.87	1800.72
540.22	1814.61
540.58	1828.36
540.94	1841.77
541.29	1854.71
541.65	1867.56
542.01	1880.93
542.37	1893.42
542.72	1906.01
543.08	1917.89
543.44	1930.36
543.79	1941.72
544.15	1952.55
544.51	1964.22
544.87	1975.30
545.22	1986.00
545.58	1996.24
545.94	2006.00
546.29	2016.00
546.65	2025.79
547.01	2035.09
547.36	2043.91
547.72	2052.41
548.07	2060.39
548.43	2068.66
548.79	2076.84
549.14	2084.38
549.50	2091.72
549.86	2099.49
550.21	2106.78
550.57	2113.90
550.92	2120.45
551.28	2127.54
551.64	2134.73
551.99	2141.36
552.35	2147.39
552.70	2153.62
553.06	2159.49
553.41	2165.94
553.77	2171.92
554.13	2177.91
554.48	2183.99
554.84	2189.41
555.19	2194.81
555.55	2199.89
555.90	2204.23
556.26	2209.01
556.61	2213.81
556.97	2217.94
557.32	2221.96
557.68	2226.16
558.03	2230.58
558.39	2234.45
558.74	2238.93
559.10	2242.70
559.45	2246.20
559.81	2250.64
560.16	2254.49
560.52	2257.96
560.87	2261.35
561.23	2263.96
561.58	2267.02
561.94	2269.54
562.29	2272.04
562.64	2274.65
563.00	2277.34
563.35	2280.96
563.71	2284.02
564.06	2287.12
564.42	2290.03
564.77	2292.50
565.12	2294.61
565.48	2296.31
565.83	2297.98
566.19	2299.30
566.54	2300.30
566.89	2301.44
567.25	2301.86
567.60	2303.20
567.96	2304.69
568.31	2305.47
568.66	2306.49
569.02	2306.98
569.37	2307.08
569.72	2307.76
570.08	2307.75
570.43	2307.65
570.78	2306.84
571.14	2305.28
571.49	2303.98
571.84	2303.65
572.20	2302.23
572.55	2301.20
572.90	2299.67
573.26	2298.21
573.61	2296.38
573.96	2294.60
574.31	2291.42
574.67	2288.33
575.02	2284.55
575.37	2281.07
575.72	2277.01
576.08	2273.75
576.43	2270.32
576.78	2266.64
577.13	2263.45
577.49	2260.49
577.84	2256.81
578.19	2253.06
578.54	2249.17
578.90	2244.73
579.25	2238.98
579.60	2233.99
579.95	2228.91
580.30	2223.83
580.66	2218.59
581.01	2213.54
581.36	2208.47
581.71	2204.21
582.06	2199.62
582.42	2195.03
582.77	2189.69
583.12	2185.18
583.47	2180.16
583.82	2174.98
584.17	2169.75
584.53	2164.13
584.88	2158.27
585.23	2152.44
585.58	2146.92
585.93	2141.54
586.28	2136.76
586.63	2131.55
586.98	2126.61
587.34	2121.78
587.69	2116.79
588.04	2111.54
588.39	2105.78
588.74	2099.16
589.09	2093.00
589.44	2086.08
589.79	2080.11
590.14	2074.48
590.49	2067.79
590.84	2061.38
591.19	2055.36
591.54	2048.84
591.89	2041.21
592.25	2034.23
592.60	2027.00
592.95	2019.24
593.30	2011.77
593.65	2004.10
594.00	1997.17
594.35	1989.78
594.70	1981.79
595.05	1974.45
595.40	1967.05
595.75	1959.48
596.10	1953.15
596.45	1946.15
596.80	1940.02
597.15	1933.07
597.50	1925.79
597.85	1919.31
598.19	1912.67
598.54	1905.51
598.89	1898.75
599.24	1892.94
599.59	1886.27
599.94	1879.99
600.29	1873.74
600.64	1867.14
600.99	1859.56
601.34	1852.52
601.69	1845.51
602.04	1838.47
602.39	1831.08
602.74	1824.29
603.08	1817.62
603.43	1810.77
603.78	1803.62
604.13	1796.33
604.48	1789.08
604.83	1782.24
605.18	1775.21
605.53	1767.23
605.87	1759.10
606.22	1751.79
606.57	1743.81
606.92	1736.46
607.27	1729.21
607.62	1722.21
607.96	1714.86
608.31	1708.18
608.66	1700.56
609.01	1692.85
609.36	1685.25
609.70	1677.25
610.05	1669.10
610.40	1661.36
610.75	1653.19
611.10	1645.43
611.44	1637.13
611.79	1629.18
612.14	1620.55
612.49	1611.50
612.83	1603.04
613.18	1594.95
613.53	1586.91
613.88	1578.50
614.22	1570.30
614.57	1561.74
614.92	1553.74
615.27	1546.19
615.61	1537.87
615.96	1530.01
616.31	1522.41
616.65	1515.07
617.00	1507.52
617.35	1499.95
617.70	1491.57
618.04	1482.98
618.39	1474.78
618.74	1467.15
619.08	1458.85
619.43	1451.21
619.78	1444.26
620.12	1437.14
620.47	1429.67
620.82	1421.55
621.16	1413.97
621.51	1406.23
621.85	1398.65
622.20	1390.04
622.55	1381.72
622.89	1373.94
623.24	1366.36
623.59	1359.14
623.93	1351.64
624.28	1344.40
624.62	1336.72
624.97	1329.61
625.32	1322.92
625.66	1315.97
626.01	1308.75
626.35	1301.33
626.70	1293.64
627.04	1285.92
627.39	1278.17
627.73	1270.72
628.08	1263.82
628.43	1256.53
628.77	1249.17
629.12	1241.57
629.46	1234.39
629.81	1227.01
630.15	1219.76
630.50	1212.28
630.84	1204.06
631.19	1196.20
631.53	1188.79
631.88	1181.38
632.22	1173.73
632.57	1166.43
632.91	1158.86
633.26	1151.49
633.60	1144.24
633.95	1137.25
634.29	1130.22
634.64	1123.48
634.98	1116.14
635.32	1108.90
635.67	1102.33
636.01	1095.79
636.36	1089.00
636.70	1082.59
637.05	1075.99
637.39	1069.62
637.73	1063.09
638.08	1057.21
638.42	1051.15
638.77	1044.70
639.11	1037.92
639.45	1031.50
639.80	1024.81
640.14	1018.36
640.49	1011.82
640.83	1005.37
641.17	999.09
641.52	992.77
641.86	986.32
642.20	980.48
642.55	974.27
642.89	967.70
643.23	961.15
643.58	955.39
643.92	949.05
644.26	942.92
644.61	936.83
644.95	930.78
645.29	924.15
645.64	917.40
645.98	910.93
646.32	905.19
646.66	899.15
647.01	893.45
647.35	887.84
647.69	882.00
648.04	876.58
648.38	870.73
648.72	864.75
649.06	858.72
649.41	852.85
649.75	846.77
650.09	840.99
650.43	835.14
650.78	829.01
651.12	823.17
651.46	817.52
651.80	811.83
652.14	806.42
652.49	801.11
652.83	795.94
653.17	790.27
653.51	784.48
653.85	779.11
654.20	773.43
654.54	767.37
654.88	761.74
655.22	755.81
655.56	750.16
655.90	744.67
656.25	739.48
656.59	734.14
656.93	729.15
657.27	723.87
657.61	718.46
657.95	713.32
658.29	708.27
658.64	703.00
658.98	697.74
659.32	692.33
659.66	687.14
660.00	681.88
660.34	677.01
660.68	672.17
661.02	667.19
661.36	662.48
661.70	658.00
662.05	653.54
662.39	649.20
662.73	644.78
663.07	640.33
663.41	635.92
663.75	631.45
664.09	626.93
664.43	622.61
664.77	618.52
665.11	614.31
665.45	610.18
665.79	606.14
666.13	601.96
666.47	597.87
666.81	593.73
667.15	589.57
667.49	585.66
667.83	581.84
668.17	577.89
668.51	573.85
668.85	569.83
669.19	565.94
669.53	562.08
669.87	558.13
670.21	554.50
670.55	550.80
670.89	547.36
671.23	543.88
671.57	540.39
671.91	536.88
672.25	533.40
672.58	529.86
672.92	526.47
673.26	523.33
673.60	520.21
673.94	517.11
674.28	514.31
674.62	511.36
674.96	508.29
675.30	505.39
675.64	502.43
675.97	499.70
676.31	496.90
676.65	494.04
676.99	491.38
677.33	488.54
677.67	485.71
678.01	482.70
678.34	479.72
678.68	476.82
679.02	474.00
679.36	471.28
679.70	468.60
680.04	465.89
680.37	463.02
680.71	460.19
681.05	457.48
681.39	454.74
681.73	452.09
682.06	449.59
682.40	447.02
682.74	444.50
683.08	441.96
683.42	439.41
683.75	436.91
684.09	434.37
684.43	431.90
684.77	429.49
685.10	427.15
685.44	424.84
685.78	422.56
686.12	420.31
686.45	418.03
686.79	415.74
687.13	413.48
687.46	411.35
687.80	409.24
688.14	407.05
688.48	404.98
688.81	402.74
689.15	400.57
689.49	398.43
689.82	396.34
690.16	394.22
690.50	392.19
690.83	390.21
691.17	388.22
691.51	386.32
691.84	384.44
692.18	382.46
692.52	380.50
692.85	378.57
693.19	376.71
693.52	374.86
693.86	373.02
694.20	371.26
694.53	369.47
694.87	367.62
695.21	365.87
695.54	364.01
695.88	362.28
696.21	360.55
696.55	358.92
696.88	357.26
697.22	355.61
697.56	354.02
697.89	352.39
698.23	350.80
698.56	349.17
698.90	347.59
699.23	346.01
699.57	344.46
699.90	342.97
700.24	341.41
700.58	339.87
700.91	338.38
701.25	336.94
701.58	335.54
701.92	334.19
702.25	332.84
702.59	331.52
702.92	330.23
703.26	328.97
703.59	327.68
703.93	326.48
704.26	325.28
704.60	323.98
704.93	322.77
705.26	321.51
705.60	320.39
705.93	319.28
706.27	318.26
706.60	317.21
706.94	316.14
707.27	315.04
707.61	314.03
707.94	313.00
708.27	311.92
708.61	310.83
708.94	309.84
709.28	308.84
709.61	307.86
709.94	306.89
710.28	305.85
710.61	304.90
710.95	303.87
711.28	302.94
711.61	302.00
711.95	301.09
712.28	300.12
712.61	299.10
712.95	298.14
713.28	297.22
713.61	296.31
713.95	295.40
714.28	294.55
714.61	293.65
714.95	292.81
715.28	291.99
715.61	291.17
715.95	290.30
716.28	289.47
716.61	288.66
716.95	287.84
717.28	287.13
717.61	286.34
717.94	285.59
718.28	284.81
718.61	284.11
718.94	283.41
719.27	282.76
719.61	282.13
719.94	281.46
720.27	280.74
720.60	280.12
720.94	279.50
721.27	278.87
721.60	278.33
721.93	277.69
722.27	277.09
722.60	276.55
722.93	275.98
723.26	275.43
723.59	274.86
723.93	274.36
724.26	273.81
724.59	273.26
724.92	272.75
725.25	272.24
725.59	271.72
725.92	271.20
726.25	270.71
726.58	270.22
726.91	269.74
727.24	269.31
727.57	268.82
727.91	268.33
728.24	267.89
728.57	267.42
728.90	267.00
729.23	266.52
729.56	266.08
729.89	265.62
730.22	265.18
730.55	264.68
730.89	264.20
731.22	263.73
731.55	263.30
731.88	262.88
732.21	262.44
732.54	261.98
732.87	261.55
733.20	261.15
733.53	260.78
733.86	260.40
734.19	259.97
734.52	259.57
734.85	259.31
735.18	258.88
735.51	258.51
735.84	258.14
736.17	257.79
736.50	257.40
736.83	257.15
737.16	256.81
737.49	256.52
737.82	256.18
738.15	255.83
738.48	255.51
738.81	255.17
739.14	254.84
739.47	254.55
739.80	254.22
740.13	253.91
740.46	253.56
740.79	253.27
741.12	252.96
741.45	252.65
741.78	252.24
742.11	251.97
742.44	251.62
742.77	251.32
743.10	251.02
743.43	250.70
743.75	250.32
744.08	250.18
744.41	249.88
744.74	249.58
745.07	249.31
745.40	249.07
745.73	248.83
746.06	248.55
746.39	248.29
746.71	248.06
747.04	247.82
747.37	247.57
747.70	247.29
748.03	247.07
748.36	246.88
748.68	246.64
749.01	246.38
749.34	246.16
749.67	245.94
750.00	245.71
750.33	245.54
750.65	245.34
750.98	244.97
751.31	244.78
751.64	244.59
751.97	244.42
752.29	244.20
752.62	243.96
752.95	243.80
753.28	243.56
753.60	243.34
753.93	243.15
754.26	242.96
754.59	242.75
754.91	242.53
755.24	242.33
755.57	242.14
755.90	242.00
756.22	241.81
756.55	241.64
756.88	241.43
757.20	241.27
757.53	241.08
757.86	240.90
758.19	240.73
758.51	240.55
758.84	240.37
759.17	240.20
759.49	240.03
759.82	239.91
760.15	239.80
760.47	239.66
760.80	239.50
761.13	239.39
761.45	239.23
761.78	239.08
762.11	238.92
762.43	238.80
762.76	238.65
763.08	238.52
763.41	238.39
763.74	238.29
764.06	238.10
764.39	237.93
764.71	237.82
765.04	237.69
765.37	237.57
765.69	237.42
766.02	237.29
766.34	237.17
766.67	236.99
767.00	236.90
767.32	236.84
767.65	236.81
767.97	236.67
768.30	236.56
768.62	236.46
768.95	236.37
769.27	236.30
769.60	236.23
769.92	236.13
770.25	236.03
770.57	235.91
770.90	235.85
771.22	235.74
771.55	235.64
771.87	235.52
772.20	235.45
772.52	235.46
772.85	235.49
773.17	235.40
773.50	235.31
773.82	235.16
774.15	235.01
774.47	234.83
774.80	234.72
775.12	234.65
775.45	234.56
775.77	234.45
776.09	234.33
776.42	234.19
776.74	234.12
777.07	234.01
777.39	233.93
777.72	233.85
778.04	233.76
778.36	233.65
778.69	233.59
779.01	233.52
779.33	233.35
779.66	233.15
779.98	233.05
780.31	233.00
780.63	232.98
780.95	232.95
781.28	232.88
781.60	232.80
781.92	232.74
782.25	232.67
782.57	232.64
782.89	232.57
783.22	232.53
783.54	232.46
783.86	232.41
784.19	232.35
784.51	232.28
784.83	232.24
785.16	232.23
785.48	232.21
785.80	232.12
786.12	232.10
786.45	232.06
786.77	232.06
787.09	231.98
787.42	231.91
787.74	231.85
788.06	231.80
788.38	231.76
788.71	231.72
789.03	231.67
789.35	231.65
789.67	231.57
789.99	231.53
790.32	231.45
790.64	231.45
790.96	231.50
791.28	231.46
791.61	231.44
791.93	231.39
792.25	231.33
792.57	231.36
792.89	231.30
793.21	231.28
793.54	231.22
793.86	231.19
794.18	231.14
794.50	231.10
794.82	231.06
795.14	231.04
795.47	231.00
795.79	230.97
796.11	230.89
796.43	230.90
796.75	230.86
797.07	230.84
797.39	230.78
797.71	230.64
798.04	230.62
798.36	230.57
798.68	230.56
799.00	230.53
799.32	230.47
799.64	230.49
799.96	230.41
800.28	230.39
800.60	230.36
800.92	230.33
801.24	230.28
801.56	230.27
801.89	230.24
802.21	230.19
802.53	230.16
802.85	230.14
803.17	230.15
803.49	230.14
803.81	230.07
804.13	230.03
804.45	230.01
804.77	230.01
805.09	229.98
805.41	229.93
805.73	229.90
806.05	229.84
806.37	229.79
806.69	229.78
807.01	229.74
807.33	229.70
807.65	229.66
807.97	229.66
808.28	229.61
808.60	229.59
808.92	229.57
809.24	229.61
809.56	229.58
809.88	229.54
810.20	229.52
810.52	229.54
810.84	229.51
811.16	229.47
811.48	229.44
811.80	229.45
812.12	229.39
812.43	229.40
812.75	229.39
813.07	229.36
813.39	229.38
813.71	229.36
814.03	229.36
814.35	229.35
814.67	229.32
814.98	229.32
815.30	229.29
815.62	229.28
815.94	229.20
816.26	229.24
816.58	229.17
816.89	229.15
817.21	229.12
817.53	229.09
817.85	229.09
818.17	229.05
818.48	229.02
818.80	229.05
819.12	229.00
819.44	228.94
819.76	228.93
820.07	228.86
820.39	228.83
820.71	228.80
821.03	228.79
821.34	228.79
821.66	228.78
821.98	228.77
822.30	228.73
822.61	228.75
822.93	228.69
823.25	228.69
823.57	228.67
823.88	228.70
824.20	228.72
824.52	228.71
824.83	228.70
825.15	228.67
825.47	228.64
825.79	228.63
826.10	228.62
826.42	228.61
826.74	228.63
827.05	228.60
827.37	228.61
827.69	228.61
828.00	228.55
828.32	228.53
828.64	228.52
828.95	228.57
829.27	228.54
829.58	228.52
829.90	228.52
830.22	228.49
830.53	228.43
830.85	228.41
831.17	228.37
831.48	228.34
831.80	228.33
832.11	228.31
832.43	228.31
832.75	228.30
833.06	228.34
833.38	228.31
833.69	228.31
834.01	228.32
834.32	228.30
834.64	228.29
834.96	228.29
835.27	228.25
835.59	228.22
835.90	228.20
836.22	228.18
836.53	228.15
836.85	228.16
837.16	228.23
837.48	228.22
837.79	228.25
838.11	228.25
838.42	228.25
838.74	228.26
839.05	228.24
839.37	228.25
839.68	228.18
840.00	228.13
840.31	228.15
840.63	228.13
840.94	228.07
841.26	228.08
841.57	228.07
841.88	228.10
842.20	228.06
842.51	228.06
842.83	228.07
843.14	228.13
843.46	228.09
843.77	228.03
844.08	228.02
844.40	227.99
844.71	227.95
845.03	227.93
845.34	227.91
845.65	227.90
845.97	227.86
846.28	227.82
846.60	227.87
846.91	227.87
847.22	227.85
847.54	227.88
847.85	227.89
848.16	227.87
848.48	227.83
848.79	227.90
849.10	227.86
849.42	227.90
849.73	227.82
850.04	227.83
850.36	227.80
850.67	227.81
850.98	227.82
851.30	227.84
851.61	227.85
851.92	227.84
852.23	227.87
852.55	227.88
852.86	227.92
853.17	227.90
853.49	227.88
853.80	227.91
854.11	227.92
854.42	227.90
854.74	227.92
855.05	227.97
855.36	227.91
855.67	227.91
855.99	227.85
856.30	227.98
856.61	227.96
856.92	227.97
857.23	227.96
857.55	227.94
857.86	227.95
858.17	227.96
858.48	227.95
858.79	227.92
859.11	227.95
859.42	227.93
859.73	227.92
860.04	227.94
860.35	227.88
860.66	227.85
860.98	227.84
861.29	227.84
861.60	227.79
861.91	227.81
862.22	227.79
862.53	227.78
862.84	227.66
863.16	227.70
863.47	227.67
863.78	227.67
864.09	227.68
864.40	227.64
864.71	227.70
865.02	227.70
865.33	227.68
865.64	227.64
865.95	227.65
866.27	227.70
866.58	227.66
866.89	227.68
867.20	227.68
867.51	227.67
867.82	227.64
868.13	227.66
868.44	227.60
868.75	227.64
869.06	227.67
869.37	227.66
869.68	227.61
869.99	227.63
870.30	227.62
870.61	227.60
870.92	227.59
871.23	227.49
871.54	227.48
871.85	227.47
872.16	227.49
872.47	227.45
872.78	227.41
873.09	227.40
873.40	227.36
873.71	227.37
874.02	227.38
874.33	227.34
874.64	227.34
874.95	227.39
875.26	227.35
875.56	227.33
875.87	227.30
876.18	227.32
876.49	227.40
876.80	227.41
877.11	227.37
877.42	227.39
877.73	227.43
878.04	227.42
878.35	227.45
878.66	227.44
878.96	227.46
879.27	227.40
879.58	227.41
879.89	227.39
880.20	227.42
880.51	227.40
880.82	227.42
881.12	227.39
881.43	227.34
881.74	227.31
882.05	227.27
882.36	227.30
882.67	227.27
882.97	227.15
883.28	227.14
883.59	227.19
883.90	227.15
884.21	227.14
884.51	227.14
884.82	227.10
885.13	227.08
885.44	227.07
885.74	227.12
886.05	227.11
886.36	227.09
886.67	227.05
886.98	227.09
887.28	227.11
887.59	227.12
887.90	227.13
888.20	227.12
888.51	227.14
888.82	227.12
889.13	227.12
889.43	227.21
889.74	227.18
890.05	227.16
890.35	227.16
890.66	227.15
890.97	227.16
891.28	227.17
891.58	227.18
891.89	227.16
892.20	227.14
892.50	227.13
892.81	227.16
893.12	227.17
893.42	227.14
893.73	227.12
894.04	227.12
894.34	227.13
894.65	227.16
894.95	227.19
895.26	227.20
895.57	227.27
895.87	227.17
896.18	227.18
896.48	227.19
896.79	227.21
897.10	227.20
897.40	227.21
897.71	227.19
898.01	227.18
898.32	227.19
898.63	227.20
898.93	227.23
899.24	227.26
899.54	227.26
899.85	227.25
900.15	227.26
900.46	227.27
900.76	227.31
901.07	227.29
901.38	227.26
901.68	227.27
901.99	227.21
902.29	227.23
902.60	227.27
902.90	227.26
903.21	227.27
903.51	227.32
903.82	227.30
904.12	227.34
904.43	227.35
904.73	227.39
905.03	227.39
905.34	227.48
905.64	227.48
905.95	227.47
906.25	227.49
906.56	227.51
906.86	227.47
907.17	227.44
907.47	227.43
907.77	227.46
908.08	227.44
908.38	227.47
908.69	227.49
908.99	227.49
909.30	227.53
909.60	227.54
909.90	227.52
910.21	227.50
910.51	227.47
910.81	227.48
911.12	227.47
911.42	227.47
911.73	227.38
912.03	227.35
912.33	227.36
912.64	227.33
912.94	227.31
913.24	227.36
913.55	227.32
913.85	227.33
914.15	227.34
914.46	227.35
914.76	227.33
915.06	227.30
915.37	227.27
915.67	227.21
915.97	227.19
916.27	227.18
916.58	227.22
916.88	227.21
917.18	227.18
917.49	227.23
917.79	227.22
918.09	227.21
918.39	227.22
918.70	227.21
919.00	227.20
919.30	227.23
919.60	227.23
919.91	227.22
920.21	227.23
920.51	227.18
920.81	227.16
921.12	227.19
921.42	227.20
921.72	227.20
922.02	227.19
922.32	227.22
922.63	227.21
922.93	227.21
923.23	227.20
923.53	227.20
923.83	227.16
924.13	227.17
924.44	227.18
924.74	227.22
925.04	227.22
925.34	227.22
925.64	227.18
925.94	227.16
926.24	227.25
926.55	227.24
926.85	227.27
927.15	227.30
927.45	227.30
927.75	227.27
928.05	227.28
928.35	227.32
928.65	227.29
928.95	227.31
929.26	227.30
929.56	227.30
929.86	227.33
930.16	227.29
930.46	227.31
930.76	227.30
931.06	227.25
931.36	227.24
931.66	227.26
931.96	227.27
932.26	227.26
932.56	227.23
932.86	227.22
933.16	227.22
933.46	227.23
933.76	227.19
934.06	227.23
934.36	227.27
934.66	227.24
934.96	227.24
935.26	227.26
935.56	227.30
935.86	227.29
936.16	227.28
936.46	227.28
936.76	227.27
937.06	227.27
937.36	227.27
937.66	227.28
937.96	227.31
938.26	227.33
938.56	227.32
938.86	227.33
939.16	227.33
939.46	227.32
939.76	227.32
940.06	227.32
940.35	227.30
940.65	227.23
940.95	227.28
941.25	227.28
941.55	227.26
941.85	227.20
942.15	227.22
942.45	227.24
942.75	227.23
943.04	227.22
943.34	227.23
943.64	227.24
943.94	227.23
944.24	227.21
944.54	227.19
944.84	227.19
945.13	227.15
945.43	227.16
945.73	227.15
946.03	227.13
946.33	227.12
946.62	227.12
946.92	227.11
947.22	227.07
947.52	227.07
947.82	227.10
948.11	227.09
948.41	227.05
948.71	226.99
949.01	226.99
949.31	226.99
949.60	226.97
949.90	226.96
950.20	226.96
950.50	226.93
950.79	226.96
951.09	226.96
951.39	226.97
951.69	226.95
951.98	226.96
952.28	226.95
952.58	226.96
952.87	226.92
953.17	226.96
953.47	226.95
953.76	226.93
954.06	226.90
954.36	226.89
954.66	226.89
954.95	226.96
955.25	226.94
955.55	226.95
955.84	226.95
956.14	226.98
956.44	226.95
956.73	226.93
957.03	226.88
957.32	226.90
957.62	226.89
957.92	226.92
958.21	226.86
958.51	226.97
958.81	227.00
959.10	227.03
959.40	227.04
959.69	227.06
959.99	227.08
960.29	227.09
960.58	227.09
960.88	227.14
961.17	227.13
961.47	227.16
961.76	227.12
962.06	227.13
962.36	227.11
962.65	227.13
962.95	227.16
963.24	227.19
963.54	227.17
963.83	227.18
964.13	227.16
964.42	227.18
964.72	227.10
965.01	227.07
965.31	227.05
965.60	227.03
965.90	227.11
966.19	227.08
966.49	227.09
966.78	227.09
967.08	227.10
967.37	227.08
967.67	227.09
967.96	227.11
968.26	227.09
968.55	227.12
968.85	227.14
969.14	227.14
969.43	227.11
969.73	227.10
970.02	227.11
970.32	227.12
970.61	227.12
970.91	227.10
971.20	227.09
971.49	227.10
971.79	227.10
972.08	227.03
972.38	227.03
972.67	227.01
972.96	227.04
973.26	227.02
973.55	227.07
973.85	227.04
974.14	227.06
974.43	227.10
974.73	227.05
975.02	227.02
975.31	227.04
975.61	227.09
975.90	227.11
976.19	227.10
976.49	227.07
976.78	227.10
977.07	227.11
977.37	227.11
977.66	227.10
977.95	227.10
978.24	227.09
978.54	227.12
978.83	227.13
979.12	227.12
979.42	227.09
979.71	227.08
980.00	227.10
980.29	227.07
980.59	227.04
980.88	227.06
981.17	227.06
981.46	227.05
981.76	227.02
982.05	227.02
982.34	227.01
982.63	227.07
982.93	227.04
983.22	227.04
983.51	227.05
983.80	227.07
984.09	227.06
984.39	227.02
984.68	227.00
984.97	226.96
985.26	226.91
985.55	226.94
985.85	226.90
986.14	226.89
986.43	226.92
986.72	226.92
987.01	226.89
987.30	226.91
987.59	226.92
987.89	226.90
988.18	226.86
988.47	226.86
988.76	226.81
989.05	226.82
989.34	226.84
989.63	226.87
989.92	226.86
990.22	226.87
990.51	226.91
990.80	226.91
991.09	226.95
991.38	226.98
991.67	226.96
991.96	226.97
992.25	226.95
992.54	226.90
992.83	226.89
993.12	226.88
993.41	226.88
993.70	226.92
993.99	226.92
994.28	226.99
994.58	227.01
994.87	227.02
995.16	227.03
995.45	227.01
995.74	226.92
996.03	226.95
996.32	226.95
996.61	226.95
996.90	226.94
997.19	226.93
997.48	226.94
997.77	226.94
998.06	226.94
998.34	226.96
998.63	227.00
998.92	227.00
999.21	227.05
999.50	227.05
999.79	227.02
1000.08	227.05
1000.37	227.04
1000.66	227.04
1000.95	227.07
1001.24	227.05
1001.53	227.06
1001.82	227.10
1002.11	227.10
1002.40	227.13
1002.68	227.15
1002.97	227.25
1003.26	227.23
1003.55	227.25
1003.84	227.26
1004.13	227.30
1004.42	227.27
1004.71	227.23
1004.99	227.27
1005.28	227.28
1005.57	227.27
1005.86	227.23
1006.15	227.21
1006.44	227.19
1006.72	227.20
1007.01	227.18
1007.30	227.19
1007.59	227.20
1007.88	227.20
1008.17	227.20
1008.45	227.21
1008.74	227.14
1009.03	227.09
1009.32	227.10
1009.60	227.12
1009.89	227.07
1010.18	227.04
1010.47	227.07
1010.76	227.11
1011.04	227.05
1011.33	227.06
1011.62	227.07
1011.91	227.08
1012.19	227.09
1012.48	227.08
1012.77	227.07
1013.05	227.10
1013.34	227.11
1013.63	227.10
1013.92	227.10
1014.20	227.07
1014.49	227.02
1014.78	227.09
1015.06	227.06
1015.35	227.04
1015.64	226.98
1015.92	227.04
1016.21	227.06
1016.50	227.09
1016.78	227.08
1017.07	227.10
1017.36	227.08
1017.64	227.07
1017.93	227.08
1018.22	227.05
1018.50	227.04
1018.79	227.01
1019.08	226.97
1019.36	226.94
1019.65	226.87
1019.93	226.90
1020.22	226.92
1020.51	226.99
1020.79	226.96
1021.08	226.42
1021.36	226.75
1021.65	226.53
1021.94	226.91
1022.22	226.53
1022.51	225.88
1022.79	227.42
1023.08	227.10
1023.36	228.34
1023.65	226.44
>>>>>End Processed Spectral Data<<<<<
