SpectraSuite Data File
++++++++++++++++++++++++++++++++++++
Date: Fri Feb 01 15:30:36 EST 2013
User: group
Dark Spectrum Present: No
Reference Spectrum Present: No
Number of Sampled Component Spectra: 1
Spectrometers: USB2E7196
Integration Time (usec): 35000 (USB2E7196)
Spectra Averaged: 100 (USB2E7196)
Boxcar Smoothing: 10 (USB2E7196)
Correct for Electrical Dark: No (USB2E7196)
Strobe/Lamp Enabled: No (USB2E7196)
Correct for Detector Non-linearity: No (USB2E7196)
Correct for Stray Light: No (USB2E7196)
Number of Pixels in Processed Spectrum: 2048
>>>>>Begin Processed Spectral Data<<<<<
339.09	0.00
339.48	215.35
339.86	216.11
340.24	217.65
340.63	219.24
341.01	221.91
341.39	222.08
341.78	223.08
342.16	223.96
342.54	224.94
342.93	213.31
343.31	224.09
343.69	224.61
344.07	225.08
344.46	225.53
344.84	225.91
345.22	226.14
345.60	226.36
345.99	226.54
346.37	226.68
346.75	226.76
347.13	226.85
347.52	226.88
347.90	226.95
348.28	226.97
348.66	226.97
349.05	226.95
349.43	227.00
349.81	227.04
350.19	227.06
350.57	227.11
350.96	227.18
351.34	227.27
351.72	227.35
352.10	227.43
352.48	227.50
352.87	227.53
353.25	227.59
353.63	227.67
354.01	227.75
354.39	227.81
354.77	227.90
355.15	228.00
355.54	228.04
355.92	228.11
356.30	228.17
356.68	228.35
357.06	228.43
357.44	228.53
357.82	228.60
358.20	228.71
358.58	228.79
358.97	228.83
359.35	228.92
359.73	229.02
360.11	229.12
360.49	229.19
360.87	229.25
361.25	229.32
361.63	229.42
362.01	229.47
362.39	229.54
362.77	229.60
363.15	229.63
363.53	229.70
363.91	229.73
364.29	229.78
364.67	229.72
365.05	229.76
365.43	229.73
365.81	229.74
366.19	229.81
366.57	229.83
366.95	229.82
367.33	229.81
367.71	229.77
368.09	229.77
368.47	229.75
368.85	229.74
369.23	229.75
369.61	229.68
369.99	229.65
370.37	229.64
370.75	229.64
371.13	229.58
371.51	229.51
371.89	229.48
372.27	229.41
372.65	229.35
373.03	229.27
373.41	229.22
373.78	229.18
374.16	229.06
374.54	228.99
374.92	228.94
375.30	228.84
375.68	228.80
376.06	228.72
376.44	228.64
376.82	228.60
377.19	228.50
377.57	228.42
377.95	228.35
378.33	228.27
378.71	228.13
379.09	228.06
379.47	228.02
379.84	227.91
380.22	227.82
380.60	227.73
380.98	227.65
381.36	227.61
381.73	227.54
382.11	227.45
382.49	227.34
382.87	227.26
383.25	227.21
383.62	227.23
384.00	227.15
384.38	227.07
384.76	227.01
385.13	226.98
385.51	226.93
385.89	226.85
386.27	226.76
386.64	226.74
387.02	226.69
387.40	226.65
387.78	226.62
388.15	226.61
388.53	226.56
388.91	226.53
389.29	226.46
389.66	226.45
390.04	226.43
390.42	226.45
390.79	226.43
391.17	226.42
391.55	226.29
391.92	226.25
392.30	226.25
392.68	226.21
393.05	226.21
393.43	226.19
393.81	226.20
394.18	226.23
394.56	226.25
394.94	226.30
395.31	226.30
395.69	226.31
396.06	226.34
396.44	226.39
396.82	226.44
397.19	226.57
397.57	226.59
397.95	226.67
398.32	226.68
398.70	226.76
399.07	226.83
399.45	226.89
399.82	226.95
400.20	227.05
400.58	227.10
400.95	227.16
401.33	227.32
401.70	227.47
402.08	227.56
402.45	227.63
402.83	227.75
403.20	227.87
403.58	228.03
403.95	228.17
404.33	228.28
404.71	228.42
405.08	228.56
405.46	228.72
405.83	228.87
406.21	229.05
406.58	229.19
406.96	229.37
407.33	229.58
407.70	229.81
408.08	230.06
408.45	230.33
408.83	230.55
409.20	230.75
409.58	230.94
409.95	231.21
410.33	231.52
410.70	231.79
411.08	232.09
411.45	232.36
411.82	232.70
412.20	233.07
412.57	233.49
412.95	233.80
413.32	234.20
413.69	234.61
414.07	235.07
414.44	235.55
414.82	236.02
415.19	236.57
415.56	237.14
415.94	237.69
416.31	238.32
416.68	238.98
417.06	239.68
417.43	240.36
417.81	241.10
418.18	241.85
418.55	242.68
418.93	243.57
419.30	244.53
419.67	245.40
420.04	246.33
420.42	247.30
420.79	248.47
421.16	249.60
421.54	250.79
421.91	251.94
422.28	253.22
422.66	254.55
423.03	255.89
423.40	257.17
423.77	258.58
424.15	260.02
424.52	261.48
424.89	263.12
425.26	264.71
425.64	266.18
426.01	267.82
426.38	269.46
426.75	271.11
427.13	272.79
427.50	274.62
427.87	276.54
428.24	278.44
428.61	280.20
428.99	282.20
429.36	284.26
429.73	286.33
430.10	288.31
430.47	290.36
430.85	292.45
431.22	294.75
431.59	297.12
431.96	299.36
432.33	301.85
432.70	304.22
433.08	307.01
433.45	309.68
433.82	312.24
434.19	315.15
434.56	318.01
434.93	320.70
435.30	323.32
435.68	326.17
436.05	328.99
436.42	331.75
436.79	334.23
437.16	336.99
437.53	339.86
437.90	342.72
438.27	345.47
438.64	348.32
439.01	350.90
439.38	353.13
439.75	355.34
440.13	357.84
440.50	360.18
440.87	362.01
441.24	363.93
441.61	366.11
441.98	367.57
442.35	369.34
442.72	371.19
443.09	373.03
443.46	374.03
443.83	374.64
444.20	375.14
444.57	375.99
444.94	376.25
445.31	376.56
445.68	376.88
446.05	376.96
446.42	376.56
446.79	376.13
447.16	375.67
447.53	375.30
447.90	374.20
448.27	373.02
448.64	371.45
449.01	370.33
449.37	368.37
449.74	366.49
450.11	364.27
450.48	361.83
450.85	359.30
451.22	357.14
451.59	355.06
451.96	353.17
452.33	350.56
452.70	348.19
453.07	345.37
453.43	342.47
453.80	339.70
454.17	337.02
454.54	334.45
454.91	331.68
455.28	328.97
455.65	326.44
456.02	323.98
456.38	321.83
456.75	319.14
457.12	316.87
457.49	314.61
457.86	312.40
458.23	310.47
458.59	308.38
458.96	306.31
459.33	304.46
459.70	302.58
460.07	301.07
460.43	299.34
460.80	297.72
461.17	296.31
461.54	294.81
461.91	293.38
462.27	291.95
462.64	290.71
463.01	289.36
463.38	288.05
463.74	286.66
464.11	285.49
464.48	284.46
464.85	283.35
465.21	282.47
465.58	281.54
465.95	280.46
466.32	279.60
466.68	278.67
467.05	277.77
467.42	276.88
467.78	275.92
468.15	275.04
468.52	274.39
468.88	273.49
469.25	272.73
469.62	272.07
469.98	271.38
470.35	270.75
470.72	270.17
471.08	269.52
471.45	268.98
471.82	268.41
472.18	267.79
472.55	267.36
472.92	266.81
473.28	266.35
473.65	265.90
474.02	265.42
474.38	265.03
474.75	264.71
475.11	264.34
475.48	264.12
475.85	263.87
476.21	263.65
476.58	263.48
476.94	263.31
477.31	263.19
477.67	263.07
478.04	263.00
478.41	262.91
478.77	262.97
479.14	262.92
479.50	262.94
479.87	263.02
480.23	263.11
480.60	263.21
480.96	263.29
481.33	263.50
481.69	263.69
482.06	263.90
482.42	264.14
482.79	264.39
483.15	264.69
483.52	265.06
483.88	265.38
484.25	265.76
484.61	266.21
484.98	266.66
485.34	267.16
485.71	267.69
486.07	268.32
486.44	268.86
486.80	269.56
487.17	270.30
487.53	271.08
487.90	271.94
488.26	272.89
488.62	273.85
488.99	274.81
489.35	275.88
489.72	277.01
490.08	278.17
490.44	279.39
490.81	280.71
491.17	282.04
491.54	283.53
491.90	285.08
492.26	286.72
492.63	288.47
492.99	290.29
493.36	292.25
493.72	294.34
494.08	296.45
494.45	298.69
494.81	301.07
495.17	303.49
495.54	306.04
495.90	308.71
496.26	311.58
496.63	314.55
496.99	317.67
497.35	320.94
497.72	324.37
498.08	327.95
498.44	331.66
498.80	335.64
499.17	339.68
499.53	343.82
499.89	348.18
500.26	352.65
500.62	357.37
500.98	362.33
501.34	367.33
501.71	372.67
502.07	378.07
502.43	383.74
502.79	389.57
503.16	395.68
503.52	401.93
503.88	408.33
504.24	414.96
504.60	421.87
504.97	429.03
505.33	436.37
505.69	444.05
506.05	451.80
506.41	459.72
506.78	467.85
507.14	476.36
507.50	485.14
507.86	494.19
508.22	503.30
508.59	512.46
508.95	522.11
509.31	531.92
509.67	542.12
510.03	552.45
510.39	563.10
510.75	573.94
511.12	584.95
511.48	596.24
511.84	607.69
512.20	619.16
512.56	631.08
512.92	643.28
513.28	655.60
513.64	668.11
514.00	680.77
514.37	693.68
514.73	706.74
515.09	719.73
515.45	733.02
515.81	746.71
516.17	760.78
516.53	774.88
516.89	789.09
517.25	803.24
517.61	817.68
517.97	832.11
518.33	846.48
518.69	861.23
519.05	876.34
519.41	891.51
519.77	907.13
520.13	922.68
520.49	938.06
520.85	953.60
521.21	969.45
521.57	985.76
521.93	1001.65
522.29	1018.11
522.65	1034.45
523.01	1050.70
523.37	1066.78
523.73	1082.95
524.09	1099.14
524.45	1115.55
524.81	1132.27
525.17	1149.03
525.53	1165.96
525.89	1182.94
526.25	1199.88
526.61	1216.22
526.97	1233.01
527.33	1249.49
527.68	1266.20
528.04	1282.73
528.40	1299.29
528.76	1316.35
529.12	1332.99
529.48	1349.88
529.84	1365.92
530.20	1382.58
530.56	1399.64
530.91	1417.15
531.27	1434.04
531.63	1450.57
531.99	1467.10
532.35	1483.10
532.71	1499.08
533.07	1515.31
533.42	1531.29
533.78	1547.33
534.14	1563.73
534.50	1579.20
534.86	1595.14
535.21	1610.24
535.57	1626.23
535.93	1641.76
536.29	1656.56
536.65	1671.70
537.00	1686.55
537.36	1701.91
537.72	1716.48
538.08	1730.96
538.44	1744.61
538.79	1758.43
539.15	1772.12
539.51	1786.03
539.87	1800.48
540.22	1814.11
540.58	1828.21
540.94	1841.59
541.29	1854.69
541.65	1867.46
542.01	1880.79
542.37	1893.25
542.72	1905.81
543.08	1917.60
543.44	1930.11
543.79	1941.43
544.15	1952.43
544.51	1963.97
544.87	1974.91
545.22	1985.83
545.58	1996.21
545.94	2006.05
546.29	2016.04
546.65	2025.88
547.01	2035.18
547.36	2043.82
547.72	2052.41
548.07	2060.19
548.43	2068.37
548.79	2076.44
549.14	2083.94
549.50	2091.24
549.86	2098.88
550.21	2106.11
550.57	2113.41
550.92	2120.10
551.28	2127.24
551.64	2134.36
551.99	2141.03
552.35	2147.29
552.70	2153.35
553.06	2159.18
553.41	2165.65
553.77	2171.67
554.13	2177.80
554.48	2183.86
554.84	2189.34
555.19	2194.72
555.55	2199.71
555.90	2204.19
556.26	2208.81
556.61	2213.56
556.97	2217.79
557.32	2221.92
557.68	2226.13
558.03	2230.28
558.39	2233.97
558.74	2238.48
559.10	2242.29
559.45	2245.94
559.81	2250.36
560.16	2254.19
560.52	2257.59
560.87	2260.94
561.23	2263.51
561.58	2266.50
561.94	2268.96
562.29	2271.45
562.64	2274.12
563.00	2276.91
563.35	2280.38
563.71	2283.58
564.06	2286.74
564.42	2289.46
564.77	2291.87
565.12	2294.11
565.48	2296.02
565.83	2297.72
566.19	2298.96
566.54	2299.99
566.89	2301.08
567.25	2301.51
567.60	2302.93
567.96	2304.36
568.31	2305.23
568.66	2306.29
569.02	2306.74
569.37	2307.10
569.72	2307.79
570.08	2307.86
570.43	2307.74
570.78	2307.09
571.14	2305.47
571.49	2304.05
571.84	2303.85
572.20	2302.79
572.55	2301.72
572.90	2300.18
573.26	2298.79
573.61	2297.13
573.96	2295.27
574.31	2292.07
574.67	2288.97
575.02	2285.14
575.37	2281.68
575.72	2277.78
576.08	2274.48
576.43	2271.16
576.78	2267.38
577.13	2264.32
577.49	2261.05
577.84	2257.50
578.19	2253.67
578.54	2249.92
578.90	2245.57
579.25	2240.03
579.60	2234.86
579.95	2229.75
580.30	2224.61
580.66	2219.44
581.01	2214.51
581.36	2209.43
581.71	2205.30
582.06	2200.82
582.42	2196.33
582.77	2191.04
583.12	2186.35
583.47	2181.56
583.82	2176.40
584.17	2171.08
584.53	2165.42
584.88	2159.72
585.23	2153.80
585.58	2148.36
585.93	2142.94
586.28	2138.15
586.63	2132.94
586.98	2127.94
587.34	2123.17
587.69	2118.26
588.04	2112.86
588.39	2106.98
588.74	2100.46
589.09	2094.28
589.44	2087.31
589.79	2081.27
590.14	2075.69
590.49	2069.16
590.84	2062.70
591.19	2056.62
591.54	2050.24
591.89	2042.69
592.25	2035.97
592.60	2028.85
592.95	2021.18
593.30	2013.79
593.65	2006.14
594.00	1999.14
594.35	1991.83
594.70	1983.82
595.05	1976.44
595.40	1969.11
595.75	1961.55
596.10	1955.35
596.45	1948.53
596.80	1942.37
597.15	1935.73
597.50	1928.51
597.85	1922.07
598.19	1915.40
598.54	1908.24
598.89	1901.42
599.24	1895.58
599.59	1888.83
599.94	1882.60
600.29	1876.30
600.64	1869.72
600.99	1862.23
601.34	1855.20
601.69	1848.05
602.04	1841.01
602.39	1833.67
602.74	1826.91
603.08	1820.10
603.43	1813.33
603.78	1805.98
604.13	1798.78
604.48	1791.33
604.83	1784.38
605.18	1777.30
605.53	1769.15
605.87	1761.02
606.22	1753.80
606.57	1745.83
606.92	1738.39
607.27	1731.11
607.62	1724.07
607.96	1716.76
608.31	1710.17
608.66	1702.54
609.01	1695.04
609.36	1687.38
609.70	1679.36
610.05	1671.16
610.40	1663.40
610.75	1654.94
611.10	1647.19
611.44	1638.82
611.79	1630.94
612.14	1622.29
612.49	1613.16
612.83	1604.83
613.18	1596.86
613.53	1588.81
613.88	1580.13
614.22	1571.85
614.57	1563.28
614.92	1555.16
615.27	1547.55
615.61	1539.20
615.96	1531.22
616.31	1523.69
616.65	1516.30
617.00	1508.90
617.35	1501.23
617.70	1492.88
618.04	1484.45
618.39	1476.16
618.74	1468.52
619.08	1460.04
619.43	1452.59
619.78	1445.66
620.12	1438.45
620.47	1430.97
620.82	1422.72
621.16	1415.43
621.51	1407.82
621.85	1400.13
622.20	1391.69
622.55	1383.36
622.89	1375.47
623.24	1367.81
623.59	1360.44
623.93	1352.94
624.28	1345.61
624.62	1338.08
624.97	1331.00
625.32	1324.31
625.66	1317.31
626.01	1310.09
626.35	1302.69
626.70	1294.81
627.04	1287.11
627.39	1279.40
627.73	1271.95
628.08	1265.05
628.43	1257.69
628.77	1250.38
629.12	1242.85
629.46	1235.59
629.81	1228.17
630.15	1220.94
630.50	1213.55
630.84	1205.30
631.19	1197.48
631.53	1189.92
631.88	1182.38
632.22	1174.78
632.57	1167.42
632.91	1159.94
633.26	1152.62
633.60	1145.26
633.95	1138.18
634.29	1131.03
634.64	1124.36
634.98	1116.92
635.32	1109.79
635.67	1103.21
636.01	1096.58
636.36	1089.73
636.70	1083.22
637.05	1076.63
637.39	1070.12
637.73	1063.64
638.08	1057.77
638.42	1051.76
638.77	1045.33
639.11	1038.76
639.45	1032.34
639.80	1025.61
640.14	1019.16
640.49	1012.55
640.83	1006.24
641.17	1000.06
641.52	993.75
641.86	987.34
642.20	981.58
642.55	975.26
642.89	968.75
643.23	962.20
643.58	956.41
643.92	950.30
644.26	944.25
644.61	938.31
644.95	932.26
645.29	925.59
645.64	918.81
645.98	912.42
646.32	906.62
646.66	900.56
647.01	894.84
647.35	889.22
647.69	883.39
648.04	877.88
648.38	872.03
648.72	866.05
649.06	859.88
649.41	853.93
649.75	847.93
650.09	841.98
650.43	836.19
650.78	830.03
651.12	824.02
651.46	818.21
651.80	812.38
652.14	807.01
652.49	801.71
652.83	796.56
653.17	790.89
653.51	785.10
653.85	779.71
654.20	774.00
654.54	767.95
654.88	762.19
655.22	756.30
655.56	750.63
655.90	745.18
656.25	739.92
656.59	734.61
656.93	729.54
657.27	724.41
657.61	718.99
657.95	713.90
658.29	708.83
658.64	703.57
658.98	698.33
659.32	692.78
659.66	687.48
660.00	682.16
660.34	677.21
660.68	672.28
661.02	667.25
661.36	662.62
661.70	658.14
662.05	653.76
662.39	649.45
662.73	644.97
663.07	640.60
663.41	636.27
663.75	631.75
664.09	627.22
664.43	622.83
664.77	618.68
665.11	614.50
665.45	610.39
665.79	606.36
666.13	602.21
666.47	598.21
666.81	594.08
667.15	590.02
667.49	586.19
667.83	582.34
668.17	578.45
668.51	574.34
668.85	570.29
669.19	566.50
669.53	562.67
669.87	558.80
670.21	555.14
670.55	551.44
670.89	548.01
671.23	544.53
671.57	541.00
671.91	537.47
672.25	533.93
672.58	530.44
672.92	527.08
673.26	523.93
673.60	520.73
673.94	517.64
674.28	514.79
674.62	511.84
674.96	508.83
675.30	505.91
675.64	502.98
675.97	500.26
676.31	497.37
676.65	494.40
676.99	491.76
677.33	488.87
677.67	486.09
678.01	483.07
678.34	480.12
678.68	477.28
679.02	474.47
679.36	471.75
679.70	469.03
680.04	466.28
680.37	463.43
680.71	460.71
681.05	458.12
681.39	455.38
681.73	452.74
682.06	450.22
682.40	447.65
682.74	445.16
683.08	442.60
683.42	440.01
683.75	437.60
684.09	435.03
684.43	432.51
684.77	430.05
685.10	427.76
685.44	425.51
685.78	423.24
686.12	421.02
686.45	418.68
686.79	416.38
687.13	414.19
687.46	412.05
687.80	409.85
688.14	407.66
688.48	405.55
688.81	403.22
689.15	401.05
689.49	398.93
689.82	396.83
690.16	394.74
690.50	392.83
690.83	390.83
691.17	388.84
691.51	386.99
691.84	385.10
692.18	383.11
692.52	381.09
692.85	379.14
693.19	377.24
693.52	375.44
693.86	373.62
694.20	371.83
694.53	369.98
694.87	368.16
695.21	366.33
695.54	364.51
695.88	362.85
696.21	361.09
696.55	359.44
696.88	357.75
697.22	356.10
697.56	354.51
697.89	352.85
698.23	351.25
698.56	349.63
698.90	348.06
699.23	346.41
699.57	344.87
699.90	343.35
700.24	341.82
700.58	340.27
700.91	338.79
701.25	337.33
701.58	335.94
701.92	334.55
702.25	333.18
702.59	331.84
702.92	330.50
703.26	329.23
703.59	327.96
703.93	326.74
704.26	325.50
704.60	324.19
704.93	322.95
705.26	321.72
705.60	320.55
705.93	319.40
706.27	318.40
706.60	317.36
706.94	316.28
707.27	315.16
707.61	314.13
707.94	313.10
708.27	312.00
708.61	310.97
708.94	309.99
709.28	309.03
709.61	308.04
709.94	307.11
710.28	306.06
710.61	305.06
710.95	304.02
711.28	303.09
711.61	302.09
711.95	301.17
712.28	300.17
712.61	299.18
712.95	298.26
713.28	297.37
713.61	296.45
713.95	295.57
714.28	294.73
714.61	293.83
714.95	292.96
715.28	292.14
715.61	291.29
715.95	290.45
716.28	289.59
716.61	288.80
716.95	288.01
717.28	287.30
717.61	286.59
717.94	285.82
718.28	285.06
718.61	284.37
718.94	283.66
719.27	283.04
719.61	282.39
719.94	281.73
720.27	281.02
720.60	280.34
720.94	279.74
721.27	279.11
721.60	278.53
721.93	277.95
722.27	277.42
722.60	276.81
722.93	276.25
723.26	275.70
723.59	275.13
723.93	274.56
724.26	274.02
724.59	273.43
724.92	272.97
725.25	272.45
725.59	271.93
725.92	271.42
726.25	270.91
726.58	270.41
726.91	269.90
727.24	269.41
727.57	268.91
727.91	268.38
728.24	267.96
728.57	267.51
728.90	267.07
729.23	266.53
729.56	266.12
729.89	265.63
730.22	265.14
730.55	264.68
730.89	264.24
731.22	263.78
731.55	263.38
731.88	262.91
732.21	262.50
732.54	262.09
732.87	261.67
733.20	261.26
733.53	260.91
733.86	260.55
734.19	260.15
734.52	259.81
734.85	259.52
735.18	259.07
735.51	258.67
735.84	258.29
736.17	257.98
736.50	257.57
736.83	257.31
737.16	257.01
737.49	256.68
737.82	256.34
738.15	256.02
738.48	255.69
738.81	255.38
739.14	255.03
739.47	254.71
739.80	254.43
740.13	254.09
740.46	253.72
740.79	253.38
741.12	253.07
741.45	252.73
741.78	252.34
742.11	252.05
742.44	251.74
742.77	251.44
743.10	251.10
743.43	250.81
743.75	250.43
744.08	250.23
744.41	249.93
744.74	249.63
745.07	249.35
745.40	249.05
745.73	248.82
746.06	248.54
746.39	248.28
746.71	247.99
747.04	247.72
747.37	247.49
747.70	247.26
748.03	247.02
748.36	246.84
748.68	246.63
749.01	246.38
749.34	246.16
749.67	245.94
750.00	245.72
750.33	245.55
750.65	245.34
750.98	245.00
751.31	244.80
751.64	244.64
751.97	244.45
752.29	244.23
752.62	243.97
752.95	243.77
753.28	243.55
753.60	243.36
753.93	243.20
754.26	243.00
754.59	242.78
754.91	242.56
755.24	242.31
755.57	242.12
755.90	241.94
756.22	241.72
756.55	241.51
756.88	241.32
757.20	241.13
757.53	240.93
757.86	240.78
758.19	240.60
758.51	240.42
758.84	240.20
759.17	240.06
759.49	239.89
759.82	239.78
760.15	239.63
760.47	239.47
760.80	239.29
761.13	239.17
761.45	239.01
761.78	238.86
762.11	238.75
762.43	238.58
762.76	238.43
763.08	238.35
763.41	238.22
763.74	238.11
764.06	237.96
764.39	237.87
764.71	237.73
765.04	237.61
765.37	237.46
765.69	237.36
766.02	237.22
766.34	237.11
766.67	236.94
767.00	236.84
767.32	236.77
767.65	236.70
767.97	236.55
768.30	236.45
768.62	236.35
768.95	236.22
769.27	236.14
769.60	236.05
769.92	235.91
770.25	235.79
770.57	235.67
770.90	235.55
771.22	235.40
771.55	235.35
771.87	235.28
772.20	235.18
772.52	235.15
772.85	235.16
773.17	235.03
773.50	234.95
773.82	234.80
774.15	234.65
774.47	234.51
774.80	234.43
775.12	234.32
775.45	234.20
775.77	234.11
776.09	234.01
776.42	233.96
776.74	233.88
777.07	233.81
777.39	233.73
777.72	233.64
778.04	233.58
778.36	233.47
778.69	233.39
779.01	233.30
779.33	233.12
779.66	232.98
779.98	232.92
780.31	232.85
780.63	232.81
780.95	232.78
781.28	232.73
781.60	232.64
781.92	232.59
782.25	232.56
782.57	232.49
782.89	232.42
783.22	232.35
783.54	232.28
783.86	232.22
784.19	232.13
784.51	232.12
784.83	232.03
785.16	231.98
785.48	231.87
785.80	231.83
786.12	231.78
786.45	231.69
786.77	231.63
787.09	231.58
787.42	231.51
787.74	231.47
788.06	231.40
788.38	231.39
788.71	231.33
789.03	231.26
789.35	231.25
789.67	231.20
789.99	231.13
790.32	231.07
790.64	231.03
790.96	231.11
791.28	230.98
791.61	230.93
791.93	230.90
792.25	230.90
792.57	230.92
792.89	230.89
793.21	230.86
793.54	230.82
793.86	230.78
794.18	230.75
794.50	230.67
794.82	230.65
795.14	230.64
795.47	230.64
795.79	230.62
796.11	230.59
796.43	230.54
796.75	230.55
797.07	230.55
797.39	230.53
797.71	230.41
798.04	230.42
798.36	230.44
798.68	230.42
799.00	230.39
799.32	230.31
799.64	230.32
799.96	230.32
800.28	230.32
800.60	230.31
800.92	230.30
801.24	230.26
801.56	230.25
801.89	230.18
802.21	230.17
802.53	230.12
802.85	230.10
803.17	230.13
803.49	230.05
803.81	230.00
804.13	229.94
804.45	229.91
804.77	229.91
805.09	229.88
805.41	229.80
805.73	229.77
806.05	229.75
806.37	229.71
806.69	229.67
807.01	229.61
807.33	229.58
807.65	229.50
807.97	229.56
808.28	229.52
808.60	229.50
808.92	229.44
809.24	229.50
809.56	229.45
809.88	229.41
810.20	229.42
810.52	229.43
810.84	229.43
811.16	229.40
811.48	229.34
811.80	229.32
812.12	229.35
812.43	229.35
812.75	229.32
813.07	229.27
813.39	229.28
813.71	229.25
814.03	229.19
814.35	229.17
814.67	229.12
814.98	229.08
815.30	229.04
815.62	229.04
815.94	228.94
816.26	228.97
816.58	228.92
816.89	228.90
817.21	228.84
817.53	228.82
817.85	228.84
818.17	228.80
818.48	228.79
818.80	228.75
819.12	228.69
819.44	228.68
819.76	228.65
820.07	228.60
820.39	228.60
820.71	228.62
821.03	228.64
821.34	228.58
821.66	228.58
821.98	228.60
822.30	228.53
822.61	228.58
822.93	228.53
823.25	228.52
823.57	228.51
823.88	228.51
824.20	228.49
824.52	228.43
824.83	228.48
825.15	228.45
825.47	228.40
825.79	228.40
826.10	228.40
826.42	228.40
826.74	228.39
827.05	228.39
827.37	228.37
827.69	228.32
828.00	228.34
828.32	228.32
828.64	228.32
828.95	228.37
829.27	228.30
829.58	228.29
829.90	228.32
830.22	228.29
830.53	228.24
830.85	228.22
831.17	228.21
831.48	228.16
831.80	228.13
832.11	228.15
832.43	228.14
832.75	228.10
833.06	228.14
833.38	228.10
833.69	228.09
834.01	228.08
834.32	228.08
834.64	228.05
834.96	228.07
835.27	228.05
835.59	228.04
835.90	228.02
836.22	228.01
836.53	227.99
836.85	227.99
837.16	228.11
837.48	228.11
837.79	228.16
838.11	228.18
838.42	228.17
838.74	228.20
839.05	228.16
839.37	228.17
839.68	228.11
840.00	228.12
840.31	228.12
840.63	228.13
840.94	228.15
841.26	228.14
841.57	228.15
841.88	228.13
842.20	228.12
842.51	228.11
842.83	228.10
843.14	228.20
843.46	228.16
843.77	228.11
844.08	228.11
844.40	228.08
844.71	228.05
845.03	228.08
845.34	228.05
845.65	228.08
845.97	228.06
846.28	228.07
846.60	228.07
846.91	228.04
847.22	228.04
847.54	228.02
847.85	228.04
848.16	228.01
848.48	228.00
848.79	227.99
849.10	228.01
849.42	227.98
849.73	227.87
850.04	227.87
850.36	227.81
850.67	227.80
850.98	227.78
851.30	227.79
851.61	227.76
851.92	227.77
852.23	227.79
852.55	227.80
852.86	227.81
853.17	227.80
853.49	227.84
853.80	227.82
854.11	227.83
854.42	227.83
854.74	227.84
855.05	227.84
855.36	227.81
855.67	227.80
855.99	227.80
856.30	227.93
856.61	227.92
856.92	227.91
857.23	227.91
857.55	227.91
857.86	227.87
858.17	227.87
858.48	227.87
858.79	227.81
859.11	227.85
859.42	227.81
859.73	227.81
860.04	227.80
860.35	227.78
860.66	227.72
860.98	227.72
861.29	227.72
861.60	227.72
861.91	227.71
862.22	227.66
862.53	227.63
862.84	227.51
863.16	227.52
863.47	227.50
863.78	227.49
864.09	227.50
864.40	227.54
864.71	227.55
865.02	227.54
865.33	227.54
865.64	227.49
865.95	227.51
866.27	227.58
866.58	227.55
866.89	227.58
867.20	227.60
867.51	227.59
867.82	227.55
868.13	227.56
868.44	227.55
868.75	227.59
869.06	227.61
869.37	227.59
869.68	227.59
869.99	227.60
870.30	227.59
870.61	227.60
870.92	227.58
871.23	227.55
871.54	227.57
871.85	227.60
872.16	227.62
872.47	227.59
872.78	227.54
873.09	227.55
873.40	227.52
873.71	227.54
874.02	227.51
874.33	227.52
874.64	227.49
874.95	227.50
875.26	227.49
875.56	227.52
875.87	227.53
876.18	227.53
876.49	227.67
876.80	227.67
877.11	227.65
877.42	227.63
877.73	227.64
878.04	227.61
878.35	227.61
878.66	227.60
878.96	227.60
879.27	227.60
879.58	227.62
879.89	227.61
880.20	227.65
880.51	227.68
880.82	227.68
881.12	227.68
881.43	227.63
881.74	227.63
882.05	227.63
882.36	227.61
882.67	227.60
882.97	227.48
883.28	227.47
883.59	227.46
883.90	227.44
884.21	227.43
884.51	227.46
884.82	227.43
885.13	227.40
885.44	227.39
885.74	227.37
886.05	227.35
886.36	227.34
886.67	227.28
886.98	227.32
887.28	227.33
887.59	227.34
887.90	227.38
888.20	227.38
888.51	227.38
888.82	227.39
889.13	227.37
889.43	227.44
889.74	227.44
890.05	227.43
890.35	227.48
890.66	227.51
890.97	227.45
891.28	227.45
891.58	227.45
891.89	227.43
892.20	227.41
892.50	227.39
892.81	227.41
893.12	227.40
893.42	227.32
893.73	227.28
894.04	227.27
894.34	227.28
894.65	227.24
894.95	227.22
895.26	227.22
895.57	227.27
895.87	227.18
896.18	227.19
896.48	227.18
896.79	227.14
897.10	227.10
897.40	227.09
897.71	227.10
898.01	227.09
898.32	227.11
898.63	227.14
898.93	227.17
899.24	227.15
899.54	227.15
899.85	227.15
900.15	227.15
900.46	227.14
900.76	227.13
901.07	227.14
901.38	227.13
901.68	227.15
901.99	227.09
902.29	227.09
902.60	227.06
902.90	227.07
903.21	227.08
903.51	227.07
903.82	227.09
904.12	227.09
904.43	227.09
904.73	227.05
905.03	227.01
905.34	227.07
905.64	227.09
905.95	227.09
906.25	227.06
906.56	227.08
906.86	227.08
907.17	227.08
907.47	227.09
907.77	227.08
908.08	227.06
908.38	227.09
908.69	227.10
908.99	227.12
909.30	227.13
909.60	227.14
909.90	227.19
910.21	227.20
910.51	227.18
910.81	227.20
911.12	227.25
911.42	227.27
911.73	227.14
912.03	227.13
912.33	227.16
912.64	227.18
912.94	227.14
913.24	227.12
913.55	227.12
913.85	227.12
914.15	227.14
914.46	227.14
914.76	227.12
915.06	227.12
915.37	227.11
915.67	227.10
915.97	227.05
916.27	227.03
916.58	227.02
916.88	227.05
917.18	227.04
917.49	227.12
917.79	227.10
918.09	227.11
918.39	227.14
918.70	227.11
919.00	227.13
919.30	227.20
919.60	227.17
919.91	227.15
920.21	227.16
920.51	227.16
920.81	227.15
921.12	227.17
921.42	227.17
921.72	227.18
922.02	227.15
922.32	227.19
922.63	227.19
922.93	227.19
923.23	227.17
923.53	227.17
923.83	227.06
924.13	227.08
924.44	227.11
924.74	227.10
925.04	227.13
925.34	227.12
925.64	227.09
925.94	227.08
926.24	227.15
926.55	227.14
926.85	227.11
927.15	227.10
927.45	227.10
927.75	227.09
928.05	227.08
928.35	227.12
928.65	227.13
928.95	227.13
929.26	227.14
929.56	227.14
929.86	227.13
930.16	227.13
930.46	227.14
930.76	227.13
931.06	227.11
931.36	227.09
931.66	227.11
931.96	227.13
932.26	227.17
932.56	227.11
932.86	227.12
933.16	227.15
933.46	227.15
933.76	227.12
934.06	227.13
934.36	227.14
934.66	227.12
934.96	227.16
935.26	227.15
935.56	227.15
935.86	227.14
936.16	227.14
936.46	227.15
936.76	227.13
937.06	227.12
937.36	227.11
937.66	227.13
937.96	227.09
938.26	227.09
938.56	227.11
938.86	227.10
939.16	227.12
939.46	227.11
939.76	227.11
940.06	227.13
940.35	227.13
940.65	227.07
940.95	227.08
941.25	227.05
941.55	227.03
941.85	227.05
942.15	227.05
942.45	227.08
942.75	227.06
943.04	227.06
943.34	227.11
943.64	227.09
943.94	227.06
944.24	227.10
944.54	227.07
944.84	227.04
945.13	227.06
945.43	227.07
945.73	227.06
946.03	227.03
946.33	227.02
946.62	227.00
946.92	227.05
947.22	227.04
947.52	227.02
947.82	227.06
948.11	227.02
948.41	226.98
948.71	226.95
949.01	226.95
949.31	226.95
949.60	226.92
949.90	226.94
950.20	226.95
950.50	226.91
950.79	226.94
951.09	226.97
951.39	226.95
951.69	226.93
951.98	226.97
952.28	227.01
952.58	227.02
952.87	227.05
953.17	227.05
953.47	227.04
953.76	227.05
954.06	227.03
954.36	227.02
954.66	227.06
954.95	227.12
955.25	227.13
955.55	227.17
955.84	227.15
956.14	227.14
956.44	227.14
956.73	227.15
957.03	227.15
957.32	227.11
957.62	227.11
957.92	227.13
958.21	227.09
958.51	227.18
958.81	227.17
959.10	227.16
959.40	227.20
959.69	227.20
959.99	227.22
960.29	227.22
960.58	227.23
960.88	227.25
961.17	227.18
961.47	227.20
961.76	227.16
962.06	227.19
962.36	227.21
962.65	227.24
962.95	227.23
963.24	227.21
963.54	227.24
963.83	227.24
964.13	227.22
964.42	227.20
964.72	227.12
965.01	227.13
965.31	227.12
965.60	227.10
965.90	227.16
966.19	227.10
966.49	227.10
966.78	227.11
967.08	227.04
967.37	227.08
967.67	227.04
967.96	227.04
968.26	227.03
968.55	227.02
968.85	226.99
969.14	226.99
969.43	226.98
969.73	226.97
970.02	226.97
970.32	226.94
970.61	226.92
970.91	226.87
971.20	226.84
971.49	226.82
971.79	226.80
972.08	226.74
972.38	226.74
972.67	226.72
972.96	226.71
973.26	226.72
973.55	226.76
973.85	226.77
974.14	226.78
974.43	226.81
974.73	226.80
975.02	226.79
975.31	226.79
975.61	226.78
975.90	226.76
976.19	226.76
976.49	226.77
976.78	226.81
977.07	226.84
977.37	226.86
977.66	226.89
977.95	226.88
978.24	226.88
978.54	226.93
978.83	226.95
979.12	226.92
979.42	226.92
979.71	226.88
980.00	226.87
980.29	226.87
980.59	226.84
980.88	226.88
981.17	226.89
981.46	226.87
981.76	226.86
982.05	226.91
982.34	226.92
982.63	226.95
982.93	226.94
983.22	226.97
983.51	226.95
983.80	226.98
984.09	227.00
984.39	227.00
984.68	226.97
984.97	226.99
985.26	227.01
985.55	227.02
985.85	227.02
986.14	227.08
986.43	227.09
986.72	227.09
987.01	227.06
987.30	227.03
987.59	227.04
987.89	227.09
988.18	227.05
988.47	227.05
988.76	227.02
989.05	227.01
989.34	227.00
989.63	227.05
989.92	227.03
990.22	227.03
990.51	227.03
990.80	227.02
991.09	227.03
991.38	227.02
991.67	227.02
991.96	226.99
992.25	226.93
992.54	226.90
992.83	226.90
993.12	226.89
993.41	226.93
993.70	226.98
993.99	226.96
994.28	226.98
994.58	226.99
994.87	227.01
995.16	227.02
995.45	226.99
995.74	226.95
996.03	226.94
996.32	226.94
996.61	226.96
996.90	226.98
997.19	226.95
997.48	226.98
997.77	226.96
998.06	226.98
998.34	226.98
998.63	226.99
998.92	226.96
999.21	226.98
999.50	226.94
999.79	226.90
1000.08	226.91
1000.37	226.91
1000.66	226.90
1000.95	226.91
1001.24	226.92
1001.53	226.94
1001.82	226.91
1002.11	226.93
1002.40	226.95
1002.68	226.97
1002.97	227.03
1003.26	227.03
1003.55	227.01
1003.84	227.01
1004.13	227.06
1004.42	227.07
1004.71	227.05
1004.99	227.09
1005.28	227.10
1005.57	227.16
1005.86	227.14
1006.15	227.11
1006.44	227.08
1006.72	227.06
1007.01	227.02
1007.30	226.97
1007.59	226.96
1007.88	226.94
1008.17	226.92
1008.45	226.89
1008.74	226.84
1009.03	226.79
1009.32	226.76
1009.60	226.73
1009.89	226.73
1010.18	226.65
1010.47	226.64
1010.76	226.65
1011.04	226.63
1011.33	226.59
1011.62	226.54
1011.91	226.56
1012.19	226.53
1012.48	226.52
1012.77	226.54
1013.05	226.61
1013.34	226.64
1013.63	226.63
1013.92	226.64
1014.20	226.63
1014.49	226.63
1014.78	226.64
1015.06	226.60
1015.35	226.62
1015.64	226.63
1015.92	226.65
1016.21	226.69
1016.50	226.72
1016.78	226.74
1017.07	226.76
1017.36	226.74
1017.64	226.73
1017.93	226.72
1018.22	226.74
1018.50	226.75
1018.79	226.73
1019.08	226.66
1019.36	226.66
1019.65	226.63
1019.93	226.66
1020.22	226.67
1020.51	226.74
1020.79	226.71
1021.08	226.59
1021.36	226.42
1021.65	226.38
1021.94	226.56
1022.22	226.62
1022.51	226.26
1022.79	226.94
1023.08	226.73
1023.36	228.22
1023.65	226.15
>>>>>End Processed Spectral Data<<<<<
