SpectraSuite Data File
++++++++++++++++++++++++++++++++++++
Date: Fri Feb 01 15:54:56 EST 2013
User: group
Dark Spectrum Present: No
Reference Spectrum Present: No
Number of Sampled Component Spectra: 1
Spectrometers: USB2E7196
Integration Time (usec): 35000 (USB2E7196)
Spectra Averaged: 100 (USB2E7196)
Boxcar Smoothing: 10 (USB2E7196)
Correct for Electrical Dark: No (USB2E7196)
Strobe/Lamp Enabled: No (USB2E7196)
Correct for Detector Non-linearity: No (USB2E7196)
Correct for Stray Light: No (USB2E7196)
Number of Pixels in Processed Spectrum: 2048
>>>>>Begin Processed Spectral Data<<<<<
339.09	0.00
339.48	214.94
339.86	216.49
340.24	217.63
340.63	219.40
341.01	221.81
341.39	222.35
341.78	223.17
342.16	224.14
342.54	224.68
342.93	213.29
343.31	224.09
343.69	224.63
344.07	225.07
344.46	225.53
344.84	225.89
345.22	226.15
345.60	226.37
345.99	226.57
346.37	226.73
346.75	226.82
347.13	226.88
347.52	226.94
347.90	227.01
348.28	227.01
348.66	227.04
349.05	227.04
349.43	227.09
349.81	227.14
350.19	227.19
350.57	227.25
350.96	227.31
351.34	227.38
351.72	227.45
352.10	227.56
352.48	227.59
352.87	227.65
353.25	227.68
353.63	227.74
354.01	227.78
354.39	227.84
354.77	227.92
355.15	227.99
355.54	228.04
355.92	228.06
356.30	228.17
356.68	228.28
357.06	228.35
357.44	228.40
357.82	228.48
358.20	228.53
358.58	228.59
358.97	228.65
359.35	228.71
359.73	228.78
360.11	228.81
360.49	228.84
360.87	228.88
361.25	228.94
361.63	229.02
362.01	229.05
362.39	229.04
362.77	229.09
363.15	229.15
363.53	229.19
363.91	229.22
364.29	229.19
364.67	229.11
365.05	229.14
365.43	229.17
365.81	229.16
366.19	229.19
366.57	229.23
366.95	229.22
367.33	229.18
367.71	229.17
368.09	229.20
368.47	229.21
368.85	229.20
369.23	229.20
369.61	229.14
369.99	229.13
370.37	229.15
370.75	229.16
371.13	229.05
371.51	228.96
371.89	228.89
372.27	228.85
372.65	228.84
373.03	228.77
373.41	228.71
373.78	228.64
374.16	228.52
374.54	228.43
374.92	228.35
375.30	228.30
375.68	228.22
376.06	228.11
376.44	228.05
376.82	227.99
377.19	227.91
377.57	227.85
377.95	227.76
378.33	227.65
378.71	227.52
379.09	227.47
379.47	227.49
379.84	227.42
380.22	227.36
380.60	227.27
380.98	227.19
381.36	227.11
381.73	227.03
382.11	227.02
382.49	226.97
382.87	226.93
383.25	226.85
383.62	226.90
384.00	226.87
384.38	226.81
384.76	226.75
385.13	226.76
385.51	226.68
385.89	226.61
386.27	226.58
386.64	226.56
387.02	226.51
387.40	226.44
387.78	226.40
388.15	226.37
388.53	226.35
388.91	226.35
389.29	226.32
389.66	226.34
390.04	226.31
390.42	226.30
390.79	226.24
391.17	226.21
391.55	226.10
391.92	226.08
392.30	226.09
392.68	226.06
393.05	226.01
393.43	226.03
393.81	226.07
394.18	226.09
394.56	226.09
394.94	226.14
395.31	226.11
395.69	226.18
396.06	226.21
396.44	226.23
396.82	226.24
397.19	226.33
397.57	226.34
397.95	226.38
398.32	226.39
398.70	226.45
399.07	226.56
399.45	226.59
399.82	226.67
400.20	226.74
400.58	226.84
400.95	226.89
401.33	227.01
401.70	227.14
402.08	227.21
402.45	227.30
402.83	227.39
403.20	227.52
403.58	227.60
403.95	227.71
404.33	227.81
404.71	227.93
405.08	228.11
405.46	228.26
405.83	228.43
406.21	228.61
406.58	228.78
406.96	228.87
407.33	229.07
407.70	229.23
408.08	229.48
408.45	229.67
408.83	229.93
409.20	230.13
409.58	230.29
409.95	230.56
410.33	230.85
410.70	231.09
411.08	231.40
411.45	231.73
411.82	232.07
412.20	232.43
412.57	232.83
412.95	233.13
413.32	233.52
413.69	233.91
414.07	234.33
414.44	234.80
414.82	235.32
415.19	235.87
415.56	236.41
415.94	237.00
416.31	237.65
416.68	238.28
417.06	238.99
417.43	239.68
417.81	240.46
418.18	241.23
418.55	242.09
418.93	242.95
419.30	243.83
419.67	244.77
420.04	245.73
420.42	246.73
420.79	247.91
421.16	249.07
421.54	250.25
421.91	251.47
422.28	252.70
422.66	254.08
423.03	255.39
423.40	256.70
423.77	258.07
424.15	259.48
424.52	260.98
424.89	262.60
425.26	264.16
425.64	265.58
426.01	267.19
426.38	268.84
426.75	270.48
427.13	272.25
427.50	274.08
427.87	275.97
428.24	277.84
428.61	279.56
428.99	281.54
429.36	283.64
429.73	285.71
430.10	287.76
430.47	289.76
430.85	291.84
431.22	294.15
431.59	296.56
431.96	298.82
432.33	301.30
432.70	303.67
433.08	306.54
433.45	309.22
433.82	311.81
434.19	314.68
434.56	317.54
434.93	320.19
435.30	322.81
435.68	325.69
436.05	328.53
436.42	331.35
436.79	333.83
437.16	336.54
437.53	339.38
437.90	342.19
438.27	344.96
438.64	347.84
439.01	350.43
439.38	352.65
439.75	354.83
440.13	357.27
440.50	359.60
440.87	361.42
441.24	363.39
441.61	365.55
441.98	367.09
442.35	368.92
442.72	370.75
443.09	372.52
443.46	373.53
443.83	374.15
444.20	374.63
444.57	375.47
444.94	375.78
445.31	376.12
445.68	376.47
446.05	376.58
446.42	376.22
446.79	375.81
447.16	375.37
447.53	375.02
447.90	373.89
448.27	372.73
448.64	371.13
449.01	369.91
449.37	367.97
449.74	366.03
450.11	363.72
450.48	361.24
450.85	358.71
451.22	356.59
451.59	354.50
451.96	352.54
452.33	349.90
452.70	347.53
453.07	344.67
453.43	341.81
453.80	339.02
454.17	336.29
454.54	333.73
454.91	330.95
455.28	328.29
455.65	325.81
456.02	323.33
456.38	321.18
456.75	318.51
457.12	316.23
457.49	314.02
457.86	311.84
458.23	310.01
458.59	307.96
458.96	305.81
459.33	304.00
459.70	302.15
460.07	300.65
460.43	298.89
460.80	297.28
461.17	295.82
461.54	294.35
461.91	292.93
462.27	291.44
462.64	290.20
463.01	288.83
463.38	287.52
463.74	286.19
464.11	285.04
464.48	284.03
464.85	282.90
465.21	282.03
465.58	281.13
465.95	280.01
466.32	279.08
466.68	278.20
467.05	277.26
467.42	276.36
467.78	275.46
468.15	274.60
468.52	273.94
468.88	273.04
469.25	272.27
469.62	271.64
469.98	270.98
470.35	270.37
470.72	269.78
471.08	269.16
471.45	268.59
471.82	268.06
472.18	267.48
472.55	267.09
472.92	266.57
473.28	266.10
473.65	265.66
474.02	265.26
474.38	264.91
474.75	264.61
475.11	264.29
475.48	264.05
475.85	263.83
476.21	263.62
476.58	263.46
476.94	263.29
477.31	263.14
477.67	262.98
478.04	262.87
478.41	262.84
478.77	262.87
479.14	262.86
479.50	262.85
479.87	262.93
480.23	263.02
480.60	263.09
480.96	263.19
481.33	263.43
481.69	263.62
482.06	263.81
482.42	263.98
482.79	264.27
483.15	264.57
483.52	264.98
483.88	265.35
484.25	265.72
484.61	266.15
484.98	266.62
485.34	267.22
485.71	267.82
486.07	268.43
486.44	269.00
486.80	269.69
487.17	270.44
487.53	271.28
487.90	272.11
488.26	273.07
488.62	274.08
488.99	275.04
489.35	276.12
489.72	277.29
490.08	278.53
490.44	279.77
490.81	281.08
491.17	282.40
491.54	283.88
491.90	285.41
492.26	287.08
492.63	288.79
492.99	290.54
493.36	292.43
493.72	294.43
494.08	296.55
494.45	298.78
494.81	301.16
495.17	303.59
495.54	306.15
495.90	308.84
496.26	311.63
496.63	314.60
496.99	317.65
497.35	320.88
497.72	324.25
498.08	327.76
498.44	331.44
498.80	335.36
499.17	339.42
499.53	343.62
499.89	348.02
500.26	352.53
500.62	357.22
500.98	362.17
501.34	367.24
501.71	372.58
502.07	377.99
502.43	383.60
502.79	389.39
503.16	395.45
503.52	401.69
503.88	408.09
504.24	414.71
504.60	421.63
504.97	428.76
505.33	436.10
505.69	443.82
506.05	451.64
506.41	459.53
506.78	467.60
507.14	475.99
507.50	484.70
507.86	493.74
508.22	502.91
508.59	512.13
508.95	521.74
509.31	531.51
509.67	541.65
510.03	551.96
510.39	562.51
510.75	573.36
511.12	584.27
511.48	595.57
511.84	607.01
512.20	618.51
512.56	630.51
512.92	642.70
513.28	655.02
513.64	667.46
514.00	680.15
514.37	693.09
514.73	706.27
515.09	719.23
515.45	732.53
515.81	746.09
516.17	760.07
516.53	774.12
516.89	788.30
517.25	802.42
517.61	816.81
517.97	831.33
518.33	845.63
518.69	860.39
519.05	875.31
519.41	890.51
519.77	906.02
520.13	921.44
520.49	936.79
520.85	952.17
521.21	967.88
521.57	984.20
521.93	999.98
522.29	1016.36
522.65	1032.65
523.01	1048.83
523.37	1064.86
523.73	1081.04
524.09	1097.22
524.45	1113.52
524.81	1130.26
525.17	1147.08
525.53	1163.86
525.89	1180.80
526.25	1197.67
526.61	1214.19
526.97	1230.82
527.33	1247.30
527.68	1263.84
528.04	1280.30
528.40	1296.98
528.76	1314.07
529.12	1330.61
529.48	1347.48
529.84	1363.37
530.20	1379.95
530.56	1396.95
530.91	1414.37
531.27	1431.05
531.63	1447.38
531.99	1463.93
532.35	1479.84
532.71	1495.64
533.07	1511.96
533.42	1527.73
533.78	1543.69
534.14	1559.90
534.50	1575.25
534.86	1591.04
535.21	1606.27
535.57	1622.20
535.93	1637.71
536.29	1652.45
536.65	1667.47
537.00	1682.30
537.36	1697.55
537.72	1712.04
538.08	1726.46
538.44	1740.34
538.79	1754.32
539.15	1768.12
539.51	1781.88
539.87	1796.24
540.22	1810.04
540.58	1823.78
540.94	1837.13
541.29	1850.04
541.65	1862.65
542.01	1875.84
542.37	1888.27
542.72	1900.68
543.08	1912.40
543.44	1924.66
543.79	1935.90
544.15	1946.79
544.51	1958.31
544.87	1969.35
545.22	1980.21
545.58	1990.30
545.94	2000.05
546.29	2009.82
546.65	2019.62
547.01	2028.78
547.36	2037.41
547.72	2045.78
548.07	2053.52
548.43	2061.61
548.79	2069.71
549.14	2077.30
549.50	2084.71
549.86	2092.39
550.21	2099.66
550.57	2106.78
550.92	2113.34
551.28	2120.36
551.64	2127.49
551.99	2133.96
552.35	2140.09
552.70	2146.27
553.06	2152.34
553.41	2158.58
553.77	2164.53
554.13	2170.61
554.48	2176.79
554.84	2182.16
555.19	2187.51
555.55	2192.65
555.90	2197.21
556.26	2202.04
556.61	2206.76
556.97	2210.85
557.32	2214.99
557.68	2219.08
558.03	2223.47
558.39	2227.32
558.74	2232.03
559.10	2235.83
559.45	2239.48
559.81	2243.69
560.16	2247.38
560.52	2250.54
560.87	2253.93
561.23	2256.67
561.58	2259.51
561.94	2262.01
562.29	2264.45
562.64	2267.08
563.00	2269.84
563.35	2273.33
563.71	2276.46
564.06	2279.82
564.42	2282.80
564.77	2285.23
565.12	2287.60
565.48	2289.37
565.83	2291.14
566.19	2292.33
566.54	2293.22
566.89	2294.35
567.25	2294.93
567.60	2296.44
567.96	2298.11
568.31	2299.05
568.66	2300.07
569.02	2300.76
569.37	2301.12
569.72	2302.00
570.08	2302.06
570.43	2302.04
570.78	2301.56
571.14	2300.00
571.49	2298.49
571.84	2298.16
572.20	2297.06
572.55	2296.03
572.90	2294.52
573.26	2293.12
573.61	2291.39
573.96	2289.74
574.31	2286.78
574.67	2283.93
575.02	2280.22
575.37	2276.99
575.72	2273.11
576.08	2269.80
576.43	2266.34
576.78	2262.58
577.13	2259.44
577.49	2256.47
577.84	2252.77
578.19	2249.09
578.54	2245.38
578.90	2241.25
579.25	2235.69
579.60	2230.63
579.95	2225.50
580.30	2220.59
580.66	2215.54
581.01	2210.64
581.36	2205.63
581.71	2201.43
582.06	2196.97
582.42	2192.53
582.77	2187.24
583.12	2182.63
583.47	2177.98
583.82	2173.11
584.17	2167.85
584.53	2162.42
584.88	2156.70
585.23	2151.06
585.58	2145.45
585.93	2140.00
586.28	2135.07
586.63	2130.04
586.98	2125.09
587.34	2120.41
587.69	2115.54
588.04	2110.19
588.39	2104.57
588.74	2098.09
589.09	2091.94
589.44	2085.09
589.79	2079.08
590.14	2073.40
590.49	2066.90
590.84	2060.53
591.19	2054.40
591.54	2047.95
591.89	2040.44
592.25	2033.60
592.60	2026.41
592.95	2018.85
593.30	2011.58
593.65	2004.05
594.00	1996.94
594.35	1989.58
594.70	1981.51
595.05	1974.18
595.40	1966.81
595.75	1959.42
596.10	1953.21
596.45	1946.47
596.80	1940.33
597.15	1933.61
597.50	1926.53
597.85	1920.04
598.19	1913.24
598.54	1906.01
598.89	1899.36
599.24	1893.55
599.59	1886.92
599.94	1880.76
600.29	1874.41
600.64	1867.79
600.99	1860.40
601.34	1853.63
601.69	1846.69
602.04	1839.93
602.39	1832.61
602.74	1825.82
603.08	1819.05
603.43	1812.32
603.78	1805.06
604.13	1797.82
604.48	1790.43
604.83	1783.54
605.18	1776.50
605.53	1768.50
605.87	1760.72
606.22	1753.57
606.57	1745.53
606.92	1738.34
607.27	1731.12
607.62	1724.23
607.96	1716.95
608.31	1710.28
608.66	1702.63
609.01	1695.14
609.36	1687.42
609.70	1679.32
610.05	1671.35
610.40	1663.44
610.75	1655.19
611.10	1647.41
611.44	1639.04
611.79	1631.23
612.14	1622.54
612.49	1613.48
612.83	1605.16
613.18	1596.96
613.53	1588.87
613.88	1580.36
614.22	1571.98
614.57	1563.40
614.92	1555.37
615.27	1547.79
615.61	1539.40
615.96	1531.37
616.31	1523.80
616.65	1516.41
617.00	1508.91
617.35	1501.19
617.70	1492.95
618.04	1484.47
618.39	1476.30
618.74	1468.61
619.08	1460.28
619.43	1452.73
619.78	1445.83
620.12	1438.64
620.47	1431.11
620.82	1422.93
621.16	1415.50
621.51	1407.93
621.85	1400.35
622.20	1391.85
622.55	1383.57
622.89	1375.80
623.24	1368.23
623.59	1360.75
623.93	1353.39
624.28	1346.18
624.62	1338.60
624.97	1331.47
625.32	1324.63
625.66	1317.61
626.01	1310.51
626.35	1303.02
626.70	1295.36
627.04	1287.63
627.39	1279.96
627.73	1272.61
628.08	1265.74
628.43	1258.51
628.77	1251.05
629.12	1243.46
629.46	1236.24
629.81	1228.89
630.15	1221.62
630.50	1214.17
630.84	1206.03
631.19	1198.05
631.53	1190.56
631.88	1183.04
632.22	1175.33
632.57	1167.99
632.91	1160.41
633.26	1152.90
633.60	1145.56
633.95	1138.49
634.29	1131.47
634.64	1124.79
634.98	1117.44
635.32	1110.18
635.67	1103.61
636.01	1097.05
636.36	1090.25
636.70	1083.76
637.05	1077.06
637.39	1070.62
637.73	1064.12
638.08	1058.20
638.42	1052.16
638.77	1045.71
639.11	1039.11
639.45	1032.83
639.80	1026.24
640.14	1019.94
640.49	1013.45
640.83	1007.17
641.17	1000.83
641.52	994.40
641.86	987.88
642.20	981.99
642.55	975.74
642.89	969.17
643.23	962.53
643.58	956.72
643.92	950.49
644.26	944.43
644.61	938.42
644.95	932.35
645.29	925.79
645.64	919.07
645.98	912.70
646.32	906.84
646.66	900.74
647.01	894.86
647.35	889.08
647.69	883.28
648.04	877.71
648.38	871.91
648.72	865.96
649.06	859.94
649.41	854.09
649.75	848.08
650.09	842.12
650.43	836.46
650.78	830.35
651.12	824.39
651.46	818.64
651.80	812.90
652.14	807.47
652.49	802.08
652.83	796.97
653.17	791.25
653.51	785.55
653.85	780.14
654.20	774.60
654.54	768.62
654.88	762.86
655.22	756.97
655.56	751.30
655.90	745.84
656.25	740.64
656.59	735.19
656.93	730.13
657.27	725.04
657.61	719.58
657.95	714.46
658.29	709.48
658.64	704.28
658.98	698.99
659.32	693.62
659.66	688.37
660.00	683.01
660.34	678.12
660.68	673.20
661.02	668.13
661.36	663.37
661.70	658.82
662.05	654.48
662.39	650.17
662.73	645.69
663.07	641.37
663.41	636.82
663.75	632.37
664.09	627.81
664.43	623.45
664.77	619.28
665.11	615.01
665.45	610.82
665.79	606.70
666.13	602.48
666.47	598.41
666.81	594.28
667.15	590.14
667.49	586.21
667.83	582.38
668.17	578.53
668.51	574.50
668.85	570.48
669.19	566.68
669.53	562.82
669.87	558.94
670.21	555.22
670.55	551.65
670.89	548.23
671.23	544.78
671.57	541.18
671.91	537.65
672.25	534.11
672.58	530.59
672.92	527.24
673.26	524.14
673.60	520.95
673.94	517.87
674.28	514.99
674.62	512.08
674.96	509.01
675.30	506.03
675.64	503.06
675.97	500.29
676.31	497.39
676.65	494.47
676.99	491.79
677.33	488.93
677.67	486.02
678.01	482.97
678.34	480.05
678.68	477.21
679.02	474.38
679.36	471.67
679.70	468.94
680.04	466.15
680.37	463.25
680.71	460.47
681.05	457.81
681.39	455.11
681.73	452.41
682.06	449.86
682.40	447.36
682.74	444.89
683.08	442.36
683.42	439.75
683.75	437.24
684.09	434.63
684.43	432.12
684.77	429.73
685.10	427.38
685.44	425.04
685.78	422.75
686.12	420.49
686.45	418.17
686.79	415.92
687.13	413.73
687.46	411.54
687.80	409.38
688.14	407.16
688.48	405.06
688.81	402.80
689.15	400.64
689.49	398.45
689.82	396.34
690.16	394.29
690.50	392.31
690.83	390.35
691.17	388.39
691.51	386.48
691.84	384.63
692.18	382.70
692.52	380.73
692.85	378.80
693.19	376.92
693.52	375.08
693.86	373.24
694.20	371.42
694.53	369.65
694.87	367.84
695.21	366.06
695.54	364.25
695.88	362.56
696.21	360.88
696.55	359.22
696.88	357.55
697.22	355.83
697.56	354.22
697.89	352.61
698.23	351.00
698.56	349.43
698.90	347.77
699.23	346.12
699.57	344.57
699.90	343.02
700.24	341.51
700.58	339.99
700.91	338.50
701.25	337.13
701.58	335.73
701.92	334.37
702.25	332.99
702.59	331.63
702.92	330.30
703.26	328.98
703.59	327.71
703.93	326.51
704.26	325.28
704.60	323.97
704.93	322.69
705.26	321.45
705.60	320.26
705.93	319.17
706.27	318.16
706.60	317.16
706.94	316.09
707.27	315.00
707.61	313.93
707.94	312.90
708.27	311.78
708.61	310.74
708.94	309.72
709.28	308.75
709.61	307.81
709.94	306.81
710.28	305.77
710.61	304.80
710.95	303.77
711.28	302.90
711.61	301.98
711.95	301.10
712.28	300.17
712.61	299.17
712.95	298.24
713.28	297.37
713.61	296.43
713.95	295.55
714.28	294.65
714.61	293.83
714.95	293.01
715.28	292.16
715.61	291.28
715.95	290.39
716.28	289.53
716.61	288.69
716.95	287.93
717.28	287.20
717.61	286.43
717.94	285.68
718.28	284.83
718.61	284.08
718.94	283.36
719.27	282.66
719.61	282.03
719.94	281.37
720.27	280.62
720.60	279.96
720.94	279.34
721.27	278.76
721.60	278.16
721.93	277.55
722.27	276.98
722.60	276.39
722.93	275.85
723.26	275.32
723.59	274.73
723.93	274.16
724.26	273.59
724.59	273.00
724.92	272.47
725.25	271.99
725.59	271.48
725.92	270.95
726.25	270.46
726.58	269.97
726.91	269.45
727.24	268.98
727.57	268.54
727.91	268.04
728.24	267.55
728.57	267.06
728.90	266.60
729.23	266.12
729.56	265.79
729.89	265.33
730.22	264.81
730.55	264.39
730.89	263.94
731.22	263.48
731.55	263.02
731.88	262.58
732.21	262.19
732.54	261.74
732.87	261.33
733.20	260.88
733.53	260.53
733.86	260.13
734.19	259.73
734.52	259.30
734.85	258.99
735.18	258.61
735.51	258.27
735.84	257.88
736.17	257.54
736.50	257.08
736.83	256.82
737.16	256.51
737.49	256.17
737.82	255.81
738.15	255.52
738.48	255.21
738.81	254.86
739.14	254.52
739.47	254.22
739.80	253.91
740.13	253.63
740.46	253.26
740.79	252.96
741.12	252.65
741.45	252.37
741.78	251.99
742.11	251.69
742.44	251.38
742.77	251.11
743.10	250.77
743.43	250.49
743.75	250.14
744.08	250.02
744.41	249.75
744.74	249.52
745.07	249.20
745.40	248.94
745.73	248.74
746.06	248.49
746.39	248.22
746.71	247.97
747.04	247.70
747.37	247.43
747.70	247.19
748.03	246.94
748.36	246.73
748.68	246.50
749.01	246.28
749.34	246.05
749.67	245.83
750.00	245.62
750.33	245.48
750.65	245.24
750.98	244.87
751.31	244.64
751.64	244.40
751.97	244.28
752.29	244.08
752.62	243.85
752.95	243.63
753.28	243.41
753.60	243.20
753.93	243.04
754.26	242.86
754.59	242.61
754.91	242.41
755.24	242.21
755.57	242.01
755.90	241.79
756.22	241.59
756.55	241.39
756.88	241.20
757.20	240.95
757.53	240.78
757.86	240.59
758.19	240.44
758.51	240.28
758.84	240.08
759.17	239.90
759.49	239.73
759.82	239.58
760.15	239.45
760.47	239.28
760.80	239.11
761.13	238.99
761.45	238.84
761.78	238.70
762.11	238.53
762.43	238.39
762.76	238.24
763.08	238.09
763.41	237.93
763.74	237.81
764.06	237.67
764.39	237.52
764.71	237.40
765.04	237.28
765.37	237.14
765.69	236.99
766.02	236.89
766.34	236.73
766.67	236.60
767.00	236.49
767.32	236.44
767.65	236.40
767.97	236.30
768.30	236.20
768.62	236.09
768.95	235.97
769.27	235.87
769.60	235.80
769.92	235.65
770.25	235.59
770.57	235.43
770.90	235.33
771.22	235.20
771.55	235.09
771.87	234.97
772.20	234.88
772.52	234.87
772.85	234.89
773.17	234.79
773.50	234.68
773.82	234.59
774.15	234.45
774.47	234.29
774.80	234.15
775.12	234.08
775.45	233.98
775.77	233.90
776.09	233.81
776.42	233.73
776.74	233.71
777.07	233.61
777.39	233.57
777.72	233.49
778.04	233.44
778.36	233.35
778.69	233.32
779.01	233.25
779.33	233.10
779.66	232.91
779.98	232.85
780.31	232.78
780.63	232.75
780.95	232.73
781.28	232.68
781.60	232.62
781.92	232.57
782.25	232.51
782.57	232.47
782.89	232.43
783.22	232.36
783.54	232.29
783.86	232.23
784.19	232.15
784.51	232.12
784.83	232.06
785.16	232.03
785.48	231.95
785.80	231.90
786.12	231.85
786.45	231.79
786.77	231.77
787.09	231.72
787.42	231.62
787.74	231.56
788.06	231.54
788.38	231.49
788.71	231.44
789.03	231.39
789.35	231.36
789.67	231.30
789.99	231.24
790.32	231.20
790.64	231.17
790.96	231.22
791.28	231.13
791.61	231.07
791.93	231.05
792.25	230.98
792.57	231.03
792.89	230.98
793.21	230.92
793.54	230.88
793.86	230.80
794.18	230.78
794.50	230.71
794.82	230.60
795.14	230.56
795.47	230.52
795.79	230.48
796.11	230.42
796.43	230.38
796.75	230.33
797.07	230.27
797.39	230.21
797.71	230.08
798.04	230.06
798.36	230.05
798.68	230.01
799.00	229.98
799.32	229.88
799.64	229.84
799.96	229.81
800.28	229.79
800.60	229.79
800.92	229.74
801.24	229.71
801.56	229.70
801.89	229.65
802.21	229.66
802.53	229.62
802.85	229.62
803.17	229.63
803.49	229.59
803.81	229.57
804.13	229.55
804.45	229.53
804.77	229.52
805.09	229.49
805.41	229.45
805.73	229.45
806.05	229.41
806.37	229.39
806.69	229.39
807.01	229.36
807.33	229.33
807.65	229.26
807.97	229.30
808.28	229.26
808.60	229.26
808.92	229.24
809.24	229.26
809.56	229.21
809.88	229.19
810.20	229.20
810.52	229.19
810.84	229.17
811.16	229.13
811.48	229.08
811.80	229.10
812.12	229.10
812.43	229.08
812.75	229.06
813.07	229.04
813.39	229.02
813.71	228.98
814.03	228.96
814.35	228.95
814.67	228.89
814.98	228.90
815.30	228.88
815.62	228.82
815.94	228.74
816.26	228.76
816.58	228.71
816.89	228.71
817.21	228.68
817.53	228.67
817.85	228.65
818.17	228.65
818.48	228.58
818.80	228.58
819.12	228.56
819.44	228.55
819.76	228.50
820.07	228.49
820.39	228.46
820.71	228.44
821.03	228.44
821.34	228.42
821.66	228.39
821.98	228.38
822.30	228.37
822.61	228.47
822.93	228.41
823.25	228.40
823.57	228.37
823.88	228.41
824.20	228.42
824.52	228.45
824.83	228.41
825.15	228.39
825.47	228.36
825.79	228.33
826.10	228.28
826.42	228.30
826.74	228.32
827.05	228.31
827.37	228.34
827.69	228.32
828.00	228.29
828.32	228.29
828.64	228.28
828.95	228.30
829.27	228.24
829.58	228.22
829.90	228.22
830.22	228.20
830.53	228.12
830.85	228.08
831.17	228.03
831.48	228.01
831.80	228.03
832.11	228.03
832.43	228.03
832.75	228.03
833.06	228.06
833.38	228.02
833.69	228.00
834.01	227.95
834.32	227.95
834.64	227.93
834.96	227.89
835.27	227.87
835.59	227.82
835.90	227.80
836.22	227.80
836.53	227.76
836.85	227.74
837.16	227.82
837.48	227.78
837.79	227.81
838.11	227.80
838.42	227.76
838.74	227.74
839.05	227.71
839.37	227.72
839.68	227.66
840.00	227.67
840.31	227.66
840.63	227.65
840.94	227.62
841.26	227.60
841.57	227.61
841.88	227.59
842.20	227.61
842.51	227.57
842.83	227.55
843.14	227.62
843.46	227.62
843.77	227.58
844.08	227.59
844.40	227.53
844.71	227.56
845.03	227.53
845.34	227.51
845.65	227.50
845.97	227.45
846.28	227.46
846.60	227.43
846.91	227.44
847.22	227.43
847.54	227.44
847.85	227.49
848.16	227.48
848.48	227.46
848.79	227.49
849.10	227.51
849.42	227.52
849.73	227.45
850.04	227.42
850.36	227.39
850.67	227.43
850.98	227.44
851.30	227.41
851.61	227.39
851.92	227.41
852.23	227.44
852.55	227.46
852.86	227.44
853.17	227.46
853.49	227.46
853.80	227.50
854.11	227.53
854.42	227.51
854.74	227.49
855.05	227.52
855.36	227.47
855.67	227.48
855.99	227.46
856.30	227.59
856.61	227.60
856.92	227.60
857.23	227.60
857.55	227.63
857.86	227.65
858.17	227.71
858.48	227.68
858.79	227.70
859.11	227.74
859.42	227.75
859.73	227.74
860.04	227.74
860.35	227.73
860.66	227.74
860.98	227.76
861.29	227.80
861.60	227.83
861.91	227.85
862.22	227.84
862.53	227.83
862.84	227.73
863.16	227.78
863.47	227.75
863.78	227.78
864.09	227.77
864.40	227.79
864.71	227.79
865.02	227.79
865.33	227.76
865.64	227.72
865.95	227.72
866.27	227.78
866.58	227.76
866.89	227.74
867.20	227.73
867.51	227.68
867.82	227.63
868.13	227.63
868.44	227.57
868.75	227.58
869.06	227.59
869.37	227.56
869.68	227.52
869.99	227.51
870.30	227.46
870.61	227.45
870.92	227.43
871.23	227.39
871.54	227.40
871.85	227.37
872.16	227.37
872.47	227.34
872.78	227.27
873.09	227.28
873.40	227.25
873.71	227.21
874.02	227.22
874.33	227.20
874.64	227.16
874.95	227.19
875.26	227.15
875.56	227.10
875.87	227.13
876.18	227.10
876.49	227.19
876.80	227.18
877.11	227.16
877.42	227.12
877.73	227.11
878.04	227.09
878.35	227.10
878.66	227.07
878.96	227.08
879.27	227.06
879.58	227.04
879.89	227.04
880.20	227.04
880.51	227.04
880.82	227.04
881.12	227.05
881.43	227.01
881.74	226.99
882.05	227.02
882.36	226.99
882.67	226.98
882.97	226.87
883.28	226.84
883.59	226.82
883.90	226.83
884.21	226.87
884.51	226.87
884.82	226.85
885.13	226.84
885.44	226.82
885.74	226.80
886.05	226.78
886.36	226.76
886.67	226.74
886.98	226.75
887.28	226.81
887.59	226.81
887.90	226.80
888.20	226.80
888.51	226.80
888.82	226.77
889.13	226.77
889.43	226.86
889.74	226.89
890.05	226.87
890.35	226.86
890.66	226.81
890.97	226.80
891.28	226.80
891.58	226.83
891.89	226.83
892.20	226.85
892.50	226.87
892.81	226.87
893.12	226.87
893.42	226.84
893.73	226.82
894.04	226.79
894.34	226.81
894.65	226.82
894.95	226.81
895.26	226.81
895.57	226.85
895.87	226.78
896.18	226.77
896.48	226.77
896.79	226.79
897.10	226.83
897.40	226.82
897.71	226.86
898.01	226.84
898.32	226.88
898.63	226.86
898.93	226.86
899.24	226.86
899.54	226.87
899.85	226.86
900.15	226.85
900.46	226.87
900.76	226.89
901.07	226.88
901.38	226.88
901.68	226.94
901.99	226.90
902.29	226.90
902.60	226.93
902.90	226.94
903.21	226.94
903.51	226.89
903.82	226.92
904.12	226.94
904.43	226.96
904.73	226.92
905.03	226.92
905.34	227.03
905.64	227.03
905.95	227.05
906.25	227.05
906.56	227.08
906.86	227.08
907.17	227.06
907.47	227.06
907.77	227.07
908.08	227.01
908.38	227.02
908.69	227.04
908.99	227.02
909.30	227.02
909.60	227.00
909.90	227.02
910.21	227.01
910.51	226.98
910.81	226.95
911.12	226.97
911.42	227.01
911.73	226.91
912.03	226.92
912.33	226.89
912.64	226.89
912.94	226.84
913.24	226.84
913.55	226.83
913.85	226.87
914.15	226.87
914.46	226.87
914.76	226.88
915.06	226.86
915.37	226.84
915.67	226.85
915.97	226.89
916.27	226.90
916.58	226.88
916.88	226.89
917.18	226.90
917.49	226.98
917.79	226.96
918.09	226.97
918.39	226.99
918.70	227.00
919.00	226.99
919.30	227.03
919.60	226.99
919.91	226.98
920.21	226.93
920.51	226.94
920.81	226.94
921.12	226.94
921.42	226.92
921.72	226.91
922.02	226.87
922.32	226.82
922.63	226.84
922.93	226.89
923.23	226.86
923.53	226.83
923.83	226.75
924.13	226.74
924.44	226.72
924.74	226.74
925.04	226.73
925.34	226.74
925.64	226.70
925.94	226.74
926.24	226.79
926.55	226.81
926.85	226.79
927.15	226.77
927.45	226.81
927.75	226.82
928.05	226.85
928.35	226.87
928.65	226.90
928.95	226.86
929.26	226.80
929.56	226.81
929.86	226.82
930.16	226.79
930.46	226.79
930.76	226.79
931.06	226.73
931.36	226.74
931.66	226.77
931.96	226.81
932.26	226.82
932.56	226.78
932.86	226.83
933.16	226.84
933.46	226.89
933.76	226.84
934.06	226.84
934.36	226.90
934.66	226.90
934.96	226.91
935.26	226.93
935.56	226.97
935.86	226.97
936.16	226.97
936.46	226.97
936.76	226.96
937.06	226.94
937.36	226.97
937.66	226.96
937.96	226.96
938.26	226.94
938.56	226.94
938.86	226.95
939.16	226.96
939.46	226.96
939.76	226.94
940.06	226.94
940.35	226.94
940.65	226.88
940.95	226.92
941.25	226.91
941.55	226.90
941.85	226.89
942.15	226.90
942.45	226.93
942.75	226.93
943.04	226.94
943.34	226.99
943.64	226.98
943.94	226.98
944.24	226.97
944.54	226.96
944.84	226.92
945.13	226.91
945.43	226.87
945.73	226.87
946.03	226.85
946.33	226.85
946.62	226.81
946.92	226.81
947.22	226.78
947.52	226.76
947.82	226.79
948.11	226.78
948.41	226.79
948.71	226.77
949.01	226.77
949.31	226.78
949.60	226.75
949.90	226.76
950.20	226.74
950.50	226.72
950.79	226.74
951.09	226.78
951.39	226.77
951.69	226.77
951.98	226.78
952.28	226.80
952.58	226.79
952.87	226.81
953.17	226.80
953.47	226.78
953.76	226.79
954.06	226.76
954.36	226.72
954.66	226.69
954.95	226.70
955.25	226.72
955.55	226.70
955.84	226.71
956.14	226.73
956.44	226.72
956.73	226.69
957.03	226.66
957.32	226.63
957.62	226.64
957.92	226.63
958.21	226.60
958.51	226.67
958.81	226.68
959.10	226.68
959.40	226.66
959.69	226.68
959.99	226.69
960.29	226.69
960.58	226.71
960.88	226.75
961.17	226.74
961.47	226.71
961.76	226.72
962.06	226.72
962.36	226.68
962.65	226.68
962.95	226.68
963.24	226.66
963.54	226.66
963.83	226.65
964.13	226.66
964.42	226.62
964.72	226.56
965.01	226.54
965.31	226.53
965.60	226.53
965.90	226.60
966.19	226.58
966.49	226.57
966.78	226.53
967.08	226.53
967.37	226.51
967.67	226.50
967.96	226.52
968.26	226.50
968.55	226.53
968.85	226.56
969.14	226.58
969.43	226.61
969.73	226.62
970.02	226.63
970.32	226.61
970.61	226.62
970.91	226.61
971.20	226.61
971.49	226.62
971.79	226.67
972.08	226.60
972.38	226.63
972.67	226.64
972.96	226.69
973.26	226.67
973.55	226.74
973.85	226.77
974.14	226.75
974.43	226.78
974.73	226.75
975.02	226.72
975.31	226.74
975.61	226.75
975.90	226.77
976.19	226.77
976.49	226.76
976.78	226.80
977.07	226.80
977.37	226.86
977.66	226.90
977.95	226.88
978.24	226.92
978.54	226.92
978.83	226.92
979.12	226.90
979.42	226.91
979.71	226.89
980.00	226.87
980.29	226.87
980.59	226.87
980.88	226.91
981.17	226.93
981.46	226.91
981.76	226.92
982.05	226.91
982.34	226.90
982.63	226.93
982.93	226.91
983.22	226.92
983.51	226.87
983.80	226.87
984.09	226.88
984.39	226.82
984.68	226.82
984.97	226.83
985.26	226.83
985.55	226.82
985.85	226.81
986.14	226.80
986.43	226.82
986.72	226.80
987.01	226.78
987.30	226.77
987.59	226.78
987.89	226.78
988.18	226.75
988.47	226.73
988.76	226.70
989.05	226.69
989.34	226.69
989.63	226.71
989.92	226.70
990.22	226.68
990.51	226.70
990.80	226.69
991.09	226.67
991.38	226.69
991.67	226.72
991.96	226.69
992.25	226.70
992.54	226.66
992.83	226.66
993.12	226.66
993.41	226.67
993.70	226.70
993.99	226.69
994.28	226.68
994.58	226.70
994.87	226.71
995.16	226.70
995.45	226.65
995.74	226.64
996.03	226.64
996.32	226.61
996.61	226.61
996.90	226.62
997.19	226.63
997.48	226.60
997.77	226.55
998.06	226.55
998.34	226.53
998.63	226.53
998.92	226.54
999.21	226.53
999.50	226.54
999.79	226.49
1000.08	226.50
1000.37	226.55
1000.66	226.53
1000.95	226.55
1001.24	226.54
1001.53	226.59
1001.82	226.56
1002.11	226.56
1002.40	226.64
1002.68	226.68
1002.97	226.75
1003.26	226.71
1003.55	226.68
1003.84	226.72
1004.13	226.76
1004.42	226.79
1004.71	226.82
1004.99	226.84
1005.28	226.85
1005.57	226.85
1005.86	226.84
1006.15	226.85
1006.44	226.81
1006.72	226.84
1007.01	226.84
1007.30	226.83
1007.59	226.83
1007.88	226.85
1008.17	226.86
1008.45	226.82
1008.74	226.79
1009.03	226.74
1009.32	226.78
1009.60	226.79
1009.89	226.75
1010.18	226.72
1010.47	226.69
1010.76	226.67
1011.04	226.67
1011.33	226.72
1011.62	226.72
1011.91	226.73
1012.19	226.73
1012.48	226.72
1012.77	226.73
1013.05	226.76
1013.34	226.79
1013.63	226.77
1013.92	226.78
1014.20	226.75
1014.49	226.74
1014.78	226.73
1015.06	226.67
1015.35	226.69
1015.64	226.73
1015.92	226.77
1016.21	226.79
1016.50	226.80
1016.78	226.82
1017.07	226.82
1017.36	226.75
1017.64	226.73
1017.93	226.74
1018.22	226.72
1018.50	226.72
1018.79	226.73
1019.08	226.65
1019.36	226.63
1019.65	226.62
1019.93	226.61
1020.22	226.64
1020.51	226.68
1020.79	226.65
1021.08	226.30
1021.36	226.37
1021.65	226.95
1021.94	225.96
1022.22	226.42
1022.51	226.31
1022.79	226.51
1023.08	226.97
1023.36	227.52
1023.65	226.28
>>>>>End Processed Spectral Data<<<<<
