SpectraSuite Data File
++++++++++++++++++++++++++++++++++++
Date: Fri Feb 01 16:15:48 EST 2013
User: group
Dark Spectrum Present: No
Reference Spectrum Present: No
Number of Sampled Component Spectra: 1
Spectrometers: USB2E7196
Integration Time (usec): 35000 (USB2E7196)
Spectra Averaged: 100 (USB2E7196)
Boxcar Smoothing: 10 (USB2E7196)
Correct for Electrical Dark: No (USB2E7196)
Strobe/Lamp Enabled: No (USB2E7196)
Correct for Detector Non-linearity: No (USB2E7196)
Correct for Stray Light: No (USB2E7196)
Number of Pixels in Processed Spectrum: 2048
>>>>>Begin Processed Spectral Data<<<<<
339.09	0.00
339.48	214.48
339.86	215.91
340.24	217.15
340.63	218.18
341.01	221.14
341.39	220.50
341.78	223.08
342.16	223.23
342.54	224.17
342.93	212.49
343.31	223.25
343.69	223.78
344.07	224.21
344.46	224.63
344.84	224.99
345.22	225.23
345.60	225.48
345.99	225.63
346.37	225.76
346.75	225.84
347.13	225.90
347.52	225.94
347.90	225.98
348.28	225.99
348.66	226.02
349.05	225.97
349.43	226.01
349.81	226.02
350.19	226.08
350.57	226.17
350.96	226.23
351.34	226.29
351.72	226.33
352.10	226.43
352.48	226.48
352.87	226.55
353.25	226.57
353.63	226.62
354.01	226.67
354.39	226.78
354.77	226.86
355.15	226.96
355.54	227.05
355.92	227.11
356.30	227.20
356.68	227.37
357.06	227.48
357.44	227.51
357.82	227.59
358.20	227.66
358.58	227.73
358.97	227.78
359.35	227.88
359.73	227.99
360.11	228.03
360.49	228.12
360.87	228.17
361.25	228.23
361.63	228.33
362.01	228.39
362.39	228.39
362.77	228.45
363.15	228.49
363.53	228.52
363.91	228.52
364.29	228.54
364.67	228.43
365.05	228.43
365.43	228.48
365.81	228.50
366.19	228.53
366.57	228.56
366.95	228.58
367.33	228.54
367.71	228.52
368.09	228.56
368.47	228.52
368.85	228.52
369.23	228.56
369.61	228.53
369.99	228.54
370.37	228.54
370.75	228.57
371.13	228.55
371.51	228.49
371.89	228.48
372.27	228.43
372.65	228.41
373.03	228.37
373.41	228.33
373.78	228.28
374.16	228.19
374.54	228.14
374.92	228.06
375.30	228.00
375.68	227.95
376.06	227.88
376.44	227.82
376.82	227.76
377.19	227.71
377.57	227.63
377.95	227.53
378.33	227.49
378.71	227.34
379.09	227.27
379.47	227.22
379.84	227.16
380.22	227.11
380.60	227.02
380.98	226.94
381.36	226.89
381.73	226.82
382.11	226.79
382.49	226.72
382.87	226.66
383.25	226.59
383.62	226.62
384.00	226.54
384.38	226.50
384.76	226.46
385.13	226.41
385.51	226.35
385.89	226.30
386.27	226.23
386.64	226.20
387.02	226.12
387.40	226.08
387.78	226.05
388.15	226.00
388.53	225.96
388.91	225.94
389.29	225.88
389.66	225.87
390.04	225.79
390.42	225.76
390.79	225.75
391.17	225.73
391.55	225.62
391.92	225.61
392.30	225.60
392.68	225.56
393.05	225.57
393.43	225.57
393.81	225.56
394.18	225.55
394.56	225.58
394.94	225.62
395.31	225.63
395.69	225.66
396.06	225.66
396.44	225.69
396.82	225.70
397.19	225.80
397.57	225.82
397.95	225.88
398.32	225.88
398.70	225.91
399.07	225.98
399.45	226.04
399.82	226.10
400.20	226.13
400.58	226.19
400.95	226.20
401.33	226.28
401.70	226.41
402.08	226.50
402.45	226.57
402.83	226.68
403.20	226.76
403.58	226.85
403.95	227.04
404.33	227.16
404.71	227.32
405.08	227.48
405.46	227.60
405.83	227.78
406.21	227.98
406.58	228.15
406.96	228.25
407.33	228.41
407.70	228.60
408.08	228.87
408.45	229.10
408.83	229.38
409.20	229.63
409.58	229.79
409.95	230.05
410.33	230.32
410.70	230.57
411.08	230.87
411.45	231.23
411.82	231.49
412.20	231.83
412.57	232.25
412.95	232.52
413.32	232.95
413.69	233.38
414.07	233.80
414.44	234.29
414.82	234.82
415.19	235.40
415.56	235.95
415.94	236.54
416.31	237.18
416.68	237.77
417.06	238.49
417.43	239.18
417.81	239.98
418.18	240.76
418.55	241.62
418.93	242.49
419.30	243.34
419.67	244.30
420.04	245.25
420.42	246.20
420.79	247.40
421.16	248.53
421.54	249.74
421.91	250.96
422.28	252.22
422.66	253.57
423.03	254.88
423.40	256.19
423.77	257.62
424.15	259.01
424.52	260.48
424.89	262.06
425.26	263.60
425.64	265.00
426.01	266.59
426.38	268.22
426.75	269.88
427.13	271.61
427.50	273.39
427.87	275.29
428.24	277.19
428.61	278.91
428.99	280.88
429.36	282.93
429.73	284.94
430.10	286.93
430.47	288.95
430.85	291.05
431.22	293.28
431.59	295.59
431.96	297.86
432.33	300.36
432.70	302.70
433.08	305.51
433.45	308.17
433.82	310.77
434.19	313.66
434.56	316.48
434.93	319.09
435.30	321.70
435.68	324.60
436.05	327.39
436.42	330.19
436.79	332.68
437.16	335.40
437.53	338.22
437.90	341.03
438.27	343.76
438.64	346.57
439.01	349.17
439.38	351.41
439.75	353.54
440.13	356.01
440.50	358.36
440.87	360.19
441.24	362.12
441.61	364.28
441.98	365.75
442.35	367.56
442.72	369.44
443.09	371.28
443.46	372.22
443.83	372.78
444.20	373.30
444.57	374.12
444.94	374.38
445.31	374.72
445.68	375.07
446.05	375.17
446.42	374.79
446.79	374.37
447.16	373.89
447.53	373.58
447.90	372.45
448.27	371.31
448.64	369.76
449.01	368.64
449.37	366.68
449.74	364.79
450.11	362.54
450.48	360.06
450.85	357.50
451.22	355.37
451.59	353.35
451.96	351.42
452.33	348.83
452.70	346.46
453.07	343.67
453.43	340.79
453.80	338.00
454.17	335.36
454.54	332.82
454.91	330.13
455.28	327.45
455.65	324.94
456.02	322.51
456.38	320.35
456.75	317.70
457.12	315.46
457.49	313.24
457.86	311.06
458.23	309.25
458.59	307.24
458.96	305.20
459.33	303.34
459.70	301.42
460.07	299.90
460.43	298.20
460.80	296.60
461.17	295.15
461.54	293.70
461.91	292.27
462.27	290.84
462.64	289.65
463.01	288.34
463.38	287.10
463.74	285.72
464.11	284.56
464.48	283.52
464.85	282.40
465.21	281.56
465.58	280.66
465.95	279.56
466.32	278.63
466.68	277.71
467.05	276.86
467.42	276.03
467.78	275.10
468.15	274.26
468.52	273.58
468.88	272.75
469.25	271.97
469.62	271.34
469.98	270.68
470.35	270.00
470.72	269.37
471.08	268.70
471.45	268.17
471.82	267.63
472.18	267.05
472.55	266.62
472.92	266.11
473.28	265.66
473.65	265.21
474.02	264.76
474.38	264.43
474.75	264.08
475.11	263.72
475.48	263.46
475.85	263.20
476.21	263.00
476.58	262.82
476.94	262.70
477.31	262.52
477.67	262.39
478.04	262.31
478.41	262.28
478.77	262.32
479.14	262.25
479.50	262.28
479.87	262.36
480.23	262.45
480.60	262.48
480.96	262.55
481.33	262.75
481.69	262.96
482.06	263.09
482.42	263.32
482.79	263.59
483.15	263.94
483.52	264.35
483.88	264.66
484.25	265.05
484.61	265.46
484.98	265.92
485.34	266.47
485.71	267.09
486.07	267.66
486.44	268.24
486.80	268.96
487.17	269.67
487.53	270.50
487.90	271.31
488.26	272.29
488.62	273.28
488.99	274.24
489.35	275.29
489.72	276.50
490.08	277.68
490.44	278.91
490.81	280.22
491.17	281.56
491.54	283.07
491.90	284.59
492.26	286.25
492.63	288.02
492.99	289.79
493.36	291.66
493.72	293.72
494.08	295.80
494.45	298.07
494.81	300.45
495.17	302.82
495.54	305.43
495.90	308.12
496.26	310.90
496.63	313.91
496.99	317.03
497.35	320.24
497.72	323.70
498.08	327.22
498.44	330.93
498.80	334.82
499.17	338.86
499.53	343.04
499.89	347.43
500.26	351.90
500.62	356.55
500.98	361.50
501.34	366.64
501.71	371.97
502.07	377.38
502.43	383.04
502.79	388.93
503.16	394.99
503.52	401.21
503.88	407.68
504.24	414.32
504.60	421.25
504.97	428.48
505.33	435.80
505.69	443.51
506.05	451.32
506.41	459.25
506.78	467.42
507.14	475.82
507.50	484.61
507.86	493.61
508.22	502.84
508.59	511.97
508.95	521.53
509.31	531.39
509.67	541.48
510.03	551.71
510.39	562.21
510.75	573.00
511.12	583.98
511.48	595.27
511.84	606.66
512.20	618.10
512.56	629.92
512.92	642.07
513.28	654.47
513.64	666.87
514.00	679.50
514.37	692.41
514.73	705.47
515.09	718.39
515.45	731.71
515.81	745.26
516.17	759.36
516.53	773.45
516.89	787.65
517.25	801.86
517.61	816.26
517.97	830.78
518.33	845.20
518.69	859.92
519.05	874.83
519.41	890.04
519.77	905.51
520.13	921.09
520.49	936.38
520.85	951.73
521.21	967.49
521.57	983.70
521.93	999.35
522.29	1015.64
522.65	1031.83
523.01	1047.98
523.37	1064.07
523.73	1080.11
524.09	1096.25
524.45	1112.42
524.81	1129.02
525.17	1145.74
525.53	1162.56
525.89	1179.38
526.25	1196.15
526.61	1212.54
526.97	1229.21
527.33	1245.77
527.68	1262.28
528.04	1278.76
528.40	1295.27
528.76	1312.24
529.12	1328.84
529.48	1345.79
529.84	1361.83
530.20	1378.36
530.56	1395.32
530.91	1412.56
531.27	1429.37
531.63	1445.67
531.99	1462.17
532.35	1477.95
532.71	1493.88
533.07	1510.11
533.42	1525.93
533.78	1542.01
534.14	1558.22
534.50	1573.53
534.86	1589.39
535.21	1604.44
535.57	1620.35
535.93	1635.75
536.29	1650.43
536.65	1665.43
537.00	1680.08
537.36	1695.26
537.72	1709.86
538.08	1724.26
538.44	1738.03
538.79	1751.80
539.15	1765.43
539.51	1779.04
539.87	1793.49
540.22	1807.13
540.58	1820.71
540.94	1833.93
541.29	1846.78
541.65	1859.39
542.01	1872.46
542.37	1884.64
542.72	1897.01
543.08	1908.57
543.44	1920.86
543.79	1932.12
544.15	1943.00
544.51	1954.59
544.87	1965.62
545.22	1976.33
545.58	1986.42
545.94	1996.22
546.29	2005.94
546.65	2015.74
547.01	2025.13
547.36	2033.60
547.72	2042.14
548.07	2049.90
548.43	2058.15
548.79	2066.10
549.14	2073.67
549.50	2081.05
549.86	2088.64
550.21	2095.90
550.57	2103.29
550.92	2109.89
551.28	2116.97
551.64	2124.14
551.99	2130.52
552.35	2136.61
552.70	2142.89
553.06	2148.98
553.41	2155.22
553.77	2161.28
554.13	2167.34
554.48	2173.39
554.84	2178.96
555.19	2184.25
555.55	2189.66
555.90	2194.11
556.26	2198.91
556.61	2203.52
556.97	2207.83
557.32	2212.06
557.68	2216.12
558.03	2220.19
558.39	2223.92
558.74	2228.54
559.10	2232.21
559.45	2235.89
559.81	2240.13
560.16	2243.88
560.52	2246.90
560.87	2250.29
561.23	2252.91
561.58	2255.87
561.94	2258.40
562.29	2260.74
562.64	2263.26
563.00	2265.75
563.35	2269.21
563.71	2272.35
564.06	2275.62
564.42	2278.50
564.77	2280.88
565.12	2283.35
565.48	2285.35
565.83	2287.23
566.19	2288.42
566.54	2289.32
566.89	2290.54
567.25	2291.16
567.60	2292.39
567.96	2294.17
568.31	2295.09
568.66	2296.28
569.02	2296.90
569.37	2297.36
569.72	2298.30
570.08	2298.58
570.43	2298.72
570.78	2298.22
571.14	2296.75
571.49	2295.38
571.84	2295.05
572.20	2294.05
572.55	2292.93
572.90	2291.46
573.26	2290.27
573.61	2288.74
573.96	2287.11
574.31	2284.22
574.67	2281.37
575.02	2277.89
575.37	2274.61
575.72	2270.88
576.08	2267.57
576.43	2264.27
576.78	2260.48
577.13	2257.35
577.49	2254.09
577.84	2250.63
578.19	2246.93
578.54	2243.37
578.90	2239.24
579.25	2233.63
579.60	2228.66
579.95	2223.59
580.30	2218.65
580.66	2213.37
581.01	2208.35
581.36	2203.38
581.71	2199.17
582.06	2194.77
582.42	2190.23
582.77	2185.00
583.12	2180.54
583.47	2175.90
583.82	2170.92
584.17	2165.82
584.53	2160.29
584.88	2154.88
585.23	2149.06
585.58	2143.71
585.93	2138.26
586.28	2133.52
586.63	2128.63
586.98	2123.67
587.34	2119.08
587.69	2114.10
588.04	2108.85
588.39	2103.24
588.74	2096.95
589.09	2090.92
589.44	2084.15
589.79	2078.21
590.14	2072.73
590.49	2066.12
590.84	2059.81
591.19	2053.82
591.54	2047.37
591.89	2040.12
592.25	2033.18
592.60	2026.03
592.95	2018.41
593.30	2011.20
593.65	2003.61
594.00	1996.49
594.35	1989.27
594.70	1981.26
595.05	1974.26
595.40	1967.03
595.75	1959.59
596.10	1953.39
596.45	1946.63
596.80	1940.48
597.15	1933.94
597.50	1926.77
597.85	1920.27
598.19	1913.67
598.54	1906.64
598.89	1900.00
599.24	1894.18
599.59	1887.75
599.94	1881.62
600.29	1875.38
600.64	1868.66
600.99	1861.37
601.34	1854.66
601.69	1847.82
602.04	1841.07
602.39	1833.60
602.74	1826.78
603.08	1820.06
603.43	1813.35
603.78	1806.10
604.13	1798.88
604.48	1791.49
604.83	1784.60
605.18	1777.74
605.53	1769.72
605.87	1761.79
606.22	1754.59
606.57	1746.57
606.92	1739.17
607.27	1731.87
607.62	1724.87
607.96	1717.65
608.31	1710.87
608.66	1703.28
609.01	1695.68
609.36	1688.09
609.70	1680.13
610.05	1672.19
610.40	1664.42
610.75	1656.04
611.10	1648.39
611.44	1640.02
611.79	1632.14
612.14	1623.55
612.49	1614.30
612.83	1605.84
613.18	1597.60
613.53	1589.50
613.88	1580.99
614.22	1572.70
614.57	1564.13
614.92	1555.99
615.27	1548.48
615.61	1540.25
615.96	1532.03
616.31	1524.23
616.65	1516.86
617.00	1509.25
617.35	1501.48
617.70	1493.22
618.04	1484.72
618.39	1476.47
618.74	1468.73
619.08	1460.35
619.43	1452.70
619.78	1445.86
620.12	1438.66
620.47	1431.14
620.82	1422.99
621.16	1415.49
621.51	1407.89
621.85	1400.23
622.20	1391.77
622.55	1383.47
622.89	1375.62
623.24	1368.07
623.59	1360.74
623.93	1353.19
624.28	1345.99
624.62	1338.53
624.97	1331.31
625.32	1324.65
625.66	1317.61
626.01	1310.54
626.35	1303.12
626.70	1295.47
627.04	1287.71
627.39	1279.84
627.73	1272.49
628.08	1265.53
628.43	1258.25
628.77	1250.86
629.12	1243.37
629.46	1236.18
629.81	1228.61
630.15	1221.43
630.50	1214.05
630.84	1205.86
631.19	1197.91
631.53	1190.29
631.88	1182.68
632.22	1175.15
632.57	1167.82
632.91	1160.29
633.26	1152.85
633.60	1145.51
633.95	1138.37
634.29	1131.31
634.64	1124.86
634.98	1117.41
635.32	1110.19
635.67	1103.64
636.01	1097.08
636.36	1090.19
636.70	1083.72
637.05	1077.12
637.39	1070.56
637.73	1064.05
638.08	1058.15
638.42	1052.16
638.77	1045.83
639.11	1039.23
639.45	1032.72
639.80	1025.98
640.14	1019.56
640.49	1013.07
640.83	1006.68
641.17	1000.44
641.52	994.03
641.86	987.47
642.20	981.64
642.55	975.35
642.89	968.82
643.23	962.15
643.58	956.50
643.92	950.31
644.26	944.24
644.61	938.21
644.95	932.21
645.29	925.63
645.64	918.89
645.98	912.48
646.32	906.66
646.66	900.67
647.01	894.88
647.35	889.08
647.69	883.13
648.04	877.66
648.38	871.81
648.72	865.99
649.06	859.98
649.41	854.19
649.75	848.25
650.09	842.33
650.43	836.55
650.78	830.37
651.12	824.39
651.46	818.73
651.80	812.96
652.14	807.53
652.49	802.11
652.83	796.97
653.17	791.25
653.51	785.51
653.85	780.18
654.20	774.53
654.54	768.58
654.88	762.83
655.22	756.91
655.56	751.20
655.90	745.64
656.25	740.31
656.59	734.88
656.93	729.84
657.27	724.72
657.61	719.31
657.95	714.17
658.29	709.07
658.64	703.73
658.98	698.46
659.32	693.06
659.66	687.90
660.00	682.57
660.34	677.64
660.68	672.77
661.02	667.64
661.36	662.92
661.70	658.44
662.05	654.09
662.39	649.78
662.73	645.38
663.07	641.03
663.41	636.60
663.75	632.13
664.09	627.54
664.43	623.20
664.77	619.01
665.11	614.77
665.45	610.66
665.79	606.64
666.13	602.47
666.47	598.35
666.81	594.15
667.15	590.04
667.49	586.13
667.83	582.28
668.17	578.37
668.51	574.27
668.85	570.28
669.19	566.45
669.53	562.56
669.87	558.64
670.21	554.93
670.55	551.33
670.89	547.94
671.23	544.47
671.57	540.85
671.91	537.37
672.25	533.89
672.58	530.34
672.92	526.97
673.26	523.79
673.60	520.61
673.94	517.58
674.28	514.67
674.62	511.76
674.96	508.66
675.30	505.80
675.64	502.82
675.97	500.00
676.31	497.17
676.65	494.26
676.99	491.58
677.33	488.76
677.67	485.93
678.01	482.81
678.34	479.87
678.68	477.01
679.02	474.18
679.36	471.40
679.70	468.72
680.04	465.94
680.37	463.10
680.71	460.27
681.05	457.61
681.39	454.88
681.73	452.20
682.06	449.64
682.40	447.05
682.74	444.58
683.08	442.05
683.42	439.41
683.75	436.89
684.09	434.33
684.43	431.82
684.77	429.31
685.10	427.00
685.44	424.67
685.78	422.37
686.12	420.10
686.45	417.77
686.79	415.50
687.13	413.29
687.46	411.15
687.80	409.03
688.14	406.80
688.48	404.74
688.81	402.48
689.15	400.35
689.49	398.20
689.82	396.12
690.16	394.02
690.50	392.12
690.83	390.18
691.17	388.18
691.51	386.28
691.84	384.43
692.18	382.45
692.52	380.49
692.85	378.53
693.19	376.67
693.52	374.84
693.86	373.06
694.20	371.26
694.53	369.42
694.87	367.57
695.21	365.80
695.54	363.94
695.88	362.21
696.21	360.46
696.55	358.75
696.88	357.03
697.22	355.37
697.56	353.72
697.89	352.07
698.23	350.47
698.56	348.83
698.90	347.26
699.23	345.63
699.57	344.10
699.90	342.59
700.24	341.03
700.58	339.52
700.91	338.01
701.25	336.59
701.58	335.26
701.92	333.88
702.25	332.50
702.59	331.16
702.92	329.82
703.26	328.56
703.59	327.30
703.93	326.14
704.26	324.89
704.60	323.62
704.93	322.33
705.26	321.10
705.60	319.94
705.93	318.77
706.27	317.75
706.60	316.70
706.94	315.62
707.27	314.49
707.61	313.43
707.94	312.38
708.27	311.30
708.61	310.18
708.94	309.16
709.28	308.17
709.61	307.23
709.94	306.28
710.28	305.25
710.61	304.27
710.95	303.20
711.28	302.29
711.61	301.31
711.95	300.42
712.28	299.49
712.61	298.52
712.95	297.62
713.28	296.75
713.61	295.80
713.95	294.93
714.28	294.09
714.61	293.24
714.95	292.39
715.28	291.51
715.61	290.64
715.95	289.81
716.28	288.96
716.61	288.09
716.95	287.26
717.28	286.53
717.61	285.79
717.94	285.04
718.28	284.24
718.61	283.53
718.94	282.84
719.27	282.19
719.61	281.53
719.94	280.85
720.27	280.12
720.60	279.49
720.94	278.86
721.27	278.27
721.60	277.66
721.93	277.02
722.27	276.48
722.60	275.91
722.93	275.33
723.26	274.79
723.59	274.25
723.93	273.71
724.26	273.15
724.59	272.56
724.92	272.06
725.25	271.58
725.59	271.06
725.92	270.52
726.25	269.94
726.58	269.45
726.91	268.95
727.24	268.46
727.57	267.99
727.91	267.45
728.24	266.98
728.57	266.50
728.90	266.07
729.23	265.57
729.56	265.14
729.89	264.67
730.22	264.20
730.55	263.72
730.89	263.28
731.22	262.82
731.55	262.37
731.88	261.91
732.21	261.47
732.54	261.06
732.87	260.60
733.20	260.25
733.53	259.84
733.86	259.45
734.19	259.02
734.52	258.65
734.85	258.33
735.18	257.90
735.51	257.51
735.84	257.15
736.17	256.81
736.50	256.41
736.83	256.18
737.16	255.84
737.49	255.54
737.82	255.20
738.15	254.88
738.48	254.59
738.81	254.29
739.14	253.95
739.47	253.65
739.80	253.39
740.13	253.08
740.46	252.75
740.79	252.44
741.12	252.16
741.45	251.81
741.78	251.50
742.11	251.24
742.44	250.91
742.77	250.64
743.10	250.32
743.43	250.03
743.75	249.66
744.08	249.54
744.41	249.22
744.74	248.97
745.07	248.68
745.40	248.43
745.73	248.19
746.06	247.93
746.39	247.66
746.71	247.36
747.04	247.06
747.37	246.86
747.70	246.62
748.03	246.36
748.36	246.15
748.68	245.89
749.01	245.62
749.34	245.44
749.67	245.20
750.00	244.99
750.33	244.81
750.65	244.61
750.98	244.24
751.31	244.04
751.64	243.80
751.97	243.63
752.29	243.43
752.62	243.18
752.95	243.00
753.28	242.73
753.60	242.54
753.93	242.33
754.26	242.11
754.59	241.86
754.91	241.67
755.24	241.46
755.57	241.28
755.90	241.11
756.22	240.91
756.55	240.70
756.88	240.53
757.20	240.31
757.53	240.08
757.86	239.88
758.19	239.73
758.51	239.55
758.84	239.33
759.17	239.13
759.49	238.96
759.82	238.81
760.15	238.72
760.47	238.59
760.80	238.46
761.13	238.31
761.45	238.20
761.78	238.02
762.11	237.87
762.43	237.73
762.76	237.59
763.08	237.43
763.41	237.27
763.74	237.11
764.06	236.98
764.39	236.86
764.71	236.75
765.04	236.63
765.37	236.50
765.69	236.37
766.02	236.25
766.34	236.12
766.67	235.94
767.00	235.81
767.32	235.72
767.65	235.68
767.97	235.56
768.30	235.45
768.62	235.36
768.95	235.25
769.27	235.13
769.60	235.03
769.92	234.93
770.25	234.82
770.57	234.71
770.90	234.59
771.22	234.46
771.55	234.38
771.87	234.27
772.20	234.18
772.52	234.18
772.85	234.20
773.17	234.11
773.50	234.06
773.82	233.96
774.15	233.79
774.47	233.63
774.80	233.51
775.12	233.40
775.45	233.32
775.77	233.28
776.09	233.20
776.42	233.12
776.74	233.07
777.07	233.00
777.39	232.96
777.72	232.88
778.04	232.84
778.36	232.78
778.69	232.71
779.01	232.66
779.33	232.50
779.66	232.31
779.98	232.21
780.31	232.14
780.63	232.11
780.95	232.11
781.28	232.01
781.60	231.91
781.92	231.89
782.25	231.81
782.57	231.71
782.89	231.64
783.22	231.56
783.54	231.47
783.86	231.46
784.19	231.37
784.51	231.35
784.83	231.26
785.16	231.21
785.48	231.12
785.80	231.02
786.12	230.98
786.45	230.94
786.77	230.93
787.09	230.88
787.42	230.80
787.74	230.75
788.06	230.75
788.38	230.74
788.71	230.67
789.03	230.64
789.35	230.62
789.67	230.58
789.99	230.55
790.32	230.50
790.64	230.46
790.96	230.53
791.28	230.44
791.61	230.40
791.93	230.35
792.25	230.34
792.57	230.37
792.89	230.31
793.21	230.27
793.54	230.22
793.86	230.16
794.18	230.09
794.50	230.06
794.82	230.00
795.14	229.97
795.47	229.93
795.79	229.89
796.11	229.86
796.43	229.80
796.75	229.77
797.07	229.74
797.39	229.72
797.71	229.59
798.04	229.59
798.36	229.56
798.68	229.51
799.00	229.50
799.32	229.44
799.64	229.44
799.96	229.42
800.28	229.41
800.60	229.38
800.92	229.38
801.24	229.32
801.56	229.29
801.89	229.26
802.21	229.25
802.53	229.20
802.85	229.17
803.17	229.19
803.49	229.13
803.81	229.08
804.13	229.01
804.45	228.98
804.77	228.94
805.09	228.92
805.41	228.88
805.73	228.87
806.05	228.81
806.37	228.75
806.69	228.68
807.01	228.65
807.33	228.65
807.65	228.57
807.97	228.58
808.28	228.55
808.60	228.52
808.92	228.44
809.24	228.47
809.56	228.43
809.88	228.39
810.20	228.37
810.52	228.37
810.84	228.35
811.16	228.33
811.48	228.31
811.80	228.30
812.12	228.27
812.43	228.24
812.75	228.20
813.07	228.18
813.39	228.16
813.71	228.11
814.03	228.03
814.35	228.02
814.67	227.98
814.98	227.95
815.30	227.94
815.62	227.94
815.94	227.86
816.26	227.87
816.58	227.83
816.89	227.82
817.21	227.75
817.53	227.72
817.85	227.70
818.17	227.68
818.48	227.62
818.80	227.67
819.12	227.63
819.44	227.58
819.76	227.56
820.07	227.55
820.39	227.55
820.71	227.56
821.03	227.55
821.34	227.51
821.66	227.50
821.98	227.48
822.30	227.47
822.61	227.50
822.93	227.44
823.25	227.40
823.57	227.39
823.88	227.42
824.20	227.40
824.52	227.41
824.83	227.41
825.15	227.39
825.47	227.37
825.79	227.37
826.10	227.40
826.42	227.38
826.74	227.37
827.05	227.35
827.37	227.37
827.69	227.38
828.00	227.38
828.32	227.38
828.64	227.38
828.95	227.43
829.27	227.40
829.58	227.43
829.90	227.49
830.22	227.49
830.53	227.47
830.85	227.46
831.17	227.44
831.48	227.45
831.80	227.44
832.11	227.40
832.43	227.37
832.75	227.37
833.06	227.42
833.38	227.42
833.69	227.40
834.01	227.38
834.32	227.37
834.64	227.35
834.96	227.34
835.27	227.33
835.59	227.29
835.90	227.29
836.22	227.27
836.53	227.23
836.85	227.24
837.16	227.33
837.48	227.33
837.79	227.35
838.11	227.32
838.42	227.34
838.74	227.36
839.05	227.35
839.37	227.33
839.68	227.27
840.00	227.24
840.31	227.24
840.63	227.22
840.94	227.20
841.26	227.17
841.57	227.18
841.88	227.15
842.20	227.10
842.51	227.11
842.83	227.10
843.14	227.17
843.46	227.17
843.77	227.10
844.08	227.12
844.40	227.08
844.71	227.07
845.03	227.03
845.34	227.00
845.65	227.00
845.97	227.02
846.28	227.01
846.60	227.01
846.91	226.98
847.22	227.00
847.54	227.02
847.85	227.01
848.16	226.97
848.48	226.99
848.79	227.03
849.10	226.96
849.42	226.93
849.73	226.84
850.04	226.81
850.36	226.76
850.67	226.76
850.98	226.75
851.30	226.75
851.61	226.75
851.92	226.72
852.23	226.77
852.55	226.76
852.86	226.78
853.17	226.77
853.49	226.80
853.80	226.80
854.11	226.78
854.42	226.77
854.74	226.76
855.05	226.74
855.36	226.69
855.67	226.69
855.99	226.71
856.30	226.80
856.61	226.78
856.92	226.76
857.23	226.68
857.55	226.65
857.86	226.60
858.17	226.61
858.48	226.63
858.79	226.57
859.11	226.56
859.42	226.52
859.73	226.52
860.04	226.54
860.35	226.51
860.66	226.50
860.98	226.51
861.29	226.52
861.60	226.49
861.91	226.50
862.22	226.48
862.53	226.48
862.84	226.37
863.16	226.41
863.47	226.42
863.78	226.47
864.09	226.50
864.40	226.54
864.71	226.54
865.02	226.51
865.33	226.45
865.64	226.41
865.95	226.41
866.27	226.45
866.58	226.43
866.89	226.42
867.20	226.42
867.51	226.40
867.82	226.41
868.13	226.47
868.44	226.46
868.75	226.48
869.06	226.48
869.37	226.47
869.68	226.40
869.99	226.42
870.30	226.41
870.61	226.42
870.92	226.39
871.23	226.38
871.54	226.42
871.85	226.47
872.16	226.50
872.47	226.51
872.78	226.48
873.09	226.45
873.40	226.44
873.71	226.42
874.02	226.46
874.33	226.43
874.64	226.39
874.95	226.43
875.26	226.43
875.56	226.42
875.87	226.43
876.18	226.48
876.49	226.54
876.80	226.56
877.11	226.55
877.42	226.56
877.73	226.58
878.04	226.56
878.35	226.60
878.66	226.62
878.96	226.58
879.27	226.57
879.58	226.61
879.89	226.62
880.20	226.65
880.51	226.63
880.82	226.63
881.12	226.64
881.43	226.60
881.74	226.60
882.05	226.59
882.36	226.61
882.67	226.58
882.97	226.50
883.28	226.44
883.59	226.40
883.90	226.41
884.21	226.42
884.51	226.41
884.82	226.36
885.13	226.33
885.44	226.35
885.74	226.37
886.05	226.34
886.36	226.33
886.67	226.32
886.98	226.38
887.28	226.39
887.59	226.41
887.90	226.40
888.20	226.39
888.51	226.44
888.82	226.45
889.13	226.44
889.43	226.54
889.74	226.56
890.05	226.60
890.35	226.58
890.66	226.57
890.97	226.55
891.28	226.54
891.58	226.58
891.89	226.57
892.20	226.54
892.50	226.50
892.81	226.50
893.12	226.47
893.42	226.38
893.73	226.37
894.04	226.33
894.34	226.32
894.65	226.25
894.95	226.21
895.26	226.19
895.57	226.24
895.87	226.12
896.18	226.11
896.48	226.10
896.79	226.11
897.10	226.11
897.40	226.12
897.71	226.16
898.01	226.13
898.32	226.13
898.63	226.14
898.93	226.15
899.24	226.15
899.54	226.18
899.85	226.18
900.15	226.19
900.46	226.21
900.76	226.22
901.07	226.25
901.38	226.24
901.68	226.25
901.99	226.22
902.29	226.19
902.60	226.18
902.90	226.18
903.21	226.14
903.51	226.14
903.82	226.15
904.12	226.12
904.43	226.11
904.73	226.09
905.03	226.08
905.34	226.20
905.64	226.19
905.95	226.17
906.25	226.17
906.56	226.16
906.86	226.17
907.17	226.16
907.47	226.21
907.77	226.20
908.08	226.17
908.38	226.18
908.69	226.23
908.99	226.23
909.30	226.23
909.60	226.25
909.90	226.23
910.21	226.20
910.51	226.20
910.81	226.22
911.12	226.25
911.42	226.28
911.73	226.18
912.03	226.20
912.33	226.23
912.64	226.25
912.94	226.22
913.24	226.20
913.55	226.22
913.85	226.20
914.15	226.19
914.46	226.21
914.76	226.19
915.06	226.16
915.37	226.16
915.67	226.17
915.97	226.17
916.27	226.13
916.58	226.17
916.88	226.14
917.18	226.13
917.49	226.19
917.79	226.15
918.09	226.18
918.39	226.19
918.70	226.14
919.00	226.13
919.30	226.22
919.60	226.22
919.91	226.18
920.21	226.19
920.51	226.21
920.81	226.21
921.12	226.24
921.42	226.24
921.72	226.25
922.02	226.25
922.32	226.28
922.63	226.30
922.93	226.33
923.23	226.35
923.53	226.33
923.83	226.26
924.13	226.30
924.44	226.27
924.74	226.29
925.04	226.34
925.34	226.35
925.64	226.29
925.94	226.29
926.24	226.33
926.55	226.31
926.85	226.33
927.15	226.32
927.45	226.31
927.75	226.30
928.05	226.32
928.35	226.29
928.65	226.28
928.95	226.30
929.26	226.26
929.56	226.31
929.86	226.31
930.16	226.32
930.46	226.28
930.76	226.29
931.06	226.21
931.36	226.19
931.66	226.19
931.96	226.21
932.26	226.19
932.56	226.15
932.86	226.17
933.16	226.16
933.46	226.14
933.76	226.11
934.06	226.13
934.36	226.12
934.66	226.11
934.96	226.12
935.26	226.11
935.56	226.12
935.86	226.08
936.16	226.09
936.46	226.06
936.76	226.06
937.06	226.05
937.36	226.09
937.66	226.06
937.96	226.05
938.26	226.02
938.56	225.99
938.86	225.99
939.16	225.99
939.46	225.97
939.76	225.99
940.06	225.98
940.35	225.99
940.65	225.95
940.95	225.97
941.25	225.94
941.55	225.92
941.85	225.90
942.15	225.89
942.45	225.89
942.75	225.90
943.04	225.90
943.34	225.91
943.64	225.89
943.94	225.88
944.24	225.88
944.54	225.90
944.84	225.92
945.13	225.94
945.43	225.91
945.73	225.92
946.03	225.92
946.33	225.91
946.62	225.84
946.92	225.82
947.22	225.83
947.52	225.82
947.82	225.83
948.11	225.82
948.41	225.80
948.71	225.77
949.01	225.77
949.31	225.76
949.60	225.75
949.90	225.78
950.20	225.76
950.50	225.76
950.79	225.73
951.09	225.75
951.39	225.72
951.69	225.70
951.98	225.71
952.28	225.70
952.58	225.70
952.87	225.72
953.17	225.75
953.47	225.72
953.76	225.72
954.06	225.71
954.36	225.70
954.66	225.73
954.95	225.76
955.25	225.79
955.55	225.81
955.84	225.80
956.14	225.79
956.44	225.79
956.73	225.79
957.03	225.81
957.32	225.81
957.62	225.83
957.92	225.87
958.21	225.89
958.51	226.06
958.81	226.10
959.10	226.12
959.40	226.14
959.69	226.16
959.99	226.20
960.29	226.21
960.58	226.19
960.88	226.23
961.17	226.21
961.47	226.19
961.76	226.16
962.06	226.18
962.36	226.17
962.65	226.19
962.95	226.22
963.24	226.20
963.54	226.21
963.83	226.23
964.13	226.22
964.42	226.16
964.72	226.05
965.01	226.02
965.31	226.01
965.60	225.99
965.90	226.05
966.19	226.03
966.49	226.02
966.78	226.06
967.08	226.04
967.37	226.04
967.67	226.05
967.96	226.07
968.26	226.05
968.55	226.06
968.85	226.09
969.14	226.05
969.43	226.06
969.73	226.03
970.02	226.02
970.32	226.00
970.61	226.04
970.91	226.00
971.20	225.98
971.49	225.99
971.79	225.98
972.08	225.91
972.38	225.89
972.67	225.92
972.96	225.91
973.26	225.88
973.55	225.91
973.85	225.91
974.14	225.88
974.43	225.90
974.73	225.88
975.02	225.84
975.31	225.87
975.61	225.88
975.90	225.92
976.19	225.92
976.49	225.93
976.78	225.92
977.07	225.92
977.37	225.93
977.66	225.96
977.95	225.98
978.24	226.04
978.54	226.05
978.83	226.00
979.12	226.05
979.42	226.05
979.71	226.04
980.00	226.03
980.29	226.06
980.59	226.03
980.88	226.08
981.17	226.08
981.46	226.09
981.76	226.04
982.05	226.06
982.34	226.04
982.63	226.03
982.93	226.02
983.22	226.03
983.51	226.05
983.80	226.05
984.09	226.06
984.39	226.03
984.68	226.04
984.97	226.07
985.26	225.98
985.55	226.01
985.85	226.00
986.14	226.00
986.43	225.99
986.72	226.00
987.01	225.96
987.30	225.94
987.59	225.93
987.89	225.95
988.18	225.89
988.47	225.91
988.76	225.91
989.05	225.88
989.34	225.87
989.63	225.92
989.92	225.90
990.22	225.87
990.51	225.86
990.80	225.84
991.09	225.89
991.38	225.93
991.67	225.91
991.96	225.90
992.25	225.92
992.54	225.92
992.83	225.92
993.12	225.91
993.41	225.95
993.70	226.00
993.99	225.99
994.28	226.03
994.58	226.03
994.87	226.04
995.16	226.08
995.45	226.04
995.74	225.97
996.03	225.94
996.32	225.97
996.61	225.99
996.90	225.99
997.19	225.97
997.48	225.95
997.77	225.97
998.06	225.97
998.34	225.94
998.63	225.95
998.92	225.93
999.21	225.96
999.50	225.96
999.79	225.90
1000.08	225.92
1000.37	225.90
1000.66	225.88
1000.95	225.89
1001.24	225.87
1001.53	225.90
1001.82	225.92
1002.11	225.93
1002.40	225.91
1002.68	225.91
1002.97	225.98
1003.26	225.96
1003.55	225.95
1003.84	225.92
1004.13	225.95
1004.42	226.00
1004.71	225.99
1004.99	225.97
1005.28	225.97
1005.57	225.96
1005.86	225.96
1006.15	225.95
1006.44	225.95
1006.72	225.99
1007.01	225.98
1007.30	225.99
1007.59	226.00
1007.88	226.02
1008.17	226.03
1008.45	226.05
1008.74	226.04
1009.03	225.99
1009.32	226.02
1009.60	226.03
1009.89	226.02
1010.18	225.97
1010.47	225.94
1010.76	225.96
1011.04	225.95
1011.33	225.96
1011.62	225.98
1011.91	226.01
1012.19	226.02
1012.48	226.04
1012.77	226.02
1013.05	226.09
1013.34	226.07
1013.63	226.09
1013.92	226.07
1014.20	226.08
1014.49	226.06
1014.78	226.03
1015.06	226.01
1015.35	225.98
1015.64	225.98
1015.92	226.00
1016.21	226.03
1016.50	226.03
1016.78	226.04
1017.07	226.08
1017.36	226.05
1017.64	226.03
1017.93	226.03
1018.22	226.01
1018.50	226.01
1018.79	225.98
1019.08	225.91
1019.36	225.94
1019.65	225.90
1019.93	225.91
1020.22	225.92
1020.51	225.98
1020.79	225.97
1021.08	225.70
1021.36	226.16
1021.65	225.47
1021.94	225.90
1022.22	226.02
1022.51	225.48
1022.79	226.08
1023.08	226.41
1023.36	227.24
1023.65	225.47
>>>>>End Processed Spectral Data<<<<<
