SpectraSuite Data File
++++++++++++++++++++++++++++++++++++
Date: Fri Feb 01 17:21:35 EST 2013
User: group
Dark Spectrum Present: No
Reference Spectrum Present: No
Number of Sampled Component Spectra: 1
Spectrometers: USB2E7196
Integration Time (usec): 35000 (USB2E7196)
Spectra Averaged: 100 (USB2E7196)
Boxcar Smoothing: 10 (USB2E7196)
Correct for Electrical Dark: No (USB2E7196)
Strobe/Lamp Enabled: No (USB2E7196)
Correct for Detector Non-linearity: No (USB2E7196)
Correct for Stray Light: No (USB2E7196)
Number of Pixels in Processed Spectrum: 2048
>>>>>Begin Processed Spectral Data<<<<<
339.09	0.00
339.48	212.84
339.86	214.18
340.24	215.69
340.63	217.43
341.01	219.88
341.39	219.88
341.78	220.54
342.16	222.26
342.54	223.21
342.93	211.14
343.31	221.81
343.69	222.33
344.07	222.82
344.46	223.23
344.84	223.59
345.22	223.81
345.60	224.06
345.99	224.26
346.37	224.36
346.75	224.45
347.13	224.51
347.52	224.53
347.90	224.61
348.28	224.63
348.66	224.68
349.05	224.68
349.43	224.75
349.81	224.76
350.19	224.81
350.57	224.89
350.96	224.99
351.34	225.10
351.72	225.21
352.10	225.30
352.48	225.38
352.87	225.45
353.25	225.54
353.63	225.60
354.01	225.68
354.39	225.78
354.77	225.86
355.15	225.96
355.54	226.06
355.92	226.13
356.30	226.23
356.68	226.35
357.06	226.47
357.44	226.51
357.82	226.60
358.20	226.69
358.58	226.76
358.97	226.84
359.35	226.93
359.73	227.01
360.11	227.05
360.49	227.12
360.87	227.18
361.25	227.27
361.63	227.36
362.01	227.43
362.39	227.51
362.77	227.56
363.15	227.62
363.53	227.66
363.91	227.71
364.29	227.82
364.67	227.78
365.05	227.79
365.43	227.84
365.81	227.87
366.19	227.94
366.57	227.97
366.95	227.95
367.33	227.88
367.71	227.87
368.09	227.90
368.47	227.92
368.85	227.93
369.23	227.91
369.61	227.85
369.99	227.87
370.37	227.83
370.75	227.89
371.13	227.84
371.51	227.80
371.89	227.76
372.27	227.67
372.65	227.63
373.03	227.62
373.41	227.58
373.78	227.54
374.16	227.39
374.54	227.35
374.92	227.31
375.30	227.29
375.68	227.22
376.06	227.14
376.44	227.06
376.82	226.98
377.19	226.91
377.57	226.84
377.95	226.74
378.33	226.67
378.71	226.50
379.09	226.44
379.47	226.39
379.84	226.32
380.22	226.28
380.60	226.18
380.98	226.09
381.36	225.99
381.73	225.90
382.11	225.91
382.49	225.80
382.87	225.71
383.25	225.64
383.62	225.70
384.00	225.65
384.38	225.60
384.76	225.57
385.13	225.55
385.51	225.48
385.89	225.41
386.27	225.35
386.64	225.28
387.02	225.17
387.40	225.08
387.78	225.02
388.15	224.96
388.53	224.88
388.91	224.83
389.29	224.77
389.66	224.75
390.04	224.65
390.42	224.62
390.79	224.58
391.17	224.52
391.55	224.41
391.92	224.38
392.30	224.35
392.68	224.29
393.05	224.25
393.43	224.22
393.81	224.21
394.18	224.19
394.56	224.25
394.94	224.31
395.31	224.30
395.69	224.35
396.06	224.36
396.44	224.44
396.82	224.45
397.19	224.55
397.57	224.56
397.95	224.63
398.32	224.65
398.70	224.71
399.07	224.79
399.45	224.82
399.82	224.87
400.20	224.91
400.58	224.99
400.95	225.02
401.33	225.17
401.70	225.31
402.08	225.39
402.45	225.43
402.83	225.53
403.20	225.66
403.58	225.77
403.95	225.90
404.33	226.02
404.71	226.14
405.08	226.30
405.46	226.44
405.83	226.59
406.21	226.76
406.58	226.95
406.96	227.11
407.33	227.26
407.70	227.47
408.08	227.77
408.45	228.00
408.83	228.25
409.20	228.47
409.58	228.67
409.95	228.96
410.33	229.24
410.70	229.51
411.08	229.79
411.45	230.11
411.82	230.44
412.20	230.79
412.57	231.23
412.95	231.53
413.32	231.91
413.69	232.33
414.07	232.76
414.44	233.21
414.82	233.72
415.19	234.31
415.56	234.85
415.94	235.38
416.31	236.03
416.68	236.67
417.06	237.41
417.43	238.10
417.81	238.85
418.18	239.64
418.55	240.50
418.93	241.40
419.30	242.32
419.67	243.26
420.04	244.27
420.42	245.31
420.79	246.56
421.16	247.81
421.54	249.05
421.91	250.30
422.28	251.62
422.66	253.00
423.03	254.33
423.40	255.69
423.77	257.15
424.15	258.59
424.52	260.17
424.89	261.83
425.26	263.43
425.64	264.94
426.01	266.61
426.38	268.31
426.75	270.05
427.13	271.83
427.50	273.73
427.87	275.69
428.24	277.62
428.61	279.42
428.99	281.41
429.36	283.58
429.73	285.72
430.10	287.76
430.47	289.83
430.85	292.04
431.22	294.36
431.59	296.84
431.96	299.17
432.33	301.70
432.70	304.13
433.08	307.02
433.45	309.71
433.82	312.40
434.19	315.38
434.56	318.27
434.93	321.00
435.30	323.69
435.68	326.65
436.05	329.52
436.42	332.39
436.79	334.97
437.16	337.72
437.53	340.66
437.90	343.58
438.27	346.42
438.64	349.32
439.01	352.01
439.38	354.30
439.75	356.56
440.13	359.12
440.50	361.53
440.87	363.44
441.24	365.47
441.61	367.70
441.98	369.26
442.35	371.14
442.72	373.06
443.09	374.95
443.46	375.97
443.83	376.64
444.20	377.21
444.57	378.09
444.94	378.45
445.31	378.84
445.68	379.27
446.05	379.41
446.42	379.08
446.79	378.65
447.16	378.21
447.53	377.94
447.90	376.79
448.27	375.63
448.64	374.03
449.01	372.92
449.37	370.88
449.74	368.88
450.11	366.56
450.48	364.02
450.85	361.42
451.22	359.25
451.59	357.14
451.96	355.14
452.33	352.45
452.70	349.96
453.07	347.03
453.43	344.05
453.80	341.19
454.17	338.43
454.54	335.83
454.91	333.06
455.28	330.26
455.65	327.69
456.02	325.17
456.38	322.95
456.75	320.17
457.12	317.90
457.49	315.67
457.86	313.50
458.23	311.61
458.59	309.53
458.96	307.35
459.33	305.44
459.70	303.50
460.07	302.00
460.43	300.30
460.80	298.59
461.17	297.12
461.54	295.59
461.91	294.09
462.27	292.62
462.64	291.32
463.01	289.95
463.38	288.61
463.74	287.21
464.11	286.03
464.48	284.98
464.85	283.80
465.21	282.92
465.58	281.89
465.95	280.76
466.32	279.79
466.68	278.88
467.05	277.98
467.42	277.04
467.78	276.10
468.15	275.19
468.52	274.52
468.88	273.57
469.25	272.73
469.62	272.10
469.98	271.40
470.35	270.73
470.72	270.07
471.08	269.39
471.45	268.83
471.82	268.27
472.18	267.64
472.55	267.19
472.92	266.66
473.28	266.23
473.65	265.77
474.02	265.32
474.38	264.91
474.75	264.54
475.11	264.20
475.48	263.88
475.85	263.65
476.21	263.38
476.58	263.26
476.94	263.15
477.31	262.95
477.67	262.79
478.04	262.68
478.41	262.64
478.77	262.68
479.14	262.60
479.50	262.59
479.87	262.69
480.23	262.79
480.60	262.83
480.96	262.90
481.33	263.11
481.69	263.32
482.06	263.51
482.42	263.76
482.79	264.04
483.15	264.37
483.52	264.75
483.88	265.11
484.25	265.45
484.61	265.85
484.98	266.32
485.34	266.86
485.71	267.44
486.07	268.04
486.44	268.57
486.80	269.29
487.17	270.02
487.53	270.81
487.90	271.63
488.26	272.58
488.62	273.55
488.99	274.48
489.35	275.52
489.72	276.68
490.08	277.86
490.44	279.07
490.81	280.37
491.17	281.71
491.54	283.21
491.90	284.73
492.26	286.35
492.63	288.06
492.99	289.83
493.36	291.70
493.72	293.74
494.08	295.83
494.45	298.06
494.81	300.37
495.17	302.79
495.54	305.32
495.90	307.97
496.26	310.75
496.63	313.70
496.99	316.77
497.35	319.96
497.72	323.32
498.08	326.82
498.44	330.45
498.80	334.31
499.17	338.30
499.53	342.46
499.89	346.80
500.26	351.25
500.62	355.89
500.98	360.81
501.34	365.80
501.71	371.06
502.07	376.40
502.43	382.00
502.79	387.73
503.16	393.79
503.52	399.99
503.88	406.31
504.24	412.87
504.60	419.68
504.97	426.72
505.33	433.90
505.69	441.50
506.05	449.24
506.41	457.04
506.78	465.08
507.14	473.37
507.50	481.99
507.86	490.86
508.22	499.94
508.59	508.99
508.95	518.41
509.31	528.10
509.67	538.06
510.03	548.22
510.39	558.66
510.75	569.21
511.12	579.94
511.48	591.06
511.84	602.36
512.20	613.66
512.56	625.38
512.92	637.40
513.28	649.50
513.64	661.67
514.00	674.07
514.37	686.77
514.73	699.65
515.09	712.35
515.45	725.40
515.81	738.73
516.17	752.41
516.53	766.28
516.89	780.17
517.25	794.04
517.61	808.16
517.97	822.32
518.33	836.42
518.69	850.91
519.05	865.56
519.41	880.32
519.77	895.45
520.13	910.63
520.49	925.66
520.85	940.67
521.21	955.89
521.57	971.81
521.93	987.23
522.29	1003.14
522.65	1019.05
523.01	1034.76
523.37	1050.33
523.73	1066.11
524.09	1081.79
524.45	1097.60
524.81	1113.83
525.17	1130.12
525.53	1146.51
525.89	1163.00
526.25	1179.40
526.61	1195.45
526.97	1211.91
527.33	1228.14
527.68	1244.19
528.04	1260.27
528.40	1276.45
528.76	1293.28
529.12	1309.47
529.48	1326.05
529.84	1341.73
530.20	1357.96
530.56	1374.63
530.91	1391.71
531.27	1408.16
531.63	1424.31
531.99	1440.63
532.35	1456.36
532.71	1471.93
533.07	1487.98
533.42	1503.67
533.78	1519.38
534.14	1535.22
534.50	1550.25
534.86	1565.65
535.21	1580.72
535.57	1596.35
535.93	1611.62
536.29	1626.15
536.65	1640.83
537.00	1655.15
537.36	1670.28
537.72	1684.50
538.08	1698.79
538.44	1712.35
538.79	1726.11
539.15	1739.49
539.51	1753.05
539.87	1767.16
540.22	1780.70
540.58	1794.14
540.94	1807.19
541.29	1819.75
541.65	1832.32
542.01	1845.29
542.37	1857.60
542.72	1869.85
543.08	1881.62
543.44	1893.86
543.79	1905.13
544.15	1916.20
544.51	1927.89
544.87	1938.73
545.22	1949.64
545.58	1959.91
545.94	1969.81
546.29	1979.61
546.65	1989.59
547.01	1999.04
547.36	2007.83
547.72	2016.49
548.07	2024.51
548.43	2032.76
548.79	2040.95
549.14	2048.70
549.50	2056.15
549.86	2063.85
550.21	2071.13
550.57	2078.46
550.92	2085.24
551.28	2092.37
551.64	2099.55
551.99	2106.09
552.35	2112.48
552.70	2118.87
553.06	2125.04
553.41	2131.42
553.77	2137.64
554.13	2143.91
554.48	2150.07
554.84	2155.95
555.19	2161.43
555.55	2167.02
555.90	2171.87
556.26	2177.31
556.61	2182.19
556.97	2186.97
557.32	2191.67
557.68	2196.26
558.03	2200.76
558.39	2204.79
558.74	2209.68
559.10	2213.88
559.45	2217.91
559.81	2222.45
560.16	2226.53
560.52	2230.10
560.87	2233.78
561.23	2236.72
561.58	2239.83
561.94	2242.86
562.29	2245.40
562.64	2248.55
563.00	2251.23
563.35	2254.98
563.71	2258.29
564.06	2261.77
564.42	2264.87
564.77	2267.65
565.12	2270.54
565.48	2272.88
565.83	2275.15
566.19	2276.88
566.54	2278.08
566.89	2279.81
567.25	2280.85
567.60	2282.56
567.96	2284.69
568.31	2286.06
568.66	2287.65
569.02	2288.77
569.37	2289.43
569.72	2290.73
570.08	2291.17
570.43	2291.60
570.78	2291.49
571.14	2290.36
571.49	2289.40
571.84	2289.33
572.20	2288.76
572.55	2287.88
572.90	2286.57
573.26	2285.52
573.61	2284.16
573.96	2282.92
574.31	2280.21
574.67	2277.56
575.02	2274.22
575.37	2271.11
575.72	2267.81
576.08	2264.70
576.43	2261.49
576.78	2258.33
577.13	2255.24
577.49	2252.31
577.84	2249.14
578.19	2245.58
578.54	2242.44
578.90	2238.77
579.25	2233.67
579.60	2228.95
579.95	2224.23
580.30	2219.59
580.66	2214.73
581.01	2209.91
581.36	2205.20
581.71	2201.35
582.06	2197.18
582.42	2193.12
582.77	2188.12
583.12	2183.76
583.47	2179.51
583.82	2175.00
584.17	2169.88
584.53	2164.73
584.88	2159.44
585.23	2154.18
585.58	2148.99
585.93	2143.62
586.28	2138.74
586.63	2133.96
586.98	2128.98
587.34	2124.45
587.69	2119.75
588.04	2114.88
588.39	2109.46
588.74	2103.30
589.09	2097.18
589.44	2090.86
589.79	2084.75
590.14	2079.30
590.49	2072.97
590.84	2066.53
591.19	2060.66
591.54	2054.35
591.89	2047.38
592.25	2040.97
592.60	2033.80
592.95	2026.59
593.30	2019.53
593.65	2012.19
594.00	2005.28
594.35	1998.08
594.70	1990.14
595.05	1983.18
595.40	1975.82
595.75	1968.52
596.10	1962.39
596.45	1955.90
596.80	1949.80
597.15	1943.59
597.50	1936.91
597.85	1930.42
598.19	1924.08
598.54	1917.43
598.89	1910.98
599.24	1905.10
599.59	1898.58
599.94	1892.36
600.29	1885.93
600.64	1879.26
600.99	1872.06
601.34	1865.35
601.69	1858.37
602.04	1851.87
602.39	1844.58
602.74	1837.90
603.08	1831.39
603.43	1824.66
603.78	1817.52
604.13	1810.35
604.48	1803.00
604.83	1796.13
605.18	1789.47
605.53	1781.61
605.87	1773.42
606.22	1766.00
606.57	1758.04
606.92	1750.45
607.27	1743.59
607.62	1736.92
607.96	1729.80
608.31	1723.29
608.66	1715.72
609.01	1708.48
609.36	1700.80
609.70	1692.82
610.05	1684.85
610.40	1677.18
610.75	1668.93
611.10	1661.24
611.44	1652.62
611.79	1644.55
612.14	1635.73
612.49	1626.47
612.83	1617.87
613.18	1609.61
613.53	1601.61
613.88	1592.94
614.22	1584.63
614.57	1575.70
614.92	1567.50
615.27	1560.07
615.61	1551.73
615.96	1543.53
616.31	1535.70
616.65	1528.13
617.00	1520.32
617.35	1512.55
617.70	1504.04
618.04	1495.43
618.39	1486.96
618.74	1479.44
619.08	1471.17
619.43	1463.39
619.78	1456.22
620.12	1449.11
620.47	1441.51
620.82	1433.14
621.16	1425.58
621.51	1417.96
621.85	1410.19
622.20	1401.65
622.55	1392.97
622.89	1384.93
623.24	1377.14
623.59	1369.52
623.93	1361.93
624.28	1354.68
624.62	1347.03
624.97	1339.83
625.32	1332.90
625.66	1325.81
626.01	1318.46
626.35	1310.94
626.70	1302.99
627.04	1295.25
627.39	1287.22
627.73	1279.74
628.08	1272.73
628.43	1265.50
628.77	1258.11
629.12	1250.68
629.46	1243.35
629.81	1235.66
630.15	1228.29
630.50	1220.90
630.84	1212.74
631.19	1204.61
631.53	1196.88
631.88	1189.25
632.22	1181.41
632.57	1173.99
632.91	1166.38
633.26	1158.88
633.60	1151.35
633.95	1144.19
634.29	1136.93
634.64	1130.19
634.98	1122.77
635.32	1115.71
635.67	1108.96
636.01	1102.09
636.36	1095.23
636.70	1088.62
637.05	1082.13
637.39	1075.61
637.73	1069.04
638.08	1063.05
638.42	1057.11
638.77	1050.76
639.11	1044.22
639.45	1037.89
639.80	1031.29
640.14	1024.84
640.49	1018.38
640.83	1012.01
641.17	1005.90
641.52	999.67
641.86	993.12
642.20	987.23
642.55	980.71
642.89	974.23
643.23	967.67
643.58	961.86
643.92	955.66
644.26	949.71
644.61	943.61
644.95	937.58
645.29	931.04
645.64	924.32
645.98	917.91
646.32	911.89
646.66	905.80
647.01	899.98
647.35	894.23
647.69	888.22
648.04	882.67
648.38	876.85
648.72	870.92
649.06	864.89
649.41	858.92
649.75	852.98
650.09	847.03
650.43	841.33
650.78	835.04
651.12	829.05
651.46	823.18
651.80	817.50
652.14	812.07
652.49	806.69
652.83	801.40
653.17	795.82
653.51	790.17
653.85	784.70
654.20	779.05
654.54	773.08
654.88	767.26
655.22	761.31
655.56	755.51
655.90	749.87
656.25	744.60
656.59	739.19
656.93	734.07
657.27	728.90
657.61	723.44
657.95	718.36
658.29	713.20
658.64	707.86
658.98	702.44
659.32	696.91
659.66	691.68
660.00	686.41
660.34	681.32
660.68	676.30
661.02	671.27
661.36	666.53
661.70	661.95
662.05	657.60
662.39	653.36
662.73	648.84
663.07	644.43
663.41	639.96
663.75	635.49
664.09	630.85
664.43	626.43
664.77	622.25
665.11	618.00
665.45	613.85
665.79	609.77
666.13	605.72
666.47	601.58
666.81	597.36
667.15	593.21
667.49	589.30
667.83	585.46
668.17	581.51
668.51	577.40
668.85	573.34
669.19	569.43
669.53	565.55
669.87	561.72
670.21	557.98
670.55	554.32
670.89	550.84
671.23	547.42
671.57	543.82
671.91	540.29
672.25	536.71
672.58	533.23
672.92	529.76
673.26	526.44
673.60	523.23
673.94	520.15
674.28	517.16
674.62	514.19
674.96	511.14
675.30	508.24
675.64	505.29
675.97	502.50
676.31	499.67
676.65	496.71
676.99	493.96
677.33	491.01
677.67	488.17
678.01	485.16
678.34	482.16
678.68	479.25
679.02	476.45
679.36	473.67
679.70	470.88
680.04	468.10
680.37	465.29
680.71	462.47
681.05	459.80
681.39	457.07
681.73	454.35
682.06	451.67
682.40	449.08
682.74	446.50
683.08	443.90
683.42	441.23
683.75	438.68
684.09	436.06
684.43	433.67
684.77	431.22
685.10	428.81
685.44	426.51
685.78	424.23
686.12	421.88
686.45	419.57
686.79	417.20
687.13	415.01
687.46	412.79
687.80	410.64
688.14	408.40
688.48	406.37
688.81	404.21
689.15	402.05
689.49	399.85
689.82	397.74
690.16	395.64
690.50	393.68
690.83	391.74
691.17	389.77
691.51	387.83
691.84	385.93
692.18	384.03
692.52	382.06
692.85	380.08
693.19	378.18
693.52	376.30
693.86	374.46
694.20	372.66
694.53	370.87
694.87	369.00
695.21	367.14
695.54	365.24
695.88	363.42
696.21	361.62
696.55	359.94
696.88	358.22
697.22	356.48
697.56	354.81
697.89	353.12
698.23	351.54
698.56	349.90
698.90	348.29
699.23	346.63
699.57	345.02
699.90	343.46
700.24	341.88
700.58	340.37
700.91	338.87
701.25	337.36
701.58	335.93
701.92	334.54
702.25	333.17
702.59	331.81
702.92	330.52
703.26	329.22
703.59	327.89
703.93	326.70
704.26	325.51
704.60	324.23
704.93	322.95
705.26	321.68
705.60	320.47
705.93	319.28
706.27	318.19
706.60	317.12
706.94	315.97
707.27	314.82
707.61	313.72
707.94	312.66
708.27	311.57
708.61	310.47
708.94	309.42
709.28	308.40
709.61	307.45
709.94	306.43
710.28	305.43
710.61	304.41
710.95	303.31
711.28	302.36
711.61	301.41
711.95	300.47
712.28	299.50
712.61	298.52
712.95	297.56
713.28	296.64
713.61	295.71
713.95	294.85
714.28	293.99
714.61	293.10
714.95	292.22
715.28	291.42
715.61	290.53
715.95	289.67
716.28	288.81
716.61	287.96
716.95	287.06
717.28	286.31
717.61	285.57
717.94	284.83
718.28	284.01
718.61	283.27
718.94	282.57
719.27	281.87
719.61	281.22
719.94	280.57
720.27	279.84
720.60	279.17
720.94	278.53
721.27	277.97
721.60	277.39
721.93	276.84
722.27	276.21
722.60	275.71
722.93	275.14
723.26	274.60
723.59	274.04
723.93	273.56
724.26	273.00
724.59	272.43
724.92	271.90
725.25	271.44
725.59	270.91
725.92	270.40
726.25	269.89
726.58	269.38
726.91	268.86
727.24	268.38
727.57	267.89
727.91	267.41
728.24	266.89
728.57	266.40
728.90	265.95
729.23	265.46
729.56	265.01
729.89	264.55
730.22	264.04
730.55	263.55
730.89	263.10
731.22	262.66
731.55	262.23
731.88	261.78
732.21	261.26
732.54	260.82
732.87	260.39
733.20	259.99
733.53	259.58
733.86	259.19
734.19	258.81
734.52	258.43
734.85	258.07
735.18	257.67
735.51	257.31
735.84	256.90
736.17	256.57
736.50	256.12
736.83	255.87
737.16	255.55
737.49	255.22
737.82	254.86
738.15	254.56
738.48	254.20
738.81	253.87
739.14	253.56
739.47	253.24
739.80	252.94
740.13	252.62
740.46	252.27
740.79	251.97
741.12	251.67
741.45	251.34
741.78	250.98
742.11	250.72
742.44	250.37
742.77	250.08
743.10	249.74
743.43	249.42
743.75	249.02
744.08	248.83
744.41	248.55
744.74	248.24
745.07	247.88
745.40	247.62
745.73	247.37
746.06	247.09
746.39	246.79
746.71	246.47
747.04	246.18
747.37	245.93
747.70	245.68
748.03	245.41
748.36	245.20
748.68	244.95
749.01	244.66
749.34	244.45
749.67	244.24
750.00	244.01
750.33	243.87
750.65	243.62
750.98	243.29
751.31	243.02
751.64	242.81
751.97	242.64
752.29	242.40
752.62	242.16
752.95	241.92
753.28	241.70
753.60	241.50
753.93	241.35
754.26	241.18
754.59	240.92
754.91	240.70
755.24	240.49
755.57	240.27
755.90	240.05
756.22	239.84
756.55	239.60
756.88	239.40
757.20	239.15
757.53	238.96
757.86	238.77
758.19	238.64
758.51	238.46
758.84	238.23
759.17	238.06
759.49	237.88
759.82	237.78
760.15	237.60
760.47	237.43
760.80	237.21
761.13	237.05
761.45	236.89
761.78	236.73
762.11	236.55
762.43	236.42
762.76	236.30
763.08	236.15
763.41	236.01
763.74	235.88
764.06	235.72
764.39	235.57
764.71	235.42
765.04	235.26
765.37	235.15
765.69	235.04
766.02	234.92
766.34	234.78
766.67	234.64
767.00	234.55
767.32	234.50
767.65	234.45
767.97	234.33
768.30	234.24
768.62	234.12
768.95	234.00
769.27	233.88
769.60	233.77
769.92	233.64
770.25	233.50
770.57	233.38
770.90	233.30
771.22	233.23
771.55	233.18
771.87	233.09
772.20	232.97
772.52	232.99
772.85	233.01
773.17	232.93
773.50	232.82
773.82	232.72
774.15	232.57
774.47	232.42
774.80	232.33
775.12	232.23
775.45	232.14
775.77	232.10
776.09	232.03
776.42	231.95
776.74	231.91
777.07	231.86
777.39	231.77
777.72	231.65
778.04	231.59
778.36	231.48
778.69	231.38
779.01	231.33
779.33	231.15
779.66	230.93
779.98	230.88
780.31	230.80
780.63	230.77
780.95	230.71
781.28	230.68
781.60	230.60
781.92	230.52
782.25	230.52
782.57	230.43
782.89	230.38
783.22	230.34
783.54	230.25
783.86	230.22
784.19	230.17
784.51	230.19
784.83	230.10
785.16	230.03
785.48	230.03
785.80	229.95
786.12	229.90
786.45	229.86
786.77	229.83
787.09	229.81
787.42	229.74
787.74	229.68
788.06	229.61
788.38	229.55
788.71	229.52
789.03	229.43
789.35	229.37
789.67	229.33
789.99	229.30
790.32	229.24
790.64	229.21
790.96	229.24
791.28	229.14
791.61	229.09
791.93	229.11
792.25	229.03
792.57	229.07
792.89	229.03
793.21	229.01
793.54	228.95
793.86	228.89
794.18	228.86
794.50	228.84
794.82	228.79
795.14	228.76
795.47	228.74
795.79	228.74
796.11	228.68
796.43	228.64
796.75	228.55
797.07	228.53
797.39	228.49
797.71	228.39
798.04	228.37
798.36	228.35
798.68	228.30
799.00	228.29
799.32	228.24
799.64	228.21
799.96	228.16
800.28	228.13
800.60	228.11
800.92	228.08
801.24	228.01
801.56	228.02
801.89	228.01
802.21	227.97
802.53	227.96
802.85	227.97
803.17	228.00
803.49	227.97
803.81	227.93
804.13	227.87
804.45	227.83
804.77	227.82
805.09	227.80
805.41	227.79
805.73	227.73
806.05	227.65
806.37	227.61
806.69	227.61
807.01	227.57
807.33	227.55
807.65	227.48
807.97	227.53
808.28	227.48
808.60	227.43
808.92	227.38
809.24	227.33
809.56	227.29
809.88	227.22
810.20	227.21
810.52	227.20
810.84	227.16
811.16	227.11
811.48	227.09
811.80	227.06
812.12	227.01
812.43	226.97
812.75	226.94
813.07	226.90
813.39	226.86
813.71	226.84
814.03	226.82
814.35	226.80
814.67	226.74
814.98	226.74
815.30	226.71
815.62	226.70
815.94	226.66
816.26	226.67
816.58	226.62
816.89	226.62
817.21	226.58
817.53	226.60
817.85	226.60
818.17	226.56
818.48	226.53
818.80	226.52
819.12	226.54
819.44	226.52
819.76	226.53
820.07	226.52
820.39	226.51
820.71	226.46
821.03	226.44
821.34	226.41
821.66	226.40
821.98	226.40
822.30	226.37
822.61	226.40
822.93	226.33
823.25	226.35
823.57	226.31
823.88	226.33
824.20	226.28
824.52	226.30
824.83	226.28
825.15	226.27
825.47	226.24
825.79	226.20
826.10	226.18
826.42	226.15
826.74	226.16
827.05	226.11
827.37	226.14
827.69	226.13
828.00	226.13
828.32	226.10
828.64	226.10
828.95	226.14
829.27	226.12
829.58	226.12
829.90	226.12
830.22	226.14
830.53	226.09
830.85	226.09
831.17	226.06
831.48	226.06
831.80	226.06
832.11	226.06
832.43	226.08
832.75	226.06
833.06	226.11
833.38	226.09
833.69	226.09
834.01	226.08
834.32	226.10
834.64	226.07
834.96	226.07
835.27	226.03
835.59	226.01
835.90	225.97
836.22	225.97
836.53	225.95
836.85	225.93
837.16	226.04
837.48	226.02
837.79	226.04
838.11	226.01
838.42	226.00
838.74	226.02
839.05	226.00
839.37	225.98
839.68	225.92
840.00	225.92
840.31	225.93
840.63	225.92
840.94	225.86
841.26	225.86
841.57	225.86
841.88	225.88
842.20	225.88
842.51	225.85
842.83	225.84
843.14	225.92
843.46	225.91
843.77	225.82
844.08	225.81
844.40	225.77
844.71	225.75
845.03	225.71
845.34	225.69
845.65	225.68
845.97	225.66
846.28	225.62
846.60	225.61
846.91	225.58
847.22	225.56
847.54	225.56
847.85	225.55
848.16	225.51
848.48	225.47
848.79	225.47
849.10	225.50
849.42	225.47
849.73	225.35
850.04	225.33
850.36	225.33
850.67	225.37
850.98	225.36
851.30	225.37
851.61	225.35
851.92	225.34
852.23	225.35
852.55	225.39
852.86	225.40
853.17	225.41
853.49	225.44
853.80	225.43
854.11	225.48
854.42	225.52
854.74	225.51
855.05	225.57
855.36	225.51
855.67	225.49
855.99	225.49
856.30	225.65
856.61	225.66
856.92	225.63
857.23	225.63
857.55	225.60
857.86	225.58
858.17	225.63
858.48	225.62
858.79	225.62
859.11	225.59
859.42	225.62
859.73	225.59
860.04	225.58
860.35	225.59
860.66	225.56
860.98	225.54
861.29	225.51
861.60	225.49
861.91	225.54
862.22	225.52
862.53	225.48
862.84	225.36
863.16	225.37
863.47	225.35
863.78	225.33
864.09	225.36
864.40	225.41
864.71	225.40
865.02	225.42
865.33	225.38
865.64	225.37
865.95	225.34
866.27	225.41
866.58	225.37
866.89	225.36
867.20	225.35
867.51	225.33
867.82	225.34
868.13	225.36
868.44	225.30
868.75	225.32
869.06	225.37
869.37	225.34
869.68	225.31
869.99	225.34
870.30	225.35
870.61	225.34
870.92	225.33
871.23	225.31
871.54	225.29
871.85	225.31
872.16	225.33
872.47	225.32
872.78	225.26
873.09	225.26
873.40	225.24
873.71	225.22
874.02	225.24
874.33	225.22
874.64	225.19
874.95	225.22
875.26	225.18
875.56	225.16
875.87	225.15
876.18	225.15
876.49	225.25
876.80	225.23
877.11	225.21
877.42	225.21
877.73	225.24
878.04	225.27
878.35	225.26
878.66	225.25
878.96	225.23
879.27	225.21
879.58	225.23
879.89	225.24
880.20	225.26
880.51	225.24
880.82	225.26
881.12	225.26
881.43	225.22
881.74	225.21
882.05	225.20
882.36	225.21
882.67	225.18
882.97	225.06
883.28	225.05
883.59	225.06
883.90	225.04
884.21	225.01
884.51	224.97
884.82	224.96
885.13	224.97
885.44	224.96
885.74	224.97
886.05	224.95
886.36	224.95
886.67	224.95
886.98	224.98
887.28	224.99
887.59	224.97
887.90	225.02
888.20	225.03
888.51	225.03
888.82	225.02
889.13	225.04
889.43	225.11
889.74	225.08
890.05	225.07
890.35	225.08
890.66	225.09
890.97	225.12
891.28	225.09
891.58	225.10
891.89	225.13
892.20	225.12
892.50	225.12
892.81	225.11
893.12	225.09
893.42	225.06
893.73	225.05
894.04	225.06
894.34	225.04
894.65	225.04
894.95	225.04
895.26	225.06
895.57	225.12
895.87	225.03
896.18	225.08
896.48	225.08
896.79	225.06
897.10	225.02
897.40	225.00
897.71	225.02
898.01	225.00
898.32	225.04
898.63	225.05
898.93	225.05
899.24	225.08
899.54	225.06
899.85	225.05
900.15	225.05
900.46	225.09
900.76	225.11
901.07	225.10
901.38	225.14
901.68	225.13
901.99	225.08
902.29	225.09
902.60	225.08
902.90	225.09
903.21	225.10
903.51	225.13
903.82	225.17
904.12	225.18
904.43	225.18
904.73	225.14
905.03	225.16
905.34	225.27
905.64	225.23
905.95	225.22
906.25	225.21
906.56	225.19
906.86	225.14
907.17	225.12
907.47	225.16
907.77	225.11
908.08	225.11
908.38	225.10
908.69	225.12
908.99	225.10
909.30	225.10
909.60	225.08
909.90	225.09
910.21	225.02
910.51	224.99
910.81	224.98
911.12	224.98
911.42	224.97
911.73	224.88
912.03	224.88
912.33	224.93
912.64	224.94
912.94	224.95
913.24	224.93
913.55	224.91
913.85	224.88
914.15	224.87
914.46	224.87
914.76	224.84
915.06	224.81
915.37	224.82
915.67	224.79
915.97	224.78
916.27	224.73
916.58	224.77
916.88	224.75
917.18	224.75
917.49	224.83
917.79	224.81
918.09	224.82
918.39	224.86
918.70	224.83
919.00	224.81
919.30	224.86
919.60	224.86
919.91	224.85
920.21	224.84
920.51	224.83
920.81	224.82
921.12	224.83
921.42	224.83
921.72	224.83
922.02	224.86
922.32	224.86
922.63	224.90
922.93	224.94
923.23	224.95
923.53	224.96
923.83	224.86
924.13	224.87
924.44	224.86
924.74	224.87
925.04	224.90
925.34	224.90
925.64	224.84
925.94	224.83
926.24	224.91
926.55	224.91
926.85	224.93
927.15	224.92
927.45	224.93
927.75	224.95
928.05	224.97
928.35	224.93
928.65	224.98
928.95	224.98
929.26	224.92
929.56	224.93
929.86	224.93
930.16	224.95
930.46	224.95
930.76	224.96
931.06	224.89
931.36	224.88
931.66	224.92
931.96	224.94
932.26	224.95
932.56	224.87
932.86	224.92
933.16	224.94
933.46	224.95
933.76	224.96
934.06	225.00
934.36	225.04
934.66	225.07
934.96	225.03
935.26	225.03
935.56	225.09
935.86	225.08
936.16	225.06
936.46	225.04
936.76	225.05
937.06	225.03
937.36	225.07
937.66	225.09
937.96	225.08
938.26	225.10
938.56	225.10
938.86	225.11
939.16	225.13
939.46	225.12
939.76	225.12
940.06	225.10
940.35	225.07
940.65	224.99
940.95	225.00
941.25	224.99
941.55	225.00
941.85	224.99
942.15	225.03
942.45	225.05
942.75	225.07
943.04	225.06
943.34	225.08
943.64	225.08
943.94	225.07
944.24	225.05
944.54	225.04
944.84	225.04
945.13	225.03
945.43	225.00
945.73	225.02
946.03	225.03
946.33	224.99
946.62	225.00
946.92	225.00
947.22	224.98
947.52	225.00
947.82	224.97
948.11	224.94
948.41	224.93
948.71	224.90
949.01	224.91
949.31	224.92
949.60	224.90
949.90	224.90
950.20	224.87
950.50	224.88
950.79	224.88
951.09	224.90
951.39	224.89
951.69	224.89
951.98	224.87
952.28	224.84
952.58	224.86
952.87	224.83
953.17	224.85
953.47	224.86
953.76	224.82
954.06	224.83
954.36	224.79
954.66	224.73
954.95	224.73
955.25	224.73
955.55	224.69
955.84	224.69
956.14	224.67
956.44	224.66
956.73	224.64
957.03	224.63
957.32	224.60
957.62	224.61
957.92	224.60
958.21	224.58
958.51	224.69
958.81	224.70
959.10	224.68
959.40	224.70
959.69	224.69
959.99	224.72
960.29	224.69
960.58	224.70
960.88	224.76
961.17	224.77
961.47	224.75
961.76	224.75
962.06	224.74
962.36	224.73
962.65	224.73
962.95	224.75
963.24	224.74
963.54	224.73
963.83	224.72
964.13	224.74
964.42	224.70
964.72	224.63
965.01	224.64
965.31	224.63
965.60	224.61
965.90	224.67
966.19	224.62
966.49	224.65
966.78	224.71
967.08	224.68
967.37	224.69
967.67	224.71
967.96	224.74
968.26	224.76
968.55	224.78
968.85	224.80
969.14	224.79
969.43	224.80
969.73	224.79
970.02	224.76
970.32	224.74
970.61	224.80
970.91	224.81
971.20	224.80
971.49	224.87
971.79	224.88
972.08	224.83
972.38	224.85
972.67	224.84
972.96	224.82
973.26	224.84
973.55	224.85
973.85	224.84
974.14	224.82
974.43	224.81
974.73	224.78
975.02	224.78
975.31	224.82
975.61	224.83
975.90	224.86
976.19	224.90
976.49	224.91
976.78	224.90
977.07	224.86
977.37	224.88
977.66	224.86
977.95	224.87
978.24	224.92
978.54	224.93
978.83	224.91
979.12	224.93
979.42	224.92
979.71	224.92
980.00	224.94
980.29	224.95
980.59	224.99
980.88	225.06
981.17	225.05
981.46	225.03
981.76	225.04
982.05	225.07
982.34	225.07
982.63	225.08
982.93	225.08
983.22	225.14
983.51	225.16
983.80	225.18
984.09	225.20
984.39	225.20
984.68	225.22
984.97	225.26
985.26	225.23
985.55	225.24
985.85	225.25
986.14	225.23
986.43	225.28
986.72	225.26
987.01	225.18
987.30	225.17
987.59	225.18
987.89	225.16
988.18	225.11
988.47	225.13
988.76	225.12
989.05	225.09
989.34	225.05
989.63	225.04
989.92	225.03
990.22	224.98
990.51	224.96
990.80	224.92
991.09	224.92
991.38	224.92
991.67	224.91
991.96	224.88
992.25	224.89
992.54	224.87
992.83	224.83
993.12	224.84
993.41	224.85
993.70	224.87
993.99	224.89
994.28	224.91
994.58	224.90
994.87	224.88
995.16	224.89
995.45	224.91
995.74	224.86
996.03	224.85
996.32	224.84
996.61	224.84
996.90	224.87
997.19	224.87
997.48	224.84
997.77	224.82
998.06	224.81
998.34	224.75
998.63	224.73
998.92	224.75
999.21	224.74
999.50	224.72
999.79	224.67
1000.08	224.64
1000.37	224.67
1000.66	224.66
1000.95	224.68
1001.24	224.65
1001.53	224.67
1001.82	224.70
1002.11	224.65
1002.40	224.69
1002.68	224.69
1002.97	224.72
1003.26	224.69
1003.55	224.69
1003.84	224.70
1004.13	224.74
1004.42	224.76
1004.71	224.73
1004.99	224.72
1005.28	224.77
1005.57	224.78
1005.86	224.77
1006.15	224.79
1006.44	224.73
1006.72	224.73
1007.01	224.71
1007.30	224.71
1007.59	224.71
1007.88	224.70
1008.17	224.70
1008.45	224.65
1008.74	224.62
1009.03	224.56
1009.32	224.54
1009.60	224.55
1009.89	224.53
1010.18	224.49
1010.47	224.46
1010.76	224.50
1011.04	224.49
1011.33	224.48
1011.62	224.47
1011.91	224.51
1012.19	224.49
1012.48	224.52
1012.77	224.52
1013.05	224.59
1013.34	224.65
1013.63	224.63
1013.92	224.63
1014.20	224.65
1014.49	224.69
1014.78	224.71
1015.06	224.73
1015.35	224.76
1015.64	224.81
1015.92	224.83
1016.21	224.83
1016.50	224.86
1016.78	224.89
1017.07	224.90
1017.36	224.92
1017.64	224.92
1017.93	224.94
1018.22	224.96
1018.50	224.96
1018.79	224.98
1019.08	224.92
1019.36	224.92
1019.65	224.95
1019.93	225.00
1020.22	225.04
1020.51	225.11
1020.79	225.12
1021.08	225.01
1021.36	225.05
1021.65	225.05
1021.94	224.95
1022.22	225.45
1022.51	225.05
1022.79	225.88
1023.08	225.66
1023.36	226.45
1023.65	225.09
>>>>>End Processed Spectral Data<<<<<
