SpectraSuite Data File
++++++++++++++++++++++++++++++++++++
Date: Fri Feb 01 16:00:16 EST 2013
User: group
Dark Spectrum Present: No
Reference Spectrum Present: No
Number of Sampled Component Spectra: 1
Spectrometers: USB2E7196
Integration Time (usec): 35000 (USB2E7196)
Spectra Averaged: 100 (USB2E7196)
Boxcar Smoothing: 10 (USB2E7196)
Correct for Electrical Dark: No (USB2E7196)
Strobe/Lamp Enabled: No (USB2E7196)
Correct for Detector Non-linearity: No (USB2E7196)
Correct for Stray Light: No (USB2E7196)
Number of Pixels in Processed Spectrum: 2048
>>>>>Begin Processed Spectral Data<<<<<
339.09	0.00
339.48	214.17
339.86	216.02
340.24	217.02
340.63	219.29
341.01	221.60
341.39	221.66
341.78	223.47
342.16	223.89
342.54	224.50
342.93	212.97
343.31	223.73
343.69	224.28
344.07	224.78
344.46	225.25
344.84	225.62
345.22	225.85
345.60	226.06
345.99	226.23
346.37	226.37
346.75	226.48
347.13	226.57
347.52	226.63
347.90	226.72
348.28	226.80
348.66	226.86
349.05	226.85
349.43	226.87
349.81	226.91
350.19	226.98
350.57	227.02
350.96	227.14
351.34	227.24
351.72	227.33
352.10	227.40
352.48	227.44
352.87	227.50
353.25	227.59
353.63	227.68
354.01	227.74
354.39	227.81
354.77	227.89
355.15	227.98
355.54	227.99
355.92	228.01
356.30	228.04
356.68	228.17
357.06	228.24
357.44	228.29
357.82	228.37
358.20	228.46
358.58	228.53
358.97	228.55
359.35	228.63
359.73	228.73
360.11	228.78
360.49	228.83
360.87	228.86
361.25	228.90
361.63	228.96
362.01	229.00
362.39	229.07
362.77	229.11
363.15	229.13
363.53	229.17
363.91	229.24
364.29	229.25
364.67	229.15
365.05	229.17
365.43	229.20
365.81	229.22
366.19	229.22
366.57	229.25
366.95	229.25
367.33	229.23
367.71	229.17
368.09	229.17
368.47	229.18
368.85	229.18
369.23	229.16
369.61	229.12
369.99	229.11
370.37	229.06
370.75	229.07
371.13	229.02
371.51	229.00
371.89	228.95
372.27	228.95
372.65	228.94
373.03	228.90
373.41	228.83
373.78	228.79
374.16	228.70
374.54	228.61
374.92	228.57
375.30	228.49
375.68	228.42
376.06	228.37
376.44	228.26
376.82	228.19
377.19	228.15
377.57	228.06
377.95	227.98
378.33	227.88
378.71	227.73
379.09	227.68
379.47	227.62
379.84	227.53
380.22	227.46
380.60	227.36
380.98	227.28
381.36	227.22
381.73	227.11
382.11	227.06
382.49	226.99
382.87	226.90
383.25	226.83
383.62	226.88
384.00	226.78
384.38	226.75
384.76	226.72
385.13	226.70
385.51	226.65
385.89	226.59
386.27	226.58
386.64	226.53
387.02	226.49
387.40	226.43
387.78	226.38
388.15	226.31
388.53	226.29
388.91	226.26
389.29	226.25
389.66	226.25
390.04	226.19
390.42	226.21
390.79	226.21
391.17	226.20
391.55	226.11
391.92	226.13
392.30	226.12
392.68	226.11
393.05	226.06
393.43	226.07
393.81	226.10
394.18	226.10
394.56	226.17
394.94	226.19
395.31	226.21
395.69	226.25
396.06	226.29
396.44	226.32
396.82	226.35
397.19	226.42
397.57	226.45
397.95	226.53
398.32	226.59
398.70	226.64
399.07	226.73
399.45	226.80
399.82	226.87
400.20	226.95
400.58	227.00
400.95	227.08
401.33	227.21
401.70	227.34
402.08	227.42
402.45	227.49
402.83	227.61
403.20	227.71
403.58	227.82
403.95	227.96
404.33	228.10
404.71	228.24
405.08	228.43
405.46	228.56
405.83	228.71
406.21	228.84
406.58	229.01
406.96	229.16
407.33	229.32
407.70	229.48
408.08	229.76
408.45	229.98
408.83	230.23
409.20	230.44
409.58	230.62
409.95	230.91
410.33	231.17
410.70	231.40
411.08	231.75
411.45	232.05
411.82	232.34
412.20	232.68
412.57	233.10
412.95	233.37
413.32	233.82
413.69	234.21
414.07	234.63
414.44	235.06
414.82	235.51
415.19	236.07
415.56	236.64
415.94	237.15
416.31	237.81
416.68	238.44
417.06	239.14
417.43	239.80
417.81	240.56
418.18	241.33
418.55	242.18
418.93	242.99
419.30	243.89
419.67	244.82
420.04	245.76
420.42	246.74
420.79	247.91
421.16	249.04
421.54	250.25
421.91	251.47
422.28	252.75
422.66	254.10
423.03	255.42
423.40	256.73
423.77	258.15
424.15	259.56
424.52	261.01
424.89	262.60
425.26	264.17
425.64	265.59
426.01	267.19
426.38	268.84
426.75	270.51
427.13	272.24
427.50	274.04
427.87	275.94
428.24	277.83
428.61	279.56
428.99	281.49
429.36	283.60
429.73	285.67
430.10	287.68
430.47	289.74
430.85	291.86
431.22	294.11
431.59	296.50
431.96	298.76
432.33	301.25
432.70	303.65
433.08	306.45
433.45	309.11
433.82	311.69
434.19	314.60
434.56	317.42
434.93	320.04
435.30	322.69
435.68	325.58
436.05	328.39
436.42	331.21
436.79	333.78
437.16	336.46
437.53	339.29
437.90	342.09
438.27	344.85
438.64	347.65
439.01	350.27
439.38	352.50
439.75	354.64
440.13	357.11
440.50	359.43
440.87	361.28
441.24	363.27
441.61	365.45
441.98	366.94
442.35	368.70
442.72	370.61
443.09	372.42
443.46	373.40
443.83	373.96
444.20	374.40
444.57	375.15
444.94	375.44
445.31	375.77
445.68	376.13
446.05	376.16
446.42	375.78
446.79	375.33
447.16	374.88
447.53	374.59
447.90	373.47
448.27	372.32
448.64	370.69
449.01	369.50
449.37	367.55
449.74	365.62
450.11	363.42
450.48	360.92
450.85	358.37
451.22	356.23
451.59	354.24
451.96	352.35
452.33	349.79
452.70	347.39
453.07	344.59
453.43	341.69
453.80	338.97
454.17	336.28
454.54	333.69
454.91	330.99
455.28	328.30
455.65	325.79
456.02	323.34
456.38	321.21
456.75	318.52
457.12	316.29
457.49	314.08
457.86	311.92
458.23	310.06
458.59	308.04
458.96	305.94
459.33	304.07
459.70	302.21
460.07	300.69
460.43	298.99
460.80	297.36
461.17	295.92
461.54	294.43
461.91	292.97
462.27	291.55
462.64	290.28
463.01	288.95
463.38	287.63
463.74	286.23
464.11	285.09
464.48	284.12
464.85	282.98
465.21	282.13
465.58	281.21
465.95	280.15
466.32	279.22
466.68	278.33
467.05	277.41
467.42	276.51
467.78	275.61
468.15	274.77
468.52	274.11
468.88	273.22
469.25	272.43
469.62	271.87
469.98	271.17
470.35	270.56
470.72	269.96
471.08	269.35
471.45	268.84
471.82	268.32
472.18	267.70
472.55	267.28
472.92	266.74
473.28	266.26
473.65	265.79
474.02	265.37
474.38	265.04
474.75	264.76
475.11	264.42
475.48	264.16
475.85	263.93
476.21	263.66
476.58	263.52
476.94	263.40
477.31	263.23
477.67	263.13
478.04	263.02
478.41	262.93
478.77	262.96
479.14	262.89
479.50	262.84
479.87	262.92
480.23	262.99
480.60	263.06
480.96	263.16
481.33	263.38
481.69	263.60
482.06	263.78
482.42	263.97
482.79	264.24
483.15	264.55
483.52	264.90
483.88	265.32
484.25	265.70
484.61	266.13
484.98	266.55
485.34	267.14
485.71	267.74
486.07	268.34
486.44	268.91
486.80	269.62
487.17	270.35
487.53	271.18
487.90	272.02
488.26	272.93
488.62	273.91
488.99	274.89
489.35	275.89
489.72	277.02
490.08	278.23
490.44	279.49
490.81	280.78
491.17	282.12
491.54	283.57
491.90	285.09
492.26	286.72
492.63	288.49
492.99	290.20
493.36	292.06
493.72	294.13
494.08	296.20
494.45	298.47
494.81	300.86
495.17	303.26
495.54	305.81
495.90	308.51
496.26	311.35
496.63	314.30
496.99	317.44
497.35	320.69
497.72	324.12
498.08	327.63
498.44	331.34
498.80	335.25
499.17	339.33
499.53	343.52
499.89	347.93
500.26	352.40
500.62	357.12
500.98	362.11
501.34	367.21
501.71	372.58
502.07	378.03
502.43	383.65
502.79	389.50
503.16	395.59
503.52	401.90
503.88	408.33
504.24	414.98
504.60	421.85
504.97	428.93
505.33	436.19
505.69	443.86
506.05	451.67
506.41	459.50
506.78	467.60
507.14	476.05
507.50	484.74
507.86	493.81
508.22	502.96
508.59	512.18
508.95	521.71
509.31	531.57
509.67	541.69
510.03	551.95
510.39	562.46
510.75	573.29
511.12	584.15
511.48	595.45
511.84	606.92
512.20	618.44
512.56	630.44
512.92	642.67
513.28	655.06
513.64	667.54
514.00	680.31
514.37	693.28
514.73	706.44
515.09	719.51
515.45	732.78
515.81	746.46
516.17	760.48
516.53	774.66
516.89	788.86
517.25	803.01
517.61	817.45
517.97	831.99
518.33	846.45
518.69	861.27
519.05	876.27
519.41	891.40
519.77	906.98
520.13	922.45
520.49	937.87
520.85	953.38
521.21	969.01
521.57	985.22
521.93	1000.99
522.29	1017.34
522.65	1033.52
523.01	1049.80
523.37	1065.84
523.73	1081.99
524.09	1098.04
524.45	1114.20
524.81	1130.83
525.17	1147.60
525.53	1164.48
525.89	1181.20
526.25	1198.09
526.61	1214.42
526.97	1231.11
527.33	1247.53
527.68	1264.11
528.04	1280.50
528.40	1296.96
528.76	1313.96
529.12	1330.54
529.48	1347.40
529.84	1363.42
530.20	1380.18
530.56	1397.03
530.91	1414.50
531.27	1431.25
531.63	1447.65
531.99	1464.18
532.35	1480.08
532.71	1495.88
533.07	1512.06
533.42	1527.95
533.78	1543.87
534.14	1560.16
534.50	1575.60
534.86	1591.50
535.21	1606.57
535.57	1622.54
535.93	1638.07
536.29	1652.87
536.65	1667.85
537.00	1682.61
537.36	1697.82
537.72	1712.29
538.08	1726.77
538.44	1740.45
538.79	1754.18
539.15	1767.85
539.51	1781.66
539.87	1795.94
540.22	1809.79
540.58	1823.55
540.94	1836.91
541.29	1849.75
541.65	1862.28
542.01	1875.38
542.37	1887.58
542.72	1899.95
543.08	1911.57
543.44	1923.87
543.79	1935.14
544.15	1946.14
544.51	1957.68
544.87	1968.67
545.22	1979.40
545.58	1989.46
545.94	1999.09
546.29	2008.95
546.65	2018.85
547.01	2028.07
547.36	2036.86
547.72	2045.17
548.07	2052.88
548.43	2061.05
548.79	2069.08
549.14	2076.67
549.50	2083.91
549.86	2091.54
550.21	2098.98
550.57	2106.06
550.92	2112.54
551.28	2119.63
551.64	2126.68
551.99	2133.21
552.35	2139.16
552.70	2145.14
553.06	2151.15
553.41	2157.51
553.77	2163.57
554.13	2169.69
554.48	2175.81
554.84	2181.18
555.19	2186.53
555.55	2191.78
555.90	2196.26
556.26	2201.02
556.61	2205.81
556.97	2210.02
557.32	2214.22
557.68	2218.27
558.03	2222.72
558.39	2226.59
558.74	2231.28
559.10	2235.25
559.45	2238.93
559.81	2243.37
560.16	2247.26
560.52	2250.46
560.87	2253.96
561.23	2256.65
561.58	2259.49
561.94	2262.08
562.29	2264.56
562.64	2267.24
563.00	2269.71
563.35	2273.16
563.71	2276.40
564.06	2279.65
564.42	2282.60
564.77	2285.13
565.12	2287.35
565.48	2289.23
565.83	2291.00
566.19	2292.14
566.54	2292.97
566.89	2293.93
567.25	2294.39
567.60	2295.76
567.96	2297.57
568.31	2298.37
568.66	2299.33
569.02	2299.80
569.37	2300.01
569.72	2300.86
570.08	2300.98
570.43	2301.21
570.78	2300.71
571.14	2299.21
571.49	2297.87
571.84	2297.67
572.20	2296.56
572.55	2295.50
572.90	2293.90
573.26	2292.61
573.61	2291.09
573.96	2289.44
574.31	2286.59
574.67	2283.79
575.02	2280.22
575.37	2276.79
575.72	2272.87
576.08	2269.74
576.43	2266.60
576.78	2263.00
577.13	2259.94
577.49	2256.96
577.84	2253.34
578.19	2249.64
578.54	2246.05
578.90	2241.70
579.25	2236.14
579.60	2231.17
579.95	2226.36
580.30	2221.43
580.66	2216.30
581.01	2211.25
581.36	2206.27
581.71	2202.17
582.06	2197.61
582.42	2193.10
582.77	2187.88
583.12	2183.48
583.47	2178.71
583.82	2173.70
584.17	2168.44
584.53	2162.91
584.88	2157.34
585.23	2151.72
585.58	2146.35
585.93	2140.83
586.28	2136.13
586.63	2131.04
586.98	2126.10
587.34	2121.37
587.69	2116.47
588.04	2111.05
588.39	2105.41
588.74	2098.91
589.09	2092.81
589.44	2086.02
589.79	2080.12
590.14	2074.57
590.49	2068.01
590.84	2061.63
591.19	2055.55
591.54	2049.00
591.89	2041.48
592.25	2034.53
592.60	2027.25
592.95	2019.51
593.30	2012.19
593.65	2004.70
594.00	1997.76
594.35	1990.50
594.70	1982.46
595.05	1975.20
595.40	1968.04
595.75	1960.52
596.10	1954.25
596.45	1947.39
596.80	1941.33
597.15	1934.72
597.50	1927.61
597.85	1921.17
598.19	1914.48
598.54	1907.34
598.89	1900.80
599.24	1894.95
599.59	1888.31
599.94	1882.11
600.29	1875.76
600.64	1869.20
600.99	1861.71
601.34	1854.89
601.69	1847.92
602.04	1841.00
602.39	1833.74
602.74	1826.94
603.08	1820.22
603.43	1813.60
603.78	1806.39
604.13	1799.18
604.48	1791.67
604.83	1784.71
605.18	1777.60
605.53	1769.57
605.87	1761.68
606.22	1754.53
606.57	1746.65
606.92	1739.35
607.27	1732.18
607.62	1725.40
607.96	1718.01
608.31	1711.40
608.66	1703.70
609.01	1696.08
609.36	1688.41
609.70	1680.34
610.05	1672.19
610.40	1664.44
610.75	1656.16
611.10	1648.34
611.44	1639.92
611.79	1632.12
612.14	1623.43
612.49	1614.42
612.83	1606.12
613.18	1597.90
613.53	1589.70
613.88	1581.02
614.22	1572.73
614.57	1564.13
614.92	1556.00
615.27	1548.42
615.61	1539.98
615.96	1531.97
616.31	1524.33
616.65	1517.06
617.00	1509.52
617.35	1501.79
617.70	1493.49
618.04	1484.92
618.39	1476.73
618.74	1469.08
619.08	1460.72
619.43	1453.30
619.78	1446.31
620.12	1439.15
620.47	1431.71
620.82	1423.50
621.16	1416.19
621.51	1408.54
621.85	1401.01
622.20	1392.45
622.55	1384.22
622.89	1376.38
623.24	1368.67
623.59	1361.32
623.93	1353.78
624.28	1346.53
624.62	1338.96
624.97	1331.72
625.32	1324.98
625.66	1317.98
626.01	1310.85
626.35	1303.38
626.70	1295.58
627.04	1287.89
627.39	1280.14
627.73	1272.61
628.08	1265.79
628.43	1258.48
628.77	1251.06
629.12	1243.52
629.46	1236.32
629.81	1228.95
630.15	1221.81
630.50	1214.45
630.84	1206.19
631.19	1198.32
631.53	1190.91
631.88	1183.45
632.22	1175.93
632.57	1168.63
632.91	1161.15
633.26	1153.70
633.60	1146.31
633.95	1139.22
634.29	1132.17
634.64	1125.43
634.98	1118.15
635.32	1110.94
635.67	1104.39
636.01	1097.76
636.36	1090.92
636.70	1084.44
637.05	1077.83
637.39	1071.35
637.73	1064.80
638.08	1058.89
638.42	1052.87
638.77	1046.28
639.11	1039.70
639.45	1033.25
639.80	1026.47
640.14	1020.03
640.49	1013.45
640.83	1007.19
641.17	1000.89
641.52	994.49
641.86	988.03
642.20	982.25
642.55	975.96
642.89	969.42
643.23	962.92
643.58	957.07
643.92	950.85
644.26	944.74
644.61	938.71
644.95	932.66
645.29	926.07
645.64	919.34
645.98	913.02
646.32	907.20
646.66	901.17
647.01	895.43
647.35	889.68
647.69	883.82
648.04	878.28
648.38	872.46
648.72	866.52
649.06	860.40
649.41	854.43
649.75	848.43
650.09	842.50
650.43	836.78
650.78	830.61
651.12	824.65
651.46	818.93
651.80	813.13
652.14	807.79
652.49	802.46
652.83	797.26
653.17	791.57
653.51	785.85
653.85	780.47
654.20	774.84
654.54	768.83
654.88	763.16
655.22	757.24
655.56	751.56
655.90	746.15
656.25	740.97
656.59	735.68
656.93	730.61
657.27	725.43
657.61	719.94
657.95	714.84
658.29	709.75
658.64	704.53
658.98	699.25
659.32	693.77
659.66	688.57
660.00	683.25
660.34	678.25
660.68	673.33
661.02	668.29
661.36	663.55
661.70	659.12
662.05	654.71
662.39	650.37
662.73	645.86
663.07	641.48
663.41	637.02
663.75	632.46
664.09	627.90
664.43	623.50
664.77	619.37
665.11	615.15
665.45	611.04
665.79	606.92
666.13	602.79
666.47	598.67
666.81	594.42
667.15	590.34
667.49	586.51
667.83	582.72
668.17	578.80
668.51	574.72
668.85	570.68
669.19	566.93
669.53	563.10
669.87	559.28
670.21	555.53
670.55	551.87
670.89	548.44
671.23	545.04
671.57	541.52
671.91	538.00
672.25	534.46
672.58	530.99
672.92	527.58
673.26	524.36
673.60	521.21
673.94	518.14
674.28	515.20
674.62	512.23
674.96	509.07
675.30	506.13
675.64	503.27
675.97	500.48
676.31	497.52
676.65	494.55
676.99	491.83
677.33	488.98
677.67	486.16
678.01	483.13
678.34	480.10
678.68	477.16
679.02	474.38
679.36	471.66
679.70	468.92
680.04	466.19
680.37	463.36
680.71	460.52
681.05	457.94
681.39	455.21
681.73	452.59
682.06	450.09
682.40	447.54
682.74	444.91
683.08	442.34
683.42	439.76
683.75	437.29
684.09	434.73
684.43	432.24
684.77	429.77
685.10	427.44
685.44	425.18
685.78	422.96
686.12	420.72
686.45	418.38
686.79	416.09
687.13	413.83
687.46	411.69
687.80	409.57
688.14	407.37
688.48	405.29
688.81	403.04
689.15	400.89
689.49	398.75
689.82	396.70
690.16	394.63
690.50	392.68
690.83	390.68
691.17	388.75
691.51	386.82
691.84	385.02
692.18	383.05
692.52	381.04
692.85	379.09
693.19	377.17
693.52	375.39
693.86	373.58
694.20	371.80
694.53	369.95
694.87	368.11
695.21	366.29
695.54	364.45
695.88	362.74
696.21	360.99
696.55	359.37
696.88	357.68
697.22	356.03
697.56	354.39
697.89	352.80
698.23	351.14
698.56	349.56
698.90	347.93
699.23	346.33
699.57	344.80
699.90	343.26
700.24	341.70
700.58	340.14
700.91	338.63
701.25	337.19
701.58	335.82
701.92	334.44
702.25	333.09
702.59	331.75
702.92	330.37
703.26	329.08
703.59	327.75
703.93	326.57
704.26	325.33
704.60	324.00
704.93	322.70
705.26	321.49
705.60	320.32
705.93	319.18
706.27	318.12
706.60	317.06
706.94	315.99
707.27	314.88
707.61	313.81
707.94	312.80
708.27	311.74
708.61	310.67
708.94	309.71
709.28	308.71
709.61	307.72
709.94	306.77
710.28	305.72
710.61	304.72
710.95	303.67
711.28	302.77
711.61	301.87
711.95	300.96
712.28	299.99
712.61	299.00
712.95	298.07
713.28	297.21
713.61	296.34
713.95	295.45
714.28	294.65
714.61	293.82
714.95	292.94
715.28	292.07
715.61	291.21
715.95	290.37
716.28	289.52
716.61	288.75
716.95	287.98
717.28	287.27
717.61	286.55
717.94	285.82
718.28	284.99
718.61	284.28
718.94	283.63
719.27	283.00
719.61	282.35
719.94	281.68
720.27	280.93
720.60	280.25
720.94	279.62
721.27	279.00
721.60	278.45
721.93	277.90
722.27	277.34
722.60	276.78
722.93	276.17
723.26	275.65
723.59	275.04
723.93	274.52
724.26	273.95
724.59	273.38
724.92	272.86
725.25	272.36
725.59	271.83
725.92	271.24
726.25	270.69
726.58	270.22
726.91	269.68
727.24	269.22
727.57	268.74
727.91	268.24
728.24	267.77
728.57	267.25
728.90	266.77
729.23	266.27
729.56	265.85
729.89	265.38
730.22	264.88
730.55	264.44
730.89	263.95
731.22	263.51
731.55	263.06
731.88	262.60
732.21	262.18
732.54	261.72
732.87	261.29
733.20	260.94
733.53	260.58
733.86	260.24
734.19	259.84
734.52	259.47
734.85	259.11
735.18	258.67
735.51	258.31
735.84	257.94
736.17	257.57
736.50	257.17
736.83	256.91
737.16	256.58
737.49	256.23
737.82	255.89
738.15	255.55
738.48	255.21
738.81	254.89
739.14	254.55
739.47	254.22
739.80	253.95
740.13	253.58
740.46	253.21
740.79	252.88
741.12	252.55
741.45	252.21
741.78	251.85
742.11	251.60
742.44	251.31
742.77	251.00
743.10	250.74
743.43	250.41
743.75	250.04
744.08	249.88
744.41	249.61
744.74	249.36
745.07	249.06
745.40	248.80
745.73	248.55
746.06	248.24
746.39	247.99
746.71	247.75
747.04	247.48
747.37	247.21
747.70	246.98
748.03	246.75
748.36	246.55
748.68	246.32
749.01	246.04
749.34	245.78
749.67	245.55
750.00	245.32
750.33	245.20
750.65	244.99
750.98	244.64
751.31	244.42
751.64	244.19
751.97	244.03
752.29	243.82
752.62	243.55
752.95	243.34
753.28	243.14
753.60	242.90
753.93	242.73
754.26	242.54
754.59	242.32
754.91	242.12
755.24	241.92
755.57	241.73
755.90	241.56
756.22	241.36
756.55	241.19
756.88	241.01
757.20	240.77
757.53	240.61
757.86	240.46
758.19	240.30
758.51	240.11
758.84	239.90
759.17	239.74
759.49	239.64
759.82	239.57
760.15	239.40
760.47	239.27
760.80	239.13
761.13	239.01
761.45	238.86
761.78	238.70
762.11	238.57
762.43	238.41
762.76	238.28
763.08	238.16
763.41	238.02
763.74	237.88
764.06	237.74
764.39	237.57
764.71	237.42
765.04	237.27
765.37	237.16
765.69	237.03
766.02	236.91
766.34	236.78
766.67	236.63
767.00	236.57
767.32	236.46
767.65	236.40
767.97	236.27
768.30	236.15
768.62	236.04
768.95	235.87
769.27	235.79
769.60	235.68
769.92	235.55
770.25	235.41
770.57	235.30
770.90	235.18
771.22	235.12
771.55	235.01
771.87	234.90
772.20	234.78
772.52	234.79
772.85	234.79
773.17	234.70
773.50	234.57
773.82	234.44
774.15	234.31
774.47	234.13
774.80	234.07
775.12	233.98
775.45	233.91
775.77	233.82
776.09	233.74
776.42	233.65
776.74	233.60
777.07	233.50
777.39	233.39
777.72	233.30
778.04	233.20
778.36	233.13
778.69	233.08
779.01	233.02
779.33	232.85
779.66	232.69
779.98	232.62
780.31	232.58
780.63	232.57
780.95	232.51
781.28	232.44
781.60	232.35
781.92	232.28
782.25	232.20
782.57	232.16
782.89	232.07
783.22	231.98
783.54	231.90
783.86	231.88
784.19	231.85
784.51	231.82
784.83	231.77
785.16	231.69
785.48	231.62
785.80	231.56
786.12	231.53
786.45	231.46
786.77	231.39
787.09	231.34
787.42	231.23
787.74	231.19
788.06	231.18
788.38	231.11
788.71	231.08
789.03	231.06
789.35	231.05
789.67	231.02
789.99	231.02
790.32	230.98
790.64	230.94
790.96	230.99
791.28	230.91
791.61	230.88
791.93	230.87
792.25	230.85
792.57	230.90
792.89	230.85
793.21	230.81
793.54	230.80
793.86	230.75
794.18	230.71
794.50	230.67
794.82	230.63
795.14	230.62
795.47	230.58
795.79	230.56
796.11	230.48
796.43	230.43
796.75	230.39
797.07	230.42
797.39	230.40
797.71	230.27
798.04	230.23
798.36	230.20
798.68	230.15
799.00	230.15
799.32	230.07
799.64	230.05
799.96	230.04
800.28	230.03
800.60	229.99
800.92	230.02
801.24	229.97
801.56	229.97
801.89	229.92
802.21	229.91
802.53	229.84
802.85	229.83
803.17	229.86
803.49	229.83
803.81	229.77
804.13	229.73
804.45	229.72
804.77	229.75
805.09	229.74
805.41	229.71
805.73	229.63
806.05	229.58
806.37	229.56
806.69	229.52
807.01	229.49
807.33	229.50
807.65	229.42
807.97	229.48
808.28	229.42
808.60	229.38
808.92	229.32
809.24	229.36
809.56	229.30
809.88	229.27
810.20	229.25
810.52	229.23
810.84	229.20
811.16	229.16
811.48	229.13
811.80	229.13
812.12	229.08
812.43	229.07
812.75	229.03
813.07	228.99
813.39	228.95
813.71	228.89
814.03	228.80
814.35	228.77
814.67	228.71
814.98	228.67
815.30	228.64
815.62	228.61
815.94	228.54
816.26	228.56
816.58	228.54
816.89	228.49
817.21	228.44
817.53	228.42
817.85	228.40
818.17	228.36
818.48	228.29
818.80	228.33
819.12	228.29
819.44	228.27
819.76	228.25
820.07	228.25
820.39	228.24
820.71	228.27
821.03	228.25
821.34	228.18
821.66	228.22
821.98	228.23
822.30	228.23
822.61	228.26
822.93	228.19
823.25	228.17
823.57	228.20
823.88	228.17
824.20	228.14
824.52	228.13
824.83	228.11
825.15	228.11
825.47	228.07
825.79	228.12
826.10	228.12
826.42	228.08
826.74	228.09
827.05	228.10
827.37	228.09
827.69	228.06
828.00	228.08
828.32	228.07
828.64	228.06
828.95	228.09
829.27	228.05
829.58	228.07
829.90	228.06
830.22	228.02
830.53	228.02
830.85	228.01
831.17	227.98
831.48	227.99
831.80	227.96
832.11	227.95
832.43	227.90
832.75	227.88
833.06	227.95
833.38	227.91
833.69	227.87
834.01	227.83
834.32	227.81
834.64	227.81
834.96	227.82
835.27	227.82
835.59	227.78
835.90	227.75
836.22	227.75
836.53	227.71
836.85	227.69
837.16	227.78
837.48	227.78
837.79	227.82
838.11	227.80
838.42	227.83
838.74	227.87
839.05	227.84
839.37	227.83
839.68	227.79
840.00	227.78
840.31	227.79
840.63	227.79
840.94	227.80
841.26	227.73
841.57	227.70
841.88	227.69
842.20	227.67
842.51	227.64
842.83	227.63
843.14	227.70
843.46	227.72
843.77	227.65
844.08	227.62
844.40	227.56
844.71	227.53
845.03	227.49
845.34	227.40
845.65	227.39
845.97	227.35
846.28	227.35
846.60	227.33
846.91	227.27
847.22	227.26
847.54	227.26
847.85	227.31
848.16	227.30
848.48	227.25
848.79	227.28
849.10	227.27
849.42	227.20
849.73	227.09
850.04	227.08
850.36	227.05
850.67	227.04
850.98	227.04
851.30	227.03
851.61	227.06
851.92	227.07
852.23	227.10
852.55	227.11
852.86	227.09
853.17	227.10
853.49	227.16
853.80	227.18
854.11	227.20
854.42	227.19
854.74	227.14
855.05	227.14
855.36	227.09
855.67	227.12
855.99	227.18
856.30	227.31
856.61	227.28
856.92	227.24
857.23	227.23
857.55	227.22
857.86	227.23
858.17	227.21
858.48	227.21
858.79	227.20
859.11	227.25
859.42	227.22
859.73	227.20
860.04	227.19
860.35	227.18
860.66	227.13
860.98	227.10
861.29	227.12
861.60	227.12
861.91	227.13
862.22	227.12
862.53	227.09
862.84	226.96
863.16	226.99
863.47	227.00
863.78	227.02
864.09	227.01
864.40	227.05
864.71	227.08
865.02	227.10
865.33	227.06
865.64	227.03
865.95	227.04
866.27	227.13
866.58	227.12
866.89	227.10
867.20	227.12
867.51	227.14
867.82	227.13
868.13	227.16
868.44	227.16
868.75	227.18
869.06	227.21
869.37	227.25
869.68	227.21
869.99	227.27
870.30	227.25
870.61	227.26
870.92	227.24
871.23	227.20
871.54	227.22
871.85	227.25
872.16	227.28
872.47	227.24
872.78	227.17
873.09	227.18
873.40	227.17
873.71	227.15
874.02	227.13
874.33	227.17
874.64	227.18
874.95	227.19
875.26	227.15
875.56	227.12
875.87	227.11
876.18	227.14
876.49	227.22
876.80	227.20
877.11	227.23
877.42	227.22
877.73	227.21
878.04	227.17
878.35	227.20
878.66	227.18
878.96	227.21
879.27	227.18
879.58	227.18
879.89	227.19
880.20	227.22
880.51	227.22
880.82	227.19
881.12	227.17
881.43	227.15
881.74	227.14
882.05	227.13
882.36	227.12
882.67	227.15
882.97	227.02
883.28	227.00
883.59	226.99
883.90	226.98
884.21	226.97
884.51	227.00
884.82	226.96
885.13	226.94
885.44	226.92
885.74	226.92
886.05	226.91
886.36	226.87
886.67	226.86
886.98	226.90
887.28	226.88
887.59	226.87
887.90	226.88
888.20	226.88
888.51	226.90
888.82	226.90
889.13	226.85
889.43	226.92
889.74	226.93
890.05	226.91
890.35	226.90
890.66	226.93
890.97	226.89
891.28	226.89
891.58	226.92
891.89	226.90
892.20	226.89
892.50	226.88
892.81	226.89
893.12	226.85
893.42	226.81
893.73	226.80
894.04	226.79
894.34	226.80
894.65	226.78
894.95	226.76
895.26	226.75
895.57	226.80
895.87	226.71
896.18	226.72
896.48	226.73
896.79	226.73
897.10	226.73
897.40	226.77
897.71	226.77
898.01	226.74
898.32	226.80
898.63	226.80
898.93	226.83
899.24	226.82
899.54	226.82
899.85	226.83
900.15	226.87
900.46	226.86
900.76	226.86
901.07	226.87
901.38	226.83
901.68	226.85
901.99	226.83
902.29	226.83
902.60	226.83
902.90	226.85
903.21	226.84
903.51	226.85
903.82	226.85
904.12	226.85
904.43	226.85
904.73	226.84
905.03	226.88
905.34	226.95
905.64	226.96
905.95	227.00
906.25	227.01
906.56	226.99
906.86	226.98
907.17	226.98
907.47	226.99
907.77	226.99
908.08	226.99
908.38	226.96
908.69	226.99
908.99	227.03
909.30	227.04
909.60	227.06
909.90	227.07
910.21	227.04
910.51	227.05
910.81	227.04
911.12	227.03
911.42	227.01
911.73	226.95
912.03	226.95
912.33	226.93
912.64	226.94
912.94	226.94
913.24	226.94
913.55	226.94
913.85	226.94
914.15	226.98
914.46	226.97
914.76	226.97
915.06	226.97
915.37	226.96
915.67	226.92
915.97	226.91
916.27	226.85
916.58	226.84
916.88	226.82
917.18	226.82
917.49	226.90
917.79	226.91
918.09	226.90
918.39	226.91
918.70	226.93
919.00	226.90
919.30	226.95
919.60	226.97
919.91	226.97
920.21	226.99
920.51	226.98
920.81	227.01
921.12	227.02
921.42	227.01
921.72	226.98
922.02	226.97
922.32	226.96
922.63	226.98
922.93	227.01
923.23	227.00
923.53	226.99
923.83	226.91
924.13	226.89
924.44	226.89
924.74	226.92
925.04	226.91
925.34	226.90
925.64	226.83
925.94	226.82
926.24	226.86
926.55	226.81
926.85	226.81
927.15	226.80
927.45	226.80
927.75	226.79
928.05	226.83
928.35	226.83
928.65	226.86
928.95	226.86
929.26	226.84
929.56	226.87
929.86	226.85
930.16	226.83
930.46	226.81
930.76	226.78
931.06	226.69
931.36	226.66
931.66	226.69
931.96	226.71
932.26	226.72
932.56	226.68
932.86	226.68
933.16	226.67
933.46	226.65
933.76	226.64
934.06	226.64
934.36	226.62
934.66	226.59
934.96	226.58
935.26	226.56
935.56	226.57
935.86	226.51
936.16	226.53
936.46	226.52
936.76	226.54
937.06	226.55
937.36	226.59
937.66	226.61
937.96	226.59
938.26	226.57
938.56	226.55
938.86	226.55
939.16	226.61
939.46	226.63
939.76	226.62
940.06	226.60
940.35	226.64
940.65	226.61
940.95	226.64
941.25	226.62
941.55	226.64
941.85	226.62
942.15	226.68
942.45	226.71
942.75	226.71
943.04	226.71
943.34	226.72
943.64	226.72
943.94	226.71
944.24	226.73
944.54	226.72
944.84	226.74
945.13	226.72
945.43	226.70
945.73	226.68
946.03	226.68
946.33	226.67
946.62	226.64
946.92	226.64
947.22	226.66
947.52	226.67
947.82	226.70
948.11	226.70
948.41	226.68
948.71	226.64
949.01	226.69
949.31	226.70
949.60	226.71
949.90	226.72
950.20	226.74
950.50	226.72
950.79	226.72
951.09	226.73
951.39	226.74
951.69	226.72
951.98	226.76
952.28	226.75
952.58	226.75
952.87	226.77
953.17	226.78
953.47	226.74
953.76	226.74
954.06	226.71
954.36	226.67
954.66	226.65
954.95	226.67
955.25	226.62
955.55	226.61
955.84	226.58
956.14	226.58
956.44	226.58
956.73	226.56
957.03	226.59
957.32	226.59
957.62	226.60
957.92	226.64
958.21	226.61
958.51	226.72
958.81	226.72
959.10	226.66
959.40	226.68
959.69	226.68
959.99	226.71
960.29	226.71
960.58	226.73
960.88	226.75
961.17	226.75
961.47	226.77
961.76	226.77
962.06	226.80
962.36	226.80
962.65	226.81
962.95	226.83
963.24	226.80
963.54	226.80
963.83	226.78
964.13	226.76
964.42	226.76
964.72	226.70
965.01	226.70
965.31	226.74
965.60	226.73
965.90	226.78
966.19	226.74
966.49	226.73
966.78	226.73
967.08	226.73
967.37	226.71
967.67	226.74
967.96	226.73
968.26	226.71
968.55	226.71
968.85	226.67
969.14	226.65
969.43	226.66
969.73	226.65
970.02	226.64
970.32	226.65
970.61	226.64
970.91	226.61
971.20	226.63
971.49	226.60
971.79	226.62
972.08	226.59
972.38	226.63
972.67	226.63
972.96	226.64
973.26	226.63
973.55	226.68
973.85	226.64
974.14	226.64
974.43	226.63
974.73	226.64
975.02	226.70
975.31	226.69
975.61	226.68
975.90	226.68
976.19	226.69
976.49	226.68
976.78	226.68
977.07	226.69
977.37	226.70
977.66	226.70
977.95	226.67
978.24	226.67
978.54	226.72
978.83	226.72
979.12	226.70
979.42	226.70
979.71	226.69
980.00	226.69
980.29	226.71
980.59	226.70
980.88	226.71
981.17	226.68
981.46	226.71
981.76	226.71
982.05	226.74
982.34	226.73
982.63	226.73
982.93	226.74
983.22	226.76
983.51	226.72
983.80	226.75
984.09	226.77
984.39	226.79
984.68	226.73
984.97	226.75
985.26	226.76
985.55	226.76
985.85	226.75
986.14	226.77
986.43	226.78
986.72	226.80
987.01	226.76
987.30	226.75
987.59	226.71
987.89	226.74
988.18	226.71
988.47	226.69
988.76	226.65
989.05	226.62
989.34	226.57
989.63	226.62
989.92	226.62
990.22	226.61
990.51	226.58
990.80	226.58
991.09	226.60
991.38	226.60
991.67	226.56
991.96	226.57
992.25	226.54
992.54	226.51
992.83	226.47
993.12	226.47
993.41	226.49
993.70	226.55
993.99	226.55
994.28	226.56
994.58	226.60
994.87	226.62
995.16	226.62
995.45	226.63
995.74	226.63
996.03	226.61
996.32	226.61
996.61	226.63
996.90	226.60
997.19	226.56
997.48	226.58
997.77	226.58
998.06	226.58
998.34	226.56
998.63	226.56
998.92	226.59
999.21	226.60
999.50	226.60
999.79	226.56
1000.08	226.53
1000.37	226.54
1000.66	226.51
1000.95	226.51
1001.24	226.53
1001.53	226.56
1001.82	226.52
1002.11	226.51
1002.40	226.51
1002.68	226.52
1002.97	226.62
1003.26	226.60
1003.55	226.59
1003.84	226.63
1004.13	226.65
1004.42	226.66
1004.71	226.67
1004.99	226.64
1005.28	226.68
1005.57	226.67
1005.86	226.72
1006.15	226.75
1006.44	226.74
1006.72	226.77
1007.01	226.77
1007.30	226.80
1007.59	226.80
1007.88	226.81
1008.17	226.80
1008.45	226.80
1008.74	226.79
1009.03	226.73
1009.32	226.77
1009.60	226.78
1009.89	226.77
1010.18	226.75
1010.47	226.73
1010.76	226.77
1011.04	226.79
1011.33	226.79
1011.62	226.81
1011.91	226.79
1012.19	226.80
1012.48	226.82
1012.77	226.81
1013.05	226.85
1013.34	226.84
1013.63	226.82
1013.92	226.83
1014.20	226.85
1014.49	226.86
1014.78	226.85
1015.06	226.84
1015.35	226.85
1015.64	226.85
1015.92	226.88
1016.21	226.89
1016.50	226.94
1016.78	226.92
1017.07	226.94
1017.36	226.91
1017.64	226.87
1017.93	226.87
1018.22	226.85
1018.50	226.84
1018.79	226.86
1019.08	226.81
1019.36	226.81
1019.65	226.84
1019.93	226.87
1020.22	226.88
1020.51	226.93
1020.79	226.92
1021.08	226.59
1021.36	226.91
1021.65	227.37
1021.94	226.50
1022.22	226.72
1022.51	227.25
1022.79	227.17
1023.08	226.86
1023.36	227.80
1023.65	226.49
>>>>>End Processed Spectral Data<<<<<
