SpectraSuite Data File
++++++++++++++++++++++++++++++++++++
Date: Fri Feb 01 15:28:40 EST 2013
User: group
Dark Spectrum Present: No
Reference Spectrum Present: No
Number of Sampled Component Spectra: 1
Spectrometers: USB2E7196
Integration Time (usec): 35000 (USB2E7196)
Spectra Averaged: 100 (USB2E7196)
Boxcar Smoothing: 10 (USB2E7196)
Correct for Electrical Dark: No (USB2E7196)
Strobe/Lamp Enabled: No (USB2E7196)
Correct for Detector Non-linearity: No (USB2E7196)
Correct for Stray Light: No (USB2E7196)
Number of Pixels in Processed Spectrum: 2048
>>>>>Begin Processed Spectral Data<<<<<
339.09	0.00
339.48	214.82
339.86	216.42
340.24	217.94
340.63	218.93
341.01	221.56
341.39	221.60
341.78	223.34
342.16	224.10
342.54	224.76
342.93	213.28
343.31	224.07
343.69	224.60
344.07	225.07
344.46	225.50
344.84	225.90
345.22	226.15
345.60	226.43
345.99	226.62
346.37	226.77
346.75	226.89
347.13	226.97
347.52	227.05
347.90	227.13
348.28	227.17
348.66	227.18
349.05	227.20
349.43	227.24
349.81	227.28
350.19	227.31
350.57	227.38
350.96	227.45
351.34	227.53
351.72	227.63
352.10	227.74
352.48	227.81
352.87	227.86
353.25	227.96
353.63	228.00
354.01	228.08
354.39	228.16
354.77	228.21
355.15	228.31
355.54	228.37
355.92	228.40
356.30	228.48
356.68	228.62
357.06	228.68
357.44	228.73
357.82	228.78
358.20	228.88
358.58	228.94
358.97	228.99
359.35	229.07
359.73	229.14
360.11	229.17
360.49	229.20
360.87	229.26
361.25	229.29
361.63	229.37
362.01	229.40
362.39	229.45
362.77	229.52
363.15	229.51
363.53	229.52
363.91	229.55
364.29	229.58
364.67	229.51
365.05	229.52
365.43	229.55
365.81	229.57
366.19	229.61
366.57	229.65
366.95	229.64
367.33	229.62
367.71	229.60
368.09	229.63
368.47	229.64
368.85	229.60
369.23	229.58
369.61	229.53
369.99	229.54
370.37	229.47
370.75	229.45
371.13	229.38
371.51	229.35
371.89	229.30
372.27	229.23
372.65	229.19
373.03	229.14
373.41	229.07
373.78	229.01
374.16	228.92
374.54	228.85
374.92	228.76
375.30	228.67
375.68	228.61
376.06	228.51
376.44	228.43
376.82	228.39
377.19	228.33
377.57	228.25
377.95	228.16
378.33	228.10
378.71	228.00
379.09	227.95
379.47	227.94
379.84	227.90
380.22	227.85
380.60	227.76
380.98	227.71
381.36	227.65
381.73	227.57
382.11	227.53
382.49	227.45
382.87	227.43
383.25	227.39
383.62	227.46
384.00	227.38
384.38	227.35
384.76	227.30
385.13	227.30
385.51	227.24
385.89	227.16
386.27	227.11
386.64	227.07
387.02	227.03
387.40	226.92
387.78	226.86
388.15	226.81
388.53	226.76
388.91	226.74
389.29	226.71
389.66	226.71
390.04	226.66
390.42	226.64
390.79	226.59
391.17	226.57
391.55	226.43
391.92	226.42
392.30	226.39
392.68	226.33
393.05	226.30
393.43	226.34
393.81	226.35
394.18	226.35
394.56	226.35
394.94	226.40
395.31	226.43
395.69	226.50
396.06	226.57
396.44	226.60
396.82	226.63
397.19	226.72
397.57	226.73
397.95	226.79
398.32	226.81
398.70	226.85
399.07	226.94
399.45	226.99
399.82	227.09
400.20	227.15
400.58	227.28
400.95	227.33
401.33	227.39
401.70	227.52
402.08	227.65
402.45	227.76
402.83	227.86
403.20	227.97
403.58	228.03
403.95	228.15
404.33	228.29
404.71	228.38
405.08	228.57
405.46	228.70
405.83	228.85
406.21	229.02
406.58	229.20
406.96	229.36
407.33	229.54
407.70	229.73
408.08	229.98
408.45	230.18
408.83	230.41
409.20	230.61
409.58	230.82
409.95	231.04
410.33	231.30
410.70	231.56
411.08	231.84
411.45	232.16
411.82	232.43
412.20	232.77
412.57	233.19
412.95	233.47
413.32	233.88
413.69	234.29
414.07	234.75
414.44	235.21
414.82	235.69
415.19	236.24
415.56	236.79
415.94	237.36
416.31	238.01
416.68	238.66
417.06	239.41
417.43	240.09
417.81	240.87
418.18	241.63
418.55	242.48
418.93	243.37
419.30	244.32
419.67	245.27
420.04	246.26
420.42	247.27
420.79	248.42
421.16	249.59
421.54	250.80
421.91	252.00
422.28	253.25
422.66	254.58
423.03	255.92
423.40	257.27
423.77	258.71
424.15	260.17
424.52	261.66
424.89	263.24
425.26	264.82
425.64	266.32
426.01	267.96
426.38	269.66
426.75	271.31
427.13	273.02
427.50	274.87
427.87	276.77
428.24	278.64
428.61	280.45
428.99	282.37
429.36	284.47
429.73	286.54
430.10	288.60
430.47	290.67
430.85	292.80
431.22	295.04
431.59	297.37
431.96	299.62
432.33	302.10
432.70	304.49
433.08	307.32
433.45	309.92
433.82	312.50
434.19	315.36
434.56	318.21
434.93	320.86
435.30	323.45
435.68	326.35
436.05	329.18
436.42	332.00
436.79	334.52
437.16	337.26
437.53	340.09
437.90	342.93
438.27	345.69
438.64	348.53
439.01	351.16
439.38	353.42
439.75	355.57
440.13	358.10
440.50	360.47
440.87	362.30
441.24	364.29
441.61	366.47
441.98	367.97
442.35	369.78
442.72	371.65
443.09	373.47
443.46	374.45
443.83	375.00
444.20	375.50
444.57	376.31
444.94	376.56
445.31	376.88
445.68	377.23
446.05	377.28
446.42	376.89
446.79	376.50
447.16	376.01
447.53	375.69
447.90	374.49
448.27	373.32
448.64	371.75
449.01	370.57
449.37	368.62
449.74	366.68
450.11	364.44
450.48	361.96
450.85	359.40
451.22	357.28
451.59	355.33
451.96	353.37
452.33	350.81
452.70	348.46
453.07	345.63
453.43	342.72
453.80	339.97
454.17	337.26
454.54	334.68
454.91	331.98
455.28	329.24
455.65	326.73
456.02	324.25
456.38	322.05
456.75	319.42
457.12	317.13
457.49	314.92
457.86	312.72
458.23	310.85
458.59	308.82
458.96	306.69
459.33	304.78
459.70	302.90
460.07	301.33
460.43	299.57
460.80	297.96
461.17	296.50
461.54	294.95
461.91	293.52
462.27	292.10
462.64	290.83
463.01	289.53
463.38	288.22
463.74	286.85
464.11	285.70
464.48	284.62
464.85	283.49
465.21	282.62
465.58	281.69
465.95	280.61
466.32	279.67
466.68	278.76
467.05	277.91
467.42	277.01
467.78	276.06
468.15	275.21
468.52	274.53
468.88	273.63
469.25	272.88
469.62	272.24
469.98	271.54
470.35	270.91
470.72	270.28
471.08	269.64
471.45	269.10
471.82	268.56
472.18	268.00
472.55	267.61
472.92	267.07
473.28	266.60
473.65	266.12
474.02	265.69
474.38	265.36
474.75	264.98
475.11	264.61
475.48	264.40
475.85	264.17
476.21	263.93
476.58	263.78
476.94	263.64
477.31	263.46
477.67	263.33
478.04	263.19
478.41	263.13
478.77	263.17
479.14	263.12
479.50	263.14
479.87	263.19
480.23	263.24
480.60	263.33
480.96	263.43
481.33	263.66
481.69	263.82
482.06	263.98
482.42	264.17
482.79	264.43
483.15	264.73
483.52	265.10
483.88	265.45
484.25	265.84
484.61	266.28
484.98	266.71
485.34	267.24
485.71	267.84
486.07	268.43
486.44	268.99
486.80	269.69
487.17	270.36
487.53	271.13
487.90	271.98
488.26	272.91
488.62	273.88
488.99	274.82
489.35	275.87
489.72	277.00
490.08	278.22
490.44	279.42
490.81	280.73
491.17	282.07
491.54	283.57
491.90	285.12
492.26	286.76
492.63	288.54
492.99	290.28
493.36	292.21
493.72	294.24
494.08	296.38
494.45	298.62
494.81	300.99
495.17	303.42
495.54	305.94
495.90	308.65
496.26	311.47
496.63	314.44
496.99	317.55
497.35	320.81
497.72	324.19
498.08	327.75
498.44	331.45
498.80	335.37
499.17	339.33
499.53	343.48
499.89	347.83
500.26	352.30
500.62	356.95
500.98	361.90
501.34	367.01
501.71	372.28
502.07	377.71
502.43	383.36
502.79	389.16
503.16	395.26
503.52	401.50
503.88	407.89
504.24	414.53
504.60	421.43
504.97	428.54
505.33	435.91
505.69	443.60
506.05	451.36
506.41	459.27
506.78	467.47
507.14	475.89
507.50	484.61
507.86	493.62
508.22	502.94
508.59	512.14
508.95	521.76
509.31	531.60
509.67	541.73
510.03	552.02
510.39	562.61
510.75	573.37
511.12	584.32
511.48	595.66
511.84	607.17
512.20	618.69
512.56	630.63
512.92	642.80
513.28	655.22
513.64	667.70
514.00	680.40
514.37	693.35
514.73	706.46
515.09	719.53
515.45	732.85
515.81	746.44
516.17	760.44
516.53	774.58
516.89	788.83
517.25	803.05
517.61	817.53
517.97	832.07
518.33	846.62
518.69	861.44
519.05	876.45
519.41	891.69
519.77	907.28
520.13	922.78
520.49	938.28
520.85	953.69
521.21	969.53
521.57	985.87
521.93	1001.82
522.29	1018.28
522.65	1034.60
523.01	1050.85
523.37	1066.87
523.73	1083.20
524.09	1099.40
524.45	1115.76
524.81	1132.52
525.17	1149.34
525.53	1166.38
525.89	1183.26
526.25	1200.16
526.61	1216.59
526.97	1233.30
527.33	1249.92
527.68	1266.73
528.04	1283.26
528.40	1299.97
528.76	1317.11
529.12	1333.68
529.48	1350.45
529.84	1366.52
530.20	1383.27
530.56	1400.56
530.91	1418.01
531.27	1434.81
531.63	1451.38
531.99	1468.06
532.35	1484.07
532.71	1499.94
533.07	1516.15
533.42	1532.13
533.78	1548.17
534.14	1564.36
534.50	1579.74
534.86	1595.57
535.21	1610.67
535.57	1626.57
535.93	1642.13
536.29	1656.87
536.65	1672.07
537.00	1687.09
537.36	1702.54
537.72	1716.95
538.08	1731.19
538.44	1744.99
538.79	1758.96
539.15	1772.50
539.51	1786.16
539.87	1800.49
540.22	1814.27
540.58	1827.95
540.94	1841.39
541.29	1854.46
541.65	1867.28
542.01	1880.57
542.37	1892.97
542.72	1905.38
543.08	1917.22
543.44	1929.63
543.79	1941.00
544.15	1951.87
544.51	1963.32
544.87	1974.25
545.22	1985.22
545.58	1995.54
545.94	2005.42
546.29	2015.11
546.65	2024.98
547.01	2034.36
547.36	2043.27
547.72	2051.89
548.07	2059.86
548.43	2068.01
548.79	2076.05
549.14	2083.73
549.50	2091.17
549.86	2098.90
550.21	2106.31
550.57	2113.51
550.92	2120.18
551.28	2127.31
551.64	2134.72
551.99	2141.36
552.35	2147.62
552.70	2153.77
553.06	2159.74
553.41	2166.20
553.77	2172.43
554.13	2178.48
554.48	2184.54
554.84	2189.88
555.19	2195.18
555.55	2200.45
555.90	2205.01
556.26	2209.85
556.61	2214.52
556.97	2218.79
557.32	2223.06
557.68	2227.15
558.03	2231.53
558.39	2235.18
558.74	2239.66
559.10	2243.24
559.45	2246.81
559.81	2251.03
560.16	2254.92
560.52	2258.08
560.87	2261.50
561.23	2264.08
561.58	2267.12
561.94	2269.65
562.29	2272.04
562.64	2274.84
563.00	2277.36
563.35	2280.84
563.71	2283.91
564.06	2287.07
564.42	2290.04
564.77	2292.38
565.12	2294.74
565.48	2296.52
565.83	2298.44
566.19	2299.74
566.54	2300.89
566.89	2302.16
567.25	2302.79
567.60	2304.04
567.96	2305.78
568.31	2306.62
568.66	2307.73
569.02	2308.36
569.37	2308.70
569.72	2309.49
570.08	2309.45
570.43	2309.32
570.78	2308.53
571.14	2306.91
571.49	2305.61
571.84	2305.17
572.20	2303.85
572.55	2302.64
572.90	2301.01
573.26	2299.46
573.61	2297.78
573.96	2295.90
574.31	2292.74
574.67	2289.48
575.02	2285.72
575.37	2282.25
575.72	2278.37
576.08	2274.97
576.43	2271.60
576.78	2267.77
577.13	2264.48
577.49	2261.36
577.84	2257.99
578.19	2254.19
578.54	2250.41
578.90	2246.01
579.25	2240.25
579.60	2235.49
579.95	2230.55
580.30	2225.63
580.66	2220.35
581.01	2215.27
581.36	2210.16
581.71	2205.89
582.06	2201.44
582.42	2196.92
582.77	2191.59
583.12	2186.74
583.47	2181.86
583.82	2176.79
584.17	2171.47
584.53	2165.91
584.88	2160.23
585.23	2154.26
585.58	2148.86
585.93	2143.47
586.28	2138.75
586.63	2133.59
586.98	2128.25
587.34	2123.41
587.69	2118.32
588.04	2113.14
588.39	2107.37
588.74	2100.81
589.09	2094.67
589.44	2087.79
589.79	2081.55
590.14	2075.79
590.49	2069.17
590.84	2062.79
591.19	2056.62
591.54	2050.10
591.89	2042.52
592.25	2035.48
592.60	2028.37
592.95	2020.75
593.30	2013.28
593.65	2005.54
594.00	1998.52
594.35	1991.33
594.70	1983.14
595.05	1975.93
595.40	1968.61
595.75	1961.01
596.10	1954.67
596.45	1947.83
596.80	1941.65
597.15	1935.04
597.50	1927.89
597.85	1921.38
598.19	1914.69
598.54	1907.63
598.89	1901.00
599.24	1895.18
599.59	1888.51
599.94	1882.05
600.29	1875.66
600.64	1869.02
600.99	1861.52
601.34	1854.65
601.69	1847.54
602.04	1840.71
602.39	1833.23
602.74	1826.33
603.08	1819.60
603.43	1812.91
603.78	1805.56
604.13	1798.20
604.48	1791.01
604.83	1784.31
605.18	1777.36
605.53	1769.25
605.87	1761.10
606.22	1753.83
606.57	1745.81
606.92	1738.50
607.27	1731.41
607.62	1724.37
607.96	1717.15
608.31	1710.49
608.66	1702.75
609.01	1695.11
609.36	1687.49
609.70	1679.49
610.05	1671.28
610.40	1663.56
610.75	1655.13
611.10	1647.40
611.44	1639.04
611.79	1630.98
612.14	1622.21
612.49	1613.03
612.83	1604.62
613.18	1596.47
613.53	1588.37
613.88	1579.97
614.22	1571.80
614.57	1563.22
614.92	1555.24
615.27	1547.63
615.61	1539.28
615.96	1531.26
616.31	1523.66
616.65	1516.29
617.00	1508.69
617.35	1501.04
617.70	1492.73
618.04	1484.20
618.39	1475.88
618.74	1468.28
619.08	1460.01
619.43	1452.43
619.78	1445.61
620.12	1438.50
620.47	1431.00
620.82	1422.87
621.16	1415.31
621.51	1407.50
621.85	1399.92
622.20	1391.38
622.55	1383.07
622.89	1375.23
623.24	1367.67
623.59	1360.26
623.93	1352.72
624.28	1345.52
624.62	1338.02
624.97	1330.80
625.32	1324.06
625.66	1317.15
626.01	1309.88
626.35	1302.37
626.70	1294.55
627.04	1286.69
627.39	1278.90
627.73	1271.44
628.08	1264.42
628.43	1257.11
628.77	1249.78
629.12	1242.16
629.46	1234.87
629.81	1227.39
630.15	1220.27
630.50	1212.89
630.84	1204.71
631.19	1196.80
631.53	1189.29
631.88	1181.69
632.22	1174.10
632.57	1166.83
632.91	1159.31
633.26	1152.01
633.60	1144.63
633.95	1137.61
634.29	1130.63
634.64	1123.94
634.98	1116.62
635.32	1109.52
635.67	1103.01
636.01	1096.35
636.36	1089.53
636.70	1083.21
637.05	1076.61
637.39	1070.15
637.73	1063.67
638.08	1057.82
638.42	1051.85
638.77	1045.45
639.11	1038.89
639.45	1032.55
639.80	1025.85
640.14	1019.34
640.49	1012.83
640.83	1006.56
641.17	1000.35
641.52	994.08
641.86	987.64
642.20	981.79
642.55	975.54
642.89	969.05
643.23	962.56
643.58	956.74
643.92	950.42
644.26	944.46
644.61	938.39
644.95	932.28
645.29	925.67
645.64	918.90
645.98	912.52
646.32	906.68
646.66	900.68
647.01	894.89
647.35	889.31
647.69	883.51
648.04	877.95
648.38	872.11
648.72	866.11
649.06	859.99
649.41	854.10
649.75	848.01
650.09	842.02
650.43	836.22
650.78	830.02
651.12	824.03
651.46	818.21
651.80	812.43
652.14	807.05
652.49	801.71
652.83	796.47
653.17	790.74
653.51	784.99
653.85	779.48
654.20	773.85
654.54	767.78
654.88	762.06
655.22	756.14
655.56	750.53
655.90	745.02
656.25	739.83
656.59	734.43
656.93	729.39
657.27	724.28
657.61	718.85
657.95	713.83
658.29	708.79
658.64	703.53
658.98	698.22
659.32	692.72
659.66	687.52
660.00	682.25
660.34	677.38
660.68	672.51
661.02	667.49
661.36	662.81
661.70	658.33
662.05	653.96
662.39	649.68
662.73	645.17
663.07	640.80
663.41	636.36
663.75	631.92
664.09	627.30
664.43	622.96
664.77	618.82
665.11	614.57
665.45	610.52
665.79	606.53
666.13	602.42
666.47	598.38
666.81	594.19
667.15	590.11
667.49	586.17
667.83	582.31
668.17	578.42
668.51	574.37
668.85	570.39
669.19	566.53
669.53	562.64
669.87	558.77
670.21	555.09
670.55	551.42
670.89	547.95
671.23	544.62
671.57	541.11
671.91	537.57
672.25	534.08
672.58	530.53
672.92	527.14
673.26	524.00
673.60	520.89
673.94	517.79
674.28	514.87
674.62	511.93
674.96	508.85
675.30	505.92
675.64	503.02
675.97	500.23
676.31	497.37
676.65	494.53
676.99	491.81
677.33	488.92
677.67	486.10
678.01	483.08
678.34	480.07
678.68	477.17
679.02	474.36
679.36	471.58
679.70	468.90
680.04	466.08
680.37	463.23
680.71	460.45
681.05	457.85
681.39	455.13
681.73	452.52
682.06	449.94
682.40	447.43
682.74	444.90
683.08	442.37
683.42	439.76
683.75	437.24
684.09	434.70
684.43	432.25
684.77	429.82
685.10	427.51
685.44	425.19
685.78	422.90
686.12	420.66
686.45	418.40
686.79	416.08
687.13	413.94
687.46	411.75
687.80	409.55
688.14	407.37
688.48	405.34
688.81	403.09
689.15	400.97
689.49	398.84
689.82	396.71
690.16	394.67
690.50	392.72
690.83	390.77
691.17	388.77
691.51	386.86
691.84	385.02
692.18	383.06
692.52	381.09
692.85	379.17
693.19	377.27
693.52	375.41
693.86	373.62
694.20	371.82
694.53	370.01
694.87	368.18
695.21	366.38
695.54	364.57
695.88	362.82
696.21	361.13
696.55	359.42
696.88	357.75
697.22	355.98
697.56	354.36
697.89	352.71
698.23	351.11
698.56	349.50
698.90	347.90
699.23	346.27
699.57	344.72
699.90	343.18
700.24	341.67
700.58	340.14
700.91	338.63
701.25	337.18
701.58	335.81
701.92	334.44
702.25	333.06
702.59	331.69
702.92	330.37
703.26	329.05
703.59	327.78
703.93	326.60
704.26	325.45
704.60	324.15
704.93	322.88
705.26	321.64
705.60	320.47
705.93	319.33
706.27	318.28
706.60	317.23
706.94	316.14
707.27	314.97
707.61	313.95
707.94	312.92
708.27	311.88
708.61	310.81
708.94	309.82
709.28	308.84
709.61	307.89
709.94	306.93
710.28	305.93
710.61	304.97
710.95	303.90
711.28	303.00
711.61	302.07
711.95	301.13
712.28	300.19
712.61	299.21
712.95	298.27
713.28	297.41
713.61	296.51
713.95	295.64
714.28	294.85
714.61	293.95
714.95	293.08
715.28	292.19
715.61	291.29
715.95	290.46
716.28	289.60
716.61	288.73
716.95	287.92
717.28	287.16
717.61	286.37
717.94	285.64
718.28	284.79
718.61	284.07
718.94	283.40
719.27	282.76
719.61	282.14
719.94	281.47
720.27	280.75
720.60	280.12
720.94	279.46
721.27	278.85
721.60	278.31
721.93	277.71
722.27	277.14
722.60	276.60
722.93	276.02
723.26	275.48
723.59	274.91
723.93	274.36
724.26	273.83
724.59	273.28
724.92	272.74
725.25	272.26
725.59	271.75
725.92	271.26
726.25	270.72
726.58	270.20
726.91	269.71
727.24	269.23
727.57	268.72
727.91	268.22
728.24	267.74
728.57	267.27
728.90	266.82
729.23	266.33
729.56	265.91
729.89	265.45
730.22	264.96
730.55	264.52
730.89	264.08
731.22	263.60
731.55	263.18
731.88	262.77
732.21	262.34
732.54	261.86
732.87	261.43
733.20	261.02
733.53	260.65
733.86	260.29
734.19	259.88
734.52	259.50
734.85	259.23
735.18	258.79
735.51	258.40
735.84	258.06
736.17	257.72
736.50	257.29
736.83	257.06
737.16	256.75
737.49	256.41
737.82	256.04
738.15	255.73
738.48	255.36
738.81	255.03
739.14	254.70
739.47	254.40
739.80	254.08
740.13	253.77
740.46	253.42
740.79	253.10
741.12	252.82
741.45	252.54
741.78	252.19
742.11	251.90
742.44	251.56
742.77	251.26
743.10	250.95
743.43	250.68
743.75	250.27
744.08	250.09
744.41	249.82
744.74	249.56
745.07	249.30
745.40	249.10
745.73	248.86
746.06	248.62
746.39	248.37
746.71	248.11
747.04	247.80
747.37	247.60
747.70	247.34
748.03	247.07
748.36	246.84
748.68	246.57
749.01	246.36
749.34	246.16
749.67	245.93
750.00	245.73
750.33	245.57
750.65	245.34
750.98	245.03
751.31	244.81
751.64	244.62
751.97	244.45
752.29	244.21
752.62	243.97
752.95	243.75
753.28	243.54
753.60	243.34
753.93	243.17
754.26	242.98
754.59	242.75
754.91	242.54
755.24	242.34
755.57	242.15
755.90	241.96
756.22	241.73
756.55	241.51
756.88	241.29
757.20	241.08
757.53	240.88
757.86	240.70
758.19	240.55
758.51	240.40
758.84	240.15
759.17	239.95
759.49	239.80
759.82	239.66
760.15	239.53
760.47	239.36
760.80	239.21
761.13	239.05
761.45	238.90
761.78	238.77
762.11	238.60
762.43	238.41
762.76	238.27
763.08	238.17
763.41	238.05
763.74	237.91
764.06	237.75
764.39	237.61
764.71	237.47
765.04	237.32
765.37	237.15
765.69	237.07
766.02	236.97
766.34	236.86
766.67	236.70
767.00	236.54
767.32	236.48
767.65	236.40
767.97	236.27
768.30	236.17
768.62	236.01
768.95	235.93
769.27	235.88
769.60	235.77
769.92	235.64
770.25	235.54
770.57	235.41
770.90	235.32
771.22	235.24
771.55	235.16
771.87	235.06
772.20	234.97
772.52	234.94
772.85	234.94
773.17	234.79
773.50	234.72
773.82	234.63
774.15	234.48
774.47	234.36
774.80	234.28
775.12	234.23
775.45	234.17
775.77	234.09
776.09	234.03
776.42	233.93
776.74	233.91
777.07	233.83
777.39	233.77
777.72	233.74
778.04	233.66
778.36	233.55
778.69	233.49
779.01	233.41
779.33	233.26
779.66	233.11
779.98	233.04
780.31	232.95
780.63	232.94
780.95	232.89
781.28	232.85
781.60	232.77
781.92	232.67
782.25	232.60
782.57	232.55
782.89	232.42
783.22	232.37
783.54	232.29
783.86	232.26
784.19	232.22
784.51	232.16
784.83	232.09
785.16	232.08
785.48	232.03
785.80	232.02
786.12	231.97
786.45	231.94
786.77	231.94
787.09	231.88
787.42	231.82
787.74	231.77
788.06	231.69
788.38	231.65
788.71	231.60
789.03	231.58
789.35	231.56
789.67	231.54
789.99	231.51
790.32	231.45
790.64	231.40
790.96	231.44
791.28	231.39
791.61	231.38
791.93	231.35
792.25	231.32
792.57	231.31
792.89	231.27
793.21	231.25
793.54	231.15
793.86	231.14
794.18	231.11
794.50	231.07
794.82	231.04
795.14	231.01
795.47	231.02
795.79	230.99
796.11	230.93
796.43	230.90
796.75	230.89
797.07	230.86
797.39	230.80
797.71	230.71
798.04	230.67
798.36	230.61
798.68	230.59
799.00	230.56
799.32	230.51
799.64	230.50
799.96	230.46
800.28	230.49
800.60	230.45
800.92	230.44
801.24	230.40
801.56	230.43
801.89	230.39
802.21	230.38
802.53	230.36
802.85	230.35
803.17	230.37
803.49	230.30
803.81	230.27
804.13	230.25
804.45	230.20
804.77	230.22
805.09	230.20
805.41	230.14
805.73	230.11
806.05	230.03
806.37	230.00
806.69	229.92
807.01	229.90
807.33	229.87
807.65	229.83
807.97	229.83
808.28	229.77
808.60	229.76
808.92	229.70
809.24	229.70
809.56	229.67
809.88	229.60
810.20	229.61
810.52	229.60
810.84	229.55
811.16	229.51
811.48	229.45
811.80	229.46
812.12	229.41
812.43	229.37
812.75	229.35
813.07	229.32
813.39	229.31
813.71	229.25
814.03	229.25
814.35	229.20
814.67	229.17
814.98	229.13
815.30	229.09
815.62	229.06
815.94	228.94
816.26	228.96
816.58	228.92
816.89	228.91
817.21	228.88
817.53	228.90
817.85	228.89
818.17	228.85
818.48	228.79
818.80	228.79
819.12	228.78
819.44	228.74
819.76	228.72
820.07	228.70
820.39	228.69
820.71	228.65
821.03	228.64
821.34	228.59
821.66	228.59
821.98	228.57
822.30	228.56
822.61	228.63
822.93	228.55
823.25	228.52
823.57	228.48
823.88	228.47
824.20	228.43
824.52	228.43
824.83	228.43
825.15	228.41
825.47	228.40
825.79	228.39
826.10	228.40
826.42	228.35
826.74	228.37
827.05	228.33
827.37	228.32
827.69	228.32
828.00	228.32
828.32	228.30
828.64	228.32
828.95	228.37
829.27	228.36
829.58	228.38
829.90	228.40
830.22	228.39
830.53	228.37
830.85	228.38
831.17	228.34
831.48	228.36
831.80	228.38
832.11	228.32
832.43	228.32
832.75	228.30
833.06	228.36
833.38	228.34
833.69	228.31
834.01	228.31
834.32	228.28
834.64	228.26
834.96	228.25
835.27	228.24
835.59	228.15
835.90	228.14
836.22	228.10
836.53	228.07
836.85	228.09
837.16	228.17
837.48	228.15
837.79	228.18
838.11	228.15
838.42	228.15
838.74	228.19
839.05	228.17
839.37	228.18
839.68	228.10
840.00	228.10
840.31	228.11
840.63	228.09
840.94	228.10
841.26	228.06
841.57	228.06
841.88	228.04
842.20	228.07
842.51	228.00
842.83	228.01
843.14	228.08
843.46	228.03
843.77	227.98
844.08	227.95
844.40	227.94
844.71	227.91
845.03	227.85
845.34	227.85
845.65	227.85
845.97	227.82
846.28	227.85
846.60	227.85
846.91	227.85
847.22	227.86
847.54	227.88
847.85	227.88
848.16	227.86
848.48	227.85
848.79	227.85
849.10	227.86
849.42	227.83
849.73	227.75
850.04	227.78
850.36	227.75
850.67	227.77
850.98	227.75
851.30	227.79
851.61	227.79
851.92	227.77
852.23	227.79
852.55	227.79
852.86	227.79
853.17	227.78
853.49	227.80
853.80	227.79
854.11	227.80
854.42	227.82
854.74	227.81
855.05	227.79
855.36	227.75
855.67	227.75
855.99	227.77
856.30	227.90
856.61	227.89
856.92	227.86
857.23	227.86
857.55	227.86
857.86	227.80
858.17	227.80
858.48	227.81
858.79	227.79
859.11	227.82
859.42	227.78
859.73	227.76
860.04	227.73
860.35	227.69
860.66	227.64
860.98	227.66
861.29	227.64
861.60	227.64
861.91	227.70
862.22	227.67
862.53	227.63
862.84	227.46
863.16	227.46
863.47	227.44
863.78	227.41
864.09	227.42
864.40	227.43
864.71	227.43
865.02	227.40
865.33	227.38
865.64	227.36
865.95	227.36
866.27	227.44
866.58	227.44
866.89	227.48
867.20	227.49
867.51	227.45
867.82	227.46
868.13	227.50
868.44	227.47
868.75	227.50
869.06	227.51
869.37	227.50
869.68	227.48
869.99	227.52
870.30	227.56
870.61	227.56
870.92	227.55
871.23	227.54
871.54	227.58
871.85	227.60
872.16	227.58
872.47	227.57
872.78	227.52
873.09	227.57
873.40	227.54
873.71	227.53
874.02	227.54
874.33	227.52
874.64	227.43
874.95	227.44
875.26	227.42
875.56	227.44
875.87	227.45
876.18	227.45
876.49	227.53
876.80	227.51
877.11	227.46
877.42	227.50
877.73	227.50
878.04	227.48
878.35	227.48
878.66	227.49
878.96	227.49
879.27	227.47
879.58	227.42
879.89	227.39
880.20	227.43
880.51	227.42
880.82	227.43
881.12	227.47
881.43	227.44
881.74	227.42
882.05	227.39
882.36	227.39
882.67	227.43
882.97	227.28
883.28	227.28
883.59	227.29
883.90	227.25
884.21	227.28
884.51	227.24
884.82	227.21
885.13	227.22
885.44	227.23
885.74	227.22
886.05	227.22
886.36	227.25
886.67	227.22
886.98	227.24
887.28	227.28
887.59	227.25
887.90	227.25
888.20	227.28
888.51	227.31
888.82	227.31
889.13	227.28
889.43	227.40
889.74	227.38
890.05	227.36
890.35	227.36
890.66	227.36
890.97	227.35
891.28	227.34
891.58	227.32
891.89	227.29
892.20	227.27
892.50	227.24
892.81	227.20
893.12	227.19
893.42	227.16
893.73	227.12
894.04	227.13
894.34	227.16
894.65	227.12
894.95	227.07
895.26	227.07
895.57	227.09
895.87	227.00
896.18	227.03
896.48	227.06
896.79	227.06
897.10	227.04
897.40	227.06
897.71	227.09
898.01	227.09
898.32	227.10
898.63	227.09
898.93	227.13
899.24	227.17
899.54	227.18
899.85	227.16
900.15	227.16
900.46	227.19
900.76	227.18
901.07	227.19
901.38	227.19
901.68	227.19
901.99	227.16
902.29	227.17
902.60	227.15
902.90	227.18
903.21	227.20
903.51	227.24
903.82	227.22
904.12	227.23
904.43	227.21
904.73	227.26
905.03	227.29
905.34	227.37
905.64	227.35
905.95	227.36
906.25	227.36
906.56	227.38
906.86	227.38
907.17	227.38
907.47	227.39
907.77	227.40
908.08	227.44
908.38	227.43
908.69	227.44
908.99	227.46
909.30	227.43
909.60	227.40
909.90	227.39
910.21	227.41
910.51	227.40
910.81	227.42
911.12	227.40
911.42	227.41
911.73	227.31
912.03	227.32
912.33	227.36
912.64	227.39
912.94	227.38
913.24	227.35
913.55	227.30
913.85	227.30
914.15	227.32
914.46	227.30
914.76	227.31
915.06	227.29
915.37	227.23
915.67	227.22
915.97	227.22
916.27	227.20
916.58	227.19
916.88	227.17
917.18	227.17
917.49	227.21
917.79	227.18
918.09	227.17
918.39	227.18
918.70	227.17
919.00	227.14
919.30	227.18
919.60	227.18
919.91	227.20
920.21	227.18
920.51	227.16
920.81	227.15
921.12	227.15
921.42	227.17
921.72	227.22
922.02	227.21
922.32	227.22
922.63	227.24
922.93	227.28
923.23	227.30
923.53	227.28
923.83	227.21
924.13	227.22
924.44	227.23
924.74	227.23
925.04	227.22
925.34	227.20
925.64	227.13
925.94	227.11
926.24	227.17
926.55	227.20
926.85	227.20
927.15	227.19
927.45	227.20
927.75	227.21
928.05	227.20
928.35	227.17
928.65	227.18
928.95	227.18
929.26	227.15
929.56	227.16
929.86	227.17
930.16	227.17
930.46	227.18
930.76	227.18
931.06	227.17
931.36	227.16
931.66	227.19
931.96	227.21
932.26	227.21
932.56	227.15
932.86	227.17
933.16	227.19
933.46	227.18
933.76	227.16
934.06	227.17
934.36	227.21
934.66	227.26
934.96	227.24
935.26	227.22
935.56	227.25
935.86	227.23
936.16	227.24
936.46	227.25
936.76	227.24
937.06	227.27
937.36	227.28
937.66	227.29
937.96	227.32
938.26	227.32
938.56	227.33
938.86	227.34
939.16	227.36
939.46	227.37
939.76	227.38
940.06	227.40
940.35	227.38
940.65	227.34
940.95	227.35
941.25	227.36
941.55	227.38
941.85	227.38
942.15	227.42
942.45	227.43
942.75	227.43
943.04	227.47
943.34	227.51
943.64	227.47
943.94	227.46
944.24	227.45
944.54	227.48
944.84	227.50
945.13	227.51
945.43	227.47
945.73	227.45
946.03	227.44
946.33	227.42
946.62	227.40
946.92	227.38
947.22	227.38
947.52	227.35
947.82	227.36
948.11	227.32
948.41	227.27
948.71	227.26
949.01	227.27
949.31	227.24
949.60	227.19
949.90	227.20
950.20	227.21
950.50	227.20
950.79	227.17
951.09	227.15
951.39	227.13
951.69	227.13
951.98	227.12
952.28	227.13
952.58	227.11
952.87	227.13
953.17	227.15
953.47	227.10
953.76	227.10
954.06	227.06
954.36	227.04
954.66	227.07
954.95	227.08
955.25	227.06
955.55	227.03
955.84	227.00
956.14	226.99
956.44	226.97
956.73	226.95
957.03	226.95
957.32	226.98
957.62	226.98
957.92	226.96
958.21	226.97
958.51	227.06
958.81	227.07
959.10	227.03
959.40	227.05
959.69	227.07
959.99	227.06
960.29	227.05
960.58	227.05
960.88	227.06
961.17	227.01
961.47	227.02
961.76	227.02
962.06	227.03
962.36	227.01
962.65	227.00
962.95	226.99
963.24	226.96
963.54	226.94
963.83	226.95
964.13	226.92
964.42	226.88
964.72	226.80
965.01	226.79
965.31	226.80
965.60	226.76
965.90	226.84
966.19	226.79
966.49	226.79
966.78	226.80
967.08	226.78
967.37	226.80
967.67	226.77
967.96	226.78
968.26	226.78
968.55	226.83
968.85	226.81
969.14	226.79
969.43	226.79
969.73	226.79
970.02	226.80
970.32	226.83
970.61	226.86
970.91	226.83
971.20	226.83
971.49	226.78
971.79	226.79
972.08	226.73
972.38	226.78
972.67	226.78
972.96	226.80
973.26	226.79
973.55	226.80
973.85	226.81
974.14	226.82
974.43	226.84
974.73	226.81
975.02	226.83
975.31	226.84
975.61	226.87
975.90	226.86
976.19	226.83
976.49	226.87
976.78	226.89
977.07	226.91
977.37	226.92
977.66	226.97
977.95	227.00
978.24	227.00
978.54	227.05
978.83	227.05
979.12	227.05
979.42	227.08
979.71	227.09
980.00	227.09
980.29	227.12
980.59	227.10
980.88	227.13
981.17	227.15
981.46	227.19
981.76	227.18
982.05	227.20
982.34	227.22
982.63	227.21
982.93	227.20
983.22	227.22
983.51	227.23
983.80	227.27
984.09	227.27
984.39	227.27
984.68	227.25
984.97	227.24
985.26	227.25
985.55	227.23
985.85	227.24
986.14	227.25
986.43	227.23
986.72	227.27
987.01	227.24
987.30	227.21
987.59	227.20
987.89	227.18
988.18	227.17
988.47	227.16
988.76	227.12
989.05	227.09
989.34	227.08
989.63	227.11
989.92	227.06
990.22	227.05
990.51	227.04
990.80	227.02
991.09	227.03
991.38	227.02
991.67	226.98
991.96	226.94
992.25	226.93
992.54	226.94
992.83	226.89
993.12	226.89
993.41	226.92
993.70	226.95
993.99	227.00
994.28	226.98
994.58	226.99
994.87	226.97
995.16	226.94
995.45	226.95
995.74	226.88
996.03	226.90
996.32	226.89
996.61	226.90
996.90	226.91
997.19	226.89
997.48	226.87
997.77	226.88
998.06	226.89
998.34	226.86
998.63	226.84
998.92	226.85
999.21	226.86
999.50	226.84
999.79	226.81
1000.08	226.78
1000.37	226.81
1000.66	226.78
1000.95	226.80
1001.24	226.84
1001.53	226.83
1001.82	226.85
1002.11	226.84
1002.40	226.84
1002.68	226.87
1002.97	226.89
1003.26	226.89
1003.55	226.89
1003.84	226.88
1004.13	226.88
1004.42	226.89
1004.71	226.86
1004.99	226.85
1005.28	226.90
1005.57	226.90
1005.86	226.89
1006.15	226.88
1006.44	226.85
1006.72	226.87
1007.01	226.86
1007.30	226.87
1007.59	226.90
1007.88	226.88
1008.17	226.86
1008.45	226.86
1008.74	226.82
1009.03	226.81
1009.32	226.85
1009.60	226.84
1009.89	226.86
1010.18	226.86
1010.47	226.88
1010.76	226.90
1011.04	226.89
1011.33	226.89
1011.62	226.89
1011.91	226.91
1012.19	226.96
1012.48	226.97
1012.77	226.96
1013.05	227.06
1013.34	227.06
1013.63	227.05
1013.92	227.08
1014.20	227.10
1014.49	227.11
1014.78	227.14
1015.06	227.11
1015.35	227.12
1015.64	227.15
1015.92	227.18
1016.21	227.20
1016.50	227.20
1016.78	227.22
1017.07	227.25
1017.36	227.25
1017.64	227.22
1017.93	227.19
1018.22	227.15
1018.50	227.17
1018.79	227.19
1019.08	227.15
1019.36	227.14
1019.65	227.14
1019.93	227.15
1020.22	227.17
1020.51	227.21
1020.79	227.19
1021.08	226.78
1021.36	227.48
1021.65	227.17
1021.94	227.64
1022.22	227.13
1022.51	227.12
1022.79	227.13
1023.08	227.37
1023.36	228.22
1023.65	227.23
>>>>>End Processed Spectral Data<<<<<
