SpectraSuite Data File
++++++++++++++++++++++++++++++++++++
Date: Fri Feb 01 15:35:56 EST 2013
User: group
Dark Spectrum Present: No
Reference Spectrum Present: No
Number of Sampled Component Spectra: 1
Spectrometers: USB2E7196
Integration Time (usec): 35000 (USB2E7196)
Spectra Averaged: 100 (USB2E7196)
Boxcar Smoothing: 10 (USB2E7196)
Correct for Electrical Dark: No (USB2E7196)
Strobe/Lamp Enabled: No (USB2E7196)
Correct for Detector Non-linearity: No (USB2E7196)
Correct for Stray Light: No (USB2E7196)
Number of Pixels in Processed Spectrum: 2048
>>>>>Begin Processed Spectral Data<<<<<
339.09	0.00
339.48	214.82
339.86	216.34
340.24	217.29
340.63	219.59
341.01	221.93
341.39	221.59
341.78	222.64
342.16	224.32
342.54	225.36
342.93	213.19
343.31	223.96
343.69	224.51
344.07	224.99
344.46	225.43
344.84	225.79
345.22	226.01
345.60	226.26
345.99	226.46
346.37	226.60
346.75	226.68
347.13	226.77
347.52	226.83
347.90	226.92
348.28	226.93
348.66	226.95
349.05	226.95
349.43	227.01
349.81	227.07
350.19	227.13
350.57	227.17
350.96	227.24
351.34	227.33
351.72	227.39
352.10	227.48
352.48	227.57
352.87	227.61
353.25	227.70
353.63	227.76
354.01	227.83
354.39	227.89
354.77	227.98
355.15	228.09
355.54	228.14
355.92	228.20
356.30	228.29
356.68	228.43
357.06	228.52
357.44	228.59
357.82	228.65
358.20	228.70
358.58	228.77
358.97	228.87
359.35	228.94
359.73	229.04
360.11	229.07
360.49	229.11
360.87	229.18
361.25	229.25
361.63	229.34
362.01	229.41
362.39	229.44
362.77	229.46
363.15	229.47
363.53	229.49
363.91	229.49
364.29	229.47
364.67	229.41
365.05	229.44
365.43	229.47
365.81	229.49
366.19	229.55
366.57	229.60
366.95	229.59
367.33	229.57
367.71	229.55
368.09	229.58
368.47	229.53
368.85	229.53
369.23	229.49
369.61	229.41
369.99	229.40
370.37	229.41
370.75	229.43
371.13	229.40
371.51	229.37
371.89	229.33
372.27	229.27
372.65	229.22
373.03	229.11
373.41	229.00
373.78	228.96
374.16	228.81
374.54	228.68
374.92	228.60
375.30	228.54
375.68	228.45
376.06	228.32
376.44	228.27
376.82	228.18
377.19	228.11
377.57	228.06
377.95	227.94
378.33	227.85
378.71	227.72
379.09	227.61
379.47	227.56
379.84	227.50
380.22	227.45
380.60	227.36
380.98	227.29
381.36	227.23
381.73	227.15
382.11	227.11
382.49	227.09
382.87	226.97
383.25	226.87
383.62	226.89
384.00	226.86
384.38	226.78
384.76	226.74
385.13	226.71
385.51	226.62
385.89	226.58
386.27	226.51
386.64	226.46
387.02	226.43
387.40	226.40
387.78	226.36
388.15	226.33
388.53	226.29
388.91	226.29
389.29	226.27
389.66	226.25
390.04	226.28
390.42	226.27
390.79	226.28
391.17	226.28
391.55	226.20
391.92	226.17
392.30	226.20
392.68	226.18
393.05	226.20
393.43	226.24
393.81	226.24
394.18	226.24
394.56	226.27
394.94	226.30
395.31	226.29
395.69	226.36
396.06	226.39
396.44	226.43
396.82	226.44
397.19	226.54
397.57	226.58
397.95	226.61
398.32	226.62
398.70	226.68
399.07	226.78
399.45	226.85
399.82	226.95
400.20	227.02
400.58	227.08
400.95	227.10
401.33	227.19
401.70	227.35
402.08	227.48
402.45	227.55
402.83	227.70
403.20	227.80
403.58	227.87
403.95	227.99
404.33	228.13
404.71	228.25
405.08	228.43
405.46	228.57
405.83	228.73
406.21	228.89
406.58	229.07
406.96	229.24
407.33	229.41
407.70	229.59
408.08	229.87
408.45	230.10
408.83	230.39
409.20	230.61
409.58	230.80
409.95	231.06
410.33	231.35
410.70	231.60
411.08	231.91
411.45	232.22
411.82	232.54
412.20	232.86
412.57	233.31
412.95	233.59
413.32	233.97
413.69	234.38
414.07	234.79
414.44	235.27
414.82	235.76
415.19	236.30
415.56	236.85
415.94	237.39
416.31	238.03
416.68	238.61
417.06	239.34
417.43	239.99
417.81	240.76
418.18	241.52
418.55	242.33
418.93	243.18
419.30	244.07
419.67	244.99
420.04	245.96
420.42	246.95
420.79	248.15
421.16	249.30
421.54	250.50
421.91	251.75
422.28	252.97
422.66	254.29
423.03	255.60
423.40	256.92
423.77	258.29
424.15	259.69
424.52	261.20
424.89	262.80
425.26	264.40
425.64	265.80
426.01	267.41
426.38	269.06
426.75	270.73
427.13	272.46
427.50	274.29
427.87	276.18
428.24	278.02
428.61	279.76
428.99	281.70
429.36	283.76
429.73	285.81
430.10	287.89
430.47	289.93
430.85	292.04
431.22	294.34
431.59	296.74
431.96	299.01
432.33	301.51
432.70	303.87
433.08	306.67
433.45	309.35
433.82	311.96
434.19	314.88
434.56	317.67
434.93	320.29
435.30	322.90
435.68	325.82
436.05	328.67
436.42	331.49
436.79	334.00
437.16	336.74
437.53	339.56
437.90	342.37
438.27	345.09
438.64	347.98
439.01	350.54
439.38	352.77
439.75	354.94
440.13	357.42
440.50	359.77
440.87	361.61
441.24	363.59
441.61	365.75
441.98	367.21
442.35	369.05
442.72	370.95
443.09	372.76
443.46	373.76
443.83	374.34
444.20	374.87
444.57	375.71
444.94	375.97
445.31	376.36
445.68	376.71
446.05	376.83
446.42	376.44
446.79	376.01
447.16	375.61
447.53	375.29
447.90	374.13
448.27	372.97
448.64	371.40
449.01	370.23
449.37	368.22
449.74	366.34
450.11	364.06
450.48	361.57
450.85	359.08
451.22	356.90
451.59	354.87
451.96	352.91
452.33	350.30
452.70	347.95
453.07	345.16
453.43	342.24
453.80	339.49
454.17	336.79
454.54	334.26
454.91	331.53
455.28	328.89
455.65	326.40
456.02	323.94
456.38	321.78
456.75	319.12
457.12	316.95
457.49	314.73
457.86	312.62
458.23	310.78
458.59	308.69
458.96	306.60
459.33	304.78
459.70	302.89
460.07	301.40
460.43	299.68
460.80	297.97
461.17	296.54
461.54	295.00
461.91	293.58
462.27	292.14
462.64	290.86
463.01	289.47
463.38	288.20
463.74	286.84
464.11	285.65
464.48	284.61
464.85	283.45
465.21	282.57
465.58	281.61
465.95	280.48
466.32	279.58
466.68	278.64
467.05	277.72
467.42	276.83
467.78	275.91
468.15	274.99
468.52	274.34
468.88	273.48
469.25	272.75
469.62	272.09
469.98	271.41
470.35	270.77
470.72	270.14
471.08	269.41
471.45	268.87
471.82	268.35
472.18	267.74
472.55	267.27
472.92	266.75
473.28	266.27
473.65	265.85
474.02	265.39
474.38	265.03
474.75	264.71
475.11	264.34
475.48	264.07
475.85	263.87
476.21	263.60
476.58	263.44
476.94	263.25
477.31	263.08
477.67	262.89
478.04	262.82
478.41	262.79
478.77	262.87
479.14	262.80
479.50	262.78
479.87	262.87
480.23	262.98
480.60	263.04
480.96	263.16
481.33	263.36
481.69	263.60
482.06	263.84
482.42	264.03
482.79	264.28
483.15	264.56
483.52	264.92
483.88	265.29
484.25	265.60
484.61	266.00
484.98	266.46
485.34	267.06
485.71	267.61
486.07	268.21
486.44	268.75
486.80	269.46
487.17	270.18
487.53	271.04
487.90	271.88
488.26	272.82
488.62	273.78
488.99	274.74
489.35	275.80
489.72	276.91
490.08	278.13
490.44	279.44
490.81	280.80
491.17	282.16
491.54	283.66
491.90	285.23
492.26	286.92
492.63	288.64
492.99	290.40
493.36	292.33
493.72	294.37
494.08	296.50
494.45	298.74
494.81	301.11
495.17	303.53
495.54	306.12
495.90	308.77
496.26	311.56
496.63	314.56
496.99	317.65
497.35	320.91
497.72	324.33
498.08	327.82
498.44	331.46
498.80	335.41
499.17	339.43
499.53	343.59
499.89	348.00
500.26	352.53
500.62	357.22
500.98	362.19
501.34	367.23
501.71	372.56
502.07	378.01
502.43	383.64
502.79	389.45
503.16	395.48
503.52	401.77
503.88	408.17
504.24	414.79
504.60	421.65
504.97	428.83
505.33	436.17
505.69	443.81
506.05	451.62
506.41	459.49
506.78	467.65
507.14	476.08
507.50	484.81
507.86	493.86
508.22	503.06
508.59	512.28
508.95	521.89
509.31	531.75
509.67	541.84
510.03	552.15
510.39	562.73
510.75	573.55
511.12	584.44
511.48	595.74
511.84	607.18
512.20	618.77
512.56	630.71
512.92	642.92
513.28	655.21
513.64	667.64
514.00	680.35
514.37	693.36
514.73	706.46
515.09	719.52
515.45	732.83
515.81	746.44
516.17	760.45
516.53	774.49
516.89	788.56
517.25	802.72
517.61	817.13
517.97	831.73
518.33	846.13
518.69	861.01
519.05	876.06
519.41	891.22
519.77	906.73
520.13	922.14
520.49	937.48
520.85	953.04
521.21	968.80
521.57	985.06
521.93	1000.89
522.29	1017.27
522.65	1033.50
523.01	1049.71
523.37	1065.73
523.73	1081.85
524.09	1098.07
524.45	1114.49
524.81	1131.11
525.17	1147.99
525.53	1164.76
525.89	1181.72
526.25	1198.45
526.61	1214.89
526.97	1231.76
527.33	1248.22
527.68	1264.85
528.04	1281.45
528.40	1298.07
528.76	1315.15
529.12	1331.74
529.48	1348.57
529.84	1364.72
530.20	1381.37
530.56	1398.45
530.91	1415.90
531.27	1432.72
531.63	1449.23
531.99	1465.82
532.35	1481.93
532.71	1497.84
533.07	1514.17
533.42	1530.04
533.78	1546.14
534.14	1562.36
534.50	1577.68
534.86	1593.64
535.21	1608.90
535.57	1624.87
535.93	1640.34
536.29	1655.14
536.65	1670.23
537.00	1684.96
537.36	1700.23
537.72	1714.77
538.08	1729.21
538.44	1742.95
538.79	1756.90
539.15	1770.64
539.51	1784.26
539.87	1798.60
540.22	1812.37
540.58	1826.16
540.94	1839.62
541.29	1852.68
541.65	1865.42
542.01	1878.71
542.37	1891.03
542.72	1903.55
543.08	1915.36
543.44	1927.78
543.79	1939.12
544.15	1950.13
544.51	1961.73
544.87	1972.81
545.22	1983.67
545.58	1993.84
545.94	2003.60
546.29	2013.37
546.65	2023.11
547.01	2032.62
547.36	2041.46
547.72	2049.90
548.07	2057.64
548.43	2065.80
548.79	2073.81
549.14	2081.36
549.50	2088.77
549.86	2096.52
550.21	2103.77
550.57	2110.87
550.92	2117.46
551.28	2124.52
551.64	2131.65
551.99	2138.26
552.35	2144.31
552.70	2150.41
553.06	2156.42
553.41	2163.00
553.77	2169.13
554.13	2175.39
554.48	2181.43
554.84	2186.71
555.19	2191.97
555.55	2197.27
555.90	2201.77
556.26	2206.62
556.61	2211.32
556.97	2215.57
557.32	2219.62
557.68	2223.63
558.03	2227.96
558.39	2231.78
558.74	2236.43
559.10	2240.25
559.45	2243.86
559.81	2248.15
560.16	2251.97
560.52	2255.28
560.87	2258.58
561.23	2261.14
561.58	2264.00
561.94	2266.53
562.29	2269.00
562.64	2271.64
563.00	2274.22
563.35	2277.67
563.71	2280.72
564.06	2283.86
564.42	2286.50
564.77	2289.04
565.12	2291.34
565.48	2293.13
565.83	2294.89
566.19	2296.03
566.54	2297.04
566.89	2298.32
567.25	2299.01
567.60	2300.31
567.96	2301.84
568.31	2302.59
568.66	2303.90
569.02	2304.37
569.37	2304.63
569.72	2305.41
570.08	2305.54
570.43	2305.53
570.78	2304.85
571.14	2303.43
571.49	2302.18
571.84	2302.03
572.20	2300.84
572.55	2299.83
572.90	2298.22
573.26	2296.80
573.61	2295.18
573.96	2293.20
574.31	2290.10
574.67	2287.01
575.02	2283.30
575.37	2279.87
575.72	2276.06
576.08	2272.53
576.43	2269.25
576.78	2265.45
577.13	2262.14
577.49	2259.01
577.84	2255.50
578.19	2251.78
578.54	2247.93
578.90	2243.57
579.25	2237.87
579.60	2232.84
579.95	2227.81
580.30	2222.85
580.66	2217.53
581.01	2212.58
581.36	2207.86
581.71	2203.61
582.06	2199.11
582.42	2194.55
582.77	2189.33
583.12	2184.75
583.47	2179.93
583.82	2174.87
584.17	2169.64
584.53	2164.31
584.88	2158.62
585.23	2152.77
585.58	2147.14
585.93	2141.76
586.28	2137.03
586.63	2131.89
586.98	2126.85
587.34	2121.91
587.69	2117.00
588.04	2111.68
588.39	2105.97
588.74	2099.34
589.09	2093.12
589.44	2086.24
589.79	2080.37
590.14	2074.77
590.49	2068.11
590.84	2061.81
591.19	2055.71
591.54	2049.34
591.89	2041.72
592.25	2034.89
592.60	2027.72
592.95	2020.24
593.30	2012.81
593.65	2005.30
594.00	1998.31
594.35	1991.08
594.70	1983.08
595.05	1975.80
595.40	1968.64
595.75	1961.02
596.10	1954.62
596.45	1947.79
596.80	1941.56
597.15	1934.85
597.50	1927.63
597.85	1921.19
598.19	1914.38
598.54	1907.26
598.89	1900.49
599.24	1894.58
599.59	1887.83
599.94	1881.54
600.29	1875.11
600.64	1868.54
600.99	1860.81
601.34	1853.94
601.69	1846.79
602.04	1839.88
602.39	1832.42
602.74	1825.48
603.08	1818.77
603.43	1812.16
603.78	1804.85
604.13	1797.62
604.48	1790.22
604.83	1783.43
605.18	1776.33
605.53	1768.28
605.87	1760.20
606.22	1753.02
606.57	1745.12
606.92	1737.84
607.27	1730.58
607.62	1723.63
607.96	1716.22
608.31	1709.77
608.66	1702.08
609.01	1694.47
609.36	1687.00
609.70	1679.01
610.05	1670.86
610.40	1662.97
610.75	1654.60
611.10	1647.01
611.44	1638.63
611.79	1630.68
612.14	1621.78
612.49	1612.71
612.83	1604.34
613.18	1596.33
613.53	1588.21
613.88	1579.63
614.22	1571.27
614.57	1562.66
614.92	1554.63
615.27	1547.11
615.61	1538.72
615.96	1530.74
616.31	1523.18
616.65	1515.70
617.00	1508.22
617.35	1500.71
617.70	1492.46
618.04	1484.06
618.39	1475.79
618.74	1468.09
619.08	1459.85
619.43	1452.40
619.78	1445.44
620.12	1438.35
620.47	1430.61
620.82	1422.35
621.16	1415.04
621.51	1407.59
621.85	1400.06
622.20	1391.55
622.55	1383.17
622.89	1375.31
623.24	1367.67
623.59	1360.27
623.93	1352.79
624.28	1345.56
624.62	1337.98
624.97	1330.81
625.32	1324.07
625.66	1317.03
626.01	1309.89
626.35	1302.25
626.70	1294.48
627.04	1286.72
627.39	1278.81
627.73	1271.55
628.08	1264.65
628.43	1257.18
628.77	1249.56
629.12	1241.93
629.46	1234.85
629.81	1227.52
630.15	1220.25
630.50	1212.90
630.84	1204.75
631.19	1196.83
631.53	1189.31
631.88	1181.73
632.22	1174.23
632.57	1166.75
632.91	1159.23
633.26	1151.79
633.60	1144.49
633.95	1137.45
634.29	1130.52
634.64	1123.87
634.98	1116.56
635.32	1109.44
635.67	1103.01
636.01	1096.43
636.36	1089.64
636.70	1083.11
637.05	1076.50
637.39	1070.11
637.73	1063.55
638.08	1057.61
638.42	1051.59
638.77	1045.12
639.11	1038.57
639.45	1032.14
639.80	1025.58
640.14	1019.03
640.49	1012.45
640.83	1006.19
641.17	999.93
641.52	993.53
641.86	987.17
642.20	981.28
642.55	975.01
642.89	968.38
643.23	961.99
643.58	956.15
643.92	949.89
644.26	943.76
644.61	937.74
644.95	931.69
645.29	925.10
645.64	918.42
645.98	912.07
646.32	906.25
646.66	900.11
647.01	894.26
647.35	888.68
647.69	882.97
648.04	877.48
648.38	871.67
648.72	865.65
649.06	859.50
649.41	853.65
649.75	847.57
650.09	841.69
650.43	835.83
650.78	829.73
651.12	823.78
651.46	818.06
651.80	812.30
652.14	806.84
652.49	801.52
652.83	796.34
653.17	790.67
653.51	784.91
653.85	779.62
654.20	773.97
654.54	767.90
654.88	762.12
655.22	756.16
655.56	750.48
655.90	745.07
656.25	739.90
656.59	734.43
656.93	729.41
657.27	724.26
657.61	718.88
657.95	713.82
658.29	708.74
658.64	703.53
658.98	698.25
659.32	692.90
659.66	687.65
660.00	682.28
660.34	677.32
660.68	672.36
661.02	667.34
661.36	662.72
661.70	658.28
662.05	653.90
662.39	649.62
662.73	645.14
663.07	640.75
663.41	636.26
663.75	631.82
664.09	627.30
664.43	622.89
664.77	618.73
665.11	614.44
665.45	610.30
665.79	606.23
666.13	602.07
666.47	597.93
666.81	593.77
667.15	589.74
667.49	585.82
667.83	582.06
668.17	578.08
668.51	573.97
668.85	569.94
669.19	566.10
669.53	562.23
669.87	558.37
670.21	554.74
670.55	551.15
670.89	547.70
671.23	544.29
671.57	540.83
671.91	537.28
672.25	533.82
672.58	530.36
672.92	526.96
673.26	523.82
673.60	520.69
673.94	517.54
674.28	514.66
674.62	511.71
674.96	508.61
675.30	505.72
675.64	502.78
675.97	500.02
676.31	497.19
676.65	494.26
676.99	491.57
677.33	488.73
677.67	485.85
678.01	482.84
678.34	479.80
678.68	476.96
679.02	474.13
679.36	471.32
679.70	468.55
680.04	465.73
680.37	462.85
680.71	460.03
681.05	457.50
681.39	454.73
681.73	452.10
682.06	449.55
682.40	446.98
682.74	444.45
683.08	441.86
683.42	439.30
683.75	436.82
684.09	434.24
684.43	431.70
684.77	429.27
685.10	426.95
685.44	424.69
685.78	422.38
686.12	420.19
686.45	417.93
686.79	415.68
687.13	413.53
687.46	411.39
687.80	409.25
688.14	407.06
688.48	405.06
688.81	402.79
689.15	400.66
689.49	398.55
689.82	396.46
690.16	394.45
690.50	392.44
690.83	390.48
691.17	388.49
691.51	386.58
691.84	384.73
692.18	382.82
692.52	380.85
692.85	378.94
693.19	377.05
693.52	375.23
693.86	373.44
694.20	371.67
694.53	369.82
694.87	367.98
695.21	366.17
695.54	364.32
695.88	362.62
696.21	360.90
696.55	359.21
696.88	357.55
697.22	355.92
697.56	354.34
697.89	352.73
698.23	351.17
698.56	349.60
698.90	347.98
699.23	346.30
699.57	344.72
699.90	343.14
700.24	341.59
700.58	340.07
700.91	338.54
701.25	337.08
701.58	335.75
701.92	334.42
702.25	333.00
702.59	331.65
702.92	330.32
703.26	328.99
703.59	327.72
703.93	326.55
704.26	325.22
704.60	323.90
704.93	322.63
705.26	321.39
705.60	320.22
705.93	319.08
706.27	318.05
706.60	317.00
706.94	315.98
707.27	314.85
707.61	313.78
707.94	312.78
708.27	311.66
708.61	310.58
708.94	309.58
709.28	308.64
709.61	307.64
709.94	306.69
710.28	305.69
710.61	304.67
710.95	303.59
711.28	302.73
711.61	301.79
711.95	300.84
712.28	299.86
712.61	298.85
712.95	297.91
713.28	297.04
713.61	296.16
713.95	295.24
714.28	294.44
714.61	293.57
714.95	292.71
715.28	291.91
715.61	291.05
715.95	290.19
716.28	289.33
716.61	288.53
716.95	287.72
717.28	287.00
717.61	286.26
717.94	285.50
718.28	284.66
718.61	283.94
718.94	283.27
719.27	282.59
719.61	281.96
719.94	281.33
720.27	280.57
720.60	279.91
720.94	279.29
721.27	278.70
721.60	278.14
721.93	277.55
722.27	276.99
722.60	276.41
722.93	275.85
723.26	275.32
723.59	274.75
723.93	274.21
724.26	273.62
724.59	273.04
724.92	272.55
725.25	272.08
725.59	271.57
725.92	271.09
726.25	270.60
726.58	270.14
726.91	269.64
727.24	269.22
727.57	268.75
727.91	268.25
728.24	267.74
728.57	267.25
728.90	266.78
729.23	266.29
729.56	265.85
729.89	265.37
730.22	264.86
730.55	264.42
730.89	263.99
731.22	263.54
731.55	263.14
731.88	262.72
732.21	262.29
732.54	261.86
732.87	261.41
733.20	261.06
733.53	260.65
733.86	260.31
734.19	259.91
734.52	259.52
734.85	259.23
735.18	258.83
735.51	258.49
735.84	258.15
736.17	257.79
736.50	257.39
736.83	257.19
737.16	256.87
737.49	256.54
737.82	256.18
738.15	255.90
738.48	255.58
738.81	255.23
739.14	254.90
739.47	254.65
739.80	254.37
740.13	254.04
740.46	253.72
740.79	253.37
741.12	253.06
741.45	252.73
741.78	252.38
742.11	252.06
742.44	251.71
742.77	251.43
743.10	251.14
743.43	250.90
743.75	250.48
744.08	250.32
744.41	250.04
744.74	249.78
745.07	249.47
745.40	249.20
745.73	248.99
746.06	248.70
746.39	248.39
746.71	248.06
747.04	247.77
747.37	247.52
747.70	247.28
748.03	247.02
748.36	246.81
748.68	246.56
749.01	246.33
749.34	246.08
749.67	245.81
750.00	245.58
750.33	245.36
750.65	245.16
750.98	244.81
751.31	244.57
751.64	244.34
751.97	244.17
752.29	243.92
752.62	243.60
752.95	243.40
753.28	243.18
753.60	243.00
753.93	242.85
754.26	242.64
754.59	242.40
754.91	242.19
755.24	241.99
755.57	241.79
755.90	241.62
756.22	241.44
756.55	241.26
756.88	241.07
757.20	240.85
757.53	240.67
757.86	240.49
758.19	240.34
758.51	240.16
758.84	239.96
759.17	239.78
759.49	239.67
759.82	239.53
760.15	239.39
760.47	239.21
760.80	239.00
761.13	238.87
761.45	238.71
761.78	238.56
762.11	238.40
762.43	238.26
762.76	238.09
763.08	238.00
763.41	237.86
763.74	237.73
764.06	237.60
764.39	237.45
764.71	237.34
765.04	237.22
765.37	237.10
765.69	236.99
766.02	236.87
766.34	236.76
766.67	236.60
767.00	236.50
767.32	236.48
767.65	236.45
767.97	236.33
768.30	236.22
768.62	236.14
768.95	236.00
769.27	235.91
769.60	235.82
769.92	235.69
770.25	235.58
770.57	235.44
770.90	235.33
771.22	235.25
771.55	235.18
771.87	235.09
772.20	234.99
772.52	234.97
772.85	235.07
773.17	234.95
773.50	234.87
773.82	234.78
774.15	234.63
774.47	234.48
774.80	234.41
775.12	234.32
775.45	234.21
775.77	234.13
776.09	234.07
776.42	234.01
776.74	233.97
777.07	233.92
777.39	233.87
777.72	233.80
778.04	233.71
778.36	233.62
778.69	233.53
779.01	233.45
779.33	233.31
779.66	233.08
779.98	233.04
780.31	232.99
780.63	232.97
780.95	232.94
781.28	232.88
781.60	232.77
781.92	232.71
782.25	232.65
782.57	232.61
782.89	232.49
783.22	232.40
783.54	232.31
783.86	232.24
784.19	232.19
784.51	232.17
784.83	232.07
785.16	231.99
785.48	231.95
785.80	231.90
786.12	231.82
786.45	231.79
786.77	231.74
787.09	231.68
787.42	231.57
787.74	231.53
788.06	231.49
788.38	231.45
788.71	231.42
789.03	231.40
789.35	231.36
789.67	231.32
789.99	231.30
790.32	231.21
790.64	231.18
790.96	231.20
791.28	231.12
791.61	231.09
791.93	231.05
792.25	230.98
792.57	230.97
792.89	230.92
793.21	230.83
793.54	230.77
793.86	230.71
794.18	230.69
794.50	230.59
794.82	230.52
795.14	230.48
795.47	230.44
795.79	230.39
796.11	230.33
796.43	230.30
796.75	230.24
797.07	230.23
797.39	230.19
797.71	230.10
798.04	230.04
798.36	230.03
798.68	229.99
799.00	229.97
799.32	229.92
799.64	229.92
799.96	229.92
800.28	229.92
800.60	229.90
800.92	229.88
801.24	229.84
801.56	229.83
801.89	229.82
802.21	229.77
802.53	229.72
802.85	229.72
803.17	229.73
803.49	229.70
803.81	229.65
804.13	229.62
804.45	229.60
804.77	229.62
805.09	229.60
805.41	229.61
805.73	229.57
806.05	229.53
806.37	229.49
806.69	229.48
807.01	229.45
807.33	229.45
807.65	229.43
807.97	229.47
808.28	229.44
808.60	229.40
808.92	229.39
809.24	229.46
809.56	229.45
809.88	229.42
810.20	229.42
810.52	229.42
810.84	229.42
811.16	229.40
811.48	229.38
811.80	229.38
812.12	229.35
812.43	229.35
812.75	229.37
813.07	229.36
813.39	229.35
813.71	229.35
814.03	229.33
814.35	229.28
814.67	229.23
814.98	229.21
815.30	229.22
815.62	229.20
815.94	229.11
816.26	229.13
816.58	229.08
816.89	229.08
817.21	229.05
817.53	228.98
817.85	228.93
818.17	228.88
818.48	228.84
818.80	228.85
819.12	228.82
819.44	228.80
819.76	228.74
820.07	228.70
820.39	228.64
820.71	228.64
821.03	228.61
821.34	228.59
821.66	228.60
821.98	228.57
822.30	228.56
822.61	228.60
822.93	228.53
823.25	228.51
823.57	228.44
823.88	228.43
824.20	228.42
824.52	228.42
824.83	228.41
825.15	228.38
825.47	228.35
825.79	228.34
826.10	228.33
826.42	228.33
826.74	228.31
827.05	228.31
827.37	228.24
827.69	228.23
828.00	228.22
828.32	228.19
828.64	228.17
828.95	228.19
829.27	228.14
829.58	228.09
829.90	228.11
830.22	228.11
830.53	228.11
830.85	228.13
831.17	228.09
831.48	228.08
831.80	228.06
832.11	228.05
832.43	228.02
832.75	227.96
833.06	227.99
833.38	227.96
833.69	227.93
834.01	227.94
834.32	227.94
834.64	227.92
834.96	227.91
835.27	227.93
835.59	227.89
835.90	227.84
836.22	227.85
836.53	227.80
836.85	227.82
837.16	227.89
837.48	227.87
837.79	227.92
838.11	227.89
838.42	227.85
838.74	227.88
839.05	227.88
839.37	227.86
839.68	227.80
840.00	227.77
840.31	227.76
840.63	227.76
840.94	227.76
841.26	227.73
841.57	227.73
841.88	227.71
842.20	227.67
842.51	227.67
842.83	227.66
843.14	227.77
843.46	227.73
843.77	227.67
844.08	227.63
844.40	227.60
844.71	227.61
845.03	227.65
845.34	227.62
845.65	227.60
845.97	227.62
846.28	227.61
846.60	227.63
846.91	227.63
847.22	227.60
847.54	227.62
847.85	227.64
848.16	227.60
848.48	227.59
848.79	227.63
849.10	227.66
849.42	227.65
849.73	227.53
850.04	227.54
850.36	227.49
850.67	227.54
850.98	227.55
851.30	227.53
851.61	227.50
851.92	227.47
852.23	227.48
852.55	227.51
852.86	227.54
853.17	227.56
853.49	227.61
853.80	227.63
854.11	227.61
854.42	227.64
854.74	227.64
855.05	227.64
855.36	227.58
855.67	227.57
855.99	227.57
856.30	227.74
856.61	227.72
856.92	227.73
857.23	227.70
857.55	227.67
857.86	227.67
858.17	227.70
858.48	227.70
858.79	227.68
859.11	227.66
859.42	227.66
859.73	227.66
860.04	227.63
860.35	227.60
860.66	227.55
860.98	227.53
861.29	227.52
861.60	227.51
861.91	227.57
862.22	227.56
862.53	227.56
862.84	227.41
863.16	227.44
863.47	227.41
863.78	227.42
864.09	227.43
864.40	227.43
864.71	227.41
865.02	227.42
865.33	227.42
865.64	227.41
865.95	227.38
866.27	227.44
866.58	227.39
866.89	227.40
867.20	227.40
867.51	227.36
867.82	227.34
868.13	227.35
868.44	227.31
868.75	227.31
869.06	227.29
869.37	227.29
869.68	227.26
869.99	227.27
870.30	227.23
870.61	227.21
870.92	227.20
871.23	227.17
871.54	227.18
871.85	227.21
872.16	227.22
872.47	227.18
872.78	227.07
873.09	227.12
873.40	227.10
873.71	227.11
874.02	227.12
874.33	227.10
874.64	227.07
874.95	227.08
875.26	227.05
875.56	227.05
875.87	227.04
876.18	227.05
876.49	227.15
876.80	227.12
877.11	227.12
877.42	227.12
877.73	227.13
878.04	227.12
878.35	227.11
878.66	227.11
878.96	227.13
879.27	227.14
879.58	227.13
879.89	227.11
880.20	227.12
880.51	227.12
880.82	227.15
881.12	227.15
881.43	227.10
881.74	227.10
882.05	227.10
882.36	227.11
882.67	227.06
882.97	226.95
883.28	227.00
883.59	227.02
883.90	227.03
884.21	227.01
884.51	226.97
884.82	226.94
885.13	226.94
885.44	226.92
885.74	226.93
886.05	226.90
886.36	226.93
886.67	226.91
886.98	226.96
887.28	226.96
887.59	226.94
887.90	226.95
888.20	226.95
888.51	226.97
888.82	226.94
889.13	227.01
889.43	227.09
889.74	227.05
890.05	227.04
890.35	227.03
890.66	227.02
890.97	227.01
891.28	226.99
891.58	227.01
891.89	227.02
892.20	227.02
892.50	227.03
892.81	227.05
893.12	227.04
893.42	227.01
893.73	227.03
894.04	227.09
894.34	227.13
894.65	227.15
894.95	227.16
895.26	227.21
895.57	227.21
895.87	227.14
896.18	227.18
896.48	227.18
896.79	227.19
897.10	227.24
897.40	227.27
897.71	227.28
898.01	227.26
898.32	227.26
898.63	227.23
898.93	227.28
899.24	227.28
899.54	227.27
899.85	227.27
900.15	227.22
900.46	227.18
900.76	227.18
901.07	227.15
901.38	227.16
901.68	227.12
901.99	227.12
902.29	227.11
902.60	227.09
902.90	227.07
903.21	227.04
903.51	227.06
903.82	227.11
904.12	227.12
904.43	227.11
904.73	227.11
905.03	227.13
905.34	227.21
905.64	227.23
905.95	227.23
906.25	227.25
906.56	227.26
906.86	227.27
907.17	227.28
907.47	227.27
907.77	227.22
908.08	227.25
908.38	227.20
908.69	227.19
908.99	227.19
909.30	227.19
909.60	227.21
909.90	227.18
910.21	227.13
910.51	227.13
910.81	227.11
911.12	227.09
911.42	227.12
911.73	226.98
912.03	226.95
912.33	226.95
912.64	226.92
912.94	226.93
913.24	226.93
913.55	226.89
913.85	226.88
914.15	226.94
914.46	226.93
914.76	226.92
915.06	226.95
915.37	226.96
915.67	226.96
915.97	226.94
916.27	226.96
916.58	226.97
916.88	226.96
917.18	226.98
917.49	227.04
917.79	227.04
918.09	227.03
918.39	227.05
918.70	227.05
919.00	227.06
919.30	227.09
919.60	227.08
919.91	227.09
920.21	227.09
920.51	227.05
920.81	227.07
921.12	227.08
921.42	227.04
921.72	227.00
922.02	227.03
922.32	227.06
922.63	227.02
922.93	227.08
923.23	227.07
923.53	227.08
923.83	227.03
924.13	227.05
924.44	227.07
924.74	227.10
925.04	227.11
925.34	227.14
925.64	227.10
925.94	227.11
926.24	227.14
926.55	227.12
926.85	227.16
927.15	227.16
927.45	227.17
927.75	227.21
928.05	227.23
928.35	227.21
928.65	227.22
928.95	227.24
929.26	227.20
929.56	227.23
929.86	227.21
930.16	227.19
930.46	227.16
930.76	227.18
931.06	227.12
931.36	227.10
931.66	227.05
931.96	227.04
932.26	227.03
932.56	227.02
932.86	227.02
933.16	227.01
933.46	226.97
933.76	226.95
934.06	226.92
934.36	226.96
934.66	226.95
934.96	226.92
935.26	226.89
935.56	226.90
935.86	226.85
936.16	226.83
936.46	226.83
936.76	226.80
937.06	226.74
937.36	226.77
937.66	226.75
937.96	226.75
938.26	226.74
938.56	226.73
938.86	226.73
939.16	226.73
939.46	226.74
939.76	226.75
940.06	226.75
940.35	226.76
940.65	226.68
940.95	226.68
941.25	226.68
941.55	226.66
941.85	226.65
942.15	226.68
942.45	226.69
942.75	226.69
943.04	226.69
943.34	226.71
943.64	226.71
943.94	226.70
944.24	226.71
944.54	226.71
944.84	226.69
945.13	226.66
945.43	226.67
945.73	226.66
946.03	226.66
946.33	226.63
946.62	226.62
946.92	226.66
947.22	226.65
947.52	226.64
947.82	226.69
948.11	226.65
948.41	226.63
948.71	226.63
949.01	226.63
949.31	226.66
949.60	226.68
949.90	226.65
950.20	226.64
950.50	226.64
950.79	226.63
951.09	226.68
951.39	226.66
951.69	226.63
951.98	226.65
952.28	226.67
952.58	226.69
952.87	226.68
953.17	226.69
953.47	226.67
953.76	226.68
954.06	226.65
954.36	226.68
954.66	226.68
954.95	226.73
955.25	226.71
955.55	226.73
955.84	226.68
956.14	226.70
956.44	226.73
956.73	226.73
957.03	226.76
957.32	226.74
957.62	226.79
957.92	226.83
958.21	226.80
958.51	226.89
958.81	226.91
959.10	226.90
959.40	226.89
959.69	226.92
959.99	226.92
960.29	226.93
960.58	226.91
960.88	226.95
961.17	226.91
961.47	226.95
961.76	226.93
962.06	226.98
962.36	226.99
962.65	227.01
962.95	227.01
963.24	227.02
963.54	227.04
963.83	227.03
964.13	227.02
964.42	227.01
964.72	226.97
965.01	226.97
965.31	226.97
965.60	226.91
965.90	226.97
966.19	226.96
966.49	226.98
966.78	226.98
967.08	226.98
967.37	226.97
967.67	226.95
967.96	226.98
968.26	226.96
968.55	226.96
968.85	226.95
969.14	226.95
969.43	226.91
969.73	226.91
970.02	226.91
970.32	226.90
970.61	226.91
970.91	226.84
971.20	226.81
971.49	226.80
971.79	226.84
972.08	226.81
972.38	226.83
972.67	226.80
972.96	226.81
973.26	226.76
973.55	226.80
973.85	226.79
974.14	226.73
974.43	226.73
974.73	226.71
975.02	226.68
975.31	226.66
975.61	226.67
975.90	226.67
976.19	226.62
976.49	226.60
976.78	226.60
977.07	226.62
977.37	226.59
977.66	226.62
977.95	226.61
978.24	226.59
978.54	226.60
978.83	226.59
979.12	226.59
979.42	226.60
979.71	226.60
980.00	226.59
980.29	226.63
980.59	226.65
980.88	226.72
981.17	226.71
981.46	226.71
981.76	226.70
982.05	226.70
982.34	226.71
982.63	226.72
982.93	226.66
983.22	226.66
983.51	226.69
983.80	226.68
984.09	226.69
984.39	226.70
984.68	226.66
984.97	226.67
985.26	226.68
985.55	226.71
985.85	226.65
986.14	226.68
986.43	226.66
986.72	226.63
987.01	226.59
987.30	226.59
987.59	226.60
987.89	226.60
988.18	226.61
988.47	226.63
988.76	226.65
989.05	226.68
989.34	226.67
989.63	226.71
989.92	226.69
990.22	226.67
990.51	226.66
990.80	226.69
991.09	226.69
991.38	226.69
991.67	226.67
991.96	226.71
992.25	226.71
992.54	226.72
992.83	226.70
993.12	226.69
993.41	226.77
993.70	226.80
993.99	226.82
994.28	226.81
994.58	226.82
994.87	226.80
995.16	226.83
995.45	226.83
995.74	226.81
996.03	226.84
996.32	226.84
996.61	226.90
996.90	226.88
997.19	226.90
997.48	226.92
997.77	226.90
998.06	226.87
998.34	226.87
998.63	226.87
998.92	226.90
999.21	226.90
999.50	226.86
999.79	226.85
1000.08	226.86
1000.37	226.87
1000.66	226.87
1000.95	226.92
1001.24	226.92
1001.53	226.95
1001.82	226.94
1002.11	226.92
1002.40	226.95
1002.68	226.94
1002.97	227.03
1003.26	227.00
1003.55	226.95
1003.84	226.96
1004.13	227.00
1004.42	226.96
1004.71	226.94
1004.99	226.92
1005.28	226.96
1005.57	226.97
1005.86	226.97
1006.15	226.96
1006.44	226.91
1006.72	226.90
1007.01	226.88
1007.30	226.86
1007.59	226.83
1007.88	226.84
1008.17	226.87
1008.45	226.86
1008.74	226.84
1009.03	226.76
1009.32	226.78
1009.60	226.79
1009.89	226.78
1010.18	226.74
1010.47	226.73
1010.76	226.75
1011.04	226.74
1011.33	226.74
1011.62	226.69
1011.91	226.70
1012.19	226.70
1012.48	226.74
1012.77	226.75
1013.05	226.78
1013.34	226.77
1013.63	226.76
1013.92	226.74
1014.20	226.71
1014.49	226.71
1014.78	226.72
1015.06	226.69
1015.35	226.68
1015.64	226.69
1015.92	226.74
1016.21	226.73
1016.50	226.76
1016.78	226.75
1017.07	226.76
1017.36	226.71
1017.64	226.71
1017.93	226.69
1018.22	226.64
1018.50	226.63
1018.79	226.64
1019.08	226.58
1019.36	226.58
1019.65	226.56
1019.93	226.58
1020.22	226.60
1020.51	226.66
1020.79	226.64
1021.08	226.16
1021.36	226.61
1021.65	226.79
1021.94	226.61
1022.22	226.42
1022.51	226.09
1022.79	226.64
1023.08	227.18
1023.36	228.03
1023.65	226.55
>>>>>End Processed Spectral Data<<<<<
