SpectraSuite Data File
++++++++++++++++++++++++++++++++++++
Date: Fri Feb 01 16:09:03 EST 2013
User: group
Dark Spectrum Present: No
Reference Spectrum Present: No
Number of Sampled Component Spectra: 1
Spectrometers: USB2E7196
Integration Time (usec): 35000 (USB2E7196)
Spectra Averaged: 100 (USB2E7196)
Boxcar Smoothing: 10 (USB2E7196)
Correct for Electrical Dark: No (USB2E7196)
Strobe/Lamp Enabled: No (USB2E7196)
Correct for Detector Non-linearity: No (USB2E7196)
Correct for Stray Light: No (USB2E7196)
Number of Pixels in Processed Spectrum: 2048
>>>>>Begin Processed Spectral Data<<<<<
339.09	0.00
339.48	214.36
339.86	216.08
340.24	217.08
340.63	218.88
341.01	221.75
341.39	221.68
341.78	222.59
342.16	224.15
342.54	224.59
342.93	212.85
343.31	223.61
343.69	224.16
344.07	224.62
344.46	225.02
344.84	225.38
345.22	225.61
345.60	225.86
345.99	226.06
346.37	226.18
346.75	226.25
347.13	226.29
347.52	226.32
347.90	226.39
348.28	226.44
348.66	226.51
349.05	226.48
349.43	226.53
349.81	226.60
350.19	226.64
350.57	226.65
350.96	226.76
351.34	226.84
351.72	226.91
352.10	226.98
352.48	227.10
352.87	227.16
353.25	227.22
353.63	227.27
354.01	227.33
354.39	227.40
354.77	227.52
355.15	227.64
355.54	227.72
355.92	227.76
356.30	227.83
356.68	227.95
357.06	228.03
357.44	228.10
357.82	228.13
358.20	228.21
358.58	228.31
358.97	228.38
359.35	228.44
359.73	228.52
360.11	228.60
360.49	228.64
360.87	228.71
361.25	228.76
361.63	228.85
362.01	228.93
362.39	229.00
362.77	229.02
363.15	229.04
363.53	229.06
363.91	229.07
364.29	229.09
364.67	229.03
365.05	229.08
365.43	229.13
365.81	229.17
366.19	229.21
366.57	229.24
366.95	229.20
367.33	229.19
367.71	229.18
368.09	229.19
368.47	229.15
368.85	229.16
369.23	229.14
369.61	229.07
369.99	229.05
370.37	228.99
370.75	229.00
371.13	228.97
371.51	228.93
371.89	228.94
372.27	228.91
372.65	228.87
373.03	228.80
373.41	228.70
373.78	228.61
374.16	228.53
374.54	228.43
374.92	228.38
375.30	228.31
375.68	228.24
376.06	228.15
376.44	228.10
376.82	228.03
377.19	228.00
377.57	227.95
377.95	227.82
378.33	227.76
378.71	227.64
379.09	227.56
379.47	227.49
379.84	227.38
380.22	227.28
380.60	227.20
380.98	227.16
381.36	227.10
381.73	227.03
382.11	226.97
382.49	226.91
382.87	226.87
383.25	226.81
383.62	226.84
384.00	226.80
384.38	226.76
384.76	226.68
385.13	226.63
385.51	226.55
385.89	226.50
386.27	226.43
386.64	226.38
387.02	226.32
387.40	226.28
387.78	226.25
388.15	226.25
388.53	226.20
388.91	226.16
389.29	226.13
389.66	226.13
390.04	226.08
390.42	226.06
390.79	226.00
391.17	225.97
391.55	225.84
391.92	225.81
392.30	225.79
392.68	225.77
393.05	225.78
393.43	225.78
393.81	225.80
394.18	225.81
394.56	225.82
394.94	225.84
395.31	225.85
395.69	225.89
396.06	225.88
396.44	225.90
396.82	225.88
397.19	225.94
397.57	225.96
397.95	226.03
398.32	226.04
398.70	226.10
399.07	226.18
399.45	226.24
399.82	226.31
400.20	226.37
400.58	226.45
400.95	226.50
401.33	226.64
401.70	226.79
402.08	226.87
402.45	227.00
402.83	227.13
403.20	227.25
403.58	227.37
403.95	227.53
404.33	227.63
404.71	227.79
405.08	228.00
405.46	228.12
405.83	228.24
406.21	228.42
406.58	228.61
406.96	228.78
407.33	228.98
407.70	229.17
408.08	229.44
408.45	229.67
408.83	229.89
409.20	230.10
409.58	230.26
409.95	230.55
410.33	230.77
410.70	231.02
411.08	231.31
411.45	231.63
411.82	231.95
412.20	232.35
412.57	232.79
412.95	233.08
413.32	233.50
413.69	233.94
414.07	234.41
414.44	234.87
414.82	235.36
415.19	235.92
415.56	236.50
415.94	237.08
416.31	237.70
416.68	238.33
417.06	239.05
417.43	239.73
417.81	240.51
418.18	241.32
418.55	242.18
418.93	243.06
419.30	243.92
419.67	244.88
420.04	245.84
420.42	246.81
420.79	248.04
421.16	249.23
421.54	250.41
421.91	251.59
422.28	252.88
422.66	254.23
423.03	255.55
423.40	256.87
423.77	258.25
424.15	259.67
424.52	261.17
424.89	262.78
425.26	264.36
425.64	265.80
426.01	267.39
426.38	268.99
426.75	270.67
427.13	272.42
427.50	274.19
427.87	276.06
428.24	277.90
428.61	279.59
428.99	281.48
429.36	283.52
429.73	285.58
430.10	287.58
430.47	289.60
430.85	291.66
431.22	293.85
431.59	296.23
431.96	298.48
432.33	300.96
432.70	303.34
433.08	306.12
433.45	308.72
433.82	311.29
434.19	314.15
434.56	316.95
434.93	319.55
435.30	322.19
435.68	325.02
436.05	327.86
436.42	330.64
436.79	333.09
437.16	335.81
437.53	338.63
437.90	341.42
438.27	344.11
438.64	346.94
439.01	349.52
439.38	351.70
439.75	353.85
440.13	356.30
440.50	358.57
440.87	360.40
441.24	362.33
441.61	364.50
441.98	365.98
442.35	367.77
442.72	369.63
443.09	371.41
443.46	372.44
443.83	373.03
444.20	373.52
444.57	374.45
444.94	374.73
445.31	375.06
445.68	375.41
446.05	375.54
446.42	375.14
446.79	374.77
447.16	374.30
447.53	374.02
447.90	372.88
448.27	371.72
448.64	370.18
449.01	369.05
449.37	367.07
449.74	365.24
450.11	363.00
450.48	360.56
450.85	358.00
451.22	355.87
451.59	353.85
451.96	351.95
452.33	349.34
452.70	347.01
453.07	344.19
453.43	341.30
453.80	338.54
454.17	335.90
454.54	333.35
454.91	330.66
455.28	327.96
455.65	325.46
456.02	323.07
456.38	320.91
456.75	318.29
457.12	316.09
457.49	313.84
457.86	311.66
458.23	309.80
458.59	307.81
458.96	305.72
459.33	303.89
459.70	302.03
460.07	300.51
460.43	298.80
460.80	297.18
461.17	295.74
461.54	294.27
461.91	292.90
462.27	291.46
462.64	290.25
463.01	288.93
463.38	287.64
463.74	286.26
464.11	285.11
464.48	284.11
464.85	283.01
465.21	282.18
465.58	281.30
465.95	280.20
466.32	279.27
466.68	278.38
467.05	277.50
467.42	276.62
467.78	275.72
468.15	274.87
468.52	274.23
468.88	273.39
469.25	272.59
469.62	271.91
469.98	271.21
470.35	270.58
470.72	269.99
471.08	269.34
471.45	268.83
471.82	268.25
472.18	267.62
472.55	267.16
472.92	266.63
473.28	266.14
473.65	265.71
474.02	265.28
474.38	264.87
474.75	264.51
475.11	264.17
475.48	263.89
475.85	263.64
476.21	263.40
476.58	263.20
476.94	263.05
477.31	262.89
477.67	262.75
478.04	262.62
478.41	262.53
478.77	262.57
479.14	262.47
479.50	262.51
479.87	262.59
480.23	262.66
480.60	262.72
480.96	262.80
481.33	262.97
481.69	263.14
482.06	263.37
482.42	263.57
482.79	263.79
483.15	264.09
483.52	264.48
483.88	264.80
484.25	265.19
484.61	265.63
484.98	266.09
485.34	266.66
485.71	267.20
486.07	267.81
486.44	268.37
486.80	269.06
487.17	269.73
487.53	270.49
487.90	271.35
488.26	272.28
488.62	273.29
488.99	274.28
489.35	275.33
489.72	276.43
490.08	277.64
490.44	278.90
490.81	280.23
491.17	281.54
491.54	283.07
491.90	284.61
492.26	286.27
492.63	288.01
492.99	289.81
493.36	291.73
493.72	293.75
494.08	295.89
494.45	298.17
494.81	300.61
495.17	303.10
495.54	305.70
495.90	308.40
496.26	311.23
496.63	314.22
496.99	317.36
497.35	320.68
497.72	324.07
498.08	327.60
498.44	331.31
498.80	335.31
499.17	339.33
499.53	343.50
499.89	347.89
500.26	352.45
500.62	357.11
500.98	362.11
501.34	367.28
501.71	372.62
502.07	378.06
502.43	383.65
502.79	389.49
503.16	395.54
503.52	401.84
503.88	408.25
504.24	414.91
504.60	421.80
504.97	428.88
505.33	436.26
505.69	443.98
506.05	451.74
506.41	459.63
506.78	467.86
507.14	476.40
507.50	485.10
507.86	494.12
508.22	503.38
508.59	512.59
508.95	522.13
509.31	531.87
509.67	542.08
510.03	552.39
510.39	562.93
510.75	573.73
511.12	584.62
511.48	595.88
511.84	607.29
512.20	618.84
512.56	630.85
512.92	643.04
513.28	655.39
513.64	667.89
514.00	680.58
514.37	693.43
514.73	706.41
515.09	719.49
515.45	732.73
515.81	746.21
516.17	760.23
516.53	774.37
516.89	788.54
517.25	802.56
517.61	816.97
517.97	831.41
518.33	845.91
518.69	860.70
519.05	875.62
519.41	890.75
519.77	906.17
520.13	921.49
520.49	936.82
520.85	952.17
521.21	967.79
521.57	984.01
521.93	999.70
522.29	1016.07
522.65	1032.18
523.01	1048.39
523.37	1064.47
523.73	1080.47
524.09	1096.45
524.45	1112.75
524.81	1129.37
525.17	1146.06
525.53	1162.81
525.89	1179.53
526.25	1196.29
526.61	1212.70
526.97	1229.40
527.33	1245.87
527.68	1262.46
528.04	1278.91
528.40	1295.56
528.76	1312.60
529.12	1329.10
529.48	1345.96
529.84	1361.94
530.20	1378.52
530.56	1395.45
530.91	1412.77
531.27	1429.61
531.63	1446.03
531.99	1462.55
532.35	1478.51
532.71	1494.42
533.07	1510.64
533.42	1526.42
533.78	1542.50
534.14	1558.64
534.50	1573.93
534.86	1589.72
535.21	1604.87
535.57	1620.68
535.93	1636.02
536.29	1650.64
536.65	1665.70
537.00	1680.35
537.36	1695.46
537.72	1709.92
538.08	1724.31
538.44	1738.07
538.79	1751.76
539.15	1765.41
539.51	1778.94
539.87	1793.13
540.22	1806.78
540.58	1820.59
540.94	1833.83
541.29	1846.52
541.65	1859.20
542.01	1872.30
542.37	1884.49
542.72	1896.74
543.08	1908.41
543.44	1920.69
543.79	1931.97
544.15	1942.84
544.51	1954.48
544.87	1965.47
545.22	1976.21
545.58	1986.36
545.94	1996.05
546.29	2006.01
546.65	2015.85
547.01	2025.22
547.36	2033.90
547.72	2042.31
548.07	2050.13
548.43	2058.29
548.79	2066.34
549.14	2073.86
549.50	2081.27
549.86	2088.93
550.21	2096.18
550.57	2103.35
550.92	2109.91
551.28	2116.97
551.64	2123.92
551.99	2130.40
552.35	2136.51
552.70	2142.78
553.06	2148.76
553.41	2154.95
553.77	2160.80
554.13	2166.69
554.48	2172.86
554.84	2178.29
555.19	2183.65
555.55	2188.87
555.90	2193.44
556.26	2198.24
556.61	2202.89
556.97	2207.08
557.32	2211.33
557.68	2215.60
558.03	2219.87
558.39	2223.64
558.74	2228.25
559.10	2232.27
559.45	2235.84
559.81	2240.25
560.16	2244.04
560.52	2247.14
560.87	2250.58
561.23	2253.25
561.58	2256.27
561.94	2258.67
562.29	2260.99
562.64	2263.62
563.00	2266.11
563.35	2269.56
563.71	2272.75
564.06	2275.98
564.42	2278.91
564.77	2281.34
565.12	2283.64
565.48	2285.72
565.83	2287.73
566.19	2289.06
566.54	2289.90
566.89	2291.11
567.25	2291.70
567.60	2293.00
567.96	2294.95
568.31	2295.87
568.66	2297.16
569.02	2297.80
569.37	2298.17
569.72	2299.29
570.08	2299.48
570.43	2299.74
570.78	2299.20
571.14	2297.61
571.49	2296.22
571.84	2295.91
572.20	2294.91
572.55	2293.92
572.90	2292.29
573.26	2290.76
573.61	2289.22
573.96	2287.47
574.31	2284.41
574.67	2281.35
575.02	2277.73
575.37	2274.27
575.72	2270.56
576.08	2267.12
576.43	2263.85
576.78	2260.21
577.13	2256.93
577.49	2253.87
577.84	2250.24
578.19	2246.50
578.54	2243.12
578.90	2239.05
579.25	2233.56
579.60	2228.61
579.95	2223.51
580.30	2218.57
580.66	2213.32
581.01	2208.27
581.36	2203.33
581.71	2199.38
582.06	2195.04
582.42	2190.60
582.77	2185.42
583.12	2180.94
583.47	2176.33
583.82	2171.51
584.17	2166.27
584.53	2160.84
584.88	2155.12
585.23	2149.27
585.58	2143.83
585.93	2138.20
586.28	2133.38
586.63	2128.35
586.98	2123.27
587.34	2118.56
587.69	2113.56
588.04	2108.47
588.39	2102.76
588.74	2096.37
589.09	2090.18
589.44	2083.38
589.79	2077.46
590.14	2071.89
590.49	2065.22
590.84	2058.89
591.19	2052.64
591.54	2046.27
591.89	2038.98
592.25	2032.29
592.60	2025.16
592.95	2017.62
593.30	2010.25
593.65	2002.76
594.00	1995.76
594.35	1988.52
594.70	1980.64
595.05	1973.54
595.40	1966.28
595.75	1958.94
596.10	1952.86
596.45	1946.20
596.80	1940.12
597.15	1933.56
597.50	1926.50
597.85	1920.02
598.19	1913.36
598.54	1906.27
598.89	1899.72
599.24	1893.85
599.59	1887.21
599.94	1881.12
600.29	1874.83
600.64	1868.29
600.99	1860.86
601.34	1853.99
601.69	1847.16
602.04	1840.29
602.39	1832.94
602.74	1826.07
603.08	1819.23
603.43	1812.41
603.78	1805.12
604.13	1797.83
604.48	1790.37
604.83	1783.46
605.18	1776.60
605.53	1768.57
605.87	1760.68
606.22	1753.30
606.57	1745.30
606.92	1738.02
607.27	1730.80
607.62	1723.96
607.96	1716.78
608.31	1710.16
608.66	1702.55
609.01	1694.97
609.36	1687.38
609.70	1679.35
610.05	1671.27
610.40	1663.60
610.75	1655.18
611.10	1647.46
611.44	1639.05
611.79	1631.10
612.14	1622.44
612.49	1613.25
612.83	1604.87
613.18	1596.69
613.53	1588.67
613.88	1580.10
614.22	1571.75
614.57	1563.15
614.92	1555.06
615.27	1547.51
615.61	1539.27
615.96	1531.23
616.31	1523.53
616.65	1516.13
617.00	1508.57
617.35	1501.04
617.70	1492.80
618.04	1484.39
618.39	1476.16
618.74	1468.53
619.08	1460.23
619.43	1452.70
619.78	1445.86
620.12	1438.75
620.47	1431.37
620.82	1423.20
621.16	1415.72
621.51	1408.13
621.85	1400.45
622.20	1391.95
622.55	1383.63
622.89	1375.73
623.24	1368.13
623.59	1360.73
623.93	1353.30
624.28	1346.09
624.62	1338.47
624.97	1331.32
625.32	1324.65
625.66	1317.60
626.01	1310.50
626.35	1303.10
626.70	1295.22
627.04	1287.40
627.39	1279.54
627.73	1272.04
628.08	1265.22
628.43	1257.94
628.77	1250.54
629.12	1242.95
629.46	1235.77
629.81	1228.32
630.15	1221.12
630.50	1213.70
630.84	1205.58
631.19	1197.63
631.53	1190.11
631.88	1182.61
632.22	1174.98
632.57	1167.63
632.91	1160.02
633.26	1152.55
633.60	1145.20
633.95	1138.13
634.29	1131.17
634.64	1124.51
634.98	1117.19
635.32	1109.87
635.67	1103.32
636.01	1096.70
636.36	1089.93
636.70	1083.40
637.05	1076.81
637.39	1070.33
637.73	1063.91
638.08	1057.99
638.42	1052.00
638.77	1045.63
639.11	1039.06
639.45	1032.55
639.80	1025.87
640.14	1019.59
640.49	1013.15
640.83	1006.81
641.17	1000.55
641.52	994.23
641.86	987.74
642.20	981.86
642.55	975.68
642.89	969.24
643.23	962.62
643.58	956.92
643.92	950.75
644.26	944.67
644.61	938.61
644.95	932.48
645.29	925.88
645.64	919.14
645.98	912.84
646.32	906.97
646.66	900.99
647.01	895.25
647.35	889.52
647.69	883.63
648.04	878.06
648.38	872.32
648.72	866.24
649.06	860.28
649.41	854.44
649.75	848.47
650.09	842.54
650.43	836.84
650.78	830.69
651.12	824.76
651.46	819.02
651.80	813.25
652.14	807.87
652.49	802.53
652.83	797.34
653.17	791.55
653.51	785.81
653.85	780.39
654.20	774.72
654.54	768.75
654.88	763.02
655.22	757.19
655.56	751.56
655.90	746.13
656.25	740.78
656.59	735.38
656.93	730.21
657.27	724.97
657.61	719.45
657.95	714.31
658.29	709.17
658.64	703.90
658.98	698.64
659.32	693.16
659.66	687.92
660.00	682.57
660.34	677.66
660.68	672.75
661.02	667.72
661.36	663.01
661.70	658.49
662.05	654.07
662.39	649.70
662.73	645.11
663.07	640.76
663.41	636.41
663.75	631.85
664.09	627.33
664.43	623.01
664.77	618.98
665.11	614.70
665.45	610.64
665.79	606.58
666.13	602.44
666.47	598.36
666.81	594.19
667.15	590.13
667.49	586.23
667.83	582.42
668.17	578.43
668.51	574.33
668.85	570.24
669.19	566.46
669.53	562.61
669.87	558.77
670.21	555.11
670.55	551.46
670.89	548.06
671.23	544.60
671.57	541.12
671.91	537.54
672.25	534.06
672.58	530.50
672.92	527.06
673.26	523.92
673.60	520.78
673.94	517.70
674.28	514.75
674.62	511.74
674.96	508.63
675.30	505.76
675.64	502.83
675.97	500.05
676.31	497.18
676.65	494.28
676.99	491.59
677.33	488.66
677.67	485.82
678.01	482.80
678.34	479.81
678.68	476.86
679.02	474.00
679.36	471.27
679.70	468.54
680.04	465.84
680.37	462.92
680.71	460.12
681.05	457.51
681.39	454.78
681.73	452.18
682.06	449.68
682.40	447.15
682.74	444.68
683.08	442.16
683.42	439.61
683.75	437.14
684.09	434.61
684.43	432.21
684.77	429.76
685.10	427.46
685.44	425.20
685.78	422.92
686.12	420.76
686.45	418.49
686.79	416.17
687.13	413.99
687.46	411.86
687.80	409.71
688.14	407.47
688.48	405.44
688.81	403.19
689.15	401.00
689.49	398.84
689.82	396.72
690.16	394.64
690.50	392.65
690.83	390.70
691.17	388.72
691.51	386.75
691.84	384.93
692.18	382.98
692.52	380.97
692.85	379.07
693.19	377.17
693.52	375.30
693.86	373.51
694.20	371.64
694.53	369.81
694.87	367.97
695.21	366.17
695.54	364.38
695.88	362.63
696.21	360.94
696.55	359.25
696.88	357.54
697.22	355.86
697.56	354.19
697.89	352.48
698.23	350.86
698.56	349.27
698.90	347.59
699.23	345.95
699.57	344.42
699.90	342.86
700.24	341.30
700.58	339.77
700.91	338.30
701.25	336.86
701.58	335.50
701.92	334.12
702.25	332.75
702.59	331.29
702.92	329.95
703.26	328.62
703.59	327.30
703.93	326.14
704.26	324.94
704.60	323.66
704.93	322.41
705.26	321.14
705.60	319.92
705.93	318.79
706.27	317.73
706.60	316.65
706.94	315.56
707.27	314.42
707.61	313.35
707.94	312.27
708.27	311.18
708.61	310.12
708.94	309.15
709.28	308.19
709.61	307.24
709.94	306.32
710.28	305.34
710.61	304.41
710.95	303.34
711.28	302.42
711.61	301.48
711.95	300.55
712.28	299.61
712.61	298.68
712.95	297.75
713.28	296.90
713.61	296.00
713.95	295.11
714.28	294.27
714.61	293.42
714.95	292.63
715.28	291.81
715.61	290.93
715.95	290.02
716.28	289.14
716.61	288.35
716.95	287.53
717.28	286.80
717.61	286.04
717.94	285.29
718.28	284.46
718.61	283.73
718.94	283.05
719.27	282.42
719.61	281.77
719.94	281.11
720.27	280.38
720.60	279.72
720.94	279.11
721.27	278.52
721.60	278.00
721.93	277.38
722.27	276.84
722.60	276.27
722.93	275.70
723.26	275.19
723.59	274.60
723.93	274.05
724.26	273.49
724.59	272.92
724.92	272.45
725.25	271.97
725.59	271.46
725.92	270.94
726.25	270.41
726.58	269.92
726.91	269.42
727.24	268.92
727.57	268.52
727.91	268.00
728.24	267.54
728.57	266.99
728.90	266.50
729.23	265.98
729.56	265.57
729.89	265.12
730.22	264.65
730.55	264.20
730.89	263.76
731.22	263.36
731.55	262.93
731.88	262.46
732.21	262.03
732.54	261.59
732.87	261.19
733.20	260.76
733.53	260.37
733.86	259.99
734.19	259.59
734.52	259.18
734.85	258.88
735.18	258.45
735.51	258.11
735.84	257.75
736.17	257.42
736.50	257.00
736.83	256.78
737.16	256.44
737.49	256.12
737.82	255.76
738.15	255.39
738.48	255.02
738.81	254.69
739.14	254.38
739.47	254.07
739.80	253.73
740.13	253.47
740.46	253.15
740.79	252.81
741.12	252.53
741.45	252.21
741.78	251.85
742.11	251.59
742.44	251.25
742.77	250.98
743.10	250.68
743.43	250.41
743.75	249.98
744.08	249.82
744.41	249.49
744.74	249.23
745.07	248.96
745.40	248.71
745.73	248.49
746.06	248.22
746.39	247.96
746.71	247.70
747.04	247.41
747.37	247.12
747.70	246.89
748.03	246.66
748.36	246.41
748.68	246.18
749.01	245.88
749.34	245.68
749.67	245.45
750.00	245.18
750.33	245.02
750.65	244.84
750.98	244.48
751.31	244.32
751.64	244.10
751.97	243.93
752.29	243.71
752.62	243.43
752.95	243.20
753.28	243.00
753.60	242.81
753.93	242.65
754.26	242.46
754.59	242.24
754.91	242.03
755.24	241.85
755.57	241.64
755.90	241.49
756.22	241.29
756.55	241.08
756.88	240.95
757.20	240.72
757.53	240.51
757.86	240.38
758.19	240.19
758.51	240.03
758.84	239.82
759.17	239.67
759.49	239.54
759.82	239.42
760.15	239.28
760.47	239.13
760.80	238.95
761.13	238.80
761.45	238.64
761.78	238.50
762.11	238.31
762.43	238.18
762.76	238.05
763.08	237.91
763.41	237.78
763.74	237.63
764.06	237.51
764.39	237.36
764.71	237.19
765.04	237.06
765.37	236.94
765.69	236.81
766.02	236.68
766.34	236.57
766.67	236.38
767.00	236.28
767.32	236.18
767.65	236.09
767.97	235.99
768.30	235.89
768.62	235.78
768.95	235.68
769.27	235.55
769.60	235.47
769.92	235.37
770.25	235.32
770.57	235.20
770.90	235.06
771.22	234.99
771.55	234.91
771.87	234.81
772.20	234.72
772.52	234.75
772.85	234.80
773.17	234.71
773.50	234.63
773.82	234.51
774.15	234.39
774.47	234.29
774.80	234.21
775.12	234.12
775.45	234.02
775.77	233.97
776.09	233.91
776.42	233.80
776.74	233.72
777.07	233.59
777.39	233.53
777.72	233.48
778.04	233.40
778.36	233.32
778.69	233.29
779.01	233.22
779.33	233.02
779.66	232.79
779.98	232.71
780.31	232.64
780.63	232.62
780.95	232.55
781.28	232.48
781.60	232.40
781.92	232.35
782.25	232.26
782.57	232.20
782.89	232.11
783.22	232.02
783.54	231.96
783.86	231.90
784.19	231.83
784.51	231.79
784.83	231.74
785.16	231.67
785.48	231.58
785.80	231.52
786.12	231.49
786.45	231.44
786.77	231.38
787.09	231.37
787.42	231.28
787.74	231.24
788.06	231.19
788.38	231.10
788.71	231.04
789.03	231.03
789.35	230.98
789.67	230.94
789.99	230.92
790.32	230.85
790.64	230.81
790.96	230.81
791.28	230.73
791.61	230.68
791.93	230.64
792.25	230.57
792.57	230.57
792.89	230.50
793.21	230.47
793.54	230.45
793.86	230.36
794.18	230.31
794.50	230.27
794.82	230.22
795.14	230.21
795.47	230.18
795.79	230.14
796.11	230.09
796.43	230.05
796.75	230.01
797.07	230.00
797.39	229.99
797.71	229.91
798.04	229.87
798.36	229.84
798.68	229.82
799.00	229.80
799.32	229.75
799.64	229.71
799.96	229.68
800.28	229.67
800.60	229.65
800.92	229.65
801.24	229.59
801.56	229.61
801.89	229.59
802.21	229.58
802.53	229.52
802.85	229.52
803.17	229.56
803.49	229.52
803.81	229.49
804.13	229.46
804.45	229.44
804.77	229.42
805.09	229.39
805.41	229.33
805.73	229.34
806.05	229.28
806.37	229.29
806.69	229.26
807.01	229.23
807.33	229.22
807.65	229.15
807.97	229.21
808.28	229.19
808.60	229.16
808.92	229.12
809.24	229.18
809.56	229.14
809.88	229.04
810.20	229.01
810.52	229.04
810.84	229.01
811.16	228.96
811.48	228.93
811.80	228.92
812.12	228.93
812.43	228.89
812.75	228.87
813.07	228.86
813.39	228.84
813.71	228.79
814.03	228.74
814.35	228.74
814.67	228.65
814.98	228.59
815.30	228.54
815.62	228.48
815.94	228.39
816.26	228.39
816.58	228.39
816.89	228.40
817.21	228.34
817.53	228.31
817.85	228.30
818.17	228.29
818.48	228.27
818.80	228.27
819.12	228.25
819.44	228.22
819.76	228.19
820.07	228.15
820.39	228.16
820.71	228.19
821.03	228.16
821.34	228.11
821.66	228.08
821.98	228.08
822.30	228.06
822.61	228.09
822.93	228.06
823.25	228.02
823.57	227.98
823.88	227.96
824.20	227.93
824.52	227.93
824.83	227.92
825.15	227.90
825.47	227.86
825.79	227.81
826.10	227.78
826.42	227.74
826.74	227.75
827.05	227.71
827.37	227.69
827.69	227.68
828.00	227.69
828.32	227.69
828.64	227.65
828.95	227.72
829.27	227.66
829.58	227.62
829.90	227.62
830.22	227.59
830.53	227.60
830.85	227.59
831.17	227.56
831.48	227.53
831.80	227.52
832.11	227.50
832.43	227.50
832.75	227.50
833.06	227.55
833.38	227.53
833.69	227.55
834.01	227.54
834.32	227.52
834.64	227.48
834.96	227.46
835.27	227.48
835.59	227.44
835.90	227.43
836.22	227.40
836.53	227.38
836.85	227.39
837.16	227.46
837.48	227.43
837.79	227.47
838.11	227.45
838.42	227.46
838.74	227.47
839.05	227.47
839.37	227.47
839.68	227.43
840.00	227.42
840.31	227.41
840.63	227.43
840.94	227.41
841.26	227.43
841.57	227.43
841.88	227.45
842.20	227.43
842.51	227.43
842.83	227.47
843.14	227.55
843.46	227.53
843.77	227.48
844.08	227.48
844.40	227.43
844.71	227.44
845.03	227.40
845.34	227.40
845.65	227.39
845.97	227.36
846.28	227.34
846.60	227.34
846.91	227.30
847.22	227.28
847.54	227.33
847.85	227.32
848.16	227.32
848.48	227.26
848.79	227.32
849.10	227.35
849.42	227.35
849.73	227.25
850.04	227.25
850.36	227.22
850.67	227.25
850.98	227.25
851.30	227.26
851.61	227.26
851.92	227.26
852.23	227.32
852.55	227.33
852.86	227.37
853.17	227.37
853.49	227.39
853.80	227.40
854.11	227.38
854.42	227.39
854.74	227.37
855.05	227.40
855.36	227.33
855.67	227.32
855.99	227.33
856.30	227.43
856.61	227.42
856.92	227.41
857.23	227.40
857.55	227.40
857.86	227.41
858.17	227.44
858.48	227.43
858.79	227.37
859.11	227.36
859.42	227.32
859.73	227.29
860.04	227.28
860.35	227.23
860.66	227.20
860.98	227.17
861.29	227.19
861.60	227.16
861.91	227.18
862.22	227.13
862.53	227.12
862.84	227.02
863.16	227.06
863.47	227.04
863.78	227.01
864.09	227.02
864.40	226.97
864.71	226.95
865.02	226.95
865.33	226.93
865.64	226.93
865.95	226.97
866.27	227.04
866.58	227.01
866.89	227.05
867.20	227.07
867.51	227.05
867.82	227.04
868.13	227.05
868.44	227.03
868.75	227.06
869.06	227.06
869.37	227.09
869.68	227.03
869.99	227.03
870.30	227.04
870.61	227.05
870.92	227.02
871.23	226.99
871.54	226.98
871.85	227.01
872.16	227.01
872.47	226.98
872.78	226.90
873.09	226.94
873.40	226.90
873.71	226.89
874.02	226.90
874.33	226.89
874.64	226.88
874.95	226.91
875.26	226.87
875.56	226.87
875.87	226.85
876.18	226.84
876.49	226.91
876.80	226.90
877.11	226.86
877.42	226.90
877.73	226.90
878.04	226.88
878.35	226.87
878.66	226.87
878.96	226.87
879.27	226.89
879.58	226.86
879.89	226.84
880.20	226.81
880.51	226.82
880.82	226.85
881.12	226.86
881.43	226.81
881.74	226.81
882.05	226.79
882.36	226.77
882.67	226.78
882.97	226.68
883.28	226.61
883.59	226.60
883.90	226.62
884.21	226.65
884.51	226.64
884.82	226.63
885.13	226.61
885.44	226.59
885.74	226.58
886.05	226.59
886.36	226.60
886.67	226.63
886.98	226.65
887.28	226.61
887.59	226.62
887.90	226.63
888.20	226.66
888.51	226.66
888.82	226.65
889.13	226.70
889.43	226.78
889.74	226.84
890.05	226.84
890.35	226.81
890.66	226.82
890.97	226.82
891.28	226.80
891.58	226.82
891.89	226.83
892.20	226.82
892.50	226.76
892.81	226.79
893.12	226.76
893.42	226.77
893.73	226.80
894.04	226.76
894.34	226.76
894.65	226.72
894.95	226.72
895.26	226.73
895.57	226.77
895.87	226.68
896.18	226.71
896.48	226.72
896.79	226.74
897.10	226.74
897.40	226.74
897.71	226.76
898.01	226.76
898.32	226.77
898.63	226.76
898.93	226.81
899.24	226.78
899.54	226.78
899.85	226.72
900.15	226.70
900.46	226.75
900.76	226.78
901.07	226.78
901.38	226.77
901.68	226.79
901.99	226.72
902.29	226.73
902.60	226.67
902.90	226.67
903.21	226.68
903.51	226.67
903.82	226.71
904.12	226.73
904.43	226.73
904.73	226.73
905.03	226.76
905.34	226.84
905.64	226.84
905.95	226.82
906.25	226.86
906.56	226.84
906.86	226.83
907.17	226.76
907.47	226.79
907.77	226.77
908.08	226.77
908.38	226.77
908.69	226.78
908.99	226.78
909.30	226.78
909.60	226.77
909.90	226.78
910.21	226.73
910.51	226.70
910.81	226.67
911.12	226.64
911.42	226.63
911.73	226.49
912.03	226.52
912.33	226.56
912.64	226.55
912.94	226.56
913.24	226.52
913.55	226.53
913.85	226.48
914.15	226.50
914.46	226.47
914.76	226.48
915.06	226.46
915.37	226.47
915.67	226.46
915.97	226.46
916.27	226.42
916.58	226.42
916.88	226.42
917.18	226.43
917.49	226.50
917.79	226.50
918.09	226.54
918.39	226.56
918.70	226.55
919.00	226.52
919.30	226.54
919.60	226.53
919.91	226.52
920.21	226.55
920.51	226.54
920.81	226.53
921.12	226.53
921.42	226.55
921.72	226.57
922.02	226.55
922.32	226.54
922.63	226.56
922.93	226.60
923.23	226.58
923.53	226.56
923.83	226.50
924.13	226.51
924.44	226.50
924.74	226.51
925.04	226.52
925.34	226.52
925.64	226.51
925.94	226.54
926.24	226.58
926.55	226.56
926.85	226.56
927.15	226.59
927.45	226.61
927.75	226.64
928.05	226.63
928.35	226.66
928.65	226.66
928.95	226.67
929.26	226.64
929.56	226.71
929.86	226.76
930.16	226.76
930.46	226.76
930.76	226.78
931.06	226.78
931.36	226.76
931.66	226.83
931.96	226.84
932.26	226.84
932.56	226.81
932.86	226.82
933.16	226.83
933.46	226.82
933.76	226.79
934.06	226.76
934.36	226.83
934.66	226.82
934.96	226.84
935.26	226.85
935.56	226.88
935.86	226.84
936.16	226.79
936.46	226.81
936.76	226.78
937.06	226.75
937.36	226.74
937.66	226.72
937.96	226.69
938.26	226.71
938.56	226.73
938.86	226.76
939.16	226.82
939.46	226.83
939.76	226.84
940.06	226.85
940.35	226.84
940.65	226.76
940.95	226.79
941.25	226.74
941.55	226.72
941.85	226.69
942.15	226.73
942.45	226.79
942.75	226.77
943.04	226.77
943.34	226.80
943.64	226.78
943.94	226.81
944.24	226.79
944.54	226.75
944.84	226.73
945.13	226.69
945.43	226.63
945.73	226.62
946.03	226.61
946.33	226.58
946.62	226.56
946.92	226.57
947.22	226.53
947.52	226.53
947.82	226.53
948.11	226.50
948.41	226.43
948.71	226.38
949.01	226.37
949.31	226.36
949.60	226.33
949.90	226.32
950.20	226.25
950.50	226.23
950.79	226.22
951.09	226.21
951.39	226.20
951.69	226.21
951.98	226.21
952.28	226.22
952.58	226.23
952.87	226.23
953.17	226.23
953.47	226.24
953.76	226.24
954.06	226.22
954.36	226.24
954.66	226.22
954.95	226.23
955.25	226.24
955.55	226.28
955.84	226.26
956.14	226.25
956.44	226.28
956.73	226.28
957.03	226.29
957.32	226.29
957.62	226.30
957.92	226.32
958.21	226.32
958.51	226.41
958.81	226.39
959.10	226.42
959.40	226.45
959.69	226.44
959.99	226.46
960.29	226.47
960.58	226.46
960.88	226.53
961.17	226.53
961.47	226.51
961.76	226.47
962.06	226.50
962.36	226.53
962.65	226.53
962.95	226.55
963.24	226.55
963.54	226.57
963.83	226.57
964.13	226.59
964.42	226.55
964.72	226.47
965.01	226.48
965.31	226.48
965.60	226.48
965.90	226.56
966.19	226.54
966.49	226.56
966.78	226.59
967.08	226.58
967.37	226.60
967.67	226.61
967.96	226.66
968.26	226.66
968.55	226.67
968.85	226.67
969.14	226.67
969.43	226.70
969.73	226.68
970.02	226.72
970.32	226.71
970.61	226.73
970.91	226.73
971.20	226.73
971.49	226.73
971.79	226.71
972.08	226.65
972.38	226.68
972.67	226.65
972.96	226.64
973.26	226.62
973.55	226.68
973.85	226.69
974.14	226.68
974.43	226.71
974.73	226.72
975.02	226.74
975.31	226.75
975.61	226.71
975.90	226.74
976.19	226.71
976.49	226.72
976.78	226.72
977.07	226.72
977.37	226.73
977.66	226.74
977.95	226.75
978.24	226.75
978.54	226.73
978.83	226.76
979.12	226.75
979.42	226.76
979.71	226.71
980.00	226.69
980.29	226.69
980.59	226.68
980.88	226.68
981.17	226.69
981.46	226.68
981.76	226.72
982.05	226.73
982.34	226.72
982.63	226.71
982.93	226.73
983.22	226.74
983.51	226.73
983.80	226.73
984.09	226.73
984.39	226.69
984.68	226.69
984.97	226.67
985.26	226.65
985.55	226.63
985.85	226.58
986.14	226.57
986.43	226.57
986.72	226.54
987.01	226.50
987.30	226.46
987.59	226.43
987.89	226.39
988.18	226.32
988.47	226.30
988.76	226.27
989.05	226.24
989.34	226.17
989.63	226.19
989.92	226.18
990.22	226.11
990.51	226.11
990.80	226.09
991.09	226.09
991.38	226.09
991.67	226.08
991.96	226.08
992.25	226.07
992.54	226.02
992.83	225.99
993.12	225.99
993.41	226.02
993.70	226.06
993.99	226.07
994.28	226.08
994.58	226.09
994.87	226.10
995.16	226.07
995.45	226.11
995.74	226.06
996.03	226.07
996.32	226.10
996.61	226.15
996.90	226.17
997.19	226.16
997.48	226.17
997.77	226.16
998.06	226.15
998.34	226.15
998.63	226.15
998.92	226.19
999.21	226.23
999.50	226.22
999.79	226.21
1000.08	226.21
1000.37	226.22
1000.66	226.25
1000.95	226.29
1001.24	226.31
1001.53	226.32
1001.82	226.34
1002.11	226.33
1002.40	226.36
1002.68	226.37
1002.97	226.43
1003.26	226.44
1003.55	226.45
1003.84	226.50
1004.13	226.56
1004.42	226.56
1004.71	226.60
1004.99	226.60
1005.28	226.61
1005.57	226.61
1005.86	226.60
1006.15	226.61
1006.44	226.63
1006.72	226.59
1007.01	226.57
1007.30	226.58
1007.59	226.57
1007.88	226.55
1008.17	226.57
1008.45	226.53
1008.74	226.48
1009.03	226.42
1009.32	226.45
1009.60	226.46
1009.89	226.43
1010.18	226.40
1010.47	226.42
1010.76	226.44
1011.04	226.43
1011.33	226.42
1011.62	226.41
1011.91	226.42
1012.19	226.45
1012.48	226.44
1012.77	226.48
1013.05	226.49
1013.34	226.51
1013.63	226.50
1013.92	226.52
1014.20	226.49
1014.49	226.51
1014.78	226.53
1015.06	226.48
1015.35	226.44
1015.64	226.43
1015.92	226.45
1016.21	226.45
1016.50	226.43
1016.78	226.40
1017.07	226.40
1017.36	226.36
1017.64	226.37
1017.93	226.36
1018.22	226.35
1018.50	226.31
1018.79	226.28
1019.08	226.26
1019.36	226.23
1019.65	226.23
1019.93	226.23
1020.22	226.26
1020.51	226.27
1020.79	226.24
1021.08	226.63
1021.36	225.54
1021.65	226.17
1021.94	226.71
1022.22	225.77
1022.51	225.94
1022.79	226.67
1023.08	226.50
1023.36	226.79
1023.65	225.70
>>>>>End Processed Spectral Data<<<<<
