SpectraSuite Data File
++++++++++++++++++++++++++++++++++++
Date: Fri Feb 01 17:34:47 EST 2013
User: group
Dark Spectrum Present: No
Reference Spectrum Present: No
Number of Sampled Component Spectra: 1
Spectrometers: USB2E7196
Integration Time (usec): 35000 (USB2E7196)
Spectra Averaged: 100 (USB2E7196)
Boxcar Smoothing: 10 (USB2E7196)
Correct for Electrical Dark: No (USB2E7196)
Strobe/Lamp Enabled: No (USB2E7196)
Correct for Detector Non-linearity: No (USB2E7196)
Correct for Stray Light: No (USB2E7196)
Number of Pixels in Processed Spectrum: 2048
>>>>>Begin Processed Spectral Data<<<<<
339.09	0.00
339.48	213.18
339.86	214.27
340.24	216.05
340.63	217.43
341.01	220.55
341.39	219.57
341.78	221.16
342.16	222.27
342.54	223.10
342.93	211.32
343.31	221.97
343.69	222.49
344.07	222.95
344.46	223.34
344.84	223.68
345.22	223.89
345.60	224.10
345.99	224.27
346.37	224.40
346.75	224.46
347.13	224.53
347.52	224.59
347.90	224.62
348.28	224.65
348.66	224.65
349.05	224.63
349.43	224.67
349.81	224.74
350.19	224.79
350.57	224.87
350.96	224.93
351.34	225.04
351.72	225.12
352.10	225.20
352.48	225.28
352.87	225.35
353.25	225.42
353.63	225.53
354.01	225.60
354.39	225.67
354.77	225.77
355.15	225.86
355.54	225.93
355.92	225.99
356.30	226.06
356.68	226.25
357.06	226.33
357.44	226.38
357.82	226.42
358.20	226.51
358.58	226.55
358.97	226.62
359.35	226.72
359.73	226.80
360.11	226.91
360.49	226.98
360.87	227.04
361.25	227.12
361.63	227.17
362.01	227.25
362.39	227.30
362.77	227.33
363.15	227.37
363.53	227.40
363.91	227.43
364.29	227.45
364.67	227.40
365.05	227.47
365.43	227.49
365.81	227.53
366.19	227.58
366.57	227.64
366.95	227.64
367.33	227.59
367.71	227.60
368.09	227.58
368.47	227.57
368.85	227.56
369.23	227.54
369.61	227.50
369.99	227.50
370.37	227.49
370.75	227.54
371.13	227.46
371.51	227.40
371.89	227.37
372.27	227.35
372.65	227.28
373.03	227.23
373.41	227.20
373.78	227.10
374.16	227.01
374.54	226.96
374.92	226.90
375.30	226.87
375.68	226.81
376.06	226.76
376.44	226.74
376.82	226.69
377.19	226.62
377.57	226.58
377.95	226.51
378.33	226.43
378.71	226.32
379.09	226.29
379.47	226.25
379.84	226.22
380.22	226.14
380.60	226.06
380.98	225.97
381.36	225.90
381.73	225.85
382.11	225.79
382.49	225.69
382.87	225.65
383.25	225.60
383.62	225.64
384.00	225.55
384.38	225.49
384.76	225.43
385.13	225.42
385.51	225.37
385.89	225.29
386.27	225.24
386.64	225.22
387.02	225.18
387.40	225.12
387.78	225.10
388.15	225.09
388.53	225.04
388.91	225.00
389.29	224.96
389.66	224.95
390.04	224.91
390.42	224.91
390.79	224.86
391.17	224.83
391.55	224.73
391.92	224.73
392.30	224.72
392.68	224.70
393.05	224.68
393.43	224.67
393.81	224.69
394.18	224.68
394.56	224.68
394.94	224.69
395.31	224.72
395.69	224.74
396.06	224.77
396.44	224.82
396.82	224.87
397.19	224.95
397.57	224.97
397.95	225.05
398.32	225.03
398.70	225.06
399.07	225.12
399.45	225.14
399.82	225.19
400.20	225.22
400.58	225.25
400.95	225.30
401.33	225.39
401.70	225.53
402.08	225.64
402.45	225.71
402.83	225.84
403.20	225.91
403.58	225.98
403.95	226.10
404.33	226.19
404.71	226.28
405.08	226.47
405.46	226.63
405.83	226.75
406.21	226.91
406.58	227.11
406.96	227.24
407.33	227.43
407.70	227.63
408.08	227.92
408.45	228.15
408.83	228.37
409.20	228.58
409.58	228.73
409.95	228.98
410.33	229.25
410.70	229.46
411.08	229.80
411.45	230.13
411.82	230.42
412.20	230.80
412.57	231.25
412.95	231.51
413.32	231.90
413.69	232.33
414.07	232.79
414.44	233.25
414.82	233.78
415.19	234.33
415.56	234.86
415.94	235.40
416.31	236.05
416.68	236.69
417.06	237.42
417.43	238.16
417.81	238.94
418.18	239.75
418.55	240.61
418.93	241.46
419.30	242.37
419.67	243.34
420.04	244.34
420.42	245.35
420.79	246.59
421.16	247.79
421.54	249.03
421.91	250.26
422.28	251.56
422.66	252.93
423.03	254.30
423.40	255.69
423.77	257.19
424.15	258.67
424.52	260.21
424.89	261.87
425.26	263.50
425.64	264.98
426.01	266.66
426.38	268.38
426.75	270.18
427.13	271.96
427.50	273.85
427.87	275.79
428.24	277.72
428.61	279.55
428.99	281.61
429.36	283.81
429.73	285.97
430.10	288.09
430.47	290.24
430.85	292.46
431.22	294.79
431.59	297.27
431.96	299.62
432.33	302.24
432.70	304.73
433.08	307.64
433.45	310.41
433.82	313.08
434.19	316.13
434.56	319.06
434.93	321.84
435.30	324.52
435.68	327.49
436.05	330.47
436.42	333.35
436.79	335.96
437.16	338.76
437.53	341.72
437.90	344.60
438.27	347.43
438.64	350.38
439.01	353.08
439.38	355.39
439.75	357.66
440.13	360.23
440.50	362.67
440.87	364.56
441.24	366.61
441.61	368.90
441.98	370.47
442.35	372.31
442.72	374.29
443.09	376.23
443.46	377.32
443.83	377.93
444.20	378.49
444.57	379.35
444.94	379.65
445.31	380.02
445.68	380.44
446.05	380.57
446.42	380.18
446.79	379.77
447.16	379.35
447.53	379.04
447.90	377.90
448.27	376.72
448.64	375.13
449.01	373.93
449.37	371.90
449.74	369.98
450.11	367.69
450.48	365.15
450.85	362.57
451.22	360.33
451.59	358.27
451.96	356.25
452.33	353.57
452.70	351.15
453.07	348.21
453.43	345.19
453.80	342.28
454.17	339.53
454.54	336.87
454.91	334.03
455.28	331.23
455.65	328.61
456.02	326.06
456.38	323.83
456.75	321.06
457.12	318.68
457.49	316.31
457.86	314.04
458.23	312.07
458.59	309.92
458.96	307.75
459.33	305.77
459.70	303.82
460.07	302.25
460.43	300.44
460.80	298.75
461.17	297.29
461.54	295.73
461.91	294.24
462.27	292.75
462.64	291.42
463.01	290.03
463.38	288.68
463.74	287.26
464.11	286.07
464.48	284.99
464.85	283.83
465.21	282.91
465.58	281.94
465.95	280.80
466.32	279.87
466.68	278.94
467.05	278.05
467.42	277.15
467.78	276.16
468.15	275.28
468.52	274.60
468.88	273.68
469.25	272.89
469.62	272.26
469.98	271.53
470.35	270.90
470.72	270.30
471.08	269.58
471.45	269.00
471.82	268.43
472.18	267.83
472.55	267.40
472.92	266.86
473.28	266.40
473.65	265.93
474.02	265.44
474.38	265.07
474.75	264.72
475.11	264.33
475.48	264.06
475.85	263.83
476.21	263.56
476.58	263.40
476.94	263.26
477.31	263.02
477.67	262.90
478.04	262.76
478.41	262.70
478.77	262.78
479.14	262.69
479.50	262.68
479.87	262.78
480.23	262.86
480.60	262.94
480.96	262.99
481.33	263.19
481.69	263.39
482.06	263.61
482.42	263.81
482.79	264.08
483.15	264.43
483.52	264.81
483.88	265.17
484.25	265.59
484.61	266.00
484.98	266.47
485.34	267.03
485.71	267.64
486.07	268.19
486.44	268.75
486.80	269.48
487.17	270.20
487.53	271.00
487.90	271.87
488.26	272.76
488.62	273.79
488.99	274.74
489.35	275.79
489.72	276.85
490.08	278.03
490.44	279.25
490.81	280.52
491.17	281.84
491.54	283.30
491.90	284.78
492.26	286.39
492.63	288.10
492.99	289.85
493.36	291.67
493.72	293.68
494.08	295.74
494.45	297.98
494.81	300.34
495.17	302.73
495.54	305.24
495.90	307.93
496.26	310.74
496.63	313.69
496.99	316.76
497.35	319.99
497.72	323.35
498.08	326.88
498.44	330.51
498.80	334.38
499.17	338.39
499.53	342.51
499.89	346.82
500.26	351.29
500.62	355.89
500.98	360.81
501.34	365.82
501.71	371.08
502.07	376.43
502.43	381.94
502.79	387.69
503.16	393.66
503.52	399.82
503.88	406.07
504.24	412.60
504.60	419.37
504.97	426.38
505.33	433.58
505.69	441.11
506.05	448.74
506.41	456.52
506.78	464.47
507.14	472.79
507.50	481.34
507.86	490.16
508.22	499.20
508.59	508.21
508.95	517.55
509.31	527.14
509.67	537.01
510.03	547.01
510.39	557.34
510.75	567.84
511.12	578.51
511.48	589.55
511.84	600.69
512.20	611.95
512.56	623.60
512.92	635.51
513.28	647.55
513.64	659.78
514.00	672.14
514.37	684.82
514.73	697.50
515.09	710.25
515.45	723.19
515.81	736.38
516.17	749.90
516.53	763.69
516.89	777.51
517.25	791.30
517.61	805.30
517.97	819.39
518.33	833.44
518.69	847.81
519.05	862.29
519.41	877.03
519.77	891.96
520.13	906.90
520.49	921.80
520.85	936.60
521.21	951.66
521.57	967.42
521.93	982.58
522.29	998.37
522.65	1014.09
523.01	1029.80
523.37	1045.34
523.73	1061.10
524.09	1076.63
524.45	1092.30
524.81	1108.37
525.17	1124.65
525.53	1140.87
525.89	1157.18
526.25	1173.54
526.61	1189.50
526.97	1205.69
527.33	1221.74
527.68	1237.84
528.04	1253.81
528.40	1270.05
528.76	1286.68
529.12	1302.80
529.48	1319.32
529.84	1334.95
530.20	1351.07
530.56	1367.39
530.91	1384.24
531.27	1400.56
531.63	1416.58
531.99	1432.78
532.35	1448.33
532.71	1463.95
533.07	1479.88
533.42	1495.36
533.78	1511.00
534.14	1526.69
534.50	1541.61
534.86	1557.08
535.21	1571.95
535.57	1587.35
535.93	1602.36
536.29	1616.81
536.65	1631.44
537.00	1645.64
537.36	1660.56
537.72	1674.75
538.08	1689.10
538.44	1702.60
538.79	1716.22
539.15	1729.54
539.51	1742.90
539.87	1756.93
540.22	1770.26
540.58	1783.72
540.94	1796.78
541.29	1809.09
541.65	1821.56
542.01	1834.69
542.37	1846.90
542.72	1859.05
543.08	1870.89
543.44	1883.14
543.79	1894.38
544.15	1905.18
544.51	1916.80
544.87	1927.61
545.22	1938.43
545.58	1948.60
545.94	1958.39
546.29	1968.21
546.65	1978.20
547.01	1987.64
547.36	1996.39
547.72	2005.00
548.07	2013.12
548.43	2021.37
548.79	2029.65
549.14	2037.58
549.50	2044.94
549.86	2052.66
550.21	2060.12
550.57	2067.46
550.92	2074.34
551.28	2081.54
551.64	2088.93
551.99	2095.70
552.35	2102.31
552.70	2108.66
553.06	2114.83
553.41	2121.61
553.77	2127.92
554.13	2134.18
554.48	2140.46
554.84	2146.58
555.19	2152.06
555.55	2157.41
555.90	2162.36
556.26	2167.82
556.61	2172.71
556.97	2177.60
557.32	2182.16
557.68	2186.77
558.03	2191.24
558.39	2195.28
558.74	2200.23
559.10	2204.40
559.45	2208.28
559.81	2212.76
560.16	2216.96
560.52	2220.68
560.87	2224.27
561.23	2227.33
561.58	2230.57
561.94	2233.67
562.29	2236.13
562.64	2239.40
563.00	2242.34
563.35	2246.25
563.71	2249.66
564.06	2253.12
564.42	2256.34
564.77	2259.35
565.12	2262.17
565.48	2264.74
565.83	2267.06
566.19	2268.93
566.54	2270.23
566.89	2271.95
567.25	2273.11
567.60	2274.80
567.96	2276.96
568.31	2278.21
568.66	2279.81
569.02	2281.00
569.37	2281.75
569.72	2283.00
570.08	2283.64
570.43	2284.09
570.78	2283.85
571.14	2282.73
571.49	2281.83
571.84	2281.83
572.20	2281.15
572.55	2280.43
572.90	2279.07
573.26	2278.08
573.61	2276.51
573.96	2275.40
574.31	2272.88
574.67	2270.34
575.02	2267.23
575.37	2264.20
575.72	2261.09
576.08	2258.03
576.43	2254.83
576.78	2251.78
577.13	2248.95
577.49	2245.87
577.84	2242.91
578.19	2239.50
578.54	2236.37
578.90	2232.73
579.25	2227.60
579.60	2223.02
579.95	2218.46
580.30	2213.89
580.66	2209.03
581.01	2204.46
581.36	2199.82
581.71	2196.10
582.06	2192.14
582.42	2187.95
582.77	2183.29
583.12	2178.94
583.47	2174.75
583.82	2170.41
584.17	2165.34
584.53	2160.16
584.88	2154.97
585.23	2149.57
585.58	2144.48
585.93	2139.16
586.28	2134.46
586.63	2129.68
586.98	2124.88
587.34	2120.38
587.69	2115.66
588.04	2111.00
588.39	2105.84
588.74	2099.58
589.09	2093.52
589.44	2086.99
589.79	2081.09
590.14	2075.27
590.49	2068.73
590.84	2062.37
591.19	2056.48
591.54	2050.10
591.89	2043.20
592.25	2036.85
592.60	2029.83
592.95	2022.62
593.30	2015.63
593.65	2008.39
594.00	2001.69
594.35	1994.64
594.70	1986.72
595.05	1980.00
595.40	1972.75
595.75	1965.32
596.10	1959.32
596.45	1952.94
596.80	1946.80
597.15	1940.57
597.50	1934.08
597.85	1927.91
598.19	1921.57
598.54	1914.88
598.89	1908.59
599.24	1902.76
599.59	1896.37
599.94	1890.25
600.29	1883.99
600.64	1877.38
600.99	1870.21
601.34	1863.49
601.69	1856.40
602.04	1849.82
602.39	1842.44
602.74	1835.75
603.08	1829.21
603.43	1822.59
603.78	1815.26
604.13	1808.06
604.48	1800.96
604.83	1793.95
605.18	1787.21
605.53	1779.24
605.87	1771.19
606.22	1763.85
606.57	1755.94
606.92	1748.39
607.27	1741.39
607.62	1734.55
607.96	1727.43
608.31	1721.01
608.66	1713.41
609.01	1706.12
609.36	1698.50
609.70	1690.57
610.05	1682.58
610.40	1674.90
610.75	1666.65
611.10	1659.03
611.44	1650.58
611.79	1642.36
612.14	1633.72
612.49	1624.42
612.83	1615.83
613.18	1607.51
613.53	1599.39
613.88	1590.87
614.22	1582.49
614.57	1573.73
614.92	1565.65
615.27	1558.20
615.61	1549.65
615.96	1541.51
616.31	1533.68
616.65	1526.30
617.00	1518.64
617.35	1510.74
617.70	1502.38
618.04	1493.81
618.39	1485.44
618.74	1477.89
619.08	1469.55
619.43	1461.96
619.78	1455.07
620.12	1448.10
620.47	1440.59
620.82	1432.18
621.16	1424.42
621.51	1416.74
621.85	1408.95
622.20	1400.35
622.55	1391.80
622.89	1383.83
623.24	1376.06
623.59	1368.56
623.93	1360.92
624.28	1353.62
624.62	1346.14
624.97	1338.82
625.32	1331.82
625.66	1324.75
626.01	1317.46
626.35	1310.07
626.70	1302.08
627.04	1294.27
627.39	1286.33
627.73	1278.79
628.08	1271.93
628.43	1264.85
628.77	1257.56
629.12	1249.95
629.46	1242.64
629.81	1234.98
630.15	1227.64
630.50	1220.25
630.84	1212.07
631.19	1203.97
631.53	1196.26
631.88	1188.51
632.22	1180.76
632.57	1173.37
632.91	1165.72
633.26	1158.29
633.60	1150.83
633.95	1143.55
634.29	1136.30
634.64	1129.42
634.98	1122.05
635.32	1114.83
635.67	1107.97
636.01	1101.17
636.36	1094.34
636.70	1087.76
637.05	1081.23
637.39	1074.71
637.73	1068.12
638.08	1062.10
638.42	1056.06
638.77	1049.62
639.11	1043.10
639.45	1036.67
639.80	1029.99
640.14	1023.54
640.49	1016.94
640.83	1010.55
641.17	1004.38
641.52	998.08
641.86	991.55
642.20	985.69
642.55	979.24
642.89	972.81
643.23	966.19
643.58	960.41
643.92	954.22
644.26	948.18
644.61	942.11
644.95	936.13
645.29	929.64
645.64	922.94
645.98	916.46
646.32	910.48
646.66	904.48
647.01	898.74
647.35	893.10
647.69	887.16
648.04	881.55
648.38	875.75
648.72	869.84
649.06	863.87
649.41	857.88
649.75	851.97
650.09	846.10
650.43	840.34
650.78	834.17
651.12	828.15
651.46	822.43
651.80	816.79
652.14	811.32
652.49	806.02
652.83	800.79
653.17	795.30
653.51	789.59
653.85	784.13
654.20	778.42
654.54	772.31
654.88	766.59
655.22	760.73
655.56	754.96
655.90	749.39
656.25	744.15
656.59	738.75
656.93	733.67
657.27	728.50
657.61	723.04
657.95	717.92
658.29	712.81
658.64	707.45
658.98	702.03
659.32	696.53
659.66	691.25
660.00	685.99
660.34	681.02
660.68	676.19
661.02	671.13
661.36	666.43
661.70	661.94
662.05	657.62
662.39	653.25
662.73	648.84
663.07	644.44
663.41	640.02
663.75	635.64
664.09	631.04
664.43	626.56
664.77	622.49
665.11	618.24
665.45	614.14
665.79	610.08
666.13	605.98
666.47	601.80
666.81	597.56
667.15	593.35
667.49	589.35
667.83	585.36
668.17	581.38
668.51	577.30
668.85	573.20
669.19	569.22
669.53	565.36
669.87	561.52
670.21	557.80
670.55	554.04
670.89	550.53
671.23	547.09
671.57	543.46
671.91	539.94
672.25	536.35
672.58	532.84
672.92	529.32
673.26	526.08
673.60	522.92
673.94	519.86
674.28	516.95
674.62	514.04
674.96	510.96
675.30	508.07
675.64	505.14
675.97	502.36
676.31	499.55
676.65	496.59
676.99	493.78
677.33	490.90
677.67	488.13
678.01	485.12
678.34	482.22
678.68	479.40
679.02	476.52
679.36	473.75
679.70	471.00
680.04	468.26
680.37	465.39
680.71	462.57
681.05	459.86
681.39	457.11
681.73	454.35
682.06	451.78
682.40	449.21
682.74	446.59
683.08	444.05
683.42	441.38
683.75	438.85
684.09	436.25
684.43	433.77
684.77	431.22
685.10	428.83
685.44	426.44
685.78	424.15
686.12	421.88
686.45	419.55
686.79	417.20
687.13	414.99
687.46	412.82
687.80	410.66
688.14	408.37
688.48	406.32
688.81	404.13
689.15	401.96
689.49	399.80
689.82	397.74
690.16	395.58
690.50	393.59
690.83	391.65
691.17	389.64
691.51	387.71
691.84	385.88
692.18	383.88
692.52	381.89
692.85	379.94
693.19	378.02
693.52	376.19
693.86	374.32
694.20	372.53
694.53	370.75
694.87	368.88
695.21	367.08
695.54	365.18
695.88	363.39
696.21	361.65
696.55	359.93
696.88	358.25
697.22	356.57
697.56	354.95
697.89	353.30
698.23	351.72
698.56	350.08
698.90	348.53
699.23	346.91
699.57	345.39
699.90	343.78
700.24	342.20
700.58	340.66
700.91	339.17
701.25	337.68
701.58	336.27
701.92	334.89
702.25	333.55
702.59	332.19
702.92	330.89
703.26	329.60
703.59	328.31
703.93	327.11
704.26	325.85
704.60	324.59
704.93	323.25
705.26	321.96
705.60	320.78
705.93	319.55
706.27	318.51
706.60	317.39
706.94	316.32
707.27	315.16
707.61	314.06
707.94	313.01
708.27	311.93
708.61	310.81
708.94	309.76
709.28	308.76
709.61	307.81
709.94	306.78
710.28	305.72
710.61	304.71
710.95	303.58
711.28	302.64
711.61	301.67
711.95	300.74
712.28	299.80
712.61	298.77
712.95	297.82
713.28	296.85
713.61	295.93
713.95	295.05
714.28	294.23
714.61	293.36
714.95	292.46
715.28	291.58
715.61	290.67
715.95	289.83
716.28	288.97
716.61	288.10
716.95	287.29
717.28	286.51
717.61	285.72
717.94	284.97
718.28	284.15
718.61	283.39
718.94	282.69
719.27	282.02
719.61	281.37
719.94	280.67
720.27	279.95
720.60	279.28
720.94	278.60
721.27	277.94
721.60	277.37
721.93	276.78
722.27	276.20
722.60	275.66
722.93	275.05
723.26	274.48
723.59	273.89
723.93	273.31
724.26	272.73
724.59	272.17
724.92	271.62
725.25	271.13
725.59	270.62
725.92	270.11
726.25	269.58
726.58	269.09
726.91	268.59
727.24	268.11
727.57	267.64
727.91	267.12
728.24	266.65
728.57	266.13
728.90	265.66
729.23	265.16
729.56	264.70
729.89	264.20
730.22	263.69
730.55	263.21
730.89	262.75
731.22	262.33
731.55	261.88
731.88	261.46
732.21	261.00
732.54	260.52
732.87	260.09
733.20	259.68
733.53	259.26
733.86	258.88
734.19	258.50
734.52	258.10
734.85	257.78
735.18	257.40
735.51	257.01
735.84	256.62
736.17	256.26
736.50	255.86
736.83	255.65
737.16	255.32
737.49	254.97
737.82	254.59
738.15	254.24
738.48	253.90
738.81	253.57
739.14	253.23
739.47	252.93
739.80	252.59
740.13	252.27
740.46	251.97
740.79	251.63
741.12	251.30
741.45	251.00
741.78	250.66
742.11	250.38
742.44	250.05
742.77	249.76
743.10	249.48
743.43	249.19
743.75	248.81
744.08	248.65
744.41	248.37
744.74	248.14
745.07	247.87
745.40	247.64
745.73	247.41
746.06	247.13
746.39	246.85
746.71	246.60
747.04	246.29
747.37	246.02
747.70	245.78
748.03	245.52
748.36	245.25
748.68	245.02
749.01	244.74
749.34	244.53
749.67	244.30
750.00	244.06
750.33	243.91
750.65	243.68
750.98	243.36
751.31	243.17
751.64	242.96
751.97	242.78
752.29	242.54
752.62	242.26
752.95	242.08
753.28	241.89
753.60	241.69
753.93	241.53
754.26	241.36
754.59	241.13
754.91	240.95
755.24	240.78
755.57	240.59
755.90	240.39
756.22	240.19
756.55	239.99
756.88	239.78
757.20	239.54
757.53	239.36
757.86	239.19
758.19	239.01
758.51	238.85
758.84	238.64
759.17	238.46
759.49	238.35
759.82	238.23
760.15	238.06
760.47	237.89
760.80	237.69
761.13	237.54
761.45	237.38
761.78	237.24
762.11	237.07
762.43	236.89
762.76	236.80
763.08	236.65
763.41	236.54
763.74	236.42
764.06	236.24
764.39	236.06
764.71	235.91
765.04	235.77
765.37	235.58
765.69	235.45
766.02	235.32
766.34	235.14
766.67	234.98
767.00	234.87
767.32	234.78
767.65	234.74
767.97	234.62
768.30	234.50
768.62	234.35
768.95	234.24
769.27	234.12
769.60	233.99
769.92	233.85
770.25	233.71
770.57	233.58
770.90	233.51
771.22	233.42
771.55	233.29
771.87	233.18
772.20	233.07
772.52	233.05
772.85	233.05
773.17	232.99
773.50	232.86
773.82	232.72
774.15	232.59
774.47	232.44
774.80	232.33
775.12	232.23
775.45	232.15
775.77	232.08
776.09	232.02
776.42	231.93
776.74	231.89
777.07	231.81
777.39	231.73
777.72	231.62
778.04	231.57
778.36	231.48
778.69	231.44
779.01	231.39
779.33	231.23
779.66	231.05
779.98	230.93
780.31	230.90
780.63	230.89
780.95	230.85
781.28	230.74
781.60	230.68
781.92	230.63
782.25	230.57
782.57	230.48
782.89	230.39
783.22	230.32
783.54	230.25
783.86	230.19
784.19	230.11
784.51	230.10
784.83	230.02
785.16	230.00
785.48	229.95
785.80	229.89
786.12	229.86
786.45	229.85
786.77	229.80
787.09	229.72
787.42	229.62
787.74	229.57
788.06	229.57
788.38	229.53
788.71	229.50
789.03	229.45
789.35	229.43
789.67	229.40
789.99	229.37
790.32	229.33
790.64	229.31
790.96	229.38
791.28	229.30
791.61	229.24
791.93	229.18
792.25	229.13
792.57	229.16
792.89	229.11
793.21	229.09
793.54	229.06
793.86	229.03
794.18	228.99
794.50	228.95
794.82	228.91
795.14	228.86
795.47	228.80
795.79	228.80
796.11	228.73
796.43	228.70
796.75	228.69
797.07	228.66
797.39	228.61
797.71	228.53
798.04	228.53
798.36	228.53
798.68	228.53
799.00	228.52
799.32	228.47
799.64	228.43
799.96	228.41
800.28	228.38
800.60	228.34
800.92	228.34
801.24	228.34
801.56	228.33
801.89	228.31
802.21	228.29
802.53	228.19
802.85	228.17
803.17	228.17
803.49	228.12
803.81	228.02
804.13	227.99
804.45	227.90
804.77	227.86
805.09	227.82
805.41	227.78
805.73	227.71
806.05	227.65
806.37	227.65
806.69	227.55
807.01	227.54
807.33	227.52
807.65	227.45
807.97	227.44
808.28	227.37
808.60	227.34
808.92	227.31
809.24	227.37
809.56	227.34
809.88	227.28
810.20	227.26
810.52	227.29
810.84	227.24
811.16	227.24
811.48	227.20
811.80	227.21
812.12	227.16
812.43	227.16
812.75	227.13
813.07	227.03
813.39	227.04
813.71	226.99
814.03	226.97
814.35	226.97
814.67	226.89
814.98	226.87
815.30	226.83
815.62	226.81
815.94	226.73
816.26	226.72
816.58	226.70
816.89	226.70
817.21	226.64
817.53	226.63
817.85	226.62
818.17	226.60
818.48	226.56
818.80	226.57
819.12	226.54
819.44	226.52
819.76	226.54
820.07	226.53
820.39	226.54
820.71	226.51
821.03	226.52
821.34	226.52
821.66	226.53
821.98	226.55
822.30	226.55
822.61	226.59
822.93	226.54
823.25	226.50
823.57	226.46
823.88	226.46
824.20	226.46
824.52	226.46
824.83	226.42
825.15	226.39
825.47	226.37
825.79	226.37
826.10	226.33
826.42	226.30
826.74	226.29
827.05	226.26
827.37	226.25
827.69	226.21
828.00	226.19
828.32	226.20
828.64	226.16
828.95	226.19
829.27	226.16
829.58	226.15
829.90	226.21
830.22	226.21
830.53	226.20
830.85	226.17
831.17	226.16
831.48	226.16
831.80	226.16
832.11	226.14
832.43	226.13
832.75	226.13
833.06	226.22
833.38	226.19
833.69	226.24
834.01	226.21
834.32	226.19
834.64	226.20
834.96	226.17
835.27	226.15
835.59	226.09
835.90	226.07
836.22	226.05
836.53	225.99
836.85	225.98
837.16	226.06
837.48	226.07
837.79	226.11
838.11	226.09
838.42	226.08
838.74	226.11
839.05	226.07
839.37	226.05
839.68	225.96
840.00	225.98
840.31	225.94
840.63	225.95
840.94	225.95
841.26	225.93
841.57	225.94
841.88	225.94
842.20	225.93
842.51	225.92
842.83	225.93
843.14	226.04
843.46	226.04
843.77	226.04
844.08	226.03
844.40	225.97
844.71	225.99
845.03	225.95
845.34	225.91
845.65	225.91
845.97	225.92
846.28	225.94
846.60	225.92
846.91	225.90
847.22	225.89
847.54	225.88
847.85	225.88
848.16	225.82
848.48	225.83
848.79	225.84
849.10	225.84
849.42	225.85
849.73	225.75
850.04	225.71
850.36	225.64
850.67	225.65
850.98	225.64
851.30	225.63
851.61	225.64
851.92	225.63
852.23	225.68
852.55	225.65
852.86	225.63
853.17	225.62
853.49	225.62
853.80	225.60
854.11	225.59
854.42	225.58
854.74	225.57
855.05	225.56
855.36	225.50
855.67	225.46
855.99	225.44
856.30	225.52
856.61	225.51
856.92	225.48
857.23	225.45
857.55	225.42
857.86	225.40
858.17	225.38
858.48	225.35
858.79	225.29
859.11	225.34
859.42	225.31
859.73	225.30
860.04	225.25
860.35	225.24
860.66	225.24
860.98	225.23
861.29	225.23
861.60	225.19
861.91	225.23
862.22	225.21
862.53	225.18
862.84	225.08
863.16	225.13
863.47	225.12
863.78	225.11
864.09	225.12
864.40	225.11
864.71	225.12
865.02	225.14
865.33	225.11
865.64	225.07
865.95	225.10
866.27	225.13
866.58	225.11
866.89	225.11
867.20	225.11
867.51	225.08
867.82	225.08
868.13	225.12
868.44	225.08
868.75	225.12
869.06	225.12
869.37	225.15
869.68	225.07
869.99	225.10
870.30	225.08
870.61	225.09
870.92	225.09
871.23	225.08
871.54	225.12
871.85	225.14
872.16	225.16
872.47	225.12
872.78	225.07
873.09	225.13
873.40	225.14
873.71	225.13
874.02	225.16
874.33	225.16
874.64	225.13
874.95	225.18
875.26	225.11
875.56	225.13
875.87	225.10
876.18	225.14
876.49	225.23
876.80	225.23
877.11	225.23
877.42	225.24
877.73	225.22
878.04	225.18
878.35	225.16
878.66	225.17
878.96	225.21
879.27	225.23
879.58	225.22
879.89	225.21
880.20	225.24
880.51	225.23
880.82	225.23
881.12	225.23
881.43	225.20
881.74	225.22
882.05	225.19
882.36	225.21
882.67	225.19
882.97	225.09
883.28	225.09
883.59	225.09
883.90	225.09
884.21	225.13
884.51	225.15
884.82	225.17
885.13	225.16
885.44	225.15
885.74	225.14
886.05	225.14
886.36	225.12
886.67	225.08
886.98	225.14
887.28	225.13
887.59	225.14
887.90	225.16
888.20	225.17
888.51	225.19
888.82	225.14
889.13	225.15
889.43	225.23
889.74	225.22
890.05	225.20
890.35	225.20
890.66	225.18
890.97	225.17
891.28	225.16
891.58	225.17
891.89	225.19
892.20	225.20
892.50	225.16
892.81	225.14
893.12	225.15
893.42	225.10
893.73	225.09
894.04	225.08
894.34	225.07
894.65	225.06
894.95	225.06
895.26	225.10
895.57	225.13
895.87	225.02
896.18	225.03
896.48	225.04
896.79	225.03
897.10	225.02
897.40	224.98
897.71	225.00
898.01	224.95
898.32	224.94
898.63	224.91
898.93	224.93
899.24	224.94
899.54	224.92
899.85	224.91
900.15	224.92
900.46	224.90
900.76	224.90
901.07	224.89
901.38	224.89
901.68	224.88
901.99	224.85
902.29	224.89
902.60	224.88
902.90	224.86
903.21	224.85
903.51	224.82
903.82	224.88
904.12	224.83
904.43	224.87
904.73	224.87
905.03	224.89
905.34	225.00
905.64	225.01
905.95	225.01
906.25	224.99
906.56	224.98
906.86	224.98
907.17	224.96
907.47	225.00
907.77	224.99
908.08	224.99
908.38	224.99
908.69	224.96
908.99	224.98
909.30	225.00
909.60	225.04
909.90	225.05
910.21	225.02
910.51	225.04
910.81	225.02
911.12	224.98
911.42	224.96
911.73	224.84
912.03	224.85
912.33	224.87
912.64	224.89
912.94	224.88
913.24	224.88
913.55	224.87
913.85	224.84
914.15	224.83
914.46	224.85
914.76	224.87
915.06	224.88
915.37	224.87
915.67	224.89
915.97	224.85
916.27	224.87
916.58	224.88
916.88	224.87
917.18	224.86
917.49	224.95
917.79	224.96
918.09	224.99
918.39	225.01
918.70	225.00
919.00	225.02
919.30	225.07
919.60	225.07
919.91	225.07
920.21	225.09
920.51	225.09
920.81	225.08
921.12	225.11
921.42	225.12
921.72	225.12
922.02	225.12
922.32	225.13
922.63	225.11
922.93	225.14
923.23	225.13
923.53	225.16
923.83	225.10
924.13	225.10
924.44	225.09
924.74	225.09
925.04	225.15
925.34	225.16
925.64	225.11
925.94	225.11
926.24	225.18
926.55	225.15
926.85	225.19
927.15	225.19
927.45	225.14
927.75	225.11
928.05	225.12
928.35	225.13
928.65	225.15
928.95	225.17
929.26	225.16
929.56	225.20
929.86	225.19
930.16	225.16
930.46	225.18
930.76	225.22
931.06	225.17
931.36	225.12
931.66	225.11
931.96	225.12
932.26	225.12
932.56	225.08
932.86	225.08
933.16	225.08
933.46	225.09
933.76	225.07
934.06	225.06
934.36	225.10
934.66	225.06
934.96	225.05
935.26	225.04
935.56	225.01
935.86	224.97
936.16	224.97
936.46	224.99
936.76	224.95
937.06	224.91
937.36	224.91
937.66	224.90
937.96	224.88
938.26	224.87
938.56	224.83
938.86	224.79
939.16	224.81
939.46	224.81
939.76	224.79
940.06	224.79
940.35	224.80
940.65	224.73
940.95	224.72
941.25	224.70
941.55	224.70
941.85	224.72
942.15	224.74
942.45	224.75
942.75	224.75
943.04	224.78
943.34	224.77
943.64	224.81
943.94	224.80
944.24	224.81
944.54	224.80
944.84	224.84
945.13	224.86
945.43	224.85
945.73	224.84
946.03	224.80
946.33	224.82
946.62	224.81
946.92	224.83
947.22	224.87
947.52	224.86
947.82	224.87
948.11	224.83
948.41	224.83
948.71	224.81
949.01	224.82
949.31	224.78
949.60	224.80
949.90	224.78
950.20	224.79
950.50	224.77
950.79	224.78
951.09	224.77
951.39	224.77
951.69	224.76
951.98	224.80
952.28	224.84
952.58	224.81
952.87	224.79
953.17	224.82
953.47	224.78
953.76	224.83
954.06	224.82
954.36	224.81
954.66	224.80
954.95	224.80
955.25	224.80
955.55	224.84
955.84	224.82
956.14	224.84
956.44	224.85
956.73	224.86
957.03	224.87
957.32	224.91
957.62	224.89
957.92	224.93
958.21	224.88
958.51	224.99
958.81	225.03
959.10	225.07
959.40	225.08
959.69	225.09
959.99	225.07
960.29	225.05
960.58	225.07
960.88	225.12
961.17	225.15
961.47	225.16
961.76	225.12
962.06	225.15
962.36	225.13
962.65	225.15
962.95	225.13
963.24	225.12
963.54	225.10
963.83	225.12
964.13	225.10
964.42	225.09
964.72	225.02
965.01	224.98
965.31	224.97
965.60	224.95
965.90	225.02
966.19	225.02
966.49	225.07
966.78	225.06
967.08	225.05
967.37	225.02
967.67	225.03
967.96	225.06
968.26	225.05
968.55	225.08
968.85	225.06
969.14	225.08
969.43	225.06
969.73	225.06
970.02	225.03
970.32	225.03
970.61	225.01
970.91	225.00
971.20	224.97
971.49	224.97
971.79	224.96
972.08	224.86
972.38	224.87
972.67	224.82
972.96	224.84
973.26	224.79
973.55	224.80
973.85	224.78
974.14	224.79
974.43	224.80
974.73	224.78
975.02	224.74
975.31	224.74
975.61	224.75
975.90	224.74
976.19	224.74
976.49	224.72
976.78	224.75
977.07	224.73
977.37	224.73
977.66	224.75
977.95	224.77
978.24	224.81
978.54	224.83
978.83	224.83
979.12	224.81
979.42	224.84
979.71	224.85
980.00	224.85
980.29	224.83
980.59	224.79
980.88	224.84
981.17	224.85
981.46	224.89
981.76	224.86
982.05	224.90
982.34	224.90
982.63	224.92
982.93	224.89
983.22	224.93
983.51	224.96
983.80	224.94
984.09	224.93
984.39	224.89
984.68	224.89
984.97	224.88
985.26	224.89
985.55	224.88
985.85	224.84
986.14	224.81
986.43	224.86
986.72	224.90
987.01	224.85
987.30	224.88
987.59	224.88
987.89	224.95
988.18	224.94
988.47	224.95
988.76	224.95
989.05	224.97
989.34	224.93
989.63	224.95
989.92	224.93
990.22	224.92
990.51	224.95
990.80	224.94
991.09	224.96
991.38	224.95
991.67	224.97
991.96	224.98
992.25	225.04
992.54	224.99
992.83	224.93
993.12	224.89
993.41	224.89
993.70	224.91
993.99	224.87
994.28	224.86
994.58	224.88
994.87	224.85
995.16	224.86
995.45	224.90
995.74	224.88
996.03	224.90
996.32	224.91
996.61	224.91
996.90	224.89
997.19	224.86
997.48	224.85
997.77	224.83
998.06	224.79
998.34	224.77
998.63	224.75
998.92	224.81
999.21	224.86
999.50	224.85
999.79	224.80
1000.08	224.80
1000.37	224.80
1000.66	224.76
1000.95	224.79
1001.24	224.78
1001.53	224.78
1001.82	224.78
1002.11	224.74
1002.40	224.77
1002.68	224.82
1002.97	224.87
1003.26	224.89
1003.55	224.89
1003.84	224.91
1004.13	224.95
1004.42	224.96
1004.71	224.98
1004.99	224.94
1005.28	224.99
1005.57	224.98
1005.86	224.98
1006.15	224.96
1006.44	224.95
1006.72	224.98
1007.01	224.97
1007.30	224.96
1007.59	224.96
1007.88	224.95
1008.17	224.99
1008.45	224.97
1008.74	224.91
1009.03	224.90
1009.32	224.87
1009.60	224.85
1009.89	224.84
1010.18	224.83
1010.47	224.77
1010.76	224.76
1011.04	224.77
1011.33	224.74
1011.62	224.73
1011.91	224.70
1012.19	224.72
1012.48	224.73
1012.77	224.70
1013.05	224.76
1013.34	224.75
1013.63	224.72
1013.92	224.73
1014.20	224.69
1014.49	224.69
1014.78	224.68
1015.06	224.64
1015.35	224.65
1015.64	224.66
1015.92	224.65
1016.21	224.65
1016.50	224.69
1016.78	224.71
1017.07	224.75
1017.36	224.71
1017.64	224.72
1017.93	224.72
1018.22	224.71
1018.50	224.69
1018.79	224.72
1019.08	224.67
1019.36	224.66
1019.65	224.67
1019.93	224.68
1020.22	224.70
1020.51	224.72
1020.79	224.71
1021.08	224.72
1021.36	224.35
1021.65	225.28
1021.94	224.69
1022.22	224.27
1022.51	224.77
1022.79	224.78
1023.08	224.96
1023.36	225.55
1023.65	224.29
>>>>>End Processed Spectral Data<<<<<
