SpectraSuite Data File
++++++++++++++++++++++++++++++++++++
Date: Fri Feb 01 16:20:05 EST 2013
User: group
Dark Spectrum Present: No
Reference Spectrum Present: No
Number of Sampled Component Spectra: 1
Spectrometers: USB2E7196
Integration Time (usec): 35000 (USB2E7196)
Spectra Averaged: 100 (USB2E7196)
Boxcar Smoothing: 10 (USB2E7196)
Correct for Electrical Dark: No (USB2E7196)
Strobe/Lamp Enabled: No (USB2E7196)
Correct for Detector Non-linearity: No (USB2E7196)
Correct for Stray Light: No (USB2E7196)
Number of Pixels in Processed Spectrum: 2048
>>>>>Begin Processed Spectral Data<<<<<
339.09	0.00
339.48	214.10
339.86	215.67
340.24	217.22
340.63	218.65
341.01	220.99
341.39	221.26
341.78	222.26
342.16	223.80
342.54	224.03
342.93	212.30
343.31	223.01
343.69	223.56
344.07	223.98
344.46	224.38
344.84	224.70
345.22	224.92
345.60	225.16
345.99	225.33
346.37	225.44
346.75	225.53
347.13	225.59
347.52	225.65
347.90	225.72
348.28	225.74
348.66	225.78
349.05	225.79
349.43	225.84
349.81	225.93
350.19	225.95
350.57	226.01
350.96	226.07
351.34	226.17
351.72	226.22
352.10	226.33
352.48	226.40
352.87	226.46
353.25	226.53
353.63	226.59
354.01	226.64
354.39	226.74
354.77	226.80
355.15	226.91
355.54	226.96
355.92	226.97
356.30	227.07
356.68	227.21
357.06	227.30
357.44	227.37
357.82	227.43
358.20	227.57
358.58	227.66
358.97	227.73
359.35	227.79
359.73	227.88
360.11	227.93
360.49	228.01
360.87	228.08
361.25	228.15
361.63	228.21
362.01	228.30
362.39	228.33
362.77	228.40
363.15	228.47
363.53	228.51
363.91	228.61
364.29	228.65
364.67	228.59
365.05	228.64
365.43	228.64
365.81	228.66
366.19	228.67
366.57	228.74
366.95	228.75
367.33	228.74
367.71	228.75
368.09	228.79
368.47	228.76
368.85	228.78
369.23	228.79
369.61	228.75
369.99	228.77
370.37	228.76
370.75	228.78
371.13	228.68
371.51	228.67
371.89	228.62
372.27	228.54
372.65	228.50
373.03	228.47
373.41	228.42
373.78	228.37
374.16	228.30
374.54	228.19
374.92	228.13
375.30	228.08
375.68	228.01
376.06	227.96
376.44	227.91
376.82	227.81
377.19	227.75
377.57	227.69
377.95	227.54
378.33	227.47
378.71	227.36
379.09	227.32
379.47	227.23
379.84	227.16
380.22	227.10
380.60	227.01
380.98	226.90
381.36	226.83
381.73	226.76
382.11	226.68
382.49	226.63
382.87	226.55
383.25	226.51
383.62	226.58
384.00	226.50
384.38	226.45
384.76	226.42
385.13	226.38
385.51	226.34
385.89	226.30
386.27	226.24
386.64	226.20
387.02	226.13
387.40	226.11
387.78	226.06
388.15	226.00
388.53	225.99
388.91	225.97
389.29	225.93
389.66	225.93
390.04	225.92
390.42	225.91
390.79	225.90
391.17	225.81
391.55	225.67
391.92	225.64
392.30	225.63
392.68	225.61
393.05	225.60
393.43	225.59
393.81	225.59
394.18	225.57
394.56	225.61
394.94	225.66
395.31	225.65
395.69	225.71
396.06	225.77
396.44	225.78
396.82	225.82
397.19	225.89
397.57	225.89
397.95	225.93
398.32	225.93
398.70	225.96
399.07	226.05
399.45	226.09
399.82	226.16
400.20	226.23
400.58	226.29
400.95	226.33
401.33	226.42
401.70	226.56
402.08	226.69
402.45	226.75
402.83	226.84
403.20	226.93
403.58	226.99
403.95	227.13
404.33	227.22
404.71	227.34
405.08	227.51
405.46	227.63
405.83	227.76
406.21	227.93
406.58	228.10
406.96	228.23
407.33	228.43
407.70	228.60
408.08	228.83
408.45	229.05
408.83	229.28
409.20	229.48
409.58	229.67
409.95	229.91
410.33	230.17
410.70	230.43
411.08	230.74
411.45	231.08
411.82	231.36
412.20	231.74
412.57	232.15
412.95	232.45
413.32	232.87
413.69	233.31
414.07	233.74
414.44	234.21
414.82	234.72
415.19	235.23
415.56	235.82
415.94	236.38
416.31	237.03
416.68	237.65
417.06	238.39
417.43	239.07
417.81	239.84
418.18	240.65
418.55	241.48
418.93	242.37
419.30	243.27
419.67	244.23
420.04	245.18
420.42	246.18
420.79	247.39
421.16	248.54
421.54	249.73
421.91	250.96
422.28	252.21
422.66	253.59
423.03	254.97
423.40	256.28
423.77	257.69
424.15	259.14
424.52	260.63
424.89	262.22
425.26	263.76
425.64	265.21
426.01	266.80
426.38	268.43
426.75	270.11
427.13	271.80
427.50	273.61
427.87	275.47
428.24	277.35
428.61	279.07
428.99	281.05
429.36	283.13
429.73	285.17
430.10	287.21
430.47	289.24
430.85	291.31
431.22	293.56
431.59	295.96
431.96	298.17
432.33	300.67
432.70	303.04
433.08	305.88
433.45	308.48
433.82	311.07
434.19	313.97
434.56	316.77
434.93	319.46
435.30	322.08
435.68	324.96
436.05	327.80
436.42	330.57
436.79	333.05
437.16	335.71
437.53	338.52
437.90	341.31
438.27	344.02
438.64	346.81
439.01	349.38
439.38	351.58
439.75	353.73
440.13	356.20
440.50	358.51
440.87	360.30
441.24	362.26
441.61	364.36
441.98	365.84
442.35	367.61
442.72	369.42
443.09	371.16
443.46	372.14
443.83	372.69
444.20	373.21
444.57	374.02
444.94	374.30
445.31	374.60
445.68	374.92
446.05	375.00
446.42	374.62
446.79	374.14
447.16	373.65
447.53	373.35
447.90	372.16
448.27	370.95
448.64	369.34
449.01	368.20
449.37	366.23
449.74	364.32
450.11	362.07
450.48	359.61
450.85	357.07
451.22	354.91
451.59	352.89
451.96	350.94
452.33	348.33
452.70	345.98
453.07	343.19
453.43	340.35
453.80	337.59
454.17	334.90
454.54	332.44
454.91	329.76
455.28	327.04
455.65	324.63
456.02	322.23
456.38	320.10
456.75	317.46
457.12	315.25
457.49	313.03
457.86	310.88
458.23	309.05
458.59	307.05
458.96	305.01
459.33	303.15
459.70	301.31
460.07	299.83
460.43	298.09
460.80	296.48
461.17	295.03
461.54	293.51
461.91	292.14
462.27	290.69
462.64	289.42
463.01	288.10
463.38	286.79
463.74	285.47
464.11	284.33
464.48	283.32
464.85	282.21
465.21	281.34
465.58	280.45
465.95	279.36
466.32	278.50
466.68	277.63
467.05	276.74
467.42	275.88
467.78	274.96
468.15	274.20
468.52	273.60
468.88	272.76
469.25	272.03
469.62	271.40
469.98	270.72
470.35	270.13
470.72	269.56
471.08	268.94
471.45	268.40
471.82	267.89
472.18	267.26
472.55	266.85
472.92	266.34
473.28	265.88
473.65	265.49
474.02	265.04
474.38	264.64
474.75	264.36
475.11	264.01
475.48	263.80
475.85	263.54
476.21	263.29
476.58	263.09
476.94	262.94
477.31	262.76
477.67	262.64
478.04	262.53
478.41	262.50
478.77	262.52
479.14	262.46
479.50	262.48
479.87	262.56
480.23	262.63
480.60	262.72
480.96	262.83
481.33	263.01
481.69	263.19
482.06	263.44
482.42	263.61
482.79	263.88
483.15	264.17
483.52	264.57
483.88	264.91
484.25	265.31
484.61	265.73
484.98	266.21
485.34	266.76
485.71	267.34
486.07	267.94
486.44	268.48
486.80	269.18
487.17	269.88
487.53	270.68
487.90	271.56
488.26	272.48
488.62	273.42
488.99	274.39
489.35	275.43
489.72	276.52
490.08	277.74
490.44	278.97
490.81	280.29
491.17	281.59
491.54	283.05
491.90	284.56
492.26	286.25
492.63	287.99
492.99	289.75
493.36	291.61
493.72	293.63
494.08	295.77
494.45	297.99
494.81	300.36
495.17	302.79
495.54	305.33
495.90	308.00
496.26	310.82
496.63	313.75
496.99	316.90
497.35	320.15
497.72	323.53
498.08	327.01
498.44	330.67
498.80	334.65
499.17	338.71
499.53	342.93
499.89	347.31
500.26	351.80
500.62	356.48
500.98	361.47
501.34	366.56
501.71	371.88
502.07	377.30
502.43	382.94
502.79	388.80
503.16	394.88
503.52	401.15
503.88	407.59
504.24	414.23
504.60	421.09
504.97	428.22
505.33	435.56
505.69	443.34
506.05	451.14
506.41	459.03
506.78	467.24
507.14	475.71
507.50	484.37
507.86	493.38
508.22	502.56
508.59	511.83
508.95	521.44
509.31	531.21
509.67	541.37
510.03	551.67
510.39	562.21
510.75	572.99
511.12	583.97
511.48	595.26
511.84	606.78
512.20	618.35
512.56	630.33
512.92	642.50
513.28	654.76
513.64	667.18
514.00	679.87
514.37	692.78
514.73	705.88
515.09	719.02
515.45	732.36
515.81	746.00
516.17	759.92
516.53	774.04
516.89	788.29
517.25	802.53
517.61	816.94
517.97	831.40
518.33	845.78
518.69	860.53
519.05	875.50
519.41	890.64
519.77	906.20
520.13	921.64
520.49	937.00
520.85	952.53
521.21	968.30
521.57	984.53
521.93	1000.28
522.29	1016.61
522.65	1032.74
523.01	1048.86
523.37	1064.77
523.73	1081.06
524.09	1097.03
524.45	1113.26
524.81	1129.77
525.17	1146.54
525.53	1163.40
525.89	1180.18
526.25	1197.05
526.61	1213.43
526.97	1230.11
527.33	1246.48
527.68	1262.99
528.04	1279.38
528.40	1295.73
528.76	1312.67
529.12	1329.21
529.48	1346.03
529.84	1361.88
530.20	1378.55
530.56	1395.50
530.91	1412.84
531.27	1429.51
531.63	1446.07
531.99	1462.55
532.35	1478.53
532.71	1494.24
533.07	1510.43
533.42	1526.36
533.78	1542.18
534.14	1558.29
534.50	1573.49
534.86	1589.27
535.21	1604.45
535.57	1620.37
535.93	1636.09
536.29	1650.90
536.65	1665.81
537.00	1680.53
537.36	1695.87
537.72	1710.26
538.08	1724.62
538.44	1738.42
538.79	1752.13
539.15	1765.58
539.51	1779.30
539.87	1793.50
540.22	1807.24
540.58	1820.89
540.94	1834.16
541.29	1847.10
541.65	1859.75
542.01	1872.96
542.37	1885.30
542.72	1897.55
543.08	1909.14
543.44	1921.28
543.79	1932.39
544.15	1943.36
544.51	1954.93
544.87	1965.76
545.22	1976.52
545.58	1986.75
545.94	1996.50
546.29	2006.33
546.65	2016.15
547.01	2025.28
547.36	2033.88
547.72	2042.28
548.07	2050.08
548.43	2058.14
548.79	2066.20
549.14	2073.75
549.50	2081.00
549.86	2088.58
550.21	2095.90
550.57	2103.14
550.92	2109.65
551.28	2116.71
551.64	2123.85
551.99	2130.18
552.35	2136.40
552.70	2142.53
553.06	2148.48
553.41	2154.74
553.77	2160.68
554.13	2166.80
554.48	2173.05
554.84	2178.68
555.19	2183.92
555.55	2189.15
555.90	2193.71
556.26	2198.37
556.61	2203.02
556.97	2207.45
557.32	2211.45
557.68	2215.72
558.03	2220.03
558.39	2223.83
558.74	2228.40
559.10	2232.14
559.45	2235.89
559.81	2240.18
560.16	2244.07
560.52	2247.23
560.87	2250.64
561.23	2253.40
561.58	2256.18
561.94	2258.65
562.29	2260.88
562.64	2263.71
563.00	2266.34
563.35	2269.81
563.71	2273.01
564.06	2276.34
564.42	2279.22
564.77	2281.91
565.12	2284.04
565.48	2286.09
565.83	2288.08
566.19	2289.53
566.54	2290.46
566.89	2291.59
567.25	2292.24
567.60	2293.41
567.96	2295.08
568.31	2295.98
568.66	2297.19
569.02	2297.96
569.37	2298.22
569.72	2299.27
570.08	2299.40
570.43	2299.46
570.78	2298.90
571.14	2297.47
571.49	2296.05
571.84	2295.65
572.20	2294.75
572.55	2293.85
572.90	2292.34
573.26	2290.79
573.61	2289.08
573.96	2287.37
574.31	2284.54
574.67	2281.55
575.02	2278.09
575.37	2274.80
575.72	2271.09
576.08	2267.68
576.43	2264.38
576.78	2260.81
577.13	2257.67
577.49	2254.61
577.84	2251.12
578.19	2247.52
578.54	2243.85
578.90	2239.75
579.25	2234.29
579.60	2229.19
579.95	2224.11
580.30	2218.98
580.66	2213.94
581.01	2209.02
581.36	2204.18
581.71	2199.99
582.06	2195.49
582.42	2191.05
582.77	2185.90
583.12	2181.35
583.47	2176.71
583.82	2171.74
584.17	2166.66
584.53	2161.22
584.88	2155.70
585.23	2150.15
585.58	2144.68
585.93	2139.25
586.28	2134.52
586.63	2129.49
586.98	2124.55
587.34	2119.91
587.69	2115.15
588.04	2109.86
588.39	2104.26
588.74	2097.88
589.09	2091.83
589.44	2085.21
589.79	2079.22
590.14	2073.75
590.49	2067.16
590.84	2060.79
591.19	2054.78
591.54	2048.36
591.89	2040.96
592.25	2034.06
592.60	2026.80
592.95	2019.22
593.30	2012.02
593.65	2004.46
594.00	1997.38
594.35	1990.07
594.70	1982.08
595.05	1974.92
595.40	1967.68
595.75	1960.20
596.10	1953.98
596.45	1947.38
596.80	1941.26
597.15	1934.67
597.50	1927.58
597.85	1921.19
598.19	1914.51
598.54	1907.38
598.89	1900.72
599.24	1894.85
599.59	1888.20
599.94	1881.96
600.29	1875.63
600.64	1869.06
600.99	1861.62
601.34	1854.90
601.69	1847.85
602.04	1841.10
602.39	1833.76
602.74	1827.11
603.08	1820.43
603.43	1813.72
603.78	1806.33
604.13	1799.04
604.48	1791.72
604.83	1784.87
605.18	1778.01
605.53	1770.07
605.87	1762.29
606.22	1755.12
606.57	1747.17
606.92	1739.91
607.27	1732.73
607.62	1725.93
607.96	1718.76
608.31	1712.25
608.66	1704.67
609.01	1697.26
609.36	1689.63
609.70	1681.61
610.05	1673.46
610.40	1665.75
610.75	1657.40
611.10	1649.68
611.44	1641.26
611.79	1633.40
612.14	1624.67
612.49	1615.34
612.83	1607.10
613.18	1598.89
613.53	1590.73
613.88	1582.17
614.22	1573.81
614.57	1565.19
614.92	1557.09
615.27	1549.51
615.61	1541.20
615.96	1533.08
616.31	1525.44
616.65	1518.05
617.00	1510.44
617.35	1502.81
617.70	1494.49
618.04	1486.01
618.39	1477.80
618.74	1470.19
619.08	1461.82
619.43	1454.20
619.78	1447.42
620.12	1440.21
620.47	1432.72
620.82	1424.54
621.16	1417.15
621.51	1409.65
621.85	1402.11
622.20	1393.61
622.55	1385.11
622.89	1377.21
623.24	1369.67
623.59	1362.24
623.93	1354.72
624.28	1347.46
624.62	1339.85
624.97	1332.68
625.32	1325.88
625.66	1318.81
626.01	1311.73
626.35	1304.27
626.70	1296.53
627.04	1288.80
627.39	1280.98
627.73	1273.46
628.08	1266.54
628.43	1259.17
628.77	1251.71
629.12	1244.03
629.46	1236.81
629.81	1229.48
630.15	1222.18
630.50	1214.77
630.84	1206.54
631.19	1198.57
631.53	1190.98
631.88	1183.36
632.22	1175.70
632.57	1168.46
632.91	1160.93
633.26	1153.49
633.60	1146.10
633.95	1138.96
634.29	1131.85
634.64	1125.16
634.98	1117.85
635.32	1110.70
635.67	1104.19
636.01	1097.60
636.36	1090.77
636.70	1084.22
637.05	1077.57
637.39	1071.04
637.73	1064.42
638.08	1058.53
638.42	1052.52
638.77	1046.18
639.11	1039.66
639.45	1033.21
639.80	1026.54
640.14	1020.18
640.49	1013.60
640.83	1007.25
641.17	1001.05
641.52	994.69
641.86	988.13
642.20	982.18
642.55	975.93
642.89	969.39
643.23	962.81
643.58	957.05
643.92	950.92
644.26	944.78
644.61	938.83
644.95	932.83
645.29	926.24
645.64	919.54
645.98	913.20
646.32	907.38
646.66	901.37
647.01	895.52
647.35	889.76
647.69	883.86
648.04	878.31
648.38	872.47
648.72	866.51
649.06	860.53
649.41	854.72
649.75	848.67
650.09	842.76
650.43	836.99
650.78	830.90
651.12	824.87
651.46	819.19
651.80	813.44
652.14	807.98
652.49	802.63
652.83	797.43
653.17	791.76
653.51	786.01
653.85	780.55
654.20	774.90
654.54	768.84
654.88	763.14
655.22	757.29
655.56	751.56
655.90	746.12
656.25	740.86
656.59	735.47
656.93	730.40
657.27	725.26
657.61	719.75
657.95	714.61
658.29	709.58
658.64	704.33
658.98	698.96
659.32	693.60
659.66	688.32
660.00	683.01
660.34	677.99
660.68	673.01
661.02	668.01
661.36	663.28
661.70	658.75
662.05	654.38
662.39	650.03
662.73	645.60
663.07	641.25
663.41	636.75
663.75	632.29
664.09	627.70
664.43	623.26
664.77	619.20
665.11	614.96
665.45	610.77
665.79	606.69
666.13	602.60
666.47	598.46
666.81	594.38
667.15	590.26
667.49	586.37
667.83	582.64
668.17	578.69
668.51	574.60
668.85	570.58
669.19	566.76
669.53	562.90
669.87	559.00
670.21	555.22
670.55	551.55
670.89	548.12
671.23	544.71
671.57	541.20
671.91	537.63
672.25	534.12
672.58	530.62
672.92	527.14
673.26	523.93
673.60	520.73
673.94	517.57
674.28	514.70
674.62	511.73
674.96	508.61
675.30	505.74
675.64	502.84
675.97	500.08
676.31	497.20
676.65	494.18
676.99	491.47
677.33	488.64
677.67	485.84
678.01	482.76
678.34	479.77
678.68	476.82
679.02	474.00
679.36	471.23
679.70	468.48
680.04	465.77
680.37	462.89
680.71	460.14
681.05	457.51
681.39	454.75
681.73	452.09
682.06	449.52
682.40	446.93
682.74	444.36
683.08	441.83
683.42	439.17
683.75	436.77
684.09	434.24
684.43	431.74
684.77	429.25
685.10	426.89
685.44	424.60
685.78	422.36
686.12	420.14
686.45	417.89
686.79	415.56
687.13	413.35
687.46	411.19
687.80	409.05
688.14	406.84
688.48	404.80
688.81	402.55
689.15	400.41
689.49	398.23
689.82	396.15
690.16	394.11
690.50	392.23
690.83	390.31
691.17	388.29
691.51	386.43
691.84	384.62
692.18	382.71
692.52	380.68
692.85	378.75
693.19	376.84
693.52	375.02
693.86	373.23
694.20	371.45
694.53	369.69
694.87	367.82
695.21	366.06
695.54	364.19
695.88	362.48
696.21	360.76
696.55	359.11
696.88	357.41
697.22	355.70
697.56	354.01
697.89	352.30
698.23	350.70
698.56	349.04
698.90	347.43
699.23	345.81
699.57	344.28
699.90	342.71
700.24	341.14
700.58	339.55
700.91	338.03
701.25	336.60
701.58	335.20
701.92	333.83
702.25	332.41
702.59	331.02
702.92	329.69
703.26	328.33
703.59	327.05
703.93	325.88
704.26	324.65
704.60	323.33
704.93	322.10
705.26	320.84
705.60	319.67
705.93	318.48
706.27	317.42
706.60	316.35
706.94	315.26
707.27	314.10
707.61	313.05
707.94	312.05
708.27	310.96
708.61	309.86
708.94	308.83
709.28	307.86
709.61	306.91
709.94	305.96
710.28	304.96
710.61	303.97
710.95	302.90
711.28	301.96
711.61	301.05
711.95	300.08
712.28	299.14
712.61	298.13
712.95	297.19
713.28	296.29
713.61	295.38
713.95	294.52
714.28	293.67
714.61	292.80
714.95	291.98
715.28	291.09
715.61	290.21
715.95	289.36
716.28	288.48
716.61	287.69
716.95	286.84
717.28	286.10
717.61	285.32
717.94	284.55
718.28	283.75
718.61	283.02
718.94	282.31
719.27	281.69
719.61	281.05
719.94	280.41
720.27	279.69
720.60	279.00
720.94	278.40
721.27	277.81
721.60	277.21
721.93	276.60
722.27	276.04
722.60	275.48
722.93	274.90
723.26	274.38
723.59	273.82
723.93	273.29
724.26	272.75
724.59	272.22
724.92	271.73
725.25	271.22
725.59	270.72
725.92	270.25
726.25	269.70
726.58	269.19
726.91	268.72
727.24	268.28
727.57	267.85
727.91	267.33
728.24	266.87
728.57	266.42
728.90	265.96
729.23	265.49
729.56	265.10
729.89	264.67
730.22	264.22
730.55	263.75
730.89	263.34
731.22	262.88
731.55	262.47
731.88	262.06
732.21	261.67
732.54	261.28
732.87	260.85
733.20	260.50
733.53	260.11
733.86	259.75
734.19	259.36
734.52	258.98
734.85	258.69
735.18	258.29
735.51	257.97
735.84	257.61
736.17	257.31
736.50	256.90
736.83	256.69
737.16	256.34
737.49	256.01
737.82	255.66
738.15	255.35
738.48	254.99
738.81	254.66
739.14	254.32
739.47	253.97
739.80	253.66
740.13	253.32
740.46	253.01
740.79	252.68
741.12	252.37
741.45	252.05
741.78	251.67
742.11	251.42
742.44	251.09
742.77	250.80
743.10	250.48
743.43	250.18
743.75	249.76
744.08	249.61
744.41	249.35
744.74	249.07
745.07	248.77
745.40	248.52
745.73	248.26
746.06	247.96
746.39	247.72
746.71	247.45
747.04	247.14
747.37	246.87
747.70	246.62
748.03	246.32
748.36	246.09
748.68	245.83
749.01	245.58
749.34	245.29
749.67	245.06
750.00	244.82
750.33	244.64
750.65	244.41
750.98	244.05
751.31	243.78
751.64	243.53
751.97	243.36
752.29	243.12
752.62	242.87
752.95	242.69
753.28	242.42
753.60	242.21
753.93	242.04
754.26	241.85
754.59	241.58
754.91	241.42
755.24	241.23
755.57	241.01
755.90	240.79
756.22	240.59
756.55	240.33
756.88	240.14
757.20	239.88
757.53	239.69
757.86	239.51
758.19	239.36
758.51	239.18
758.84	238.96
759.17	238.78
759.49	238.62
759.82	238.48
760.15	238.35
760.47	238.17
760.80	238.02
761.13	237.87
761.45	237.74
761.78	237.58
762.11	237.39
762.43	237.26
762.76	237.11
763.08	237.00
763.41	236.88
763.74	236.74
764.06	236.59
764.39	236.44
764.71	236.28
765.04	236.15
765.37	236.06
765.69	235.94
766.02	235.81
766.34	235.68
766.67	235.51
767.00	235.41
767.32	235.38
767.65	235.32
767.97	235.20
768.30	235.10
768.62	235.00
768.95	234.92
769.27	234.82
769.60	234.74
769.92	234.61
770.25	234.52
770.57	234.39
770.90	234.33
771.22	234.24
771.55	234.19
771.87	234.13
772.20	234.03
772.52	234.02
772.85	234.05
773.17	233.99
773.50	233.92
773.82	233.83
774.15	233.70
774.47	233.58
774.80	233.50
775.12	233.39
775.45	233.29
775.77	233.21
776.09	233.12
776.42	233.04
776.74	233.04
777.07	232.95
777.39	232.90
777.72	232.84
778.04	232.80
778.36	232.70
778.69	232.60
779.01	232.53
779.33	232.36
779.66	232.20
779.98	232.14
780.31	232.05
780.63	232.02
780.95	231.98
781.28	231.89
781.60	231.83
781.92	231.79
782.25	231.77
782.57	231.74
782.89	231.72
783.22	231.64
783.54	231.54
783.86	231.47
784.19	231.42
784.51	231.39
784.83	231.37
785.16	231.32
785.48	231.29
785.80	231.23
786.12	231.22
786.45	231.18
786.77	231.13
787.09	231.15
787.42	231.06
787.74	231.02
788.06	230.99
788.38	230.95
788.71	230.88
789.03	230.84
789.35	230.78
789.67	230.69
789.99	230.66
790.32	230.62
790.64	230.64
790.96	230.68
791.28	230.59
791.61	230.50
791.93	230.46
792.25	230.41
792.57	230.45
792.89	230.38
793.21	230.33
793.54	230.25
793.86	230.15
794.18	230.11
794.50	230.03
794.82	229.96
795.14	229.92
795.47	229.86
795.79	229.79
796.11	229.71
796.43	229.66
796.75	229.60
797.07	229.52
797.39	229.47
797.71	229.31
798.04	229.25
798.36	229.21
798.68	229.19
799.00	229.12
799.32	229.02
799.64	228.98
799.96	228.92
800.28	228.90
800.60	228.85
800.92	228.82
801.24	228.80
801.56	228.78
801.89	228.74
802.21	228.75
802.53	228.73
802.85	228.73
803.17	228.77
803.49	228.73
803.81	228.71
804.13	228.67
804.45	228.67
804.77	228.65
805.09	228.62
805.41	228.55
805.73	228.51
806.05	228.43
806.37	228.42
806.69	228.38
807.01	228.33
807.33	228.33
807.65	228.26
807.97	228.26
808.28	228.23
808.60	228.19
808.92	228.15
809.24	228.17
809.56	228.15
809.88	228.08
810.20	228.12
810.52	228.11
810.84	228.07
811.16	228.04
811.48	227.99
811.80	228.02
812.12	228.01
812.43	228.04
812.75	228.06
813.07	228.03
813.39	228.05
813.71	228.04
814.03	228.01
814.35	228.02
814.67	227.99
814.98	227.99
815.30	227.99
815.62	228.00
815.94	227.94
816.26	227.96
816.58	227.96
816.89	227.92
817.21	227.89
817.53	227.87
817.85	227.85
818.17	227.87
818.48	227.84
818.80	227.88
819.12	227.82
819.44	227.76
819.76	227.79
820.07	227.79
820.39	227.78
820.71	227.77
821.03	227.75
821.34	227.73
821.66	227.74
821.98	227.75
822.30	227.72
822.61	227.78
822.93	227.72
823.25	227.72
823.57	227.71
823.88	227.75
824.20	227.75
824.52	227.76
824.83	227.75
825.15	227.71
825.47	227.69
825.79	227.70
826.10	227.71
826.42	227.66
826.74	227.65
827.05	227.67
827.37	227.66
827.69	227.64
828.00	227.64
828.32	227.62
828.64	227.55
828.95	227.60
829.27	227.53
829.58	227.53
829.90	227.51
830.22	227.50
830.53	227.43
830.85	227.43
831.17	227.45
831.48	227.43
831.80	227.44
832.11	227.42
832.43	227.42
832.75	227.42
833.06	227.47
833.38	227.42
833.69	227.40
834.01	227.40
834.32	227.38
834.64	227.35
834.96	227.33
835.27	227.32
835.59	227.25
835.90	227.23
836.22	227.21
836.53	227.18
836.85	227.15
837.16	227.24
837.48	227.19
837.79	227.15
838.11	227.16
838.42	227.15
838.74	227.13
839.05	227.14
839.37	227.09
839.68	226.99
840.00	226.96
840.31	226.91
840.63	226.90
840.94	226.88
841.26	226.89
841.57	226.87
841.88	226.88
842.20	226.85
842.51	226.81
842.83	226.77
843.14	226.88
843.46	226.87
843.77	226.81
844.08	226.79
844.40	226.75
844.71	226.70
845.03	226.66
845.34	226.64
845.65	226.61
845.97	226.62
846.28	226.65
846.60	226.66
846.91	226.66
847.22	226.64
847.54	226.65
847.85	226.64
848.16	226.60
848.48	226.59
848.79	226.64
849.10	226.65
849.42	226.66
849.73	226.56
850.04	226.55
850.36	226.47
850.67	226.49
850.98	226.52
851.30	226.55
851.61	226.54
851.92	226.51
852.23	226.51
852.55	226.49
852.86	226.49
853.17	226.49
853.49	226.54
853.80	226.53
854.11	226.52
854.42	226.54
854.74	226.55
855.05	226.55
855.36	226.53
855.67	226.54
855.99	226.56
856.30	226.70
856.61	226.70
856.92	226.76
857.23	226.77
857.55	226.76
857.86	226.73
858.17	226.81
858.48	226.84
858.79	226.81
859.11	226.85
859.42	226.84
859.73	226.87
860.04	226.87
860.35	226.87
860.66	226.85
860.98	226.84
861.29	226.89
861.60	226.91
861.91	226.94
862.22	226.94
862.53	226.94
862.84	226.82
863.16	226.86
863.47	226.83
863.78	226.85
864.09	226.86
864.40	226.89
864.71	226.89
865.02	226.89
865.33	226.93
865.64	226.90
865.95	226.91
866.27	226.95
866.58	226.97
866.89	227.00
867.20	227.03
867.51	227.03
867.82	226.98
868.13	227.00
868.44	226.94
868.75	226.97
869.06	226.97
869.37	226.97
869.68	226.94
869.99	226.96
870.30	226.96
870.61	226.97
870.92	226.95
871.23	226.93
871.54	226.94
871.85	226.95
872.16	226.97
872.47	226.97
872.78	226.90
873.09	226.85
873.40	226.84
873.71	226.84
874.02	226.83
874.33	226.84
874.64	226.81
874.95	226.84
875.26	226.79
875.56	226.75
875.87	226.74
876.18	226.70
876.49	226.79
876.80	226.76
877.11	226.74
877.42	226.73
877.73	226.74
878.04	226.68
878.35	226.65
878.66	226.65
878.96	226.63
879.27	226.63
879.58	226.60
879.89	226.57
880.20	226.55
880.51	226.53
880.82	226.50
881.12	226.51
881.43	226.45
881.74	226.46
882.05	226.43
882.36	226.45
882.67	226.46
882.97	226.33
883.28	226.33
883.59	226.32
883.90	226.31
884.21	226.27
884.51	226.25
884.82	226.26
885.13	226.23
885.44	226.20
885.74	226.18
886.05	226.20
886.36	226.17
886.67	226.15
886.98	226.18
887.28	226.16
887.59	226.14
887.90	226.14
888.20	226.12
888.51	226.13
888.82	226.07
889.13	226.07
889.43	226.16
889.74	226.14
890.05	226.08
890.35	226.05
890.66	226.04
890.97	226.04
891.28	226.00
891.58	226.03
891.89	226.05
892.20	226.02
892.50	226.01
892.81	226.07
893.12	226.06
893.42	226.04
893.73	226.08
894.04	226.07
894.34	226.09
894.65	226.08
894.95	226.10
895.26	226.10
895.57	226.13
895.87	226.04
896.18	226.07
896.48	226.10
896.79	226.11
897.10	226.13
897.40	226.13
897.71	226.20
898.01	226.22
898.32	226.21
898.63	226.24
898.93	226.24
899.24	226.26
899.54	226.26
899.85	226.24
900.15	226.24
900.46	226.26
900.76	226.27
901.07	226.27
901.38	226.26
901.68	226.27
901.99	226.25
902.29	226.30
902.60	226.28
902.90	226.34
903.21	226.35
903.51	226.37
903.82	226.41
904.12	226.37
904.43	226.37
904.73	226.40
905.03	226.40
905.34	226.49
905.64	226.49
905.95	226.50
906.25	226.51
906.56	226.50
906.86	226.49
907.17	226.49
907.47	226.55
907.77	226.56
908.08	226.58
908.38	226.60
908.69	226.58
908.99	226.60
909.30	226.57
909.60	226.57
909.90	226.53
910.21	226.51
910.51	226.51
910.81	226.51
911.12	226.51
911.42	226.52
911.73	226.43
912.03	226.39
912.33	226.42
912.64	226.41
912.94	226.38
913.24	226.38
913.55	226.36
913.85	226.30
914.15	226.32
914.46	226.28
914.76	226.25
915.06	226.22
915.37	226.23
915.67	226.21
915.97	226.24
916.27	226.20
916.58	226.19
916.88	226.15
917.18	226.11
917.49	226.18
917.79	226.17
918.09	226.16
918.39	226.18
918.70	226.18
919.00	226.17
919.30	226.21
919.60	226.18
919.91	226.16
920.21	226.14
920.51	226.10
920.81	226.14
921.12	226.16
921.42	226.15
921.72	226.12
922.02	226.14
922.32	226.13
922.63	226.17
922.93	226.24
923.23	226.24
923.53	226.24
923.83	226.12
924.13	226.10
924.44	226.09
924.74	226.10
925.04	226.09
925.34	226.09
925.64	226.03
925.94	226.01
926.24	226.05
926.55	226.06
926.85	226.09
927.15	226.06
927.45	226.04
927.75	226.03
928.05	226.02
928.35	226.00
928.65	225.99
928.95	225.98
929.26	225.90
929.56	225.96
929.86	225.97
930.16	225.98
930.46	225.97
930.76	226.02
931.06	225.97
931.36	225.95
931.66	225.97
931.96	226.00
932.26	226.05
932.56	226.02
932.86	226.03
933.16	226.05
933.46	226.03
933.76	226.00
934.06	226.06
934.36	226.09
934.66	226.08
934.96	226.08
935.26	226.09
935.56	226.12
935.86	226.09
936.16	226.09
936.46	226.10
936.76	226.11
937.06	226.10
937.36	226.13
937.66	226.14
937.96	226.12
938.26	226.12
938.56	226.11
938.86	226.11
939.16	226.16
939.46	226.13
939.76	226.19
940.06	226.19
940.35	226.17
940.65	226.13
940.95	226.15
941.25	226.14
941.55	226.16
941.85	226.18
942.15	226.19
942.45	226.20
942.75	226.17
943.04	226.20
943.34	226.19
943.64	226.17
943.94	226.16
944.24	226.17
944.54	226.15
944.84	226.16
945.13	226.17
945.43	226.14
945.73	226.16
946.03	226.11
946.33	226.08
946.62	226.06
946.92	226.06
947.22	226.07
947.52	226.09
947.82	226.06
948.11	226.03
948.41	225.99
948.71	225.97
949.01	225.98
949.31	225.97
949.60	225.99
949.90	226.02
950.20	226.01
950.50	226.04
950.79	226.02
951.09	226.04
951.39	226.01
951.69	225.99
951.98	225.97
952.28	226.02
952.58	226.04
952.87	226.05
953.17	226.06
953.47	226.04
953.76	226.03
954.06	226.01
954.36	225.97
954.66	225.99
954.95	226.03
955.25	226.03
955.55	226.07
955.84	226.00
956.14	225.97
956.44	225.99
956.73	225.94
957.03	225.99
957.32	225.95
957.62	225.94
957.92	225.97
958.21	226.00
958.51	226.05
958.81	226.07
959.10	226.07
959.40	226.09
959.69	226.10
959.99	226.13
960.29	226.14
960.58	226.16
960.88	226.20
961.17	226.15
961.47	226.17
961.76	226.16
962.06	226.17
962.36	226.18
962.65	226.18
962.95	226.19
963.24	226.18
963.54	226.21
963.83	226.24
964.13	226.20
964.42	226.13
964.72	226.07
965.01	226.05
965.31	226.05
965.60	226.02
965.90	226.09
966.19	226.08
966.49	226.08
966.78	226.10
967.08	226.09
967.37	226.10
967.67	226.09
967.96	226.07
968.26	226.09
968.55	226.12
968.85	226.11
969.14	226.09
969.43	226.10
969.73	226.10
970.02	226.11
970.32	226.13
970.61	226.15
970.91	226.16
971.20	226.15
971.49	226.15
971.79	226.18
972.08	226.07
972.38	226.06
972.67	226.04
972.96	226.05
973.26	226.05
973.55	226.10
973.85	226.08
974.14	226.08
974.43	226.08
974.73	226.06
975.02	226.07
975.31	226.11
975.61	226.09
975.90	226.08
976.19	226.04
976.49	226.06
976.78	226.07
977.07	226.07
977.37	226.09
977.66	226.09
977.95	226.09
978.24	226.15
978.54	226.18
978.83	226.20
979.12	226.18
979.42	226.16
979.71	226.14
980.00	226.16
980.29	226.20
980.59	226.21
980.88	226.21
981.17	226.20
981.46	226.15
981.76	226.16
982.05	226.17
982.34	226.18
982.63	226.15
982.93	226.17
983.22	226.20
983.51	226.20
983.80	226.22
984.09	226.21
984.39	226.21
984.68	226.19
984.97	226.17
985.26	226.20
985.55	226.21
985.85	226.22
986.14	226.20
986.43	226.15
986.72	226.11
987.01	226.09
987.30	226.08
987.59	226.11
987.89	226.10
988.18	226.10
988.47	226.08
988.76	226.07
989.05	226.03
989.34	225.96
989.63	225.97
989.92	225.96
990.22	225.92
990.51	225.86
990.80	225.85
991.09	225.86
991.38	225.86
991.67	225.83
991.96	225.80
992.25	225.81
992.54	225.80
992.83	225.80
993.12	225.78
993.41	225.80
993.70	225.81
993.99	225.81
994.28	225.80
994.58	225.79
994.87	225.76
995.16	225.73
995.45	225.72
995.74	225.68
996.03	225.68
996.32	225.69
996.61	225.68
996.90	225.65
997.19	225.65
997.48	225.61
997.77	225.60
998.06	225.54
998.34	225.54
998.63	225.51
998.92	225.50
999.21	225.53
999.50	225.52
999.79	225.49
1000.08	225.47
1000.37	225.48
1000.66	225.49
1000.95	225.52
1001.24	225.54
1001.53	225.54
1001.82	225.55
1002.11	225.53
1002.40	225.56
1002.68	225.60
1002.97	225.71
1003.26	225.66
1003.55	225.62
1003.84	225.66
1004.13	225.70
1004.42	225.67
1004.71	225.64
1004.99	225.63
1005.28	225.64
1005.57	225.62
1005.86	225.63
1006.15	225.62
1006.44	225.59
1006.72	225.60
1007.01	225.59
1007.30	225.59
1007.59	225.62
1007.88	225.62
1008.17	225.60
1008.45	225.54
1008.74	225.51
1009.03	225.45
1009.32	225.46
1009.60	225.50
1009.89	225.48
1010.18	225.46
1010.47	225.47
1010.76	225.53
1011.04	225.55
1011.33	225.57
1011.62	225.56
1011.91	225.57
1012.19	225.59
1012.48	225.61
1012.77	225.59
1013.05	225.63
1013.34	225.65
1013.63	225.64
1013.92	225.71
1014.20	225.74
1014.49	225.83
1014.78	225.86
1015.06	225.83
1015.35	225.87
1015.64	225.89
1015.92	225.92
1016.21	225.94
1016.50	225.96
1016.78	225.98
1017.07	226.02
1017.36	226.00
1017.64	226.01
1017.93	226.01
1018.22	226.03
1018.50	226.00
1018.79	226.02
1019.08	226.00
1019.36	226.02
1019.65	225.99
1019.93	225.96
1020.22	225.95
1020.51	225.98
1020.79	225.97
1021.08	226.06
1021.36	225.35
1021.65	226.00
1021.94	225.54
1022.22	226.29
1022.51	225.42
1022.79	226.04
1023.08	226.10
1023.36	227.30
1023.65	225.73
>>>>>End Processed Spectral Data<<<<<
