SpectraSuite Data File
++++++++++++++++++++++++++++++++++++
Date: Fri Feb 01 14:50:06 EST 2013
User: group
Dark Spectrum Present: No
Reference Spectrum Present: No
Number of Sampled Component Spectra: 1
Spectrometers: USB2E7196
Integration Time (usec): 35000 (USB2E7196)
Spectra Averaged: 100 (USB2E7196)
Boxcar Smoothing: 10 (USB2E7196)
Correct for Electrical Dark: No (USB2E7196)
Strobe/Lamp Enabled: No (USB2E7196)
Correct for Detector Non-linearity: No (USB2E7196)
Correct for Stray Light: No (USB2E7196)
Number of Pixels in Processed Spectrum: 2048
>>>>>Begin Processed Spectral Data<<<<<
339.09	0.00
339.48	215.17
339.86	216.88
340.24	217.86
340.63	219.65
341.01	222.35
341.39	222.15
341.78	223.93
342.16	225.02
342.54	225.71
342.93	213.80
343.31	224.60
343.69	225.16
344.07	225.63
344.46	226.09
344.84	226.49
345.22	226.76
345.60	227.03
345.99	227.20
346.37	227.29
346.75	227.36
347.13	227.46
347.52	227.54
347.90	227.62
348.28	227.64
348.66	227.72
349.05	227.71
349.43	227.78
349.81	227.85
350.19	227.86
350.57	227.92
350.96	228.01
351.34	228.10
351.72	228.21
352.10	228.33
352.48	228.37
352.87	228.44
353.25	228.50
353.63	228.57
354.01	228.66
354.39	228.80
354.77	228.89
355.15	228.99
355.54	229.06
355.92	229.11
356.30	229.20
356.68	229.34
357.06	229.37
357.44	229.42
357.82	229.47
358.20	229.58
358.58	229.66
358.97	229.68
359.35	229.79
359.73	229.87
360.11	229.93
360.49	230.04
360.87	230.09
361.25	230.16
361.63	230.21
362.01	230.28
362.39	230.31
362.77	230.35
363.15	230.38
363.53	230.39
363.91	230.40
364.29	230.39
364.67	230.29
365.05	230.33
365.43	230.33
365.81	230.39
366.19	230.44
366.57	230.45
366.95	230.47
367.33	230.39
367.71	230.38
368.09	230.33
368.47	230.28
368.85	230.24
369.23	230.19
369.61	230.12
369.99	230.09
370.37	230.03
370.75	230.04
371.13	229.95
371.51	229.89
371.89	229.86
372.27	229.83
372.65	229.77
373.03	229.71
373.41	229.63
373.78	229.53
374.16	229.40
374.54	229.30
374.92	229.22
375.30	229.15
375.68	229.04
376.06	228.98
376.44	228.85
376.82	228.75
377.19	228.69
377.57	228.58
377.95	228.45
378.33	228.37
378.71	228.24
379.09	228.15
379.47	228.06
379.84	227.96
380.22	227.87
380.60	227.79
380.98	227.70
381.36	227.63
381.73	227.54
382.11	227.49
382.49	227.39
382.87	227.29
383.25	227.22
383.62	227.23
384.00	227.16
384.38	227.13
384.76	227.12
385.13	227.08
385.51	227.07
385.89	227.00
386.27	226.91
386.64	226.85
387.02	226.83
387.40	226.77
387.78	226.71
388.15	226.67
388.53	226.63
388.91	226.59
389.29	226.56
389.66	226.57
390.04	226.53
390.42	226.51
390.79	226.51
391.17	226.48
391.55	226.40
391.92	226.39
392.30	226.42
392.68	226.39
393.05	226.38
393.43	226.37
393.81	226.41
394.18	226.45
394.56	226.50
394.94	226.55
395.31	226.57
395.69	226.66
396.06	226.73
396.44	226.78
396.82	226.85
397.19	226.93
397.57	226.97
397.95	227.04
398.32	227.10
398.70	227.21
399.07	227.32
399.45	227.41
399.82	227.49
400.20	227.58
400.58	227.66
400.95	227.73
401.33	227.86
401.70	228.04
402.08	228.16
402.45	228.28
402.83	228.40
403.20	228.56
403.58	228.70
403.95	228.84
404.33	229.00
404.71	229.15
405.08	229.37
405.46	229.53
405.83	229.71
406.21	229.91
406.58	230.07
406.96	230.26
407.33	230.45
407.70	230.69
408.08	230.97
408.45	231.23
408.83	231.46
409.20	231.73
409.58	231.90
409.95	232.18
410.33	232.46
410.70	232.74
411.08	233.09
411.45	233.39
411.82	233.70
412.20	234.07
412.57	234.49
412.95	234.82
413.32	235.22
413.69	235.60
414.07	236.03
414.44	236.51
414.82	236.97
415.19	237.53
415.56	238.06
415.94	238.57
416.31	239.21
416.68	239.83
417.06	240.53
417.43	241.23
417.81	241.97
418.18	242.78
418.55	243.57
418.93	244.43
419.30	245.29
419.67	246.21
420.04	247.11
420.42	248.11
420.79	249.25
421.16	250.39
421.54	251.57
421.91	252.78
422.28	254.02
422.66	255.36
423.03	256.61
423.40	257.89
423.77	259.28
424.15	260.66
424.52	262.14
424.89	263.72
425.26	265.23
425.64	266.64
426.01	268.20
426.38	269.84
426.75	271.45
427.13	273.15
427.50	274.95
427.87	276.82
428.24	278.62
428.61	280.32
428.99	282.28
429.36	284.34
429.73	286.38
430.10	288.40
430.47	290.43
430.85	292.54
431.22	294.78
431.59	297.15
431.96	299.37
432.33	301.84
432.70	304.15
433.08	306.96
433.45	309.62
433.82	312.19
434.19	315.09
434.56	317.88
434.93	320.52
435.30	323.15
435.68	326.05
436.05	328.84
436.42	331.64
436.79	334.13
437.16	336.84
437.53	339.64
437.90	342.40
438.27	345.12
438.64	347.92
439.01	350.51
439.38	352.74
439.75	354.91
440.13	357.38
440.50	359.78
440.87	361.62
441.24	363.55
441.61	365.74
441.98	367.23
442.35	369.04
442.72	370.88
443.09	372.68
443.46	373.62
443.83	374.25
444.20	374.77
444.57	375.57
444.94	375.91
445.31	376.28
445.68	376.64
446.05	376.77
446.42	376.40
446.79	375.98
447.16	375.52
447.53	375.20
447.90	374.11
448.27	372.91
448.64	371.35
449.01	370.21
449.37	368.25
449.74	366.34
450.11	364.11
450.48	361.68
450.85	359.12
451.22	357.07
451.59	355.06
451.96	353.13
452.33	350.58
452.70	348.21
453.07	345.37
453.43	342.50
453.80	339.73
454.17	337.11
454.54	334.59
454.91	331.91
455.28	329.26
455.65	326.75
456.02	324.33
456.38	322.23
456.75	319.61
457.12	317.35
457.49	315.15
457.86	313.03
458.23	311.20
458.59	309.21
458.96	307.11
459.33	305.28
459.70	303.46
460.07	301.93
460.43	300.24
460.80	298.63
461.17	297.21
461.54	295.70
461.91	294.30
462.27	292.85
462.64	291.60
463.01	290.27
463.38	289.01
463.74	287.64
464.11	286.45
464.48	285.38
464.85	284.25
465.21	283.38
465.58	282.39
465.95	281.27
466.32	280.29
466.68	279.40
467.05	278.49
467.42	277.59
467.78	276.65
468.15	275.76
468.52	275.09
468.88	274.22
469.25	273.42
469.62	272.74
469.98	272.03
470.35	271.40
470.72	270.80
471.08	270.11
471.45	269.56
471.82	268.99
472.18	268.39
472.55	267.97
472.92	267.42
473.28	266.95
473.65	266.48
474.02	266.07
474.38	265.63
474.75	265.29
475.11	264.92
475.48	264.64
475.85	264.36
476.21	264.11
476.58	263.89
476.94	263.72
477.31	263.53
477.67	263.42
478.04	263.25
478.41	263.12
478.77	263.13
479.14	263.06
479.50	263.03
479.87	263.04
480.23	263.06
480.60	263.13
480.96	263.18
481.33	263.34
481.69	263.49
482.06	263.71
482.42	263.85
482.79	264.09
483.15	264.36
483.52	264.74
483.88	265.06
484.25	265.42
484.61	265.85
484.98	266.33
485.34	266.87
485.71	267.48
486.07	268.05
486.44	268.60
486.80	269.28
487.17	269.97
487.53	270.81
487.90	271.68
488.26	272.59
488.62	273.60
488.99	274.60
489.35	275.64
489.72	276.70
490.08	277.90
490.44	279.11
490.81	280.46
491.17	281.78
491.54	283.27
491.90	284.82
492.26	286.41
492.63	288.10
492.99	289.83
493.36	291.70
493.72	293.76
494.08	295.86
494.45	298.10
494.81	300.50
495.17	302.91
495.54	305.48
495.90	308.13
496.26	310.90
496.63	313.81
496.99	316.93
497.35	320.18
497.72	323.56
498.08	327.07
498.44	330.74
498.80	334.67
499.17	338.64
499.53	342.76
499.89	347.14
500.26	351.65
500.62	356.32
500.98	361.26
501.34	366.22
501.71	371.54
502.07	376.91
502.43	382.51
502.79	388.31
503.16	394.32
503.52	400.52
503.88	406.94
504.24	413.59
504.60	420.46
504.97	427.55
505.33	434.85
505.69	442.47
506.05	450.12
506.41	457.96
506.78	466.10
507.14	474.54
507.50	483.22
507.86	492.15
508.22	501.27
508.59	510.41
508.95	520.09
509.31	529.81
509.67	539.87
510.03	550.12
510.39	560.63
510.75	571.40
511.12	582.36
511.48	593.55
511.84	604.91
512.20	616.39
512.56	628.35
512.92	640.49
513.28	652.85
513.64	665.37
514.00	678.04
514.37	690.94
514.73	703.95
515.09	716.93
515.45	730.14
515.81	743.61
516.17	757.59
516.53	771.63
516.89	785.77
517.25	799.96
517.61	814.29
517.97	828.75
518.33	843.17
518.69	857.91
519.05	872.98
519.41	888.09
519.77	903.65
520.13	919.07
520.49	934.45
520.85	949.81
521.21	965.54
521.57	981.83
521.93	997.67
522.29	1014.09
522.65	1030.36
523.01	1046.63
523.37	1062.87
523.73	1079.03
524.09	1095.19
524.45	1111.60
524.81	1128.28
525.17	1145.24
525.53	1162.12
525.89	1178.99
526.25	1195.84
526.61	1212.15
526.97	1229.01
527.33	1245.48
527.68	1262.13
528.04	1278.61
528.40	1295.37
528.76	1312.51
529.12	1329.03
529.48	1345.91
529.84	1361.94
530.20	1378.68
530.56	1395.72
530.91	1413.09
531.27	1430.00
531.63	1446.52
531.99	1463.08
532.35	1479.16
532.71	1494.98
533.07	1511.37
533.42	1527.37
533.78	1543.46
534.14	1559.80
534.50	1575.10
534.86	1591.05
535.21	1606.18
535.57	1622.29
535.93	1637.81
536.29	1652.56
536.65	1667.83
537.00	1682.71
537.36	1698.06
537.72	1712.60
538.08	1727.18
538.44	1741.14
538.79	1755.07
539.15	1768.79
539.51	1782.72
539.87	1797.10
540.22	1811.01
540.58	1824.82
540.94	1838.23
541.29	1851.18
541.65	1863.98
542.01	1877.33
542.37	1889.53
542.72	1902.12
543.08	1913.79
543.44	1926.15
543.79	1937.33
544.15	1948.34
544.51	1959.85
544.87	1970.93
545.22	1981.78
545.58	1991.89
545.94	2001.63
546.29	2011.40
546.65	2021.13
547.01	2030.19
547.36	2038.95
547.72	2047.36
548.07	2055.18
548.43	2063.34
548.79	2071.50
549.14	2079.06
549.50	2086.59
549.86	2094.46
550.21	2101.64
550.57	2108.85
550.92	2115.46
551.28	2122.76
551.64	2129.72
551.99	2136.11
552.35	2142.10
552.70	2148.14
553.06	2154.09
553.41	2160.28
553.77	2166.28
554.13	2172.34
554.48	2178.38
554.84	2183.61
555.19	2188.81
555.55	2193.88
555.90	2198.28
556.26	2202.91
556.61	2207.43
556.97	2211.41
557.32	2215.38
557.68	2219.57
558.03	2223.78
558.39	2227.24
558.74	2231.57
559.10	2235.21
559.45	2238.78
559.81	2243.04
560.16	2246.66
560.52	2249.82
560.87	2253.10
561.23	2255.57
561.58	2258.22
561.94	2260.71
562.29	2263.01
562.64	2265.49
563.00	2267.85
563.35	2271.32
563.71	2274.25
564.06	2277.38
564.42	2280.00
564.77	2282.31
565.12	2284.34
565.48	2285.95
565.83	2287.60
566.19	2288.88
566.54	2289.77
566.89	2290.72
567.25	2290.89
567.60	2291.98
567.96	2293.42
568.31	2293.98
568.66	2294.84
569.02	2295.31
569.37	2295.41
569.72	2295.93
570.08	2295.66
570.43	2295.40
570.78	2294.15
571.14	2292.35
571.49	2290.67
571.84	2290.14
572.20	2288.59
572.55	2287.14
572.90	2285.35
573.26	2283.73
573.61	2281.64
573.96	2279.53
574.31	2276.34
574.67	2273.17
575.02	2269.36
575.37	2265.57
575.72	2261.59
576.08	2258.02
576.43	2254.49
576.78	2250.63
577.13	2247.20
577.49	2244.11
577.84	2240.45
578.19	2236.75
578.54	2232.77
578.90	2228.37
579.25	2222.71
579.60	2217.68
579.95	2212.52
580.30	2207.26
580.66	2202.08
581.01	2196.95
581.36	2191.83
581.71	2187.48
582.06	2182.87
582.42	2178.22
582.77	2173.00
583.12	2168.31
583.47	2163.47
583.82	2158.29
584.17	2152.91
584.53	2147.36
584.88	2141.55
585.23	2135.66
585.58	2129.94
585.93	2124.47
586.28	2119.51
586.63	2114.13
586.98	2108.86
587.34	2104.20
587.69	2099.21
588.04	2093.68
588.39	2087.80
588.74	2081.18
589.09	2074.91
589.44	2068.12
589.79	2061.93
590.14	2055.99
590.49	2049.18
590.84	2042.42
591.19	2036.26
591.54	2029.54
591.89	2021.97
592.25	2015.03
592.60	2007.65
592.95	1999.92
593.30	1992.45
593.65	1984.67
594.00	1977.58
594.35	1970.19
594.70	1961.82
595.05	1954.49
595.40	1947.26
595.75	1939.71
596.10	1933.35
596.45	1926.46
596.80	1920.13
597.15	1913.46
597.50	1906.42
597.85	1899.92
598.19	1893.32
598.54	1886.19
598.89	1879.59
599.24	1873.62
599.59	1866.86
599.94	1860.63
600.29	1854.30
600.64	1847.68
600.99	1840.26
601.34	1833.43
601.69	1826.40
602.04	1819.59
602.39	1812.24
602.74	1805.25
603.08	1798.52
603.43	1791.86
603.78	1784.58
604.13	1777.28
604.48	1769.99
604.83	1763.12
605.18	1756.24
605.53	1748.40
605.87	1740.35
606.22	1733.03
606.57	1725.07
606.92	1717.84
607.27	1710.67
607.62	1703.78
607.96	1696.72
608.31	1690.14
608.66	1682.46
609.01	1675.21
609.36	1667.80
609.70	1659.89
610.05	1651.97
610.40	1644.52
610.75	1636.40
611.10	1628.87
611.44	1620.70
611.79	1612.75
612.14	1604.10
612.49	1595.03
612.83	1586.84
613.18	1578.95
613.53	1570.97
613.88	1562.72
614.22	1554.54
614.57	1546.11
614.92	1538.41
615.27	1530.82
615.61	1522.61
615.96	1514.72
616.31	1507.07
616.65	1499.63
617.00	1492.14
617.35	1484.49
617.70	1476.18
618.04	1467.57
618.39	1459.49
618.74	1452.06
619.08	1443.99
619.43	1436.70
619.78	1429.90
620.12	1422.81
620.47	1415.40
620.82	1407.36
621.16	1400.01
621.51	1392.47
621.85	1385.03
622.20	1376.50
622.55	1368.21
622.89	1360.55
623.24	1353.08
623.59	1345.76
623.93	1338.47
624.28	1331.43
624.62	1324.06
624.97	1316.94
625.32	1310.37
625.66	1303.41
626.01	1296.30
626.35	1289.02
626.70	1281.30
627.04	1273.66
627.39	1265.94
627.73	1258.56
628.08	1251.73
628.43	1244.48
628.77	1237.19
629.12	1229.68
629.46	1222.62
629.81	1215.38
630.15	1208.23
630.50	1200.99
630.84	1192.94
631.19	1185.12
631.53	1177.62
631.88	1170.20
632.22	1162.67
632.57	1155.49
632.91	1148.01
633.26	1140.59
633.60	1133.27
633.95	1126.23
634.29	1119.30
634.64	1112.67
634.98	1105.46
635.32	1098.60
635.67	1092.12
636.01	1085.60
636.36	1078.95
636.70	1072.48
637.05	1066.01
637.39	1059.67
637.73	1053.26
638.08	1047.48
638.42	1041.55
638.77	1035.20
639.11	1028.68
639.45	1022.48
639.80	1015.89
640.14	1009.61
640.49	1003.22
640.83	996.94
641.17	990.84
641.52	984.66
641.86	978.37
642.20	972.62
642.55	966.28
642.89	959.91
643.23	953.55
643.58	947.79
643.92	941.70
644.26	935.80
644.61	929.87
644.95	923.91
645.29	917.38
645.64	910.69
645.98	904.48
646.32	898.84
646.66	892.84
647.01	887.20
647.35	881.64
647.69	875.94
648.04	870.52
648.38	864.82
648.72	858.84
649.06	852.83
649.41	846.98
649.75	841.06
650.09	835.14
650.43	829.34
650.78	823.27
651.12	817.35
651.46	811.64
651.80	805.97
652.14	800.67
652.49	795.44
652.83	790.41
653.17	784.82
653.51	779.07
653.85	773.64
654.20	767.96
654.54	761.94
654.88	756.23
655.22	750.40
655.56	744.74
655.90	739.31
656.25	734.11
656.59	728.82
656.93	723.76
657.27	718.71
657.61	713.34
657.95	708.34
658.29	703.33
658.64	698.12
658.98	692.78
659.32	687.31
659.66	682.08
660.00	676.83
660.34	671.96
660.68	667.14
661.02	662.25
661.36	657.71
661.70	653.27
662.05	648.98
662.39	644.75
662.73	640.33
663.07	636.04
663.41	631.64
663.75	627.20
664.09	622.75
664.43	618.42
664.77	614.31
665.11	610.08
665.45	606.05
665.79	602.12
666.13	598.12
666.47	594.07
666.81	589.97
667.15	585.91
667.49	582.03
667.83	578.24
668.17	574.33
668.51	570.24
668.85	566.30
669.19	562.44
669.53	558.61
669.87	554.86
670.21	551.25
670.55	547.70
670.89	544.38
671.23	541.01
671.57	537.51
671.91	534.06
672.25	530.65
672.58	527.17
672.92	523.76
673.26	520.65
673.60	517.62
673.94	514.63
674.28	511.72
674.62	508.84
674.96	505.76
675.30	502.92
675.64	500.05
675.97	497.32
676.31	494.53
676.65	491.66
676.99	489.01
677.33	486.15
677.67	483.33
678.01	480.25
678.34	477.30
678.68	474.55
679.02	471.84
679.36	469.12
679.70	466.46
680.04	463.69
680.37	460.82
680.71	458.07
681.05	455.46
681.39	452.85
681.73	450.19
682.06	447.70
682.40	445.20
682.74	442.70
683.08	440.22
683.42	437.68
683.75	435.21
684.09	432.65
684.43	430.22
684.77	427.83
685.10	425.60
685.44	423.37
685.78	421.10
686.12	418.85
686.45	416.54
686.79	414.25
687.13	412.17
687.46	410.03
687.80	407.86
688.14	405.67
688.48	403.62
688.81	401.44
689.15	399.36
689.49	397.22
689.82	395.17
690.16	393.10
690.50	391.19
690.83	389.26
691.17	387.32
691.51	385.48
691.84	383.69
692.18	381.70
692.52	379.68
692.85	377.75
693.19	375.87
693.52	374.07
693.86	372.30
694.20	370.49
694.53	368.76
694.87	366.94
695.21	365.23
695.54	363.42
695.88	361.71
696.21	359.98
696.55	358.36
696.88	356.69
697.22	355.03
697.56	353.40
697.89	351.80
698.23	350.23
698.56	348.62
698.90	347.02
699.23	345.42
699.57	343.92
699.90	342.34
700.24	340.81
700.58	339.34
700.91	337.87
701.25	336.49
701.58	335.11
701.92	333.79
702.25	332.37
702.59	331.08
702.92	329.83
703.26	328.52
703.59	327.22
703.93	326.03
704.26	324.82
704.60	323.52
704.93	322.29
705.26	321.05
705.60	319.91
705.93	318.77
706.27	317.76
706.60	316.74
706.94	315.74
707.27	314.67
707.61	313.60
707.94	312.57
708.27	311.45
708.61	310.40
708.94	309.42
709.28	308.49
709.61	307.46
709.94	306.48
710.28	305.52
710.61	304.58
710.95	303.55
711.28	302.69
711.61	301.78
711.95	300.85
712.28	299.92
712.61	298.96
712.95	298.03
713.28	297.16
713.61	296.26
713.95	295.36
714.28	294.51
714.61	293.65
714.95	292.84
715.28	292.03
715.61	291.17
715.95	290.30
716.28	289.42
716.61	288.64
716.95	287.81
717.28	287.09
717.61	286.35
717.94	285.61
718.28	284.79
718.61	284.07
718.94	283.42
719.27	282.79
719.61	282.17
719.94	281.47
720.27	280.77
720.60	280.13
720.94	279.56
721.27	278.98
721.60	278.41
721.93	277.83
722.27	277.25
722.60	276.75
722.93	276.20
723.26	275.71
723.59	275.16
723.93	274.65
724.26	274.07
724.59	273.49
724.92	273.01
725.25	272.48
725.59	271.98
725.92	271.46
726.25	270.95
726.58	270.43
726.91	270.01
727.24	269.55
727.57	269.08
727.91	268.56
728.24	268.10
728.57	267.63
728.90	267.17
729.23	266.70
729.56	266.23
729.89	265.78
730.22	265.30
730.55	264.85
730.89	264.41
731.22	263.99
731.55	263.57
731.88	263.13
732.21	262.70
732.54	262.27
732.87	261.83
733.20	261.41
733.53	261.05
733.86	260.66
734.19	260.27
734.52	259.87
734.85	259.59
735.18	259.19
735.51	258.83
735.84	258.47
736.17	258.13
736.50	257.76
736.83	257.50
737.16	257.21
737.49	256.89
737.82	256.54
738.15	256.21
738.48	255.85
738.81	255.53
739.14	255.25
739.47	254.92
739.80	254.64
740.13	254.35
740.46	254.02
740.79	253.68
741.12	253.39
741.45	253.11
741.78	252.74
742.11	252.44
742.44	252.15
742.77	251.85
743.10	251.54
743.43	251.19
743.75	250.83
744.08	250.65
744.41	250.36
744.74	250.08
745.07	249.78
745.40	249.57
745.73	249.36
746.06	249.07
746.39	248.84
746.71	248.58
747.04	248.29
747.37	248.01
747.70	247.77
748.03	247.50
748.36	247.29
748.68	247.02
749.01	246.78
749.34	246.54
749.67	246.31
750.00	246.07
750.33	245.96
750.65	245.74
750.98	245.37
751.31	245.10
751.64	244.90
751.97	244.76
752.29	244.53
752.62	244.26
752.95	244.04
753.28	243.82
753.60	243.61
753.93	243.44
754.26	243.26
754.59	243.05
754.91	242.84
755.24	242.61
755.57	242.44
755.90	242.25
756.22	242.03
756.55	241.81
756.88	241.61
757.20	241.38
757.53	241.18
757.86	241.06
758.19	240.96
758.51	240.83
758.84	240.58
759.17	240.41
759.49	240.25
759.82	240.13
760.15	239.99
760.47	239.85
760.80	239.70
761.13	239.58
761.45	239.43
761.78	239.28
762.11	239.14
762.43	239.00
762.76	238.88
763.08	238.79
763.41	238.69
763.74	238.59
764.06	238.46
764.39	238.32
764.71	238.17
765.04	238.01
765.37	237.83
765.69	237.72
766.02	237.59
766.34	237.44
766.67	237.31
767.00	237.19
767.32	237.14
767.65	237.06
767.97	236.93
768.30	236.86
768.62	236.78
768.95	236.67
769.27	236.59
769.60	236.52
769.92	236.40
770.25	236.27
770.57	236.15
770.90	236.05
771.22	235.99
771.55	235.90
771.87	235.83
772.20	235.76
772.52	235.74
772.85	235.78
773.17	235.70
773.50	235.59
773.82	235.52
774.15	235.34
774.47	235.19
774.80	235.11
775.12	234.98
775.45	234.88
775.77	234.82
776.09	234.73
776.42	234.61
776.74	234.56
777.07	234.48
777.39	234.40
777.72	234.30
778.04	234.21
778.36	234.12
778.69	234.02
779.01	233.95
779.33	233.83
779.66	233.67
779.98	233.59
780.31	233.53
780.63	233.44
780.95	233.42
781.28	233.38
781.60	233.31
781.92	233.27
782.25	233.20
782.57	233.14
782.89	233.09
783.22	233.02
783.54	232.94
783.86	232.88
784.19	232.83
784.51	232.82
784.83	232.76
785.16	232.70
785.48	232.65
785.80	232.60
786.12	232.56
786.45	232.47
786.77	232.44
787.09	232.38
787.42	232.36
787.74	232.33
788.06	232.30
788.38	232.24
788.71	232.19
789.03	232.17
789.35	232.13
789.67	232.07
789.99	232.02
790.32	231.97
790.64	231.94
790.96	231.97
791.28	231.88
791.61	231.90
791.93	231.87
792.25	231.86
792.57	231.92
792.89	231.86
793.21	231.87
793.54	231.83
793.86	231.78
794.18	231.72
794.50	231.66
794.82	231.61
795.14	231.59
795.47	231.57
795.79	231.53
796.11	231.47
796.43	231.43
796.75	231.43
797.07	231.42
797.39	231.41
797.71	231.31
798.04	231.31
798.36	231.25
798.68	231.22
799.00	231.19
799.32	231.09
799.64	231.07
799.96	231.00
800.28	231.01
800.60	231.03
800.92	230.99
801.24	230.95
801.56	230.94
801.89	230.93
802.21	230.92
802.53	230.86
802.85	230.86
803.17	230.87
803.49	230.82
803.81	230.75
804.13	230.68
804.45	230.64
804.77	230.61
805.09	230.58
805.41	230.52
805.73	230.49
806.05	230.43
806.37	230.39
806.69	230.38
807.01	230.31
807.33	230.26
807.65	230.24
807.97	230.24
808.28	230.21
808.60	230.18
808.92	230.14
809.24	230.18
809.56	230.15
809.88	230.09
810.20	230.09
810.52	230.12
810.84	230.09
811.16	230.05
811.48	230.02
811.80	230.04
812.12	230.02
812.43	230.01
812.75	230.01
813.07	229.97
813.39	229.96
813.71	229.95
814.03	229.92
814.35	229.92
814.67	229.87
814.98	229.82
815.30	229.80
815.62	229.74
815.94	229.67
816.26	229.66
816.58	229.64
816.89	229.60
817.21	229.56
817.53	229.55
817.85	229.54
818.17	229.51
818.48	229.44
818.80	229.45
819.12	229.38
819.44	229.30
819.76	229.28
820.07	229.28
820.39	229.25
820.71	229.21
821.03	229.17
821.34	229.15
821.66	229.12
821.98	229.10
822.30	229.07
822.61	229.09
822.93	229.03
823.25	228.98
823.57	228.95
823.88	228.92
824.20	228.91
824.52	228.94
824.83	228.94
825.15	228.91
825.47	228.88
825.79	228.87
826.10	228.85
826.42	228.84
826.74	228.83
827.05	228.80
827.37	228.83
827.69	228.82
828.00	228.81
828.32	228.82
828.64	228.79
828.95	228.84
829.27	228.84
829.58	228.86
829.90	228.88
830.22	228.90
830.53	228.89
830.85	228.89
831.17	228.88
831.48	228.90
831.80	228.90
832.11	228.91
832.43	228.90
832.75	228.92
833.06	228.97
833.38	228.93
833.69	228.93
834.01	228.93
834.32	228.91
834.64	228.92
834.96	228.92
835.27	228.89
835.59	228.88
835.90	228.85
836.22	228.83
836.53	228.80
836.85	228.79
837.16	228.86
837.48	228.86
837.79	228.85
838.11	228.80
838.42	228.81
838.74	228.81
839.05	228.82
839.37	228.81
839.68	228.76
840.00	228.77
840.31	228.79
840.63	228.79
840.94	228.78
841.26	228.74
841.57	228.74
841.88	228.77
842.20	228.75
842.51	228.72
842.83	228.74
843.14	228.82
843.46	228.81
843.77	228.76
844.08	228.74
844.40	228.72
844.71	228.72
845.03	228.69
845.34	228.70
845.65	228.71
845.97	228.71
846.28	228.70
846.60	228.68
846.91	228.62
847.22	228.60
847.54	228.60
847.85	228.62
848.16	228.59
848.48	228.59
848.79	228.61
849.10	228.62
849.42	228.59
849.73	228.50
850.04	228.48
850.36	228.44
850.67	228.44
850.98	228.40
851.30	228.41
851.61	228.40
851.92	228.38
852.23	228.38
852.55	228.38
852.86	228.39
853.17	228.35
853.49	228.39
853.80	228.40
854.11	228.38
854.42	228.39
854.74	228.34
855.05	228.30
855.36	228.26
855.67	228.24
855.99	228.24
856.30	228.31
856.61	228.32
856.92	228.32
857.23	228.29
857.55	228.28
857.86	228.28
858.17	228.28
858.48	228.24
858.79	228.22
859.11	228.18
859.42	228.16
859.73	228.19
860.04	228.18
860.35	228.15
860.66	228.12
860.98	228.08
861.29	228.08
861.60	228.05
861.91	228.05
862.22	228.04
862.53	228.01
862.84	227.93
863.16	227.92
863.47	227.86
863.78	227.91
864.09	227.90
864.40	227.91
864.71	227.89
865.02	227.93
865.33	227.93
865.64	227.94
865.95	227.93
866.27	227.99
866.58	227.94
866.89	227.95
867.20	227.97
867.51	227.96
867.82	227.97
868.13	228.01
868.44	228.01
868.75	228.02
869.06	228.05
869.37	228.05
869.68	228.06
869.99	228.11
870.30	228.07
870.61	228.12
870.92	228.12
871.23	228.12
871.54	228.12
871.85	228.14
872.16	228.18
872.47	228.18
872.78	228.13
873.09	228.17
873.40	228.16
873.71	228.15
874.02	228.17
874.33	228.18
874.64	228.21
874.95	228.21
875.26	228.21
875.56	228.23
875.87	228.23
876.18	228.24
876.49	228.33
876.80	228.35
877.11	228.30
877.42	228.30
877.73	228.30
878.04	228.26
878.35	228.24
878.66	228.23
878.96	228.21
879.27	228.20
879.58	228.19
879.89	228.20
880.20	228.24
880.51	228.22
880.82	228.23
881.12	228.20
881.43	228.18
881.74	228.16
882.05	228.13
882.36	228.12
882.67	228.14
882.97	228.06
883.28	228.05
883.59	228.06
883.90	228.04
884.21	228.02
884.51	228.03
884.82	228.03
885.13	228.02
885.44	228.03
885.74	228.07
886.05	228.04
886.36	228.01
886.67	227.96
886.98	227.98
887.28	227.99
887.59	228.00
887.90	227.99
888.20	227.96
888.51	227.99
888.82	227.97
889.13	227.95
889.43	227.99
889.74	227.96
890.05	227.98
890.35	227.98
890.66	227.97
890.97	227.96
891.28	227.94
891.58	227.91
891.89	227.88
892.20	227.82
892.50	227.83
892.81	227.82
893.12	227.84
893.42	227.80
893.73	227.78
894.04	227.73
894.34	227.76
894.65	227.75
894.95	227.69
895.26	227.66
895.57	227.67
895.87	227.59
896.18	227.61
896.48	227.58
896.79	227.57
897.10	227.58
897.40	227.57
897.71	227.59
898.01	227.60
898.32	227.62
898.63	227.64
898.93	227.61
899.24	227.64
899.54	227.63
899.85	227.62
900.15	227.64
900.46	227.67
900.76	227.68
901.07	227.69
901.38	227.70
901.68	227.73
901.99	227.69
902.29	227.66
902.60	227.64
902.90	227.61
903.21	227.59
903.51	227.58
903.82	227.60
904.12	227.59
904.43	227.60
904.73	227.60
905.03	227.59
905.34	227.71
905.64	227.70
905.95	227.73
906.25	227.74
906.56	227.74
906.86	227.74
907.17	227.73
907.47	227.75
907.77	227.74
908.08	227.75
908.38	227.77
908.69	227.80
908.99	227.82
909.30	227.88
909.60	227.93
909.90	227.94
910.21	227.96
910.51	227.97
910.81	227.98
911.12	227.98
911.42	227.99
911.73	227.91
912.03	227.92
912.33	227.94
912.64	227.94
912.94	227.92
913.24	227.92
913.55	227.93
913.85	227.91
914.15	227.96
914.46	227.94
914.76	227.96
915.06	227.97
915.37	227.99
915.67	227.97
915.97	227.94
916.27	227.93
916.58	227.89
916.88	227.87
917.18	227.84
917.49	227.91
917.79	227.94
918.09	227.94
918.39	227.98
918.70	227.96
919.00	228.00
919.30	228.05
919.60	228.03
919.91	228.01
920.21	228.01
920.51	227.98
920.81	228.00
921.12	228.01
921.42	228.01
921.72	228.01
922.02	228.00
922.32	228.04
922.63	228.04
922.93	228.11
923.23	228.14
923.53	228.14
923.83	228.09
924.13	228.09
924.44	228.11
924.74	228.11
925.04	228.12
925.34	228.08
925.64	228.01
925.94	228.02
926.24	228.08
926.55	228.08
926.85	228.09
927.15	228.11
927.45	228.08
927.75	228.08
928.05	228.09
928.35	228.07
928.65	228.09
928.95	228.08
929.26	228.04
929.56	228.07
929.86	228.09
930.16	228.09
930.46	228.06
930.76	228.04
931.06	227.98
931.36	227.94
931.66	227.95
931.96	227.96
932.26	227.94
932.56	227.87
932.86	227.89
933.16	227.88
933.46	227.84
933.76	227.82
934.06	227.84
934.36	227.83
934.66	227.85
934.96	227.80
935.26	227.81
935.56	227.77
935.86	227.71
936.16	227.67
936.46	227.66
936.76	227.67
937.06	227.63
937.36	227.62
937.66	227.66
937.96	227.68
938.26	227.64
938.56	227.61
938.86	227.61
939.16	227.63
939.46	227.62
939.76	227.60
940.06	227.62
940.35	227.57
940.65	227.52
940.95	227.52
941.25	227.50
941.55	227.49
941.85	227.47
942.15	227.50
942.45	227.54
942.75	227.54
943.04	227.51
943.34	227.54
943.64	227.52
943.94	227.48
944.24	227.47
944.54	227.50
944.84	227.53
945.13	227.53
945.43	227.50
945.73	227.52
946.03	227.51
946.33	227.52
946.62	227.52
946.92	227.53
947.22	227.52
947.52	227.55
947.82	227.56
948.11	227.57
948.41	227.54
948.71	227.51
949.01	227.52
949.31	227.52
949.60	227.54
949.90	227.58
950.20	227.59
950.50	227.60
950.79	227.62
951.09	227.65
951.39	227.65
951.69	227.64
951.98	227.65
952.28	227.70
952.58	227.67
952.87	227.69
953.17	227.72
953.47	227.72
953.76	227.74
954.06	227.73
954.36	227.75
954.66	227.74
954.95	227.81
955.25	227.82
955.55	227.82
955.84	227.80
956.14	227.80
956.44	227.81
956.73	227.81
957.03	227.84
957.32	227.87
957.62	227.85
957.92	227.91
958.21	227.94
958.51	228.03
958.81	228.06
959.10	228.04
959.40	228.05
959.69	228.08
959.99	228.07
960.29	228.09
960.58	228.09
960.88	228.16
961.17	228.14
961.47	228.12
961.76	228.13
962.06	228.12
962.36	228.13
962.65	228.12
962.95	228.10
963.24	228.04
963.54	227.99
963.83	227.95
964.13	227.89
964.42	227.82
964.72	227.73
965.01	227.70
965.31	227.67
965.60	227.66
965.90	227.70
966.19	227.68
966.49	227.63
966.78	227.60
967.08	227.55
967.37	227.51
967.67	227.47
967.96	227.48
968.26	227.46
968.55	227.46
968.85	227.44
969.14	227.42
969.43	227.45
969.73	227.44
970.02	227.46
970.32	227.48
970.61	227.48
970.91	227.45
971.20	227.45
971.49	227.48
971.79	227.45
972.08	227.37
972.38	227.37
972.67	227.39
972.96	227.38
973.26	227.39
973.55	227.43
973.85	227.46
974.14	227.43
974.43	227.46
974.73	227.43
975.02	227.42
975.31	227.41
975.61	227.38
975.90	227.36
976.19	227.36
976.49	227.36
976.78	227.36
977.07	227.34
977.37	227.31
977.66	227.32
977.95	227.30
978.24	227.33
978.54	227.32
978.83	227.33
979.12	227.31
979.42	227.30
979.71	227.30
980.00	227.28
980.29	227.29
980.59	227.27
980.88	227.28
981.17	227.29
981.46	227.29
981.76	227.32
982.05	227.38
982.34	227.41
982.63	227.38
982.93	227.40
983.22	227.46
983.51	227.51
983.80	227.53
984.09	227.55
984.39	227.55
984.68	227.52
984.97	227.50
985.26	227.52
985.55	227.54
985.85	227.51
986.14	227.54
986.43	227.58
986.72	227.56
987.01	227.57
987.30	227.55
987.59	227.59
987.89	227.60
988.18	227.60
988.47	227.56
988.76	227.59
989.05	227.60
989.34	227.58
989.63	227.63
989.92	227.60
990.22	227.58
990.51	227.58
990.80	227.59
991.09	227.65
991.38	227.66
991.67	227.66
991.96	227.66
992.25	227.68
992.54	227.67
992.83	227.69
993.12	227.69
993.41	227.71
993.70	227.73
993.99	227.74
994.28	227.76
994.58	227.79
994.87	227.79
995.16	227.77
995.45	227.74
995.74	227.73
996.03	227.78
996.32	227.79
996.61	227.85
996.90	227.88
997.19	227.88
997.48	227.89
997.77	227.90
998.06	227.89
998.34	227.89
998.63	227.86
998.92	227.84
999.21	227.84
999.50	227.85
999.79	227.86
1000.08	227.89
1000.37	227.87
1000.66	227.88
1000.95	227.92
1001.24	227.93
1001.53	227.95
1001.82	227.91
1002.11	227.87
1002.40	227.88
1002.68	227.89
1002.97	227.93
1003.26	227.89
1003.55	227.87
1003.84	227.90
1004.13	227.92
1004.42	227.92
1004.71	227.94
1004.99	227.94
1005.28	227.95
1005.57	227.93
1005.86	227.89
1006.15	227.84
1006.44	227.78
1006.72	227.78
1007.01	227.77
1007.30	227.78
1007.59	227.76
1007.88	227.72
1008.17	227.73
1008.45	227.68
1008.74	227.61
1009.03	227.54
1009.32	227.57
1009.60	227.53
1009.89	227.46
1010.18	227.42
1010.47	227.34
1010.76	227.32
1011.04	227.31
1011.33	227.31
1011.62	227.31
1011.91	227.31
1012.19	227.31
1012.48	227.33
1012.77	227.31
1013.05	227.32
1013.34	227.30
1013.63	227.31
1013.92	227.35
1014.20	227.32
1014.49	227.38
1014.78	227.38
1015.06	227.35
1015.35	227.33
1015.64	227.36
1015.92	227.37
1016.21	227.38
1016.50	227.41
1016.78	227.43
1017.07	227.45
1017.36	227.43
1017.64	227.43
1017.93	227.44
1018.22	227.45
1018.50	227.45
1018.79	227.44
1019.08	227.42
1019.36	227.43
1019.65	227.39
1019.93	227.42
1020.22	227.44
1020.51	227.48
1020.79	227.46
1021.08	227.69
1021.36	227.24
1021.65	227.52
1021.94	227.62
1022.22	227.59
1022.51	227.10
1022.79	228.08
1023.08	227.38
1023.36	228.77
1023.65	226.84
>>>>>End Processed Spectral Data<<<<<
