SpectraSuite Data File
++++++++++++++++++++++++++++++++++++
Date: Fri Feb 01 15:25:51 EST 2013
User: group
Dark Spectrum Present: No
Reference Spectrum Present: No
Number of Sampled Component Spectra: 1
Spectrometers: USB2E7196
Integration Time (usec): 35000 (USB2E7196)
Spectra Averaged: 100 (USB2E7196)
Boxcar Smoothing: 10 (USB2E7196)
Correct for Electrical Dark: No (USB2E7196)
Strobe/Lamp Enabled: No (USB2E7196)
Correct for Detector Non-linearity: No (USB2E7196)
Correct for Stray Light: No (USB2E7196)
Number of Pixels in Processed Spectrum: 2048
>>>>>Begin Processed Spectral Data<<<<<
339.09	0.00
339.48	214.90
339.86	216.21
340.24	218.19
340.63	218.94
341.01	221.91
341.39	222.07
341.78	223.17
342.16	224.23
342.54	225.18
342.93	213.27
343.31	224.05
343.69	224.61
344.07	225.09
344.46	225.51
344.84	225.91
345.22	226.13
345.60	226.39
345.99	226.58
346.37	226.73
346.75	226.81
347.13	226.95
347.52	226.99
347.90	227.05
348.28	227.06
348.66	227.11
349.05	227.14
349.43	227.17
349.81	227.23
350.19	227.29
350.57	227.37
350.96	227.43
351.34	227.52
351.72	227.62
352.10	227.72
352.48	227.78
352.87	227.83
353.25	227.93
353.63	228.00
354.01	228.07
354.39	228.17
354.77	228.28
355.15	228.37
355.54	228.43
355.92	228.49
356.30	228.58
356.68	228.72
357.06	228.76
357.44	228.86
357.82	228.95
358.20	229.02
358.58	229.05
358.97	229.10
359.35	229.19
359.73	229.24
360.11	229.28
360.49	229.34
360.87	229.37
361.25	229.44
361.63	229.52
362.01	229.57
362.39	229.56
362.77	229.57
363.15	229.58
363.53	229.60
363.91	229.62
364.29	229.63
364.67	229.55
365.05	229.58
365.43	229.55
365.81	229.55
366.19	229.58
366.57	229.62
366.95	229.60
367.33	229.57
367.71	229.56
368.09	229.57
368.47	229.56
368.85	229.54
369.23	229.49
369.61	229.40
369.99	229.38
370.37	229.34
370.75	229.33
371.13	229.31
371.51	229.24
371.89	229.18
372.27	229.13
372.65	229.06
373.03	229.01
373.41	228.95
373.78	228.89
374.16	228.75
374.54	228.65
374.92	228.59
375.30	228.54
375.68	228.42
376.06	228.33
376.44	228.25
376.82	228.19
377.19	228.11
377.57	228.05
377.95	227.91
378.33	227.88
378.71	227.80
379.09	227.71
379.47	227.66
379.84	227.63
380.22	227.55
380.60	227.47
380.98	227.39
381.36	227.34
381.73	227.22
382.11	227.23
382.49	227.16
382.87	227.07
383.25	227.01
383.62	227.07
384.00	227.01
384.38	226.93
384.76	226.91
385.13	226.91
385.51	226.85
385.89	226.82
386.27	226.76
386.64	226.70
387.02	226.65
387.40	226.59
387.78	226.52
388.15	226.47
388.53	226.45
388.91	226.45
389.29	226.43
389.66	226.46
390.04	226.40
390.42	226.39
390.79	226.40
391.17	226.34
391.55	226.25
391.92	226.24
392.30	226.25
392.68	226.23
393.05	226.23
393.43	226.22
393.81	226.22
394.18	226.22
394.56	226.25
394.94	226.31
395.31	226.36
395.69	226.42
396.06	226.47
396.44	226.52
396.82	226.57
397.19	226.65
397.57	226.70
397.95	226.75
398.32	226.81
398.70	226.88
399.07	227.00
399.45	227.06
399.82	227.13
400.20	227.23
400.58	227.30
400.95	227.35
401.33	227.49
401.70	227.66
402.08	227.76
402.45	227.85
402.83	227.95
403.20	228.05
403.58	228.18
403.95	228.32
404.33	228.42
404.71	228.55
405.08	228.73
405.46	228.88
405.83	229.04
406.21	229.17
406.58	229.34
406.96	229.47
407.33	229.66
407.70	229.86
408.08	230.13
408.45	230.36
408.83	230.61
409.20	230.84
409.58	231.02
409.95	231.27
410.33	231.54
410.70	231.80
411.08	232.13
411.45	232.44
411.82	232.75
412.20	233.12
412.57	233.55
412.95	233.89
413.32	234.29
413.69	234.72
414.07	235.18
414.44	235.67
414.82	236.18
415.19	236.73
415.56	237.27
415.94	237.84
416.31	238.47
416.68	239.08
417.06	239.78
417.43	240.46
417.81	241.23
418.18	242.04
418.55	242.85
418.93	243.71
419.30	244.58
419.67	245.54
420.04	246.51
420.42	247.46
420.79	248.59
421.16	249.74
421.54	250.91
421.91	252.12
422.28	253.39
422.66	254.70
423.03	256.02
423.40	257.37
423.77	258.75
424.15	260.17
424.52	261.63
424.89	263.22
425.26	264.75
425.64	266.16
426.01	267.70
426.38	269.37
426.75	271.03
427.13	272.76
427.50	274.55
427.87	276.44
428.24	278.30
428.61	280.07
428.99	282.00
429.36	284.12
429.73	286.16
430.10	288.14
430.47	290.23
430.85	292.31
431.22	294.57
431.59	296.94
431.96	299.23
432.33	301.79
432.70	304.19
433.08	307.05
433.45	309.75
433.82	312.38
434.19	315.25
434.56	318.08
434.93	320.72
435.30	323.37
435.68	326.24
436.05	329.03
436.42	331.77
436.79	334.26
437.16	336.94
437.53	339.81
437.90	342.62
438.27	345.34
438.64	348.19
439.01	350.76
439.38	353.01
439.75	355.12
440.13	357.58
440.50	359.96
440.87	361.78
441.24	363.69
441.61	365.86
441.98	367.42
442.35	369.21
442.72	371.10
443.09	372.86
443.46	373.88
443.83	374.52
444.20	375.13
444.57	375.99
444.94	376.30
445.31	376.59
445.68	376.98
446.05	377.06
446.42	376.70
446.79	376.30
447.16	375.87
447.53	375.60
447.90	374.43
448.27	373.19
448.64	371.62
449.01	370.50
449.37	368.53
449.74	366.60
450.11	364.37
450.48	361.86
450.85	359.36
451.22	357.20
451.59	355.14
451.96	353.16
452.33	350.58
452.70	348.20
453.07	345.40
453.43	342.48
453.80	339.74
454.17	337.03
454.54	334.44
454.91	331.70
455.28	328.99
455.65	326.51
456.02	324.13
456.38	321.98
456.75	319.30
457.12	317.06
457.49	314.80
457.86	312.62
458.23	310.76
458.59	308.73
458.96	306.61
459.33	304.81
459.70	302.92
460.07	301.38
460.43	299.67
460.80	298.05
461.17	296.60
461.54	295.08
461.91	293.64
462.27	292.22
462.64	290.94
463.01	289.61
463.38	288.30
463.74	286.87
464.11	285.70
464.48	284.70
464.85	283.58
465.21	282.73
465.58	281.77
465.95	280.68
466.32	279.80
466.68	278.91
467.05	277.97
467.42	277.06
467.78	276.14
468.15	275.26
468.52	274.60
468.88	273.75
469.25	272.97
469.62	272.38
469.98	271.69
470.35	271.08
470.72	270.48
471.08	269.83
471.45	269.32
471.82	268.76
472.18	268.13
472.55	267.69
472.92	267.18
473.28	266.72
473.65	266.26
474.02	265.78
474.38	265.41
474.75	265.08
475.11	264.76
475.48	264.50
475.85	264.28
476.21	264.04
476.58	263.83
476.94	263.68
477.31	263.48
477.67	263.34
478.04	263.18
478.41	263.12
478.77	263.16
479.14	263.05
479.50	263.06
479.87	263.12
480.23	263.16
480.60	263.24
480.96	263.34
481.33	263.57
481.69	263.75
482.06	263.95
482.42	264.15
482.79	264.42
483.15	264.71
483.52	265.09
483.88	265.46
484.25	265.84
484.61	266.24
484.98	266.66
485.34	267.24
485.71	267.84
486.07	268.43
486.44	268.99
486.80	269.70
487.17	270.44
487.53	271.26
487.90	272.15
488.26	273.04
488.62	274.04
488.99	275.03
489.35	276.04
489.72	277.16
490.08	278.36
490.44	279.59
490.81	280.90
491.17	282.27
491.54	283.73
491.90	285.27
492.26	286.91
492.63	288.69
492.99	290.44
493.36	292.35
493.72	294.41
494.08	296.53
494.45	298.80
494.81	301.19
495.17	303.60
495.54	306.18
495.90	308.87
496.26	311.66
496.63	314.58
496.99	317.75
497.35	321.01
497.72	324.46
498.08	327.94
498.44	331.62
498.80	335.51
499.17	339.56
499.53	343.70
499.89	348.11
500.26	352.53
500.62	357.21
500.98	362.18
501.34	367.23
501.71	372.56
502.07	377.97
502.43	383.51
502.79	389.36
503.16	395.38
503.52	401.66
503.88	408.04
504.24	414.68
504.60	421.56
504.97	428.69
505.33	435.96
505.69	443.69
506.05	451.46
506.41	459.34
506.78	467.52
507.14	475.99
507.50	484.72
507.86	493.75
508.22	502.95
508.59	512.15
508.95	521.74
509.31	531.51
509.67	541.64
510.03	551.97
510.39	562.47
510.75	573.27
511.12	584.21
511.48	595.51
511.84	606.99
512.20	618.55
512.56	630.50
512.92	642.69
513.28	654.91
513.64	667.49
514.00	680.20
514.37	693.04
514.73	706.09
515.09	719.15
515.45	732.50
515.81	746.02
516.17	760.09
516.53	774.20
516.89	788.38
517.25	802.54
517.61	816.99
517.97	831.57
518.33	846.07
518.69	860.84
519.05	875.92
519.41	891.11
519.77	906.60
520.13	922.08
520.49	937.55
520.85	953.10
521.21	968.78
521.57	985.04
521.93	1000.90
522.29	1017.32
522.65	1033.61
523.01	1049.90
523.37	1066.08
523.73	1082.19
524.09	1098.30
524.45	1114.73
524.81	1131.50
525.17	1148.37
525.53	1165.21
525.89	1182.08
526.25	1198.95
526.61	1215.31
526.97	1232.12
527.33	1248.66
527.68	1265.39
528.04	1281.85
528.40	1298.58
528.76	1315.68
529.12	1332.40
529.48	1349.35
529.84	1365.44
530.20	1382.06
530.56	1399.17
530.91	1416.49
531.27	1433.33
531.63	1449.95
531.99	1466.58
532.35	1482.48
532.71	1498.38
533.07	1514.79
533.42	1530.76
533.78	1546.77
534.14	1563.15
534.50	1578.50
534.86	1594.32
535.21	1609.46
535.57	1625.39
535.93	1640.79
536.29	1655.63
536.65	1670.78
537.00	1685.75
537.36	1701.18
537.72	1715.84
538.08	1730.28
538.44	1744.18
538.79	1758.13
539.15	1771.93
539.51	1785.82
539.87	1800.36
540.22	1814.34
540.58	1828.18
540.94	1841.71
541.29	1854.86
541.65	1867.76
542.01	1881.11
542.37	1893.56
542.72	1906.00
543.08	1917.96
543.44	1930.48
543.79	1941.76
544.15	1952.71
544.51	1964.26
544.87	1975.30
545.22	1986.17
545.58	1996.43
545.94	2006.27
546.29	2016.17
546.65	2025.92
547.01	2035.06
547.36	2043.83
547.72	2052.21
548.07	2060.00
548.43	2068.16
548.79	2076.20
549.14	2083.58
549.50	2090.97
549.86	2098.71
550.21	2106.13
550.57	2113.41
550.92	2120.02
551.28	2127.17
551.64	2134.35
551.99	2140.76
552.35	2146.86
552.70	2152.85
553.06	2158.70
553.41	2165.06
553.77	2171.11
554.13	2177.26
554.48	2183.34
554.84	2188.84
555.19	2194.11
555.55	2199.25
555.90	2203.57
556.26	2208.33
556.61	2213.03
556.97	2217.13
557.32	2221.30
557.68	2225.31
558.03	2229.51
558.39	2233.30
558.74	2237.92
559.10	2241.66
559.45	2245.34
559.81	2249.68
560.16	2253.58
560.52	2256.85
560.87	2260.22
561.23	2262.90
561.58	2265.90
561.94	2268.51
562.29	2270.80
562.64	2273.57
563.00	2276.30
563.35	2280.01
563.71	2283.20
564.06	2286.43
564.42	2289.47
564.77	2292.03
565.12	2294.38
565.48	2296.14
565.83	2297.87
566.19	2299.07
566.54	2300.03
566.89	2301.13
567.25	2301.64
567.60	2303.04
567.96	2304.78
568.31	2305.62
568.66	2306.54
569.02	2307.02
569.37	2307.26
569.72	2307.93
570.08	2307.89
570.43	2307.66
570.78	2306.86
571.14	2305.22
571.49	2303.82
571.84	2303.34
572.20	2302.02
572.55	2300.87
572.90	2299.33
573.26	2298.02
573.61	2296.27
573.96	2294.38
574.31	2291.38
574.67	2288.33
575.02	2284.57
575.37	2281.16
575.72	2277.29
576.08	2274.06
576.43	2270.64
576.78	2266.91
577.13	2263.86
577.49	2260.64
577.84	2257.18
578.19	2253.48
578.54	2249.73
578.90	2245.38
579.25	2239.78
579.60	2234.84
579.95	2229.64
580.30	2224.57
580.66	2219.24
581.01	2214.39
581.36	2209.38
581.71	2205.14
582.06	2200.51
582.42	2196.03
582.77	2190.60
583.12	2186.06
583.47	2181.14
583.82	2176.01
584.17	2170.61
584.53	2165.02
584.88	2159.43
585.23	2153.50
585.58	2148.03
585.93	2142.64
586.28	2137.92
586.63	2132.74
586.98	2127.43
587.34	2122.84
587.69	2117.82
588.04	2112.55
588.39	2106.65
588.74	2100.07
589.09	2093.95
589.44	2087.13
589.79	2080.98
590.14	2075.43
590.49	2068.66
590.84	2062.25
591.19	2056.21
591.54	2049.78
591.89	2042.20
592.25	2035.34
592.60	2028.22
592.95	2020.44
593.30	2012.97
593.65	2005.26
594.00	1998.15
594.35	1990.95
594.70	1982.74
595.05	1975.46
595.40	1968.05
595.75	1960.55
596.10	1954.33
596.45	1947.35
596.80	1941.18
597.15	1934.32
597.50	1927.02
597.85	1920.68
598.19	1913.92
598.54	1906.76
598.89	1900.16
599.24	1894.24
599.59	1887.53
599.94	1881.24
600.29	1874.96
600.64	1868.37
600.99	1860.79
601.34	1854.01
601.69	1846.99
602.04	1839.95
602.39	1832.63
602.74	1825.64
603.08	1818.79
603.43	1812.04
603.78	1804.68
604.13	1797.37
604.48	1790.09
604.83	1783.29
605.18	1776.12
605.53	1768.03
605.87	1759.88
606.22	1752.49
606.57	1744.46
606.92	1737.00
607.27	1729.66
607.62	1722.59
607.96	1715.26
608.31	1708.67
608.66	1700.93
609.01	1693.43
609.36	1685.92
609.70	1677.82
610.05	1669.76
610.40	1661.98
610.75	1653.67
611.10	1646.09
611.44	1637.71
611.79	1629.73
612.14	1620.95
612.49	1611.86
612.83	1603.51
613.18	1595.48
613.53	1587.56
613.88	1579.11
614.22	1570.85
614.57	1562.37
614.92	1554.28
615.27	1546.70
615.61	1538.28
615.96	1530.32
616.31	1522.65
616.65	1515.34
617.00	1507.88
617.35	1500.30
617.70	1491.88
618.04	1483.31
618.39	1474.99
618.74	1467.22
619.08	1458.91
619.43	1451.41
619.78	1444.52
620.12	1437.45
620.47	1429.85
620.82	1421.45
621.16	1414.06
621.51	1406.46
621.85	1398.78
622.20	1390.22
622.55	1381.76
622.89	1373.93
623.24	1366.34
623.59	1358.92
623.93	1351.42
624.28	1344.09
624.62	1336.67
624.97	1329.71
625.32	1323.01
625.66	1316.07
626.01	1308.96
626.35	1301.50
626.70	1293.74
627.04	1285.90
627.39	1278.10
627.73	1270.76
628.08	1263.86
628.43	1256.37
628.77	1248.91
629.12	1241.36
629.46	1234.19
629.81	1226.84
630.15	1219.57
630.50	1212.14
630.84	1203.95
631.19	1196.08
631.53	1188.61
631.88	1180.94
632.22	1173.34
632.57	1165.94
632.91	1158.37
633.26	1150.90
633.60	1143.60
633.95	1136.58
634.29	1129.63
634.64	1122.96
634.98	1115.60
635.32	1108.44
635.67	1101.97
636.01	1095.42
636.36	1088.67
636.70	1082.28
637.05	1075.77
637.39	1069.47
637.73	1063.02
638.08	1057.13
638.42	1051.14
638.77	1044.71
639.11	1038.09
639.45	1031.66
639.80	1025.03
640.14	1018.65
640.49	1012.22
640.83	1005.94
641.17	999.57
641.52	993.18
641.86	986.77
642.20	980.96
642.55	974.76
642.89	968.26
643.23	961.67
643.58	955.83
643.92	949.64
644.26	943.55
644.61	937.52
644.95	931.42
645.29	924.78
645.64	918.01
645.98	911.64
646.32	905.78
646.66	899.81
647.01	894.10
647.35	888.40
647.69	882.62
648.04	877.10
648.38	871.44
648.72	865.41
649.06	859.32
649.41	853.46
649.75	847.43
650.09	841.61
650.43	835.89
650.78	829.74
651.12	823.66
651.46	817.90
651.80	812.13
652.14	806.68
652.49	801.37
652.83	796.25
653.17	790.60
653.51	784.95
653.85	779.54
654.20	773.77
654.54	767.76
654.88	762.06
655.22	756.17
655.56	750.46
655.90	745.05
656.25	739.80
656.59	734.42
656.93	729.35
657.27	724.10
657.61	718.61
657.95	713.50
658.29	708.47
658.64	703.25
658.98	697.97
659.32	692.57
659.66	687.30
660.00	681.92
660.34	677.01
660.68	672.11
661.02	666.97
661.36	662.33
661.70	657.87
662.05	653.49
662.39	649.20
662.73	644.72
663.07	640.29
663.41	635.80
663.75	631.29
664.09	626.68
664.43	622.29
664.77	618.21
665.11	614.01
665.45	609.92
665.79	605.81
666.13	601.67
666.47	597.64
666.81	593.53
667.15	589.41
667.49	585.45
667.83	581.59
668.17	577.72
668.51	573.61
668.85	569.59
669.19	565.65
669.53	561.77
669.87	557.88
670.21	554.24
670.55	550.66
670.89	547.26
671.23	543.86
671.57	540.37
671.91	536.89
672.25	533.39
672.58	529.86
672.92	526.50
673.26	523.36
673.60	520.14
673.94	517.05
674.28	514.19
674.62	511.32
674.96	508.22
675.30	505.29
675.64	502.48
675.97	499.73
676.31	496.93
676.65	494.01
676.99	491.32
677.33	488.48
677.67	485.65
678.01	482.61
678.34	479.67
678.68	476.80
679.02	474.00
679.36	471.23
679.70	468.57
680.04	465.81
680.37	462.92
680.71	460.18
681.05	457.63
681.39	454.95
681.73	452.29
682.06	449.77
682.40	447.24
682.74	444.69
683.08	442.12
683.42	439.54
683.75	437.07
684.09	434.54
684.43	432.08
684.77	429.64
685.10	427.31
685.44	425.05
685.78	422.79
686.12	420.53
686.45	418.33
686.79	416.02
687.13	413.84
687.46	411.67
687.80	409.50
688.14	407.26
688.48	405.16
688.81	402.86
689.15	400.74
689.49	398.59
689.82	396.48
690.16	394.40
690.50	392.46
690.83	390.51
691.17	388.54
691.51	386.63
691.84	384.79
692.18	382.87
692.52	380.86
692.85	378.90
693.19	377.00
693.52	375.12
693.86	373.30
694.20	371.50
694.53	369.72
694.87	367.90
695.21	366.10
695.54	364.25
695.88	362.58
696.21	360.89
696.55	359.24
696.88	357.57
697.22	355.92
697.56	354.31
697.89	352.65
698.23	351.04
698.56	349.44
698.90	347.82
699.23	346.18
699.57	344.64
699.90	343.16
700.24	341.64
700.58	340.09
700.91	338.63
701.25	337.18
701.58	335.78
701.92	334.41
702.25	333.02
702.59	331.65
702.92	330.32
703.26	329.02
703.59	327.71
703.93	326.55
704.26	325.35
704.60	324.04
704.93	322.75
705.26	321.48
705.60	320.30
705.93	319.15
706.27	318.12
706.60	317.06
706.94	315.95
707.27	314.81
707.61	313.80
707.94	312.78
708.27	311.71
708.61	310.67
708.94	309.68
709.28	308.72
709.61	307.80
709.94	306.86
710.28	305.83
710.61	304.84
710.95	303.74
711.28	302.77
711.61	301.84
711.95	300.92
712.28	300.02
712.61	299.09
712.95	298.16
713.28	297.26
713.61	296.35
713.95	295.46
714.28	294.64
714.61	293.72
714.95	292.87
715.28	292.02
715.61	291.16
715.95	290.30
716.28	289.46
716.61	288.66
716.95	287.82
717.28	287.08
717.61	286.31
717.94	285.59
718.28	284.82
718.61	284.10
718.94	283.44
719.27	282.80
719.61	282.11
719.94	281.48
720.27	280.77
720.60	280.12
720.94	279.50
721.27	278.91
721.60	278.35
721.93	277.76
722.27	277.22
722.60	276.63
722.93	276.04
723.26	275.51
723.59	274.93
723.93	274.41
724.26	273.88
724.59	273.31
724.92	272.79
725.25	272.29
725.59	271.77
725.92	271.25
726.25	270.72
726.58	270.24
726.91	269.75
727.24	269.32
727.57	268.86
727.91	268.37
728.24	267.89
728.57	267.43
728.90	266.99
729.23	266.51
729.56	266.10
729.89	265.62
730.22	265.13
730.55	264.69
730.89	264.24
731.22	263.79
731.55	263.40
731.88	263.01
732.21	262.59
732.54	262.15
732.87	261.75
733.20	261.39
733.53	260.98
733.86	260.59
734.19	260.17
734.52	259.80
734.85	259.45
735.18	259.06
735.51	258.67
735.84	258.27
736.17	257.92
736.50	257.52
736.83	257.30
737.16	256.98
737.49	256.64
737.82	256.30
738.15	255.97
738.48	255.60
738.81	255.21
739.14	254.86
739.47	254.55
739.80	254.24
740.13	253.90
740.46	253.58
740.79	253.26
741.12	252.95
741.45	252.61
741.78	252.28
742.11	251.98
742.44	251.64
742.77	251.38
743.10	251.04
743.43	250.74
743.75	250.38
744.08	250.22
744.41	249.99
744.74	249.70
745.07	249.40
745.40	249.17
745.73	248.97
746.06	248.70
746.39	248.44
746.71	248.14
747.04	247.88
747.37	247.65
747.70	247.40
748.03	247.16
748.36	246.92
748.68	246.70
749.01	246.46
749.34	246.21
749.67	245.97
750.00	245.76
750.33	245.63
750.65	245.42
750.98	245.10
751.31	244.83
751.64	244.61
751.97	244.45
752.29	244.21
752.62	243.98
752.95	243.79
753.28	243.56
753.60	243.35
753.93	243.18
754.26	242.96
754.59	242.72
754.91	242.54
755.24	242.36
755.57	242.13
755.90	241.94
756.22	241.77
756.55	241.61
756.88	241.42
757.20	241.14
757.53	240.91
757.86	240.69
758.19	240.50
758.51	240.33
758.84	240.12
759.17	239.97
759.49	239.78
759.82	239.65
760.15	239.55
760.47	239.38
760.80	239.18
761.13	239.05
761.45	238.90
761.78	238.73
762.11	238.58
762.43	238.47
762.76	238.33
763.08	238.21
763.41	238.08
763.74	237.96
764.06	237.84
764.39	237.72
764.71	237.63
765.04	237.51
765.37	237.41
765.69	237.25
766.02	237.11
766.34	236.98
766.67	236.85
767.00	236.70
767.32	236.67
767.65	236.62
767.97	236.49
768.30	236.39
768.62	236.30
768.95	236.19
769.27	236.07
769.60	235.96
769.92	235.82
770.25	235.66
770.57	235.55
770.90	235.45
771.22	235.37
771.55	235.25
771.87	235.13
772.20	235.00
772.52	235.00
772.85	235.01
773.17	234.93
773.50	234.82
773.82	234.74
774.15	234.57
774.47	234.45
774.80	234.35
775.12	234.26
775.45	234.15
775.77	234.09
776.09	234.00
776.42	233.92
776.74	233.86
777.07	233.80
777.39	233.70
777.72	233.64
778.04	233.57
778.36	233.50
778.69	233.45
779.01	233.40
779.33	233.24
779.66	233.08
779.98	233.00
780.31	232.93
780.63	232.90
780.95	232.88
781.28	232.79
781.60	232.73
781.92	232.66
782.25	232.62
782.57	232.54
782.89	232.48
783.22	232.41
783.54	232.34
783.86	232.29
784.19	232.26
784.51	232.20
784.83	232.13
785.16	232.05
785.48	231.99
785.80	231.95
786.12	231.94
786.45	231.90
786.77	231.87
787.09	231.82
787.42	231.74
787.74	231.70
788.06	231.68
788.38	231.65
788.71	231.59
789.03	231.57
789.35	231.53
789.67	231.49
789.99	231.47
790.32	231.43
790.64	231.41
790.96	231.40
791.28	231.32
791.61	231.26
791.93	231.27
792.25	231.24
792.57	231.26
792.89	231.16
793.21	231.11
793.54	231.05
793.86	230.99
794.18	230.94
794.50	230.85
794.82	230.80
795.14	230.76
795.47	230.74
795.79	230.68
796.11	230.63
796.43	230.58
796.75	230.56
797.07	230.53
797.39	230.47
797.71	230.38
798.04	230.39
798.36	230.38
798.68	230.32
799.00	230.27
799.32	230.19
799.64	230.22
799.96	230.21
800.28	230.20
800.60	230.19
800.92	230.16
801.24	230.13
801.56	230.13
801.89	230.08
802.21	230.04
802.53	229.97
802.85	229.97
803.17	230.00
803.49	229.92
803.81	229.91
804.13	229.89
804.45	229.81
804.77	229.76
805.09	229.72
805.41	229.70
805.73	229.67
806.05	229.62
806.37	229.56
806.69	229.51
807.01	229.47
807.33	229.48
807.65	229.44
807.97	229.46
808.28	229.41
808.60	229.41
808.92	229.39
809.24	229.45
809.56	229.43
809.88	229.36
810.20	229.37
810.52	229.35
810.84	229.33
811.16	229.35
811.48	229.37
811.80	229.40
812.12	229.37
812.43	229.39
812.75	229.37
813.07	229.35
813.39	229.32
813.71	229.30
814.03	229.25
814.35	229.25
814.67	229.22
814.98	229.20
815.30	229.18
815.62	229.16
815.94	229.06
816.26	229.08
816.58	229.03
816.89	229.04
817.21	229.00
817.53	229.00
817.85	228.97
818.17	228.93
818.48	228.87
818.80	228.88
819.12	228.87
819.44	228.84
819.76	228.87
820.07	228.85
820.39	228.86
820.71	228.85
821.03	228.84
821.34	228.82
821.66	228.81
821.98	228.78
822.30	228.75
822.61	228.84
822.93	228.76
823.25	228.75
823.57	228.72
823.88	228.73
824.20	228.67
824.52	228.65
824.83	228.62
825.15	228.62
825.47	228.60
825.79	228.56
826.10	228.57
826.42	228.52
826.74	228.51
827.05	228.45
827.37	228.45
827.69	228.43
828.00	228.42
828.32	228.41
828.64	228.42
828.95	228.45
829.27	228.36
829.58	228.41
829.90	228.43
830.22	228.40
830.53	228.39
830.85	228.37
831.17	228.35
831.48	228.32
831.80	228.34
832.11	228.30
832.43	228.29
832.75	228.24
833.06	228.31
833.38	228.29
833.69	228.27
834.01	228.23
834.32	228.22
834.64	228.18
834.96	228.16
835.27	228.13
835.59	228.09
835.90	228.09
836.22	228.00
836.53	227.94
836.85	227.92
837.16	227.99
837.48	227.96
837.79	228.01
838.11	228.01
838.42	227.98
838.74	228.01
839.05	227.97
839.37	227.96
839.68	227.84
840.00	227.83
840.31	227.87
840.63	227.84
840.94	227.87
841.26	227.87
841.57	227.86
841.88	227.85
842.20	227.84
842.51	227.83
842.83	227.84
843.14	227.93
843.46	227.95
843.77	227.89
844.08	227.91
844.40	227.85
844.71	227.88
845.03	227.85
845.34	227.79
845.65	227.80
845.97	227.82
846.28	227.85
846.60	227.88
846.91	227.84
847.22	227.87
847.54	227.89
847.85	227.90
848.16	227.94
848.48	227.90
848.79	227.91
849.10	227.91
849.42	227.98
849.73	227.87
850.04	227.86
850.36	227.83
850.67	227.84
850.98	227.84
851.30	227.84
851.61	227.84
851.92	227.87
852.23	227.93
852.55	227.92
852.86	227.94
853.17	227.94
853.49	227.97
853.80	227.97
854.11	227.95
854.42	227.96
854.74	227.95
855.05	227.97
855.36	227.96
855.67	227.97
855.99	227.92
856.30	228.04
856.61	228.04
856.92	228.06
857.23	228.05
857.55	228.05
857.86	228.04
858.17	228.08
858.48	228.01
858.79	227.97
859.11	227.96
859.42	227.93
859.73	227.92
860.04	227.88
860.35	227.83
860.66	227.78
860.98	227.77
861.29	227.74
861.60	227.72
861.91	227.75
862.22	227.73
862.53	227.72
862.84	227.59
863.16	227.61
863.47	227.56
863.78	227.56
864.09	227.57
864.40	227.57
864.71	227.55
865.02	227.55
865.33	227.53
865.64	227.54
865.95	227.51
866.27	227.56
866.58	227.57
866.89	227.60
867.20	227.61
867.51	227.56
867.82	227.55
868.13	227.57
868.44	227.52
868.75	227.52
869.06	227.50
869.37	227.48
869.68	227.47
869.99	227.48
870.30	227.42
870.61	227.42
870.92	227.37
871.23	227.38
871.54	227.42
871.85	227.43
872.16	227.40
872.47	227.40
872.78	227.34
873.09	227.34
873.40	227.32
873.71	227.32
874.02	227.34
874.33	227.35
874.64	227.35
874.95	227.36
875.26	227.36
875.56	227.39
875.87	227.44
876.18	227.41
876.49	227.51
876.80	227.54
877.11	227.51
877.42	227.53
877.73	227.50
878.04	227.49
878.35	227.49
878.66	227.50
878.96	227.55
879.27	227.56
879.58	227.58
879.89	227.56
880.20	227.59
880.51	227.59
880.82	227.58
881.12	227.57
881.43	227.56
881.74	227.54
882.05	227.51
882.36	227.52
882.67	227.52
882.97	227.44
883.28	227.42
883.59	227.41
883.90	227.43
884.21	227.45
884.51	227.46
884.82	227.47
885.13	227.49
885.44	227.47
885.74	227.47
886.05	227.46
886.36	227.50
886.67	227.46
886.98	227.51
887.28	227.54
887.59	227.51
887.90	227.53
888.20	227.53
888.51	227.57
888.82	227.54
889.13	227.58
889.43	227.65
889.74	227.64
890.05	227.64
890.35	227.66
890.66	227.66
890.97	227.63
891.28	227.63
891.58	227.61
891.89	227.62
892.20	227.60
892.50	227.60
892.81	227.58
893.12	227.59
893.42	227.53
893.73	227.54
894.04	227.55
894.34	227.54
894.65	227.55
894.95	227.51
895.26	227.51
895.57	227.54
895.87	227.45
896.18	227.49
896.48	227.53
896.79	227.49
897.10	227.51
897.40	227.54
897.71	227.56
898.01	227.56
898.32	227.55
898.63	227.55
898.93	227.53
899.24	227.52
899.54	227.52
899.85	227.51
900.15	227.49
900.46	227.49
900.76	227.49
901.07	227.47
901.38	227.48
901.68	227.50
901.99	227.46
902.29	227.45
902.60	227.46
902.90	227.43
903.21	227.45
903.51	227.42
903.82	227.43
904.12	227.42
904.43	227.41
904.73	227.39
905.03	227.40
905.34	227.47
905.64	227.50
905.95	227.48
906.25	227.48
906.56	227.50
906.86	227.48
907.17	227.47
907.47	227.48
907.77	227.48
908.08	227.43
908.38	227.43
908.69	227.45
908.99	227.44
909.30	227.45
909.60	227.44
909.90	227.45
910.21	227.38
910.51	227.39
910.81	227.39
911.12	227.41
911.42	227.39
911.73	227.28
912.03	227.24
912.33	227.24
912.64	227.25
912.94	227.21
913.24	227.18
913.55	227.19
913.85	227.20
914.15	227.20
914.46	227.21
914.76	227.19
915.06	227.18
915.37	227.17
915.67	227.13
915.97	227.13
916.27	227.10
916.58	227.15
916.88	227.11
917.18	227.12
917.49	227.18
917.79	227.16
918.09	227.25
918.39	227.27
918.70	227.30
919.00	227.29
919.30	227.35
919.60	227.36
919.91	227.33
920.21	227.32
920.51	227.29
920.81	227.29
921.12	227.32
921.42	227.29
921.72	227.27
922.02	227.29
922.32	227.29
922.63	227.30
922.93	227.32
923.23	227.34
923.53	227.35
923.83	227.29
924.13	227.33
924.44	227.28
924.74	227.32
925.04	227.35
925.34	227.36
925.64	227.31
925.94	227.32
926.24	227.41
926.55	227.41
926.85	227.43
927.15	227.44
927.45	227.46
927.75	227.46
928.05	227.50
928.35	227.50
928.65	227.53
928.95	227.50
929.26	227.46
929.56	227.47
929.86	227.45
930.16	227.43
930.46	227.41
930.76	227.43
931.06	227.37
931.36	227.30
931.66	227.30
931.96	227.31
932.26	227.32
932.56	227.22
932.86	227.20
933.16	227.17
933.46	227.15
933.76	227.14
934.06	227.17
934.36	227.21
934.66	227.18
934.96	227.17
935.26	227.20
935.56	227.23
935.86	227.18
936.16	227.17
936.46	227.17
936.76	227.16
937.06	227.12
937.36	227.14
937.66	227.15
937.96	227.14
938.26	227.14
938.56	227.13
938.86	227.17
939.16	227.22
939.46	227.21
939.76	227.21
940.06	227.17
940.35	227.14
940.65	227.08
940.95	227.08
941.25	227.03
941.55	226.99
941.85	226.98
942.15	227.00
942.45	227.01
942.75	227.00
943.04	227.01
943.34	227.03
943.64	226.99
943.94	227.01
944.24	227.00
944.54	226.95
944.84	226.93
945.13	226.90
945.43	226.86
945.73	226.86
946.03	226.85
946.33	226.84
946.62	226.86
946.92	226.81
947.22	226.85
947.52	226.88
947.82	226.91
948.11	226.87
948.41	226.85
948.71	226.83
949.01	226.84
949.31	226.81
949.60	226.79
949.90	226.82
950.20	226.81
950.50	226.80
950.79	226.81
951.09	226.83
951.39	226.82
951.69	226.82
951.98	226.84
952.28	226.86
952.58	226.86
952.87	226.80
953.17	226.83
953.47	226.80
953.76	226.78
954.06	226.76
954.36	226.75
954.66	226.74
954.95	226.76
955.25	226.73
955.55	226.75
955.84	226.74
956.14	226.71
956.44	226.70
956.73	226.66
957.03	226.69
957.32	226.68
957.62	226.67
957.92	226.71
958.21	226.73
958.51	226.83
958.81	226.85
959.10	226.91
959.40	226.95
959.69	226.98
959.99	227.01
960.29	227.02
960.58	227.04
960.88	227.11
961.17	227.12
961.47	227.15
961.76	227.14
962.06	227.18
962.36	227.21
962.65	227.22
962.95	227.26
963.24	227.26
963.54	227.27
963.83	227.31
964.13	227.32
964.42	227.28
964.72	227.22
965.01	227.23
965.31	227.22
965.60	227.17
965.90	227.22
966.19	227.20
966.49	227.23
966.78	227.22
967.08	227.22
967.37	227.20
967.67	227.21
967.96	227.25
968.26	227.25
968.55	227.24
968.85	227.24
969.14	227.25
969.43	227.21
969.73	227.20
970.02	227.16
970.32	227.15
970.61	227.13
970.91	227.12
971.20	227.09
971.49	227.08
971.79	227.12
972.08	227.05
972.38	227.03
972.67	227.00
972.96	227.02
973.26	226.99
973.55	227.03
973.85	227.00
974.14	226.97
974.43	226.92
974.73	226.93
975.02	226.91
975.31	226.93
975.61	226.98
975.90	226.97
976.19	226.98
976.49	226.97
976.78	226.98
977.07	226.96
977.37	226.99
977.66	227.00
977.95	227.00
978.24	227.00
978.54	227.02
978.83	227.01
979.12	226.99
979.42	226.98
979.71	226.95
980.00	226.98
980.29	227.00
980.59	227.01
980.88	226.99
981.17	227.04
981.46	226.97
981.76	226.96
982.05	226.97
982.34	227.00
982.63	226.99
982.93	226.98
983.22	226.99
983.51	226.98
983.80	226.97
984.09	226.95
984.39	226.96
984.68	226.95
984.97	226.95
985.26	226.95
985.55	226.95
985.85	226.94
986.14	226.92
986.43	226.93
986.72	226.94
987.01	226.95
987.30	226.94
987.59	226.95
987.89	226.93
988.18	226.93
988.47	226.91
988.76	226.89
989.05	226.91
989.34	226.88
989.63	226.91
989.92	226.90
990.22	226.91
990.51	226.88
990.80	226.86
991.09	226.84
991.38	226.85
991.67	226.87
991.96	226.81
992.25	226.84
992.54	226.85
992.83	226.87
993.12	226.84
993.41	226.83
993.70	226.89
993.99	226.90
994.28	226.92
994.58	226.92
994.87	226.93
995.16	226.92
995.45	226.95
995.74	226.95
996.03	226.96
996.32	226.94
996.61	226.98
996.90	227.00
997.19	227.00
997.48	227.01
997.77	226.98
998.06	227.01
998.34	226.96
998.63	226.90
998.92	226.90
999.21	226.93
999.50	226.92
999.79	226.88
1000.08	226.92
1000.37	226.91
1000.66	226.93
1000.95	226.96
1001.24	226.97
1001.53	226.95
1001.82	226.91
1002.11	226.90
1002.40	226.89
1002.68	226.89
1002.97	226.94
1003.26	226.96
1003.55	226.93
1003.84	226.95
1004.13	226.99
1004.42	227.02
1004.71	227.03
1004.99	227.02
1005.28	227.04
1005.57	227.05
1005.86	227.06
1006.15	227.01
1006.44	226.98
1006.72	226.99
1007.01	226.98
1007.30	227.01
1007.59	226.96
1007.88	226.98
1008.17	226.98
1008.45	226.99
1008.74	226.98
1009.03	226.95
1009.32	226.95
1009.60	226.96
1009.89	226.94
1010.18	226.89
1010.47	226.87
1010.76	226.87
1011.04	226.85
1011.33	226.85
1011.62	226.85
1011.91	226.87
1012.19	226.90
1012.48	226.92
1012.77	226.86
1013.05	226.87
1013.34	226.82
1013.63	226.85
1013.92	226.86
1014.20	226.84
1014.49	226.85
1014.78	226.84
1015.06	226.84
1015.35	226.84
1015.64	226.86
1015.92	226.88
1016.21	226.89
1016.50	226.87
1016.78	226.89
1017.07	226.93
1017.36	226.93
1017.64	226.91
1017.93	226.91
1018.22	226.88
1018.50	226.88
1018.79	226.92
1019.08	226.91
1019.36	226.94
1019.65	226.94
1019.93	226.94
1020.22	226.95
1020.51	227.00
1020.79	226.97
1021.08	226.53
1021.36	226.94
1021.65	226.79
1021.94	227.23
1022.22	226.98
1022.51	226.93
1022.79	226.88
1023.08	226.78
1023.36	228.19
1023.65	226.32
>>>>>End Processed Spectral Data<<<<<
