SpectraSuite Data File
++++++++++++++++++++++++++++++++++++
Date: Fri Feb 01 15:51:00 EST 2013
User: group
Dark Spectrum Present: No
Reference Spectrum Present: No
Number of Sampled Component Spectra: 1
Spectrometers: USB2E7196
Integration Time (usec): 35000 (USB2E7196)
Spectra Averaged: 100 (USB2E7196)
Boxcar Smoothing: 10 (USB2E7196)
Correct for Electrical Dark: No (USB2E7196)
Strobe/Lamp Enabled: No (USB2E7196)
Correct for Detector Non-linearity: No (USB2E7196)
Correct for Stray Light: No (USB2E7196)
Number of Pixels in Processed Spectrum: 2048
>>>>>Begin Processed Spectral Data<<<<<
339.09	0.00
339.48	214.66
339.86	216.05
340.24	217.41
340.63	219.28
341.01	221.71
341.39	221.49
341.78	222.53
342.16	223.70
342.54	224.90
342.93	213.13
343.31	223.90
343.69	224.46
344.07	224.96
344.46	225.42
344.84	225.80
345.22	226.05
345.60	226.30
345.99	226.52
346.37	226.69
346.75	226.78
347.13	226.82
347.52	226.90
347.90	226.94
348.28	226.96
348.66	227.03
349.05	227.03
349.43	227.09
349.81	227.13
350.19	227.19
350.57	227.23
350.96	227.31
351.34	227.38
351.72	227.44
352.10	227.52
352.48	227.61
352.87	227.67
353.25	227.73
353.63	227.81
354.01	227.88
354.39	227.93
354.77	228.04
355.15	228.18
355.54	228.23
355.92	228.32
356.30	228.40
356.68	228.52
357.06	228.59
357.44	228.63
357.82	228.71
358.20	228.80
358.58	228.87
358.97	228.96
359.35	229.06
359.73	229.15
360.11	229.21
360.49	229.27
360.87	229.30
361.25	229.35
361.63	229.43
362.01	229.49
362.39	229.55
362.77	229.57
363.15	229.60
363.53	229.62
363.91	229.64
364.29	229.63
364.67	229.56
365.05	229.57
365.43	229.58
365.81	229.57
366.19	229.58
366.57	229.59
366.95	229.54
367.33	229.51
367.71	229.50
368.09	229.52
368.47	229.46
368.85	229.45
369.23	229.45
369.61	229.38
369.99	229.36
370.37	229.33
370.75	229.30
371.13	229.24
371.51	229.19
371.89	229.13
372.27	229.08
372.65	229.04
373.03	228.99
373.41	228.94
373.78	228.87
374.16	228.78
374.54	228.70
374.92	228.62
375.30	228.55
375.68	228.44
376.06	228.35
376.44	228.26
376.82	228.17
377.19	228.10
377.57	228.02
377.95	227.91
378.33	227.82
378.71	227.68
379.09	227.61
379.47	227.53
379.84	227.45
380.22	227.38
380.60	227.28
380.98	227.20
381.36	227.11
381.73	227.04
382.11	226.99
382.49	226.93
382.87	226.88
383.25	226.79
383.62	226.85
384.00	226.75
384.38	226.70
384.76	226.67
385.13	226.64
385.51	226.58
385.89	226.53
386.27	226.48
386.64	226.47
387.02	226.43
387.40	226.35
387.78	226.35
388.15	226.32
388.53	226.30
388.91	226.27
389.29	226.27
389.66	226.29
390.04	226.22
390.42	226.21
390.79	226.19
391.17	226.22
391.55	226.11
391.92	226.11
392.30	226.12
392.68	226.11
393.05	226.10
393.43	226.14
393.81	226.15
394.18	226.17
394.56	226.21
394.94	226.23
395.31	226.27
395.69	226.32
396.06	226.35
396.44	226.41
396.82	226.44
397.19	226.53
397.57	226.56
397.95	226.69
398.32	226.74
398.70	226.85
399.07	226.93
399.45	226.97
399.82	227.05
400.20	227.12
400.58	227.20
400.95	227.20
401.33	227.29
401.70	227.44
402.08	227.55
402.45	227.66
402.83	227.79
403.20	227.94
403.58	228.04
403.95	228.19
404.33	228.29
404.71	228.44
405.08	228.59
405.46	228.72
405.83	228.86
406.21	229.03
406.58	229.16
406.96	229.29
407.33	229.47
407.70	229.67
408.08	229.96
408.45	230.19
408.83	230.46
409.20	230.68
409.58	230.86
409.95	231.10
410.33	231.34
410.70	231.59
411.08	231.86
411.45	232.13
411.82	232.45
412.20	232.80
412.57	233.20
412.95	233.51
413.32	233.90
413.69	234.26
414.07	234.67
414.44	235.13
414.82	235.62
415.19	236.20
415.56	236.75
415.94	237.26
416.31	237.89
416.68	238.51
417.06	239.21
417.43	239.93
417.81	240.71
418.18	241.45
418.55	242.28
418.93	243.19
419.30	244.11
419.67	245.05
420.04	245.99
420.42	246.96
420.79	248.13
421.16	249.28
421.54	250.48
421.91	251.68
422.28	252.93
422.66	254.26
423.03	255.57
423.40	256.88
423.77	258.31
424.15	259.75
424.52	261.22
424.89	262.83
425.26	264.34
425.64	265.77
426.01	267.37
426.38	269.03
426.75	270.62
427.13	272.31
427.50	274.11
427.87	276.03
428.24	277.89
428.61	279.60
428.99	281.51
429.36	283.58
429.73	285.65
430.10	287.66
430.47	289.72
430.85	291.80
431.22	294.04
431.59	296.41
431.96	298.62
432.33	301.11
432.70	303.49
433.08	306.30
433.45	308.94
433.82	311.55
434.19	314.43
434.56	317.26
434.93	319.92
435.30	322.52
435.68	325.39
436.05	328.23
436.42	331.05
436.79	333.54
437.16	336.28
437.53	339.10
437.90	341.93
438.27	344.68
438.64	347.52
439.01	350.10
439.38	352.32
439.75	354.49
440.13	356.98
440.50	359.31
440.87	361.12
441.24	363.05
441.61	365.26
441.98	366.72
442.35	368.52
442.72	370.38
443.09	372.20
443.46	373.19
443.83	373.79
444.20	374.27
444.57	375.16
444.94	375.48
445.31	375.81
445.68	376.15
446.05	376.26
446.42	375.88
446.79	375.45
447.16	375.00
447.53	374.69
447.90	373.52
448.27	372.33
448.64	370.79
449.01	369.62
449.37	367.64
449.74	365.75
450.11	363.53
450.48	361.08
450.85	358.54
451.22	356.40
451.59	354.40
451.96	352.50
452.33	349.87
452.70	347.49
453.07	344.64
453.43	341.72
453.80	338.92
454.17	336.29
454.54	333.76
454.91	331.03
455.28	328.36
455.65	325.92
456.02	323.52
456.38	321.33
456.75	318.71
457.12	316.43
457.49	314.24
457.86	312.09
458.23	310.25
458.59	308.22
458.96	306.15
459.33	304.28
459.70	302.43
460.07	300.95
460.43	299.22
460.80	297.63
461.17	296.22
461.54	294.71
461.91	293.24
462.27	291.82
462.64	290.61
463.01	289.27
463.38	287.94
463.74	286.57
464.11	285.44
464.48	284.41
464.85	283.30
465.21	282.39
465.58	281.44
465.95	280.32
466.32	279.43
466.68	278.48
467.05	277.55
467.42	276.60
467.78	275.65
468.15	274.75
468.52	274.09
468.88	273.25
469.25	272.46
469.62	271.88
469.98	271.15
470.35	270.52
470.72	269.91
471.08	269.25
471.45	268.70
471.82	268.17
472.18	267.57
472.55	267.13
472.92	266.63
473.28	266.17
473.65	265.71
474.02	265.25
474.38	264.89
474.75	264.61
475.11	264.26
475.48	264.01
475.85	263.81
476.21	263.57
476.58	263.36
476.94	263.25
477.31	263.06
477.67	262.92
478.04	262.79
478.41	262.74
478.77	262.80
479.14	262.75
479.50	262.77
479.87	262.85
480.23	262.94
480.60	263.00
480.96	263.10
481.33	263.29
481.69	263.47
482.06	263.66
482.42	263.84
482.79	264.13
483.15	264.43
483.52	264.83
483.88	265.18
484.25	265.57
484.61	266.02
484.98	266.44
485.34	267.00
485.71	267.58
486.07	268.15
486.44	268.75
486.80	269.43
487.17	270.14
487.53	270.97
487.90	271.82
488.26	272.77
488.62	273.78
488.99	274.80
489.35	275.87
489.72	277.04
490.08	278.27
490.44	279.50
490.81	280.86
491.17	282.16
491.54	283.65
491.90	285.20
492.26	286.81
492.63	288.55
492.99	290.35
493.36	292.24
493.72	294.30
494.08	296.38
494.45	298.66
494.81	301.05
495.17	303.48
495.54	306.04
495.90	308.69
496.26	311.47
496.63	314.40
496.99	317.52
497.35	320.79
497.72	324.18
498.08	327.68
498.44	331.36
498.80	335.35
499.17	339.42
499.53	343.57
499.89	347.98
500.26	352.51
500.62	357.15
500.98	362.11
501.34	367.22
501.71	372.55
502.07	377.95
502.43	383.61
502.79	389.45
503.16	395.54
503.52	401.88
503.88	408.30
504.24	414.97
504.60	421.84
504.97	428.93
505.33	436.29
505.69	444.02
506.05	451.76
506.41	459.63
506.78	467.71
507.14	476.19
507.50	484.92
507.86	493.99
508.22	503.22
508.59	512.41
508.95	522.03
509.31	531.82
509.67	541.99
510.03	552.22
510.39	562.77
510.75	573.60
511.12	584.53
511.48	595.83
511.84	607.31
512.20	618.89
512.56	630.85
512.92	643.04
513.28	655.34
513.64	667.85
514.00	680.62
514.37	693.58
514.73	706.74
515.09	719.72
515.45	732.95
515.81	746.54
516.17	760.57
516.53	774.69
516.89	788.94
517.25	803.01
517.61	817.49
517.97	831.94
518.33	846.29
518.69	861.10
519.05	876.09
519.41	891.11
519.77	906.57
520.13	922.04
520.49	937.29
520.85	952.66
521.21	968.43
521.57	984.60
521.93	1000.34
522.29	1016.64
522.65	1032.88
523.01	1049.09
523.37	1065.13
523.73	1081.29
524.09	1097.35
524.45	1113.66
524.81	1130.32
525.17	1147.05
525.53	1163.97
525.89	1180.93
526.25	1197.71
526.61	1214.13
526.97	1230.90
527.33	1247.37
527.68	1263.97
528.04	1280.48
528.40	1297.11
528.76	1314.16
529.12	1330.75
529.48	1347.67
529.84	1363.73
530.20	1380.32
530.56	1397.40
530.91	1414.85
531.27	1431.57
531.63	1448.03
531.99	1464.52
532.35	1480.50
532.71	1496.27
533.07	1512.37
533.42	1528.15
533.78	1544.17
534.14	1560.39
534.50	1575.76
534.86	1591.68
535.21	1606.86
535.57	1622.74
535.93	1638.33
536.29	1652.93
536.65	1667.86
537.00	1682.60
537.36	1697.89
537.72	1712.52
538.08	1726.83
538.44	1740.48
538.79	1754.29
539.15	1767.92
539.51	1781.65
539.87	1796.02
540.22	1809.91
540.58	1823.74
540.94	1837.11
541.29	1849.98
541.65	1862.63
542.01	1875.93
542.37	1888.13
542.72	1900.50
543.08	1912.29
543.44	1924.57
543.79	1935.87
544.15	1947.05
544.51	1958.58
544.87	1969.51
545.22	1980.23
545.58	1990.51
545.94	2000.33
546.29	2010.33
546.65	2020.12
547.01	2029.43
547.36	2038.14
547.72	2046.49
548.07	2054.33
548.43	2062.50
548.79	2070.54
549.14	2078.07
549.50	2085.29
549.86	2093.04
550.21	2100.35
550.57	2107.53
550.92	2114.16
551.28	2121.16
551.64	2128.16
551.99	2134.64
552.35	2140.76
552.70	2146.97
553.06	2152.86
553.41	2159.34
553.77	2165.36
554.13	2171.49
554.48	2177.51
554.84	2182.90
555.19	2188.40
555.55	2193.42
555.90	2197.84
556.26	2202.63
556.61	2207.50
556.97	2211.70
557.32	2215.76
557.68	2219.83
558.03	2224.11
558.39	2227.76
558.74	2232.54
559.10	2236.45
559.45	2240.14
559.81	2244.50
560.16	2248.32
560.52	2251.55
560.87	2254.78
561.23	2257.56
561.58	2260.63
561.94	2263.21
562.29	2265.66
562.64	2268.27
563.00	2270.92
563.35	2274.43
563.71	2277.53
564.06	2280.58
564.42	2283.54
564.77	2285.99
565.12	2288.41
565.48	2290.34
565.83	2292.34
566.19	2293.70
566.54	2294.41
566.89	2295.56
567.25	2296.12
567.60	2297.42
567.96	2299.17
568.31	2300.18
568.66	2301.09
569.02	2301.48
569.37	2301.66
569.72	2302.44
570.08	2302.47
570.43	2302.60
570.78	2302.01
571.14	2300.49
571.49	2299.15
571.84	2298.73
572.20	2297.61
572.55	2296.47
572.90	2294.89
573.26	2293.30
573.61	2291.47
573.96	2289.83
574.31	2286.87
574.67	2283.78
575.02	2280.11
575.37	2276.87
575.72	2272.97
576.08	2269.63
576.43	2266.28
576.78	2262.64
577.13	2259.53
577.49	2256.52
577.84	2252.98
578.19	2249.31
578.54	2245.73
578.90	2241.64
579.25	2236.18
579.60	2231.20
579.95	2226.26
580.30	2221.31
580.66	2216.24
581.01	2211.30
581.36	2206.43
581.71	2202.30
582.06	2197.84
582.42	2193.33
582.77	2187.98
583.12	2183.44
583.47	2178.67
583.82	2173.81
584.17	2168.56
584.53	2162.84
584.88	2157.21
585.23	2151.48
585.58	2145.92
585.93	2140.44
586.28	2135.51
586.63	2130.38
586.98	2125.39
587.34	2120.63
587.69	2115.76
588.04	2110.36
588.39	2104.73
588.74	2098.24
589.09	2092.01
589.44	2085.23
589.79	2079.35
590.14	2073.67
590.49	2066.94
590.84	2060.62
591.19	2054.54
591.54	2048.17
591.89	2040.90
592.25	2034.08
592.60	2026.86
592.95	2019.47
593.30	2012.08
593.65	2004.53
594.00	1997.55
594.35	1990.36
594.70	1982.37
595.05	1975.09
595.40	1967.99
595.75	1960.50
596.10	1954.15
596.45	1947.43
596.80	1941.26
597.15	1934.51
597.50	1927.26
597.85	1920.87
598.19	1914.15
598.54	1907.00
598.89	1900.34
599.24	1894.41
599.59	1887.56
599.94	1881.38
600.29	1874.98
600.64	1868.51
600.99	1861.17
601.34	1854.25
601.69	1847.23
602.04	1840.28
602.39	1832.94
602.74	1825.98
603.08	1819.13
603.43	1812.50
603.78	1805.23
604.13	1797.95
604.48	1790.66
604.83	1783.87
605.18	1776.85
605.53	1768.88
605.87	1760.82
606.22	1753.69
606.57	1745.81
606.92	1738.64
607.27	1731.51
607.62	1724.47
607.96	1717.18
608.31	1710.40
608.66	1702.90
609.01	1695.35
609.36	1687.73
609.70	1679.73
610.05	1671.67
610.40	1663.96
610.75	1655.59
611.10	1647.75
611.44	1639.37
611.79	1631.43
612.14	1622.74
612.49	1613.68
612.83	1605.32
613.18	1597.21
613.53	1589.06
613.88	1580.54
614.22	1572.26
614.57	1563.57
614.92	1555.49
615.27	1547.85
615.61	1539.53
615.96	1531.50
616.31	1523.87
616.65	1516.46
617.00	1508.86
617.35	1501.25
617.70	1492.88
618.04	1484.41
618.39	1476.38
618.74	1468.86
619.08	1460.49
619.43	1452.88
619.78	1445.89
620.12	1438.69
620.47	1431.24
620.82	1422.94
621.16	1415.57
621.51	1408.01
621.85	1400.29
622.20	1391.87
622.55	1383.48
622.89	1375.64
623.24	1368.01
623.59	1360.60
623.93	1353.20
624.28	1346.02
624.62	1338.45
624.97	1331.33
625.32	1324.54
625.66	1317.52
626.01	1310.32
626.35	1302.90
626.70	1295.25
627.04	1287.44
627.39	1279.65
627.73	1272.24
628.08	1265.49
628.43	1258.11
628.77	1250.65
629.12	1243.13
629.46	1235.91
629.81	1228.61
630.15	1221.48
630.50	1214.10
630.84	1205.98
631.19	1198.07
631.53	1190.51
631.88	1183.02
632.22	1175.47
632.57	1168.13
632.91	1160.54
633.26	1153.07
633.60	1145.63
633.95	1138.53
634.29	1131.66
634.64	1124.97
634.98	1117.62
635.32	1110.38
635.67	1103.86
636.01	1097.23
636.36	1090.55
636.70	1084.03
637.05	1077.42
637.39	1070.86
637.73	1064.31
638.08	1058.37
638.42	1052.26
638.77	1045.77
639.11	1039.10
639.45	1032.70
639.80	1026.09
640.14	1019.70
640.49	1013.15
640.83	1006.87
641.17	1000.61
641.52	994.24
641.86	987.78
642.20	981.95
642.55	975.69
642.89	969.17
643.23	962.65
643.58	956.77
643.92	950.62
644.26	944.47
644.61	938.51
644.95	932.42
645.29	925.76
645.64	919.11
645.98	912.88
646.32	907.07
646.66	901.05
647.01	895.25
647.35	889.51
647.69	883.71
648.04	878.27
648.38	872.52
648.72	866.48
649.06	860.52
649.41	854.56
649.75	848.51
650.09	842.53
650.43	836.73
650.78	830.54
651.12	824.56
651.46	818.89
651.80	813.13
652.14	807.77
652.49	802.52
652.83	797.32
653.17	791.61
653.51	785.87
653.85	780.46
654.20	774.78
654.54	768.82
654.88	763.06
655.22	757.15
655.56	751.43
655.90	746.03
656.25	740.77
656.59	735.48
656.93	730.39
657.27	725.26
657.61	719.82
657.95	714.73
658.29	709.68
658.64	704.44
658.98	699.09
659.32	693.59
659.66	688.31
660.00	682.95
660.34	677.95
660.68	673.00
661.02	667.94
661.36	663.24
661.70	658.72
662.05	654.38
662.39	650.08
662.73	645.61
663.07	641.22
663.41	636.74
663.75	632.22
664.09	627.67
664.43	623.30
664.77	619.18
665.11	614.93
665.45	610.80
665.79	606.67
666.13	602.55
666.47	598.49
666.81	594.36
667.15	590.30
667.49	586.44
667.83	582.70
668.17	578.74
668.51	574.66
668.85	570.68
669.19	566.83
669.53	562.90
669.87	558.95
670.21	555.24
670.55	551.59
670.89	548.17
671.23	544.76
671.57	541.17
671.91	537.58
672.25	534.10
672.58	530.60
672.92	527.19
673.26	524.02
673.60	520.85
673.94	517.70
674.28	514.73
674.62	511.74
674.96	508.60
675.30	505.65
675.64	502.74
675.97	499.93
676.31	497.09
676.65	494.16
676.99	491.54
677.33	488.64
677.67	485.82
678.01	482.73
678.34	479.74
678.68	476.89
679.02	474.12
679.36	471.36
679.70	468.60
680.04	465.87
680.37	462.96
680.71	460.18
681.05	457.58
681.39	454.86
681.73	452.22
682.06	449.75
682.40	447.21
682.74	444.71
683.08	442.18
683.42	439.56
683.75	437.07
684.09	434.49
684.43	432.05
684.77	429.58
685.10	427.26
685.44	424.99
685.78	422.75
686.12	420.45
686.45	418.19
686.79	415.88
687.13	413.67
687.46	411.53
687.80	409.42
688.14	407.21
688.48	405.14
688.81	402.89
689.15	400.71
689.49	398.61
689.82	396.55
690.16	394.49
690.50	392.53
690.83	390.59
691.17	388.61
691.51	386.67
691.84	384.81
692.18	382.87
692.52	380.91
692.85	378.97
693.19	377.14
693.52	375.31
693.86	373.52
694.20	371.74
694.53	369.96
694.87	368.10
695.21	366.34
695.54	364.54
695.88	362.86
696.21	361.16
696.55	359.49
696.88	357.74
697.22	356.01
697.56	354.40
697.89	352.74
698.23	351.16
698.56	349.59
698.90	348.01
699.23	346.36
699.57	344.76
699.90	343.21
700.24	341.62
700.58	340.05
700.91	338.57
701.25	337.12
701.58	335.76
701.92	334.43
702.25	333.04
702.59	331.68
702.92	330.36
703.26	329.03
703.59	327.74
703.93	326.58
704.26	325.40
704.60	324.09
704.93	322.82
705.26	321.56
705.60	320.43
705.93	319.27
706.27	318.24
706.60	317.17
706.94	316.07
707.27	314.98
707.61	313.93
707.94	312.89
708.27	311.82
708.61	310.74
708.94	309.72
709.28	308.70
709.61	307.72
709.94	306.76
710.28	305.76
710.61	304.76
710.95	303.69
711.28	302.74
711.61	301.78
711.95	300.89
712.28	299.97
712.61	298.93
712.95	298.00
713.28	297.14
713.61	296.28
713.95	295.39
714.28	294.54
714.61	293.69
714.95	292.82
715.28	291.92
715.61	291.03
715.95	290.18
716.28	289.35
716.61	288.55
716.95	287.74
717.28	286.97
717.61	286.19
717.94	285.46
718.28	284.65
718.61	283.93
718.94	283.21
719.27	282.54
719.61	281.90
719.94	281.22
720.27	280.49
720.60	279.82
720.94	279.19
721.27	278.59
721.60	277.98
721.93	277.40
722.27	276.85
722.60	276.28
722.93	275.72
723.26	275.18
723.59	274.58
723.93	273.99
724.26	273.44
724.59	272.88
724.92	272.37
725.25	271.87
725.59	271.35
725.92	270.86
726.25	270.34
726.58	269.84
726.91	269.34
727.24	268.88
727.57	268.37
727.91	267.87
728.24	267.41
728.57	266.95
728.90	266.49
729.23	266.00
729.56	265.60
729.89	265.15
730.22	264.64
730.55	264.22
730.89	263.81
731.22	263.37
731.55	262.95
731.88	262.49
732.21	262.04
732.54	261.61
732.87	261.16
733.20	260.77
733.53	260.42
733.86	260.07
734.19	259.70
734.52	259.38
734.85	259.09
735.18	258.71
735.51	258.34
735.84	257.98
736.17	257.65
736.50	257.25
736.83	256.99
737.16	256.70
737.49	256.35
737.82	256.02
738.15	255.67
738.48	255.34
738.81	255.01
739.14	254.73
739.47	254.40
739.80	254.13
740.13	253.83
740.46	253.46
740.79	253.13
741.12	252.77
741.45	252.45
741.78	252.08
742.11	251.78
742.44	251.48
742.77	251.16
743.10	250.87
743.43	250.53
743.75	250.14
744.08	249.95
744.41	249.67
744.74	249.37
745.07	249.08
745.40	248.82
745.73	248.57
746.06	248.26
746.39	248.02
746.71	247.73
747.04	247.44
747.37	247.19
747.70	246.93
748.03	246.67
748.36	246.45
748.68	246.21
749.01	245.96
749.34	245.74
749.67	245.53
750.00	245.29
750.33	245.18
750.65	244.95
750.98	244.64
751.31	244.45
751.64	244.24
751.97	244.11
752.29	243.93
752.62	243.68
752.95	243.47
753.28	243.26
753.60	243.06
753.93	242.91
754.26	242.70
754.59	242.47
754.91	242.32
755.24	242.12
755.57	241.93
755.90	241.76
756.22	241.53
756.55	241.30
756.88	241.13
757.20	240.90
757.53	240.69
757.86	240.51
758.19	240.33
758.51	240.13
758.84	239.92
759.17	239.75
759.49	239.62
759.82	239.56
760.15	239.38
760.47	239.22
760.80	239.04
761.13	238.96
761.45	238.81
761.78	238.63
762.11	238.46
762.43	238.32
762.76	238.17
763.08	238.07
763.41	237.96
763.74	237.81
764.06	237.65
764.39	237.53
764.71	237.38
765.04	237.25
765.37	237.13
765.69	237.00
766.02	236.85
766.34	236.73
766.67	236.54
767.00	236.48
767.32	236.43
767.65	236.33
767.97	236.18
768.30	236.11
768.62	236.01
768.95	235.89
769.27	235.81
769.60	235.66
769.92	235.54
770.25	235.39
770.57	235.28
770.90	235.18
771.22	235.07
771.55	235.01
771.87	234.91
772.20	234.82
772.52	234.78
772.85	234.81
773.17	234.70
773.50	234.62
773.82	234.51
774.15	234.34
774.47	234.19
774.80	234.09
775.12	233.97
775.45	233.88
775.77	233.80
776.09	233.69
776.42	233.66
776.74	233.60
777.07	233.55
777.39	233.49
777.72	233.41
778.04	233.32
778.36	233.22
778.69	233.14
779.01	233.07
779.33	232.93
779.66	232.74
779.98	232.66
780.31	232.58
780.63	232.53
780.95	232.53
781.28	232.48
781.60	232.42
781.92	232.34
782.25	232.28
782.57	232.24
782.89	232.17
783.22	232.09
783.54	232.03
783.86	231.99
784.19	231.93
784.51	231.94
784.83	231.88
785.16	231.84
785.48	231.80
785.80	231.78
786.12	231.76
786.45	231.73
786.77	231.73
787.09	231.70
787.42	231.62
787.74	231.56
788.06	231.53
788.38	231.49
788.71	231.48
789.03	231.44
789.35	231.41
789.67	231.37
789.99	231.34
790.32	231.30
790.64	231.24
790.96	231.28
791.28	231.18
791.61	231.17
791.93	231.16
792.25	231.12
792.57	231.14
792.89	231.08
793.21	231.06
793.54	230.98
793.86	230.91
794.18	230.87
794.50	230.82
794.82	230.77
795.14	230.75
795.47	230.72
795.79	230.73
796.11	230.66
796.43	230.60
796.75	230.57
797.07	230.55
797.39	230.52
797.71	230.43
798.04	230.42
798.36	230.41
798.68	230.38
799.00	230.32
799.32	230.22
799.64	230.22
799.96	230.19
800.28	230.18
800.60	230.14
800.92	230.13
801.24	230.08
801.56	230.08
801.89	230.06
802.21	230.02
802.53	229.92
802.85	229.92
803.17	229.94
803.49	229.87
803.81	229.79
804.13	229.75
804.45	229.71
804.77	229.68
805.09	229.61
805.41	229.54
805.73	229.53
806.05	229.48
806.37	229.44
806.69	229.39
807.01	229.35
807.33	229.36
807.65	229.28
807.97	229.31
808.28	229.24
808.60	229.19
808.92	229.15
809.24	229.17
809.56	229.11
809.88	229.05
810.20	229.03
810.52	229.04
810.84	228.99
811.16	228.93
811.48	228.89
811.80	228.91
812.12	228.87
812.43	228.83
812.75	228.84
813.07	228.80
813.39	228.72
813.71	228.72
814.03	228.65
814.35	228.65
814.67	228.59
814.98	228.57
815.30	228.52
815.62	228.45
815.94	228.36
816.26	228.39
816.58	228.38
816.89	228.37
817.21	228.37
817.53	228.39
817.85	228.38
818.17	228.35
818.48	228.27
818.80	228.31
819.12	228.28
819.44	228.23
819.76	228.21
820.07	228.23
820.39	228.23
820.71	228.25
821.03	228.20
821.34	228.18
821.66	228.19
821.98	228.20
822.30	228.23
822.61	228.32
822.93	228.26
823.25	228.27
823.57	228.23
823.88	228.25
824.20	228.22
824.52	228.23
824.83	228.18
825.15	228.20
825.47	228.17
825.79	228.20
826.10	228.18
826.42	228.16
826.74	228.18
827.05	228.15
827.37	228.15
827.69	228.13
828.00	228.12
828.32	228.12
828.64	228.15
828.95	228.18
829.27	228.12
829.58	228.08
829.90	228.06
830.22	228.09
830.53	228.00
830.85	228.00
831.17	228.00
831.48	228.03
831.80	228.02
832.11	228.01
832.43	227.99
832.75	227.99
833.06	228.05
833.38	228.02
833.69	228.00
834.01	227.99
834.32	228.00
834.64	228.00
834.96	227.99
835.27	227.96
835.59	227.90
835.90	227.91
836.22	227.96
836.53	227.94
836.85	227.90
837.16	228.03
837.48	228.02
837.79	228.03
838.11	228.02
838.42	228.00
838.74	228.02
839.05	227.99
839.37	227.99
839.68	227.93
840.00	227.92
840.31	227.90
840.63	227.86
840.94	227.83
841.26	227.81
841.57	227.79
841.88	227.79
842.20	227.81
842.51	227.76
842.83	227.74
843.14	227.84
843.46	227.85
843.77	227.77
844.08	227.74
844.40	227.66
844.71	227.67
845.03	227.64
845.34	227.61
845.65	227.61
845.97	227.60
846.28	227.58
846.60	227.58
846.91	227.58
847.22	227.57
847.54	227.59
847.85	227.56
848.16	227.58
848.48	227.53
848.79	227.52
849.10	227.49
849.42	227.46
849.73	227.34
850.04	227.29
850.36	227.23
850.67	227.22
850.98	227.23
851.30	227.21
851.61	227.19
851.92	227.19
852.23	227.19
852.55	227.20
852.86	227.20
853.17	227.16
853.49	227.16
853.80	227.18
854.11	227.17
854.42	227.20
854.74	227.14
855.05	227.14
855.36	227.10
855.67	227.12
855.99	227.13
856.30	227.24
856.61	227.24
856.92	227.24
857.23	227.28
857.55	227.26
857.86	227.25
858.17	227.30
858.48	227.27
858.79	227.23
859.11	227.22
859.42	227.18
859.73	227.16
860.04	227.15
860.35	227.13
860.66	227.10
860.98	227.10
861.29	227.13
861.60	227.12
861.91	227.16
862.22	227.11
862.53	227.10
862.84	226.96
863.16	226.98
863.47	226.98
863.78	226.95
864.09	226.95
864.40	226.96
864.71	226.94
865.02	226.96
865.33	227.00
865.64	226.96
865.95	227.04
866.27	227.12
866.58	227.16
866.89	227.17
867.20	227.20
867.51	227.19
867.82	227.17
868.13	227.19
868.44	227.19
868.75	227.24
869.06	227.23
869.37	227.27
869.68	227.26
869.99	227.29
870.30	227.30
870.61	227.33
870.92	227.31
871.23	227.31
871.54	227.33
871.85	227.35
872.16	227.38
872.47	227.32
872.78	227.25
873.09	227.25
873.40	227.27
873.71	227.25
874.02	227.24
874.33	227.29
874.64	227.32
874.95	227.32
875.26	227.29
875.56	227.30
875.87	227.28
876.18	227.26
876.49	227.34
876.80	227.34
877.11	227.34
877.42	227.36
877.73	227.36
878.04	227.33
878.35	227.30
878.66	227.31
878.96	227.32
879.27	227.32
879.58	227.30
879.89	227.26
880.20	227.30
880.51	227.32
880.82	227.30
881.12	227.28
881.43	227.27
881.74	227.26
882.05	227.28
882.36	227.30
882.67	227.29
882.97	227.20
883.28	227.17
883.59	227.15
883.90	227.14
884.21	227.12
884.51	227.12
884.82	227.11
885.13	227.10
885.44	227.07
885.74	227.08
886.05	227.08
886.36	227.10
886.67	227.09
886.98	227.10
887.28	227.10
887.59	227.09
887.90	227.10
888.20	227.09
888.51	227.12
888.82	227.11
889.13	227.15
889.43	227.23
889.74	227.24
890.05	227.23
890.35	227.24
890.66	227.25
890.97	227.24
891.28	227.19
891.58	227.17
891.89	227.21
892.20	227.18
892.50	227.13
892.81	227.07
893.12	227.03
893.42	226.98
893.73	226.97
894.04	226.97
894.34	226.99
894.65	226.97
894.95	226.93
895.26	226.94
895.57	226.96
895.87	226.86
896.18	226.88
896.48	226.88
896.79	226.86
897.10	226.85
897.40	226.86
897.71	226.88
898.01	226.91
898.32	226.91
898.63	226.92
898.93	226.92
899.24	226.97
899.54	226.97
899.85	226.97
900.15	226.98
900.46	226.97
900.76	226.94
901.07	226.95
901.38	226.92
901.68	226.93
901.99	226.88
902.29	226.89
902.60	226.87
902.90	226.90
903.21	226.88
903.51	226.87
903.82	226.88
904.12	226.91
904.43	226.91
904.73	226.89
905.03	226.91
905.34	227.04
905.64	227.02
905.95	227.04
906.25	227.09
906.56	227.05
906.86	227.04
907.17	227.06
907.47	227.06
907.77	227.08
908.08	227.03
908.38	227.06
908.69	227.05
908.99	227.08
909.30	227.07
909.60	227.07
909.90	227.09
910.21	227.09
910.51	227.07
910.81	227.09
911.12	227.14
911.42	227.14
911.73	227.02
912.03	227.05
912.33	227.06
912.64	227.05
912.94	227.09
913.24	227.10
913.55	227.09
913.85	227.08
914.15	227.09
914.46	227.13
914.76	227.12
915.06	227.14
915.37	227.13
915.67	227.11
915.97	227.13
916.27	227.13
916.58	227.10
916.88	227.10
917.18	227.08
917.49	227.12
917.79	227.12
918.09	227.14
918.39	227.16
918.70	227.14
919.00	227.13
919.30	227.15
919.60	227.14
919.91	227.12
920.21	227.14
920.51	227.15
920.81	227.12
921.12	227.13
921.42	227.08
921.72	227.07
922.02	227.09
922.32	227.09
922.63	227.07
922.93	227.12
923.23	227.10
923.53	227.06
923.83	227.00
924.13	226.99
924.44	226.97
924.74	226.96
925.04	226.97
925.34	226.95
925.64	226.93
925.94	226.92
926.24	226.98
926.55	226.95
926.85	226.92
927.15	226.91
927.45	226.91
927.75	226.95
928.05	226.95
928.35	226.95
928.65	226.95
928.95	226.96
929.26	226.92
929.56	226.93
929.86	226.95
930.16	226.93
930.46	226.89
930.76	226.91
931.06	226.87
931.36	226.85
931.66	226.85
931.96	226.82
932.26	226.82
932.56	226.76
932.86	226.78
933.16	226.81
933.46	226.81
933.76	226.77
934.06	226.78
934.36	226.81
934.66	226.77
934.96	226.77
935.26	226.77
935.56	226.78
935.86	226.75
936.16	226.73
936.46	226.70
936.76	226.71
937.06	226.69
937.36	226.68
937.66	226.66
937.96	226.68
938.26	226.69
938.56	226.67
938.86	226.67
939.16	226.67
939.46	226.70
939.76	226.70
940.06	226.73
940.35	226.70
940.65	226.62
940.95	226.66
941.25	226.61
941.55	226.60
941.85	226.61
942.15	226.62
942.45	226.64
942.75	226.66
943.04	226.69
943.34	226.72
943.64	226.73
943.94	226.74
944.24	226.73
944.54	226.73
944.84	226.72
945.13	226.71
945.43	226.72
945.73	226.69
946.03	226.67
946.33	226.62
946.62	226.60
946.92	226.61
947.22	226.64
947.52	226.67
947.82	226.70
948.11	226.68
948.41	226.69
948.71	226.68
949.01	226.67
949.31	226.64
949.60	226.63
949.90	226.67
950.20	226.67
950.50	226.69
950.79	226.68
951.09	226.73
951.39	226.74
951.69	226.73
951.98	226.73
952.28	226.76
952.58	226.79
952.87	226.78
953.17	226.79
953.47	226.78
953.76	226.78
954.06	226.77
954.36	226.76
954.66	226.75
954.95	226.81
955.25	226.84
955.55	226.83
955.84	226.79
956.14	226.77
956.44	226.75
956.73	226.72
957.03	226.74
957.32	226.71
957.62	226.71
957.92	226.70
958.21	226.69
958.51	226.76
958.81	226.75
959.10	226.75
959.40	226.79
959.69	226.79
959.99	226.82
960.29	226.79
960.58	226.80
960.88	226.81
961.17	226.76
961.47	226.76
961.76	226.73
962.06	226.78
962.36	226.75
962.65	226.77
962.95	226.76
963.24	226.75
963.54	226.76
963.83	226.76
964.13	226.78
964.42	226.75
964.72	226.68
965.01	226.72
965.31	226.73
965.60	226.67
965.90	226.69
966.19	226.64
966.49	226.65
966.78	226.61
967.08	226.59
967.37	226.61
967.67	226.56
967.96	226.63
968.26	226.58
968.55	226.60
968.85	226.57
969.14	226.58
969.43	226.54
969.73	226.52
970.02	226.52
970.32	226.52
970.61	226.51
970.91	226.48
971.20	226.44
971.49	226.45
971.79	226.48
972.08	226.42
972.38	226.40
972.67	226.42
972.96	226.42
973.26	226.44
973.55	226.42
973.85	226.44
974.14	226.42
974.43	226.44
974.73	226.45
975.02	226.50
975.31	226.51
975.61	226.51
975.90	226.52
976.19	226.53
976.49	226.53
976.78	226.54
977.07	226.56
977.37	226.55
977.66	226.56
977.95	226.56
978.24	226.58
978.54	226.65
978.83	226.63
979.12	226.63
979.42	226.63
979.71	226.63
980.00	226.64
980.29	226.65
980.59	226.59
980.88	226.61
981.17	226.58
981.46	226.59
981.76	226.61
982.05	226.62
982.34	226.61
982.63	226.64
982.93	226.64
983.22	226.69
983.51	226.74
983.80	226.72
984.09	226.73
984.39	226.72
984.68	226.70
984.97	226.72
985.26	226.75
985.55	226.76
985.85	226.78
986.14	226.80
986.43	226.81
986.72	226.84
987.01	226.83
987.30	226.82
987.59	226.80
987.89	226.81
988.18	226.80
988.47	226.78
988.76	226.77
989.05	226.77
989.34	226.72
989.63	226.74
989.92	226.77
990.22	226.76
990.51	226.78
990.80	226.77
991.09	226.79
991.38	226.79
991.67	226.82
991.96	226.80
992.25	226.83
992.54	226.83
992.83	226.85
993.12	226.83
993.41	226.83
993.70	226.90
993.99	226.93
994.28	226.95
994.58	226.98
994.87	226.96
995.16	226.96
995.45	226.93
995.74	226.86
996.03	226.86
996.32	226.88
996.61	226.89
996.90	226.88
997.19	226.88
997.48	226.88
997.77	226.83
998.06	226.80
998.34	226.79
998.63	226.78
998.92	226.71
999.21	226.76
999.50	226.79
999.79	226.71
1000.08	226.68
1000.37	226.66
1000.66	226.66
1000.95	226.69
1001.24	226.70
1001.53	226.71
1001.82	226.70
1002.11	226.67
1002.40	226.66
1002.68	226.64
1002.97	226.68
1003.26	226.66
1003.55	226.63
1003.84	226.66
1004.13	226.72
1004.42	226.70
1004.71	226.69
1004.99	226.70
1005.28	226.68
1005.57	226.66
1005.86	226.66
1006.15	226.66
1006.44	226.66
1006.72	226.67
1007.01	226.64
1007.30	226.64
1007.59	226.66
1007.88	226.67
1008.17	226.68
1008.45	226.70
1008.74	226.68
1009.03	226.65
1009.32	226.64
1009.60	226.64
1009.89	226.62
1010.18	226.56
1010.47	226.54
1010.76	226.53
1011.04	226.56
1011.33	226.56
1011.62	226.55
1011.91	226.56
1012.19	226.56
1012.48	226.54
1012.77	226.54
1013.05	226.59
1013.34	226.57
1013.63	226.56
1013.92	226.58
1014.20	226.57
1014.49	226.55
1014.78	226.56
1015.06	226.54
1015.35	226.55
1015.64	226.56
1015.92	226.56
1016.21	226.55
1016.50	226.58
1016.78	226.61
1017.07	226.59
1017.36	226.57
1017.64	226.58
1017.93	226.61
1018.22	226.59
1018.50	226.59
1018.79	226.58
1019.08	226.56
1019.36	226.57
1019.65	226.57
1019.93	226.58
1020.22	226.61
1020.51	226.68
1020.79	226.69
1021.08	226.36
1021.36	226.54
1021.65	226.49
1021.94	227.11
1022.22	226.72
1022.51	226.45
1022.79	226.69
1023.08	227.16
1023.36	228.24
1023.65	226.54
>>>>>End Processed Spectral Data<<<<<
