SpectraSuite Data File
++++++++++++++++++++++++++++++++++++
Date: Fri Feb 01 15:59:07 EST 2013
User: group
Dark Spectrum Present: No
Reference Spectrum Present: No
Number of Sampled Component Spectra: 1
Spectrometers: USB2E7196
Integration Time (usec): 35000 (USB2E7196)
Spectra Averaged: 100 (USB2E7196)
Boxcar Smoothing: 10 (USB2E7196)
Correct for Electrical Dark: No (USB2E7196)
Strobe/Lamp Enabled: No (USB2E7196)
Correct for Detector Non-linearity: No (USB2E7196)
Correct for Stray Light: No (USB2E7196)
Number of Pixels in Processed Spectrum: 2048
>>>>>Begin Processed Spectral Data<<<<<
339.09	0.00
339.48	214.96
339.86	216.09
340.24	217.39
340.63	219.36
341.01	221.45
341.39	221.88
341.78	223.26
342.16	224.42
342.54	224.69
342.93	213.06
343.31	223.85
343.69	224.41
344.07	224.87
344.46	225.31
344.84	225.68
345.22	225.93
345.60	226.17
345.99	226.34
346.37	226.46
346.75	226.56
347.13	226.62
347.52	226.69
347.90	226.76
348.28	226.78
348.66	226.82
349.05	226.80
349.43	226.84
349.81	226.93
350.19	226.98
350.57	227.05
350.96	227.15
351.34	227.22
351.72	227.26
352.10	227.36
352.48	227.40
352.87	227.43
353.25	227.50
353.63	227.57
354.01	227.65
354.39	227.71
354.77	227.80
355.15	227.93
355.54	227.98
355.92	228.02
356.30	228.09
356.68	228.25
357.06	228.37
357.44	228.42
357.82	228.45
358.20	228.53
358.58	228.59
358.97	228.66
359.35	228.71
359.73	228.80
360.11	228.85
360.49	228.95
360.87	229.00
361.25	229.06
361.63	229.14
362.01	229.18
362.39	229.21
362.77	229.24
363.15	229.29
363.53	229.33
363.91	229.37
364.29	229.36
364.67	229.25
365.05	229.23
365.43	229.25
365.81	229.29
366.19	229.32
366.57	229.32
366.95	229.31
367.33	229.29
367.71	229.29
368.09	229.31
368.47	229.28
368.85	229.29
369.23	229.26
369.61	229.16
369.99	229.17
370.37	229.13
370.75	229.13
371.13	229.03
371.51	228.93
371.89	228.89
372.27	228.85
372.65	228.85
373.03	228.83
373.41	228.79
373.78	228.70
374.16	228.62
374.54	228.58
374.92	228.51
375.30	228.47
375.68	228.38
376.06	228.29
376.44	228.20
376.82	228.12
377.19	228.06
377.57	228.02
377.95	227.91
378.33	227.85
378.71	227.74
379.09	227.73
379.47	227.71
379.84	227.62
380.22	227.54
380.60	227.47
380.98	227.35
381.36	227.28
381.73	227.20
382.11	227.14
382.49	227.07
382.87	226.98
383.25	226.90
383.62	226.96
384.00	226.93
384.38	226.91
384.76	226.85
385.13	226.81
385.51	226.76
385.89	226.70
386.27	226.65
386.64	226.61
387.02	226.53
387.40	226.49
387.78	226.44
388.15	226.40
388.53	226.33
388.91	226.34
389.29	226.30
389.66	226.30
390.04	226.28
390.42	226.26
390.79	226.28
391.17	226.26
391.55	226.13
391.92	226.10
392.30	226.11
392.68	226.14
393.05	226.15
393.43	226.17
393.81	226.23
394.18	226.26
394.56	226.26
394.94	226.28
395.31	226.30
395.69	226.38
396.06	226.40
396.44	226.45
396.82	226.47
397.19	226.55
397.57	226.58
397.95	226.62
398.32	226.65
398.70	226.69
399.07	226.75
399.45	226.80
399.82	226.87
400.20	226.93
400.58	226.96
400.95	226.99
401.33	227.06
401.70	227.17
402.08	227.28
402.45	227.38
402.83	227.54
403.20	227.68
403.58	227.77
403.95	227.95
404.33	228.09
404.71	228.22
405.08	228.39
405.46	228.52
405.83	228.70
406.21	228.87
406.58	229.06
406.96	229.24
407.33	229.41
407.70	229.63
408.08	229.89
408.45	230.13
408.83	230.36
409.20	230.56
409.58	230.74
409.95	231.00
410.33	231.26
410.70	231.48
411.08	231.73
411.45	232.03
411.82	232.32
412.20	232.67
412.57	233.08
412.95	233.36
413.32	233.78
413.69	234.18
414.07	234.56
414.44	235.01
414.82	235.46
415.19	236.00
415.56	236.49
415.94	237.01
416.31	237.66
416.68	238.31
417.06	239.06
417.43	239.74
417.81	240.49
418.18	241.31
418.55	242.15
418.93	243.02
419.30	243.90
419.67	244.85
420.04	245.78
420.42	246.78
420.79	247.96
421.16	249.12
421.54	250.30
421.91	251.52
422.28	252.78
422.66	254.14
423.03	255.44
423.40	256.80
423.77	258.22
424.15	259.62
424.52	261.10
424.89	262.69
425.26	264.25
425.64	265.68
426.01	267.24
426.38	268.92
426.75	270.60
427.13	272.33
427.50	274.13
427.87	276.04
428.24	277.89
428.61	279.62
428.99	281.59
429.36	283.69
429.73	285.79
430.10	287.84
430.47	289.86
430.85	292.01
431.22	294.22
431.59	296.60
431.96	298.79
432.33	301.27
432.70	303.62
433.08	306.42
433.45	309.08
433.82	311.71
434.19	314.55
434.56	317.36
434.93	320.03
435.30	322.66
435.68	325.56
436.05	328.43
436.42	331.25
436.79	333.76
437.16	336.42
437.53	339.25
437.90	342.06
438.27	344.79
438.64	347.60
439.01	350.23
439.38	352.48
439.75	354.71
440.13	357.23
440.50	359.55
440.87	361.38
441.24	363.22
441.61	365.36
441.98	366.86
442.35	368.63
442.72	370.45
443.09	372.22
443.46	373.20
443.83	373.72
444.20	374.19
444.57	375.03
444.94	375.33
445.31	375.67
445.68	376.02
446.05	376.12
446.42	375.69
446.79	375.20
447.16	374.78
447.53	374.42
447.90	373.24
448.27	372.12
448.64	370.57
449.01	369.49
449.37	367.48
449.74	365.58
450.11	363.39
450.48	360.89
450.85	358.39
451.22	356.22
451.59	354.20
451.96	352.29
452.33	349.65
452.70	347.32
453.07	344.48
453.43	341.57
453.80	338.83
454.17	336.18
454.54	333.69
454.91	330.98
455.28	328.37
455.65	325.89
456.02	323.44
456.38	321.28
456.75	318.69
457.12	316.48
457.49	314.29
457.86	312.10
458.23	310.29
458.59	308.23
458.96	306.17
459.33	304.33
459.70	302.47
460.07	300.99
460.43	299.29
460.80	297.67
461.17	296.25
461.54	294.75
461.91	293.38
462.27	291.97
462.64	290.66
463.01	289.26
463.38	287.94
463.74	286.55
464.11	285.42
464.48	284.35
464.85	283.24
465.21	282.37
465.58	281.44
465.95	280.32
466.32	279.41
466.68	278.53
467.05	277.63
467.42	276.74
467.78	275.80
468.15	274.94
468.52	274.28
468.88	273.38
469.25	272.60
469.62	271.96
469.98	271.25
470.35	270.66
470.72	270.12
471.08	269.49
471.45	268.97
471.82	268.42
472.18	267.83
472.55	267.42
472.92	266.88
473.28	266.42
473.65	266.00
474.02	265.58
474.38	265.19
474.75	264.91
475.11	264.56
475.48	264.28
475.85	264.05
476.21	263.82
476.58	263.67
476.94	263.52
477.31	263.36
477.67	263.17
478.04	263.08
478.41	262.97
478.77	263.01
479.14	262.94
479.50	262.94
479.87	263.03
480.23	263.10
480.60	263.16
480.96	263.26
481.33	263.44
481.69	263.64
482.06	263.85
482.42	264.03
482.79	264.32
483.15	264.64
483.52	265.01
483.88	265.38
484.25	265.76
484.61	266.20
484.98	266.66
485.34	267.28
485.71	267.82
486.07	268.44
486.44	268.99
486.80	269.70
487.17	270.40
487.53	271.21
487.90	272.06
488.26	273.03
488.62	274.03
488.99	275.05
489.35	276.07
489.72	277.21
490.08	278.46
490.44	279.67
490.81	281.02
491.17	282.36
491.54	283.81
491.90	285.35
492.26	286.97
492.63	288.71
492.99	290.51
493.36	292.46
493.72	294.53
494.08	296.61
494.45	298.89
494.81	301.29
495.17	303.70
495.54	306.26
495.90	308.96
496.26	311.76
496.63	314.69
496.99	317.86
497.35	321.13
497.72	324.51
498.08	328.10
498.44	331.79
498.80	335.77
499.17	339.83
499.53	344.02
499.89	348.41
500.26	352.91
500.62	357.55
500.98	362.53
501.34	367.63
501.71	373.00
502.07	378.45
502.43	384.04
502.79	389.84
503.16	395.92
503.52	402.17
503.88	408.59
504.24	415.23
504.60	422.09
504.97	429.20
505.33	436.49
505.69	444.18
506.05	451.92
506.41	459.80
506.78	467.96
507.14	476.38
507.50	485.16
507.86	494.17
508.22	503.36
508.59	512.55
508.95	522.13
509.31	531.98
509.67	542.11
510.03	552.40
510.39	562.99
510.75	573.82
511.12	584.77
511.48	596.13
511.84	607.53
512.20	619.06
512.56	631.04
512.92	643.31
513.28	655.65
513.64	668.12
514.00	680.78
514.37	693.84
514.73	706.92
515.09	719.88
515.45	733.15
515.81	746.76
516.17	760.76
516.53	774.79
516.89	788.87
517.25	803.04
517.61	817.55
517.97	832.03
518.33	846.44
518.69	861.13
519.05	876.09
519.41	891.32
519.77	906.84
520.13	922.23
520.49	937.55
520.85	952.87
521.21	968.62
521.57	984.84
521.93	1000.39
522.29	1016.74
522.65	1032.94
523.01	1049.17
523.37	1065.14
523.73	1081.25
524.09	1097.27
524.45	1113.54
524.81	1130.08
525.17	1146.84
525.53	1163.68
525.89	1180.48
526.25	1197.31
526.61	1213.60
526.97	1230.33
527.33	1246.70
527.68	1263.26
528.04	1279.80
528.40	1296.41
528.76	1313.38
529.12	1329.94
529.48	1346.90
529.84	1362.95
530.20	1379.57
530.56	1396.62
530.91	1413.98
531.27	1430.73
531.63	1447.32
531.99	1463.79
532.35	1479.69
532.71	1495.50
533.07	1511.62
533.42	1527.48
533.78	1543.47
534.14	1559.76
534.50	1575.09
534.86	1591.04
535.21	1606.24
535.57	1622.09
535.93	1637.50
536.29	1652.17
536.65	1667.06
537.00	1681.82
537.36	1697.02
537.72	1711.57
538.08	1725.84
538.44	1739.46
538.79	1753.23
539.15	1766.83
539.51	1780.60
539.87	1794.92
540.22	1808.67
540.58	1822.51
540.94	1835.95
541.29	1848.79
541.65	1861.36
542.01	1874.40
542.37	1886.74
542.72	1899.08
543.08	1910.72
543.44	1923.14
543.79	1934.40
544.15	1945.47
544.51	1956.91
544.87	1967.93
545.22	1978.67
545.58	1988.89
545.94	1998.75
546.29	2008.62
546.65	2018.44
547.01	2027.64
547.36	2036.26
547.72	2044.76
548.07	2052.52
548.43	2060.62
548.79	2068.74
549.14	2076.34
549.50	2083.68
549.86	2091.20
550.21	2098.52
550.57	2105.74
550.92	2112.38
551.28	2119.51
551.64	2126.58
551.99	2133.08
552.35	2139.16
552.70	2145.29
553.06	2151.27
553.41	2157.65
553.77	2163.73
554.13	2169.87
554.48	2176.21
554.84	2181.63
555.19	2186.92
555.55	2192.13
555.90	2196.48
556.26	2201.16
556.61	2205.95
556.97	2210.18
557.32	2214.35
557.68	2218.43
558.03	2222.71
558.39	2226.27
558.74	2230.92
559.10	2234.78
559.45	2238.56
559.81	2242.91
560.16	2246.89
560.52	2250.06
560.87	2253.47
561.23	2256.06
561.58	2259.04
561.94	2261.43
562.29	2263.87
562.64	2266.48
563.00	2268.99
563.35	2272.51
563.71	2275.84
564.06	2279.09
564.42	2282.03
564.77	2284.38
565.12	2286.66
565.48	2288.56
565.83	2290.46
566.19	2291.79
566.54	2292.85
566.89	2293.94
567.25	2294.51
567.60	2295.71
567.96	2297.39
568.31	2298.24
568.66	2299.33
569.02	2299.82
569.37	2300.14
569.72	2301.05
570.08	2301.15
570.43	2301.25
570.78	2300.78
571.14	2299.23
571.49	2297.60
571.84	2297.35
572.20	2296.39
572.55	2295.49
572.90	2293.93
573.26	2292.51
573.61	2290.65
573.96	2288.68
574.31	2285.73
574.67	2282.65
575.02	2279.04
575.37	2275.71
575.72	2271.88
576.08	2268.60
576.43	2265.20
576.78	2261.62
577.13	2258.50
577.49	2255.47
577.84	2251.94
578.19	2248.23
578.54	2244.54
578.90	2240.43
579.25	2234.80
579.60	2229.75
579.95	2224.59
580.30	2219.58
580.66	2214.39
581.01	2209.50
581.36	2204.76
581.71	2200.49
582.06	2196.12
582.42	2191.71
582.77	2186.50
583.12	2182.03
583.47	2177.45
583.82	2172.50
584.17	2167.19
584.53	2161.69
584.88	2155.98
585.23	2150.29
585.58	2144.84
585.93	2139.48
586.28	2134.81
586.63	2129.79
586.98	2124.82
587.34	2120.20
587.69	2115.41
588.04	2110.19
588.39	2104.58
588.74	2098.03
589.09	2092.05
589.44	2085.40
589.79	2079.36
590.14	2073.83
590.49	2067.13
590.84	2060.69
591.19	2054.58
591.54	2048.21
591.89	2040.85
592.25	2034.01
592.60	2026.81
592.95	2019.18
593.30	2011.76
593.65	2004.18
594.00	1997.24
594.35	1989.98
594.70	1982.00
595.05	1974.62
595.40	1967.43
595.75	1959.96
596.10	1953.79
596.45	1946.88
596.80	1940.59
597.15	1933.86
597.50	1926.75
597.85	1920.51
598.19	1913.83
598.54	1906.76
598.89	1900.06
599.24	1894.20
599.59	1887.58
599.94	1881.46
600.29	1875.12
600.64	1868.62
600.99	1861.23
601.34	1854.32
601.69	1847.36
602.04	1840.46
602.39	1833.36
602.74	1826.41
603.08	1819.75
603.43	1813.00
603.78	1805.74
604.13	1798.48
604.48	1791.28
604.83	1784.20
605.18	1776.99
605.53	1769.07
605.87	1761.21
606.22	1753.99
606.57	1746.01
606.92	1738.77
607.27	1731.51
607.62	1724.57
607.96	1717.17
608.31	1710.45
608.66	1702.84
609.01	1695.38
609.36	1687.75
609.70	1679.54
610.05	1671.50
610.40	1663.65
610.75	1655.25
611.10	1647.58
611.44	1639.17
611.79	1631.27
612.14	1622.74
612.49	1613.69
612.83	1605.33
613.18	1597.10
613.53	1588.96
613.88	1580.43
614.22	1572.09
614.57	1563.42
614.92	1555.42
615.27	1547.86
615.61	1539.54
615.96	1531.62
616.31	1523.94
616.65	1516.66
617.00	1509.10
617.35	1501.49
617.70	1493.22
618.04	1484.71
618.39	1476.52
618.74	1468.93
619.08	1460.55
619.43	1452.99
619.78	1446.14
620.12	1438.81
620.47	1431.23
620.82	1423.03
621.16	1415.66
621.51	1408.11
621.85	1400.41
622.20	1391.85
622.55	1383.43
622.89	1375.66
623.24	1367.85
623.59	1360.42
623.93	1352.77
624.28	1345.62
624.62	1337.97
624.97	1330.69
625.32	1324.15
625.66	1317.07
626.01	1309.92
626.35	1302.41
626.70	1294.73
627.04	1286.88
627.39	1279.11
627.73	1271.80
628.08	1264.94
628.43	1257.56
628.77	1250.14
629.12	1242.71
629.46	1235.55
629.81	1228.21
630.15	1220.85
630.50	1213.54
630.84	1205.36
631.19	1197.50
631.53	1189.95
631.88	1182.46
632.22	1174.95
632.57	1167.48
632.91	1159.96
633.26	1152.50
633.60	1145.16
633.95	1138.05
634.29	1131.10
634.64	1124.48
634.98	1117.05
635.32	1109.88
635.67	1103.37
636.01	1096.70
636.36	1089.87
636.70	1083.40
637.05	1076.84
637.39	1070.42
637.73	1063.86
638.08	1057.95
638.42	1051.93
638.77	1045.44
639.11	1038.88
639.45	1032.55
639.80	1025.91
640.14	1019.53
640.49	1012.98
640.83	1006.68
641.17	1000.38
641.52	993.96
641.86	987.50
642.20	981.64
642.55	975.35
642.89	968.85
643.23	962.39
643.58	956.69
643.92	950.49
644.26	944.45
644.61	938.54
644.95	932.51
645.29	926.00
645.64	919.29
645.98	913.00
646.32	907.23
646.66	901.14
647.01	895.32
647.35	889.57
647.69	883.77
648.04	878.27
648.38	872.46
648.72	866.45
649.06	860.45
649.41	854.63
649.75	848.67
650.09	842.78
650.43	836.92
650.78	830.75
651.12	824.81
651.46	819.06
651.80	813.18
652.14	807.93
652.49	802.52
652.83	797.36
653.17	791.62
653.51	785.90
653.85	780.51
654.20	774.86
654.54	768.89
654.88	763.23
655.22	757.32
655.56	751.60
655.90	746.21
656.25	740.95
656.59	735.60
656.93	730.51
657.27	725.25
657.61	719.83
657.95	714.69
658.29	709.57
658.64	704.32
658.98	699.03
659.32	693.45
659.66	688.20
660.00	682.83
660.34	677.94
660.68	672.96
661.02	667.90
661.36	663.21
661.70	658.68
662.05	654.24
662.39	649.92
662.73	645.52
663.07	641.11
663.41	636.61
663.75	632.01
664.09	627.46
664.43	623.04
664.77	618.99
665.11	614.75
665.45	610.62
665.79	606.47
666.13	602.36
666.47	598.31
666.81	594.13
667.15	589.99
667.49	586.10
667.83	582.35
668.17	578.44
668.51	574.39
668.85	570.40
669.19	566.56
669.53	562.69
669.87	558.79
670.21	555.10
670.55	551.53
670.89	548.22
671.23	544.77
671.57	541.34
671.91	537.71
672.25	534.25
672.58	530.72
672.92	527.38
673.26	524.22
673.60	521.09
673.94	518.02
674.28	515.15
674.62	512.17
674.96	509.02
675.30	506.10
675.64	503.14
675.97	500.36
676.31	497.53
676.65	494.62
676.99	491.94
677.33	489.13
677.67	486.26
678.01	483.16
678.34	480.16
678.68	477.29
679.02	474.46
679.36	471.67
679.70	468.96
680.04	466.21
680.37	463.35
680.71	460.50
681.05	457.90
681.39	455.19
681.73	452.59
682.06	450.09
682.40	447.55
682.74	445.06
683.08	442.50
683.42	439.92
683.75	437.40
684.09	434.79
684.43	432.30
684.77	429.81
685.10	427.48
685.44	425.20
685.78	422.89
686.12	420.74
686.45	418.44
686.79	416.13
687.13	413.93
687.46	411.79
687.80	409.70
688.14	407.47
688.48	405.41
688.81	403.11
689.15	400.96
689.49	398.81
689.82	396.68
690.16	394.61
690.50	392.63
690.83	390.72
691.17	388.75
691.51	386.87
691.84	385.06
692.18	383.15
692.52	381.12
692.85	379.21
693.19	377.27
693.52	375.43
693.86	373.64
694.20	371.83
694.53	370.02
694.87	368.16
695.21	366.40
695.54	364.57
695.88	362.89
696.21	361.13
696.55	359.40
696.88	357.74
697.22	356.07
697.56	354.47
697.89	352.76
698.23	351.18
698.56	349.55
698.90	347.94
699.23	346.25
699.57	344.73
699.90	343.13
700.24	341.59
700.58	340.05
700.91	338.54
701.25	337.08
701.58	335.71
701.92	334.35
702.25	332.93
702.59	331.58
702.92	330.22
703.26	328.93
703.59	327.64
703.93	326.45
704.26	325.21
704.60	323.87
704.93	322.61
705.26	321.34
705.60	320.12
705.93	318.95
706.27	317.93
706.60	316.87
706.94	315.82
707.27	314.70
707.61	313.62
707.94	312.63
708.27	311.55
708.61	310.47
708.94	309.43
709.28	308.48
709.61	307.49
709.94	306.53
710.28	305.48
710.61	304.52
710.95	303.45
711.28	302.55
711.61	301.62
711.95	300.71
712.28	299.77
712.61	298.83
712.95	297.89
713.28	297.00
713.61	296.14
713.95	295.24
714.28	294.40
714.61	293.55
714.95	292.68
715.28	291.79
715.61	290.90
715.95	290.00
716.28	289.12
716.61	288.32
716.95	287.52
717.28	286.81
717.61	286.07
717.94	285.34
718.28	284.51
718.61	283.79
718.94	283.10
719.27	282.44
719.61	281.80
719.94	281.16
720.27	280.46
720.60	279.81
720.94	279.19
721.27	278.62
721.60	278.04
721.93	277.41
722.27	276.88
722.60	276.34
722.93	275.79
723.26	275.26
723.59	274.69
723.93	274.13
724.26	273.58
724.59	273.05
724.92	272.49
725.25	272.03
725.59	271.50
725.92	270.99
726.25	270.49
726.58	269.97
726.91	269.48
727.24	269.03
727.57	268.52
727.91	268.04
728.24	267.54
728.57	267.06
728.90	266.64
729.23	266.19
729.56	265.74
729.89	265.30
730.22	264.82
730.55	264.38
730.89	263.94
731.22	263.49
731.55	263.05
731.88	262.62
732.21	262.21
732.54	261.79
732.87	261.36
733.20	260.96
733.53	260.63
733.86	260.30
734.19	259.88
734.52	259.50
734.85	259.18
735.18	258.77
735.51	258.40
735.84	258.05
736.17	257.70
736.50	257.31
736.83	257.09
737.16	256.76
737.49	256.42
737.82	256.04
738.15	255.73
738.48	255.44
738.81	255.10
739.14	254.76
739.47	254.46
739.80	254.13
740.13	253.80
740.46	253.42
740.79	253.06
741.12	252.76
741.45	252.45
741.78	252.10
742.11	251.84
742.44	251.50
742.77	251.21
743.10	250.86
743.43	250.58
743.75	250.18
744.08	250.07
744.41	249.77
744.74	249.55
745.07	249.25
745.40	248.98
745.73	248.76
746.06	248.48
746.39	248.21
746.71	247.96
747.04	247.68
747.37	247.44
747.70	247.17
748.03	246.93
748.36	246.71
748.68	246.44
749.01	246.17
749.34	245.97
749.67	245.75
750.00	245.57
750.33	245.42
750.65	245.23
750.98	244.87
751.31	244.62
751.64	244.42
751.97	244.25
752.29	244.01
752.62	243.77
752.95	243.55
753.28	243.34
753.60	243.14
753.93	242.98
754.26	242.81
754.59	242.57
754.91	242.35
755.24	242.15
755.57	241.98
755.90	241.80
756.22	241.61
756.55	241.39
756.88	241.20
757.20	240.95
757.53	240.76
757.86	240.56
758.19	240.46
758.51	240.27
758.84	240.07
759.17	239.89
759.49	239.77
759.82	239.65
760.15	239.50
760.47	239.37
760.80	239.22
761.13	239.08
761.45	238.92
761.78	238.77
762.11	238.65
762.43	238.49
762.76	238.35
763.08	238.22
763.41	238.11
763.74	237.95
764.06	237.80
764.39	237.64
764.71	237.53
765.04	237.35
765.37	237.22
765.69	237.07
766.02	236.95
766.34	236.83
766.67	236.68
767.00	236.61
767.32	236.53
767.65	236.44
767.97	236.31
768.30	236.21
768.62	236.10
768.95	235.94
769.27	235.82
769.60	235.73
769.92	235.62
770.25	235.48
770.57	235.39
770.90	235.26
771.22	235.15
771.55	235.04
771.87	234.99
772.20	234.86
772.52	234.84
772.85	234.84
773.17	234.72
773.50	234.60
773.82	234.45
774.15	234.31
774.47	234.16
774.80	234.08
775.12	234.01
775.45	233.92
775.77	233.84
776.09	233.76
776.42	233.69
776.74	233.62
777.07	233.54
777.39	233.46
777.72	233.40
778.04	233.33
778.36	233.25
778.69	233.16
779.01	233.13
779.33	232.98
779.66	232.83
779.98	232.76
780.31	232.71
780.63	232.69
780.95	232.65
781.28	232.58
781.60	232.49
781.92	232.43
782.25	232.39
782.57	232.36
782.89	232.30
783.22	232.23
783.54	232.16
783.86	232.10
784.19	232.02
784.51	231.98
784.83	231.95
785.16	231.89
785.48	231.83
785.80	231.74
786.12	231.74
786.45	231.65
786.77	231.64
787.09	231.59
787.42	231.51
787.74	231.47
788.06	231.44
788.38	231.41
788.71	231.34
789.03	231.28
789.35	231.27
789.67	231.20
789.99	231.17
790.32	231.12
790.64	231.11
790.96	231.16
791.28	231.11
791.61	231.06
791.93	231.07
792.25	231.02
792.57	231.08
792.89	231.01
793.21	230.99
793.54	230.94
793.86	230.89
794.18	230.85
794.50	230.79
794.82	230.76
795.14	230.73
795.47	230.76
795.79	230.75
796.11	230.69
796.43	230.69
796.75	230.65
797.07	230.63
797.39	230.60
797.71	230.52
798.04	230.50
798.36	230.47
798.68	230.44
799.00	230.41
799.32	230.35
799.64	230.34
799.96	230.30
800.28	230.27
800.60	230.25
800.92	230.22
801.24	230.17
801.56	230.11
801.89	230.06
802.21	229.98
802.53	229.94
802.85	229.93
803.17	229.94
803.49	229.87
803.81	229.82
804.13	229.79
804.45	229.74
804.77	229.72
805.09	229.69
805.41	229.62
805.73	229.60
806.05	229.51
806.37	229.50
806.69	229.49
807.01	229.44
807.33	229.41
807.65	229.35
807.97	229.40
808.28	229.38
808.60	229.33
808.92	229.33
809.24	229.35
809.56	229.28
809.88	229.22
810.20	229.19
810.52	229.16
810.84	229.11
811.16	229.03
811.48	228.97
811.80	228.96
812.12	228.91
812.43	228.87
812.75	228.85
813.07	228.78
813.39	228.73
813.71	228.73
814.03	228.71
814.35	228.71
814.67	228.60
814.98	228.60
815.30	228.60
815.62	228.56
815.94	228.46
816.26	228.51
816.58	228.46
816.89	228.46
817.21	228.43
817.53	228.43
817.85	228.42
818.17	228.44
818.48	228.39
818.80	228.40
819.12	228.38
819.44	228.36
819.76	228.35
820.07	228.34
820.39	228.31
820.71	228.27
821.03	228.27
821.34	228.28
821.66	228.26
821.98	228.26
822.30	228.24
822.61	228.31
822.93	228.24
823.25	228.24
823.57	228.20
823.88	228.22
824.20	228.22
824.52	228.26
824.83	228.23
825.15	228.23
825.47	228.21
825.79	228.22
826.10	228.22
826.42	228.22
826.74	228.20
827.05	228.21
827.37	228.26
827.69	228.20
828.00	228.16
828.32	228.18
828.64	228.17
828.95	228.19
829.27	228.15
829.58	228.15
829.90	228.14
830.22	228.14
830.53	228.10
830.85	228.05
831.17	228.01
831.48	228.02
831.80	228.00
832.11	228.03
832.43	228.00
832.75	227.97
833.06	228.03
833.38	228.04
833.69	227.99
834.01	227.93
834.32	227.95
834.64	227.96
834.96	227.97
835.27	227.96
835.59	227.94
835.90	227.92
836.22	227.93
836.53	227.93
836.85	227.93
837.16	228.04
837.48	228.03
837.79	228.08
838.11	228.08
838.42	228.10
838.74	228.10
839.05	228.11
839.37	228.12
839.68	228.04
840.00	228.00
840.31	228.04
840.63	228.05
840.94	228.03
841.26	228.02
841.57	227.95
841.88	227.94
842.20	227.90
842.51	227.87
842.83	227.82
843.14	227.91
843.46	227.90
843.77	227.84
844.08	227.84
844.40	227.79
844.71	227.77
845.03	227.76
845.34	227.76
845.65	227.73
845.97	227.72
846.28	227.70
846.60	227.72
846.91	227.69
847.22	227.69
847.54	227.73
847.85	227.72
848.16	227.70
848.48	227.68
848.79	227.74
849.10	227.74
849.42	227.77
849.73	227.63
850.04	227.62
850.36	227.57
850.67	227.57
850.98	227.57
851.30	227.56
851.61	227.51
851.92	227.47
852.23	227.50
852.55	227.50
852.86	227.50
853.17	227.48
853.49	227.47
853.80	227.48
854.11	227.45
854.42	227.45
854.74	227.44
855.05	227.43
855.36	227.35
855.67	227.37
855.99	227.33
856.30	227.46
856.61	227.44
856.92	227.43
857.23	227.44
857.55	227.42
857.86	227.41
858.17	227.47
858.48	227.43
858.79	227.40
859.11	227.40
859.42	227.37
859.73	227.36
860.04	227.38
860.35	227.34
860.66	227.32
860.98	227.32
861.29	227.33
861.60	227.31
861.91	227.33
862.22	227.32
862.53	227.31
862.84	227.19
863.16	227.21
863.47	227.19
863.78	227.19
864.09	227.20
864.40	227.22
864.71	227.18
865.02	227.20
865.33	227.20
865.64	227.16
865.95	227.19
866.27	227.27
866.58	227.24
866.89	227.27
867.20	227.22
867.51	227.23
867.82	227.22
868.13	227.29
868.44	227.28
868.75	227.27
869.06	227.30
869.37	227.31
869.68	227.29
869.99	227.31
870.30	227.30
870.61	227.31
870.92	227.29
871.23	227.27
871.54	227.28
871.85	227.31
872.16	227.33
872.47	227.32
872.78	227.24
873.09	227.23
873.40	227.19
873.71	227.25
874.02	227.24
874.33	227.25
874.64	227.19
874.95	227.21
875.26	227.21
875.56	227.18
875.87	227.20
876.18	227.18
876.49	227.25
876.80	227.24
877.11	227.23
877.42	227.26
877.73	227.29
878.04	227.31
878.35	227.30
878.66	227.32
878.96	227.33
879.27	227.35
879.58	227.38
879.89	227.40
880.20	227.41
880.51	227.43
880.82	227.42
881.12	227.43
881.43	227.39
881.74	227.39
882.05	227.38
882.36	227.39
882.67	227.44
882.97	227.36
883.28	227.35
883.59	227.32
883.90	227.29
884.21	227.28
884.51	227.25
884.82	227.22
885.13	227.20
885.44	227.19
885.74	227.17
886.05	227.13
886.36	227.15
886.67	227.10
886.98	227.13
887.28	227.13
887.59	227.13
887.90	227.15
888.20	227.09
888.51	227.09
888.82	227.05
889.13	227.03
889.43	227.09
889.74	227.10
890.05	227.09
890.35	227.09
890.66	227.07
890.97	227.05
891.28	227.05
891.58	227.03
891.89	227.05
892.20	227.04
892.50	227.03
892.81	226.96
893.12	226.97
893.42	226.91
893.73	226.89
894.04	226.89
894.34	226.89
894.65	226.91
894.95	226.93
895.26	226.96
895.57	227.01
895.87	226.93
896.18	226.92
896.48	226.94
896.79	226.93
897.10	226.94
897.40	226.95
897.71	226.92
898.01	226.91
898.32	226.88
898.63	226.88
898.93	226.88
899.24	226.88
899.54	226.89
899.85	226.85
900.15	226.86
900.46	226.83
900.76	226.82
901.07	226.82
901.38	226.79
901.68	226.77
901.99	226.68
902.29	226.67
902.60	226.66
902.90	226.65
903.21	226.63
903.51	226.62
903.82	226.64
904.12	226.65
904.43	226.68
904.73	226.69
905.03	226.71
905.34	226.81
905.64	226.83
905.95	226.84
906.25	226.89
906.56	226.87
906.86	226.88
907.17	226.90
907.47	226.92
907.77	226.91
908.08	226.92
908.38	226.95
908.69	226.99
908.99	227.04
909.30	227.04
909.60	227.06
909.90	227.06
910.21	227.02
910.51	227.03
910.81	227.00
911.12	226.99
911.42	226.99
911.73	226.89
912.03	226.89
912.33	226.91
912.64	226.90
912.94	226.91
913.24	226.92
913.55	226.92
913.85	226.90
914.15	226.96
914.46	226.95
914.76	226.95
915.06	226.95
915.37	226.91
915.67	226.91
915.97	226.91
916.27	226.92
916.58	226.93
916.88	226.92
917.18	226.95
917.49	227.03
917.79	227.04
918.09	227.05
918.39	227.07
918.70	227.07
919.00	227.08
919.30	227.14
919.60	227.17
919.91	227.17
920.21	227.18
920.51	227.14
920.81	227.15
921.12	227.19
921.42	227.16
921.72	227.17
922.02	227.19
922.32	227.20
922.63	227.22
922.93	227.26
923.23	227.25
923.53	227.24
923.83	227.17
924.13	227.17
924.44	227.19
924.74	227.21
925.04	227.22
925.34	227.21
925.64	227.12
925.94	227.09
926.24	227.14
926.55	227.13
926.85	227.14
927.15	227.13
927.45	227.07
927.75	227.07
928.05	227.04
928.35	227.03
928.65	227.00
928.95	226.95
929.26	226.93
929.56	226.93
929.86	226.96
930.16	226.94
930.46	226.92
930.76	226.93
931.06	226.86
931.36	226.81
931.66	226.84
931.96	226.87
932.26	226.84
932.56	226.76
932.86	226.77
933.16	226.74
933.46	226.70
933.76	226.71
934.06	226.73
934.36	226.78
934.66	226.74
934.96	226.79
935.26	226.79
935.56	226.79
935.86	226.78
936.16	226.72
936.46	226.72
936.76	226.72
937.06	226.68
937.36	226.69
937.66	226.69
937.96	226.69
938.26	226.63
938.56	226.64
938.86	226.67
939.16	226.69
939.46	226.74
939.76	226.78
940.06	226.74
940.35	226.73
940.65	226.69
940.95	226.73
941.25	226.67
941.55	226.69
941.85	226.66
942.15	226.70
942.45	226.75
942.75	226.74
943.04	226.77
943.34	226.81
943.64	226.80
943.94	226.80
944.24	226.78
944.54	226.83
944.84	226.80
945.13	226.82
945.43	226.80
945.73	226.81
946.03	226.81
946.33	226.85
946.62	226.81
946.92	226.83
947.22	226.84
947.52	226.87
947.82	226.87
948.11	226.87
948.41	226.83
948.71	226.80
949.01	226.81
949.31	226.78
949.60	226.77
949.90	226.81
950.20	226.83
950.50	226.81
950.79	226.78
951.09	226.83
951.39	226.81
951.69	226.79
951.98	226.79
952.28	226.77
952.58	226.78
952.87	226.81
953.17	226.80
953.47	226.77
953.76	226.78
954.06	226.79
954.36	226.77
954.66	226.77
954.95	226.82
955.25	226.83
955.55	226.82
955.84	226.82
956.14	226.83
956.44	226.81
956.73	226.81
957.03	226.89
957.32	226.88
957.62	226.89
957.92	226.91
958.21	226.89
958.51	226.97
958.81	226.95
959.10	226.96
959.40	227.00
959.69	227.02
959.99	227.04
960.29	227.02
960.58	227.02
960.88	227.02
961.17	226.99
961.47	227.00
961.76	227.00
962.06	227.04
962.36	227.02
962.65	227.05
962.95	227.01
963.24	226.98
963.54	226.96
963.83	226.98
964.13	226.97
964.42	226.93
964.72	226.86
965.01	226.86
965.31	226.86
965.60	226.81
965.90	226.87
966.19	226.79
966.49	226.83
966.78	226.82
967.08	226.84
967.37	226.81
967.67	226.81
967.96	226.83
968.26	226.79
968.55	226.80
968.85	226.82
969.14	226.83
969.43	226.79
969.73	226.78
970.02	226.74
970.32	226.71
970.61	226.70
970.91	226.67
971.20	226.63
971.49	226.60
971.79	226.58
972.08	226.51
972.38	226.55
972.67	226.54
972.96	226.52
973.26	226.51
973.55	226.55
973.85	226.53
974.14	226.49
974.43	226.48
974.73	226.42
975.02	226.34
975.31	226.34
975.61	226.35
975.90	226.34
976.19	226.33
976.49	226.35
976.78	226.37
977.07	226.37
977.37	226.38
977.66	226.39
977.95	226.41
978.24	226.41
978.54	226.41
978.83	226.38
979.12	226.42
979.42	226.42
979.71	226.41
980.00	226.42
980.29	226.44
980.59	226.45
980.88	226.49
981.17	226.54
981.46	226.56
981.76	226.56
982.05	226.60
982.34	226.63
982.63	226.63
982.93	226.64
983.22	226.68
983.51	226.72
983.80	226.74
984.09	226.76
984.39	226.74
984.68	226.73
984.97	226.73
985.26	226.70
985.55	226.71
985.85	226.71
986.14	226.73
986.43	226.77
986.72	226.72
987.01	226.70
987.30	226.68
987.59	226.68
987.89	226.70
988.18	226.71
988.47	226.70
988.76	226.72
989.05	226.71
989.34	226.71
989.63	226.72
989.92	226.72
990.22	226.68
990.51	226.72
990.80	226.74
991.09	226.79
991.38	226.85
991.67	226.82
991.96	226.82
992.25	226.82
992.54	226.80
992.83	226.81
993.12	226.82
993.41	226.86
993.70	226.90
993.99	226.94
994.28	226.94
994.58	226.98
994.87	226.97
995.16	226.97
995.45	226.96
995.74	226.93
996.03	226.94
996.32	226.97
996.61	227.00
996.90	226.99
997.19	226.97
997.48	226.96
997.77	226.95
998.06	226.95
998.34	226.92
998.63	226.89
998.92	226.92
999.21	226.93
999.50	226.88
999.79	226.84
1000.08	226.79
1000.37	226.79
1000.66	226.75
1000.95	226.78
1001.24	226.79
1001.53	226.80
1001.82	226.75
1002.11	226.71
1002.40	226.68
1002.68	226.65
1002.97	226.69
1003.26	226.64
1003.55	226.60
1003.84	226.61
1004.13	226.61
1004.42	226.59
1004.71	226.60
1004.99	226.54
1005.28	226.54
1005.57	226.54
1005.86	226.52
1006.15	226.48
1006.44	226.42
1006.72	226.42
1007.01	226.37
1007.30	226.36
1007.59	226.33
1007.88	226.37
1008.17	226.40
1008.45	226.41
1008.74	226.34
1009.03	226.29
1009.32	226.30
1009.60	226.27
1009.89	226.24
1010.18	226.20
1010.47	226.21
1010.76	226.19
1011.04	226.20
1011.33	226.20
1011.62	226.22
1011.91	226.22
1012.19	226.26
1012.48	226.28
1012.77	226.29
1013.05	226.35
1013.34	226.34
1013.63	226.30
1013.92	226.29
1014.20	226.26
1014.49	226.23
1014.78	226.29
1015.06	226.26
1015.35	226.27
1015.64	226.31
1015.92	226.33
1016.21	226.34
1016.50	226.36
1016.78	226.39
1017.07	226.43
1017.36	226.41
1017.64	226.36
1017.93	226.34
1018.22	226.34
1018.50	226.34
1018.79	226.32
1019.08	226.29
1019.36	226.29
1019.65	226.30
1019.93	226.34
1020.22	226.35
1020.51	226.41
1020.79	226.40
1021.08	226.19
1021.36	226.33
1021.65	226.48
1021.94	226.64
1022.22	226.14
1022.51	226.04
1022.79	226.89
1023.08	226.49
1023.36	227.31
1023.65	226.49
>>>>>End Processed Spectral Data<<<<<
