SpectraSuite Data File
++++++++++++++++++++++++++++++++++++
Date: Fri Feb 01 15:40:39 EST 2013
User: group
Dark Spectrum Present: No
Reference Spectrum Present: No
Number of Sampled Component Spectra: 1
Spectrometers: USB2E7196
Integration Time (usec): 35000 (USB2E7196)
Spectra Averaged: 100 (USB2E7196)
Boxcar Smoothing: 10 (USB2E7196)
Correct for Electrical Dark: No (USB2E7196)
Strobe/Lamp Enabled: No (USB2E7196)
Correct for Detector Non-linearity: No (USB2E7196)
Correct for Stray Light: No (USB2E7196)
Number of Pixels in Processed Spectrum: 2048
>>>>>Begin Processed Spectral Data<<<<<
339.09	0.00
339.48	215.42
339.86	216.35
340.24	218.29
340.63	219.16
341.01	221.90
341.39	221.84
341.78	222.59
342.16	223.88
342.54	224.51
342.93	213.13
343.31	223.92
343.69	224.44
344.07	224.92
344.46	225.32
344.84	225.69
345.22	225.91
345.60	226.14
345.99	226.34
346.37	226.46
346.75	226.59
347.13	226.67
347.52	226.75
347.90	226.82
348.28	226.85
348.66	226.86
349.05	226.89
349.43	226.91
349.81	226.98
350.19	226.99
350.57	227.06
350.96	227.15
351.34	227.21
351.72	227.29
352.10	227.36
352.48	227.43
352.87	227.48
353.25	227.55
353.63	227.63
354.01	227.66
354.39	227.75
354.77	227.82
355.15	227.90
355.54	227.95
355.92	227.99
356.30	228.06
356.68	228.19
357.06	228.24
357.44	228.30
357.82	228.37
358.20	228.43
358.58	228.48
358.97	228.51
359.35	228.58
359.73	228.65
360.11	228.70
360.49	228.75
360.87	228.78
361.25	228.86
361.63	228.92
362.01	229.01
362.39	229.05
362.77	229.08
363.15	229.11
363.53	229.16
363.91	229.18
364.29	229.18
364.67	229.14
365.05	229.17
365.43	229.20
365.81	229.21
366.19	229.26
366.57	229.29
366.95	229.29
367.33	229.29
367.71	229.28
368.09	229.27
368.47	229.27
368.85	229.29
369.23	229.26
369.61	229.23
369.99	229.22
370.37	229.21
370.75	229.24
371.13	229.20
371.51	229.15
371.89	229.11
372.27	229.10
372.65	229.07
373.03	229.02
373.41	228.97
373.78	228.92
374.16	228.81
374.54	228.72
374.92	228.67
375.30	228.58
375.68	228.50
376.06	228.48
376.44	228.40
376.82	228.33
377.19	228.28
377.57	228.24
377.95	228.15
378.33	228.07
378.71	227.94
379.09	227.87
379.47	227.79
379.84	227.71
380.22	227.64
380.60	227.56
380.98	227.49
381.36	227.44
381.73	227.35
382.11	227.38
382.49	227.34
382.87	227.29
383.25	227.24
383.62	227.30
384.00	227.20
384.38	227.13
384.76	227.10
385.13	227.06
385.51	226.99
385.89	226.92
386.27	226.86
386.64	226.84
387.02	226.80
387.40	226.76
387.78	226.76
388.15	226.71
388.53	226.66
388.91	226.61
389.29	226.55
389.66	226.53
390.04	226.44
390.42	226.42
390.79	226.40
391.17	226.37
391.55	226.27
391.92	226.27
392.30	226.28
392.68	226.23
393.05	226.23
393.43	226.21
393.81	226.25
394.18	226.24
394.56	226.26
394.94	226.30
395.31	226.32
395.69	226.35
396.06	226.41
396.44	226.43
396.82	226.50
397.19	226.60
397.57	226.64
397.95	226.71
398.32	226.74
398.70	226.80
399.07	226.89
399.45	226.93
399.82	226.98
400.20	227.04
400.58	227.16
400.95	227.20
401.33	227.31
401.70	227.40
402.08	227.54
402.45	227.62
402.83	227.76
403.20	227.89
403.58	227.97
403.95	228.08
404.33	228.22
404.71	228.33
405.08	228.49
405.46	228.64
405.83	228.77
406.21	228.90
406.58	229.06
406.96	229.24
407.33	229.42
407.70	229.62
408.08	229.90
408.45	230.10
408.83	230.36
409.20	230.57
409.58	230.75
409.95	231.01
410.33	231.28
410.70	231.49
411.08	231.77
411.45	232.07
411.82	232.41
412.20	232.78
412.57	233.20
412.95	233.48
413.32	233.90
413.69	234.32
414.07	234.75
414.44	235.25
414.82	235.72
415.19	236.29
415.56	236.84
415.94	237.36
416.31	238.00
416.68	238.60
417.06	239.35
417.43	240.06
417.81	240.84
418.18	241.63
418.55	242.49
418.93	243.37
419.30	244.26
419.67	245.19
420.04	246.11
420.42	247.13
420.79	248.30
421.16	249.43
421.54	250.63
421.91	251.87
422.28	253.09
422.66	254.40
423.03	255.71
423.40	257.05
423.77	258.48
424.15	259.89
424.52	261.40
424.89	262.97
425.26	264.54
425.64	265.94
426.01	267.54
426.38	269.19
426.75	270.89
427.13	272.61
427.50	274.43
427.87	276.33
428.24	278.19
428.61	280.00
428.99	281.94
429.36	284.07
429.73	286.16
430.10	288.20
430.47	290.29
430.85	292.37
431.22	294.59
431.59	296.97
431.96	299.19
432.33	301.70
432.70	304.09
433.08	306.90
433.45	309.56
433.82	312.15
434.19	315.07
434.56	317.82
434.93	320.49
435.30	323.07
435.68	325.96
436.05	328.76
436.42	331.52
436.79	334.07
437.16	336.77
437.53	339.60
437.90	342.40
438.27	345.13
438.64	348.02
439.01	350.63
439.38	352.90
439.75	355.11
440.13	357.61
440.50	359.96
440.87	361.76
441.24	363.72
441.61	365.87
441.98	367.36
442.35	369.18
442.72	371.02
443.09	372.85
443.46	373.82
443.83	374.37
444.20	374.89
444.57	375.70
444.94	375.95
445.31	376.28
445.68	376.65
446.05	376.67
446.42	376.25
446.79	375.84
447.16	375.36
447.53	375.04
447.90	373.84
448.27	372.69
448.64	371.11
449.01	369.95
449.37	367.98
449.74	366.06
450.11	363.81
450.48	361.38
450.85	358.87
451.22	356.75
451.59	354.75
451.96	352.80
452.33	350.21
452.70	347.84
453.07	345.02
453.43	342.11
453.80	339.44
454.17	336.78
454.54	334.24
454.91	331.51
455.28	328.82
455.65	326.36
456.02	323.87
456.38	321.71
456.75	319.06
457.12	316.85
457.49	314.60
457.86	312.46
458.23	310.59
458.59	308.52
458.96	306.44
459.33	304.57
459.70	302.71
460.07	301.15
460.43	299.48
460.80	297.84
461.17	296.43
461.54	294.90
461.91	293.47
462.27	292.00
462.64	290.74
463.01	289.40
463.38	288.09
463.74	286.72
464.11	285.61
464.48	284.57
464.85	283.43
465.21	282.59
465.58	281.63
465.95	280.52
466.32	279.65
466.68	278.74
467.05	277.90
467.42	277.00
467.78	276.10
468.15	275.20
468.52	274.56
468.88	273.70
469.25	272.90
469.62	272.26
469.98	271.60
470.35	270.99
470.72	270.37
471.08	269.70
471.45	269.19
471.82	268.64
472.18	268.06
472.55	267.62
472.92	267.08
473.28	266.64
473.65	266.17
474.02	265.71
474.38	265.35
474.75	265.00
475.11	264.66
475.48	264.38
475.85	264.12
476.21	263.86
476.58	263.65
476.94	263.51
477.31	263.33
477.67	263.19
478.04	263.07
478.41	263.03
478.77	263.12
479.14	263.04
479.50	263.05
479.87	263.11
480.23	263.22
480.60	263.30
480.96	263.41
481.33	263.63
481.69	263.86
482.06	264.05
482.42	264.26
482.79	264.49
483.15	264.83
483.52	265.23
483.88	265.58
484.25	265.99
484.61	266.42
484.98	266.89
485.34	267.45
485.71	268.03
486.07	268.65
486.44	269.17
486.80	269.88
487.17	270.56
487.53	271.37
487.90	272.21
488.26	273.15
488.62	274.13
488.99	275.13
489.35	276.13
489.72	277.21
490.08	278.41
490.44	279.67
490.81	281.00
491.17	282.36
491.54	283.87
491.90	285.39
492.26	286.98
492.63	288.68
492.99	290.47
493.36	292.38
493.72	294.39
494.08	296.48
494.45	298.74
494.81	301.15
495.17	303.57
495.54	306.13
495.90	308.81
496.26	311.63
496.63	314.58
496.99	317.68
497.35	320.95
497.72	324.33
498.08	327.87
498.44	331.51
498.80	335.45
499.17	339.46
499.53	343.66
499.89	348.08
500.26	352.60
500.62	357.28
500.98	362.22
501.34	367.28
501.71	372.63
502.07	378.03
502.43	383.60
502.79	389.41
503.16	395.45
503.52	401.64
503.88	408.01
504.24	414.63
504.60	421.55
504.97	428.68
505.33	436.01
505.69	443.78
506.05	451.60
506.41	459.44
506.78	467.62
507.14	476.07
507.50	484.71
507.86	493.76
508.22	502.90
508.59	512.07
508.95	521.66
509.31	531.52
509.67	541.69
510.03	551.98
510.39	562.58
510.75	573.45
511.12	584.44
511.48	595.76
511.84	607.20
512.20	618.72
512.56	630.72
512.92	642.93
513.28	655.17
513.64	667.68
514.00	680.37
514.37	693.31
514.73	706.34
515.09	719.46
515.45	732.77
515.81	746.43
516.17	760.50
516.53	774.68
516.89	788.77
517.25	802.93
517.61	817.37
517.97	831.78
518.33	846.17
518.69	860.89
519.05	875.86
519.41	891.02
519.77	906.56
520.13	922.03
520.49	937.44
520.85	952.88
521.21	968.56
521.57	984.90
521.93	1000.66
522.29	1017.06
522.65	1033.30
523.01	1049.55
523.37	1065.49
523.73	1081.58
524.09	1097.62
524.45	1113.96
524.81	1130.59
525.17	1147.50
525.53	1164.46
525.89	1181.42
526.25	1198.31
526.61	1214.76
526.97	1231.55
527.33	1248.10
527.68	1264.73
528.04	1281.16
528.40	1297.80
528.76	1314.80
529.12	1331.33
529.48	1348.25
529.84	1364.33
530.20	1381.02
530.56	1398.07
530.91	1415.59
531.27	1432.43
531.63	1449.01
531.99	1465.63
532.35	1481.58
532.71	1497.47
533.07	1513.67
533.42	1529.47
533.78	1545.56
534.14	1561.86
534.50	1577.12
534.86	1592.99
535.21	1608.09
535.57	1624.03
535.93	1639.54
536.29	1654.36
536.65	1669.47
537.00	1684.21
537.36	1699.48
537.72	1714.02
538.08	1728.43
538.44	1742.22
538.79	1756.15
539.15	1769.77
539.51	1783.51
539.87	1797.97
540.22	1811.53
540.58	1825.34
540.94	1838.65
541.29	1851.56
541.65	1864.22
542.01	1877.58
542.37	1889.90
542.72	1902.31
543.08	1914.11
543.44	1926.60
543.79	1937.95
544.15	1948.91
544.51	1960.54
544.87	1971.46
545.22	1982.29
545.58	1992.39
545.94	2002.06
546.29	2011.83
546.65	2021.60
547.01	2030.84
547.36	2039.45
547.72	2047.95
548.07	2055.81
548.43	2064.13
548.79	2072.24
549.14	2079.75
549.50	2087.03
549.86	2094.66
550.21	2101.90
550.57	2109.04
550.92	2115.55
551.28	2122.62
551.64	2129.63
551.99	2136.03
552.35	2142.19
552.70	2148.26
553.06	2154.37
553.41	2160.81
553.77	2166.95
554.13	2173.07
554.48	2179.24
554.84	2184.75
555.19	2190.29
555.55	2195.39
555.90	2199.75
556.26	2204.43
556.61	2209.21
556.97	2213.39
557.32	2217.51
557.68	2221.80
558.03	2226.10
558.39	2229.76
558.74	2234.32
559.10	2238.20
559.45	2241.92
559.81	2246.32
560.16	2250.21
560.52	2253.31
560.87	2256.55
561.23	2259.18
561.58	2262.27
561.94	2264.78
562.29	2267.25
562.64	2269.71
563.00	2272.28
563.35	2275.86
563.71	2279.09
564.06	2282.24
564.42	2285.19
564.77	2287.71
565.12	2289.81
565.48	2291.67
565.83	2293.54
566.19	2294.79
566.54	2295.80
566.89	2296.83
567.25	2297.31
567.60	2298.56
567.96	2300.31
568.31	2301.30
568.66	2302.34
569.02	2302.74
569.37	2303.09
569.72	2303.77
570.08	2303.96
570.43	2304.08
570.78	2303.35
571.14	2301.65
571.49	2300.33
571.84	2299.93
572.20	2298.84
572.55	2297.84
572.90	2296.39
573.26	2295.11
573.61	2293.54
573.96	2291.69
574.31	2288.77
574.67	2285.70
575.02	2282.18
575.37	2278.73
575.72	2274.86
576.08	2271.43
576.43	2268.12
576.78	2264.33
577.13	2261.31
577.49	2258.15
577.84	2254.51
578.19	2250.84
578.54	2247.30
578.90	2243.01
579.25	2237.47
579.60	2232.49
579.95	2227.48
580.30	2222.41
580.66	2217.04
581.01	2211.91
581.36	2206.92
581.71	2202.81
582.06	2198.45
582.42	2193.85
582.77	2188.70
583.12	2184.07
583.47	2179.37
583.82	2174.25
584.17	2169.01
584.53	2163.40
584.88	2157.63
585.23	2151.88
585.58	2146.37
585.93	2140.93
586.28	2136.19
586.63	2131.14
586.98	2125.93
587.34	2121.24
587.69	2116.32
588.04	2111.03
588.39	2105.35
588.74	2098.89
589.09	2092.59
589.44	2085.72
589.79	2079.71
590.14	2074.03
590.49	2067.43
590.84	2061.03
591.19	2055.02
591.54	2048.52
591.89	2041.11
592.25	2034.39
592.60	2027.14
592.95	2019.60
593.30	2012.09
593.65	2004.44
594.00	1997.48
594.35	1990.33
594.70	1982.18
595.05	1974.87
595.40	1967.58
595.75	1960.11
596.10	1953.83
596.45	1947.01
596.80	1940.74
597.15	1934.10
597.50	1926.92
597.85	1920.55
598.19	1913.77
598.54	1906.55
598.89	1899.93
599.24	1894.01
599.59	1887.31
599.94	1881.11
600.29	1874.62
600.64	1868.10
600.99	1860.64
601.34	1853.63
601.69	1846.56
602.04	1839.67
602.39	1832.41
602.74	1825.57
603.08	1818.83
603.43	1811.99
603.78	1804.79
604.13	1797.61
604.48	1790.27
604.83	1783.43
605.18	1776.40
605.53	1768.37
605.87	1760.38
606.22	1753.06
606.57	1744.90
606.92	1737.44
607.27	1730.28
607.62	1723.39
607.96	1716.03
608.31	1709.32
608.66	1701.71
609.01	1694.17
609.36	1686.68
609.70	1678.56
610.05	1670.42
610.40	1662.70
610.75	1654.50
611.10	1646.73
611.44	1638.27
611.79	1630.26
612.14	1621.56
612.49	1612.33
612.83	1604.02
613.18	1595.89
613.53	1587.89
613.88	1579.51
614.22	1571.33
614.57	1562.69
614.92	1554.67
615.27	1547.08
615.61	1538.74
615.96	1530.83
616.31	1523.26
616.65	1515.79
617.00	1508.28
617.35	1500.71
617.70	1492.39
618.04	1483.90
618.39	1475.79
618.74	1468.27
619.08	1459.95
619.43	1452.39
619.78	1445.67
620.12	1438.48
620.47	1430.95
620.82	1422.82
621.16	1415.39
621.51	1407.83
621.85	1400.27
622.20	1391.71
622.55	1383.36
622.89	1375.63
623.24	1367.91
623.59	1360.47
623.93	1353.06
624.28	1345.77
624.62	1338.20
624.97	1330.95
625.32	1324.27
625.66	1317.17
626.01	1310.02
626.35	1302.54
626.70	1294.64
627.04	1286.86
627.39	1279.15
627.73	1271.85
628.08	1264.83
628.43	1257.42
628.77	1250.02
629.12	1242.48
629.46	1235.36
629.81	1228.06
630.15	1220.76
630.50	1213.35
630.84	1205.20
631.19	1197.26
631.53	1189.82
631.88	1182.36
632.22	1174.78
632.57	1167.44
632.91	1160.00
633.26	1152.45
633.60	1145.16
633.95	1138.11
634.29	1131.02
634.64	1124.32
634.98	1116.97
635.32	1109.82
635.67	1103.48
636.01	1096.81
636.36	1090.00
636.70	1083.45
637.05	1076.83
637.39	1070.36
637.73	1063.83
638.08	1057.96
638.42	1051.88
638.77	1045.40
639.11	1038.63
639.45	1032.11
639.80	1025.33
640.14	1018.83
640.49	1012.41
640.83	1006.12
641.17	999.97
641.52	993.63
641.86	987.25
642.20	981.39
642.55	975.15
642.89	968.58
643.23	962.09
643.58	956.25
643.92	950.04
644.26	944.02
644.61	938.01
644.95	931.93
645.29	925.26
645.64	918.56
645.98	912.22
646.32	906.47
646.66	900.58
647.01	894.88
647.35	889.17
647.69	883.37
648.04	877.76
648.38	871.89
648.72	865.89
649.06	859.81
649.41	853.96
649.75	847.90
650.09	841.78
650.43	835.92
650.78	829.85
651.12	823.94
651.46	818.14
651.80	812.41
652.14	807.09
652.49	801.73
652.83	796.55
653.17	790.85
653.51	785.09
653.85	779.70
654.20	773.92
654.54	767.96
654.88	762.18
655.22	756.34
655.56	750.70
655.90	745.28
656.25	740.00
656.59	734.59
656.93	729.57
657.27	724.54
657.61	719.23
657.95	714.10
658.29	709.04
658.64	703.85
658.98	698.53
659.32	693.09
659.66	687.90
660.00	682.60
660.34	677.69
660.68	672.75
661.02	667.69
661.36	663.11
661.70	658.60
662.05	654.28
662.39	649.98
662.73	645.54
663.07	641.13
663.41	636.70
663.75	632.17
664.09	627.61
664.43	623.23
664.77	619.04
665.11	614.79
665.45	610.64
665.79	606.58
666.13	602.44
666.47	598.38
666.81	594.18
667.15	590.07
667.49	586.23
667.83	582.53
668.17	578.60
668.51	574.50
668.85	570.44
669.19	566.60
669.53	562.71
669.87	558.87
670.21	555.16
670.55	551.48
670.89	548.09
671.23	544.65
671.57	541.17
671.91	537.71
672.25	534.26
672.58	530.75
672.92	527.34
673.26	524.22
673.60	521.02
673.94	517.95
674.28	515.03
674.62	511.99
674.96	508.83
675.30	505.94
675.64	503.00
675.97	500.31
676.31	497.38
676.65	494.47
676.99	491.71
677.33	488.84
677.67	486.01
678.01	482.97
678.34	480.01
678.68	477.07
679.02	474.19
679.36	471.39
679.70	468.68
680.04	465.89
680.37	462.97
680.71	460.24
681.05	457.58
681.39	454.86
681.73	452.20
682.06	449.70
682.40	447.12
682.74	444.64
683.08	442.08
683.42	439.53
683.75	437.06
684.09	434.51
684.43	432.06
684.77	429.66
685.10	427.33
685.44	425.03
685.78	422.75
686.12	420.56
686.45	418.25
686.79	415.93
687.13	413.77
687.46	411.64
687.80	409.45
688.14	407.24
688.48	405.17
688.81	402.95
689.15	400.79
689.49	398.68
689.82	396.60
690.16	394.52
690.50	392.54
690.83	390.58
691.17	388.63
691.51	386.74
691.84	384.90
692.18	382.95
692.52	380.93
692.85	379.01
693.19	377.10
693.52	375.31
693.86	373.53
694.20	371.72
694.53	369.93
694.87	368.08
695.21	366.32
695.54	364.54
695.88	362.84
696.21	361.14
696.55	359.45
696.88	357.76
697.22	356.12
697.56	354.46
697.89	352.80
698.23	351.13
698.56	349.52
698.90	347.90
699.23	346.26
699.57	344.71
699.90	343.21
700.24	341.66
700.58	340.10
700.91	338.58
701.25	337.13
701.58	335.77
701.92	334.42
702.25	333.05
702.59	331.68
702.92	330.35
703.26	329.06
703.59	327.75
703.93	326.54
704.26	325.27
704.60	324.01
704.93	322.74
705.26	321.52
705.60	320.35
705.93	319.19
706.27	318.20
706.60	317.18
706.94	316.08
707.27	314.95
707.61	313.92
707.94	312.91
708.27	311.83
708.61	310.76
708.94	309.81
709.28	308.85
709.61	307.89
709.94	306.95
710.28	305.91
710.61	305.00
710.95	303.90
711.28	303.00
711.61	302.06
711.95	301.13
712.28	300.22
712.61	299.21
712.95	298.27
713.28	297.35
713.61	296.43
713.95	295.55
714.28	294.73
714.61	293.84
714.95	293.00
715.28	292.16
715.61	291.29
715.95	290.36
716.28	289.47
716.61	288.64
716.95	287.86
717.28	287.10
717.61	286.27
717.94	285.57
718.28	284.77
718.61	284.01
718.94	283.36
719.27	282.68
719.61	282.05
719.94	281.40
720.27	280.71
720.60	280.04
720.94	279.44
721.27	278.83
721.60	278.27
721.93	277.67
722.27	277.11
722.60	276.50
722.93	275.93
723.26	275.39
723.59	274.82
723.93	274.22
724.26	273.69
724.59	273.17
724.92	272.61
725.25	272.15
725.59	271.64
725.92	271.10
726.25	270.59
726.58	270.11
726.91	269.64
727.24	269.16
727.57	268.71
727.91	268.16
728.24	267.70
728.57	267.21
728.90	266.74
729.23	266.24
729.56	265.84
729.89	265.36
730.22	264.87
730.55	264.40
730.89	263.94
731.22	263.46
731.55	262.97
731.88	262.58
732.21	262.11
732.54	261.68
732.87	261.27
733.20	260.88
733.53	260.47
733.86	260.08
734.19	259.66
734.52	259.29
734.85	258.95
735.18	258.53
735.51	258.14
735.84	257.79
736.17	257.46
736.50	257.07
736.83	256.86
737.16	256.56
737.49	256.23
737.82	255.94
738.15	255.62
738.48	255.31
738.81	254.98
739.14	254.66
739.47	254.33
739.80	254.01
740.13	253.73
740.46	253.41
740.79	253.04
741.12	252.75
741.45	252.45
741.78	252.13
742.11	251.85
742.44	251.55
742.77	251.26
743.10	250.92
743.43	250.64
743.75	250.27
744.08	250.10
744.41	249.82
744.74	249.50
745.07	249.24
745.40	249.02
745.73	248.78
746.06	248.52
746.39	248.29
746.71	248.02
747.04	247.72
747.37	247.48
747.70	247.24
748.03	246.99
748.36	246.76
748.68	246.54
749.01	246.30
749.34	246.11
749.67	245.87
750.00	245.66
750.33	245.52
750.65	245.30
750.98	244.97
751.31	244.74
751.64	244.58
751.97	244.42
752.29	244.18
752.62	243.89
752.95	243.66
753.28	243.44
753.60	243.25
753.93	243.08
754.26	242.87
754.59	242.68
754.91	242.46
755.24	242.26
755.57	242.03
755.90	241.80
756.22	241.58
756.55	241.37
756.88	241.17
757.20	240.94
757.53	240.72
757.86	240.57
758.19	240.43
758.51	240.25
758.84	240.03
759.17	239.87
759.49	239.74
759.82	239.64
760.15	239.52
760.47	239.34
760.80	239.17
761.13	239.06
761.45	238.90
761.78	238.78
762.11	238.61
762.43	238.48
762.76	238.37
763.08	238.22
763.41	238.09
763.74	237.98
764.06	237.83
764.39	237.74
764.71	237.60
765.04	237.44
765.37	237.30
765.69	237.18
766.02	237.07
766.34	236.94
766.67	236.76
767.00	236.64
767.32	236.58
767.65	236.53
767.97	236.36
768.30	236.27
768.62	236.15
768.95	236.07
769.27	236.01
769.60	235.91
769.92	235.81
770.25	235.70
770.57	235.56
770.90	235.45
771.22	235.32
771.55	235.20
771.87	235.13
772.20	235.05
772.52	235.02
772.85	235.03
773.17	234.96
773.50	234.88
773.82	234.79
774.15	234.67
774.47	234.50
774.80	234.42
775.12	234.28
775.45	234.21
775.77	234.13
776.09	234.03
776.42	233.99
776.74	233.94
777.07	233.86
777.39	233.80
777.72	233.72
778.04	233.65
778.36	233.59
778.69	233.50
779.01	233.42
779.33	233.27
779.66	233.08
779.98	232.99
780.31	232.91
780.63	232.88
780.95	232.83
781.28	232.80
781.60	232.72
781.92	232.69
782.25	232.63
782.57	232.55
782.89	232.49
783.22	232.37
783.54	232.31
783.86	232.26
784.19	232.21
784.51	232.17
784.83	232.15
785.16	232.07
785.48	232.02
785.80	231.99
786.12	231.91
786.45	231.85
786.77	231.79
787.09	231.74
787.42	231.65
787.74	231.58
788.06	231.51
788.38	231.47
788.71	231.39
789.03	231.31
789.35	231.28
789.67	231.21
789.99	231.18
790.32	231.07
790.64	231.05
790.96	231.08
791.28	231.00
791.61	230.91
791.93	230.89
792.25	230.83
792.57	230.79
792.89	230.79
793.21	230.75
793.54	230.70
793.86	230.64
794.18	230.58
794.50	230.54
794.82	230.48
795.14	230.49
795.47	230.46
795.79	230.43
796.11	230.40
796.43	230.36
796.75	230.32
797.07	230.30
797.39	230.22
797.71	230.15
798.04	230.11
798.36	230.12
798.68	230.07
799.00	230.08
799.32	230.07
799.64	230.05
799.96	230.02
800.28	230.01
800.60	230.01
800.92	229.99
801.24	229.95
801.56	229.94
801.89	229.88
802.21	229.90
802.53	229.87
802.85	229.85
803.17	229.88
803.49	229.81
803.81	229.80
804.13	229.83
804.45	229.77
804.77	229.79
805.09	229.74
805.41	229.73
805.73	229.68
806.05	229.64
806.37	229.59
806.69	229.57
807.01	229.56
807.33	229.55
807.65	229.50
807.97	229.53
808.28	229.48
808.60	229.49
808.92	229.45
809.24	229.51
809.56	229.48
809.88	229.44
810.20	229.47
810.52	229.46
810.84	229.41
811.16	229.39
811.48	229.34
811.80	229.38
812.12	229.34
812.43	229.35
812.75	229.34
813.07	229.31
813.39	229.29
813.71	229.24
814.03	229.21
814.35	229.22
814.67	229.17
814.98	229.17
815.30	229.13
815.62	229.08
815.94	228.98
816.26	229.02
816.58	228.97
816.89	228.97
817.21	228.94
817.53	228.93
817.85	228.94
818.17	228.94
818.48	228.86
818.80	228.87
819.12	228.82
819.44	228.76
819.76	228.73
820.07	228.75
820.39	228.76
820.71	228.76
821.03	228.71
821.34	228.69
821.66	228.66
821.98	228.67
822.30	228.67
822.61	228.70
822.93	228.63
823.25	228.61
823.57	228.56
823.88	228.55
824.20	228.52
824.52	228.49
824.83	228.47
825.15	228.43
825.47	228.39
825.79	228.38
826.10	228.35
826.42	228.34
826.74	228.29
827.05	228.25
827.37	228.21
827.69	228.18
828.00	228.18
828.32	228.14
828.64	228.11
828.95	228.15
829.27	228.12
829.58	228.09
829.90	228.11
830.22	228.11
830.53	228.05
830.85	228.04
831.17	227.98
831.48	227.97
831.80	227.95
832.11	227.94
832.43	227.93
832.75	227.93
833.06	227.96
833.38	227.96
833.69	227.96
834.01	227.95
834.32	227.93
834.64	227.90
834.96	227.91
835.27	227.87
835.59	227.78
835.90	227.75
836.22	227.72
836.53	227.66
836.85	227.65
837.16	227.76
837.48	227.73
837.79	227.79
838.11	227.81
838.42	227.79
838.74	227.77
839.05	227.77
839.37	227.79
839.68	227.74
840.00	227.72
840.31	227.70
840.63	227.71
840.94	227.73
841.26	227.71
841.57	227.71
841.88	227.76
842.20	227.77
842.51	227.76
842.83	227.79
843.14	227.89
843.46	227.89
843.77	227.83
844.08	227.84
844.40	227.81
844.71	227.77
845.03	227.80
845.34	227.82
845.65	227.81
845.97	227.79
846.28	227.79
846.60	227.81
846.91	227.82
847.22	227.79
847.54	227.81
847.85	227.82
848.16	227.83
848.48	227.80
848.79	227.86
849.10	227.87
849.42	227.82
849.73	227.74
850.04	227.73
850.36	227.72
850.67	227.73
850.98	227.76
851.30	227.76
851.61	227.74
851.92	227.69
852.23	227.73
852.55	227.73
852.86	227.76
853.17	227.77
853.49	227.78
853.80	227.82
854.11	227.82
854.42	227.84
854.74	227.83
855.05	227.85
855.36	227.78
855.67	227.76
855.99	227.79
856.30	227.89
856.61	227.89
856.92	227.85
857.23	227.83
857.55	227.80
857.86	227.82
858.17	227.83
858.48	227.88
858.79	227.85
859.11	227.83
859.42	227.75
859.73	227.70
860.04	227.70
860.35	227.68
860.66	227.65
860.98	227.61
861.29	227.63
861.60	227.56
861.91	227.58
862.22	227.56
862.53	227.54
862.84	227.42
863.16	227.42
863.47	227.41
863.78	227.42
864.09	227.40
864.40	227.36
864.71	227.35
865.02	227.31
865.33	227.28
865.64	227.25
865.95	227.27
866.27	227.34
866.58	227.30
866.89	227.26
867.20	227.24
867.51	227.20
867.82	227.16
868.13	227.19
868.44	227.13
868.75	227.14
869.06	227.12
869.37	227.10
869.68	227.05
869.99	227.08
870.30	227.07
870.61	227.08
870.92	227.11
871.23	227.08
871.54	227.10
871.85	227.10
872.16	227.11
872.47	227.11
872.78	227.05
873.09	227.06
873.40	227.08
873.71	227.09
874.02	227.13
874.33	227.14
874.64	227.11
874.95	227.17
875.26	227.18
875.56	227.15
875.87	227.17
876.18	227.19
876.49	227.26
876.80	227.25
877.11	227.22
877.42	227.19
877.73	227.22
878.04	227.21
878.35	227.20
878.66	227.25
878.96	227.30
879.27	227.29
879.58	227.26
879.89	227.25
880.20	227.28
880.51	227.27
880.82	227.24
881.12	227.24
881.43	227.23
881.74	227.22
882.05	227.23
882.36	227.24
882.67	227.25
882.97	227.15
883.28	227.12
883.59	227.11
883.90	227.14
884.21	227.16
884.51	227.13
884.82	227.15
885.13	227.10
885.44	227.09
885.74	227.09
886.05	227.12
886.36	227.13
886.67	227.12
886.98	227.18
887.28	227.24
887.59	227.28
887.90	227.27
888.20	227.27
888.51	227.32
888.82	227.29
889.13	227.31
889.43	227.43
889.74	227.43
890.05	227.44
890.35	227.45
890.66	227.41
890.97	227.45
891.28	227.44
891.58	227.44
891.89	227.43
892.20	227.41
892.50	227.41
892.81	227.42
893.12	227.39
893.42	227.33
893.73	227.29
894.04	227.27
894.34	227.29
894.65	227.27
894.95	227.24
895.26	227.27
895.57	227.27
895.87	227.14
896.18	227.17
896.48	227.17
896.79	227.13
897.10	227.15
897.40	227.13
897.71	227.14
898.01	227.13
898.32	227.15
898.63	227.15
898.93	227.16
899.24	227.13
899.54	227.13
899.85	227.09
900.15	227.11
900.46	227.10
900.76	227.07
901.07	227.08
901.38	227.08
901.68	227.08
901.99	227.02
902.29	227.03
902.60	227.03
902.90	227.01
903.21	227.01
903.51	227.01
903.82	227.05
904.12	227.06
904.43	227.09
904.73	227.07
905.03	227.06
905.34	227.13
905.64	227.12
905.95	227.14
906.25	227.15
906.56	227.14
906.86	227.15
907.17	227.16
907.47	227.15
907.77	227.15
908.08	227.14
908.38	227.16
908.69	227.18
908.99	227.17
909.30	227.17
909.60	227.18
909.90	227.13
910.21	227.05
910.51	226.99
910.81	226.95
911.12	226.95
911.42	226.96
911.73	226.85
912.03	226.84
912.33	226.84
912.64	226.82
912.94	226.80
913.24	226.76
913.55	226.73
913.85	226.72
914.15	226.72
914.46	226.71
914.76	226.67
915.06	226.64
915.37	226.64
915.67	226.63
915.97	226.63
916.27	226.66
916.58	226.73
916.88	226.73
917.18	226.71
917.49	226.76
917.79	226.77
918.09	226.79
918.39	226.82
918.70	226.83
919.00	226.83
919.30	226.89
919.60	226.90
919.91	226.92
920.21	226.94
920.51	226.93
920.81	226.94
921.12	226.99
921.42	227.00
921.72	227.01
922.02	227.01
922.32	227.04
922.63	227.05
922.93	227.07
923.23	227.08
923.53	227.11
923.83	227.05
924.13	227.07
924.44	227.10
924.74	227.11
925.04	227.13
925.34	227.15
925.64	227.11
925.94	227.11
926.24	227.19
926.55	227.19
926.85	227.20
927.15	227.20
927.45	227.20
927.75	227.17
928.05	227.17
928.35	227.17
928.65	227.18
928.95	227.19
929.26	227.17
929.56	227.21
929.86	227.20
930.16	227.21
930.46	227.20
930.76	227.18
931.06	227.14
931.36	227.12
931.66	227.14
931.96	227.16
932.26	227.19
932.56	227.13
932.86	227.12
933.16	227.16
933.46	227.15
933.76	227.13
934.06	227.17
934.36	227.23
934.66	227.22
934.96	227.20
935.26	227.17
935.56	227.16
935.86	227.10
936.16	227.09
936.46	227.08
936.76	227.04
937.06	227.03
937.36	227.05
937.66	227.05
937.96	227.02
938.26	226.98
938.56	226.96
938.86	226.93
939.16	226.95
939.46	226.93
939.76	226.94
940.06	226.94
940.35	226.93
940.65	226.82
940.95	226.82
941.25	226.80
941.55	226.79
941.85	226.78
942.15	226.82
942.45	226.85
942.75	226.87
943.04	226.88
943.34	226.91
943.64	226.88
943.94	226.84
944.24	226.85
944.54	226.86
944.84	226.86
945.13	226.85
945.43	226.84
945.73	226.83
946.03	226.80
946.33	226.79
946.62	226.78
946.92	226.82
947.22	226.83
947.52	226.80
947.82	226.82
948.11	226.79
948.41	226.75
948.71	226.73
949.01	226.70
949.31	226.70
949.60	226.68
949.90	226.70
950.20	226.68
950.50	226.68
950.79	226.69
951.09	226.68
951.39	226.72
951.69	226.70
951.98	226.72
952.28	226.73
952.58	226.73
952.87	226.73
953.17	226.73
953.47	226.73
953.76	226.75
954.06	226.75
954.36	226.75
954.66	226.77
954.95	226.75
955.25	226.76
955.55	226.80
955.84	226.79
956.14	226.82
956.44	226.84
956.73	226.83
957.03	226.81
957.32	226.84
957.62	226.79
957.92	226.83
958.21	226.80
958.51	226.90
958.81	226.92
959.10	226.93
959.40	226.97
959.69	226.98
959.99	227.01
960.29	227.02
960.58	227.03
960.88	227.07
961.17	227.11
961.47	227.11
961.76	227.08
962.06	227.09
962.36	227.08
962.65	227.11
962.95	227.11
963.24	227.13
963.54	227.11
963.83	227.16
964.13	227.13
964.42	227.13
964.72	227.08
965.01	227.09
965.31	227.11
965.60	227.09
965.90	227.16
966.19	227.12
966.49	227.14
966.78	227.15
967.08	227.14
967.37	227.13
967.67	227.11
967.96	227.13
968.26	227.13
968.55	227.12
968.85	227.10
969.14	227.13
969.43	227.10
969.73	227.10
970.02	227.07
970.32	227.06
970.61	227.06
970.91	227.02
971.20	227.00
971.49	226.98
971.79	226.97
972.08	226.89
972.38	226.93
972.67	226.92
972.96	226.90
973.26	226.89
973.55	226.93
973.85	226.91
974.14	226.89
974.43	226.89
974.73	226.92
975.02	226.91
975.31	226.87
975.61	226.88
975.90	226.88
976.19	226.90
976.49	226.92
976.78	226.95
977.07	226.96
977.37	226.98
977.66	226.98
977.95	227.01
978.24	227.02
978.54	227.02
978.83	227.01
979.12	227.01
979.42	227.00
979.71	226.97
980.00	227.03
980.29	227.04
980.59	227.03
980.88	227.01
981.17	227.04
981.46	227.07
981.76	227.08
982.05	227.13
982.34	227.11
982.63	227.08
982.93	227.08
983.22	227.09
983.51	227.10
983.80	227.11
984.09	227.07
984.39	227.08
984.68	227.06
984.97	227.07
985.26	227.08
985.55	227.06
985.85	227.07
986.14	227.06
986.43	227.09
986.72	227.07
987.01	227.05
987.30	227.02
987.59	227.03
987.89	227.02
988.18	226.98
988.47	227.00
988.76	227.01
989.05	227.02
989.34	226.97
989.63	226.96
989.92	226.96
990.22	226.96
990.51	226.93
990.80	226.92
991.09	226.93
991.38	226.93
991.67	226.92
991.96	226.88
992.25	226.88
992.54	226.85
992.83	226.85
993.12	226.85
993.41	226.88
993.70	226.89
993.99	226.91
994.28	226.89
994.58	226.90
994.87	226.90
995.16	226.85
995.45	226.87
995.74	226.86
996.03	226.84
996.32	226.87
996.61	226.91
996.90	226.86
997.19	226.84
997.48	226.82
997.77	226.81
998.06	226.81
998.34	226.80
998.63	226.79
998.92	226.80
999.21	226.82
999.50	226.81
999.79	226.78
1000.08	226.76
1000.37	226.76
1000.66	226.73
1000.95	226.76
1001.24	226.76
1001.53	226.75
1001.82	226.74
1002.11	226.74
1002.40	226.73
1002.68	226.73
1002.97	226.83
1003.26	226.82
1003.55	226.80
1003.84	226.85
1004.13	226.88
1004.42	226.87
1004.71	226.85
1004.99	226.84
1005.28	226.84
1005.57	226.84
1005.86	226.85
1006.15	226.84
1006.44	226.84
1006.72	226.84
1007.01	226.80
1007.30	226.80
1007.59	226.82
1007.88	226.83
1008.17	226.84
1008.45	226.83
1008.74	226.80
1009.03	226.73
1009.32	226.73
1009.60	226.75
1009.89	226.71
1010.18	226.69
1010.47	226.72
1010.76	226.72
1011.04	226.73
1011.33	226.75
1011.62	226.76
1011.91	226.78
1012.19	226.81
1012.48	226.82
1012.77	226.81
1013.05	226.86
1013.34	226.85
1013.63	226.85
1013.92	226.84
1014.20	226.84
1014.49	226.80
1014.78	226.83
1015.06	226.80
1015.35	226.82
1015.64	226.81
1015.92	226.87
1016.21	226.88
1016.50	226.87
1016.78	226.88
1017.07	226.88
1017.36	226.86
1017.64	226.86
1017.93	226.87
1018.22	226.84
1018.50	226.84
1018.79	226.87
1019.08	226.84
1019.36	226.87
1019.65	226.86
1019.93	226.90
1020.22	226.95
1020.51	227.03
1020.79	227.01
1021.08	226.39
1021.36	226.96
1021.65	227.11
1021.94	227.02
1022.22	227.02
1022.51	226.83
1022.79	227.60
1023.08	227.76
1023.36	227.72
1023.65	226.85
>>>>>End Processed Spectral Data<<<<<
