SpectraSuite Data File
++++++++++++++++++++++++++++++++++++
Date: Fri Feb 01 15:06:40 EST 2013
User: group
Dark Spectrum Present: No
Reference Spectrum Present: No
Number of Sampled Component Spectra: 1
Spectrometers: USB2E7196
Integration Time (usec): 35000 (USB2E7196)
Spectra Averaged: 100 (USB2E7196)
Boxcar Smoothing: 10 (USB2E7196)
Correct for Electrical Dark: No (USB2E7196)
Strobe/Lamp Enabled: No (USB2E7196)
Correct for Detector Non-linearity: No (USB2E7196)
Correct for Stray Light: No (USB2E7196)
Number of Pixels in Processed Spectrum: 2048
>>>>>Begin Processed Spectral Data<<<<<
339.09	0.00
339.48	214.96
339.86	216.69
340.24	217.83
340.63	219.41
341.01	222.24
341.39	221.96
341.78	223.33
342.16	224.76
342.54	224.93
342.93	213.38
343.31	224.19
343.69	224.75
344.07	225.21
344.46	225.65
344.84	226.05
345.22	226.31
345.60	226.55
345.99	226.76
346.37	226.88
346.75	226.98
347.13	227.08
347.52	227.11
347.90	227.20
348.28	227.25
348.66	227.30
349.05	227.32
349.43	227.38
349.81	227.43
350.19	227.45
350.57	227.52
350.96	227.64
351.34	227.72
351.72	227.80
352.10	227.91
352.48	227.97
352.87	227.99
353.25	228.05
353.63	228.14
354.01	228.20
354.39	228.29
354.77	228.41
355.15	228.49
355.54	228.55
355.92	228.61
356.30	228.67
356.68	228.79
357.06	228.85
357.44	228.92
357.82	229.00
358.20	229.13
358.58	229.18
358.97	229.23
359.35	229.28
359.73	229.34
360.11	229.39
360.49	229.45
360.87	229.49
361.25	229.54
361.63	229.61
362.01	229.66
362.39	229.63
362.77	229.66
363.15	229.67
363.53	229.72
363.91	229.72
364.29	229.71
364.67	229.64
365.05	229.64
365.43	229.61
365.81	229.58
366.19	229.57
366.57	229.58
366.95	229.56
367.33	229.51
367.71	229.49
368.09	229.47
368.47	229.44
368.85	229.43
369.23	229.40
369.61	229.33
369.99	229.29
370.37	229.28
370.75	229.29
371.13	229.25
371.51	229.18
371.89	229.16
372.27	229.12
372.65	229.09
373.03	229.03
373.41	228.97
373.78	228.91
374.16	228.81
374.54	228.74
374.92	228.65
375.30	228.57
375.68	228.49
376.06	228.40
376.44	228.32
376.82	228.25
377.19	228.15
377.57	228.07
377.95	227.97
378.33	227.90
378.71	227.76
379.09	227.68
379.47	227.59
379.84	227.48
380.22	227.39
380.60	227.30
380.98	227.22
381.36	227.13
381.73	227.06
382.11	227.02
382.49	226.92
382.87	226.86
383.25	226.82
383.62	226.89
384.00	226.79
384.38	226.71
384.76	226.67
385.13	226.69
385.51	226.62
385.89	226.55
386.27	226.50
386.64	226.49
387.02	226.45
387.40	226.42
387.78	226.40
388.15	226.37
388.53	226.31
388.91	226.29
389.29	226.27
389.66	226.26
390.04	226.22
390.42	226.20
390.79	226.21
391.17	226.20
391.55	226.06
391.92	226.07
392.30	226.09
392.68	226.09
393.05	226.06
393.43	226.04
393.81	226.07
394.18	226.08
394.56	226.09
394.94	226.12
395.31	226.11
395.69	226.14
396.06	226.22
396.44	226.29
396.82	226.31
397.19	226.42
397.57	226.43
397.95	226.46
398.32	226.51
398.70	226.55
399.07	226.67
399.45	226.74
399.82	226.86
400.20	226.95
400.58	227.02
400.95	227.07
401.33	227.21
401.70	227.39
402.08	227.49
402.45	227.59
402.83	227.72
403.20	227.87
403.58	227.99
403.95	228.11
404.33	228.23
404.71	228.37
405.08	228.55
405.46	228.70
405.83	228.90
406.21	229.09
406.58	229.28
406.96	229.40
407.33	229.62
407.70	229.79
408.08	230.07
408.45	230.29
408.83	230.53
409.20	230.75
409.58	230.92
409.95	231.23
410.33	231.49
410.70	231.75
411.08	232.02
411.45	232.30
411.82	232.60
412.20	232.98
412.57	233.40
412.95	233.66
413.32	234.10
413.69	234.48
414.07	234.90
414.44	235.36
414.82	235.82
415.19	236.33
415.56	236.87
415.94	237.41
416.31	238.04
416.68	238.67
417.06	239.39
417.43	240.05
417.81	240.79
418.18	241.58
418.55	242.43
418.93	243.34
419.30	244.30
419.67	245.24
420.04	246.17
420.42	247.17
420.79	248.37
421.16	249.53
421.54	250.71
421.91	251.93
422.28	253.21
422.66	254.58
423.03	255.89
423.40	257.23
423.77	258.63
424.15	260.10
424.52	261.56
424.89	263.19
425.26	264.76
425.64	266.22
426.01	267.81
426.38	269.43
426.75	271.11
427.13	272.82
427.50	274.64
427.87	276.59
428.24	278.46
428.61	280.24
428.99	282.19
429.36	284.32
429.73	286.39
430.10	288.39
430.47	290.46
430.85	292.60
431.22	294.88
431.59	297.31
431.96	299.50
432.33	302.04
432.70	304.42
433.08	307.24
433.45	309.90
433.82	312.49
434.19	315.40
434.56	318.21
434.93	320.88
435.30	323.51
435.68	326.35
436.05	329.22
436.42	332.02
436.79	334.51
437.16	337.24
437.53	340.08
437.90	342.92
438.27	345.67
438.64	348.49
439.01	351.04
439.38	353.23
439.75	355.45
440.13	357.92
440.50	360.24
440.87	362.12
441.24	364.04
441.61	366.25
441.98	367.78
442.35	369.54
442.72	371.35
443.09	373.16
443.46	374.18
443.83	374.73
444.20	375.20
444.57	376.02
444.94	376.27
445.31	376.63
445.68	376.95
446.05	377.03
446.42	376.64
446.79	376.25
447.16	375.80
447.53	375.47
447.90	374.30
448.27	373.12
448.64	371.47
449.01	370.31
449.37	368.29
449.74	366.34
450.11	364.09
450.48	361.62
450.85	359.07
451.22	356.94
451.59	354.90
451.96	352.96
452.33	350.36
452.70	348.00
453.07	345.15
453.43	342.27
453.80	339.45
454.17	336.77
454.54	334.20
454.91	331.49
455.28	328.81
455.65	326.36
456.02	323.89
456.38	321.77
456.75	319.09
457.12	316.85
457.49	314.60
457.86	312.49
458.23	310.65
458.59	308.60
458.96	306.48
459.33	304.62
459.70	302.77
460.07	301.24
460.43	299.51
460.80	297.85
461.17	296.36
461.54	294.87
461.91	293.45
462.27	292.02
462.64	290.76
463.01	289.41
463.38	288.06
463.74	286.74
464.11	285.57
464.48	284.59
464.85	283.49
465.21	282.62
465.58	281.64
465.95	280.53
466.32	279.60
466.68	278.71
467.05	277.82
467.42	276.94
467.78	276.02
468.15	275.16
468.52	274.55
468.88	273.70
469.25	272.96
469.62	272.34
469.98	271.63
470.35	270.96
470.72	270.32
471.08	269.70
471.45	269.15
471.82	268.58
472.18	267.97
472.55	267.49
472.92	266.97
473.28	266.53
473.65	266.07
474.02	265.64
474.38	265.28
474.75	264.94
475.11	264.56
475.48	264.33
475.85	264.11
476.21	263.87
476.58	263.71
476.94	263.57
477.31	263.38
477.67	263.24
478.04	263.17
478.41	263.13
478.77	263.12
479.14	263.02
479.50	263.05
479.87	263.12
480.23	263.19
480.60	263.28
480.96	263.37
481.33	263.57
481.69	263.77
482.06	263.94
482.42	264.14
482.79	264.38
483.15	264.64
483.52	265.01
483.88	265.31
484.25	265.68
484.61	266.06
484.98	266.49
485.34	267.04
485.71	267.60
486.07	268.20
486.44	268.79
486.80	269.49
487.17	270.21
487.53	271.05
487.90	271.90
488.26	272.81
488.62	273.79
488.99	274.74
489.35	275.74
489.72	276.84
490.08	278.06
490.44	279.30
490.81	280.66
491.17	282.00
491.54	283.49
491.90	285.04
492.26	286.73
492.63	288.48
492.99	290.27
493.36	292.19
493.72	294.21
494.08	296.29
494.45	298.52
494.81	300.87
495.17	303.25
495.54	305.79
495.90	308.50
496.26	311.28
496.63	314.21
496.99	317.35
497.35	320.58
497.72	323.97
498.08	327.52
498.44	331.15
498.80	335.04
499.17	339.03
499.53	343.12
499.89	347.44
500.26	351.92
500.62	356.52
500.98	361.42
501.34	366.44
501.71	371.74
502.07	377.18
502.43	382.83
502.79	388.65
503.16	394.74
503.52	400.95
503.88	407.33
504.24	413.99
504.60	420.82
504.97	427.95
505.33	435.23
505.69	442.85
506.05	450.57
506.41	458.45
506.78	466.65
507.14	475.14
507.50	483.89
507.86	492.90
508.22	502.08
508.59	511.26
508.95	520.83
509.31	530.62
509.67	540.67
510.03	550.89
510.39	561.42
510.75	572.18
511.12	583.12
511.48	594.42
511.84	605.97
512.20	617.51
512.56	629.46
512.92	641.60
513.28	653.84
513.64	666.36
514.00	679.07
514.37	691.94
514.73	705.04
515.09	718.09
515.45	731.41
515.81	745.06
516.17	759.04
516.53	773.22
516.89	787.41
517.25	801.59
517.61	816.01
517.97	830.48
518.33	844.96
518.69	859.79
519.05	874.89
519.41	890.01
519.77	905.64
520.13	921.13
520.49	936.55
520.85	952.09
521.21	967.79
521.57	984.11
521.93	1000.02
522.29	1016.46
522.65	1032.66
523.01	1048.99
523.37	1065.02
523.73	1081.27
524.09	1097.44
524.45	1113.92
524.81	1130.65
525.17	1147.63
525.53	1164.59
525.89	1181.50
526.25	1198.39
526.61	1214.76
526.97	1231.50
527.33	1247.98
527.68	1264.64
528.04	1281.09
528.40	1297.84
528.76	1315.02
529.12	1331.59
529.48	1348.44
529.84	1364.58
530.20	1381.42
530.56	1398.53
530.91	1416.00
531.27	1432.76
531.63	1449.26
531.99	1465.74
532.35	1481.76
532.71	1497.55
533.07	1513.87
533.42	1529.87
533.78	1545.93
534.14	1562.27
534.50	1577.63
534.86	1593.65
535.21	1608.94
535.57	1625.28
535.93	1640.78
536.29	1655.61
536.65	1670.76
537.00	1685.74
537.36	1700.96
537.72	1715.55
538.08	1729.84
538.44	1743.75
538.79	1757.78
539.15	1771.65
539.51	1785.64
539.87	1800.04
540.22	1813.95
540.58	1827.87
540.94	1841.33
541.29	1854.37
541.65	1867.06
542.01	1880.53
542.37	1892.77
542.72	1905.33
543.08	1917.09
543.44	1929.62
543.79	1940.95
544.15	1952.01
544.51	1963.61
544.87	1974.69
545.22	1985.43
545.58	1995.79
545.94	2005.62
546.29	2015.51
546.65	2025.18
547.01	2034.35
547.36	2043.15
547.72	2051.67
548.07	2059.51
548.43	2067.65
548.79	2075.68
549.14	2083.26
549.50	2090.58
549.86	2098.39
550.21	2105.67
550.57	2112.76
550.92	2119.36
551.28	2126.50
551.64	2133.63
551.99	2140.23
552.35	2146.42
552.70	2152.65
553.06	2158.60
553.41	2164.96
553.77	2170.99
554.13	2177.23
554.48	2183.40
554.84	2188.70
555.19	2193.98
555.55	2198.91
555.90	2203.44
556.26	2208.21
556.61	2212.98
556.97	2216.99
557.32	2221.15
557.68	2225.11
558.03	2229.37
558.39	2233.17
558.74	2237.65
559.10	2241.45
559.45	2244.98
559.81	2249.33
560.16	2253.04
560.52	2256.33
560.87	2259.69
561.23	2262.28
561.58	2265.19
561.94	2267.55
562.29	2270.04
562.64	2272.62
563.00	2275.30
563.35	2278.66
563.71	2281.81
564.06	2285.09
564.42	2287.96
564.77	2290.34
565.12	2292.53
565.48	2294.27
565.83	2295.94
566.19	2297.22
566.54	2298.13
566.89	2299.21
567.25	2299.64
567.60	2301.04
567.96	2302.59
568.31	2303.38
568.66	2304.31
569.02	2304.79
569.37	2305.09
569.72	2305.73
570.08	2305.77
570.43	2305.71
570.78	2305.01
571.14	2303.39
571.49	2301.83
571.84	2301.41
572.20	2299.97
572.55	2298.96
572.90	2297.35
573.26	2295.82
573.61	2294.04
573.96	2292.13
574.31	2289.05
574.67	2285.87
575.02	2281.98
575.37	2278.46
575.72	2274.55
576.08	2271.34
576.43	2267.91
576.78	2264.15
577.13	2260.98
577.49	2257.80
577.84	2254.25
578.19	2250.39
578.54	2246.59
578.90	2242.14
579.25	2236.64
579.60	2231.58
579.95	2226.45
580.30	2221.30
580.66	2215.97
581.01	2210.79
581.36	2205.58
581.71	2201.30
582.06	2196.62
582.42	2192.00
582.77	2186.57
583.12	2181.81
583.47	2176.78
583.82	2171.55
584.17	2166.10
584.53	2160.42
584.88	2154.61
585.23	2148.70
585.58	2143.24
585.93	2137.66
586.28	2132.91
586.63	2127.64
586.98	2122.53
587.34	2117.66
587.69	2112.78
588.04	2107.53
588.39	2101.80
588.74	2095.29
589.09	2088.92
589.44	2082.08
589.79	2076.01
590.14	2070.40
590.49	2063.75
590.84	2057.19
591.19	2051.03
591.54	2044.42
591.89	2036.89
592.25	2030.05
592.60	2022.73
592.95	2014.83
593.30	2007.48
593.65	1999.82
594.00	1992.79
594.35	1985.45
594.70	1977.45
595.05	1969.96
595.40	1962.60
595.75	1955.10
596.10	1948.73
596.45	1941.72
596.80	1935.38
597.15	1928.65
597.50	1921.37
597.85	1915.00
598.19	1908.38
598.54	1901.31
598.89	1894.79
599.24	1889.00
599.59	1882.19
599.94	1876.05
600.29	1869.83
600.64	1863.16
600.99	1855.51
601.34	1848.42
601.69	1841.40
602.04	1834.22
602.39	1827.04
602.74	1820.10
603.08	1813.32
603.43	1806.63
603.78	1799.49
604.13	1792.35
604.48	1784.95
604.83	1778.19
605.18	1770.87
605.53	1762.86
605.87	1754.82
606.22	1747.56
606.57	1739.59
606.92	1732.31
607.27	1724.95
607.62	1717.96
607.96	1710.55
608.31	1703.93
608.66	1696.36
609.01	1688.88
609.36	1681.48
609.70	1673.37
610.05	1665.24
610.40	1657.59
610.75	1649.33
611.10	1641.72
611.44	1633.49
611.79	1625.60
612.14	1616.90
612.49	1608.04
612.83	1599.66
613.18	1591.56
613.53	1583.41
613.88	1574.85
614.22	1566.48
614.57	1558.01
614.92	1549.96
615.27	1542.38
615.61	1534.16
615.96	1526.22
616.31	1518.66
616.65	1511.34
617.00	1503.78
617.35	1496.16
617.70	1487.80
618.04	1479.27
618.39	1471.08
618.74	1463.37
619.08	1455.14
619.43	1447.52
619.78	1440.51
620.12	1433.40
620.47	1425.88
620.82	1417.80
621.16	1410.31
621.51	1402.83
621.85	1395.25
622.20	1386.85
622.55	1378.58
622.89	1370.79
623.24	1363.24
623.59	1355.82
623.93	1348.35
624.28	1341.12
624.62	1333.65
624.97	1326.44
625.32	1319.77
625.66	1312.68
626.01	1305.53
626.35	1298.04
626.70	1290.35
627.04	1282.63
627.39	1274.81
627.73	1267.41
628.08	1260.47
628.43	1253.24
628.77	1245.90
629.12	1238.26
629.46	1231.07
629.81	1223.88
630.15	1216.72
630.50	1209.42
630.84	1201.27
631.19	1193.20
631.53	1185.78
631.88	1178.25
632.22	1170.69
632.57	1163.35
632.91	1155.95
633.26	1148.58
633.60	1141.29
633.95	1134.22
634.29	1127.25
634.64	1120.64
634.98	1113.27
635.32	1106.12
635.67	1099.61
636.01	1093.01
636.36	1086.38
636.70	1079.93
637.05	1073.22
637.39	1066.78
637.73	1060.13
638.08	1054.35
638.42	1048.46
638.77	1042.05
639.11	1035.43
639.45	1029.15
639.80	1022.51
640.14	1016.05
640.49	1009.52
640.83	1003.26
641.17	997.03
641.52	990.72
641.86	984.39
642.20	978.63
642.55	972.35
642.89	965.84
643.23	959.36
643.58	953.48
643.92	947.27
644.26	941.20
644.61	935.26
644.95	929.28
645.29	922.66
645.64	915.94
645.98	909.65
646.32	903.82
646.66	897.73
647.01	891.96
647.35	886.31
647.69	880.52
648.04	874.94
648.38	869.21
648.72	863.27
649.06	857.16
649.41	851.33
649.75	845.41
650.09	839.54
650.43	833.70
650.78	827.61
651.12	821.62
651.46	815.97
651.80	810.11
652.14	804.75
652.49	799.43
652.83	794.35
653.17	788.60
653.51	782.93
653.85	777.54
654.20	771.96
654.54	766.00
654.88	760.34
655.22	754.54
655.56	748.84
655.90	743.35
656.25	738.18
656.59	732.77
656.93	727.67
657.27	722.53
657.61	717.14
657.95	712.04
658.29	707.00
658.64	701.80
658.98	696.54
659.32	691.14
659.66	685.88
660.00	680.55
660.34	675.75
660.68	670.85
661.02	665.86
661.36	661.11
661.70	656.61
662.05	652.22
662.39	647.93
662.73	643.54
663.07	639.19
663.41	634.73
663.75	630.24
664.09	625.74
664.43	621.37
664.77	617.29
665.11	613.15
665.45	609.09
665.79	604.96
666.13	600.85
666.47	596.73
666.81	592.60
667.15	588.51
667.49	584.59
667.83	580.84
668.17	576.91
668.51	572.93
668.85	568.97
669.19	565.13
669.53	561.22
669.87	557.37
670.21	553.75
670.55	550.22
670.89	546.87
671.23	543.47
671.57	539.89
671.91	536.41
672.25	532.86
672.58	529.38
672.92	526.12
673.26	523.02
673.60	519.91
673.94	516.80
674.28	513.92
674.62	510.98
674.96	507.86
675.30	505.00
675.64	502.09
675.97	499.31
676.31	496.48
676.65	493.63
676.99	490.95
677.33	488.06
677.67	485.16
678.01	482.11
678.34	479.04
678.68	476.24
679.02	473.35
679.36	470.60
679.70	467.88
680.04	465.09
680.37	462.18
680.71	459.44
681.05	456.86
681.39	454.13
681.73	451.48
682.06	449.01
682.40	446.40
682.74	443.86
683.08	441.33
683.42	438.78
683.75	436.31
684.09	433.76
684.43	431.29
684.77	428.88
685.10	426.51
685.44	424.38
685.78	422.16
686.12	420.01
686.45	417.74
686.79	415.46
687.13	413.27
687.46	411.14
687.80	409.02
688.14	406.91
688.48	404.90
688.81	402.66
689.15	400.52
689.49	398.44
689.82	396.35
690.16	394.24
690.50	392.30
690.83	390.38
691.17	388.42
691.51	386.56
691.84	384.69
692.18	382.81
692.52	380.75
692.85	378.81
693.19	376.91
693.52	375.13
693.86	373.35
694.20	371.54
694.53	369.71
694.87	367.84
695.21	366.03
695.54	364.19
695.88	362.49
696.21	360.75
696.55	359.07
696.88	357.39
697.22	355.75
697.56	354.11
697.89	352.45
698.23	350.80
698.56	349.18
698.90	347.59
699.23	345.97
699.57	344.47
699.90	342.92
700.24	341.39
700.58	339.84
700.91	338.32
701.25	336.91
701.58	335.57
701.92	334.26
702.25	332.85
702.59	331.47
702.92	330.17
703.26	328.86
703.59	327.57
703.93	326.44
704.26	325.22
704.60	323.91
704.93	322.67
705.26	321.47
705.60	320.32
705.93	319.17
706.27	318.16
706.60	317.08
706.94	316.01
707.27	314.87
707.61	313.82
707.94	312.82
708.27	311.70
708.61	310.63
708.94	309.61
709.28	308.65
709.61	307.72
709.94	306.75
710.28	305.76
710.61	304.81
710.95	303.75
711.28	302.81
711.61	301.86
711.95	300.92
712.28	299.98
712.61	298.97
712.95	298.08
713.28	297.16
713.61	296.28
713.95	295.40
714.28	294.58
714.61	293.71
714.95	292.81
715.28	291.99
715.61	291.12
715.95	290.25
716.28	289.39
716.61	288.57
716.95	287.75
717.28	287.00
717.61	286.24
717.94	285.47
718.28	284.70
718.61	284.02
718.94	283.29
719.27	282.66
719.61	282.01
719.94	281.30
720.27	280.63
720.60	279.98
720.94	279.36
721.27	278.75
721.60	278.17
721.93	277.62
722.27	277.06
722.60	276.50
722.93	275.96
723.26	275.42
723.59	274.82
723.93	274.30
724.26	273.78
724.59	273.21
724.92	272.71
725.25	272.25
725.59	271.72
725.92	271.23
726.25	270.70
726.58	270.21
726.91	269.74
727.24	269.26
727.57	268.79
727.91	268.31
728.24	267.85
728.57	267.37
728.90	266.92
729.23	266.43
729.56	266.02
729.89	265.58
730.22	265.09
730.55	264.66
730.89	264.24
731.22	263.74
731.55	263.30
731.88	262.92
732.21	262.43
732.54	261.97
732.87	261.56
733.20	261.11
733.53	260.75
733.86	260.38
734.19	259.98
734.52	259.59
734.85	259.28
735.18	258.87
735.51	258.51
735.84	258.13
736.17	257.77
736.50	257.35
736.83	257.08
737.16	256.74
737.49	256.42
737.82	256.00
738.15	255.70
738.48	255.38
738.81	255.00
739.14	254.68
739.47	254.42
739.80	254.08
740.13	253.82
740.46	253.50
740.79	253.17
741.12	252.87
741.45	252.56
741.78	252.20
742.11	251.91
742.44	251.59
742.77	251.31
743.10	251.00
743.43	250.68
743.75	250.28
744.08	250.16
744.41	249.84
744.74	249.61
745.07	249.29
745.40	249.05
745.73	248.84
746.06	248.56
746.39	248.30
746.71	248.04
747.04	247.76
747.37	247.48
747.70	247.19
748.03	246.93
748.36	246.72
748.68	246.49
749.01	246.23
749.34	245.98
749.67	245.74
750.00	245.51
750.33	245.37
750.65	245.17
750.98	244.81
751.31	244.64
751.64	244.42
751.97	244.29
752.29	244.06
752.62	243.78
752.95	243.57
753.28	243.37
753.60	243.18
753.93	242.97
754.26	242.80
754.59	242.62
754.91	242.39
755.24	242.20
755.57	242.00
755.90	241.84
756.22	241.66
756.55	241.46
756.88	241.28
757.20	241.06
757.53	240.86
757.86	240.71
758.19	240.54
758.51	240.37
758.84	240.15
759.17	239.96
759.49	239.81
759.82	239.68
760.15	239.52
760.47	239.35
760.80	239.20
761.13	239.05
761.45	238.86
761.78	238.75
762.11	238.61
762.43	238.43
762.76	238.30
763.08	238.19
763.41	238.08
763.74	237.95
764.06	237.82
764.39	237.69
764.71	237.58
765.04	237.45
765.37	237.35
765.69	237.25
766.02	237.12
766.34	237.00
766.67	236.88
767.00	236.82
767.32	236.79
767.65	236.77
767.97	236.65
768.30	236.56
768.62	236.44
768.95	236.31
769.27	236.23
769.60	236.11
769.92	235.96
770.25	235.87
770.57	235.78
770.90	235.68
771.22	235.54
771.55	235.42
771.87	235.30
772.20	235.22
772.52	235.17
772.85	235.23
773.17	235.17
773.50	235.07
773.82	234.93
774.15	234.78
774.47	234.61
774.80	234.53
775.12	234.46
775.45	234.36
775.77	234.25
776.09	234.17
776.42	234.10
776.74	234.08
777.07	233.96
777.39	233.86
777.72	233.78
778.04	233.78
778.36	233.73
778.69	233.67
779.01	233.60
779.33	233.47
779.66	233.27
779.98	233.18
780.31	233.09
780.63	233.04
780.95	233.01
781.28	232.96
781.60	232.87
781.92	232.79
782.25	232.74
782.57	232.69
782.89	232.62
783.22	232.57
783.54	232.46
783.86	232.42
784.19	232.37
784.51	232.36
784.83	232.28
785.16	232.20
785.48	232.12
785.80	232.06
786.12	232.00
786.45	231.95
786.77	231.92
787.09	231.86
787.42	231.82
787.74	231.75
788.06	231.69
788.38	231.64
788.71	231.59
789.03	231.56
789.35	231.52
789.67	231.47
789.99	231.43
790.32	231.37
790.64	231.35
790.96	231.38
791.28	231.29
791.61	231.25
791.93	231.20
792.25	231.16
792.57	231.18
792.89	231.12
793.21	231.10
793.54	231.04
793.86	231.00
794.18	230.96
794.50	230.89
794.82	230.86
795.14	230.90
795.47	230.86
795.79	230.80
796.11	230.74
796.43	230.74
796.75	230.71
797.07	230.72
797.39	230.71
797.71	230.61
798.04	230.60
798.36	230.57
798.68	230.54
799.00	230.52
799.32	230.48
799.64	230.50
799.96	230.44
800.28	230.43
800.60	230.42
800.92	230.41
801.24	230.41
801.56	230.38
801.89	230.28
802.21	230.28
802.53	230.26
802.85	230.28
803.17	230.26
803.49	230.23
803.81	230.16
804.13	230.09
804.45	230.04
804.77	230.00
805.09	229.97
805.41	229.94
805.73	229.91
806.05	229.82
806.37	229.78
806.69	229.75
807.01	229.73
807.33	229.73
807.65	229.68
807.97	229.71
808.28	229.66
808.60	229.63
808.92	229.59
809.24	229.64
809.56	229.60
809.88	229.55
810.20	229.55
810.52	229.54
810.84	229.52
811.16	229.48
811.48	229.46
811.80	229.49
812.12	229.47
812.43	229.44
812.75	229.41
813.07	229.38
813.39	229.39
813.71	229.35
814.03	229.28
814.35	229.22
814.67	229.13
814.98	229.14
815.30	229.16
815.62	229.16
815.94	229.07
816.26	229.08
816.58	229.05
816.89	228.98
817.21	228.94
817.53	228.90
817.85	228.90
818.17	228.87
818.48	228.83
818.80	228.81
819.12	228.79
819.44	228.79
819.76	228.74
820.07	228.70
820.39	228.65
820.71	228.63
821.03	228.65
821.34	228.63
821.66	228.59
821.98	228.54
822.30	228.47
822.61	228.52
822.93	228.47
823.25	228.46
823.57	228.43
823.88	228.46
824.20	228.41
824.52	228.40
824.83	228.36
825.15	228.31
825.47	228.28
825.79	228.29
826.10	228.23
826.42	228.24
826.74	228.25
827.05	228.26
827.37	228.23
827.69	228.17
828.00	228.17
828.32	228.15
828.64	228.16
828.95	228.18
829.27	228.15
829.58	228.14
829.90	228.13
830.22	228.12
830.53	228.09
830.85	228.10
831.17	228.10
831.48	228.10
831.80	228.11
832.11	228.10
832.43	228.07
832.75	228.11
833.06	228.13
833.38	228.11
833.69	228.10
834.01	228.14
834.32	228.18
834.64	228.16
834.96	228.15
835.27	228.12
835.59	228.11
835.90	228.09
836.22	228.07
836.53	228.06
836.85	228.05
837.16	228.18
837.48	228.18
837.79	228.18
838.11	228.18
838.42	228.16
838.74	228.15
839.05	228.13
839.37	228.12
839.68	228.09
840.00	228.10
840.31	228.10
840.63	228.08
840.94	228.08
841.26	228.04
841.57	228.08
841.88	228.09
842.20	228.07
842.51	228.03
842.83	228.04
843.14	228.13
843.46	228.16
843.77	228.07
844.08	228.06
844.40	228.07
844.71	228.06
845.03	228.06
845.34	228.08
845.65	228.08
845.97	228.06
846.28	228.04
846.60	228.00
846.91	227.98
847.22	227.97
847.54	228.00
847.85	228.01
848.16	227.97
848.48	227.95
848.79	227.99
849.10	228.00
849.42	227.98
849.73	227.88
850.04	227.84
850.36	227.80
850.67	227.83
850.98	227.78
851.30	227.79
851.61	227.76
851.92	227.75
852.23	227.78
852.55	227.78
852.86	227.81
853.17	227.79
853.49	227.79
853.80	227.80
854.11	227.77
854.42	227.80
854.74	227.80
855.05	227.84
855.36	227.78
855.67	227.78
855.99	227.78
856.30	227.86
856.61	227.86
856.92	227.85
857.23	227.82
857.55	227.84
857.86	227.84
858.17	227.88
858.48	227.84
858.79	227.81
859.11	227.82
859.42	227.81
859.73	227.80
860.04	227.79
860.35	227.74
860.66	227.70
860.98	227.70
861.29	227.68
861.60	227.64
861.91	227.67
862.22	227.64
862.53	227.62
862.84	227.54
863.16	227.57
863.47	227.54
863.78	227.52
864.09	227.55
864.40	227.56
864.71	227.53
865.02	227.57
865.33	227.54
865.64	227.50
865.95	227.48
866.27	227.54
866.58	227.55
866.89	227.57
867.20	227.55
867.51	227.52
867.82	227.53
868.13	227.54
868.44	227.54
868.75	227.57
869.06	227.57
869.37	227.57
869.68	227.56
869.99	227.59
870.30	227.57
870.61	227.53
870.92	227.52
871.23	227.51
871.54	227.51
871.85	227.53
872.16	227.59
872.47	227.57
872.78	227.50
873.09	227.49
873.40	227.52
873.71	227.52
874.02	227.54
874.33	227.53
874.64	227.53
874.95	227.50
875.26	227.47
875.56	227.45
875.87	227.41
876.18	227.41
876.49	227.51
876.80	227.51
877.11	227.48
877.42	227.47
877.73	227.47
878.04	227.44
878.35	227.47
878.66	227.46
878.96	227.47
879.27	227.47
879.58	227.47
879.89	227.44
880.20	227.48
880.51	227.46
880.82	227.47
881.12	227.47
881.43	227.46
881.74	227.46
882.05	227.50
882.36	227.51
882.67	227.50
882.97	227.37
883.28	227.37
883.59	227.38
883.90	227.38
884.21	227.42
884.51	227.44
884.82	227.42
885.13	227.40
885.44	227.37
885.74	227.39
886.05	227.41
886.36	227.43
886.67	227.41
886.98	227.44
887.28	227.46
887.59	227.45
887.90	227.44
888.20	227.42
888.51	227.42
888.82	227.41
889.13	227.41
889.43	227.50
889.74	227.51
890.05	227.51
890.35	227.51
890.66	227.47
890.97	227.45
891.28	227.40
891.58	227.40
891.89	227.42
892.20	227.38
892.50	227.35
892.81	227.34
893.12	227.36
893.42	227.33
893.73	227.30
894.04	227.32
894.34	227.34
894.65	227.32
894.95	227.29
895.26	227.28
895.57	227.28
895.87	227.18
896.18	227.19
896.48	227.20
896.79	227.17
897.10	227.16
897.40	227.14
897.71	227.17
898.01	227.15
898.32	227.11
898.63	227.13
898.93	227.15
899.24	227.13
899.54	227.09
899.85	227.08
900.15	227.10
900.46	227.09
900.76	227.08
901.07	227.12
901.38	227.14
901.68	227.16
901.99	227.13
902.29	227.11
902.60	227.07
902.90	227.06
903.21	227.05
903.51	227.05
903.82	227.05
904.12	227.06
904.43	227.06
904.73	227.10
905.03	227.10
905.34	227.18
905.64	227.17
905.95	227.17
906.25	227.13
906.56	227.12
906.86	227.10
907.17	227.09
907.47	227.07
907.77	227.07
908.08	227.03
908.38	227.02
908.69	227.07
908.99	227.12
909.30	227.12
909.60	227.14
909.90	227.16
910.21	227.16
910.51	227.14
910.81	227.17
911.12	227.16
911.42	227.16
911.73	227.05
912.03	227.07
912.33	227.08
912.64	227.11
912.94	227.07
913.24	227.08
913.55	227.07
913.85	227.11
914.15	227.13
914.46	227.16
914.76	227.21
915.06	227.19
915.37	227.16
915.67	227.18
915.97	227.17
916.27	227.15
916.58	227.18
916.88	227.19
917.18	227.18
917.49	227.24
917.79	227.23
918.09	227.26
918.39	227.28
918.70	227.29
919.00	227.30
919.30	227.37
919.60	227.35
919.91	227.35
920.21	227.33
920.51	227.31
920.81	227.32
921.12	227.28
921.42	227.29
921.72	227.33
922.02	227.32
922.32	227.32
922.63	227.34
922.93	227.39
923.23	227.39
923.53	227.38
923.83	227.34
924.13	227.35
924.44	227.33
924.74	227.34
925.04	227.34
925.34	227.34
925.64	227.29
925.94	227.31
926.24	227.34
926.55	227.33
926.85	227.30
927.15	227.30
927.45	227.32
927.75	227.32
928.05	227.30
928.35	227.27
928.65	227.29
928.95	227.24
929.26	227.19
929.56	227.19
929.86	227.22
930.16	227.22
930.46	227.23
930.76	227.26
931.06	227.21
931.36	227.20
931.66	227.21
931.96	227.23
932.26	227.20
932.56	227.16
932.86	227.18
933.16	227.23
933.46	227.20
933.76	227.15
934.06	227.16
934.36	227.18
934.66	227.16
934.96	227.18
935.26	227.19
935.56	227.18
935.86	227.16
936.16	227.11
936.46	227.05
936.76	227.05
937.06	227.00
937.36	226.99
937.66	227.01
937.96	226.98
938.26	226.94
938.56	226.96
938.86	226.94
939.16	226.96
939.46	226.91
939.76	226.92
940.06	226.90
940.35	226.87
940.65	226.85
940.95	226.90
941.25	226.86
941.55	226.86
941.85	226.88
942.15	226.90
942.45	226.95
942.75	226.95
943.04	226.96
943.34	227.00
943.64	226.99
943.94	226.96
944.24	226.97
944.54	226.96
944.84	226.97
945.13	226.99
945.43	226.96
945.73	227.01
946.03	227.01
946.33	227.05
946.62	227.05
946.92	227.05
947.22	227.06
947.52	227.05
947.82	227.05
948.11	227.02
948.41	227.01
948.71	226.98
949.01	227.02
949.31	227.03
949.60	227.03
949.90	227.06
950.20	227.10
950.50	227.11
950.79	227.12
951.09	227.12
951.39	227.15
951.69	227.17
951.98	227.18
952.28	227.22
952.58	227.20
952.87	227.21
953.17	227.22
953.47	227.21
953.76	227.21
954.06	227.20
954.36	227.23
954.66	227.26
954.95	227.31
955.25	227.32
955.55	227.31
955.84	227.32
956.14	227.36
956.44	227.36
956.73	227.35
957.03	227.35
957.32	227.35
957.62	227.31
957.92	227.32
958.21	227.32
958.51	227.42
958.81	227.43
959.10	227.45
959.40	227.45
959.69	227.47
959.99	227.50
960.29	227.52
960.58	227.51
960.88	227.53
961.17	227.50
961.47	227.48
961.76	227.48
962.06	227.48
962.36	227.44
962.65	227.40
962.95	227.39
963.24	227.40
963.54	227.40
963.83	227.42
964.13	227.43
964.42	227.41
964.72	227.29
965.01	227.31
965.31	227.26
965.60	227.26
965.90	227.30
966.19	227.25
966.49	227.24
966.78	227.22
967.08	227.19
967.37	227.17
967.67	227.15
967.96	227.17
968.26	227.18
968.55	227.18
968.85	227.20
969.14	227.21
969.43	227.20
969.73	227.17
970.02	227.13
970.32	227.11
970.61	227.08
970.91	227.07
971.20	227.05
971.49	227.05
971.79	227.04
972.08	226.98
972.38	226.99
972.67	226.98
972.96	226.99
973.26	226.97
973.55	227.01
973.85	227.02
974.14	226.99
974.43	226.98
974.73	226.97
975.02	226.95
975.31	226.94
975.61	226.96
975.90	226.96
976.19	226.98
976.49	226.97
976.78	227.00
977.07	227.01
977.37	227.01
977.66	227.04
977.95	227.04
978.24	227.01
978.54	227.04
978.83	227.02
979.12	227.00
979.42	227.02
979.71	227.02
980.00	227.02
980.29	227.00
980.59	226.96
980.88	226.97
981.17	226.97
981.46	226.95
981.76	226.94
982.05	226.98
982.34	226.99
982.63	226.96
982.93	226.95
983.22	226.93
983.51	226.94
983.80	226.97
984.09	226.99
984.39	227.04
984.68	227.02
984.97	227.06
985.26	227.06
985.55	227.06
985.85	227.04
986.14	227.10
986.43	227.16
986.72	227.17
987.01	227.15
987.30	227.15
987.59	227.18
987.89	227.21
988.18	227.17
988.47	227.19
988.76	227.25
989.05	227.25
989.34	227.25
989.63	227.25
989.92	227.24
990.22	227.22
990.51	227.20
990.80	227.21
991.09	227.19
991.38	227.20
991.67	227.17
991.96	227.17
992.25	227.13
992.54	227.10
992.83	227.09
993.12	227.08
993.41	227.13
993.70	227.14
993.99	227.16
994.28	227.17
994.58	227.15
994.87	227.11
995.16	227.12
995.45	227.13
995.74	227.09
996.03	227.07
996.32	227.07
996.61	227.08
996.90	227.09
997.19	227.08
997.48	227.09
997.77	227.09
998.06	227.07
998.34	227.05
998.63	227.05
998.92	227.05
999.21	227.05
999.50	227.00
999.79	226.96
1000.08	226.95
1000.37	226.95
1000.66	226.93
1000.95	226.95
1001.24	226.93
1001.53	226.93
1001.82	226.92
1002.11	226.90
1002.40	226.92
1002.68	226.92
1002.97	226.95
1003.26	226.94
1003.55	226.89
1003.84	226.91
1004.13	226.96
1004.42	226.93
1004.71	226.92
1004.99	226.92
1005.28	226.93
1005.57	226.95
1005.86	226.93
1006.15	226.91
1006.44	226.84
1006.72	226.85
1007.01	226.82
1007.30	226.83
1007.59	226.84
1007.88	226.85
1008.17	226.83
1008.45	226.80
1008.74	226.78
1009.03	226.70
1009.32	226.70
1009.60	226.71
1009.89	226.69
1010.18	226.64
1010.47	226.68
1010.76	226.69
1011.04	226.68
1011.33	226.67
1011.62	226.66
1011.91	226.67
1012.19	226.67
1012.48	226.72
1012.77	226.73
1013.05	226.82
1013.34	226.84
1013.63	226.83
1013.92	226.88
1014.20	226.90
1014.49	226.92
1014.78	226.91
1015.06	226.89
1015.35	226.91
1015.64	226.96
1015.92	226.98
1016.21	226.98
1016.50	226.99
1016.78	226.99
1017.07	227.00
1017.36	226.99
1017.64	227.01
1017.93	227.06
1018.22	227.06
1018.50	227.07
1018.79	227.07
1019.08	226.98
1019.36	226.98
1019.65	226.97
1019.93	226.98
1020.22	227.02
1020.51	227.08
1020.79	227.10
1021.08	226.83
1021.36	227.14
1021.65	226.87
1021.94	226.65
1022.22	227.25
1022.51	226.79
1022.79	227.76
1023.08	227.47
1023.36	228.65
1023.65	226.76
>>>>>End Processed Spectral Data<<<<<
