SpectraSuite Data File
++++++++++++++++++++++++++++++++++++
Date: Fri Feb 01 16:15:34 EST 2013
User: group
Dark Spectrum Present: No
Reference Spectrum Present: No
Number of Sampled Component Spectra: 1
Spectrometers: USB2E7196
Integration Time (usec): 35000 (USB2E7196)
Spectra Averaged: 100 (USB2E7196)
Boxcar Smoothing: 10 (USB2E7196)
Correct for Electrical Dark: No (USB2E7196)
Strobe/Lamp Enabled: No (USB2E7196)
Correct for Detector Non-linearity: No (USB2E7196)
Correct for Stray Light: No (USB2E7196)
Number of Pixels in Processed Spectrum: 2048
>>>>>Begin Processed Spectral Data<<<<<
339.09	0.00
339.48	214.15
339.86	215.67
340.24	217.61
340.63	218.77
341.01	221.64
341.39	221.62
341.78	222.45
342.16	223.90
342.54	224.35
342.93	212.75
343.31	223.51
343.69	224.04
344.07	224.50
344.46	224.90
344.84	225.27
345.22	225.48
345.60	225.73
345.99	225.90
346.37	226.02
346.75	226.12
347.13	226.18
347.52	226.25
347.90	226.28
348.28	226.25
348.66	226.31
349.05	226.27
349.43	226.28
349.81	226.32
350.19	226.37
350.57	226.43
350.96	226.50
351.34	226.55
351.72	226.62
352.10	226.72
352.48	226.81
352.87	226.84
353.25	226.90
353.63	226.92
354.01	226.97
354.39	227.05
354.77	227.14
355.15	227.24
355.54	227.27
355.92	227.31
356.30	227.40
356.68	227.49
357.06	227.57
357.44	227.61
357.82	227.67
358.20	227.77
358.58	227.84
358.97	227.88
359.35	227.95
359.73	228.03
360.11	228.04
360.49	228.06
360.87	228.10
361.25	228.19
361.63	228.30
362.01	228.35
362.39	228.35
362.77	228.36
363.15	228.37
363.53	228.40
363.91	228.46
364.29	228.48
364.67	228.41
365.05	228.41
365.43	228.48
365.81	228.50
366.19	228.50
366.57	228.50
366.95	228.50
367.33	228.47
367.71	228.49
368.09	228.51
368.47	228.49
368.85	228.48
369.23	228.44
369.61	228.40
369.99	228.41
370.37	228.39
370.75	228.41
371.13	228.32
371.51	228.26
371.89	228.24
372.27	228.20
372.65	228.15
373.03	228.09
373.41	228.02
373.78	227.96
374.16	227.85
374.54	227.80
374.92	227.73
375.30	227.68
375.68	227.57
376.06	227.52
376.44	227.44
376.82	227.40
377.19	227.29
377.57	227.18
377.95	227.09
378.33	227.03
378.71	226.90
379.09	226.87
379.47	226.83
379.84	226.72
380.22	226.68
380.60	226.64
380.98	226.58
381.36	226.51
381.73	226.43
382.11	226.38
382.49	226.34
382.87	226.26
383.25	226.22
383.62	226.27
384.00	226.23
384.38	226.19
384.76	226.16
385.13	226.19
385.51	226.16
385.89	226.10
386.27	226.06
386.64	226.02
387.02	226.00
387.40	225.95
387.78	225.94
388.15	225.87
388.53	225.82
388.91	225.79
389.29	225.76
389.66	225.76
390.04	225.73
390.42	225.71
390.79	225.71
391.17	225.70
391.55	225.61
391.92	225.60
392.30	225.61
392.68	225.60
393.05	225.57
393.43	225.59
393.81	225.62
394.18	225.59
394.56	225.61
394.94	225.64
395.31	225.67
395.69	225.72
396.06	225.77
396.44	225.81
396.82	225.85
397.19	225.96
397.57	225.98
397.95	226.06
398.32	226.09
398.70	226.15
399.07	226.21
399.45	226.27
399.82	226.32
400.20	226.35
400.58	226.39
400.95	226.44
401.33	226.53
401.70	226.65
402.08	226.76
402.45	226.88
402.83	226.97
403.20	227.07
403.58	227.17
403.95	227.27
404.33	227.40
404.71	227.54
405.08	227.70
405.46	227.85
405.83	227.99
406.21	228.16
406.58	228.33
406.96	228.48
407.33	228.65
407.70	228.87
408.08	229.18
408.45	229.39
408.83	229.63
409.20	229.87
409.58	230.05
409.95	230.34
410.33	230.56
410.70	230.81
411.08	231.11
411.45	231.39
411.82	231.69
412.20	232.04
412.57	232.45
412.95	232.71
413.32	233.13
413.69	233.52
414.07	233.95
414.44	234.42
414.82	234.91
415.19	235.46
415.56	235.99
415.94	236.52
416.31	237.16
416.68	237.77
417.06	238.44
417.43	239.11
417.81	239.86
418.18	240.64
418.55	241.46
418.93	242.34
419.30	243.23
419.67	244.17
420.04	245.14
420.42	246.14
420.79	247.34
421.16	248.47
421.54	249.68
421.91	250.88
422.28	252.10
422.66	253.41
423.03	254.70
423.40	256.02
423.77	257.41
424.15	258.83
424.52	260.30
424.89	261.89
425.26	263.48
425.64	264.90
426.01	266.49
426.38	268.15
426.75	269.85
427.13	271.59
427.50	273.42
427.87	275.29
428.24	277.12
428.61	278.85
428.99	280.80
429.36	282.88
429.73	284.95
430.10	286.96
430.47	288.99
430.85	291.15
431.22	293.34
431.59	295.75
431.96	297.99
432.33	300.46
432.70	302.84
433.08	305.62
433.45	308.27
433.82	310.88
434.19	313.78
434.56	316.54
434.93	319.17
435.30	321.76
435.68	324.62
436.05	327.46
436.42	330.23
436.79	332.71
437.16	335.41
437.53	338.22
437.90	341.04
438.27	343.77
438.64	346.53
439.01	349.14
439.38	351.33
439.75	353.50
440.13	355.97
440.50	358.29
440.87	360.12
441.24	362.04
441.61	364.17
441.98	365.66
442.35	367.46
442.72	369.27
443.09	371.05
443.46	372.05
443.83	372.61
444.20	373.11
444.57	373.94
444.94	374.21
445.31	374.52
445.68	374.88
446.05	374.97
446.42	374.58
446.79	374.12
447.16	373.70
447.53	373.39
447.90	372.24
448.27	371.11
448.64	369.54
449.01	368.40
449.37	366.46
449.74	364.53
450.11	362.28
450.48	359.85
450.85	357.33
451.22	355.18
451.59	353.14
451.96	351.21
452.33	348.62
452.70	346.25
453.07	343.48
453.43	340.57
453.80	337.79
454.17	335.16
454.54	332.65
454.91	329.88
455.28	327.17
455.65	324.73
456.02	322.25
456.38	320.09
456.75	317.43
457.12	315.18
457.49	312.99
457.86	310.83
458.23	309.01
458.59	307.00
458.96	304.90
459.33	303.06
459.70	301.18
460.07	299.66
460.43	297.97
460.80	296.33
461.17	294.93
461.54	293.45
461.91	292.00
462.27	290.54
462.64	289.33
463.01	287.99
463.38	286.67
463.74	285.35
464.11	284.23
464.48	283.24
464.85	282.12
465.21	281.26
465.58	280.34
465.95	279.25
466.32	278.33
466.68	277.50
467.05	276.66
467.42	275.79
467.78	274.94
468.15	274.05
468.52	273.40
468.88	272.51
469.25	271.75
469.62	271.19
469.98	270.55
470.35	269.90
470.72	269.32
471.08	268.72
471.45	268.21
471.82	267.66
472.18	267.07
472.55	266.67
472.92	266.14
473.28	265.69
473.65	265.28
474.02	264.84
474.38	264.44
474.75	264.10
475.11	263.76
475.48	263.47
475.85	263.25
476.21	263.02
476.58	262.85
476.94	262.70
477.31	262.50
477.67	262.36
478.04	262.28
478.41	262.23
478.77	262.26
479.14	262.19
479.50	262.18
479.87	262.27
480.23	262.33
480.60	262.39
480.96	262.51
481.33	262.72
481.69	262.94
482.06	263.19
482.42	263.40
482.79	263.66
483.15	264.00
483.52	264.40
483.88	264.77
484.25	265.17
484.61	265.63
484.98	266.07
485.34	266.66
485.71	267.26
486.07	267.90
486.44	268.47
486.80	269.17
487.17	269.92
487.53	270.74
487.90	271.61
488.26	272.56
488.62	273.53
488.99	274.48
489.35	275.53
489.72	276.65
490.08	277.83
490.44	279.08
490.81	280.43
491.17	281.77
491.54	283.25
491.90	284.81
492.26	286.45
492.63	288.23
492.99	290.01
493.36	291.90
493.72	293.92
494.08	296.05
494.45	298.31
494.81	300.68
495.17	303.13
495.54	305.69
495.90	308.39
496.26	311.20
496.63	314.18
496.99	317.29
497.35	320.52
497.72	323.95
498.08	327.47
498.44	331.16
498.80	335.11
499.17	339.16
499.53	343.33
499.89	347.73
500.26	352.24
500.62	356.93
500.98	361.92
501.34	367.04
501.71	372.31
502.07	377.78
502.43	383.38
502.79	389.19
503.16	395.25
503.52	401.54
503.88	407.97
504.24	414.53
504.60	421.43
504.97	428.59
505.33	435.96
505.69	443.65
506.05	451.42
506.41	459.29
506.78	467.47
507.14	475.96
507.50	484.71
507.86	493.73
508.22	502.90
508.59	512.14
508.95	521.72
509.31	531.55
509.67	541.63
510.03	551.92
510.39	562.52
510.75	573.32
511.12	584.25
511.48	595.59
511.84	607.15
512.20	618.65
512.56	630.64
512.92	642.76
513.28	655.19
513.64	667.63
514.00	680.30
514.37	693.22
514.73	706.24
515.09	719.27
515.45	732.59
515.81	746.19
516.17	760.12
516.53	774.14
516.89	788.31
517.25	802.47
517.61	816.98
517.97	831.35
518.33	845.75
518.69	860.47
519.05	875.37
519.41	890.43
519.77	905.89
520.13	921.22
520.49	936.58
520.85	951.96
521.21	967.65
521.57	983.85
521.93	999.56
522.29	1015.93
522.65	1032.11
523.01	1048.22
523.37	1064.22
523.73	1080.37
524.09	1096.49
524.45	1112.74
524.81	1129.32
525.17	1146.03
525.53	1162.92
525.89	1179.70
526.25	1196.56
526.61	1212.96
526.97	1229.75
527.33	1246.27
527.68	1262.93
528.04	1279.40
528.40	1295.85
528.76	1312.85
529.12	1329.36
529.48	1346.15
529.84	1362.05
530.20	1378.58
530.56	1395.62
530.91	1412.99
531.27	1429.53
531.63	1445.88
531.99	1462.41
532.35	1478.36
532.71	1494.17
533.07	1510.33
533.42	1526.19
533.78	1542.12
534.14	1558.30
534.50	1573.56
534.86	1589.35
535.21	1604.45
535.57	1620.25
535.93	1635.61
536.29	1650.37
536.65	1665.38
537.00	1680.13
537.36	1695.47
537.72	1709.85
538.08	1724.02
538.44	1737.70
538.79	1751.65
539.15	1765.30
539.51	1778.92
539.87	1793.12
540.22	1806.78
540.58	1820.47
540.94	1833.72
541.29	1846.52
541.65	1859.15
542.01	1872.28
542.37	1884.44
542.72	1896.80
543.08	1908.43
543.44	1920.89
543.79	1932.09
544.15	1942.91
544.51	1954.39
544.87	1965.27
545.22	1976.03
545.58	1986.35
545.94	1996.00
546.29	2005.85
546.65	2015.69
547.01	2025.02
547.36	2033.80
547.72	2042.14
548.07	2049.81
548.43	2058.02
548.79	2066.03
549.14	2073.51
549.50	2080.69
549.86	2088.36
550.21	2095.62
550.57	2102.83
550.92	2109.38
551.28	2116.40
551.64	2123.52
551.99	2129.95
552.35	2135.95
552.70	2142.32
553.06	2148.30
553.41	2154.68
553.77	2160.58
554.13	2166.68
554.48	2172.77
554.84	2178.19
555.19	2183.46
555.55	2188.85
555.90	2193.32
556.26	2198.14
556.61	2202.74
556.97	2207.13
557.32	2211.19
557.68	2215.25
558.03	2219.57
558.39	2223.16
558.74	2227.85
559.10	2231.74
559.45	2235.49
559.81	2239.89
560.16	2243.52
560.52	2246.60
560.87	2250.03
561.23	2252.81
561.58	2255.73
561.94	2258.22
562.29	2260.51
562.64	2263.26
563.00	2265.76
563.35	2269.24
563.71	2272.38
564.06	2275.68
564.42	2278.68
564.77	2281.26
565.12	2283.71
565.48	2285.62
565.83	2287.49
566.19	2288.76
566.54	2289.61
566.89	2290.82
567.25	2291.44
567.60	2292.88
567.96	2294.72
568.31	2295.47
568.66	2296.64
569.02	2297.22
569.37	2297.55
569.72	2298.51
570.08	2298.76
570.43	2298.77
570.78	2298.25
571.14	2296.67
571.49	2295.40
571.84	2294.95
572.20	2293.97
572.55	2292.69
572.90	2291.07
573.26	2289.79
573.61	2288.01
573.96	2286.46
574.31	2283.44
574.67	2280.39
575.02	2276.81
575.37	2273.38
575.72	2269.73
576.08	2266.23
576.43	2262.89
576.78	2259.26
577.13	2256.00
577.49	2252.84
577.84	2249.36
578.19	2245.74
578.54	2242.32
578.90	2238.15
579.25	2232.65
579.60	2227.78
579.95	2222.90
580.30	2218.06
580.66	2212.88
581.01	2207.97
581.36	2202.96
581.71	2198.88
582.06	2194.59
582.42	2190.15
582.77	2184.99
583.12	2180.61
583.47	2176.08
583.82	2171.16
584.17	2165.89
584.53	2160.44
584.88	2154.96
585.23	2149.22
585.58	2143.63
585.93	2138.12
586.28	2133.30
586.63	2128.28
586.98	2123.12
587.34	2118.48
587.69	2113.58
588.04	2108.52
588.39	2103.05
588.74	2096.64
589.09	2090.54
589.44	2083.68
589.79	2077.63
590.14	2072.06
590.49	2065.35
590.84	2058.86
591.19	2052.82
591.54	2046.35
591.89	2039.18
592.25	2032.36
592.60	2025.22
592.95	2017.73
593.30	2010.49
593.65	2002.98
594.00	1995.95
594.35	1988.74
594.70	1980.78
595.05	1973.63
595.40	1966.35
595.75	1958.65
596.10	1952.48
596.45	1945.79
596.80	1939.71
597.15	1933.15
597.50	1926.10
597.85	1919.60
598.19	1913.04
598.54	1905.88
598.89	1899.31
599.24	1893.33
599.59	1886.65
599.94	1880.67
600.29	1874.37
600.64	1867.78
600.99	1860.41
601.34	1853.60
601.69	1846.73
602.04	1839.84
602.39	1832.50
602.74	1825.72
603.08	1819.18
603.43	1812.48
603.78	1805.21
604.13	1798.00
604.48	1790.68
604.83	1783.75
605.18	1776.91
605.53	1768.99
605.87	1761.09
606.22	1754.04
606.57	1746.15
606.92	1738.86
607.27	1731.64
607.62	1724.66
607.96	1717.43
608.31	1710.87
608.66	1703.25
609.01	1695.60
609.36	1688.09
609.70	1680.12
610.05	1672.03
610.40	1664.23
610.75	1655.89
611.10	1648.12
611.44	1639.67
611.79	1631.66
612.14	1622.98
612.49	1613.70
612.83	1605.24
613.18	1597.04
613.53	1588.86
613.88	1580.31
614.22	1572.10
614.57	1563.43
614.92	1555.52
615.27	1547.91
615.61	1539.47
615.96	1531.48
616.31	1523.92
616.65	1516.56
617.00	1508.94
617.35	1501.26
617.70	1492.94
618.04	1484.43
618.39	1476.21
618.74	1468.72
619.08	1460.46
619.43	1452.95
619.78	1446.09
620.12	1439.04
620.47	1431.61
620.82	1423.37
621.16	1416.04
621.51	1408.33
621.85	1400.65
622.20	1392.05
622.55	1383.69
622.89	1375.84
623.24	1368.23
623.59	1360.73
623.93	1353.14
624.28	1345.91
624.62	1338.27
624.97	1331.14
625.32	1324.34
625.66	1317.28
626.01	1310.09
626.35	1302.57
626.70	1294.83
627.04	1287.15
627.39	1279.25
627.73	1271.75
628.08	1264.84
628.43	1257.48
628.77	1250.12
629.12	1242.56
629.46	1235.35
629.81	1227.88
630.15	1220.77
630.50	1213.26
630.84	1205.07
631.19	1197.16
631.53	1189.61
631.88	1182.14
632.22	1174.65
632.57	1167.43
632.91	1159.89
633.26	1152.44
633.60	1145.13
633.95	1137.99
634.29	1130.94
634.64	1124.29
634.98	1117.02
635.32	1109.76
635.67	1103.14
636.01	1096.50
636.36	1089.72
636.70	1083.23
637.05	1076.68
637.39	1070.13
637.73	1063.67
638.08	1057.81
638.42	1051.79
638.77	1045.45
639.11	1038.80
639.45	1032.28
639.80	1025.56
640.14	1019.19
640.49	1012.72
640.83	1006.50
641.17	1000.34
641.52	993.90
641.86	987.41
642.20	981.53
642.55	975.30
642.89	968.79
643.23	962.17
643.58	956.43
643.92	950.24
644.26	944.14
644.61	938.10
644.95	932.09
645.29	925.53
645.64	918.82
645.98	912.41
646.32	906.61
646.66	900.53
647.01	894.78
647.35	889.08
647.69	883.19
648.04	877.59
648.38	871.77
648.72	865.82
649.06	859.85
649.41	853.99
649.75	848.07
650.09	842.13
650.43	836.37
650.78	830.23
651.12	824.32
651.46	818.65
651.80	812.95
652.14	807.61
652.49	802.24
652.83	797.03
653.17	791.35
653.51	785.65
653.85	780.33
654.20	774.75
654.54	768.77
654.88	763.00
655.22	757.11
655.56	751.42
655.90	746.01
656.25	740.72
656.59	735.26
656.93	730.17
657.27	724.99
657.61	719.59
657.95	714.46
658.29	709.37
658.64	704.12
658.98	698.70
659.32	693.15
659.66	687.96
660.00	682.66
660.34	677.75
660.68	672.76
661.02	667.69
661.36	662.93
661.70	658.43
662.05	654.01
662.39	649.67
662.73	645.13
663.07	640.75
663.41	636.32
663.75	631.93
664.09	627.39
664.43	623.02
664.77	618.96
665.11	614.78
665.45	610.63
665.79	606.51
666.13	602.47
666.47	598.33
666.81	594.14
667.15	590.03
667.49	586.12
667.83	582.35
668.17	578.45
668.51	574.42
668.85	570.34
669.19	566.53
669.53	562.68
669.87	558.85
670.21	555.15
670.55	551.49
670.89	548.00
671.23	544.56
671.57	541.05
671.91	537.41
672.25	533.91
672.58	530.37
672.92	526.97
673.26	523.82
673.60	520.72
673.94	517.60
674.28	514.69
674.62	511.68
674.96	508.56
675.30	505.65
675.64	502.70
675.97	499.96
676.31	497.10
676.65	494.17
676.99	491.43
677.33	488.56
677.67	485.73
678.01	482.75
678.34	479.80
678.68	476.91
679.02	474.11
679.36	471.37
679.70	468.65
680.04	465.95
680.37	463.09
680.71	460.27
681.05	457.68
681.39	454.94
681.73	452.30
682.06	449.76
682.40	447.18
682.74	444.63
683.08	442.02
683.42	439.44
683.75	437.00
684.09	434.49
684.43	432.03
684.77	429.62
685.10	427.22
685.44	424.85
685.78	422.59
686.12	420.32
686.45	417.96
686.79	415.69
687.13	413.43
687.46	411.27
687.80	409.14
688.14	406.90
688.48	404.86
688.81	402.65
689.15	400.49
689.49	398.35
689.82	396.22
690.16	394.19
690.50	392.21
690.83	390.23
691.17	388.23
691.51	386.30
691.84	384.45
692.18	382.59
692.52	380.63
692.85	378.69
693.19	376.84
693.52	375.00
693.86	373.14
694.20	371.37
694.53	369.58
694.87	367.73
695.21	365.99
695.54	364.16
695.88	362.44
696.21	360.72
696.55	359.05
696.88	357.39
697.22	355.69
697.56	354.08
697.89	352.40
698.23	350.78
698.56	349.16
698.90	347.54
699.23	345.84
699.57	344.31
699.90	342.78
700.24	341.23
700.58	339.70
700.91	338.21
701.25	336.76
701.58	335.36
701.92	333.99
702.25	332.60
702.59	331.20
702.92	329.83
703.26	328.49
703.59	327.18
703.93	325.99
704.26	324.80
704.60	323.50
704.93	322.24
705.26	321.01
705.60	319.85
705.93	318.68
706.27	317.65
706.60	316.57
706.94	315.49
707.27	314.36
707.61	313.28
707.94	312.22
708.27	311.13
708.61	310.04
708.94	309.04
709.28	308.07
709.61	307.17
709.94	306.21
710.28	305.21
710.61	304.29
710.95	303.20
711.28	302.29
711.61	301.35
711.95	300.45
712.28	299.47
712.61	298.50
712.95	297.58
713.28	296.70
713.61	295.82
713.95	294.92
714.28	294.04
714.61	293.17
714.95	292.33
715.28	291.49
715.61	290.63
715.95	289.77
716.28	288.85
716.61	287.97
716.95	287.17
717.28	286.40
717.61	285.56
717.94	284.84
718.28	283.97
718.61	283.24
718.94	282.50
719.27	281.84
719.61	281.17
719.94	280.51
720.27	279.76
720.60	279.09
720.94	278.43
721.27	277.85
721.60	277.30
721.93	276.68
722.27	276.11
722.60	275.56
722.93	274.99
723.26	274.47
723.59	273.93
723.93	273.41
724.26	272.83
724.59	272.29
724.92	271.77
725.25	271.29
725.59	270.76
725.92	270.30
726.25	269.80
726.58	269.30
726.91	268.78
727.24	268.30
727.57	267.81
727.91	267.29
728.24	266.83
728.57	266.32
728.90	265.91
729.23	265.42
729.56	265.00
729.89	264.53
730.22	264.06
730.55	263.60
730.89	263.14
731.22	262.70
731.55	262.25
731.88	261.81
732.21	261.37
732.54	260.97
732.87	260.52
733.20	260.10
733.53	259.71
733.86	259.36
734.19	259.00
734.52	258.61
734.85	258.34
735.18	257.92
735.51	257.55
735.84	257.16
736.17	256.84
736.50	256.39
736.83	256.16
737.16	255.83
737.49	255.48
737.82	255.11
738.15	254.83
738.48	254.50
738.81	254.14
739.14	253.83
739.47	253.51
739.80	253.19
740.13	252.91
740.46	252.60
740.79	252.27
741.12	251.96
741.45	251.67
741.78	251.33
742.11	251.04
742.44	250.70
742.77	250.41
743.10	250.08
743.43	249.81
743.75	249.42
744.08	249.28
744.41	249.02
744.74	248.76
745.07	248.46
745.40	248.25
745.73	248.04
746.06	247.79
746.39	247.51
746.71	247.24
747.04	246.96
747.37	246.70
747.70	246.47
748.03	246.22
748.36	245.97
748.68	245.72
749.01	245.49
749.34	245.29
749.67	245.06
750.00	244.85
750.33	244.67
750.65	244.44
750.98	244.10
751.31	243.90
751.64	243.68
751.97	243.53
752.29	243.30
752.62	243.06
752.95	242.83
753.28	242.62
753.60	242.42
753.93	242.24
754.26	242.03
754.59	241.82
754.91	241.61
755.24	241.42
755.57	241.24
755.90	241.05
756.22	240.82
756.55	240.62
756.88	240.42
757.20	240.20
757.53	240.00
757.86	239.82
758.19	239.63
758.51	239.45
758.84	239.20
759.17	239.05
759.49	238.88
759.82	238.75
760.15	238.61
760.47	238.46
760.80	238.29
761.13	238.18
761.45	238.00
761.78	237.86
762.11	237.73
762.43	237.56
762.76	237.42
763.08	237.33
763.41	237.18
763.74	237.05
764.06	236.91
764.39	236.79
764.71	236.65
765.04	236.50
765.37	236.37
765.69	236.23
766.02	236.07
766.34	235.92
766.67	235.77
767.00	235.66
767.32	235.58
767.65	235.55
767.97	235.41
768.30	235.31
768.62	235.17
768.95	235.03
769.27	234.93
769.60	234.85
769.92	234.71
770.25	234.62
770.57	234.50
770.90	234.42
771.22	234.31
771.55	234.23
771.87	234.15
772.20	234.07
772.52	234.10
772.85	234.11
773.17	234.02
773.50	233.91
773.82	233.81
774.15	233.69
774.47	233.50
774.80	233.40
775.12	233.27
775.45	233.21
775.77	233.15
776.09	233.07
776.42	232.97
776.74	232.92
777.07	232.82
777.39	232.72
777.72	232.62
778.04	232.53
778.36	232.43
778.69	232.37
779.01	232.29
779.33	232.12
779.66	231.97
779.98	231.91
780.31	231.86
780.63	231.85
780.95	231.80
781.28	231.77
781.60	231.71
781.92	231.68
782.25	231.64
782.57	231.60
782.89	231.50
783.22	231.46
783.54	231.38
783.86	231.30
784.19	231.26
784.51	231.25
784.83	231.23
785.16	231.19
785.48	231.14
785.80	231.12
786.12	231.07
786.45	231.04
786.77	231.03
787.09	230.97
787.42	230.88
787.74	230.84
788.06	230.79
788.38	230.71
788.71	230.68
789.03	230.61
789.35	230.56
789.67	230.52
789.99	230.50
790.32	230.45
790.64	230.44
790.96	230.47
791.28	230.38
791.61	230.35
791.93	230.33
792.25	230.28
792.57	230.29
792.89	230.25
793.21	230.22
793.54	230.14
793.86	230.08
794.18	230.04
794.50	229.99
794.82	229.99
795.14	229.99
795.47	229.95
795.79	229.94
796.11	229.87
796.43	229.82
796.75	229.76
797.07	229.71
797.39	229.70
797.71	229.61
798.04	229.60
798.36	229.54
798.68	229.49
799.00	229.49
799.32	229.41
799.64	229.40
799.96	229.37
800.28	229.35
800.60	229.32
800.92	229.31
801.24	229.24
801.56	229.20
801.89	229.16
802.21	229.14
802.53	229.07
802.85	229.06
803.17	229.10
803.49	229.07
803.81	229.05
804.13	229.01
804.45	228.97
804.77	228.94
805.09	228.93
805.41	228.91
805.73	228.84
806.05	228.78
806.37	228.76
806.69	228.71
807.01	228.69
807.33	228.69
807.65	228.62
807.97	228.66
808.28	228.64
808.60	228.61
808.92	228.58
809.24	228.64
809.56	228.60
809.88	228.55
810.20	228.56
810.52	228.58
810.84	228.52
811.16	228.48
811.48	228.42
811.80	228.44
812.12	228.42
812.43	228.43
812.75	228.44
813.07	228.40
813.39	228.39
813.71	228.36
814.03	228.33
814.35	228.33
814.67	228.30
814.98	228.28
815.30	228.25
815.62	228.22
815.94	228.15
816.26	228.21
816.58	228.19
816.89	228.15
817.21	228.11
817.53	228.12
817.85	228.13
818.17	228.15
818.48	228.10
818.80	228.06
819.12	228.03
819.44	228.00
819.76	227.95
820.07	227.94
820.39	227.95
820.71	227.94
821.03	227.91
821.34	227.89
821.66	227.87
821.98	227.85
822.30	227.87
822.61	227.93
822.93	227.84
823.25	227.79
823.57	227.76
823.88	227.77
824.20	227.76
824.52	227.74
824.83	227.73
825.15	227.71
825.47	227.71
825.79	227.72
826.10	227.68
826.42	227.67
826.74	227.64
827.05	227.59
827.37	227.64
827.69	227.62
828.00	227.59
828.32	227.59
828.64	227.59
828.95	227.58
829.27	227.52
829.58	227.53
829.90	227.55
830.22	227.55
830.53	227.54
830.85	227.51
831.17	227.46
831.48	227.45
831.80	227.40
832.11	227.35
832.43	227.31
832.75	227.28
833.06	227.37
833.38	227.33
833.69	227.32
834.01	227.26
834.32	227.23
834.64	227.22
834.96	227.20
835.27	227.18
835.59	227.12
835.90	227.06
836.22	227.04
836.53	227.00
836.85	226.99
837.16	227.05
837.48	227.02
837.79	227.03
838.11	227.05
838.42	227.04
838.74	227.08
839.05	227.05
839.37	227.02
839.68	226.96
840.00	226.95
840.31	226.94
840.63	226.93
840.94	226.93
841.26	226.90
841.57	226.88
841.88	226.91
842.20	226.89
842.51	226.90
842.83	226.91
843.14	227.01
843.46	227.02
843.77	226.97
844.08	226.98
844.40	226.99
844.71	226.95
845.03	226.95
845.34	226.93
845.65	226.94
845.97	226.95
846.28	226.92
846.60	226.93
846.91	226.91
847.22	226.91
847.54	226.92
847.85	226.93
848.16	226.93
848.48	226.88
848.79	226.92
849.10	226.89
849.42	226.87
849.73	226.75
850.04	226.71
850.36	226.65
850.67	226.67
850.98	226.64
851.30	226.66
851.61	226.66
851.92	226.64
852.23	226.67
852.55	226.67
852.86	226.69
853.17	226.69
853.49	226.73
853.80	226.76
854.11	226.77
854.42	226.79
854.74	226.76
855.05	226.80
855.36	226.76
855.67	226.80
855.99	226.82
856.30	226.94
856.61	226.93
856.92	226.95
857.23	226.98
857.55	226.98
857.86	226.96
858.17	226.94
858.48	226.97
858.79	226.95
859.11	226.96
859.42	226.94
859.73	226.97
860.04	226.95
860.35	226.89
860.66	226.88
860.98	226.89
861.29	226.90
861.60	226.90
861.91	226.91
862.22	226.89
862.53	226.89
862.84	226.76
863.16	226.81
863.47	226.78
863.78	226.72
864.09	226.72
864.40	226.72
864.71	226.72
865.02	226.73
865.33	226.72
865.64	226.71
865.95	226.72
866.27	226.75
866.58	226.75
866.89	226.80
867.20	226.78
867.51	226.74
867.82	226.74
868.13	226.74
868.44	226.74
868.75	226.73
869.06	226.70
869.37	226.74
869.68	226.72
869.99	226.73
870.30	226.74
870.61	226.75
870.92	226.76
871.23	226.76
871.54	226.74
871.85	226.73
872.16	226.72
872.47	226.69
872.78	226.64
873.09	226.63
873.40	226.59
873.71	226.61
874.02	226.57
874.33	226.51
874.64	226.51
874.95	226.53
875.26	226.49
875.56	226.47
875.87	226.46
876.18	226.41
876.49	226.49
876.80	226.49
877.11	226.45
877.42	226.45
877.73	226.45
878.04	226.43
878.35	226.42
878.66	226.41
878.96	226.39
879.27	226.37
879.58	226.35
879.89	226.34
880.20	226.35
880.51	226.35
880.82	226.37
881.12	226.37
881.43	226.34
881.74	226.34
882.05	226.32
882.36	226.29
882.67	226.30
882.97	226.19
883.28	226.16
883.59	226.16
883.90	226.15
884.21	226.14
884.51	226.12
884.82	226.12
885.13	226.16
885.44	226.16
885.74	226.14
886.05	226.13
886.36	226.16
886.67	226.09
886.98	226.16
887.28	226.20
887.59	226.19
887.90	226.17
888.20	226.17
888.51	226.21
888.82	226.21
889.13	226.21
889.43	226.28
889.74	226.26
890.05	226.25
890.35	226.23
890.66	226.19
890.97	226.21
891.28	226.20
891.58	226.19
891.89	226.22
892.20	226.20
892.50	226.20
892.81	226.17
893.12	226.19
893.42	226.15
893.73	226.12
894.04	226.12
894.34	226.12
894.65	226.14
894.95	226.13
895.26	226.13
895.57	226.18
895.87	226.11
896.18	226.17
896.48	226.20
896.79	226.21
897.10	226.25
897.40	226.25
897.71	226.27
898.01	226.26
898.32	226.23
898.63	226.27
898.93	226.32
899.24	226.32
899.54	226.32
899.85	226.34
900.15	226.38
900.46	226.39
900.76	226.43
901.07	226.45
901.38	226.45
901.68	226.46
901.99	226.46
902.29	226.48
902.60	226.48
902.90	226.48
903.21	226.50
903.51	226.49
903.82	226.53
904.12	226.54
904.43	226.53
904.73	226.57
905.03	226.57
905.34	226.65
905.64	226.63
905.95	226.66
906.25	226.68
906.56	226.65
906.86	226.64
907.17	226.64
907.47	226.65
907.77	226.67
908.08	226.68
908.38	226.66
908.69	226.65
908.99	226.66
909.30	226.67
909.60	226.69
909.90	226.70
910.21	226.64
910.51	226.60
910.81	226.62
911.12	226.63
911.42	226.62
911.73	226.52
912.03	226.54
912.33	226.53
912.64	226.50
912.94	226.52
913.24	226.50
913.55	226.47
913.85	226.43
914.15	226.43
914.46	226.42
914.76	226.42
915.06	226.44
915.37	226.40
915.67	226.38
915.97	226.34
916.27	226.34
916.58	226.38
916.88	226.36
917.18	226.33
917.49	226.37
917.79	226.35
918.09	226.35
918.39	226.37
918.70	226.34
919.00	226.35
919.30	226.37
919.60	226.36
919.91	226.35
920.21	226.35
920.51	226.34
920.81	226.30
921.12	226.30
921.42	226.26
921.72	226.28
922.02	226.24
922.32	226.31
922.63	226.27
922.93	226.28
923.23	226.28
923.53	226.28
923.83	226.22
924.13	226.22
924.44	226.20
924.74	226.20
925.04	226.25
925.34	226.22
925.64	226.15
925.94	226.18
926.24	226.22
926.55	226.21
926.85	226.21
927.15	226.25
927.45	226.22
927.75	226.20
928.05	226.20
928.35	226.21
928.65	226.19
928.95	226.24
929.26	226.21
929.56	226.26
929.86	226.27
930.16	226.27
930.46	226.24
930.76	226.30
931.06	226.26
931.36	226.26
931.66	226.28
931.96	226.30
932.26	226.27
932.56	226.23
932.86	226.26
933.16	226.24
933.46	226.24
933.76	226.25
934.06	226.29
934.36	226.31
934.66	226.31
934.96	226.31
935.26	226.28
935.56	226.30
935.86	226.24
936.16	226.23
936.46	226.23
936.76	226.23
937.06	226.17
937.36	226.20
937.66	226.16
937.96	226.15
938.26	226.15
938.56	226.15
938.86	226.16
939.16	226.17
939.46	226.18
939.76	226.17
940.06	226.16
940.35	226.17
940.65	226.11
940.95	226.14
941.25	226.11
941.55	226.11
941.85	226.09
942.15	226.14
942.45	226.16
942.75	226.19
943.04	226.21
943.34	226.24
943.64	226.21
943.94	226.20
944.24	226.21
944.54	226.25
944.84	226.24
945.13	226.24
945.43	226.23
945.73	226.24
946.03	226.23
946.33	226.22
946.62	226.18
946.92	226.19
947.22	226.16
947.52	226.18
947.82	226.18
948.11	226.20
948.41	226.13
948.71	226.13
949.01	226.09
949.31	226.08
949.60	226.11
949.90	226.13
950.20	226.14
950.50	226.10
950.79	226.06
951.09	226.08
951.39	226.05
951.69	226.01
951.98	226.02
952.28	226.05
952.58	226.05
952.87	226.09
953.17	226.11
953.47	226.09
953.76	226.10
954.06	226.04
954.36	225.99
954.66	226.00
954.95	226.03
955.25	226.04
955.55	226.06
955.84	226.00
956.14	225.98
956.44	225.98
956.73	225.98
957.03	225.99
957.32	225.98
957.62	225.97
957.92	226.00
958.21	225.97
958.51	226.07
958.81	226.07
959.10	226.07
959.40	226.08
959.69	226.12
959.99	226.11
960.29	226.13
960.58	226.16
960.88	226.23
961.17	226.20
961.47	226.19
961.76	226.17
962.06	226.20
962.36	226.20
962.65	226.20
962.95	226.20
963.24	226.20
963.54	226.21
963.83	226.22
964.13	226.21
964.42	226.19
964.72	226.11
965.01	226.11
965.31	226.07
965.60	226.07
965.90	226.12
966.19	226.11
966.49	226.10
966.78	226.09
967.08	226.06
967.37	226.06
967.67	226.06
967.96	226.06
968.26	226.05
968.55	226.05
968.85	226.04
969.14	226.04
969.43	226.01
969.73	226.01
970.02	226.01
970.32	226.01
970.61	225.99
970.91	225.96
971.20	225.96
971.49	225.97
971.79	225.97
972.08	225.88
972.38	225.90
972.67	225.92
972.96	225.94
973.26	225.92
973.55	225.93
973.85	225.92
974.14	225.93
974.43	225.93
974.73	225.90
975.02	225.89
975.31	225.89
975.61	225.89
975.90	225.87
976.19	225.87
976.49	225.86
976.78	225.88
977.07	225.87
977.37	225.87
977.66	225.90
977.95	225.87
978.24	225.90
978.54	225.89
978.83	225.89
979.12	225.87
979.42	225.87
979.71	225.85
980.00	225.83
980.29	225.83
980.59	225.82
980.88	225.85
981.17	225.83
981.46	225.86
981.76	225.87
982.05	225.91
982.34	225.90
982.63	225.91
982.93	225.91
983.22	225.93
983.51	225.93
983.80	225.90
984.09	225.89
984.39	225.86
984.68	225.87
984.97	225.87
985.26	225.88
985.55	225.90
985.85	225.90
986.14	225.94
986.43	225.97
986.72	225.98
987.01	225.96
987.30	226.01
987.59	225.97
987.89	225.98
988.18	225.97
988.47	225.96
988.76	225.96
989.05	225.95
989.34	225.94
989.63	225.97
989.92	226.00
990.22	226.00
990.51	226.01
990.80	226.00
991.09	226.02
991.38	226.05
991.67	226.01
991.96	226.04
992.25	226.03
992.54	225.99
992.83	226.01
993.12	226.04
993.41	226.03
993.70	226.09
993.99	226.11
994.28	226.11
994.58	226.17
994.87	226.19
995.16	226.21
995.45	226.21
995.74	226.18
996.03	226.18
996.32	226.22
996.61	226.27
996.90	226.25
997.19	226.25
997.48	226.25
997.77	226.30
998.06	226.30
998.34	226.28
998.63	226.29
998.92	226.28
999.21	226.26
999.50	226.27
999.79	226.24
1000.08	226.23
1000.37	226.19
1000.66	226.16
1000.95	226.15
1001.24	226.18
1001.53	226.19
1001.82	226.17
1002.11	226.12
1002.40	226.11
1002.68	226.08
1002.97	226.16
1003.26	226.15
1003.55	226.09
1003.84	226.07
1004.13	226.10
1004.42	226.10
1004.71	226.12
1004.99	226.10
1005.28	226.13
1005.57	226.13
1005.86	226.09
1006.15	226.09
1006.44	226.09
1006.72	226.09
1007.01	226.07
1007.30	226.02
1007.59	226.00
1007.88	225.99
1008.17	226.00
1008.45	225.96
1008.74	225.95
1009.03	225.88
1009.32	225.86
1009.60	225.90
1009.89	225.88
1010.18	225.83
1010.47	225.82
1010.76	225.76
1011.04	225.75
1011.33	225.73
1011.62	225.69
1011.91	225.71
1012.19	225.68
1012.48	225.68
1012.77	225.67
1013.05	225.71
1013.34	225.73
1013.63	225.72
1013.92	225.71
1014.20	225.72
1014.49	225.76
1014.78	225.76
1015.06	225.71
1015.35	225.72
1015.64	225.68
1015.92	225.71
1016.21	225.72
1016.50	225.72
1016.78	225.75
1017.07	225.78
1017.36	225.77
1017.64	225.77
1017.93	225.78
1018.22	225.78
1018.50	225.79
1018.79	225.79
1019.08	225.74
1019.36	225.73
1019.65	225.72
1019.93	225.72
1020.22	225.71
1020.51	225.73
1020.79	225.72
1021.08	225.54
1021.36	225.68
1021.65	225.72
1021.94	225.84
1022.22	225.43
1022.51	225.37
1022.79	225.54
1023.08	225.58
1023.36	226.76
1023.65	225.52
>>>>>End Processed Spectral Data<<<<<
