SpectraSuite Data File
++++++++++++++++++++++++++++++++++++
Date: Fri Feb 01 15:07:52 EST 2013
User: group
Dark Spectrum Present: No
Reference Spectrum Present: No
Number of Sampled Component Spectra: 1
Spectrometers: USB2E7196
Integration Time (usec): 35000 (USB2E7196)
Spectra Averaged: 100 (USB2E7196)
Boxcar Smoothing: 10 (USB2E7196)
Correct for Electrical Dark: No (USB2E7196)
Strobe/Lamp Enabled: No (USB2E7196)
Correct for Detector Non-linearity: No (USB2E7196)
Correct for Stray Light: No (USB2E7196)
Number of Pixels in Processed Spectrum: 2048
>>>>>Begin Processed Spectral Data<<<<<
339.09	0.00
339.48	214.67
339.86	216.13
340.24	217.49
340.63	218.97
341.01	222.30
341.39	222.12
341.78	223.63
342.16	224.99
342.54	225.54
342.93	213.44
343.31	224.22
343.69	224.78
344.07	225.25
344.46	225.68
344.84	226.07
345.22	226.28
345.60	226.51
345.99	226.68
346.37	226.77
346.75	226.86
347.13	226.95
347.52	227.00
347.90	227.05
348.28	227.07
348.66	227.08
349.05	227.06
349.43	227.11
349.81	227.12
350.19	227.16
350.57	227.26
350.96	227.31
351.34	227.41
351.72	227.49
352.10	227.60
352.48	227.68
352.87	227.73
353.25	227.83
353.63	227.90
354.01	227.98
354.39	228.07
354.77	228.16
355.15	228.26
355.54	228.31
355.92	228.36
356.30	228.46
356.68	228.62
357.06	228.70
357.44	228.73
357.82	228.82
358.20	228.89
358.58	228.92
358.97	229.04
359.35	229.09
359.73	229.20
360.11	229.23
360.49	229.28
360.87	229.36
361.25	229.44
361.63	229.52
362.01	229.56
362.39	229.60
362.77	229.60
363.15	229.61
363.53	229.63
363.91	229.66
364.29	229.64
364.67	229.59
365.05	229.63
365.43	229.70
365.81	229.71
366.19	229.73
366.57	229.79
366.95	229.75
367.33	229.73
367.71	229.69
368.09	229.72
368.47	229.72
368.85	229.69
369.23	229.65
369.61	229.55
369.99	229.58
370.37	229.55
370.75	229.57
371.13	229.51
371.51	229.48
371.89	229.43
372.27	229.40
372.65	229.33
373.03	229.26
373.41	229.14
373.78	229.08
374.16	228.95
374.54	228.82
374.92	228.74
375.30	228.67
375.68	228.57
376.06	228.47
376.44	228.38
376.82	228.30
377.19	228.21
377.57	228.15
377.95	228.02
378.33	227.92
378.71	227.78
379.09	227.71
379.47	227.65
379.84	227.55
380.22	227.45
380.60	227.35
380.98	227.26
381.36	227.20
381.73	227.11
382.11	227.07
382.49	227.01
382.87	226.96
383.25	226.89
383.62	226.98
384.00	226.91
384.38	226.83
384.76	226.77
385.13	226.75
385.51	226.69
385.89	226.64
386.27	226.59
386.64	226.55
387.02	226.51
387.40	226.41
387.78	226.41
388.15	226.36
388.53	226.35
388.91	226.33
389.29	226.28
389.66	226.28
390.04	226.25
390.42	226.25
390.79	226.20
391.17	226.17
391.55	226.03
391.92	226.02
392.30	226.06
392.68	226.03
393.05	226.08
393.43	226.10
393.81	226.11
394.18	226.14
394.56	226.16
394.94	226.19
395.31	226.24
395.69	226.29
396.06	226.41
396.44	226.50
396.82	226.51
397.19	226.64
397.57	226.67
397.95	226.74
398.32	226.76
398.70	226.82
399.07	226.92
399.45	226.97
399.82	227.03
400.20	227.08
400.58	227.20
400.95	227.21
401.33	227.32
401.70	227.50
402.08	227.60
402.45	227.73
402.83	227.84
403.20	228.01
403.58	228.11
403.95	228.21
404.33	228.36
404.71	228.50
405.08	228.67
405.46	228.85
405.83	228.99
406.21	229.16
406.58	229.37
406.96	229.54
407.33	229.74
407.70	229.97
408.08	230.25
408.45	230.48
408.83	230.73
409.20	230.94
409.58	231.11
409.95	231.37
410.33	231.63
410.70	231.93
411.08	232.23
411.45	232.54
411.82	232.88
412.20	233.20
412.57	233.63
412.95	233.93
413.32	234.32
413.69	234.75
414.07	235.19
414.44	235.61
414.82	236.09
415.19	236.66
415.56	237.21
415.94	237.74
416.31	238.38
416.68	238.97
417.06	239.71
417.43	240.38
417.81	241.13
418.18	241.93
418.55	242.76
418.93	243.60
419.30	244.53
419.67	245.43
420.04	246.39
420.42	247.39
420.79	248.57
421.16	249.73
421.54	250.95
421.91	252.16
422.28	253.45
422.66	254.81
423.03	256.10
423.40	257.43
423.77	258.88
424.15	260.28
424.52	261.80
424.89	263.40
425.26	264.97
425.64	266.42
426.01	267.99
426.38	269.63
426.75	271.31
427.13	273.01
427.50	274.84
427.87	276.74
428.24	278.60
428.61	280.34
428.99	282.30
429.36	284.38
429.73	286.55
430.10	288.58
430.47	290.62
430.85	292.73
431.22	294.97
431.59	297.37
431.96	299.64
432.33	302.15
432.70	304.54
433.08	307.34
433.45	310.00
433.82	312.64
434.19	315.51
434.56	318.33
434.93	321.00
435.30	323.65
435.68	326.52
436.05	329.35
436.42	332.17
436.79	334.64
437.16	337.32
437.53	340.07
437.90	342.86
438.27	345.63
438.64	348.48
439.01	351.06
439.38	353.26
439.75	355.44
440.13	357.94
440.50	360.26
440.87	362.13
441.24	364.07
441.61	366.21
441.98	367.73
442.35	369.54
442.72	371.38
443.09	373.18
443.46	374.20
443.83	374.78
444.20	375.29
444.57	376.12
444.94	376.40
445.31	376.75
445.68	377.10
446.05	377.17
446.42	376.82
446.79	376.45
447.16	376.00
447.53	375.65
447.90	374.43
448.27	373.29
448.64	371.66
449.01	370.53
449.37	368.54
449.74	366.64
450.11	364.38
450.48	361.87
450.85	359.32
451.22	357.17
451.59	355.18
451.96	353.23
452.33	350.66
452.70	348.31
453.07	345.46
453.43	342.59
453.80	339.79
454.17	337.09
454.54	334.53
454.91	331.80
455.28	329.07
455.65	326.61
456.02	324.12
456.38	322.02
456.75	319.36
457.12	317.11
457.49	314.90
457.86	312.71
458.23	310.94
458.59	308.89
458.96	306.78
459.33	304.89
459.70	303.04
460.07	301.51
460.43	299.78
460.80	298.14
461.17	296.66
461.54	295.17
461.91	293.71
462.27	292.25
462.64	290.97
463.01	289.62
463.38	288.29
463.74	286.94
464.11	285.75
464.48	284.67
464.85	283.57
465.21	282.66
465.58	281.74
465.95	280.57
466.32	279.64
466.68	278.72
467.05	277.84
467.42	276.91
467.78	276.01
468.15	275.15
468.52	274.48
468.88	273.63
469.25	272.87
469.62	272.23
469.98	271.52
470.35	270.90
470.72	270.30
471.08	269.67
471.45	269.11
471.82	268.58
472.18	267.97
472.55	267.53
472.92	266.97
473.28	266.46
473.65	266.00
474.02	265.56
474.38	265.15
474.75	264.80
475.11	264.47
475.48	264.17
475.85	263.91
476.21	263.71
476.58	263.49
476.94	263.36
477.31	263.19
477.67	263.06
478.04	262.94
478.41	262.91
478.77	262.96
479.14	262.92
479.50	262.89
479.87	262.98
480.23	263.04
480.60	263.12
480.96	263.21
481.33	263.42
481.69	263.63
482.06	263.86
482.42	264.03
482.79	264.25
483.15	264.57
483.52	264.93
483.88	265.25
484.25	265.64
484.61	266.04
484.98	266.48
485.34	267.04
485.71	267.58
486.07	268.16
486.44	268.70
486.80	269.42
487.17	270.13
487.53	270.94
487.90	271.77
488.26	272.75
488.62	273.74
488.99	274.71
489.35	275.75
489.72	276.88
490.08	278.09
490.44	279.29
490.81	280.60
491.17	281.90
491.54	283.40
491.90	284.94
492.26	286.59
492.63	288.31
492.99	290.07
493.36	292.02
493.72	294.05
494.08	296.14
494.45	298.31
494.81	300.67
495.17	303.11
495.54	305.70
495.90	308.39
496.26	311.19
496.63	314.14
496.99	317.23
497.35	320.47
497.72	323.85
498.08	327.37
498.44	331.05
498.80	334.97
499.17	338.96
499.53	343.12
499.89	347.46
500.26	351.93
500.62	356.63
500.98	361.61
501.34	366.70
501.71	372.06
502.07	377.52
502.43	383.12
502.79	388.93
503.16	394.97
503.52	401.18
503.88	407.57
504.24	414.16
504.60	420.99
504.97	428.11
505.33	435.42
505.69	443.10
506.05	450.84
506.41	458.74
506.78	466.85
507.14	475.31
507.50	484.00
507.86	493.02
508.22	502.17
508.59	511.31
508.95	520.87
509.31	530.61
509.67	540.70
510.03	550.96
510.39	561.48
510.75	572.24
511.12	583.16
511.48	594.42
511.84	605.89
512.20	617.46
512.56	629.41
512.92	641.67
513.28	654.01
513.64	666.50
514.00	679.23
514.37	692.24
514.73	705.31
515.09	718.37
515.45	731.66
515.81	745.37
516.17	759.28
516.53	773.39
516.89	787.59
517.25	801.76
517.61	816.25
517.97	830.73
518.33	845.21
518.69	860.06
519.05	875.15
519.41	890.41
519.77	905.93
520.13	921.41
520.49	936.80
520.85	952.28
521.21	968.08
521.57	984.38
521.93	1000.20
522.29	1016.59
522.65	1032.82
523.01	1049.11
523.37	1065.07
523.73	1081.37
524.09	1097.45
524.45	1113.84
524.81	1130.52
525.17	1147.40
525.53	1164.35
525.89	1181.32
526.25	1198.25
526.61	1214.59
526.97	1231.31
527.33	1247.91
527.68	1264.58
528.04	1281.20
528.40	1297.97
528.76	1315.04
529.12	1331.70
529.48	1348.62
529.84	1364.75
530.20	1381.48
530.56	1398.62
530.91	1416.06
531.27	1432.86
531.63	1449.53
531.99	1466.08
532.35	1482.29
532.71	1498.24
533.07	1514.49
533.42	1530.45
533.78	1546.41
534.14	1562.82
534.50	1578.22
534.86	1594.10
535.21	1609.32
535.57	1625.33
535.93	1640.80
536.29	1655.60
536.65	1670.79
537.00	1685.80
537.36	1701.20
537.72	1715.83
538.08	1730.22
538.44	1744.15
538.79	1758.15
539.15	1771.86
539.51	1785.63
539.87	1800.02
540.22	1813.80
540.58	1827.81
540.94	1841.29
541.29	1854.33
541.65	1867.09
542.01	1880.38
542.37	1892.69
542.72	1905.29
543.08	1916.98
543.44	1929.41
543.79	1940.68
544.15	1951.55
544.51	1963.17
544.87	1974.24
545.22	1985.02
545.58	1995.30
545.94	2005.08
546.29	2015.04
546.65	2024.94
547.01	2034.32
547.36	2043.09
547.72	2051.55
548.07	2059.40
548.43	2067.56
548.79	2075.65
549.14	2083.19
549.50	2090.76
549.86	2098.74
550.21	2106.03
550.57	2113.42
550.92	2120.08
551.28	2127.36
551.64	2134.51
551.99	2140.90
552.35	2146.89
552.70	2153.04
553.06	2159.01
553.41	2165.30
553.77	2171.23
554.13	2177.31
554.48	2183.54
554.84	2188.83
555.19	2194.25
555.55	2199.38
555.90	2203.79
556.26	2208.60
556.61	2213.40
556.97	2217.51
557.32	2221.48
557.68	2225.51
558.03	2229.68
558.39	2233.33
558.74	2237.76
559.10	2241.52
559.45	2245.23
559.81	2249.68
560.16	2253.47
560.52	2256.71
560.87	2260.11
561.23	2262.81
561.58	2265.84
561.94	2268.17
562.29	2270.66
562.64	2273.19
563.00	2275.73
563.35	2279.35
563.71	2282.48
564.06	2285.60
564.42	2288.37
564.77	2290.72
565.12	2292.91
565.48	2294.67
565.83	2296.47
566.19	2297.75
566.54	2298.76
566.89	2299.71
567.25	2300.12
567.60	2301.51
567.96	2303.08
568.31	2303.86
568.66	2304.91
569.02	2305.27
569.37	2305.63
569.72	2306.25
570.08	2306.20
570.43	2306.19
570.78	2305.37
571.14	2303.71
571.49	2302.22
571.84	2301.75
572.20	2300.51
572.55	2299.43
572.90	2297.79
573.26	2296.31
573.61	2294.54
573.96	2292.54
574.31	2289.52
574.67	2286.29
575.02	2282.40
575.37	2278.99
575.72	2275.04
576.08	2271.58
576.43	2268.11
576.78	2264.19
577.13	2261.00
577.49	2257.93
577.84	2254.24
578.19	2250.39
578.54	2246.67
578.90	2242.40
579.25	2236.74
579.60	2231.76
579.95	2226.59
580.30	2221.41
580.66	2216.06
581.01	2210.94
581.36	2205.96
581.71	2201.56
582.06	2197.01
582.42	2192.36
582.77	2186.97
583.12	2182.20
583.47	2177.21
583.82	2172.03
584.17	2166.82
584.53	2161.14
584.88	2155.34
585.23	2149.41
585.58	2143.72
585.93	2138.10
586.28	2133.20
586.63	2128.10
586.98	2122.87
587.34	2118.07
587.69	2113.19
588.04	2107.93
588.39	2102.11
588.74	2095.62
589.09	2089.41
589.44	2082.57
589.79	2076.60
590.14	2070.84
590.49	2064.32
590.84	2057.83
591.19	2051.62
591.54	2045.00
591.89	2037.47
592.25	2030.54
592.60	2023.28
592.95	2015.63
593.30	2008.11
593.65	2000.35
594.00	1993.28
594.35	1986.08
594.70	1977.98
595.05	1970.65
595.40	1963.26
595.75	1955.81
596.10	1949.36
596.45	1942.48
596.80	1936.19
597.15	1929.31
597.50	1922.13
597.85	1915.66
598.19	1908.96
598.54	1901.88
598.89	1895.27
599.24	1889.34
599.59	1882.61
599.94	1876.43
600.29	1870.13
600.64	1863.58
600.99	1856.13
601.34	1849.04
601.69	1841.89
602.04	1834.93
602.39	1827.47
602.74	1820.62
603.08	1813.81
603.43	1807.06
603.78	1799.67
604.13	1792.38
604.48	1785.12
604.83	1778.26
605.18	1771.13
605.53	1763.21
605.87	1755.26
606.22	1747.89
606.57	1740.03
606.92	1732.72
607.27	1725.41
607.62	1718.45
607.96	1711.13
608.31	1704.43
608.66	1696.92
609.01	1689.36
609.36	1681.78
609.70	1673.73
610.05	1665.56
610.40	1657.86
610.75	1649.52
611.10	1642.05
611.44	1633.80
611.79	1625.94
612.14	1617.25
612.49	1608.14
612.83	1599.73
613.18	1591.62
613.53	1583.64
613.88	1575.00
614.22	1566.77
614.57	1558.21
614.92	1550.27
615.27	1542.63
615.61	1534.32
615.96	1526.41
616.31	1518.83
616.65	1511.53
617.00	1504.07
617.35	1496.34
617.70	1487.93
618.04	1479.50
618.39	1471.16
618.74	1463.52
619.08	1455.20
619.43	1447.58
619.78	1440.75
620.12	1433.61
620.47	1426.21
620.82	1418.03
621.16	1410.77
621.51	1403.15
621.85	1395.59
622.20	1387.03
622.55	1378.90
622.89	1371.17
623.24	1363.53
623.59	1356.23
623.93	1348.65
624.28	1341.42
624.62	1334.02
624.97	1326.94
625.32	1320.26
625.66	1313.31
626.01	1306.04
626.35	1298.58
626.70	1290.90
627.04	1283.16
627.39	1275.50
627.73	1268.01
628.08	1261.02
628.43	1253.57
628.77	1246.31
629.12	1238.68
629.46	1231.54
629.81	1224.07
630.15	1216.87
630.50	1209.41
630.84	1201.20
631.19	1193.40
631.53	1185.99
631.88	1178.49
632.22	1170.95
632.57	1163.73
632.91	1156.35
633.26	1149.07
633.60	1141.84
633.95	1134.93
634.29	1128.01
634.64	1121.26
634.98	1113.93
635.32	1106.83
635.67	1100.56
636.01	1093.90
636.36	1087.23
636.70	1080.77
637.05	1074.24
637.39	1067.83
637.73	1061.42
638.08	1055.69
638.42	1049.73
638.77	1043.25
639.11	1036.68
639.45	1030.24
639.80	1023.58
640.14	1017.08
640.49	1010.54
640.83	1004.24
641.17	997.94
641.52	991.72
641.86	985.38
642.20	979.63
642.55	973.50
642.89	966.84
643.23	960.34
643.58	954.49
643.92	948.34
644.26	942.23
644.61	936.22
644.95	930.10
645.29	923.35
645.64	916.56
645.98	910.31
646.32	904.52
646.66	898.56
647.01	892.72
647.35	887.04
647.69	881.36
648.04	875.87
648.38	870.02
648.72	863.97
649.06	857.89
649.41	851.97
649.75	845.85
650.09	839.81
650.43	834.02
650.78	827.95
651.12	821.95
651.46	816.25
651.80	810.39
652.14	805.05
652.49	799.69
652.83	794.52
653.17	788.77
653.51	783.01
653.85	777.62
654.20	771.96
654.54	765.90
654.88	760.12
655.22	754.22
655.56	748.64
655.90	743.18
656.25	737.89
656.59	732.60
656.93	727.60
657.27	722.54
657.61	717.06
657.95	711.99
658.29	706.90
658.64	701.74
658.98	696.52
659.32	691.13
659.66	685.95
660.00	680.66
660.34	675.73
660.68	670.92
661.02	665.89
661.36	661.23
661.70	656.84
662.05	652.49
662.39	648.13
662.73	643.71
663.07	639.29
663.41	634.89
663.75	630.32
664.09	625.76
664.43	621.39
664.77	617.36
665.11	613.11
665.45	609.03
665.79	604.94
666.13	600.77
666.47	596.65
666.81	592.55
667.15	588.52
667.49	584.62
667.83	580.84
668.17	576.92
668.51	572.86
668.85	568.85
669.19	565.05
669.53	561.23
669.87	557.29
670.21	553.60
670.55	549.98
670.89	546.59
671.23	543.14
671.57	539.68
671.91	536.15
672.25	532.69
672.58	529.19
672.92	525.85
673.26	522.77
673.60	519.71
673.94	516.55
674.28	513.66
674.62	510.77
674.96	507.66
675.30	504.73
675.64	501.82
675.97	499.07
676.31	496.22
676.65	493.33
676.99	490.71
677.33	487.90
677.67	485.12
678.01	482.11
678.34	479.17
678.68	476.29
679.02	473.46
679.36	470.75
679.70	468.01
680.04	465.21
680.37	462.32
680.71	459.50
681.05	456.97
681.39	454.26
681.73	451.68
682.06	449.16
682.40	446.64
682.74	444.15
683.08	441.64
683.42	439.05
683.75	436.57
684.09	434.02
684.43	431.59
684.77	429.13
685.10	426.78
685.44	424.50
685.78	422.24
686.12	420.01
686.45	417.71
686.79	415.48
687.13	413.30
687.46	411.21
687.80	409.06
688.14	406.84
688.48	404.81
688.81	402.52
689.15	400.37
689.49	398.26
689.82	396.21
690.16	394.08
690.50	392.11
690.83	390.13
691.17	388.18
691.51	386.25
691.84	384.43
692.18	382.47
692.52	380.48
692.85	378.56
693.19	376.73
693.52	374.86
693.86	373.01
694.20	371.24
694.53	369.43
694.87	367.64
695.21	365.87
695.54	364.02
695.88	362.30
696.21	360.60
696.55	358.90
696.88	357.23
697.22	355.62
697.56	354.02
697.89	352.40
698.23	350.73
698.56	349.15
698.90	347.51
699.23	345.92
699.57	344.35
699.90	342.80
700.24	341.27
700.58	339.74
700.91	338.28
701.25	336.82
701.58	335.43
701.92	334.04
702.25	332.62
702.59	331.28
702.92	329.94
703.26	328.65
703.59	327.39
703.93	326.19
704.26	324.95
704.60	323.67
704.93	322.40
705.26	321.16
705.60	320.01
705.93	318.90
706.27	317.89
706.60	316.88
706.94	315.82
707.27	314.66
707.61	313.63
707.94	312.61
708.27	311.52
708.61	310.40
708.94	309.42
709.28	308.47
709.61	307.48
709.94	306.56
710.28	305.53
710.61	304.56
710.95	303.47
711.28	302.54
711.61	301.57
711.95	300.66
712.28	299.70
712.61	298.68
712.95	297.73
713.28	296.84
713.61	295.98
713.95	295.07
714.28	294.27
714.61	293.41
714.95	292.54
715.28	291.73
715.61	290.92
715.95	290.05
716.28	289.20
716.61	288.40
716.95	287.62
717.28	286.86
717.61	286.10
717.94	285.42
718.28	284.61
718.61	283.88
718.94	283.24
719.27	282.65
719.61	282.04
719.94	281.41
720.27	280.72
720.60	280.00
720.94	279.41
721.27	278.80
721.60	278.23
721.93	277.66
722.27	277.14
722.60	276.59
722.93	276.03
723.26	275.52
723.59	274.95
723.93	274.42
724.26	273.88
724.59	273.31
724.92	272.75
725.25	272.28
725.59	271.77
725.92	271.23
726.25	270.72
726.58	270.22
726.91	269.70
727.24	269.20
727.57	268.75
727.91	268.24
728.24	267.81
728.57	267.34
728.90	266.93
729.23	266.42
729.56	266.00
729.89	265.52
730.22	265.02
730.55	264.53
730.89	264.08
731.22	263.61
731.55	263.21
731.88	262.77
732.21	262.29
732.54	261.86
732.87	261.47
733.20	261.05
733.53	260.66
733.86	260.30
734.19	259.92
734.52	259.55
734.85	259.24
735.18	258.82
735.51	258.44
735.84	258.04
736.17	257.70
736.50	257.25
736.83	257.06
737.16	256.77
737.49	256.48
737.82	256.10
738.15	255.78
738.48	255.41
738.81	255.10
739.14	254.83
739.47	254.53
739.80	254.19
740.13	253.88
740.46	253.55
740.79	253.23
741.12	252.94
741.45	252.61
741.78	252.27
742.11	252.00
742.44	251.67
742.77	251.43
743.10	251.09
743.43	250.83
743.75	250.43
744.08	250.27
744.41	250.01
744.74	249.76
745.07	249.50
745.40	249.28
745.73	249.02
746.06	248.74
746.39	248.49
746.71	248.24
747.04	247.95
747.37	247.70
747.70	247.44
748.03	247.15
748.36	246.94
748.68	246.70
749.01	246.45
749.34	246.26
749.67	245.97
750.00	245.77
750.33	245.63
750.65	245.41
750.98	245.06
751.31	244.82
751.64	244.62
751.97	244.47
752.29	244.22
752.62	243.99
752.95	243.79
753.28	243.56
753.60	243.35
753.93	243.21
754.26	243.02
754.59	242.81
754.91	242.62
755.24	242.39
755.57	242.22
755.90	242.04
756.22	241.78
756.55	241.57
756.88	241.38
757.20	241.13
757.53	240.95
757.86	240.79
758.19	240.65
758.51	240.48
758.84	240.27
759.17	240.14
759.49	240.01
759.82	239.92
760.15	239.78
760.47	239.64
760.80	239.48
761.13	239.35
761.45	239.21
761.78	239.08
762.11	238.97
762.43	238.80
762.76	238.67
763.08	238.58
763.41	238.49
763.74	238.33
764.06	238.18
764.39	238.00
764.71	237.86
765.04	237.73
765.37	237.58
765.69	237.46
766.02	237.31
766.34	237.18
766.67	237.02
767.00	236.92
767.32	236.87
767.65	236.80
767.97	236.67
768.30	236.56
768.62	236.43
768.95	236.30
769.27	236.24
769.60	236.13
769.92	235.99
770.25	235.87
770.57	235.74
770.90	235.66
771.22	235.59
771.55	235.48
771.87	235.39
772.20	235.27
772.52	235.24
772.85	235.29
773.17	235.18
773.50	235.07
773.82	234.98
774.15	234.79
774.47	234.67
774.80	234.57
775.12	234.46
775.45	234.41
775.77	234.32
776.09	234.22
776.42	234.14
776.74	234.11
777.07	234.03
777.39	233.99
777.72	233.89
778.04	233.85
778.36	233.79
778.69	233.69
779.01	233.66
779.33	233.51
779.66	233.32
779.98	233.26
780.31	233.17
780.63	233.14
780.95	233.09
781.28	233.02
781.60	232.94
781.92	232.91
782.25	232.83
782.57	232.80
782.89	232.72
783.22	232.67
783.54	232.61
783.86	232.56
784.19	232.56
784.51	232.55
784.83	232.48
785.16	232.41
785.48	232.38
785.80	232.32
786.12	232.27
786.45	232.25
786.77	232.22
787.09	232.19
787.42	232.12
787.74	232.12
788.06	232.03
788.38	232.02
788.71	231.98
789.03	231.96
789.35	231.92
789.67	231.87
789.99	231.82
790.32	231.80
790.64	231.74
790.96	231.72
791.28	231.71
791.61	231.66
791.93	231.63
792.25	231.61
792.57	231.63
792.89	231.54
793.21	231.50
793.54	231.46
793.86	231.42
794.18	231.41
794.50	231.30
794.82	231.30
795.14	231.26
795.47	231.25
795.79	231.18
796.11	231.10
796.43	231.10
796.75	231.05
797.07	230.99
797.39	231.00
797.71	230.90
798.04	230.85
798.36	230.84
798.68	230.81
799.00	230.76
799.32	230.72
799.64	230.73
799.96	230.72
800.28	230.72
800.60	230.68
800.92	230.63
801.24	230.61
801.56	230.59
801.89	230.57
802.21	230.55
802.53	230.51
802.85	230.50
803.17	230.49
803.49	230.43
803.81	230.39
804.13	230.35
804.45	230.31
804.77	230.26
805.09	230.20
805.41	230.15
805.73	230.14
806.05	230.02
806.37	230.03
806.69	229.97
807.01	229.94
807.33	229.91
807.65	229.88
807.97	229.90
808.28	229.88
808.60	229.82
808.92	229.76
809.24	229.81
809.56	229.79
809.88	229.75
810.20	229.77
810.52	229.76
810.84	229.70
811.16	229.68
811.48	229.64
811.80	229.64
812.12	229.61
812.43	229.56
812.75	229.57
813.07	229.51
813.39	229.46
813.71	229.42
814.03	229.39
814.35	229.38
814.67	229.31
814.98	229.28
815.30	229.28
815.62	229.21
815.94	229.11
816.26	229.08
816.58	229.04
816.89	228.97
817.21	228.92
817.53	228.90
817.85	228.90
818.17	228.88
818.48	228.87
818.80	228.86
819.12	228.84
819.44	228.82
819.76	228.83
820.07	228.82
820.39	228.80
820.71	228.78
821.03	228.74
821.34	228.73
821.66	228.71
821.98	228.71
822.30	228.73
822.61	228.78
822.93	228.76
823.25	228.74
823.57	228.75
823.88	228.73
824.20	228.73
824.52	228.72
824.83	228.73
825.15	228.67
825.47	228.65
825.79	228.63
826.10	228.61
826.42	228.56
826.74	228.55
827.05	228.53
827.37	228.52
827.69	228.50
828.00	228.50
828.32	228.49
828.64	228.47
828.95	228.49
829.27	228.46
829.58	228.46
829.90	228.46
830.22	228.45
830.53	228.45
830.85	228.45
831.17	228.43
831.48	228.41
831.80	228.42
832.11	228.43
832.43	228.40
832.75	228.40
833.06	228.43
833.38	228.39
833.69	228.34
834.01	228.34
834.32	228.30
834.64	228.27
834.96	228.24
835.27	228.20
835.59	228.17
835.90	228.12
836.22	228.10
836.53	228.10
836.85	228.08
837.16	228.17
837.48	228.16
837.79	228.15
838.11	228.15
838.42	228.15
838.74	228.16
839.05	228.19
839.37	228.19
839.68	228.17
840.00	228.18
840.31	228.20
840.63	228.17
840.94	228.17
841.26	228.15
841.57	228.17
841.88	228.18
842.20	228.17
842.51	228.18
842.83	228.16
843.14	228.22
843.46	228.21
843.77	228.13
844.08	228.11
844.40	228.09
844.71	228.06
845.03	228.05
845.34	228.03
845.65	227.99
845.97	227.97
846.28	227.93
846.60	227.95
846.91	227.93
847.22	227.91
847.54	227.91
847.85	227.90
848.16	227.84
848.48	227.83
848.79	227.83
849.10	227.83
849.42	227.81
849.73	227.71
850.04	227.72
850.36	227.69
850.67	227.73
850.98	227.70
851.30	227.72
851.61	227.68
851.92	227.67
852.23	227.72
852.55	227.72
852.86	227.71
853.17	227.69
853.49	227.72
853.80	227.75
854.11	227.77
854.42	227.82
854.74	227.84
855.05	227.86
855.36	227.84
855.67	227.88
855.99	227.89
856.30	228.02
856.61	227.97
856.92	227.94
857.23	227.89
857.55	227.89
857.86	227.89
858.17	227.87
858.48	227.87
858.79	227.82
859.11	227.81
859.42	227.82
859.73	227.81
860.04	227.78
860.35	227.75
860.66	227.71
860.98	227.67
861.29	227.67
861.60	227.68
861.91	227.65
862.22	227.59
862.53	227.58
862.84	227.46
863.16	227.49
863.47	227.51
863.78	227.51
864.09	227.52
864.40	227.50
864.71	227.55
865.02	227.52
865.33	227.47
865.64	227.46
865.95	227.47
866.27	227.54
866.58	227.52
866.89	227.53
867.20	227.55
867.51	227.54
867.82	227.53
868.13	227.51
868.44	227.51
868.75	227.54
869.06	227.51
869.37	227.54
869.68	227.50
869.99	227.51
870.30	227.50
870.61	227.51
870.92	227.49
871.23	227.45
871.54	227.47
871.85	227.52
872.16	227.53
872.47	227.46
872.78	227.43
873.09	227.44
873.40	227.44
873.71	227.42
874.02	227.41
874.33	227.41
874.64	227.39
874.95	227.40
875.26	227.37
875.56	227.40
875.87	227.37
876.18	227.38
876.49	227.47
876.80	227.46
877.11	227.45
877.42	227.46
877.73	227.49
878.04	227.50
878.35	227.50
878.66	227.51
878.96	227.53
879.27	227.50
879.58	227.49
879.89	227.48
880.20	227.50
880.51	227.50
880.82	227.48
881.12	227.51
881.43	227.50
881.74	227.52
882.05	227.50
882.36	227.50
882.67	227.51
882.97	227.40
883.28	227.41
883.59	227.37
883.90	227.41
884.21	227.39
884.51	227.36
884.82	227.34
885.13	227.35
885.44	227.39
885.74	227.39
886.05	227.38
886.36	227.42
886.67	227.38
886.98	227.42
887.28	227.43
887.59	227.43
887.90	227.40
888.20	227.38
888.51	227.40
888.82	227.38
889.13	227.38
889.43	227.48
889.74	227.49
890.05	227.51
890.35	227.46
890.66	227.47
890.97	227.49
891.28	227.49
891.58	227.47
891.89	227.44
892.20	227.42
892.50	227.42
892.81	227.39
893.12	227.40
893.42	227.38
893.73	227.40
894.04	227.41
894.34	227.44
894.65	227.42
894.95	227.43
895.26	227.43
895.57	227.48
895.87	227.34
896.18	227.37
896.48	227.36
896.79	227.39
897.10	227.39
897.40	227.38
897.71	227.39
898.01	227.38
898.32	227.40
898.63	227.41
898.93	227.44
899.24	227.47
899.54	227.44
899.85	227.45
900.15	227.39
900.46	227.39
900.76	227.36
901.07	227.37
901.38	227.37
901.68	227.34
901.99	227.30
902.29	227.36
902.60	227.35
902.90	227.36
903.21	227.34
903.51	227.29
903.82	227.30
904.12	227.29
904.43	227.31
904.73	227.29
905.03	227.29
905.34	227.36
905.64	227.31
905.95	227.35
906.25	227.29
906.56	227.35
906.86	227.36
907.17	227.35
907.47	227.35
907.77	227.35
908.08	227.34
908.38	227.35
908.69	227.32
908.99	227.29
909.30	227.29
909.60	227.29
909.90	227.34
910.21	227.35
910.51	227.31
910.81	227.31
911.12	227.31
911.42	227.30
911.73	227.21
912.03	227.20
912.33	227.20
912.64	227.24
912.94	227.20
913.24	227.17
913.55	227.16
913.85	227.15
914.15	227.18
914.46	227.20
914.76	227.19
915.06	227.21
915.37	227.22
915.67	227.21
915.97	227.24
916.27	227.24
916.58	227.22
916.88	227.22
917.18	227.20
917.49	227.29
917.79	227.28
918.09	227.32
918.39	227.38
918.70	227.41
919.00	227.39
919.30	227.44
919.60	227.43
919.91	227.44
920.21	227.47
920.51	227.42
920.81	227.41
921.12	227.43
921.42	227.40
921.72	227.40
922.02	227.41
922.32	227.40
922.63	227.40
922.93	227.40
923.23	227.41
923.53	227.39
923.83	227.29
924.13	227.34
924.44	227.31
924.74	227.30
925.04	227.30
925.34	227.30
925.64	227.26
925.94	227.28
926.24	227.35
926.55	227.32
926.85	227.35
927.15	227.32
927.45	227.31
927.75	227.34
928.05	227.35
928.35	227.36
928.65	227.38
928.95	227.36
929.26	227.34
929.56	227.37
929.86	227.38
930.16	227.38
930.46	227.35
930.76	227.34
931.06	227.29
931.36	227.22
931.66	227.20
931.96	227.22
932.26	227.20
932.56	227.14
932.86	227.15
933.16	227.14
933.46	227.16
933.76	227.16
934.06	227.14
934.36	227.16
934.66	227.14
934.96	227.11
935.26	227.11
935.56	227.12
935.86	227.12
936.16	227.11
936.46	227.10
936.76	227.07
937.06	227.06
937.36	227.07
937.66	227.11
937.96	227.15
938.26	227.13
938.56	227.12
938.86	227.15
939.16	227.15
939.46	227.17
939.76	227.18
940.06	227.16
940.35	227.15
940.65	227.12
940.95	227.10
941.25	227.08
941.55	227.08
941.85	227.08
942.15	227.09
942.45	227.09
942.75	227.09
943.04	227.12
943.34	227.14
943.64	227.13
943.94	227.08
944.24	227.06
944.54	227.05
944.84	227.03
945.13	227.00
945.43	226.98
945.73	226.96
946.03	226.92
946.33	226.92
946.62	226.93
946.92	226.93
947.22	226.94
947.52	226.91
947.82	226.93
948.11	226.92
948.41	226.87
948.71	226.88
949.01	226.89
949.31	226.87
949.60	226.84
949.90	226.88
950.20	226.90
950.50	226.89
950.79	226.88
951.09	226.93
951.39	226.91
951.69	226.91
951.98	226.94
952.28	226.95
952.58	226.93
952.87	226.95
953.17	226.98
953.47	226.97
953.76	227.01
954.06	226.98
954.36	226.98
954.66	227.01
954.95	227.05
955.25	227.04
955.55	227.04
955.84	227.04
956.14	227.01
956.44	227.04
956.73	227.04
957.03	227.05
957.32	227.03
957.62	227.06
957.92	227.09
958.21	227.08
958.51	227.18
958.81	227.21
959.10	227.19
959.40	227.17
959.69	227.19
959.99	227.20
960.29	227.23
960.58	227.23
960.88	227.28
961.17	227.23
961.47	227.26
961.76	227.24
962.06	227.25
962.36	227.25
962.65	227.26
962.95	227.23
963.24	227.24
963.54	227.26
963.83	227.27
964.13	227.26
964.42	227.26
964.72	227.23
965.01	227.24
965.31	227.22
965.60	227.20
965.90	227.28
966.19	227.25
966.49	227.25
966.78	227.26
967.08	227.23
967.37	227.23
967.67	227.20
967.96	227.26
968.26	227.28
968.55	227.30
968.85	227.29
969.14	227.34
969.43	227.33
969.73	227.32
970.02	227.29
970.32	227.29
970.61	227.27
970.91	227.24
971.20	227.21
971.49	227.22
971.79	227.25
972.08	227.17
972.38	227.17
972.67	227.13
972.96	227.14
973.26	227.14
973.55	227.18
973.85	227.19
974.14	227.14
974.43	227.12
974.73	227.12
975.02	227.13
975.31	227.12
975.61	227.12
975.90	227.12
976.19	227.11
976.49	227.14
976.78	227.18
977.07	227.14
977.37	227.15
977.66	227.18
977.95	227.15
978.24	227.14
978.54	227.18
978.83	227.19
979.12	227.15
979.42	227.16
979.71	227.11
980.00	227.12
980.29	227.10
980.59	227.11
980.88	227.12
981.17	227.10
981.46	227.08
981.76	227.07
982.05	227.10
982.34	227.13
982.63	227.12
982.93	227.06
983.22	227.09
983.51	227.10
983.80	227.06
984.09	227.07
984.39	227.08
984.68	227.08
984.97	227.06
985.26	227.10
985.55	227.11
985.85	227.07
986.14	227.09
986.43	227.13
986.72	227.13
987.01	227.08
987.30	227.10
987.59	227.12
987.89	227.13
988.18	227.10
988.47	227.07
988.76	227.05
989.05	227.09
989.34	227.08
989.63	227.12
989.92	227.12
990.22	227.11
990.51	227.11
990.80	227.08
991.09	227.13
991.38	227.10
991.67	227.09
991.96	227.09
992.25	227.08
992.54	227.08
992.83	227.05
993.12	227.07
993.41	227.08
993.70	227.09
993.99	227.12
994.28	227.10
994.58	227.11
994.87	227.12
995.16	227.12
995.45	227.10
995.74	227.04
996.03	227.07
996.32	227.13
996.61	227.14
996.90	227.16
997.19	227.16
997.48	227.17
997.77	227.15
998.06	227.19
998.34	227.22
998.63	227.21
998.92	227.26
999.21	227.28
999.50	227.28
999.79	227.26
1000.08	227.23
1000.37	227.24
1000.66	227.26
1000.95	227.25
1001.24	227.23
1001.53	227.29
1001.82	227.30
1002.11	227.27
1002.40	227.24
1002.68	227.28
1002.97	227.34
1003.26	227.31
1003.55	227.33
1003.84	227.36
1004.13	227.39
1004.42	227.32
1004.71	227.33
1004.99	227.31
1005.28	227.32
1005.57	227.31
1005.86	227.31
1006.15	227.32
1006.44	227.30
1006.72	227.30
1007.01	227.29
1007.30	227.31
1007.59	227.27
1007.88	227.27
1008.17	227.24
1008.45	227.23
1008.74	227.17
1009.03	227.09
1009.32	227.10
1009.60	227.08
1009.89	227.04
1010.18	227.00
1010.47	227.03
1010.76	227.03
1011.04	227.02
1011.33	227.00
1011.62	227.00
1011.91	227.00
1012.19	226.98
1012.48	227.01
1012.77	227.00
1013.05	227.06
1013.34	227.07
1013.63	227.06
1013.92	227.07
1014.20	227.09
1014.49	227.08
1014.78	227.10
1015.06	227.08
1015.35	227.11
1015.64	227.10
1015.92	227.12
1016.21	227.11
1016.50	227.11
1016.78	227.11
1017.07	227.08
1017.36	227.06
1017.64	227.05
1017.93	227.04
1018.22	227.05
1018.50	227.05
1018.79	227.02
1019.08	226.95
1019.36	226.93
1019.65	226.91
1019.93	226.95
1020.22	226.99
1020.51	227.04
1020.79	227.02
1021.08	226.92
1021.36	226.99
1021.65	226.59
1021.94	226.65
1022.22	226.96
1022.51	226.75
1022.79	227.85
1023.08	227.76
1023.36	227.94
1023.65	226.76
>>>>>End Processed Spectral Data<<<<<
