SpectraSuite Data File
++++++++++++++++++++++++++++++++++++
Date: Fri Feb 01 18:06:17 EST 2013
User: group
Dark Spectrum Present: No
Reference Spectrum Present: No
Number of Sampled Component Spectra: 1
Spectrometers: USB2E7196
Integration Time (usec): 35000 (USB2E7196)
Spectra Averaged: 100 (USB2E7196)
Boxcar Smoothing: 10 (USB2E7196)
Correct for Electrical Dark: No (USB2E7196)
Strobe/Lamp Enabled: No (USB2E7196)
Correct for Detector Non-linearity: No (USB2E7196)
Correct for Stray Light: No (USB2E7196)
Number of Pixels in Processed Spectrum: 2048
>>>>>Begin Processed Spectral Data<<<<<
339.09	0.00
339.48	213.24
339.86	214.78
340.24	216.50
340.63	217.16
341.01	219.56
341.39	220.05
341.78	221.02
342.16	222.70
342.54	223.21
342.93	211.59
343.31	222.27
343.69	222.79
344.07	223.24
344.46	223.65
344.84	224.02
345.22	224.30
345.60	224.56
345.99	224.74
346.37	224.88
346.75	224.96
347.13	225.05
347.52	225.06
347.90	225.13
348.28	225.19
348.66	225.23
349.05	225.19
349.43	225.25
349.81	225.26
350.19	225.30
350.57	225.36
350.96	225.42
351.34	225.51
351.72	225.61
352.10	225.70
352.48	225.75
352.87	225.81
353.25	225.85
353.63	225.90
354.01	225.99
354.39	226.03
354.77	226.10
355.15	226.16
355.54	226.19
355.92	226.21
356.30	226.26
356.68	226.34
357.06	226.45
357.44	226.50
357.82	226.60
358.20	226.66
358.58	226.71
358.97	226.75
359.35	226.81
359.73	226.87
360.11	226.91
360.49	226.98
360.87	227.04
361.25	227.08
361.63	227.16
362.01	227.20
362.39	227.25
362.77	227.32
363.15	227.35
363.53	227.41
363.91	227.45
364.29	227.48
364.67	227.43
365.05	227.45
365.43	227.49
365.81	227.50
366.19	227.56
366.57	227.60
366.95	227.61
367.33	227.62
367.71	227.61
368.09	227.61
368.47	227.62
368.85	227.60
369.23	227.62
369.61	227.56
369.99	227.58
370.37	227.55
370.75	227.57
371.13	227.52
371.51	227.50
371.89	227.44
372.27	227.39
372.65	227.35
373.03	227.29
373.41	227.24
373.78	227.17
374.16	227.09
374.54	227.02
374.92	226.94
375.30	226.87
375.68	226.80
376.06	226.79
376.44	226.73
376.82	226.69
377.19	226.64
377.57	226.60
377.95	226.51
378.33	226.47
378.71	226.36
379.09	226.35
379.47	226.28
379.84	226.24
380.22	226.21
380.60	226.16
380.98	226.13
381.36	226.04
381.73	226.01
382.11	225.94
382.49	225.90
382.87	225.81
383.25	225.80
383.62	225.86
384.00	225.82
384.38	225.76
384.76	225.72
385.13	225.73
385.51	225.66
385.89	225.58
386.27	225.52
386.64	225.49
387.02	225.40
387.40	225.38
387.78	225.34
388.15	225.27
388.53	225.23
388.91	225.16
389.29	225.15
389.66	225.13
390.04	225.12
390.42	225.10
390.79	225.11
391.17	225.05
391.55	224.94
391.92	224.86
392.30	224.87
392.68	224.83
393.05	224.79
393.43	224.77
393.81	224.81
394.18	224.83
394.56	224.83
394.94	224.91
395.31	224.92
395.69	224.96
396.06	225.01
396.44	225.04
396.82	225.09
397.19	225.19
397.57	225.22
397.95	225.28
398.32	225.28
398.70	225.36
399.07	225.45
399.45	225.52
399.82	225.62
400.20	225.69
400.58	225.81
400.95	225.85
401.33	225.98
401.70	226.14
402.08	226.20
402.45	226.33
402.83	226.42
403.20	226.50
403.58	226.63
403.95	226.78
404.33	226.93
404.71	227.02
405.08	227.19
405.46	227.37
405.83	227.51
406.21	227.69
406.58	227.88
406.96	228.07
407.33	228.29
407.70	228.52
408.08	228.82
408.45	229.05
408.83	229.36
409.20	229.61
409.58	229.82
409.95	230.18
410.33	230.48
410.70	230.81
411.08	231.20
411.45	231.59
411.82	231.96
412.20	232.41
412.57	232.99
412.95	233.40
413.32	233.92
413.69	234.48
414.07	235.08
414.44	235.72
414.82	236.33
415.19	237.03
415.56	237.76
415.94	238.54
416.31	239.39
416.68	240.21
417.06	241.20
417.43	242.13
417.81	243.14
418.18	244.19
418.55	245.32
418.93	246.52
419.30	247.72
419.67	249.00
420.04	250.35
420.42	251.70
420.79	253.28
421.16	254.83
421.54	256.43
421.91	258.06
422.28	259.78
422.66	261.62
423.03	263.36
423.40	265.19
423.77	267.05
424.15	269.01
424.52	271.05
424.89	273.20
425.26	275.29
425.64	277.25
426.01	279.43
426.38	281.72
426.75	283.99
427.13	286.38
427.50	288.85
427.87	291.35
428.24	293.86
428.61	296.29
428.99	298.90
429.36	301.79
429.73	304.62
430.10	307.35
430.47	310.13
430.85	313.08
431.22	316.08
431.59	319.32
431.96	322.39
432.33	325.76
432.70	329.00
433.08	332.84
433.45	336.45
433.82	340.01
434.19	343.91
434.56	347.71
434.93	351.29
435.30	354.81
435.68	358.77
436.05	362.66
436.42	366.45
436.79	369.90
437.16	373.55
437.53	377.39
437.90	381.23
438.27	384.96
438.64	388.77
439.01	392.32
439.38	395.42
439.75	398.35
440.13	401.76
440.50	404.93
440.87	407.51
441.24	410.13
441.61	413.07
441.98	415.09
442.35	417.53
442.72	420.09
443.09	422.58
443.46	423.91
443.83	424.74
444.20	425.43
444.57	426.58
444.94	426.98
445.31	427.46
445.68	427.87
446.05	427.95
446.42	427.43
446.79	426.84
447.16	426.22
447.53	425.77
447.90	424.16
448.27	422.57
448.64	420.37
449.01	418.84
449.37	416.11
449.74	413.51
450.11	410.47
450.48	407.07
450.85	403.63
451.22	400.74
451.59	397.94
451.96	395.27
452.33	391.72
452.70	388.50
453.07	384.64
453.43	380.72
453.80	376.99
454.17	373.34
454.54	369.90
454.91	366.18
455.28	362.56
455.65	359.17
456.02	355.75
456.38	352.82
456.75	349.16
457.12	346.10
457.49	343.09
457.86	340.14
458.23	337.59
458.59	334.77
458.96	331.86
459.33	329.33
459.70	326.77
460.07	324.73
460.43	322.41
460.80	320.14
461.17	318.14
461.54	316.09
461.91	314.16
462.27	312.18
462.64	310.48
463.01	308.59
463.38	306.80
463.74	304.99
464.11	303.42
464.48	302.00
464.85	300.51
465.21	299.28
465.58	298.02
465.95	296.51
466.32	295.27
466.68	294.04
467.05	292.81
467.42	291.61
467.78	290.32
468.15	289.05
468.52	288.19
468.88	287.05
469.25	285.96
469.62	285.07
469.98	284.15
470.35	283.22
470.72	282.42
471.08	281.52
471.45	280.80
471.82	280.01
472.18	279.22
472.55	278.54
472.92	277.82
473.28	277.18
473.65	276.56
474.02	275.94
474.38	275.44
474.75	274.96
475.11	274.48
475.48	274.06
475.85	273.77
476.21	273.39
476.58	273.09
476.94	272.87
477.31	272.59
477.67	272.32
478.04	272.14
478.41	272.01
478.77	271.97
479.14	271.81
479.50	271.75
479.87	271.78
480.23	271.86
480.60	271.90
480.96	271.90
481.33	272.07
481.69	272.25
482.06	272.37
482.42	272.52
482.79	272.72
483.15	273.01
483.52	273.34
483.88	273.65
484.25	273.99
484.61	274.37
484.98	274.77
485.34	275.31
485.71	275.89
486.07	276.47
486.44	277.04
486.80	277.78
487.17	278.53
487.53	279.35
487.90	280.18
488.26	281.13
488.62	282.15
488.99	283.17
489.35	284.28
489.72	285.44
490.08	286.67
490.44	287.94
490.81	289.35
491.17	290.78
491.54	292.36
491.90	293.95
492.26	295.69
492.63	297.53
492.99	299.36
493.36	301.40
493.72	303.58
494.08	305.77
494.45	308.18
494.81	310.61
495.17	313.16
495.54	315.86
495.90	318.67
496.26	321.63
496.63	324.73
496.99	328.02
497.35	331.49
497.72	335.13
498.08	338.85
498.44	342.77
498.80	346.86
499.17	351.13
499.53	355.60
499.89	360.23
500.26	365.03
500.62	370.00
500.98	375.21
501.34	380.51
501.71	386.17
502.07	391.87
502.43	397.88
502.79	404.05
503.16	410.54
503.52	417.22
503.88	424.03
504.24	431.10
504.60	438.40
504.97	445.95
505.33	453.71
505.69	461.95
506.05	470.19
506.41	478.67
506.78	487.34
507.14	496.35
507.50	505.65
507.86	515.35
508.22	525.24
508.59	535.07
508.95	545.29
509.31	555.77
509.67	566.63
510.03	577.59
510.39	588.91
510.75	600.48
511.12	612.22
511.48	624.36
511.84	636.70
512.20	649.06
512.56	661.94
512.92	675.03
513.28	688.39
513.64	701.85
514.00	715.55
514.37	729.56
514.73	743.69
515.09	757.83
515.45	772.16
515.81	786.81
516.17	801.99
516.53	817.46
516.89	832.86
517.25	848.15
517.61	863.83
517.97	879.59
518.33	895.27
518.69	911.29
519.05	927.61
519.41	944.08
519.77	961.02
520.13	977.89
520.49	994.78
520.85	1011.47
521.21	1028.59
521.57	1046.36
521.93	1063.66
522.29	1081.53
522.65	1099.40
523.01	1117.24
523.37	1134.90
523.73	1152.68
524.09	1170.28
524.45	1188.27
524.81	1206.74
525.17	1225.32
525.53	1243.98
525.89	1262.63
526.25	1281.29
526.61	1299.45
526.97	1318.12
527.33	1336.45
527.68	1354.80
528.04	1373.01
528.40	1391.57
528.76	1410.67
529.12	1429.21
529.48	1448.01
529.84	1465.93
530.20	1484.53
530.56	1503.39
530.91	1522.93
531.27	1541.74
531.63	1560.22
531.99	1578.87
532.35	1596.78
532.71	1614.75
533.07	1633.20
533.42	1651.37
533.78	1669.61
534.14	1688.12
534.50	1705.66
534.86	1723.74
535.21	1741.14
535.57	1759.41
535.93	1777.14
536.29	1794.08
536.65	1811.42
537.00	1828.40
537.36	1846.12
537.72	1862.68
538.08	1879.56
538.44	1895.58
538.79	1911.68
539.15	1927.54
539.51	1943.38
539.87	1960.07
540.22	1976.04
540.58	1991.96
540.94	2007.35
541.29	2022.42
541.65	2037.34
542.01	2052.78
542.37	2067.35
542.72	2082.08
543.08	2096.14
543.44	2110.88
543.79	2124.45
544.15	2137.56
544.51	2151.61
544.87	2164.81
545.22	2178.09
545.58	2190.57
545.94	2202.48
546.29	2214.57
546.65	2226.75
547.01	2238.43
547.36	2249.34
547.72	2260.07
548.07	2270.13
548.43	2280.38
548.79	2290.46
549.14	2300.25
549.50	2309.58
549.86	2319.27
550.21	2328.63
550.57	2337.82
550.92	2346.34
551.28	2355.49
551.64	2364.63
551.99	2373.00
552.35	2381.07
552.70	2389.18
553.06	2397.09
553.41	2405.34
553.77	2413.37
554.13	2421.37
554.48	2429.38
554.84	2436.93
555.19	2443.92
555.55	2450.95
555.90	2457.34
556.26	2464.20
556.61	2470.45
556.97	2476.64
557.32	2482.42
557.68	2488.33
558.03	2494.43
558.39	2499.83
558.74	2506.08
559.10	2511.78
559.45	2517.14
559.81	2523.06
560.16	2528.63
560.52	2533.42
560.87	2538.38
561.23	2542.31
561.58	2546.51
561.94	2550.45
562.29	2553.91
562.64	2558.08
563.00	2562.06
563.35	2566.94
563.71	2571.31
564.06	2576.01
564.42	2580.30
564.77	2584.36
565.12	2588.01
565.48	2591.16
565.83	2594.29
566.19	2596.79
566.54	2598.48
566.89	2600.83
567.25	2602.58
567.60	2604.72
567.96	2607.64
568.31	2609.53
568.66	2611.84
569.02	2613.49
569.37	2614.71
569.72	2616.63
570.08	2617.68
570.43	2618.35
570.78	2618.52
571.14	2617.51
571.49	2616.59
571.84	2616.77
572.20	2616.32
572.55	2615.73
572.90	2614.52
573.26	2613.63
573.61	2612.13
573.96	2611.02
574.31	2608.10
574.67	2605.18
575.02	2601.85
575.37	2598.34
575.72	2594.67
576.08	2591.28
576.43	2588.19
576.78	2584.69
577.13	2581.49
577.49	2578.46
577.84	2575.11
578.19	2571.34
578.54	2567.94
578.90	2563.86
579.25	2557.98
579.60	2552.61
579.95	2547.34
580.30	2542.08
580.66	2536.55
581.01	2531.49
581.36	2526.20
581.71	2521.96
582.06	2517.38
582.42	2512.60
582.77	2507.05
583.12	2502.11
583.47	2497.24
583.82	2491.95
584.17	2486.20
584.53	2480.25
584.88	2474.06
585.23	2467.78
585.58	2461.86
585.93	2455.82
586.28	2450.50
586.63	2445.12
586.98	2439.47
587.34	2434.26
587.69	2428.91
588.04	2423.27
588.39	2416.94
588.74	2409.62
589.09	2402.62
589.44	2395.10
589.79	2388.19
590.14	2381.70
590.49	2374.30
590.84	2367.05
591.19	2360.25
591.54	2353.14
591.89	2345.00
592.25	2337.37
592.60	2329.08
592.95	2320.44
593.30	2312.09
593.65	2303.38
594.00	2295.32
594.35	2287.16
594.70	2278.06
595.05	2269.85
595.40	2261.43
595.75	2252.85
596.10	2245.85
596.45	2238.16
596.80	2231.10
597.15	2223.56
597.50	2215.63
597.85	2208.23
598.19	2200.69
598.54	2192.49
598.89	2184.50
599.24	2177.66
599.59	2170.10
599.94	2163.04
600.29	2155.81
600.64	2148.16
600.99	2139.75
601.34	2131.82
601.69	2123.74
602.04	2115.76
602.39	2107.16
602.74	2099.13
603.08	2091.24
603.43	2083.41
603.78	2074.93
604.13	2066.43
604.48	2058.02
604.83	2049.92
605.18	2041.95
605.53	2032.52
605.87	2023.23
606.22	2014.89
606.57	2005.43
606.92	1996.58
607.27	1988.23
607.62	1980.16
607.96	1971.76
608.31	1964.01
608.66	1955.02
609.01	1946.10
609.36	1937.19
609.70	1927.79
610.05	1918.28
610.40	1909.30
610.75	1899.49
611.10	1890.54
611.44	1880.62
611.79	1871.24
612.14	1861.09
612.49	1850.15
612.83	1840.26
613.18	1830.65
613.53	1821.13
613.88	1811.22
614.22	1801.48
614.57	1791.18
614.92	1781.60
615.27	1772.71
615.61	1762.97
615.96	1753.50
616.31	1744.53
616.65	1735.83
617.00	1726.93
617.35	1718.00
617.70	1708.35
618.04	1698.32
618.39	1688.46
618.74	1679.50
619.08	1669.74
619.43	1660.74
619.78	1652.59
620.12	1644.20
620.47	1635.10
620.82	1625.38
621.16	1616.50
621.51	1607.52
621.85	1598.58
622.20	1588.48
622.55	1578.36
622.89	1568.82
623.24	1559.74
623.59	1550.81
623.93	1541.91
624.28	1533.35
624.62	1524.36
624.97	1515.65
625.32	1507.58
625.66	1499.30
626.01	1490.84
626.35	1482.01
626.70	1472.84
627.04	1463.74
627.39	1454.39
627.73	1445.72
628.08	1437.55
628.43	1429.08
628.77	1420.45
629.12	1411.56
629.46	1403.11
629.81	1394.27
630.15	1385.80
630.50	1377.08
630.84	1367.59
631.19	1358.15
631.53	1349.24
631.88	1340.39
632.22	1331.49
632.57	1322.82
632.91	1313.95
633.26	1305.19
633.60	1296.49
633.95	1288.09
634.29	1279.80
634.64	1271.91
634.98	1263.38
635.32	1254.98
635.67	1247.03
636.01	1239.07
636.36	1231.05
636.70	1223.35
637.05	1215.71
637.39	1208.06
637.73	1200.40
638.08	1193.51
638.42	1186.44
638.77	1178.91
639.11	1171.19
639.45	1163.68
639.80	1155.89
640.14	1148.30
640.49	1140.73
640.83	1133.22
641.17	1125.95
641.52	1118.53
641.86	1111.03
642.20	1104.11
642.55	1096.61
642.89	1089.01
643.23	1081.46
643.58	1074.73
643.92	1067.56
644.26	1060.60
644.61	1053.55
644.95	1046.60
645.29	1038.88
645.64	1031.05
645.98	1023.62
646.32	1016.69
646.66	1009.60
647.01	1002.81
647.35	996.15
647.69	989.16
648.04	982.70
648.38	975.98
648.72	968.94
649.06	961.94
649.41	955.07
649.75	948.20
650.09	941.35
650.43	934.58
650.78	927.43
651.12	920.41
651.46	913.76
651.80	907.10
652.14	900.76
652.49	894.54
652.83	888.49
653.17	881.87
653.51	875.31
653.85	868.96
654.20	862.42
654.54	855.32
654.88	848.66
655.22	841.77
655.56	835.10
655.90	828.73
656.25	822.59
656.59	816.31
656.93	810.39
657.27	804.41
657.61	798.07
657.95	792.08
658.29	786.23
658.64	780.01
658.98	773.82
659.32	767.43
659.66	761.36
660.00	755.23
660.34	749.47
660.68	743.74
661.02	737.92
661.36	732.48
661.70	727.35
662.05	722.34
662.39	717.41
662.73	712.21
663.07	707.15
663.41	702.00
663.75	696.81
664.09	691.55
664.43	686.41
664.77	681.65
665.11	676.73
665.45	671.94
665.79	667.32
666.13	662.59
666.47	657.93
666.81	653.07
667.15	648.30
667.49	643.77
667.83	639.30
668.17	634.80
668.51	630.13
668.85	625.45
669.19	620.97
669.53	616.52
669.87	612.09
670.21	607.79
670.55	603.58
670.89	599.57
671.23	595.59
671.57	591.53
671.91	587.45
672.25	583.36
672.58	579.25
672.92	575.18
673.26	571.49
673.60	567.77
673.94	564.21
674.28	560.80
674.62	557.42
674.96	553.85
675.30	550.47
675.64	547.04
675.97	543.79
676.31	540.51
676.65	537.15
676.99	533.96
677.33	530.63
677.67	527.32
678.01	523.84
678.34	520.41
678.68	517.06
679.02	513.79
679.36	510.58
679.70	507.41
680.04	504.24
680.37	500.95
680.71	497.73
681.05	494.66
681.39	491.52
681.73	488.41
682.06	485.51
682.40	482.57
682.74	479.62
683.08	476.67
683.42	473.62
683.75	470.67
684.09	467.71
684.43	464.85
684.77	462.02
685.10	459.26
685.44	456.56
685.78	453.91
686.12	451.29
686.45	448.61
686.79	445.92
687.13	443.37
687.46	440.83
687.80	438.27
688.14	435.68
688.48	433.31
688.81	430.73
689.15	428.15
689.49	425.65
689.82	423.22
690.16	420.81
690.50	418.54
690.83	416.33
691.17	414.04
691.51	411.79
691.84	409.63
692.18	407.43
692.52	405.11
692.85	402.85
693.19	400.63
693.52	398.49
693.86	396.43
694.20	394.41
694.53	392.31
694.87	390.17
695.21	388.08
695.54	385.93
695.88	383.87
696.21	381.89
696.55	379.89
696.88	377.90
697.22	375.93
697.56	373.99
697.89	372.08
698.23	370.21
698.56	368.35
698.90	366.46
699.23	364.54
699.57	362.70
699.90	360.93
700.24	359.14
700.58	357.34
700.91	355.57
701.25	353.78
701.58	352.12
701.92	350.56
702.25	348.95
702.59	347.38
702.92	345.84
703.26	344.33
703.59	342.83
703.93	341.44
704.26	339.99
704.60	338.48
704.93	336.96
705.26	335.46
705.60	334.06
705.93	332.71
706.27	331.48
706.60	330.27
706.94	328.96
707.27	327.62
707.61	326.42
707.94	325.19
708.27	323.94
708.61	322.69
708.94	321.47
709.28	320.29
709.61	319.14
709.94	318.04
710.28	316.84
710.61	315.69
710.95	314.43
711.28	313.35
711.61	312.24
711.95	311.18
712.28	310.08
712.61	308.94
712.95	307.83
713.28	306.78
713.61	305.74
713.95	304.75
714.28	303.79
714.61	302.78
714.95	301.81
715.28	300.83
715.61	299.84
715.95	298.82
716.28	297.79
716.61	296.82
716.95	295.86
717.28	294.98
717.61	294.12
717.94	293.27
718.28	292.36
718.61	291.55
718.94	290.75
719.27	289.99
719.61	289.27
719.94	288.52
720.27	287.68
720.60	286.87
720.94	286.13
721.27	285.45
721.60	284.74
721.93	284.06
722.27	283.40
722.60	282.73
722.93	282.06
723.26	281.47
723.59	280.84
723.93	280.22
724.26	279.59
724.59	278.94
724.92	278.34
725.25	277.75
725.59	277.10
725.92	276.48
726.25	275.90
726.58	275.28
726.91	274.72
727.24	274.23
727.57	273.68
727.91	273.10
728.24	272.52
728.57	271.97
728.90	271.43
729.23	270.91
729.56	270.40
729.89	269.91
730.22	269.34
730.55	268.76
730.89	268.23
731.22	267.70
731.55	267.18
731.88	266.68
732.21	266.22
732.54	265.73
732.87	265.21
733.20	264.74
733.53	264.32
733.86	263.83
734.19	263.36
734.52	262.91
734.85	262.51
735.18	262.05
735.51	261.62
735.84	261.17
736.17	260.70
736.50	260.22
736.83	259.93
737.16	259.55
737.49	259.15
737.82	258.72
738.15	258.31
738.48	257.94
738.81	257.55
739.14	257.11
739.47	256.73
739.80	256.37
740.13	256.03
740.46	255.67
740.79	255.27
741.12	254.87
741.45	254.52
741.78	254.11
742.11	253.74
742.44	253.36
742.77	253.02
743.10	252.67
743.43	252.33
743.75	251.88
744.08	251.65
744.41	251.38
744.74	251.06
745.07	250.75
745.40	250.46
745.73	250.16
746.06	249.87
746.39	249.58
746.71	249.23
747.04	248.88
747.37	248.55
747.70	248.28
748.03	248.03
748.36	247.77
748.68	247.51
749.01	247.25
749.34	246.98
749.67	246.71
750.00	246.48
750.33	246.29
750.65	246.05
750.98	245.69
751.31	245.44
751.64	245.21
751.97	244.99
752.29	244.73
752.62	244.45
752.95	244.24
753.28	243.97
753.60	243.78
753.93	243.57
754.26	243.35
754.59	243.12
754.91	242.87
755.24	242.62
755.57	242.44
755.90	242.21
756.22	242.00
756.55	241.78
756.88	241.55
757.20	241.27
757.53	241.04
757.86	240.83
758.19	240.68
758.51	240.53
758.84	240.30
759.17	240.12
759.49	239.94
759.82	239.77
760.15	239.62
760.47	239.44
760.80	239.28
761.13	239.10
761.45	238.93
761.78	238.75
762.11	238.61
762.43	238.40
762.76	238.23
763.08	238.08
763.41	237.95
763.74	237.85
764.06	237.68
764.39	237.53
764.71	237.40
765.04	237.20
765.37	237.01
765.69	236.87
766.02	236.73
766.34	236.58
766.67	236.44
767.00	236.31
767.32	236.22
767.65	236.13
767.97	235.99
768.30	235.88
768.62	235.77
768.95	235.63
769.27	235.52
769.60	235.40
769.92	235.23
770.25	235.09
770.57	234.92
770.90	234.81
771.22	234.71
771.55	234.59
771.87	234.50
772.20	234.40
772.52	234.35
772.85	234.35
773.17	234.24
773.50	234.10
773.82	234.00
774.15	233.84
774.47	233.68
774.80	233.54
775.12	233.41
775.45	233.30
775.77	233.19
776.09	233.09
776.42	232.97
776.74	232.89
777.07	232.78
777.39	232.72
777.72	232.66
778.04	232.54
778.36	232.44
778.69	232.37
779.01	232.29
779.33	232.13
779.66	231.89
779.98	231.81
780.31	231.73
780.63	231.70
780.95	231.65
781.28	231.57
781.60	231.53
781.92	231.45
782.25	231.37
782.57	231.33
782.89	231.26
783.22	231.20
783.54	231.13
783.86	231.09
784.19	230.97
784.51	230.89
784.83	230.82
785.16	230.70
785.48	230.62
785.80	230.54
786.12	230.47
786.45	230.46
786.77	230.42
787.09	230.39
787.42	230.25
787.74	230.18
788.06	230.11
788.38	230.04
788.71	229.99
789.03	229.92
789.35	229.88
789.67	229.80
789.99	229.76
790.32	229.69
790.64	229.65
790.96	229.71
791.28	229.65
791.61	229.62
791.93	229.61
792.25	229.57
792.57	229.63
792.89	229.57
793.21	229.48
793.54	229.41
793.86	229.33
794.18	229.30
794.50	229.24
794.82	229.20
795.14	229.22
795.47	229.20
795.79	229.18
796.11	229.11
796.43	229.09
796.75	229.06
797.07	229.06
797.39	228.99
797.71	228.91
798.04	228.89
798.36	228.88
798.68	228.83
799.00	228.77
799.32	228.68
799.64	228.71
799.96	228.68
800.28	228.66
800.60	228.64
800.92	228.63
801.24	228.59
801.56	228.58
801.89	228.51
802.21	228.48
802.53	228.45
802.85	228.42
803.17	228.42
803.49	228.38
803.81	228.33
804.13	228.32
804.45	228.26
804.77	228.24
805.09	228.19
805.41	228.18
805.73	228.14
806.05	228.07
806.37	227.98
806.69	227.97
807.01	227.94
807.33	227.93
807.65	227.86
807.97	227.90
808.28	227.88
808.60	227.86
808.92	227.81
809.24	227.82
809.56	227.79
809.88	227.73
810.20	227.71
810.52	227.69
810.84	227.67
811.16	227.62
811.48	227.60
811.80	227.60
812.12	227.56
812.43	227.56
812.75	227.55
813.07	227.56
813.39	227.52
813.71	227.47
814.03	227.44
814.35	227.44
814.67	227.37
814.98	227.31
815.30	227.26
815.62	227.23
815.94	227.18
816.26	227.19
816.58	227.16
816.89	227.12
817.21	227.06
817.53	227.05
817.85	227.03
818.17	227.00
818.48	226.95
818.80	226.94
819.12	226.93
819.44	226.88
819.76	226.86
820.07	226.84
820.39	226.83
820.71	226.82
821.03	226.76
821.34	226.72
821.66	226.71
821.98	226.71
822.30	226.68
822.61	226.68
822.93	226.63
823.25	226.56
823.57	226.54
823.88	226.56
824.20	226.54
824.52	226.55
824.83	226.51
825.15	226.49
825.47	226.47
825.79	226.45
826.10	226.45
826.42	226.40
826.74	226.38
827.05	226.35
827.37	226.34
827.69	226.36
828.00	226.36
828.32	226.34
828.64	226.33
828.95	226.38
829.27	226.36
829.58	226.30
829.90	226.36
830.22	226.34
830.53	226.32
830.85	226.27
831.17	226.21
831.48	226.20
831.80	226.20
832.11	226.19
832.43	226.16
832.75	226.15
833.06	226.20
833.38	226.18
833.69	226.19
834.01	226.18
834.32	226.18
834.64	226.18
834.96	226.19
835.27	226.18
835.59	226.13
835.90	226.12
836.22	226.17
836.53	226.13
836.85	226.12
837.16	226.23
837.48	226.26
837.79	226.31
838.11	226.33
838.42	226.33
838.74	226.34
839.05	226.32
839.37	226.31
839.68	226.25
840.00	226.26
840.31	226.27
840.63	226.25
840.94	226.22
841.26	226.19
841.57	226.17
841.88	226.16
842.20	226.16
842.51	226.16
842.83	226.12
843.14	226.22
843.46	226.24
843.77	226.17
844.08	226.14
844.40	226.12
844.71	226.09
845.03	226.09
845.34	226.06
845.65	226.07
845.97	226.07
846.28	226.08
846.60	226.07
846.91	226.05
847.22	226.07
847.54	226.08
847.85	226.12
848.16	226.13
848.48	226.13
848.79	226.17
849.10	226.17
849.42	226.19
849.73	226.12
850.04	226.10
850.36	226.05
850.67	226.08
850.98	226.07
851.30	226.08
851.61	226.08
851.92	226.06
852.23	226.07
852.55	226.09
852.86	226.08
853.17	226.10
853.49	226.14
853.80	226.14
854.11	226.15
854.42	226.09
854.74	226.07
855.05	226.05
855.36	225.97
855.67	225.95
855.99	225.92
856.30	226.03
856.61	225.99
856.92	225.99
857.23	225.97
857.55	225.94
857.86	225.93
858.17	225.94
858.48	225.92
858.79	225.91
859.11	225.87
859.42	225.85
859.73	225.84
860.04	225.80
860.35	225.77
860.66	225.74
860.98	225.77
861.29	225.75
861.60	225.74
861.91	225.74
862.22	225.70
862.53	225.69
862.84	225.53
863.16	225.58
863.47	225.56
863.78	225.55
864.09	225.55
864.40	225.53
864.71	225.50
865.02	225.52
865.33	225.50
865.64	225.47
865.95	225.47
866.27	225.55
866.58	225.56
866.89	225.53
867.20	225.53
867.51	225.51
867.82	225.53
868.13	225.53
868.44	225.51
868.75	225.56
869.06	225.55
869.37	225.53
869.68	225.47
869.99	225.44
870.30	225.42
870.61	225.44
870.92	225.42
871.23	225.44
871.54	225.45
871.85	225.45
872.16	225.45
872.47	225.43
872.78	225.33
873.09	225.33
873.40	225.31
873.71	225.30
874.02	225.29
874.33	225.28
874.64	225.26
874.95	225.29
875.26	225.23
875.56	225.25
875.87	225.27
876.18	225.28
876.49	225.37
876.80	225.38
877.11	225.32
877.42	225.30
877.73	225.27
878.04	225.26
878.35	225.23
878.66	225.24
878.96	225.20
879.27	225.19
879.58	225.19
879.89	225.22
880.20	225.26
880.51	225.24
880.82	225.24
881.12	225.25
881.43	225.21
881.74	225.21
882.05	225.22
882.36	225.20
882.67	225.21
882.97	225.11
883.28	225.10
883.59	225.14
883.90	225.18
884.21	225.20
884.51	225.17
884.82	225.20
885.13	225.19
885.44	225.21
885.74	225.21
886.05	225.16
886.36	225.14
886.67	225.10
886.98	225.17
887.28	225.15
887.59	225.13
887.90	225.13
888.20	225.15
888.51	225.12
888.82	225.13
889.13	225.16
889.43	225.27
889.74	225.27
890.05	225.24
890.35	225.24
890.66	225.20
890.97	225.20
891.28	225.19
891.58	225.22
891.89	225.22
892.20	225.23
892.50	225.22
892.81	225.21
893.12	225.19
893.42	225.15
893.73	225.16
894.04	225.17
894.34	225.16
894.65	225.13
894.95	225.14
895.26	225.18
895.57	225.20
895.87	225.10
896.18	225.11
896.48	225.16
896.79	225.16
897.10	225.20
897.40	225.23
897.71	225.27
898.01	225.24
898.32	225.25
898.63	225.27
898.93	225.32
899.24	225.32
899.54	225.36
899.85	225.34
900.15	225.33
900.46	225.35
900.76	225.39
901.07	225.40
901.38	225.39
901.68	225.34
901.99	225.28
902.29	225.30
902.60	225.28
902.90	225.21
903.21	225.18
903.51	225.19
903.82	225.16
904.12	225.13
904.43	225.15
904.73	225.15
905.03	225.16
905.34	225.26
905.64	225.26
905.95	225.22
906.25	225.21
906.56	225.20
906.86	225.16
907.17	225.14
907.47	225.16
907.77	225.14
908.08	225.15
908.38	225.15
908.69	225.13
908.99	225.13
909.30	225.17
909.60	225.15
909.90	225.15
910.21	225.17
910.51	225.14
910.81	225.11
911.12	225.11
911.42	225.11
911.73	224.97
912.03	224.96
912.33	225.00
912.64	224.99
912.94	224.99
913.24	225.00
913.55	224.98
913.85	224.96
914.15	225.01
914.46	225.01
914.76	225.03
915.06	225.04
915.37	225.02
915.67	225.02
915.97	225.04
916.27	224.99
916.58	224.98
916.88	225.01
917.18	225.01
917.49	225.03
917.79	225.02
918.09	225.04
918.39	225.06
918.70	225.05
919.00	225.06
919.30	225.11
919.60	225.10
919.91	225.09
920.21	225.12
920.51	225.07
920.81	225.08
921.12	225.04
921.42	225.05
921.72	225.07
922.02	225.05
922.32	225.07
922.63	225.08
922.93	225.10
923.23	225.09
923.53	225.11
923.83	225.04
924.13	225.04
924.44	225.02
924.74	225.02
925.04	225.02
925.34	225.03
925.64	224.99
925.94	224.96
926.24	225.04
926.55	225.01
926.85	225.03
927.15	225.05
927.45	225.06
927.75	225.06
928.05	225.02
928.35	225.05
928.65	225.07
928.95	225.09
929.26	225.05
929.56	225.09
929.86	225.08
930.16	225.09
930.46	225.13
930.76	225.13
931.06	225.13
931.36	225.12
931.66	225.15
931.96	225.16
932.26	225.19
932.56	225.15
932.86	225.19
933.16	225.19
933.46	225.17
933.76	225.19
934.06	225.23
934.36	225.31
934.66	225.30
934.96	225.31
935.26	225.28
935.56	225.32
935.86	225.30
936.16	225.27
936.46	225.25
936.76	225.22
937.06	225.23
937.36	225.21
937.66	225.22
937.96	225.18
938.26	225.12
938.56	225.13
938.86	225.13
939.16	225.10
939.46	225.11
939.76	225.12
940.06	225.07
940.35	225.04
940.65	224.96
940.95	224.96
941.25	224.89
941.55	224.88
941.85	224.86
942.15	224.86
942.45	224.87
942.75	224.90
943.04	224.89
943.34	224.90
943.64	224.90
943.94	224.88
944.24	224.95
944.54	224.97
944.84	224.94
945.13	224.91
945.43	224.92
945.73	224.90
946.03	224.89
946.33	224.90
946.62	224.94
946.92	224.96
947.22	224.95
947.52	224.97
947.82	224.98
948.11	224.96
948.41	224.95
948.71	224.93
949.01	224.92
949.31	224.93
949.60	224.90
949.90	224.93
950.20	224.94
950.50	224.86
950.79	224.85
951.09	224.88
951.39	224.89
951.69	224.86
951.98	224.90
952.28	224.88
952.58	224.83
952.87	224.80
953.17	224.82
953.47	224.82
953.76	224.81
954.06	224.81
954.36	224.85
954.66	224.85
954.95	224.87
955.25	224.87
955.55	224.88
955.84	224.90
956.14	224.87
956.44	224.87
956.73	224.89
957.03	224.92
957.32	224.92
957.62	224.93
957.92	224.96
958.21	224.98
958.51	225.10
958.81	225.14
959.10	225.14
959.40	225.19
959.69	225.22
959.99	225.25
960.29	225.27
960.58	225.26
960.88	225.30
961.17	225.30
961.47	225.31
961.76	225.29
962.06	225.31
962.36	225.34
962.65	225.35
962.95	225.36
963.24	225.35
963.54	225.35
963.83	225.36
964.13	225.34
964.42	225.30
964.72	225.20
965.01	225.20
965.31	225.19
965.60	225.16
965.90	225.16
966.19	225.17
966.49	225.15
966.78	225.09
967.08	225.08
967.37	225.11
967.67	225.08
967.96	225.08
968.26	225.06
968.55	225.04
968.85	225.05
969.14	225.08
969.43	225.05
969.73	225.05
970.02	225.00
970.32	225.02
970.61	225.02
970.91	225.02
971.20	225.02
971.49	225.00
971.79	225.00
972.08	224.96
972.38	224.93
972.67	224.90
972.96	224.99
973.26	224.96
973.55	224.99
973.85	224.99
974.14	224.99
974.43	225.02
974.73	225.02
975.02	224.99
975.31	224.93
975.61	224.99
975.90	224.99
976.19	225.01
976.49	224.99
976.78	225.00
977.07	225.00
977.37	224.99
977.66	225.00
977.95	224.98
978.24	225.02
978.54	225.04
978.83	225.05
979.12	225.02
979.42	225.04
979.71	225.01
980.00	225.00
980.29	224.98
980.59	224.96
980.88	224.99
981.17	224.97
981.46	224.96
981.76	224.91
982.05	224.93
982.34	224.92
982.63	224.93
982.93	224.92
983.22	224.91
983.51	224.93
983.80	224.94
984.09	224.95
984.39	224.89
984.68	224.88
984.97	224.89
985.26	224.85
985.55	224.83
985.85	224.83
986.14	224.83
986.43	224.84
986.72	224.83
987.01	224.80
987.30	224.80
987.59	224.81
987.89	224.79
988.18	224.77
988.47	224.78
988.76	224.77
989.05	224.75
989.34	224.71
989.63	224.73
989.92	224.74
990.22	224.73
990.51	224.70
990.80	224.68
991.09	224.67
991.38	224.65
991.67	224.63
991.96	224.61
992.25	224.60
992.54	224.58
992.83	224.59
993.12	224.58
993.41	224.62
993.70	224.64
993.99	224.65
994.28	224.65
994.58	224.66
994.87	224.65
995.16	224.62
995.45	224.63
995.74	224.58
996.03	224.58
996.32	224.60
996.61	224.65
996.90	224.64
997.19	224.65
997.48	224.66
997.77	224.67
998.06	224.69
998.34	224.70
998.63	224.68
998.92	224.70
999.21	224.68
999.50	224.63
999.79	224.61
1000.08	224.65
1000.37	224.66
1000.66	224.66
1000.95	224.67
1001.24	224.70
1001.53	224.72
1001.82	224.73
1002.11	224.70
1002.40	224.70
1002.68	224.72
1002.97	224.78
1003.26	224.81
1003.55	224.84
1003.84	224.86
1004.13	224.86
1004.42	224.85
1004.71	224.90
1004.99	224.87
1005.28	224.89
1005.57	224.93
1005.86	224.91
1006.15	224.89
1006.44	224.88
1006.72	224.89
1007.01	224.89
1007.30	224.90
1007.59	224.88
1007.88	224.88
1008.17	224.88
1008.45	224.85
1008.74	224.84
1009.03	224.83
1009.32	224.82
1009.60	224.79
1009.89	224.77
1010.18	224.77
1010.47	224.77
1010.76	224.76
1011.04	224.80
1011.33	224.81
1011.62	224.83
1011.91	224.86
1012.19	224.86
1012.48	224.84
1012.77	224.84
1013.05	224.86
1013.34	224.85
1013.63	224.84
1013.92	224.80
1014.20	224.81
1014.49	224.84
1014.78	224.84
1015.06	224.81
1015.35	224.81
1015.64	224.84
1015.92	224.86
1016.21	224.83
1016.50	224.83
1016.78	224.83
1017.07	224.82
1017.36	224.84
1017.64	224.82
1017.93	224.80
1018.22	224.78
1018.50	224.82
1018.79	224.76
1019.08	224.73
1019.36	224.76
1019.65	224.76
1019.93	224.84
1020.22	224.82
1020.51	224.85
1020.79	224.80
1021.08	224.49
1021.36	225.07
1021.65	223.93
1021.94	224.79
1022.22	224.99
1022.51	224.33
1022.79	225.57
1023.08	224.40
1023.36	225.57
1023.65	224.22
>>>>>End Processed Spectral Data<<<<<
