SpectraSuite Data File
++++++++++++++++++++++++++++++++++++
Date: Fri Feb 01 15:53:14 EST 2013
User: group
Dark Spectrum Present: No
Reference Spectrum Present: No
Number of Sampled Component Spectra: 1
Spectrometers: USB2E7196
Integration Time (usec): 35000 (USB2E7196)
Spectra Averaged: 100 (USB2E7196)
Boxcar Smoothing: 10 (USB2E7196)
Correct for Electrical Dark: No (USB2E7196)
Strobe/Lamp Enabled: No (USB2E7196)
Correct for Detector Non-linearity: No (USB2E7196)
Correct for Stray Light: No (USB2E7196)
Number of Pixels in Processed Spectrum: 2048
>>>>>Begin Processed Spectral Data<<<<<
339.09	0.00
339.48	214.69
339.86	216.37
340.24	217.73
340.63	219.45
341.01	222.03
341.39	221.76
341.78	223.65
342.16	224.30
342.54	224.44
342.93	213.24
343.31	223.99
343.69	224.55
344.07	225.00
344.46	225.39
344.84	225.72
345.22	225.92
345.60	226.16
345.99	226.29
346.37	226.38
346.75	226.48
347.13	226.51
347.52	226.53
347.90	226.56
348.28	226.54
348.66	226.59
349.05	226.58
349.43	226.58
349.81	226.61
350.19	226.67
350.57	226.72
350.96	226.76
351.34	226.85
351.72	226.92
352.10	226.98
352.48	227.09
352.87	227.14
353.25	227.23
353.63	227.27
354.01	227.35
354.39	227.44
354.77	227.49
355.15	227.59
355.54	227.66
355.92	227.74
356.30	227.83
356.68	227.94
357.06	228.03
357.44	228.09
357.82	228.18
358.20	228.22
358.58	228.29
358.97	228.36
359.35	228.43
359.73	228.50
360.11	228.56
360.49	228.59
360.87	228.65
361.25	228.68
361.63	228.79
362.01	228.85
362.39	228.89
362.77	228.97
363.15	229.02
363.53	229.06
363.91	229.09
364.29	229.09
364.67	229.01
365.05	229.03
365.43	229.05
365.81	229.04
366.19	229.11
366.57	229.12
366.95	229.15
367.33	229.14
367.71	229.13
368.09	229.16
368.47	229.18
368.85	229.17
369.23	229.20
369.61	229.14
369.99	229.12
370.37	229.09
370.75	229.11
371.13	229.04
371.51	228.98
371.89	228.95
372.27	228.90
372.65	228.86
373.03	228.80
373.41	228.73
373.78	228.69
374.16	228.59
374.54	228.52
374.92	228.47
375.30	228.41
375.68	228.33
376.06	228.31
376.44	228.24
376.82	228.16
377.19	228.09
377.57	228.01
377.95	227.93
378.33	227.89
378.71	227.75
379.09	227.71
379.47	227.67
379.84	227.61
380.22	227.55
380.60	227.49
380.98	227.43
381.36	227.40
381.73	227.33
382.11	227.28
382.49	227.21
382.87	227.14
383.25	227.10
383.62	227.17
384.00	227.08
384.38	227.01
384.76	226.98
385.13	226.95
385.51	226.91
385.89	226.87
386.27	226.80
386.64	226.79
387.02	226.74
387.40	226.67
387.78	226.62
388.15	226.61
388.53	226.55
388.91	226.52
389.29	226.47
389.66	226.45
390.04	226.45
390.42	226.44
390.79	226.40
391.17	226.37
391.55	226.23
391.92	226.17
392.30	226.19
392.68	226.17
393.05	226.16
393.43	226.15
393.81	226.15
394.18	226.16
394.56	226.18
394.94	226.22
395.31	226.26
395.69	226.30
396.06	226.31
396.44	226.37
396.82	226.39
397.19	226.47
397.57	226.49
397.95	226.51
398.32	226.53
398.70	226.60
399.07	226.67
399.45	226.69
399.82	226.77
400.20	226.83
400.58	226.89
400.95	226.92
401.33	227.01
401.70	227.14
402.08	227.24
402.45	227.31
402.83	227.41
403.20	227.50
403.58	227.60
403.95	227.74
404.33	227.89
404.71	228.01
405.08	228.14
405.46	228.30
405.83	228.44
406.21	228.61
406.58	228.75
406.96	228.93
407.33	229.11
407.70	229.31
408.08	229.55
408.45	229.78
408.83	230.06
409.20	230.30
409.58	230.52
409.95	230.74
410.33	231.04
410.70	231.27
411.08	231.58
411.45	231.89
411.82	232.20
412.20	232.52
412.57	232.98
412.95	233.32
413.32	233.74
413.69	234.15
414.07	234.59
414.44	235.08
414.82	235.52
415.19	236.07
415.56	236.60
415.94	237.17
416.31	237.79
416.68	238.39
417.06	239.10
417.43	239.78
417.81	240.56
418.18	241.35
418.55	242.16
418.93	243.02
419.30	243.95
419.67	244.88
420.04	245.84
420.42	246.80
420.79	247.98
421.16	249.10
421.54	250.29
421.91	251.50
422.28	252.76
422.66	254.11
423.03	255.43
423.40	256.78
423.77	258.18
424.15	259.63
424.52	261.13
424.89	262.75
425.26	264.28
425.64	265.69
426.01	267.26
426.38	268.95
426.75	270.62
427.13	272.34
427.50	274.13
427.87	276.01
428.24	277.85
428.61	279.58
428.99	281.55
429.36	283.67
429.73	285.76
430.10	287.78
430.47	289.81
430.85	291.93
431.22	294.16
431.59	296.53
431.96	298.75
432.33	301.21
432.70	303.58
433.08	306.41
433.45	309.06
433.82	311.64
434.19	314.51
434.56	317.33
434.93	319.99
435.30	322.58
435.68	325.46
436.05	328.32
436.42	331.12
436.79	333.59
437.16	336.24
437.53	339.09
437.90	341.95
438.27	344.74
438.64	347.53
439.01	350.12
439.38	352.35
439.75	354.49
440.13	356.97
440.50	359.27
440.87	361.07
441.24	363.03
441.61	365.22
441.98	366.75
442.35	368.53
442.72	370.36
443.09	372.17
443.46	373.14
443.83	373.70
444.20	374.20
444.57	375.08
444.94	375.34
445.31	375.61
445.68	375.88
446.05	375.93
446.42	375.55
446.79	375.15
447.16	374.73
447.53	374.42
447.90	373.23
448.27	372.11
448.64	370.51
449.01	369.37
449.37	367.35
449.74	365.48
450.11	363.27
450.48	360.78
450.85	358.29
451.22	356.14
451.59	354.12
451.96	352.19
452.33	349.56
452.70	347.23
453.07	344.44
453.43	341.57
453.80	338.81
454.17	336.15
454.54	333.59
454.91	330.87
455.28	328.19
455.65	325.72
456.02	323.27
456.38	321.13
456.75	318.46
457.12	316.27
457.49	313.99
457.86	311.77
458.23	309.92
458.59	307.86
458.96	305.78
459.33	303.92
459.70	302.08
460.07	300.57
460.43	298.87
460.80	297.24
461.17	295.77
461.54	294.29
461.91	292.86
462.27	291.43
462.64	290.17
463.01	288.82
463.38	287.56
463.74	286.20
464.11	285.07
464.48	284.08
464.85	282.95
465.21	282.11
465.58	281.21
465.95	280.12
466.32	279.24
466.68	278.33
467.05	277.45
467.42	276.54
467.78	275.59
468.15	274.71
468.52	274.01
468.88	273.17
469.25	272.40
469.62	271.78
469.98	271.12
470.35	270.54
470.72	269.96
471.08	269.32
471.45	268.77
471.82	268.25
472.18	267.61
472.55	267.20
472.92	266.67
473.28	266.23
473.65	265.79
474.02	265.35
474.38	265.01
474.75	264.71
475.11	264.36
475.48	264.14
475.85	263.92
476.21	263.72
476.58	263.52
476.94	263.39
477.31	263.21
477.67	263.05
478.04	262.93
478.41	262.90
478.77	262.89
479.14	262.81
479.50	262.81
479.87	262.89
480.23	262.94
480.60	263.00
480.96	263.09
481.33	263.27
481.69	263.44
482.06	263.65
482.42	263.83
482.79	264.08
483.15	264.40
483.52	264.75
483.88	265.09
484.25	265.51
484.61	265.93
484.98	266.38
485.34	266.93
485.71	267.52
486.07	268.10
486.44	268.68
486.80	269.39
487.17	270.10
487.53	270.94
487.90	271.77
488.26	272.72
488.62	273.74
488.99	274.73
489.35	275.77
489.72	276.87
490.08	278.04
490.44	279.29
490.81	280.60
491.17	282.00
491.54	283.47
491.90	285.00
492.26	286.65
492.63	288.40
492.99	290.19
493.36	292.08
493.72	294.09
494.08	296.24
494.45	298.49
494.81	300.88
495.17	303.33
495.54	305.89
495.90	308.57
496.26	311.36
496.63	314.33
496.99	317.46
497.35	320.73
497.72	324.18
498.08	327.68
498.44	331.35
498.80	335.25
499.17	339.28
499.53	343.47
499.89	347.86
500.26	352.34
500.62	357.03
500.98	361.96
501.34	367.04
501.71	372.32
502.07	377.75
502.43	383.38
502.79	389.17
503.16	395.26
503.52	401.49
503.88	407.87
504.24	414.48
504.60	421.35
504.97	428.47
505.33	435.76
505.69	443.48
506.05	451.30
506.41	459.18
506.78	467.36
507.14	475.78
507.50	484.51
507.86	493.53
508.22	502.72
508.59	511.97
508.95	521.63
509.31	531.41
509.67	541.49
510.03	551.80
510.39	562.33
510.75	573.10
511.12	584.05
511.48	595.42
511.84	606.81
512.20	618.40
512.56	630.43
512.92	642.69
513.28	655.00
513.64	667.52
514.00	680.22
514.37	693.20
514.73	706.27
515.09	719.31
515.45	732.65
515.81	746.23
516.17	760.16
516.53	774.16
516.89	788.38
517.25	802.57
517.61	816.91
517.97	831.45
518.33	845.87
518.69	860.71
519.05	875.69
519.41	890.91
519.77	906.36
520.13	921.72
520.49	936.98
520.85	952.52
521.21	968.21
521.57	984.45
521.93	1000.21
522.29	1016.56
522.65	1032.75
523.01	1048.93
523.37	1064.92
523.73	1081.14
524.09	1097.30
524.45	1113.69
524.81	1130.35
525.17	1147.17
525.53	1164.01
525.89	1180.87
526.25	1197.61
526.61	1213.97
526.97	1230.73
527.33	1247.36
527.68	1264.01
528.04	1280.68
528.40	1297.17
528.76	1314.25
529.12	1330.83
529.48	1347.60
529.84	1363.60
530.20	1380.28
530.56	1397.19
530.91	1414.66
531.27	1431.44
531.63	1447.79
531.99	1464.26
532.35	1480.22
532.71	1496.15
533.07	1512.33
533.42	1528.15
533.78	1544.11
534.14	1560.34
534.50	1575.52
534.86	1591.27
535.21	1606.48
535.57	1622.17
535.93	1637.65
536.29	1652.32
536.65	1667.30
537.00	1682.21
537.36	1697.51
537.72	1711.86
538.08	1726.27
538.44	1739.92
538.79	1753.62
539.15	1767.31
539.51	1781.07
539.87	1795.42
540.22	1809.01
540.58	1822.91
540.94	1836.31
541.29	1849.31
541.65	1861.99
542.01	1875.36
542.37	1887.78
542.72	1900.10
543.08	1911.94
543.44	1924.26
543.79	1935.48
544.15	1946.59
544.51	1958.04
544.87	1968.98
545.22	1979.90
545.58	1990.15
545.94	1999.92
546.29	2009.90
546.65	2019.82
547.01	2029.12
547.36	2037.73
547.72	2046.26
548.07	2053.93
548.43	2062.13
548.79	2070.08
549.14	2077.66
549.50	2084.86
549.86	2092.37
550.21	2099.65
550.57	2106.77
550.92	2113.32
551.28	2120.48
551.64	2127.48
551.99	2134.02
552.35	2140.24
552.70	2146.26
553.06	2152.14
553.41	2158.50
553.77	2164.48
554.13	2170.58
554.48	2176.64
554.84	2182.12
555.19	2187.44
555.55	2192.65
555.90	2196.98
556.26	2201.84
556.61	2206.50
556.97	2210.79
557.32	2214.93
557.68	2219.10
558.03	2223.39
558.39	2227.16
558.74	2231.65
559.10	2235.49
559.45	2239.12
559.81	2243.41
560.16	2247.37
560.52	2250.59
560.87	2254.12
561.23	2256.80
561.58	2259.82
561.94	2262.35
562.29	2264.76
562.64	2267.28
563.00	2269.84
563.35	2273.53
563.71	2276.62
564.06	2279.78
564.42	2282.64
564.77	2285.20
565.12	2287.41
565.48	2289.28
565.83	2291.18
566.19	2292.46
566.54	2293.35
566.89	2294.57
567.25	2294.97
567.60	2296.24
567.96	2297.98
568.31	2298.74
568.66	2299.91
569.02	2300.32
569.37	2300.57
569.72	2301.28
570.08	2301.54
570.43	2301.73
570.78	2300.99
571.14	2299.55
571.49	2298.32
571.84	2298.08
572.20	2297.00
572.55	2295.92
572.90	2294.33
573.26	2292.85
573.61	2291.16
573.96	2289.46
574.31	2286.37
574.67	2283.52
575.02	2279.99
575.37	2276.65
575.72	2272.72
576.08	2269.37
576.43	2266.19
576.78	2262.51
577.13	2259.39
577.49	2256.35
577.84	2252.70
578.19	2249.03
578.54	2245.41
578.90	2241.08
579.25	2235.46
579.60	2230.32
579.95	2225.37
580.30	2220.42
580.66	2215.48
581.01	2210.56
581.36	2205.57
581.71	2201.40
582.06	2196.86
582.42	2192.30
582.77	2187.03
583.12	2182.59
583.47	2177.79
583.82	2172.78
584.17	2167.60
584.53	2162.13
584.88	2156.49
585.23	2150.81
585.58	2145.33
585.93	2139.89
586.28	2135.23
586.63	2130.31
586.98	2125.34
587.34	2120.64
587.69	2115.83
588.04	2110.41
588.39	2104.84
588.74	2098.30
589.09	2092.17
589.44	2085.45
589.79	2079.51
590.14	2073.92
590.49	2067.39
590.84	2061.12
591.19	2054.98
591.54	2048.51
591.89	2041.16
592.25	2034.21
592.60	2026.96
592.95	2019.42
593.30	2011.95
593.65	2004.27
594.00	1997.09
594.35	1989.75
594.70	1981.77
595.05	1974.36
595.40	1967.13
595.75	1959.53
596.10	1953.43
596.45	1946.55
596.80	1940.34
597.15	1933.69
597.50	1926.52
597.85	1920.01
598.19	1913.16
598.54	1906.00
598.89	1899.36
599.24	1893.57
599.59	1886.97
599.94	1880.76
600.29	1874.40
600.64	1867.82
600.99	1860.39
601.34	1853.64
601.69	1846.86
602.04	1839.87
602.39	1832.55
602.74	1825.65
603.08	1818.91
603.43	1812.26
603.78	1805.04
604.13	1797.88
604.48	1790.58
604.83	1783.74
605.18	1776.75
605.53	1768.82
605.87	1760.85
606.22	1753.71
606.57	1745.68
606.92	1738.37
607.27	1731.10
607.62	1724.15
607.96	1716.89
608.31	1710.25
608.66	1702.56
609.01	1694.90
609.36	1687.37
609.70	1679.45
610.05	1671.37
610.40	1663.79
610.75	1655.25
611.10	1647.54
611.44	1639.11
611.79	1631.12
612.14	1622.49
612.49	1613.30
612.83	1604.93
613.18	1596.83
613.53	1588.67
613.88	1580.05
614.22	1571.75
614.57	1563.24
614.92	1555.21
615.27	1547.68
615.61	1539.34
615.96	1531.24
616.31	1523.64
616.65	1516.28
617.00	1508.73
617.35	1501.11
617.70	1492.63
618.04	1484.19
618.39	1476.02
618.74	1468.44
619.08	1460.08
619.43	1452.52
619.78	1445.71
620.12	1438.51
620.47	1430.88
620.82	1422.64
621.16	1415.49
621.51	1407.90
621.85	1400.27
622.20	1391.69
622.55	1383.39
622.89	1375.49
623.24	1368.01
623.59	1360.62
623.93	1353.04
624.28	1345.70
624.62	1338.06
624.97	1330.93
625.32	1324.15
625.66	1317.17
626.01	1309.99
626.35	1302.50
626.70	1294.72
627.04	1286.96
627.39	1279.15
627.73	1271.85
628.08	1264.90
628.43	1257.36
628.77	1249.95
629.12	1242.38
629.46	1235.32
629.81	1227.91
630.15	1220.75
630.50	1213.28
630.84	1205.04
631.19	1197.17
631.53	1189.71
631.88	1182.28
632.22	1174.68
632.57	1167.42
632.91	1159.82
633.26	1152.34
633.60	1145.17
633.95	1138.08
634.29	1131.14
634.64	1124.49
634.98	1117.08
635.32	1109.95
635.67	1103.42
636.01	1096.78
636.36	1090.00
636.70	1083.45
637.05	1076.81
637.39	1070.35
637.73	1063.83
638.08	1057.99
638.42	1052.04
638.77	1045.59
639.11	1038.88
639.45	1032.45
639.80	1025.77
640.14	1019.36
640.49	1012.86
640.83	1006.41
641.17	1000.08
641.52	993.66
641.86	987.26
642.20	981.47
642.55	975.19
642.89	968.66
643.23	962.20
643.58	956.43
643.92	950.24
644.26	944.17
644.61	938.14
644.95	932.13
645.29	925.47
645.64	918.68
645.98	912.32
646.32	906.63
646.66	900.66
647.01	894.84
647.35	889.11
647.69	883.25
648.04	877.67
648.38	871.93
648.72	865.94
649.06	859.85
649.41	853.97
649.75	848.02
650.09	842.07
650.43	836.21
650.78	830.00
651.12	824.10
651.46	818.44
651.80	812.71
652.14	807.30
652.49	802.02
652.83	796.88
653.17	791.27
653.51	785.47
653.85	780.07
654.20	774.47
654.54	768.48
654.88	762.77
655.22	757.02
655.56	751.35
655.90	745.91
656.25	740.70
656.59	735.35
656.93	730.26
657.27	725.14
657.61	719.81
657.95	714.75
658.29	709.60
658.64	704.34
658.98	699.00
659.32	693.54
659.66	688.29
660.00	682.92
660.34	677.99
660.68	673.11
661.02	668.04
661.36	663.36
661.70	658.93
662.05	654.51
662.39	650.09
662.73	645.67
663.07	641.23
663.41	636.78
663.75	632.30
664.09	627.76
664.43	623.38
664.77	619.18
665.11	614.97
665.45	610.87
665.79	606.80
666.13	602.69
666.47	598.59
666.81	594.45
667.15	590.38
667.49	586.44
667.83	582.66
668.17	578.73
668.51	574.65
668.85	570.59
669.19	566.83
669.53	563.00
669.87	559.03
670.21	555.38
670.55	551.68
670.89	548.29
671.23	544.83
671.57	541.30
671.91	537.75
672.25	534.25
672.58	530.73
672.92	527.30
673.26	524.09
673.60	520.96
673.94	517.84
674.28	514.91
674.62	511.94
674.96	508.80
675.30	505.88
675.64	502.92
675.97	500.17
676.31	497.29
676.65	494.37
676.99	491.69
677.33	488.79
677.67	485.97
678.01	482.91
678.34	479.90
678.68	477.03
679.02	474.18
679.36	471.35
679.70	468.60
680.04	465.80
680.37	462.92
680.71	460.06
681.05	457.44
681.39	454.75
681.73	452.08
682.06	449.51
682.40	446.96
682.74	444.45
683.08	441.89
683.42	439.21
683.75	436.71
684.09	434.14
684.43	431.68
684.77	429.23
685.10	426.84
685.44	424.51
685.78	422.24
686.12	420.03
686.45	417.77
686.79	415.46
687.13	413.34
687.46	411.18
687.80	409.07
688.14	406.86
688.48	404.78
688.81	402.48
689.15	400.36
689.49	398.21
689.82	396.13
690.16	394.07
690.50	392.17
690.83	390.21
691.17	388.28
691.51	386.40
691.84	384.53
692.18	382.55
692.52	380.63
692.85	378.67
693.19	376.82
693.52	375.00
693.86	373.20
694.20	371.35
694.53	369.53
694.87	367.72
695.21	365.99
695.54	364.17
695.88	362.51
696.21	360.81
696.55	359.16
696.88	357.51
697.22	355.81
697.56	354.19
697.89	352.59
698.23	350.96
698.56	349.34
698.90	347.76
699.23	346.18
699.57	344.65
699.90	343.11
700.24	341.58
700.58	340.05
700.91	338.53
701.25	337.13
701.58	335.79
701.92	334.44
702.25	333.02
702.59	331.63
702.92	330.31
703.26	329.00
703.59	327.71
703.93	326.48
704.26	325.27
704.60	323.95
704.93	322.62
705.26	321.40
705.60	320.25
705.93	319.10
706.27	318.05
706.60	316.96
706.94	315.88
707.27	314.74
707.61	313.69
707.94	312.68
708.27	311.55
708.61	310.49
708.94	309.46
709.28	308.48
709.61	307.56
709.94	306.60
710.28	305.61
710.61	304.62
710.95	303.57
711.28	302.68
711.61	301.73
711.95	300.81
712.28	299.85
712.61	298.85
712.95	297.89
713.28	297.00
713.61	296.13
713.95	295.22
714.28	294.33
714.61	293.45
714.95	292.64
715.28	291.77
715.61	290.91
715.95	290.06
716.28	289.21
716.61	288.34
716.95	287.53
717.28	286.79
717.61	286.05
717.94	285.30
718.28	284.50
718.61	283.78
718.94	283.08
719.27	282.41
719.61	281.77
719.94	281.17
720.27	280.47
720.60	279.78
720.94	279.15
721.27	278.58
721.60	277.98
721.93	277.33
722.27	276.81
722.60	276.23
722.93	275.63
723.26	275.10
723.59	274.54
723.93	273.98
724.26	273.39
724.59	272.78
724.92	272.24
725.25	271.69
725.59	271.13
725.92	270.66
726.25	270.18
726.58	269.69
726.91	269.14
727.24	268.64
727.57	268.16
727.91	267.65
728.24	267.20
728.57	266.70
728.90	266.29
729.23	265.82
729.56	265.39
729.89	264.96
730.22	264.48
730.55	264.03
730.89	263.61
731.22	263.17
731.55	262.77
731.88	262.34
732.21	261.90
732.54	261.52
732.87	261.06
733.20	260.67
733.53	260.31
733.86	259.94
734.19	259.54
734.52	259.20
734.85	258.89
735.18	258.49
735.51	258.17
735.84	257.84
736.17	257.48
736.50	257.07
736.83	256.83
737.16	256.51
737.49	256.18
737.82	255.83
738.15	255.50
738.48	255.20
738.81	254.88
739.14	254.60
739.47	254.32
739.80	254.05
740.13	253.72
740.46	253.37
740.79	253.06
741.12	252.79
741.45	252.50
741.78	252.16
742.11	251.89
742.44	251.54
742.77	251.24
743.10	250.95
743.43	250.66
743.75	250.27
744.08	250.11
744.41	249.85
744.74	249.62
745.07	249.33
745.40	249.07
745.73	248.85
746.06	248.59
746.39	248.31
746.71	248.04
747.04	247.78
747.37	247.55
747.70	247.32
748.03	247.06
748.36	246.83
748.68	246.65
749.01	246.40
749.34	246.19
749.67	245.92
750.00	245.72
750.33	245.60
750.65	245.42
750.98	245.09
751.31	244.85
751.64	244.62
751.97	244.50
752.29	244.30
752.62	244.04
752.95	243.85
753.28	243.62
753.60	243.40
753.93	243.23
754.26	243.01
754.59	242.77
754.91	242.59
755.24	242.36
755.57	242.14
755.90	241.93
756.22	241.77
756.55	241.60
756.88	241.35
757.20	241.07
757.53	240.86
757.86	240.70
758.19	240.56
758.51	240.40
758.84	240.18
759.17	239.99
759.49	239.82
759.82	239.67
760.15	239.51
760.47	239.38
760.80	239.20
761.13	239.04
761.45	238.87
761.78	238.69
762.11	238.56
762.43	238.38
762.76	238.22
763.08	238.07
763.41	237.92
763.74	237.77
764.06	237.66
764.39	237.51
764.71	237.35
765.04	237.18
765.37	237.04
765.69	236.88
766.02	236.76
766.34	236.62
766.67	236.46
767.00	236.39
767.32	236.27
767.65	236.21
767.97	236.11
768.30	236.03
768.62	235.93
768.95	235.83
769.27	235.74
769.60	235.66
769.92	235.53
770.25	235.41
770.57	235.35
770.90	235.23
771.22	235.12
771.55	234.99
771.87	234.90
772.20	234.78
772.52	234.76
772.85	234.77
773.17	234.68
773.50	234.61
773.82	234.50
774.15	234.37
774.47	234.19
774.80	234.09
775.12	233.99
775.45	233.91
775.77	233.82
776.09	233.72
776.42	233.64
776.74	233.60
777.07	233.52
777.39	233.46
777.72	233.37
778.04	233.29
778.36	233.26
778.69	233.21
779.01	233.18
779.33	233.03
779.66	232.88
779.98	232.81
780.31	232.73
780.63	232.69
780.95	232.64
781.28	232.60
781.60	232.52
781.92	232.49
782.25	232.43
782.57	232.37
782.89	232.32
783.22	232.25
783.54	232.13
783.86	232.07
784.19	231.99
784.51	231.99
784.83	231.94
785.16	231.88
785.48	231.82
785.80	231.78
786.12	231.74
786.45	231.70
786.77	231.72
787.09	231.68
787.42	231.61
787.74	231.60
788.06	231.60
788.38	231.56
788.71	231.51
789.03	231.46
789.35	231.44
789.67	231.40
789.99	231.40
790.32	231.42
790.64	231.41
790.96	231.44
791.28	231.35
791.61	231.32
791.93	231.30
792.25	231.26
792.57	231.24
792.89	231.18
793.21	231.13
793.54	231.03
793.86	230.97
794.18	230.97
794.50	230.90
794.82	230.85
795.14	230.84
795.47	230.81
795.79	230.77
796.11	230.73
796.43	230.69
796.75	230.60
797.07	230.57
797.39	230.52
797.71	230.40
798.04	230.36
798.36	230.34
798.68	230.29
799.00	230.24
799.32	230.17
799.64	230.17
799.96	230.14
800.28	230.12
800.60	230.06
800.92	230.03
801.24	229.97
801.56	229.94
801.89	229.86
802.21	229.83
802.53	229.78
802.85	229.76
803.17	229.76
803.49	229.71
803.81	229.64
804.13	229.61
804.45	229.60
804.77	229.61
805.09	229.54
805.41	229.53
805.73	229.50
806.05	229.44
806.37	229.38
806.69	229.34
807.01	229.33
807.33	229.33
807.65	229.24
807.97	229.26
808.28	229.21
808.60	229.17
808.92	229.12
809.24	229.16
809.56	229.13
809.88	229.06
810.20	229.04
810.52	229.04
810.84	228.97
811.16	228.92
811.48	228.90
811.80	228.87
812.12	228.80
812.43	228.78
812.75	228.76
813.07	228.74
813.39	228.71
813.71	228.65
814.03	228.64
814.35	228.61
814.67	228.54
814.98	228.51
815.30	228.54
815.62	228.50
815.94	228.41
816.26	228.42
816.58	228.37
816.89	228.36
817.21	228.31
817.53	228.32
817.85	228.31
818.17	228.28
818.48	228.27
818.80	228.31
819.12	228.26
819.44	228.23
819.76	228.19
820.07	228.20
820.39	228.19
820.71	228.15
821.03	228.17
821.34	228.16
821.66	228.13
821.98	228.11
822.30	228.10
822.61	228.15
822.93	228.07
823.25	228.06
823.57	228.02
823.88	228.08
824.20	228.08
824.52	228.05
824.83	228.02
825.15	227.99
825.47	227.97
825.79	228.00
826.10	228.00
826.42	228.00
826.74	227.99
827.05	228.01
827.37	228.01
827.69	227.98
828.00	227.99
828.32	228.00
828.64	227.98
828.95	228.02
829.27	228.00
829.58	228.00
829.90	228.03
830.22	228.03
830.53	227.97
830.85	227.98
831.17	227.98
831.48	227.96
831.80	227.96
832.11	227.95
832.43	227.94
832.75	227.92
833.06	227.98
833.38	227.93
833.69	227.89
834.01	227.87
834.32	227.88
834.64	227.87
834.96	227.87
835.27	227.86
835.59	227.84
835.90	227.78
836.22	227.77
836.53	227.73
836.85	227.74
837.16	227.82
837.48	227.78
837.79	227.82
838.11	227.86
838.42	227.87
838.74	227.88
839.05	227.84
839.37	227.82
839.68	227.77
840.00	227.76
840.31	227.80
840.63	227.81
840.94	227.79
841.26	227.80
841.57	227.80
841.88	227.81
842.20	227.79
842.51	227.78
842.83	227.78
843.14	227.89
843.46	227.85
843.77	227.78
844.08	227.74
844.40	227.71
844.71	227.68
845.03	227.62
845.34	227.58
845.65	227.61
845.97	227.62
846.28	227.64
846.60	227.64
846.91	227.58
847.22	227.57
847.54	227.58
847.85	227.54
848.16	227.50
848.48	227.48
848.79	227.48
849.10	227.50
849.42	227.48
849.73	227.41
850.04	227.40
850.36	227.38
850.67	227.41
850.98	227.37
851.30	227.32
851.61	227.35
851.92	227.36
852.23	227.35
852.55	227.35
852.86	227.31
853.17	227.29
853.49	227.32
853.80	227.30
854.11	227.31
854.42	227.31
854.74	227.32
855.05	227.28
855.36	227.25
855.67	227.24
855.99	227.26
856.30	227.32
856.61	227.29
856.92	227.29
857.23	227.30
857.55	227.28
857.86	227.29
858.17	227.28
858.48	227.27
858.79	227.23
859.11	227.24
859.42	227.19
859.73	227.20
860.04	227.21
860.35	227.19
860.66	227.13
860.98	227.12
861.29	227.09
861.60	227.11
861.91	227.16
862.22	227.13
862.53	227.10
862.84	227.01
863.16	227.04
863.47	227.03
863.78	227.00
864.09	227.03
864.40	227.04
864.71	227.05
865.02	227.07
865.33	227.12
865.64	227.10
865.95	227.13
866.27	227.17
866.58	227.10
866.89	227.12
867.20	227.14
867.51	227.14
867.82	227.15
868.13	227.16
868.44	227.13
868.75	227.16
869.06	227.19
869.37	227.18
869.68	227.18
869.99	227.22
870.30	227.19
870.61	227.19
870.92	227.17
871.23	227.16
871.54	227.17
871.85	227.16
872.16	227.17
872.47	227.17
872.78	227.15
873.09	227.23
873.40	227.22
873.71	227.21
874.02	227.25
874.33	227.25
874.64	227.25
874.95	227.29
875.26	227.28
875.56	227.25
875.87	227.27
876.18	227.27
876.49	227.36
876.80	227.38
877.11	227.40
877.42	227.42
877.73	227.44
878.04	227.42
878.35	227.43
878.66	227.41
878.96	227.40
879.27	227.38
879.58	227.35
879.89	227.32
880.20	227.34
880.51	227.29
880.82	227.32
881.12	227.32
881.43	227.30
881.74	227.29
882.05	227.31
882.36	227.30
882.67	227.29
882.97	227.17
883.28	227.20
883.59	227.17
883.90	227.19
884.21	227.19
884.51	227.16
884.82	227.11
885.13	227.11
885.44	227.11
885.74	227.12
886.05	227.10
886.36	227.10
886.67	227.04
886.98	227.12
887.28	227.07
887.59	227.06
887.90	227.03
888.20	227.00
888.51	227.02
888.82	227.00
889.13	227.01
889.43	227.06
889.74	227.03
890.05	226.99
890.35	226.96
890.66	226.90
890.97	226.88
891.28	226.89
891.58	226.93
891.89	226.91
892.20	226.91
892.50	226.91
892.81	226.92
893.12	226.96
893.42	226.92
893.73	226.91
894.04	226.93
894.34	226.95
894.65	226.93
894.95	226.90
895.26	226.87
895.57	226.92
895.87	226.84
896.18	226.82
896.48	226.85
896.79	226.86
897.10	226.88
897.40	226.89
897.71	226.87
898.01	226.83
898.32	226.83
898.63	226.81
898.93	226.80
899.24	226.78
899.54	226.73
899.85	226.71
900.15	226.71
900.46	226.68
900.76	226.68
901.07	226.69
901.38	226.68
901.68	226.71
901.99	226.64
902.29	226.64
902.60	226.65
902.90	226.63
903.21	226.61
903.51	226.62
903.82	226.65
904.12	226.66
904.43	226.70
904.73	226.70
905.03	226.70
905.34	226.80
905.64	226.79
905.95	226.81
906.25	226.85
906.56	226.86
906.86	226.86
907.17	226.85
907.47	226.86
907.77	226.88
908.08	226.86
908.38	226.85
908.69	226.88
908.99	226.89
909.30	226.92
909.60	226.94
909.90	226.95
910.21	226.92
910.51	226.95
910.81	226.94
911.12	226.98
911.42	226.98
911.73	226.91
912.03	226.94
912.33	226.97
912.64	226.97
912.94	226.98
913.24	226.99
913.55	227.01
913.85	227.04
914.15	227.06
914.46	227.10
914.76	227.13
915.06	227.11
915.37	227.10
915.67	227.06
915.97	227.07
916.27	227.03
916.58	227.01
916.88	227.01
917.18	227.00
917.49	227.08
917.79	227.09
918.09	227.13
918.39	227.17
918.70	227.17
919.00	227.13
919.30	227.17
919.60	227.17
919.91	227.14
920.21	227.14
920.51	227.11
920.81	227.11
921.12	227.14
921.42	227.14
921.72	227.16
922.02	227.21
922.32	227.20
922.63	227.21
922.93	227.28
923.23	227.26
923.53	227.28
923.83	227.17
924.13	227.17
924.44	227.13
924.74	227.11
925.04	227.11
925.34	227.14
925.64	227.06
925.94	227.08
926.24	227.10
926.55	227.05
926.85	227.06
927.15	227.05
927.45	227.03
927.75	227.00
928.05	227.00
928.35	226.99
928.65	227.00
928.95	227.00
929.26	226.97
929.56	226.99
929.86	226.94
930.16	226.93
930.46	226.91
930.76	226.87
931.06	226.84
931.36	226.78
931.66	226.75
931.96	226.77
932.26	226.73
932.56	226.71
932.86	226.75
933.16	226.73
933.46	226.69
933.76	226.66
934.06	226.70
934.36	226.71
934.66	226.69
934.96	226.68
935.26	226.67
935.56	226.69
935.86	226.63
936.16	226.66
936.46	226.64
936.76	226.65
937.06	226.63
937.36	226.61
937.66	226.64
937.96	226.64
938.26	226.60
938.56	226.62
938.86	226.61
939.16	226.58
939.46	226.58
939.76	226.58
940.06	226.56
940.35	226.52
940.65	226.46
940.95	226.46
941.25	226.44
941.55	226.44
941.85	226.40
942.15	226.42
942.45	226.44
942.75	226.43
943.04	226.39
943.34	226.43
943.64	226.46
943.94	226.43
944.24	226.43
944.54	226.45
944.84	226.42
945.13	226.38
945.43	226.38
945.73	226.37
946.03	226.37
946.33	226.38
946.62	226.37
946.92	226.38
947.22	226.37
947.52	226.40
947.82	226.41
948.11	226.41
948.41	226.38
948.71	226.36
949.01	226.38
949.31	226.40
949.60	226.39
949.90	226.44
950.20	226.44
950.50	226.44
950.79	226.44
951.09	226.47
951.39	226.49
951.69	226.50
951.98	226.54
952.28	226.60
952.58	226.55
952.87	226.55
953.17	226.55
953.47	226.58
953.76	226.58
954.06	226.57
954.36	226.55
954.66	226.57
954.95	226.60
955.25	226.61
955.55	226.63
955.84	226.62
956.14	226.60
956.44	226.62
956.73	226.60
957.03	226.62
957.32	226.61
957.62	226.61
957.92	226.62
958.21	226.57
958.51	226.64
958.81	226.71
959.10	226.75
959.40	226.79
959.69	226.79
959.99	226.80
960.29	226.81
960.58	226.83
960.88	226.85
961.17	226.83
961.47	226.84
961.76	226.83
962.06	226.82
962.36	226.81
962.65	226.81
962.95	226.83
963.24	226.84
963.54	226.85
963.83	226.88
964.13	226.88
964.42	226.86
964.72	226.77
965.01	226.74
965.31	226.76
965.60	226.73
965.90	226.78
966.19	226.75
966.49	226.74
966.78	226.71
967.08	226.71
967.37	226.71
967.67	226.70
967.96	226.70
968.26	226.72
968.55	226.72
968.85	226.72
969.14	226.74
969.43	226.72
969.73	226.69
970.02	226.64
970.32	226.61
970.61	226.63
970.91	226.62
971.20	226.59
971.49	226.56
971.79	226.52
972.08	226.47
972.38	226.47
972.67	226.48
972.96	226.52
973.26	226.52
973.55	226.54
973.85	226.50
974.14	226.48
974.43	226.47
974.73	226.43
975.02	226.41
975.31	226.40
975.61	226.39
975.90	226.37
976.19	226.37
976.49	226.41
976.78	226.42
977.07	226.41
977.37	226.44
977.66	226.43
977.95	226.43
978.24	226.45
978.54	226.47
978.83	226.45
979.12	226.44
979.42	226.44
979.71	226.42
980.00	226.43
980.29	226.44
980.59	226.42
980.88	226.46
981.17	226.47
981.46	226.47
981.76	226.44
982.05	226.51
982.34	226.55
982.63	226.53
982.93	226.55
983.22	226.59
983.51	226.58
983.80	226.61
984.09	226.65
984.39	226.63
984.68	226.62
984.97	226.63
985.26	226.60
985.55	226.59
985.85	226.59
986.14	226.64
986.43	226.66
986.72	226.66
987.01	226.63
987.30	226.64
987.59	226.64
987.89	226.69
988.18	226.68
988.47	226.65
988.76	226.65
989.05	226.63
989.34	226.61
989.63	226.64
989.92	226.62
990.22	226.60
990.51	226.58
990.80	226.56
991.09	226.60
991.38	226.64
991.67	226.64
991.96	226.62
992.25	226.59
992.54	226.56
992.83	226.61
993.12	226.63
993.41	226.65
993.70	226.70
993.99	226.71
994.28	226.73
994.58	226.76
994.87	226.76
995.16	226.74
995.45	226.73
995.74	226.74
996.03	226.76
996.32	226.79
996.61	226.83
996.90	226.84
997.19	226.84
997.48	226.81
997.77	226.78
998.06	226.78
998.34	226.79
998.63	226.81
998.92	226.81
999.21	226.82
999.50	226.81
999.79	226.74
1000.08	226.72
1000.37	226.72
1000.66	226.71
1000.95	226.75
1001.24	226.80
1001.53	226.80
1001.82	226.76
1002.11	226.74
1002.40	226.77
1002.68	226.77
1002.97	226.83
1003.26	226.81
1003.55	226.80
1003.84	226.83
1004.13	226.87
1004.42	226.89
1004.71	226.88
1004.99	226.82
1005.28	226.82
1005.57	226.80
1005.86	226.82
1006.15	226.83
1006.44	226.77
1006.72	226.75
1007.01	226.72
1007.30	226.69
1007.59	226.69
1007.88	226.67
1008.17	226.68
1008.45	226.64
1008.74	226.61
1009.03	226.52
1009.32	226.54
1009.60	226.55
1009.89	226.53
1010.18	226.51
1010.47	226.46
1010.76	226.43
1011.04	226.46
1011.33	226.48
1011.62	226.50
1011.91	226.48
1012.19	226.47
1012.48	226.49
1012.77	226.49
1013.05	226.53
1013.34	226.52
1013.63	226.55
1013.92	226.57
1014.20	226.54
1014.49	226.53
1014.78	226.54
1015.06	226.52
1015.35	226.47
1015.64	226.46
1015.92	226.47
1016.21	226.47
1016.50	226.48
1016.78	226.50
1017.07	226.51
1017.36	226.47
1017.64	226.46
1017.93	226.47
1018.22	226.48
1018.50	226.47
1018.79	226.47
1019.08	226.43
1019.36	226.45
1019.65	226.42
1019.93	226.43
1020.22	226.46
1020.51	226.53
1020.79	226.53
1021.08	226.70
1021.36	226.15
1021.65	226.73
1021.94	226.62
1022.22	226.60
1022.51	226.32
1022.79	226.69
1023.08	226.87
1023.36	227.86
1023.65	226.44
>>>>>End Processed Spectral Data<<<<<
