SpectraSuite Data File
++++++++++++++++++++++++++++++++++++
Date: Fri Feb 01 17:14:14 EST 2013
User: group
Dark Spectrum Present: No
Reference Spectrum Present: No
Number of Sampled Component Spectra: 1
Spectrometers: USB2E7196
Integration Time (usec): 35000 (USB2E7196)
Spectra Averaged: 100 (USB2E7196)
Boxcar Smoothing: 10 (USB2E7196)
Correct for Electrical Dark: No (USB2E7196)
Strobe/Lamp Enabled: No (USB2E7196)
Correct for Detector Non-linearity: No (USB2E7196)
Correct for Stray Light: No (USB2E7196)
Number of Pixels in Processed Spectrum: 2048
>>>>>Begin Processed Spectral Data<<<<<
339.09	0.00
339.48	213.09
339.86	214.61
340.24	215.77
340.63	217.70
341.01	220.37
341.39	220.36
341.78	221.32
342.16	222.38
342.54	223.47
342.93	211.65
343.31	222.36
343.69	222.92
344.07	223.37
344.46	223.81
344.84	224.18
345.22	224.41
345.60	224.66
345.99	224.84
346.37	224.98
346.75	225.05
347.13	225.17
347.52	225.22
347.90	225.29
348.28	225.33
348.66	225.35
349.05	225.32
349.43	225.36
349.81	225.41
350.19	225.44
350.57	225.47
350.96	225.56
351.34	225.65
351.72	225.72
352.10	225.86
352.48	225.93
352.87	225.99
353.25	226.06
353.63	226.11
354.01	226.17
354.39	226.26
354.77	226.36
355.15	226.42
355.54	226.49
355.92	226.53
356.30	226.58
356.68	226.76
357.06	226.88
357.44	226.92
357.82	226.96
358.20	227.04
358.58	227.12
358.97	227.14
359.35	227.17
359.73	227.22
360.11	227.23
360.49	227.30
360.87	227.33
361.25	227.38
361.63	227.45
362.01	227.52
362.39	227.54
362.77	227.57
363.15	227.61
363.53	227.62
363.91	227.63
364.29	227.68
364.67	227.57
365.05	227.57
365.43	227.61
365.81	227.64
366.19	227.68
366.57	227.70
366.95	227.72
367.33	227.70
367.71	227.71
368.09	227.71
368.47	227.66
368.85	227.66
369.23	227.67
369.61	227.61
369.99	227.59
370.37	227.59
370.75	227.61
371.13	227.53
371.51	227.48
371.89	227.46
372.27	227.39
372.65	227.39
373.03	227.34
373.41	227.26
373.78	227.17
374.16	227.07
374.54	227.00
374.92	226.92
375.30	226.89
375.68	226.79
376.06	226.72
376.44	226.65
376.82	226.57
377.19	226.47
377.57	226.41
377.95	226.33
378.33	226.26
378.71	226.12
379.09	226.08
379.47	226.05
379.84	225.95
380.22	225.89
380.60	225.79
380.98	225.72
381.36	225.65
381.73	225.60
382.11	225.55
382.49	225.48
382.87	225.41
383.25	225.35
383.62	225.41
384.00	225.35
384.38	225.32
384.76	225.31
385.13	225.32
385.51	225.26
385.89	225.19
386.27	225.11
386.64	225.11
387.02	225.06
387.40	224.99
387.78	224.96
388.15	224.96
388.53	224.96
388.91	224.94
389.29	224.94
389.66	224.94
390.04	224.91
390.42	224.90
390.79	224.91
391.17	224.90
391.55	224.78
391.92	224.79
392.30	224.77
392.68	224.75
393.05	224.74
393.43	224.75
393.81	224.77
394.18	224.78
394.56	224.79
394.94	224.80
395.31	224.82
395.69	224.87
396.06	224.88
396.44	224.91
396.82	224.92
397.19	225.00
397.57	224.99
397.95	225.08
398.32	225.09
398.70	225.13
399.07	225.18
399.45	225.24
399.82	225.27
400.20	225.34
400.58	225.41
400.95	225.43
401.33	225.48
401.70	225.63
402.08	225.70
402.45	225.78
402.83	225.92
403.20	226.01
403.58	226.08
403.95	226.22
404.33	226.32
404.71	226.46
405.08	226.62
405.46	226.75
405.83	226.87
406.21	227.02
406.58	227.20
406.96	227.35
407.33	227.51
407.70	227.72
408.08	227.99
408.45	228.20
408.83	228.45
409.20	228.65
409.58	228.83
409.95	229.12
410.33	229.37
410.70	229.59
411.08	229.88
411.45	230.19
411.82	230.48
412.20	230.80
412.57	231.21
412.95	231.50
413.32	231.92
413.69	232.34
414.07	232.80
414.44	233.26
414.82	233.77
415.19	234.36
415.56	234.89
415.94	235.46
416.31	236.07
416.68	236.73
417.06	237.50
417.43	238.17
417.81	238.95
418.18	239.73
418.55	240.61
418.93	241.50
419.30	242.40
419.67	243.36
420.04	244.34
420.42	245.31
420.79	246.53
421.16	247.71
421.54	248.91
421.91	250.13
422.28	251.42
422.66	252.75
423.03	254.06
423.40	255.41
423.77	256.80
424.15	258.27
424.52	259.75
424.89	261.38
425.26	262.95
425.64	264.40
426.01	266.08
426.38	267.75
426.75	269.45
427.13	271.25
427.50	273.12
427.87	275.06
428.24	276.96
428.61	278.75
428.99	280.71
429.36	282.87
429.73	284.94
430.10	287.00
430.47	289.11
430.85	291.26
431.22	293.55
431.59	295.94
431.96	298.20
432.33	300.73
432.70	303.16
433.08	306.06
433.45	308.78
433.82	311.37
434.19	314.30
434.56	317.19
434.93	319.89
435.30	322.50
435.68	325.43
436.05	328.33
436.42	331.17
436.79	333.73
437.16	336.43
437.53	339.36
437.90	342.21
438.27	345.02
438.64	347.86
439.01	350.52
439.38	352.83
439.75	355.10
440.13	357.65
440.50	360.02
440.87	361.93
441.24	363.92
441.61	366.19
441.98	367.74
442.35	369.59
442.72	371.50
443.09	373.37
443.46	374.39
443.83	375.03
444.20	375.53
444.57	376.42
444.94	376.75
445.31	377.10
445.68	377.43
446.05	377.53
446.42	377.22
446.79	376.81
447.16	376.39
447.53	376.08
447.90	374.92
448.27	373.77
448.64	372.18
449.01	371.02
449.37	369.02
449.74	367.09
450.11	364.81
450.48	362.31
450.85	359.78
451.22	357.60
451.59	355.48
451.96	353.58
452.33	350.92
452.70	348.56
453.07	345.67
453.43	342.75
453.80	339.92
454.17	337.18
454.54	334.59
454.91	331.83
455.28	329.08
455.65	326.53
456.02	324.01
456.38	321.79
456.75	319.07
457.12	316.76
457.49	314.52
457.86	312.30
458.23	310.43
458.59	308.32
458.96	306.19
459.33	304.34
459.70	302.38
460.07	300.86
460.43	299.10
460.80	297.46
461.17	296.02
461.54	294.50
461.91	293.05
462.27	291.60
462.64	290.32
463.01	288.98
463.38	287.67
463.74	286.29
464.11	285.12
464.48	284.06
464.85	282.94
465.21	282.02
465.58	281.09
465.95	279.96
466.32	279.08
466.68	278.20
467.05	277.29
467.42	276.44
467.78	275.46
468.15	274.59
468.52	273.91
468.88	273.05
469.25	272.25
469.62	271.66
469.98	270.98
470.35	270.34
470.72	269.74
471.08	269.09
471.45	268.54
471.82	268.00
472.18	267.43
472.55	266.99
472.92	266.49
473.28	266.02
473.65	265.57
474.02	265.11
474.38	264.72
474.75	264.40
475.11	264.03
475.48	263.80
475.85	263.55
476.21	263.32
476.58	263.13
476.94	263.02
477.31	262.87
477.67	262.71
478.04	262.57
478.41	262.47
478.77	262.51
479.14	262.46
479.50	262.44
479.87	262.48
480.23	262.57
480.60	262.65
480.96	262.74
481.33	262.92
481.69	263.10
482.06	263.28
482.42	263.46
482.79	263.70
483.15	264.01
483.52	264.41
483.88	264.73
484.25	265.07
484.61	265.43
484.98	265.85
485.34	266.36
485.71	266.93
486.07	267.53
486.44	268.10
486.80	268.76
487.17	269.49
487.53	270.31
487.90	271.13
488.26	272.03
488.62	273.02
488.99	274.02
489.35	275.04
489.72	276.14
490.08	277.33
490.44	278.55
490.81	279.85
491.17	281.13
491.54	282.62
491.90	284.17
492.26	285.84
492.63	287.53
492.99	289.31
493.36	291.23
493.72	293.26
494.08	295.37
494.45	297.60
494.81	299.99
495.17	302.41
495.54	304.99
495.90	307.64
496.26	310.45
496.63	313.36
496.99	316.45
497.35	319.74
497.72	323.14
498.08	326.66
498.44	330.33
498.80	334.22
499.17	338.26
499.53	342.46
499.89	346.81
500.26	351.29
500.62	355.98
500.98	360.92
501.34	366.00
501.71	371.30
502.07	376.76
502.43	382.29
502.79	388.09
503.16	394.10
503.52	400.36
503.88	406.73
504.24	413.35
504.60	420.22
504.97	427.29
505.33	434.59
505.69	442.31
506.05	450.08
506.41	457.89
506.78	465.92
507.14	474.25
507.50	482.82
507.86	491.78
508.22	500.90
508.59	510.02
508.95	519.50
509.31	529.20
509.67	539.17
510.03	549.40
510.39	559.80
510.75	570.44
511.12	581.16
511.48	592.23
511.84	603.59
512.20	615.00
512.56	626.76
512.92	638.72
513.28	650.85
513.64	663.11
514.00	675.68
514.37	688.49
514.73	701.35
515.09	714.28
515.45	727.38
515.81	740.77
516.17	754.60
516.53	768.53
516.89	782.53
517.25	796.45
517.61	810.56
517.97	824.83
518.33	839.02
518.69	853.63
519.05	868.37
519.41	883.19
519.77	898.42
520.13	913.58
520.49	928.81
520.85	943.84
521.21	959.20
521.57	975.07
521.93	990.54
522.29	1006.58
522.65	1022.57
523.01	1038.43
523.37	1054.16
523.73	1069.95
524.09	1085.66
524.45	1101.60
524.81	1117.94
525.17	1134.37
525.53	1150.76
525.89	1167.43
526.25	1183.91
526.61	1200.06
526.97	1216.47
527.33	1232.64
527.68	1248.86
528.04	1264.89
528.40	1281.20
528.76	1298.01
529.12	1314.34
529.48	1330.97
529.84	1346.73
530.20	1362.90
530.56	1379.58
530.91	1396.59
531.27	1413.12
531.63	1429.35
531.99	1445.54
532.35	1461.27
532.71	1476.97
533.07	1493.01
533.42	1508.56
533.78	1524.45
534.14	1540.36
534.50	1555.54
534.86	1571.05
535.21	1585.94
535.57	1601.62
535.93	1616.84
536.29	1631.36
536.65	1646.14
537.00	1660.46
537.36	1675.52
537.72	1689.84
538.08	1704.11
538.44	1717.54
538.79	1731.09
539.15	1744.36
539.51	1757.72
539.87	1771.72
540.22	1785.09
540.58	1798.53
540.94	1811.44
541.29	1823.71
541.65	1836.21
542.01	1849.00
542.37	1861.24
542.72	1873.64
543.08	1885.38
543.44	1897.54
543.79	1908.66
544.15	1919.48
544.51	1931.13
544.87	1941.91
545.22	1952.70
545.58	1962.89
545.94	1972.84
546.29	1982.76
546.65	1992.81
547.01	2002.30
547.36	2011.21
547.72	2019.91
548.07	2028.10
548.43	2036.38
548.79	2044.56
549.14	2052.22
549.50	2059.61
549.86	2067.14
550.21	2074.55
550.57	2081.85
550.92	2088.73
551.28	2095.95
551.64	2103.22
551.99	2109.82
552.35	2116.28
552.70	2122.48
553.06	2128.50
553.41	2134.89
553.77	2140.91
554.13	2147.08
554.48	2153.32
554.84	2159.08
555.19	2164.34
555.55	2169.66
555.90	2174.61
556.26	2179.95
556.61	2184.88
556.97	2189.75
557.32	2194.28
557.68	2198.65
558.03	2202.97
558.39	2206.81
558.74	2211.62
559.10	2215.64
559.45	2219.42
559.81	2223.86
560.16	2228.00
560.52	2231.55
560.87	2235.21
561.23	2238.27
561.58	2241.21
561.94	2244.11
562.29	2246.41
562.64	2249.55
563.00	2252.28
563.35	2255.83
563.71	2259.23
564.06	2262.42
564.42	2265.54
564.77	2268.61
565.12	2271.28
565.48	2273.68
565.83	2275.88
566.19	2277.51
566.54	2278.75
566.89	2280.45
567.25	2281.37
567.60	2282.82
567.96	2284.88
568.31	2286.07
568.66	2287.30
569.02	2288.38
569.37	2289.10
569.72	2290.43
570.08	2291.06
570.43	2291.31
570.78	2291.13
571.14	2289.91
571.49	2288.91
571.84	2288.55
572.20	2287.45
572.55	2286.59
572.90	2284.98
573.26	2283.87
573.61	2282.33
573.96	2281.03
574.31	2278.27
574.67	2275.51
575.02	2272.08
575.37	2268.75
575.72	2265.27
576.08	2262.18
576.43	2258.91
576.78	2255.48
577.13	2252.40
577.49	2249.19
577.84	2246.23
578.19	2242.56
578.54	2239.28
578.90	2235.55
579.25	2230.39
579.60	2225.71
579.95	2221.07
580.30	2216.36
580.66	2211.44
581.01	2206.56
581.36	2201.77
581.71	2197.86
582.06	2193.75
582.42	2189.88
582.77	2184.97
583.12	2180.74
583.47	2176.54
583.82	2172.06
584.17	2167.05
584.53	2161.85
584.88	2156.43
585.23	2150.81
585.58	2145.51
585.93	2140.02
586.28	2135.04
586.63	2130.35
586.98	2125.30
587.34	2120.65
587.69	2116.03
588.04	2111.07
588.39	2105.83
588.74	2099.52
589.09	2093.38
589.44	2086.76
589.79	2080.52
590.14	2074.96
590.49	2068.43
590.84	2061.81
591.19	2055.84
591.54	2049.38
591.89	2042.30
592.25	2035.97
592.60	2028.86
592.95	2021.55
593.30	2014.48
593.65	2007.24
594.00	2000.19
594.35	1993.22
594.70	1985.12
595.05	1978.22
595.40	1970.96
595.75	1963.67
596.10	1957.74
596.45	1951.34
596.80	1945.23
597.15	1938.85
597.50	1932.36
597.85	1926.01
598.19	1919.68
598.54	1912.97
598.89	1906.52
599.24	1900.70
599.59	1894.23
599.94	1888.05
600.29	1881.90
600.64	1875.42
600.99	1868.15
601.34	1861.52
601.69	1854.42
602.04	1847.76
602.39	1840.34
602.74	1833.53
603.08	1826.90
603.43	1820.02
603.78	1812.62
604.13	1805.49
604.48	1798.48
604.83	1791.39
605.18	1784.54
605.53	1776.62
605.87	1768.39
606.22	1761.02
606.57	1752.97
606.92	1745.18
607.27	1738.11
607.62	1731.30
607.96	1724.00
608.31	1717.63
608.66	1710.03
609.01	1702.72
609.36	1695.38
609.70	1687.48
610.05	1679.46
610.40	1671.70
610.75	1663.50
611.10	1655.82
611.44	1647.35
611.79	1639.20
612.14	1630.49
612.49	1621.34
612.83	1612.89
613.18	1604.67
613.53	1596.64
613.88	1588.09
614.22	1580.03
614.57	1571.35
614.92	1563.16
615.27	1555.74
615.61	1547.31
615.96	1539.25
616.31	1531.52
616.65	1524.00
617.00	1516.32
617.35	1508.60
617.70	1500.29
618.04	1491.82
618.39	1483.46
618.74	1475.99
619.08	1467.65
619.43	1460.00
619.78	1452.92
620.12	1445.83
620.47	1438.42
620.82	1430.13
621.16	1422.59
621.51	1414.90
621.85	1407.28
622.20	1398.81
622.55	1390.22
622.89	1382.29
623.24	1374.54
623.59	1367.01
623.93	1359.40
624.28	1352.06
624.62	1344.56
624.97	1337.27
625.32	1330.12
625.66	1323.12
626.01	1315.81
626.35	1308.44
626.70	1300.71
627.04	1292.92
627.39	1285.03
627.73	1277.52
628.08	1270.59
628.43	1263.41
628.77	1255.99
629.12	1248.37
629.46	1241.13
629.81	1233.50
630.15	1226.10
630.50	1218.69
630.84	1210.57
631.19	1202.53
631.53	1194.96
631.88	1187.35
632.22	1179.64
632.57	1172.44
632.91	1164.87
633.26	1157.49
633.60	1149.88
633.95	1142.51
634.29	1135.43
634.64	1128.66
634.98	1121.33
635.32	1114.21
635.67	1107.40
636.01	1100.72
636.36	1093.85
636.70	1087.21
637.05	1080.68
637.39	1074.35
637.73	1067.84
638.08	1061.93
638.42	1055.94
638.77	1049.56
639.11	1042.99
639.45	1036.64
639.80	1029.90
640.14	1023.49
640.49	1016.92
640.83	1010.63
641.17	1004.52
641.52	998.18
641.86	991.57
642.20	985.60
642.55	979.17
642.89	972.81
643.23	966.07
643.58	960.28
643.92	954.15
644.26	948.25
644.61	942.03
644.95	935.99
645.29	929.34
645.64	922.60
645.98	916.13
646.32	909.96
646.66	903.90
647.01	898.07
647.35	892.35
647.69	886.37
648.04	880.73
648.38	874.86
648.72	868.93
649.06	863.05
649.41	857.04
649.75	851.12
650.09	845.20
650.43	839.56
650.78	833.39
651.12	827.35
651.46	821.47
651.80	815.83
652.14	810.30
652.49	804.91
652.83	799.64
653.17	794.13
653.51	788.67
653.85	783.18
654.20	777.60
654.54	771.67
654.88	765.89
655.22	760.04
655.56	754.39
655.90	748.80
656.25	743.49
656.59	738.22
656.93	733.04
657.27	727.83
657.61	722.32
657.95	717.18
658.29	712.07
658.64	706.78
658.98	701.33
659.32	695.84
659.66	690.66
660.00	685.43
660.34	680.39
660.68	675.34
661.02	670.32
661.36	665.62
661.70	661.01
662.05	656.66
662.39	652.34
662.73	647.81
663.07	643.44
663.41	638.92
663.75	634.39
664.09	629.91
664.43	625.50
664.77	621.42
665.11	617.17
665.45	612.94
665.79	608.88
666.13	604.81
666.47	600.71
666.81	596.50
667.15	592.34
667.49	588.38
667.83	584.50
668.17	580.50
668.51	576.41
668.85	572.38
669.19	568.40
669.53	564.56
669.87	560.75
670.21	557.04
670.55	553.38
670.89	549.96
671.23	546.46
671.57	542.89
671.91	539.32
672.25	535.77
672.58	532.28
672.92	528.83
673.26	525.61
673.60	522.42
673.94	519.34
674.28	516.37
674.62	513.43
674.96	510.41
675.30	507.50
675.64	504.57
675.97	501.77
676.31	498.94
676.65	496.00
676.99	493.24
677.33	490.38
677.67	487.53
678.01	484.49
678.34	481.56
678.68	478.66
679.02	475.84
679.36	473.07
679.70	470.33
680.04	467.60
680.37	464.73
680.71	461.93
681.05	459.19
681.39	456.45
681.73	453.74
682.06	451.08
682.40	448.55
682.74	445.97
683.08	443.32
683.42	440.76
683.75	438.23
684.09	435.61
684.43	433.09
684.77	430.60
685.10	428.21
685.44	425.86
685.78	423.57
686.12	421.28
686.45	418.93
686.79	416.62
687.13	414.40
687.46	412.19
687.80	410.01
688.14	407.82
688.48	405.74
688.81	403.55
689.15	401.43
689.49	399.21
689.82	397.10
690.16	394.98
690.50	392.93
690.83	390.92
691.17	388.87
691.51	386.93
691.84	385.06
692.18	383.13
692.52	381.13
692.85	379.11
693.19	377.22
693.52	375.40
693.86	373.55
694.20	371.73
694.53	369.95
694.87	368.08
695.21	366.25
695.54	364.41
695.88	362.61
696.21	360.88
696.55	359.24
696.88	357.56
697.22	355.94
697.56	354.32
697.89	352.68
698.23	351.16
698.56	349.57
698.90	347.99
699.23	346.35
699.57	344.79
699.90	343.27
700.24	341.67
700.58	340.13
700.91	338.66
701.25	337.21
701.58	335.79
701.92	334.44
702.25	333.10
702.59	331.71
702.92	330.38
703.26	329.09
703.59	327.76
703.93	326.52
704.26	325.24
704.60	323.94
704.93	322.67
705.26	321.37
705.60	320.15
705.93	318.95
706.27	317.89
706.60	316.86
706.94	315.79
707.27	314.65
707.61	313.60
707.94	312.57
708.27	311.44
708.61	310.37
708.94	309.32
709.28	308.30
709.61	307.29
709.94	306.32
710.28	305.30
710.61	304.30
710.95	303.21
711.28	302.30
711.61	301.37
711.95	300.47
712.28	299.54
712.61	298.59
712.95	297.68
713.28	296.75
713.61	295.80
713.95	294.91
714.28	294.08
714.61	293.19
714.95	292.31
715.28	291.49
715.61	290.66
715.95	289.85
716.28	289.00
716.61	288.21
716.95	287.40
717.28	286.62
717.61	285.85
717.94	285.18
718.28	284.34
718.61	283.58
718.94	282.87
719.27	282.23
719.61	281.60
719.94	280.96
720.27	280.24
720.60	279.58
720.94	278.94
721.27	278.36
721.60	277.76
721.93	277.15
722.27	276.56
722.60	275.93
722.93	275.31
723.26	274.77
723.59	274.19
723.93	273.64
724.26	273.09
724.59	272.51
724.92	271.93
725.25	271.46
725.59	270.98
725.92	270.45
726.25	269.90
726.58	269.34
726.91	268.82
727.24	268.33
727.57	267.85
727.91	267.32
728.24	266.84
728.57	266.35
728.90	265.89
729.23	265.39
729.56	265.00
729.89	264.51
730.22	264.04
730.55	263.57
730.89	263.05
731.22	262.57
731.55	262.11
731.88	261.68
732.21	261.24
732.54	260.78
732.87	260.36
733.20	259.95
733.53	259.54
733.86	259.12
734.19	258.71
734.52	258.32
734.85	258.01
735.18	257.56
735.51	257.14
735.84	256.74
736.17	256.39
736.50	255.93
736.83	255.71
737.16	255.35
737.49	254.98
737.82	254.68
738.15	254.38
738.48	254.03
738.81	253.70
739.14	253.34
739.47	253.02
739.80	252.64
740.13	252.31
740.46	251.97
740.79	251.62
741.12	251.33
741.45	251.01
741.78	250.63
742.11	250.38
742.44	250.10
742.77	249.78
743.10	249.43
743.43	249.15
743.75	248.75
744.08	248.63
744.41	248.36
744.74	248.07
745.07	247.77
745.40	247.51
745.73	247.29
746.06	247.00
746.39	246.72
746.71	246.49
747.04	246.22
747.37	245.97
747.70	245.75
748.03	245.52
748.36	245.30
748.68	245.09
749.01	244.78
749.34	244.55
749.67	244.36
750.00	244.17
750.33	244.03
750.65	243.81
750.98	243.44
751.31	243.24
751.64	243.03
751.97	242.86
752.29	242.68
752.62	242.41
752.95	242.21
753.28	242.01
753.60	241.80
753.93	241.63
754.26	241.44
754.59	241.21
754.91	240.98
755.24	240.76
755.57	240.55
755.90	240.40
756.22	240.19
756.55	240.00
756.88	239.78
757.20	239.53
757.53	239.35
757.86	239.19
758.19	239.02
758.51	238.85
758.84	238.63
759.17	238.45
759.49	238.25
759.82	238.13
760.15	237.96
760.47	237.80
760.80	237.61
761.13	237.50
761.45	237.31
761.78	237.17
762.11	237.03
762.43	236.86
762.76	236.70
763.08	236.59
763.41	236.44
763.74	236.33
764.06	236.18
764.39	236.03
764.71	235.86
765.04	235.71
765.37	235.61
765.69	235.46
766.02	235.31
766.34	235.20
766.67	235.07
767.00	234.97
767.32	234.92
767.65	234.88
767.97	234.74
768.30	234.65
768.62	234.55
768.95	234.41
769.27	234.32
769.60	234.22
769.92	234.09
770.25	233.92
770.57	233.82
770.90	233.72
771.22	233.62
771.55	233.52
771.87	233.39
772.20	233.24
772.52	233.23
772.85	233.25
773.17	233.19
773.50	233.06
773.82	232.93
774.15	232.78
774.47	232.63
774.80	232.53
775.12	232.47
775.45	232.34
775.77	232.28
776.09	232.19
776.42	232.09
776.74	232.04
777.07	231.98
777.39	231.89
777.72	231.77
778.04	231.68
778.36	231.58
778.69	231.53
779.01	231.45
779.33	231.34
779.66	231.15
779.98	231.05
780.31	230.98
780.63	230.94
780.95	230.87
781.28	230.78
781.60	230.70
781.92	230.64
782.25	230.58
782.57	230.49
782.89	230.41
783.22	230.35
783.54	230.27
783.86	230.24
784.19	230.17
784.51	230.18
784.83	230.11
785.16	230.08
785.48	230.02
785.80	229.97
786.12	229.89
786.45	229.88
786.77	229.83
787.09	229.82
787.42	229.76
787.74	229.73
788.06	229.67
788.38	229.62
788.71	229.59
789.03	229.54
789.35	229.56
789.67	229.51
789.99	229.48
790.32	229.43
790.64	229.39
790.96	229.43
791.28	229.35
791.61	229.30
791.93	229.28
792.25	229.27
792.57	229.33
792.89	229.25
793.21	229.19
793.54	229.14
793.86	229.08
794.18	229.06
794.50	229.01
794.82	228.99
795.14	228.99
795.47	228.92
795.79	228.89
796.11	228.79
796.43	228.77
796.75	228.74
797.07	228.68
797.39	228.63
797.71	228.52
798.04	228.47
798.36	228.43
798.68	228.41
799.00	228.37
799.32	228.31
799.64	228.37
799.96	228.35
800.28	228.36
800.60	228.35
800.92	228.28
801.24	228.26
801.56	228.25
801.89	228.22
802.21	228.20
802.53	228.14
802.85	228.15
803.17	228.14
803.49	228.08
803.81	228.05
804.13	228.01
804.45	228.00
804.77	228.00
805.09	228.02
805.41	227.94
805.73	227.90
806.05	227.83
806.37	227.75
806.69	227.70
807.01	227.69
807.33	227.63
807.65	227.62
807.97	227.64
808.28	227.60
808.60	227.59
808.92	227.56
809.24	227.63
809.56	227.58
809.88	227.53
810.20	227.52
810.52	227.55
810.84	227.54
811.16	227.50
811.48	227.49
811.80	227.46
812.12	227.45
812.43	227.46
812.75	227.41
813.07	227.39
813.39	227.40
813.71	227.35
814.03	227.32
814.35	227.30
814.67	227.23
814.98	227.19
815.30	227.14
815.62	227.13
815.94	227.07
816.26	227.09
816.58	227.08
816.89	227.06
817.21	226.99
817.53	226.98
817.85	226.95
818.17	226.89
818.48	226.87
818.80	226.88
819.12	226.82
819.44	226.82
819.76	226.79
820.07	226.74
820.39	226.70
820.71	226.69
821.03	226.67
821.34	226.68
821.66	226.70
821.98	226.71
822.30	226.68
822.61	226.71
822.93	226.63
823.25	226.61
823.57	226.59
823.88	226.62
824.20	226.60
824.52	226.64
824.83	226.63
825.15	226.57
825.47	226.54
825.79	226.54
826.10	226.54
826.42	226.51
826.74	226.53
827.05	226.54
827.37	226.51
827.69	226.53
828.00	226.49
828.32	226.46
828.64	226.42
828.95	226.44
829.27	226.39
829.58	226.40
829.90	226.40
830.22	226.41
830.53	226.37
830.85	226.34
831.17	226.30
831.48	226.34
831.80	226.36
832.11	226.37
832.43	226.32
832.75	226.30
833.06	226.36
833.38	226.29
833.69	226.25
834.01	226.24
834.32	226.22
834.64	226.20
834.96	226.21
835.27	226.22
835.59	226.16
835.90	226.13
836.22	226.11
836.53	226.06
836.85	226.04
837.16	226.13
837.48	226.14
837.79	226.13
838.11	226.08
838.42	226.06
838.74	226.06
839.05	226.09
839.37	226.09
839.68	226.06
840.00	226.09
840.31	226.13
840.63	226.14
840.94	226.11
841.26	226.06
841.57	226.05
841.88	226.03
842.20	226.03
842.51	225.99
842.83	225.97
843.14	226.10
843.46	226.08
843.77	226.00
844.08	225.98
844.40	225.95
844.71	225.94
845.03	225.95
845.34	225.95
845.65	225.94
845.97	225.94
846.28	225.93
846.60	225.89
846.91	225.87
847.22	225.88
847.54	225.88
847.85	225.93
848.16	225.91
848.48	225.91
848.79	225.95
849.10	226.01
849.42	226.03
849.73	225.91
850.04	225.92
850.36	225.91
850.67	225.93
850.98	225.93
851.30	225.95
851.61	225.95
851.92	225.94
852.23	225.96
852.55	225.95
852.86	225.94
853.17	225.96
853.49	225.99
853.80	226.01
854.11	226.04
854.42	226.05
854.74	226.03
855.05	226.02
855.36	225.97
855.67	225.97
855.99	225.97
856.30	226.10
856.61	226.09
856.92	226.08
857.23	226.09
857.55	226.09
857.86	226.07
858.17	226.08
858.48	226.05
858.79	226.00
859.11	226.00
859.42	226.00
859.73	226.00
860.04	225.98
860.35	225.94
860.66	225.86
860.98	225.84
861.29	225.88
861.60	225.88
861.91	225.91
862.22	225.89
862.53	225.88
862.84	225.75
863.16	225.79
863.47	225.75
863.78	225.76
864.09	225.76
864.40	225.75
864.71	225.74
865.02	225.74
865.33	225.76
865.64	225.73
865.95	225.71
866.27	225.76
866.58	225.72
866.89	225.74
867.20	225.75
867.51	225.75
867.82	225.71
868.13	225.70
868.44	225.66
868.75	225.66
869.06	225.65
869.37	225.68
869.68	225.62
869.99	225.67
870.30	225.67
870.61	225.66
870.92	225.63
871.23	225.61
871.54	225.59
871.85	225.61
872.16	225.61
872.47	225.63
872.78	225.57
873.09	225.59
873.40	225.56
873.71	225.60
874.02	225.59
874.33	225.59
874.64	225.57
874.95	225.57
875.26	225.58
875.56	225.57
875.87	225.52
876.18	225.51
876.49	225.56
876.80	225.53
877.11	225.53
877.42	225.56
877.73	225.56
878.04	225.58
878.35	225.56
878.66	225.58
878.96	225.52
879.27	225.51
879.58	225.48
879.89	225.48
880.20	225.49
880.51	225.46
880.82	225.49
881.12	225.50
881.43	225.47
881.74	225.44
882.05	225.43
882.36	225.46
882.67	225.50
882.97	225.39
883.28	225.39
883.59	225.37
883.90	225.38
884.21	225.41
884.51	225.43
884.82	225.40
885.13	225.42
885.44	225.46
885.74	225.48
886.05	225.44
886.36	225.45
886.67	225.41
886.98	225.50
887.28	225.47
887.59	225.47
887.90	225.52
888.20	225.53
888.51	225.57
888.82	225.56
889.13	225.53
889.43	225.62
889.74	225.59
890.05	225.58
890.35	225.58
890.66	225.53
890.97	225.52
891.28	225.52
891.58	225.55
891.89	225.53
892.20	225.51
892.50	225.53
892.81	225.52
893.12	225.52
893.42	225.45
893.73	225.47
894.04	225.49
894.34	225.51
894.65	225.52
894.95	225.52
895.26	225.54
895.57	225.57
895.87	225.48
896.18	225.55
896.48	225.57
896.79	225.54
897.10	225.58
897.40	225.59
897.71	225.61
898.01	225.57
898.32	225.59
898.63	225.63
898.93	225.65
899.24	225.66
899.54	225.69
899.85	225.70
900.15	225.68
900.46	225.64
900.76	225.64
901.07	225.63
901.38	225.60
901.68	225.61
901.99	225.56
902.29	225.57
902.60	225.54
902.90	225.54
903.21	225.55
903.51	225.53
903.82	225.54
904.12	225.56
904.43	225.56
904.73	225.55
905.03	225.52
905.34	225.58
905.64	225.54
905.95	225.52
906.25	225.51
906.56	225.50
906.86	225.50
907.17	225.49
907.47	225.44
907.77	225.42
908.08	225.39
908.38	225.39
908.69	225.41
908.99	225.38
909.30	225.36
909.60	225.38
909.90	225.35
910.21	225.30
910.51	225.28
910.81	225.26
911.12	225.22
911.42	225.20
911.73	225.11
912.03	225.12
912.33	225.11
912.64	225.10
912.94	225.07
913.24	225.04
913.55	225.01
913.85	225.02
914.15	225.04
914.46	225.04
914.76	225.00
915.06	224.97
915.37	224.97
915.67	224.96
915.97	224.92
916.27	224.92
916.58	224.91
916.88	224.87
917.18	224.88
917.49	224.94
917.79	224.98
918.09	224.95
918.39	224.99
918.70	224.98
919.00	224.99
919.30	225.05
919.60	225.08
919.91	225.06
920.21	225.04
920.51	225.04
920.81	225.04
921.12	225.08
921.42	225.09
921.72	225.10
922.02	225.10
922.32	225.15
922.63	225.14
922.93	225.21
923.23	225.22
923.53	225.23
923.83	225.18
924.13	225.15
924.44	225.21
924.74	225.20
925.04	225.24
925.34	225.22
925.64	225.17
925.94	225.16
926.24	225.22
926.55	225.23
926.85	225.24
927.15	225.18
927.45	225.18
927.75	225.18
928.05	225.17
928.35	225.18
928.65	225.19
928.95	225.21
929.26	225.17
929.56	225.20
929.86	225.18
930.16	225.20
930.46	225.19
930.76	225.19
931.06	225.16
931.36	225.14
931.66	225.12
931.96	225.14
932.26	225.16
932.56	225.11
932.86	225.08
933.16	225.08
933.46	225.11
933.76	225.12
934.06	225.16
934.36	225.18
934.66	225.18
934.96	225.15
935.26	225.16
935.56	225.15
935.86	225.13
936.16	225.12
936.46	225.08
936.76	225.10
937.06	225.07
937.36	225.07
937.66	225.08
937.96	225.09
938.26	225.07
938.56	225.03
938.86	225.04
939.16	225.09
939.46	225.09
939.76	225.11
940.06	225.08
940.35	225.02
940.65	225.00
940.95	224.98
941.25	224.94
941.55	224.88
941.85	224.84
942.15	224.83
942.45	224.85
942.75	224.83
943.04	224.83
943.34	224.84
943.64	224.84
943.94	224.78
944.24	224.78
944.54	224.80
944.84	224.83
945.13	224.80
945.43	224.79
945.73	224.78
946.03	224.78
946.33	224.77
946.62	224.79
946.92	224.75
947.22	224.78
947.52	224.78
947.82	224.78
948.11	224.80
948.41	224.80
948.71	224.79
949.01	224.83
949.31	224.81
949.60	224.82
949.90	224.84
950.20	224.86
950.50	224.87
950.79	224.84
951.09	224.82
951.39	224.84
951.69	224.85
951.98	224.84
952.28	224.82
952.58	224.83
952.87	224.81
953.17	224.87
953.47	224.82
953.76	224.85
954.06	224.88
954.36	224.87
954.66	224.86
954.95	224.87
955.25	224.85
955.55	224.86
955.84	224.83
956.14	224.78
956.44	224.77
956.73	224.76
957.03	224.75
957.32	224.75
957.62	224.76
957.92	224.79
958.21	224.78
958.51	224.89
958.81	224.92
959.10	224.93
959.40	224.95
959.69	224.97
959.99	224.96
960.29	224.96
960.58	224.98
960.88	225.02
961.17	225.04
961.47	225.12
961.76	225.12
962.06	225.13
962.36	225.15
962.65	225.17
962.95	225.20
963.24	225.20
963.54	225.24
963.83	225.23
964.13	225.21
964.42	225.21
964.72	225.17
965.01	225.14
965.31	225.13
965.60	225.07
965.90	225.16
966.19	225.14
966.49	225.14
966.78	225.13
967.08	225.11
967.37	225.11
967.67	225.05
967.96	225.05
968.26	225.06
968.55	225.06
968.85	225.06
969.14	225.04
969.43	225.07
969.73	225.04
970.02	225.06
970.32	225.07
970.61	225.05
970.91	224.98
971.20	224.99
971.49	224.97
971.79	224.99
972.08	224.91
972.38	224.93
972.67	224.91
972.96	224.92
973.26	224.91
973.55	224.94
973.85	224.92
974.14	224.92
974.43	224.91
974.73	224.89
975.02	224.89
975.31	224.85
975.61	224.85
975.90	224.84
976.19	224.81
976.49	224.79
976.78	224.80
977.07	224.83
977.37	224.83
977.66	224.88
977.95	224.90
978.24	224.91
978.54	224.92
978.83	224.94
979.12	224.95
979.42	224.92
979.71	224.89
980.00	224.90
980.29	224.89
980.59	224.89
980.88	224.92
981.17	224.94
981.46	224.98
981.76	224.98
982.05	225.00
982.34	225.02
982.63	225.03
982.93	225.05
983.22	225.05
983.51	225.05
983.80	225.05
984.09	225.04
984.39	225.04
984.68	225.02
984.97	224.99
985.26	224.95
985.55	225.02
985.85	225.02
986.14	225.04
986.43	225.12
986.72	225.10
987.01	225.10
987.30	225.09
987.59	225.07
987.89	225.07
988.18	225.06
988.47	225.08
988.76	225.08
989.05	225.06
989.34	225.05
989.63	225.08
989.92	225.08
990.22	225.07
990.51	225.08
990.80	225.10
991.09	225.14
991.38	225.17
991.67	225.14
991.96	225.16
992.25	225.18
992.54	225.14
992.83	225.16
993.12	225.15
993.41	225.18
993.70	225.27
993.99	225.30
994.28	225.32
994.58	225.31
994.87	225.29
995.16	225.31
995.45	225.33
995.74	225.31
996.03	225.32
996.32	225.34
996.61	225.37
996.90	225.36
997.19	225.37
997.48	225.41
997.77	225.39
998.06	225.38
998.34	225.35
998.63	225.33
998.92	225.34
999.21	225.34
999.50	225.33
999.79	225.23
1000.08	225.25
1000.37	225.23
1000.66	225.22
1000.95	225.27
1001.24	225.26
1001.53	225.25
1001.82	225.25
1002.11	225.22
1002.40	225.22
1002.68	225.23
1002.97	225.27
1003.26	225.25
1003.55	225.19
1003.84	225.19
1004.13	225.21
1004.42	225.19
1004.71	225.17
1004.99	225.15
1005.28	225.18
1005.57	225.18
1005.86	225.20
1006.15	225.16
1006.44	225.15
1006.72	225.15
1007.01	225.11
1007.30	225.11
1007.59	225.09
1007.88	225.07
1008.17	225.08
1008.45	225.05
1008.74	224.99
1009.03	224.95
1009.32	224.95
1009.60	224.94
1009.89	224.91
1010.18	224.84
1010.47	224.83
1010.76	224.84
1011.04	224.82
1011.33	224.82
1011.62	224.82
1011.91	224.81
1012.19	224.81
1012.48	224.79
1012.77	224.77
1013.05	224.77
1013.34	224.73
1013.63	224.71
1013.92	224.74
1014.20	224.70
1014.49	224.71
1014.78	224.72
1015.06	224.70
1015.35	224.70
1015.64	224.71
1015.92	224.71
1016.21	224.75
1016.50	224.74
1016.78	224.74
1017.07	224.77
1017.36	224.73
1017.64	224.69
1017.93	224.69
1018.22	224.67
1018.50	224.70
1018.79	224.69
1019.08	224.67
1019.36	224.71
1019.65	224.69
1019.93	224.68
1020.22	224.71
1020.51	224.74
1020.79	224.71
1021.08	224.30
1021.36	225.05
1021.65	224.35
1021.94	224.79
1022.22	225.01
1022.51	224.11
1022.79	224.72
1023.08	224.70
1023.36	225.69
1023.65	224.13
>>>>>End Processed Spectral Data<<<<<
